trial_type,trial_index,time_elapsed,internal_node_id,rt,stimulus,response,exp_name,exp_stage,test_part,subjectID,databaseID,counterbal,choice_stimuli_1,choice_stimuli_2,pattern_stimuli,rewarded_answer,correct_answer,feedback_duration_times,stim_left,stim_right,pair,leftright_counter,trial,response_correct,response_rewarded,chosen_stim,counter,displayed_choice,feedback_durations,ITI_duration,labels,rest_warning,prolificID,start_time,date
pavlovia,0,735,0.0-0.0,,,,,,,13tegHUn27W5eqKoo56ZxVRwt4E2,,,,,,,,,,,,,,,,,,,,,,,5c7c0337a1b1360011c481fb,09:06:20,27/02/2024
html-keyboard-response,1,3748,0.0-1.0,,"<div style=""font-size:100px;"">+</div>",,delaylearn,learning,pre_fixation,13tegHUn27W5eqKoo56ZxVRwt4E2,,,,,,,,,,,,,,,,,,,,,,,5c7c0337a1b1360011c481fb,09:06:20,27/02/2024
html-keyboard-response,2,5508,0.0-2.0-0.0,1756.6999999999534,"<div style=""display: flex; flex-direction: column; align-items: center; margin-top: -40px;""><img src=""images/demo_images/pattern_1.png"" style=""width: 234px; height: 230px; margin-top: -50px;""><div style=""display: flex; justify-content: space-between; margin-top: 33px;""><img src=""images/demo_images/choice_trial_2.png"" style=""width: 408px; height: 417px; margin-right: 200px;""><img src=""images/demo_images/choice_trial_1.png"" style=""width: 408px; height: 417px;""></div></div>",f,delaylearn,learning,trial,13tegHUn27W5eqKoo56ZxVRwt4E2,13tegHUn27W5eqKoo56ZxVRwt4E2,4.0,images/demo_images/choice_trial_2.png,images/demo_images/choice_trial_1.png,images/demo_images/pattern_1.png,j,j,3000.0,2.0,1.0,20.0,1.0,1.0,0.0,0.0,2.0,0.0,,,,,,5c7c0337a1b1360011c481fb,09:06:20,27/02/2024
html-keyboard-response,3,6513,0.0-2.0-1.0,,"<div style=""display: flex; flex-direction: column; align-items: center; margin-top: -40px;""><img src=""images/demo_images/pattern_1.png"" style=""width: 234px; height: 230px; margin-top: -50px;""><div style=""display: flex; justify-content: space-between; margin-top: 33px;""><img src=""images/demo_images/choice_trial_2.png"" style=""width: 408px; height: 417px; margin-right: 608px;""></div></div>",,delaylearn,learning,display_response,13tegHUn27W5eqKoo56ZxVRwt4E2,13tegHUn27W5eqKoo56ZxVRwt4E2,,,,,,,,,,,,,,,,,chosen stimuli: images/demo_images/choice_trial_2.png,,,,,5c7c0337a1b1360011c481fb,09:06:20,27/02/2024
html-keyboard-response,4,9528,0.0-2.0-2.0,,,,delaylearn,learning,feedback_duration_window,13tegHUn27W5eqKoo56ZxVRwt4E2,13tegHUn27W5eqKoo56ZxVRwt4E2,,,,,,,,,,,,,,,,,,3000.0,,,,5c7c0337a1b1360011c481fb,09:06:20,27/02/2024
html-keyboard-response,5,11045,0.0-2.0-3.0,,<div style='margin:auto;width: auto; font-size: 150%'><span style='font-weight: bold; font-size: 100px; color: red;'>0 points!</span><br><br></div>,,delaylearn,learning,feedback_image_window,13tegHUn27W5eqKoo56ZxVRwt4E2,13tegHUn27W5eqKoo56ZxVRwt4E2,,,,,,,,,,,,,,,,,,,,,,5c7c0337a1b1360011c481fb,09:06:20,27/02/2024
html-keyboard-response,6,12645,0.0-3.0,,"<div style=""font-size:100px;"">+</div>",,delaylearn,learning,ITI,13tegHUn27W5eqKoo56ZxVRwt4E2,13tegHUn27W5eqKoo56ZxVRwt4E2,,,,,,,,,,,,,,,,,,,1586.0,,,5c7c0337a1b1360011c481fb,09:06:20,27/02/2024
html-keyboard-response,7,13266,0.0-4.0-0.0,616.9000000001397,"<div style=""display: flex; flex-direction: column; align-items: center; margin-top: -40px;""><img src=""images/demo_images/pattern_1.png"" style=""width: 234px; height: 230px; margin-top: -50px;""><div style=""display: flex; justify-content: space-between; margin-top: 33px;""><img src=""images/demo_images/choice_trial_2.png"" style=""width: 408px; height: 417px; margin-right: 200px;""><img src=""images/demo_images/choice_trial_1.png"" style=""width: 408px; height: 417px;""></div></div>",j,delaylearn,learning,trial,13tegHUn27W5eqKoo56ZxVRwt4E2,13tegHUn27W5eqKoo56ZxVRwt4E2,4.0,images/demo_images/choice_trial_2.png,images/demo_images/choice_trial_1.png,images/demo_images/pattern_1.png,j,j,3000.0,2.0,1.0,20.0,1.0,2.0,1.0,1.0,1.0,10.0,,,,,,5c7c0337a1b1360011c481fb,09:06:20,27/02/2024
html-keyboard-response,8,14278,0.0-4.0-1.0,,"<div style=""display: flex; flex-direction: column; align-items: center; margin-top: -40px;""><img src=""images/demo_images/pattern_1.png"" style=""width: 234px; height: 230px; margin-top: -50px;""><div style=""display: flex; justify-content: space-between; margin-top: 33px;""><img src=""images/demo_images/choice_trial_1.png"" style=""width: 408px; height: 417px; margin-left:608px;""></div></div>",,delaylearn,learning,display_response,13tegHUn27W5eqKoo56ZxVRwt4E2,13tegHUn27W5eqKoo56ZxVRwt4E2,,,,,,,,,,,,,,,,,chosen stimuli: images/demo_images/choice_trial_1.png,,,,,5c7c0337a1b1360011c481fb,09:06:20,27/02/2024
html-keyboard-response,9,17293,0.0-4.0-2.0,,,,delaylearn,learning,feedback_duration_window,13tegHUn27W5eqKoo56ZxVRwt4E2,13tegHUn27W5eqKoo56ZxVRwt4E2,,,,,,,,,,,,,,,,,,3000.0,,,,5c7c0337a1b1360011c481fb,09:06:20,27/02/2024
html-keyboard-response,10,18809,0.0-4.0-3.0,,<div style='margin:auto;width: auto; font-size: 150%'><span style='font-weight: bold; font-size: 100px; color: green;'>+10 points!</span><br><br></div>,,delaylearn,learning,feedback_image_window,13tegHUn27W5eqKoo56ZxVRwt4E2,13tegHUn27W5eqKoo56ZxVRwt4E2,,,,,,,,,,,,,,,,,,,,,,5c7c0337a1b1360011c481fb,09:06:20,27/02/2024
html-keyboard-response,11,20893,0.0-5.0,,"<div style=""font-size:100px;"">+</div>",,delaylearn,learning,ITI,13tegHUn27W5eqKoo56ZxVRwt4E2,13tegHUn27W5eqKoo56ZxVRwt4E2,,,,,,,,,,,,,,,,,,,2066.0,,,5c7c0337a1b1360011c481fb,09:06:20,27/02/2024
html-keyboard-response,12,21759,0.0-6.0-0.0,862.4000000001397,"<div style=""display: flex; flex-direction: column; align-items: center; margin-top: -40px;""><img src=""images/demo_images/pattern_1.png"" style=""width: 234px; height: 230px; margin-top: -50px;""><div style=""display: flex; justify-content: space-between; margin-top: 33px;""><img src=""images/demo_images/choice_trial_1.png"" style=""width: 408px; height: 417px; margin-right: 200px;""><img src=""images/demo_images/choice_trial_2.png"" style=""width: 408px; height: 417px;""></div></div>",f,delaylearn,learning,trial,13tegHUn27W5eqKoo56ZxVRwt4E2,13tegHUn27W5eqKoo56ZxVRwt4E2,4.0,images/demo_images/choice_trial_1.png,images/demo_images/choice_trial_2.png,images/demo_images/pattern_1.png,j,f,3000.0,1.0,2.0,20.0,0.0,3.0,1.0,0.0,1.0,10.0,,,,,,5c7c0337a1b1360011c481fb,09:06:20,27/02/2024
html-keyboard-response,13,22775,0.0-6.0-1.0,,"<div style=""display: flex; flex-direction: column; align-items: center; margin-top: -40px;""><img src=""images/demo_images/pattern_1.png"" style=""width: 234px; height: 230px; margin-top: -50px;""><div style=""display: flex; justify-content: space-between; margin-top: 33px;""><img src=""images/demo_images/choice_trial_1.png"" style=""width: 408px; height: 417px; margin-right: 608px;""></div></div>",,delaylearn,learning,display_response,13tegHUn27W5eqKoo56ZxVRwt4E2,13tegHUn27W5eqKoo56ZxVRwt4E2,,,,,,,,,,,,,,,,,chosen stimuli: images/demo_images/choice_trial_1.png,,,,,5c7c0337a1b1360011c481fb,09:06:20,27/02/2024
html-keyboard-response,14,25791,0.0-6.0-2.0,,,,delaylearn,learning,feedback_duration_window,13tegHUn27W5eqKoo56ZxVRwt4E2,13tegHUn27W5eqKoo56ZxVRwt4E2,,,,,,,,,,,,,,,,,,3000.0,,,,5c7c0337a1b1360011c481fb,09:06:20,27/02/2024
html-keyboard-response,15,27307,0.0-6.0-3.0,,<div style='margin:auto;width: auto; font-size: 150%'><span style='font-weight: bold; font-size: 100px; color: red;'>0 points!</span><br><br></div>,,delaylearn,learning,feedback_image_window,13tegHUn27W5eqKoo56ZxVRwt4E2,13tegHUn27W5eqKoo56ZxVRwt4E2,,,,,,,,,,,,,,,,,,,,,,5c7c0337a1b1360011c481fb,09:06:20,27/02/2024
html-keyboard-response,16,28975,0.0-7.0,,"<div style=""font-size:100px;"">+</div>",,delaylearn,learning,ITI,13tegHUn27W5eqKoo56ZxVRwt4E2,13tegHUn27W5eqKoo56ZxVRwt4E2,,,,,,,,,,,,,,,,,,,1659.0,,,5c7c0337a1b1360011c481fb,09:06:20,27/02/2024
html-keyboard-response,17,29601,0.0-8.0-0.0,623.3999999999069,"<div style=""display: flex; flex-direction: column; align-items: center; margin-top: -40px;""><img src=""images/demo_images/pattern_1.png"" style=""width: 234px; height: 230px; margin-top: -50px;""><div style=""display: flex; justify-content: space-between; margin-top: 33px;""><img src=""images/demo_images/choice_trial_1.png"" style=""width: 408px; height: 417px; margin-right: 200px;""><img src=""images/demo_images/choice_trial_2.png"" style=""width: 408px; height: 417px;""></div></div>",j,delaylearn,learning,trial,13tegHUn27W5eqKoo56ZxVRwt4E2,13tegHUn27W5eqKoo56ZxVRwt4E2,4.0,images/demo_images/choice_trial_1.png,images/demo_images/choice_trial_2.png,images/demo_images/pattern_1.png,f,f,3000.0,1.0,2.0,20.0,0.0,4.0,0.0,0.0,2.0,10.0,,,,,,5c7c0337a1b1360011c481fb,09:06:20,27/02/2024
html-keyboard-response,18,30607,0.0-8.0-1.0,,"<div style=""display: flex; flex-direction: column; align-items: center; margin-top: -40px;""><img src=""images/demo_images/pattern_1.png"" style=""width: 234px; height: 230px; margin-top: -50px;""><div style=""display: flex; justify-content: space-between; margin-top: 33px;""><img src=""images/demo_images/choice_trial_2.png"" style=""width: 408px; height: 417px; margin-left:608px;""></div></div>",,delaylearn,learning,display_response,13tegHUn27W5eqKoo56ZxVRwt4E2,13tegHUn27W5eqKoo56ZxVRwt4E2,,,,,,,,,,,,,,,,,chosen stimuli: images/demo_images/choice_trial_2.png,,,,,5c7c0337a1b1360011c481fb,09:06:20,27/02/2024
html-keyboard-response,19,33623,0.0-8.0-2.0,,,,delaylearn,learning,feedback_duration_window,13tegHUn27W5eqKoo56ZxVRwt4E2,13tegHUn27W5eqKoo56ZxVRwt4E2,,,,,,,,,,,,,,,,,,3000.0,,,,5c7c0337a1b1360011c481fb,09:06:20,27/02/2024
html-keyboard-response,20,35139,0.0-8.0-3.0,,<div style='margin:auto;width: auto; font-size: 150%'><span style='font-weight: bold; font-size: 100px; color: red;'>0 points!</span><br><br></div>,,delaylearn,learning,feedback_image_window,13tegHUn27W5eqKoo56ZxVRwt4E2,13tegHUn27W5eqKoo56ZxVRwt4E2,,,,,,,,,,,,,,,,,,,,,,5c7c0337a1b1360011c481fb,09:06:20,27/02/2024
html-keyboard-response,21,35655,0.0-9.0-0.0,,,,,,mood_trial_fixation,13tegHUn27W5eqKoo56ZxVRwt4E2,,,,,,,,,,,,,,,,,,,,,,,5c7c0337a1b1360011c481fb,09:06:20,27/02/2024
lmdlab-html-vas-response,22,42592,0.0-9.0-1.0,5907.0,How happy are you right now?,0.5370370370370371,delaylearn,learning,mood_trial,13tegHUn27W5eqKoo56ZxVRwt4E2,13tegHUn27W5eqKoo56ZxVRwt4E2,,,,,,,,,,,,,,,,,,,,"['Very unhappy', 'Very happy']",,5c7c0337a1b1360011c481fb,09:06:20,27/02/2024
html-keyboard-response,23,44354,0.0-10.0,,"<div style=""font-size:100px;"">+</div>",,delaylearn,learning,ITI,13tegHUn27W5eqKoo56ZxVRwt4E2,13tegHUn27W5eqKoo56ZxVRwt4E2,,,,,,,,,,,,,,,,,,,1744.0,,,5c7c0337a1b1360011c481fb,09:06:20,27/02/2024
html-keyboard-response,24,45811,0.0-11.0-0.0,1454.4000000001397,"<div style=""display: flex; flex-direction: column; align-items: center; margin-top: -40px;""><img src=""images/demo_images/pattern_1.png"" style=""width: 234px; height: 230px; margin-top: -50px;""><div style=""display: flex; justify-content: space-between; margin-top: 33px;""><img src=""images/demo_images/choice_trial_2.png"" style=""width: 408px; height: 417px; margin-right: 200px;""><img src=""images/demo_images/choice_trial_1.png"" style=""width: 408px; height: 417px;""></div></div>",j,delaylearn,learning,trial,13tegHUn27W5eqKoo56ZxVRwt4E2,13tegHUn27W5eqKoo56ZxVRwt4E2,4.0,images/demo_images/choice_trial_2.png,images/demo_images/choice_trial_1.png,images/demo_images/pattern_1.png,j,j,3000.0,2.0,1.0,20.0,1.0,5.0,1.0,1.0,1.0,20.0,,,,,,5c7c0337a1b1360011c481fb,09:06:20,27/02/2024
html-keyboard-response,25,46820,0.0-11.0-1.0,,"<div style=""display: flex; flex-direction: column; align-items: center; margin-top: -40px;""><img src=""images/demo_images/pattern_1.png"" style=""width: 234px; height: 230px; margin-top: -50px;""><div style=""display: flex; justify-content: space-between; margin-top: 33px;""><img src=""images/demo_images/choice_trial_1.png"" style=""width: 408px; height: 417px; margin-left:608px;""></div></div>",,delaylearn,learning,display_response,13tegHUn27W5eqKoo56ZxVRwt4E2,13tegHUn27W5eqKoo56ZxVRwt4E2,,,,,,,,,,,,,,,,,chosen stimuli: images/demo_images/choice_trial_1.png,,,,,5c7c0337a1b1360011c481fb,09:06:20,27/02/2024
html-keyboard-response,26,49835,0.0-11.0-2.0,,,,delaylearn,learning,feedback_duration_window,13tegHUn27W5eqKoo56ZxVRwt4E2,13tegHUn27W5eqKoo56ZxVRwt4E2,,,,,,,,,,,,,,,,,,3000.0,,,,5c7c0337a1b1360011c481fb,09:06:20,27/02/2024
html-keyboard-response,27,51352,0.0-11.0-3.0,,<div style='margin:auto;width: auto; font-size: 150%'><span style='font-weight: bold; font-size: 100px; color: green;'>+10 points!</span><br><br></div>,,delaylearn,learning,feedback_image_window,13tegHUn27W5eqKoo56ZxVRwt4E2,13tegHUn27W5eqKoo56ZxVRwt4E2,,,,,,,,,,,,,,,,,,,,,,5c7c0337a1b1360011c481fb,09:06:20,27/02/2024
html-keyboard-response,28,53851,0.0-12.0,,"<div style=""font-size:100px;"">+</div>",,delaylearn,learning,ITI,13tegHUn27W5eqKoo56ZxVRwt4E2,13tegHUn27W5eqKoo56ZxVRwt4E2,,,,,,,,,,,,,,,,,,,2484.0,,,5c7c0337a1b1360011c481fb,09:06:20,27/02/2024
html-keyboard-response,29,54949,0.0-13.0-0.0,1094.0,"<div style=""display: flex; flex-direction: column; align-items: center; margin-top: -40px;""><img src=""images/demo_images/pattern_1.png"" style=""width: 234px; height: 230px; margin-top: -50px;""><div style=""display: flex; justify-content: space-between; margin-top: 33px;""><img src=""images/demo_images/choice_trial_1.png"" style=""width: 408px; height: 417px; margin-right: 200px;""><img src=""images/demo_images/choice_trial_2.png"" style=""width: 408px; height: 417px;""></div></div>",f,delaylearn,learning,trial,13tegHUn27W5eqKoo56ZxVRwt4E2,13tegHUn27W5eqKoo56ZxVRwt4E2,4.0,images/demo_images/choice_trial_1.png,images/demo_images/choice_trial_2.png,images/demo_images/pattern_1.png,f,f,3000.0,1.0,2.0,20.0,0.0,6.0,1.0,1.0,1.0,30.0,,,,,,5c7c0337a1b1360011c481fb,09:06:20,27/02/2024
html-keyboard-response,30,55965,0.0-13.0-1.0,,"<div style=""display: flex; flex-direction: column; align-items: center; margin-top: -40px;""><img src=""images/demo_images/pattern_1.png"" style=""width: 234px; height: 230px; margin-top: -50px;""><div style=""display: flex; justify-content: space-between; margin-top: 33px;""><img src=""images/demo_images/choice_trial_1.png"" style=""width: 408px; height: 417px; margin-right: 608px;""></div></div>",,delaylearn,learning,display_response,13tegHUn27W5eqKoo56ZxVRwt4E2,13tegHUn27W5eqKoo56ZxVRwt4E2,,,,,,,,,,,,,,,,,chosen stimuli: images/demo_images/choice_trial_1.png,,,,,5c7c0337a1b1360011c481fb,09:06:20,27/02/2024
html-keyboard-response,31,58967,0.0-13.0-2.0,,,,delaylearn,learning,feedback_duration_window,13tegHUn27W5eqKoo56ZxVRwt4E2,13tegHUn27W5eqKoo56ZxVRwt4E2,,,,,,,,,,,,,,,,,,3000.0,,,,5c7c0337a1b1360011c481fb,09:06:20,27/02/2024
html-keyboard-response,32,60482,0.0-13.0-3.0,,<div style='margin:auto;width: auto; font-size: 150%'><span style='font-weight: bold; font-size: 100px; color: green;'>+10 points!</span><br><br></div>,,delaylearn,learning,feedback_image_window,13tegHUn27W5eqKoo56ZxVRwt4E2,13tegHUn27W5eqKoo56ZxVRwt4E2,,,,,,,,,,,,,,,,,,,,,,5c7c0337a1b1360011c481fb,09:06:20,27/02/2024
html-button-response,33,63052,0.0-14.0,2567.899999999907,"
  <div style=""display: flex; align-items: center; justify-content: center; height: 80vh;"">
  <div>
          <img src=""images/inst_demo_finish.png"" style=""width: 80vw; height:auto;"">
          <br><br>
      </div>
      <br><br>
  </div>",0,,,,13tegHUn27W5eqKoo56ZxVRwt4E2,,,,,,,,,,,,,,,,,,,,,,,5c7c0337a1b1360011c481fb,09:06:20,27/02/2024
html-keyboard-response,34,68237,0.0-15.0,5183.0,"
  <div style=""display: flex; align-items: center; justify-content: center; height: 80vh;"">
  <div>
          <img src=""images/inst_6.png"" style=""width: 80vw; height:auto;"">
          <br><br>
      </div>
      <br><br>
  </div>",f,,,,13tegHUn27W5eqKoo56ZxVRwt4E2,,,,,,,,,,,,,,,,,,,,,,,5c7c0337a1b1360011c481fb,09:06:20,27/02/2024
html-keyboard-response,35,71246,0.0-16.0,,"<div style=""font-size:100px;"">+</div>",,delaylearn,learning,pre_fixation,13tegHUn27W5eqKoo56ZxVRwt4E2,,,,,,,,,,,,,,,,,,,,,,,5c7c0337a1b1360011c481fb,09:06:20,27/02/2024
html-keyboard-response,36,72779,0.0-17.0,,"<div style=""font-size:100px;"">+</div>",,delaylearn,learning,ITI,13tegHUn27W5eqKoo56ZxVRwt4E2,13tegHUn27W5eqKoo56ZxVRwt4E2,,,,,,,,,,,,,,,,,,,1522.0,,,5c7c0337a1b1360011c481fb,09:06:20,27/02/2024
html-keyboard-response,37,74512,0.0-18.0-0.0,1729.1999999999534,"<div style=""display: flex; flex-direction: column; align-items: center; margin-top: -40px;""><img src=""images/pattern_3.png"" style=""width: 234px; height: 230px; margin-top: -50px;""><div style=""display: flex; justify-content: space-between; margin-top: 33px;""><img src=""images/choice_trial_16.png"" style=""width: 408px; height: 417px; margin-right: 200px;""><img src=""images/choice_trial_6.png"" style=""width: 408px; height: 417px;""></div></div>",f,delaylearn,learning,trial,13tegHUn27W5eqKoo56ZxVRwt4E2,13tegHUn27W5eqKoo56ZxVRwt4E2,4.0,images/choice_trial_16.png,images/choice_trial_6.png,images/pattern_3.png,f,f,7000.0,16.0,6.0,2.0,0.0,7.0,1.0,1.0,16.0,40.0,,,,,,5c7c0337a1b1360011c481fb,09:06:20,27/02/2024
html-keyboard-response,38,75529,0.0-18.0-1.0,,"<div style=""display: flex; flex-direction: column; align-items: center; margin-top: -40px;""><img src=""images/pattern_3.png"" style=""width: 234px; height: 230px; margin-top: -50px;""><div style=""display: flex; justify-content: space-between; margin-top: 33px;""><img src=""images/choice_trial_16.png"" style=""width: 408px; height: 417px; margin-right: 608px;""></div></div>",,delaylearn,learning,display_response,13tegHUn27W5eqKoo56ZxVRwt4E2,13tegHUn27W5eqKoo56ZxVRwt4E2,,,,,,,,,,,,,,,,,chosen stimuli: images/choice_trial_16.png,,,,,5c7c0337a1b1360011c481fb,09:06:20,27/02/2024
html-keyboard-response,39,82543,0.0-18.0-2.0,,,,delaylearn,learning,feedback_duration_window,13tegHUn27W5eqKoo56ZxVRwt4E2,13tegHUn27W5eqKoo56ZxVRwt4E2,,,,,,,,,,,,,,,,,,7000.0,,,,5c7c0337a1b1360011c481fb,09:06:20,27/02/2024
html-keyboard-response,40,84056,0.0-18.0-3.0,,<div style='margin:auto;width: auto; font-size: 150%'><span style='font-weight: bold; font-size: 100px; color: green;'>+10 points!</span><br><br></div>,,delaylearn,learning,feedback_image_window,13tegHUn27W5eqKoo56ZxVRwt4E2,13tegHUn27W5eqKoo56ZxVRwt4E2,,,,,,,,,,,,,,,,,,,,,,5c7c0337a1b1360011c481fb,09:06:20,27/02/2024
html-keyboard-response,41,86309,0.0-19.0,,"<div style=""font-size:100px;"">+</div>",,delaylearn,learning,ITI,13tegHUn27W5eqKoo56ZxVRwt4E2,13tegHUn27W5eqKoo56ZxVRwt4E2,,,,,,,,,,,,,,,,,,,2240.0,,,5c7c0337a1b1360011c481fb,09:06:20,27/02/2024
html-keyboard-response,42,88840,0.0-20.0-0.0,2527.0,"<div style=""display: flex; flex-direction: column; align-items: center; margin-top: -40px;""><img src=""images/pattern_7.png"" style=""width: 234px; height: 230px; margin-top: -50px;""><div style=""display: flex; justify-content: space-between; margin-top: 33px;""><img src=""images/choice_trial_4.png"" style=""width: 408px; height: 417px; margin-right: 200px;""><img src=""images/choice_trial_13.png"" style=""width: 408px; height: 417px;""></div></div>",j,delaylearn,learning,trial,13tegHUn27W5eqKoo56ZxVRwt4E2,13tegHUn27W5eqKoo56ZxVRwt4E2,4.0,images/choice_trial_4.png,images/choice_trial_13.png,images/pattern_7.png,j,j,750.0,4.0,13.0,6.0,1.0,8.0,1.0,1.0,13.0,50.0,,,,,,5c7c0337a1b1360011c481fb,09:06:20,27/02/2024
html-keyboard-response,43,89858,0.0-20.0-1.0,,"<div style=""display: flex; flex-direction: column; align-items: center; margin-top: -40px;""><img src=""images/pattern_7.png"" style=""width: 234px; height: 230px; margin-top: -50px;""><div style=""display: flex; justify-content: space-between; margin-top: 33px;""><img src=""images/choice_trial_13.png"" style=""width: 408px; height: 417px; margin-left:608px;""></div></div>",,delaylearn,learning,display_response,13tegHUn27W5eqKoo56ZxVRwt4E2,13tegHUn27W5eqKoo56ZxVRwt4E2,,,,,,,,,,,,,,,,,chosen stimuli: images/choice_trial_13.png,,,,,5c7c0337a1b1360011c481fb,09:06:20,27/02/2024
html-keyboard-response,44,90625,0.0-20.0-2.0,,,,delaylearn,learning,feedback_duration_window,13tegHUn27W5eqKoo56ZxVRwt4E2,13tegHUn27W5eqKoo56ZxVRwt4E2,,,,,,,,,,,,,,,,,,750.0,,,,5c7c0337a1b1360011c481fb,09:06:20,27/02/2024
html-keyboard-response,45,92141,0.0-20.0-3.0,,<div style='margin:auto;width: auto; font-size: 150%'><span style='font-weight: bold; font-size: 100px; color: green;'>+10 points!</span><br><br></div>,,delaylearn,learning,feedback_image_window,13tegHUn27W5eqKoo56ZxVRwt4E2,13tegHUn27W5eqKoo56ZxVRwt4E2,,,,,,,,,,,,,,,,,,,,,,5c7c0337a1b1360011c481fb,09:06:20,27/02/2024
html-keyboard-response,46,94007,0.0-21.0,,"<div style=""font-size:100px;"">+</div>",,delaylearn,learning,ITI,13tegHUn27W5eqKoo56ZxVRwt4E2,13tegHUn27W5eqKoo56ZxVRwt4E2,,,,,,,,,,,,,,,,,,,1850.0,,,5c7c0337a1b1360011c481fb,09:06:20,27/02/2024
html-keyboard-response,47,96510,0.0-22.0-0.0,2499.6999999999534,"<div style=""display: flex; flex-direction: column; align-items: center; margin-top: -40px;""><img src=""images/pattern_4.png"" style=""width: 234px; height: 230px; margin-top: -50px;""><div style=""display: flex; justify-content: space-between; margin-top: 33px;""><img src=""images/choice_trial_8.png"" style=""width: 408px; height: 417px; margin-right: 200px;""><img src=""images/choice_trial_7.png"" style=""width: 408px; height: 417px;""></div></div>",f,delaylearn,learning,trial,13tegHUn27W5eqKoo56ZxVRwt4E2,13tegHUn27W5eqKoo56ZxVRwt4E2,4.0,images/choice_trial_8.png,images/choice_trial_7.png,images/pattern_4.png,f,f,7000.0,8.0,7.0,3.0,0.0,9.0,1.0,1.0,8.0,60.0,,,,,,5c7c0337a1b1360011c481fb,09:06:20,27/02/2024
html-keyboard-response,48,97523,0.0-22.0-1.0,,"<div style=""display: flex; flex-direction: column; align-items: center; margin-top: -40px;""><img src=""images/pattern_4.png"" style=""width: 234px; height: 230px; margin-top: -50px;""><div style=""display: flex; justify-content: space-between; margin-top: 33px;""><img src=""images/choice_trial_8.png"" style=""width: 408px; height: 417px; margin-right: 608px;""></div></div>",,delaylearn,learning,display_response,13tegHUn27W5eqKoo56ZxVRwt4E2,13tegHUn27W5eqKoo56ZxVRwt4E2,,,,,,,,,,,,,,,,,chosen stimuli: images/choice_trial_8.png,,,,,5c7c0337a1b1360011c481fb,09:06:20,27/02/2024
html-keyboard-response,49,104538,0.0-22.0-2.0,,,,delaylearn,learning,feedback_duration_window,13tegHUn27W5eqKoo56ZxVRwt4E2,13tegHUn27W5eqKoo56ZxVRwt4E2,,,,,,,,,,,,,,,,,,7000.0,,,,5c7c0337a1b1360011c481fb,09:06:20,27/02/2024
html-keyboard-response,50,106054,0.0-22.0-3.0,,<div style='margin:auto;width: auto; font-size: 150%'><span style='font-weight: bold; font-size: 100px; color: green;'>+10 points!</span><br><br></div>,,delaylearn,learning,feedback_image_window,13tegHUn27W5eqKoo56ZxVRwt4E2,13tegHUn27W5eqKoo56ZxVRwt4E2,,,,,,,,,,,,,,,,,,,,,,5c7c0337a1b1360011c481fb,09:06:20,27/02/2024
html-keyboard-response,51,108554,0.0-23.0,,"<div style=""font-size:100px;"">+</div>",,delaylearn,learning,ITI,13tegHUn27W5eqKoo56ZxVRwt4E2,13tegHUn27W5eqKoo56ZxVRwt4E2,,,,,,,,,,,,,,,,,,,2498.0,,,5c7c0337a1b1360011c481fb,09:06:20,27/02/2024
html-keyboard-response,52,109952,0.0-24.0-0.0,1395.2999999998137,"<div style=""display: flex; flex-direction: column; align-items: center; margin-top: -40px;""><img src=""images/pattern_5.png"" style=""width: 234px; height: 230px; margin-top: -50px;""><div style=""display: flex; justify-content: space-between; margin-top: 33px;""><img src=""images/choice_trial_15.png"" style=""width: 408px; height: 417px; margin-right: 200px;""><img src=""images/choice_trial_5.png"" style=""width: 408px; height: 417px;""></div></div>",j,delaylearn,learning,trial,13tegHUn27W5eqKoo56ZxVRwt4E2,13tegHUn27W5eqKoo56ZxVRwt4E2,4.0,images/choice_trial_15.png,images/choice_trial_5.png,images/pattern_5.png,j,j,750.0,15.0,5.0,4.0,1.0,10.0,1.0,1.0,5.0,70.0,,,,,,5c7c0337a1b1360011c481fb,09:06:20,27/02/2024
html-keyboard-response,53,110970,0.0-24.0-1.0,,"<div style=""display: flex; flex-direction: column; align-items: center; margin-top: -40px;""><img src=""images/pattern_5.png"" style=""width: 234px; height: 230px; margin-top: -50px;""><div style=""display: flex; justify-content: space-between; margin-top: 33px;""><img src=""images/choice_trial_5.png"" style=""width: 408px; height: 417px; margin-left:608px;""></div></div>",,delaylearn,learning,display_response,13tegHUn27W5eqKoo56ZxVRwt4E2,13tegHUn27W5eqKoo56ZxVRwt4E2,,,,,,,,,,,,,,,,,chosen stimuli: images/choice_trial_5.png,,,,,5c7c0337a1b1360011c481fb,09:06:20,27/02/2024
html-keyboard-response,54,111736,0.0-24.0-2.0,,,,delaylearn,learning,feedback_duration_window,13tegHUn27W5eqKoo56ZxVRwt4E2,13tegHUn27W5eqKoo56ZxVRwt4E2,,,,,,,,,,,,,,,,,,750.0,,,,5c7c0337a1b1360011c481fb,09:06:20,27/02/2024
html-keyboard-response,55,113253,0.0-24.0-3.0,,<div style='margin:auto;width: auto; font-size: 150%'><span style='font-weight: bold; font-size: 100px; color: green;'>+10 points!</span><br><br></div>,,delaylearn,learning,feedback_image_window,13tegHUn27W5eqKoo56ZxVRwt4E2,13tegHUn27W5eqKoo56ZxVRwt4E2,,,,,,,,,,,,,,,,,,,,,,5c7c0337a1b1360011c481fb,09:06:20,27/02/2024
html-keyboard-response,56,115401,0.0-25.0,,"<div style=""font-size:100px;"">+</div>",,delaylearn,learning,ITI,13tegHUn27W5eqKoo56ZxVRwt4E2,13tegHUn27W5eqKoo56ZxVRwt4E2,,,,,,,,,,,,,,,,,,,2143.0,,,5c7c0337a1b1360011c481fb,09:06:20,27/02/2024
html-keyboard-response,57,116975,0.0-26.0-0.0,1571.8999999999069,"<div style=""display: flex; flex-direction: column; align-items: center; margin-top: -40px;""><img src=""images/pattern_6.png"" style=""width: 234px; height: 230px; margin-top: -50px;""><div style=""display: flex; justify-content: space-between; margin-top: 33px;""><img src=""images/choice_trial_10.png"" style=""width: 408px; height: 417px; margin-right: 200px;""><img src=""images/choice_trial_3.png"" style=""width: 408px; height: 417px;""></div></div>",f,delaylearn,learning,trial,13tegHUn27W5eqKoo56ZxVRwt4E2,13tegHUn27W5eqKoo56ZxVRwt4E2,4.0,images/choice_trial_10.png,images/choice_trial_3.png,images/pattern_6.png,j,f,750.0,10.0,3.0,5.0,0.0,11.0,1.0,0.0,10.0,70.0,,,,,,5c7c0337a1b1360011c481fb,09:06:20,27/02/2024
html-keyboard-response,58,117984,0.0-26.0-1.0,,"<div style=""display: flex; flex-direction: column; align-items: center; margin-top: -40px;""><img src=""images/pattern_6.png"" style=""width: 234px; height: 230px; margin-top: -50px;""><div style=""display: flex; justify-content: space-between; margin-top: 33px;""><img src=""images/choice_trial_10.png"" style=""width: 408px; height: 417px; margin-right: 608px;""></div></div>",,delaylearn,learning,display_response,13tegHUn27W5eqKoo56ZxVRwt4E2,13tegHUn27W5eqKoo56ZxVRwt4E2,,,,,,,,,,,,,,,,,chosen stimuli: images/choice_trial_10.png,,,,,5c7c0337a1b1360011c481fb,09:06:20,27/02/2024
html-keyboard-response,59,118751,0.0-26.0-2.0,,,,delaylearn,learning,feedback_duration_window,13tegHUn27W5eqKoo56ZxVRwt4E2,13tegHUn27W5eqKoo56ZxVRwt4E2,,,,,,,,,,,,,,,,,,750.0,,,,5c7c0337a1b1360011c481fb,09:06:20,27/02/2024
html-keyboard-response,60,120267,0.0-26.0-3.0,,<div style='margin:auto;width: auto; font-size: 150%'><span style='font-weight: bold; font-size: 100px; color: red;'>0 points!</span><br><br></div>,,delaylearn,learning,feedback_image_window,13tegHUn27W5eqKoo56ZxVRwt4E2,13tegHUn27W5eqKoo56ZxVRwt4E2,,,,,,,,,,,,,,,,,,,,,,5c7c0337a1b1360011c481fb,09:06:20,27/02/2024
html-keyboard-response,61,120784,0.0-27.0-0.0,,,,,,mood_trial_fixation,13tegHUn27W5eqKoo56ZxVRwt4E2,,,,,,,,,,,,,,,,,,,,,,,5c7c0337a1b1360011c481fb,09:06:20,27/02/2024
lmdlab-html-vas-response,62,126221,0.0-27.0-1.0,4416.0,How happy are you right now?,0.6944444444444444,delaylearn,learning,mood_trial,13tegHUn27W5eqKoo56ZxVRwt4E2,13tegHUn27W5eqKoo56ZxVRwt4E2,,,,,,,,,,,,,,,,,,,,"['Very unhappy', 'Very happy']",,5c7c0337a1b1360011c481fb,09:06:20,27/02/2024
html-keyboard-response,63,127966,0.0-28.0,,"<div style=""font-size:100px;"">+</div>",,delaylearn,learning,ITI,13tegHUn27W5eqKoo56ZxVRwt4E2,13tegHUn27W5eqKoo56ZxVRwt4E2,,,,,,,,,,,,,,,,,,,1739.0,,,5c7c0337a1b1360011c481fb,09:06:20,27/02/2024
html-keyboard-response,64,129073,0.0-29.0-0.0,1103.1000000000931,"<div style=""display: flex; flex-direction: column; align-items: center; margin-top: -40px;""><img src=""images/pattern_1.png"" style=""width: 234px; height: 230px; margin-top: -50px;""><div style=""display: flex; justify-content: space-between; margin-top: 33px;""><img src=""images/choice_trial_9.png"" style=""width: 408px; height: 417px; margin-right: 200px;""><img src=""images/choice_trial_1.png"" style=""width: 408px; height: 417px;""></div></div>",f,delaylearn,learning,trial,13tegHUn27W5eqKoo56ZxVRwt4E2,13tegHUn27W5eqKoo56ZxVRwt4E2,4.0,images/choice_trial_9.png,images/choice_trial_1.png,images/pattern_1.png,j,j,7000.0,9.0,1.0,1.0,1.0,12.0,0.0,0.0,9.0,70.0,,,,,,5c7c0337a1b1360011c481fb,09:06:20,27/02/2024
html-keyboard-response,65,130082,0.0-29.0-1.0,,"<div style=""display: flex; flex-direction: column; align-items: center; margin-top: -40px;""><img src=""images/pattern_1.png"" style=""width: 234px; height: 230px; margin-top: -50px;""><div style=""display: flex; justify-content: space-between; margin-top: 33px;""><img src=""images/choice_trial_9.png"" style=""width: 408px; height: 417px; margin-right: 608px;""></div></div>",,delaylearn,learning,display_response,13tegHUn27W5eqKoo56ZxVRwt4E2,13tegHUn27W5eqKoo56ZxVRwt4E2,,,,,,,,,,,,,,,,,chosen stimuli: images/choice_trial_9.png,,,,,5c7c0337a1b1360011c481fb,09:06:20,27/02/2024
html-keyboard-response,66,137096,0.0-29.0-2.0,,,,delaylearn,learning,feedback_duration_window,13tegHUn27W5eqKoo56ZxVRwt4E2,13tegHUn27W5eqKoo56ZxVRwt4E2,,,,,,,,,,,,,,,,,,7000.0,,,,5c7c0337a1b1360011c481fb,09:06:20,27/02/2024
html-keyboard-response,67,138611,0.0-29.0-3.0,,<div style='margin:auto;width: auto; font-size: 150%'><span style='font-weight: bold; font-size: 100px; color: red;'>0 points!</span><br><br></div>,,delaylearn,learning,feedback_image_window,13tegHUn27W5eqKoo56ZxVRwt4E2,13tegHUn27W5eqKoo56ZxVRwt4E2,,,,,,,,,,,,,,,,,,,,,,5c7c0337a1b1360011c481fb,09:06:20,27/02/2024
html-keyboard-response,68,140629,0.0-30.0,,"<div style=""font-size:100px;"">+</div>",,delaylearn,learning,ITI,13tegHUn27W5eqKoo56ZxVRwt4E2,13tegHUn27W5eqKoo56ZxVRwt4E2,,,,,,,,,,,,,,,,,,,2016.0,,,5c7c0337a1b1360011c481fb,09:06:20,27/02/2024
html-keyboard-response,69,141766,0.0-31.0-0.0,1136.1000000000931,"<div style=""display: flex; flex-direction: column; align-items: center; margin-top: -40px;""><img src=""images/pattern_3.png"" style=""width: 234px; height: 230px; margin-top: -50px;""><div style=""display: flex; justify-content: space-between; margin-top: 33px;""><img src=""images/choice_trial_6.png"" style=""width: 408px; height: 417px; margin-right: 200px;""><img src=""images/choice_trial_16.png"" style=""width: 408px; height: 417px;""></div></div>",j,delaylearn,learning,trial,13tegHUn27W5eqKoo56ZxVRwt4E2,13tegHUn27W5eqKoo56ZxVRwt4E2,4.0,images/choice_trial_6.png,images/choice_trial_16.png,images/pattern_3.png,f,j,7000.0,6.0,16.0,2.0,1.0,13.0,1.0,0.0,16.0,70.0,,,,,,5c7c0337a1b1360011c481fb,09:06:20,27/02/2024
html-keyboard-response,70,142777,0.0-31.0-1.0,,"<div style=""display: flex; flex-direction: column; align-items: center; margin-top: -40px;""><img src=""images/pattern_3.png"" style=""width: 234px; height: 230px; margin-top: -50px;""><div style=""display: flex; justify-content: space-between; margin-top: 33px;""><img src=""images/choice_trial_16.png"" style=""width: 408px; height: 417px; margin-left:608px;""></div></div>",,delaylearn,learning,display_response,13tegHUn27W5eqKoo56ZxVRwt4E2,13tegHUn27W5eqKoo56ZxVRwt4E2,,,,,,,,,,,,,,,,,chosen stimuli: images/choice_trial_16.png,,,,,5c7c0337a1b1360011c481fb,09:06:20,27/02/2024
html-keyboard-response,71,149794,0.0-31.0-2.0,,,,delaylearn,learning,feedback_duration_window,13tegHUn27W5eqKoo56ZxVRwt4E2,13tegHUn27W5eqKoo56ZxVRwt4E2,,,,,,,,,,,,,,,,,,7000.0,,,,5c7c0337a1b1360011c481fb,09:06:20,27/02/2024
html-keyboard-response,72,151310,0.0-31.0-3.0,,<div style='margin:auto;width: auto; font-size: 150%'><span style='font-weight: bold; font-size: 100px; color: red;'>0 points!</span><br><br></div>,,delaylearn,learning,feedback_image_window,13tegHUn27W5eqKoo56ZxVRwt4E2,13tegHUn27W5eqKoo56ZxVRwt4E2,,,,,,,,,,,,,,,,,,,,,,5c7c0337a1b1360011c481fb,09:06:20,27/02/2024
html-keyboard-response,73,153610,0.0-32.0,,"<div style=""font-size:100px;"">+</div>",,delaylearn,learning,ITI,13tegHUn27W5eqKoo56ZxVRwt4E2,13tegHUn27W5eqKoo56ZxVRwt4E2,,,,,,,,,,,,,,,,,,,2291.0,,,5c7c0337a1b1360011c481fb,09:06:20,27/02/2024
html-keyboard-response,74,153647,0.0-33.0-0.0,33.0,"<div style=""display: flex; flex-direction: column; align-items: center; margin-top: -40px;""><img src=""images/pattern_5.png"" style=""width: 234px; height: 230px; margin-top: -50px;""><div style=""display: flex; justify-content: space-between; margin-top: 33px;""><img src=""images/choice_trial_5.png"" style=""width: 408px; height: 417px; margin-right: 200px;""><img src=""images/choice_trial_15.png"" style=""width: 408px; height: 417px;""></div></div>",f,delaylearn,learning,trial,13tegHUn27W5eqKoo56ZxVRwt4E2,13tegHUn27W5eqKoo56ZxVRwt4E2,4.0,images/choice_trial_5.png,images/choice_trial_15.png,images/pattern_5.png,f,f,750.0,5.0,15.0,4.0,0.0,14.0,1.0,1.0,5.0,80.0,,,,,,5c7c0337a1b1360011c481fb,09:06:20,27/02/2024
html-keyboard-response,75,154660,0.0-33.0-1.0,,"<div style=""display: flex; flex-direction: column; align-items: center; margin-top: -40px;""><img src=""images/pattern_5.png"" style=""width: 234px; height: 230px; margin-top: -50px;""><div style=""display: flex; justify-content: space-between; margin-top: 33px;""><img src=""images/choice_trial_5.png"" style=""width: 408px; height: 417px; margin-right: 608px;""></div></div>",,delaylearn,learning,display_response,13tegHUn27W5eqKoo56ZxVRwt4E2,13tegHUn27W5eqKoo56ZxVRwt4E2,,,,,,,,,,,,,,,,,chosen stimuli: images/choice_trial_5.png,,,,,5c7c0337a1b1360011c481fb,09:06:20,27/02/2024
html-keyboard-response,76,155426,0.0-33.0-2.0,,,,delaylearn,learning,feedback_duration_window,13tegHUn27W5eqKoo56ZxVRwt4E2,13tegHUn27W5eqKoo56ZxVRwt4E2,,,,,,,,,,,,,,,,,,750.0,,,,5c7c0337a1b1360011c481fb,09:06:20,27/02/2024
html-keyboard-response,77,156942,0.0-33.0-3.0,,<div style='margin:auto;width: auto; font-size: 150%'><span style='font-weight: bold; font-size: 100px; color: green;'>+10 points!</span><br><br></div>,,delaylearn,learning,feedback_image_window,13tegHUn27W5eqKoo56ZxVRwt4E2,13tegHUn27W5eqKoo56ZxVRwt4E2,,,,,,,,,,,,,,,,,,,,,,5c7c0337a1b1360011c481fb,09:06:20,27/02/2024
html-keyboard-response,78,157459,0.0-34.0-0.0,,,,,,mood_trial_fixation,13tegHUn27W5eqKoo56ZxVRwt4E2,,,,,,,,,,,,,,,,,,,,,,,5c7c0337a1b1360011c481fb,09:06:20,27/02/2024
lmdlab-html-vas-response,79,161382,0.0-34.0-1.0,2902.0,How happy are you right now?,0.6648148148148149,delaylearn,learning,mood_trial,13tegHUn27W5eqKoo56ZxVRwt4E2,13tegHUn27W5eqKoo56ZxVRwt4E2,,,,,,,,,,,,,,,,,,,,"['Very unhappy', 'Very happy']",,5c7c0337a1b1360011c481fb,09:06:20,27/02/2024
html-keyboard-response,80,163058,0.0-35.0,,"<div style=""font-size:100px;"">+</div>",,delaylearn,learning,ITI,13tegHUn27W5eqKoo56ZxVRwt4E2,13tegHUn27W5eqKoo56ZxVRwt4E2,,,,,,,,,,,,,,,,,,,1658.0,,,5c7c0337a1b1360011c481fb,09:06:20,27/02/2024
html-keyboard-response,81,163825,0.0-36.0-0.0,764.1000000000931,"<div style=""display: flex; flex-direction: column; align-items: center; margin-top: -40px;""><img src=""images/pattern_6.png"" style=""width: 234px; height: 230px; margin-top: -50px;""><div style=""display: flex; justify-content: space-between; margin-top: 33px;""><img src=""images/choice_trial_10.png"" style=""width: 408px; height: 417px; margin-right: 200px;""><img src=""images/choice_trial_3.png"" style=""width: 408px; height: 417px;""></div></div>",f,delaylearn,learning,trial,13tegHUn27W5eqKoo56ZxVRwt4E2,13tegHUn27W5eqKoo56ZxVRwt4E2,4.0,images/choice_trial_10.png,images/choice_trial_3.png,images/pattern_6.png,f,f,750.0,10.0,3.0,5.0,0.0,15.0,1.0,1.0,10.0,90.0,,,,,,5c7c0337a1b1360011c481fb,09:06:20,27/02/2024
html-keyboard-response,82,164841,0.0-36.0-1.0,,"<div style=""display: flex; flex-direction: column; align-items: center; margin-top: -40px;""><img src=""images/pattern_6.png"" style=""width: 234px; height: 230px; margin-top: -50px;""><div style=""display: flex; justify-content: space-between; margin-top: 33px;""><img src=""images/choice_trial_10.png"" style=""width: 408px; height: 417px; margin-right: 608px;""></div></div>",,delaylearn,learning,display_response,13tegHUn27W5eqKoo56ZxVRwt4E2,13tegHUn27W5eqKoo56ZxVRwt4E2,,,,,,,,,,,,,,,,,chosen stimuli: images/choice_trial_10.png,,,,,5c7c0337a1b1360011c481fb,09:06:20,27/02/2024
html-keyboard-response,83,165607,0.0-36.0-2.0,,,,delaylearn,learning,feedback_duration_window,13tegHUn27W5eqKoo56ZxVRwt4E2,13tegHUn27W5eqKoo56ZxVRwt4E2,,,,,,,,,,,,,,,,,,750.0,,,,5c7c0337a1b1360011c481fb,09:06:20,27/02/2024
html-keyboard-response,84,167123,0.0-36.0-3.0,,<div style='margin:auto;width: auto; font-size: 150%'><span style='font-weight: bold; font-size: 100px; color: green;'>+10 points!</span><br><br></div>,,delaylearn,learning,feedback_image_window,13tegHUn27W5eqKoo56ZxVRwt4E2,13tegHUn27W5eqKoo56ZxVRwt4E2,,,,,,,,,,,,,,,,,,,,,,5c7c0337a1b1360011c481fb,09:06:20,27/02/2024
html-keyboard-response,85,169572,0.0-37.0,,"<div style=""font-size:100px;"">+</div>",,delaylearn,learning,ITI,13tegHUn27W5eqKoo56ZxVRwt4E2,13tegHUn27W5eqKoo56ZxVRwt4E2,,,,,,,,,,,,,,,,,,,2435.0,,,5c7c0337a1b1360011c481fb,09:06:20,27/02/2024
html-keyboard-response,86,170645,0.0-38.0-0.0,1069.5,"<div style=""display: flex; flex-direction: column; align-items: center; margin-top: -40px;""><img src=""images/pattern_4.png"" style=""width: 234px; height: 230px; margin-top: -50px;""><div style=""display: flex; justify-content: space-between; margin-top: 33px;""><img src=""images/choice_trial_7.png"" style=""width: 408px; height: 417px; margin-right: 200px;""><img src=""images/choice_trial_8.png"" style=""width: 408px; height: 417px;""></div></div>",j,delaylearn,learning,trial,13tegHUn27W5eqKoo56ZxVRwt4E2,13tegHUn27W5eqKoo56ZxVRwt4E2,4.0,images/choice_trial_7.png,images/choice_trial_8.png,images/pattern_4.png,j,j,7000.0,7.0,8.0,3.0,1.0,16.0,1.0,1.0,8.0,100.0,,,,,,5c7c0337a1b1360011c481fb,09:06:20,27/02/2024
html-keyboard-response,87,171656,0.0-38.0-1.0,,"<div style=""display: flex; flex-direction: column; align-items: center; margin-top: -40px;""><img src=""images/pattern_4.png"" style=""width: 234px; height: 230px; margin-top: -50px;""><div style=""display: flex; justify-content: space-between; margin-top: 33px;""><img src=""images/choice_trial_8.png"" style=""width: 408px; height: 417px; margin-left:608px;""></div></div>",,delaylearn,learning,display_response,13tegHUn27W5eqKoo56ZxVRwt4E2,13tegHUn27W5eqKoo56ZxVRwt4E2,,,,,,,,,,,,,,,,,chosen stimuli: images/choice_trial_8.png,,,,,5c7c0337a1b1360011c481fb,09:06:20,27/02/2024
html-keyboard-response,88,178670,0.0-38.0-2.0,,,,delaylearn,learning,feedback_duration_window,13tegHUn27W5eqKoo56ZxVRwt4E2,13tegHUn27W5eqKoo56ZxVRwt4E2,,,,,,,,,,,,,,,,,,7000.0,,,,5c7c0337a1b1360011c481fb,09:06:20,27/02/2024
html-keyboard-response,89,180187,0.0-38.0-3.0,,<div style='margin:auto;width: auto; font-size: 150%'><span style='font-weight: bold; font-size: 100px; color: green;'>+10 points!</span><br><br></div>,,delaylearn,learning,feedback_image_window,13tegHUn27W5eqKoo56ZxVRwt4E2,13tegHUn27W5eqKoo56ZxVRwt4E2,,,,,,,,,,,,,,,,,,,,,,5c7c0337a1b1360011c481fb,09:06:20,27/02/2024
html-keyboard-response,90,182635,0.0-39.0,,"<div style=""font-size:100px;"">+</div>",,delaylearn,learning,ITI,13tegHUn27W5eqKoo56ZxVRwt4E2,13tegHUn27W5eqKoo56ZxVRwt4E2,,,,,,,,,,,,,,,,,,,2438.0,,,5c7c0337a1b1360011c481fb,09:06:20,27/02/2024
html-keyboard-response,91,183835,0.0-40.0-0.0,1195.6000000000931,"<div style=""display: flex; flex-direction: column; align-items: center; margin-top: -40px;""><img src=""images/pattern_7.png"" style=""width: 234px; height: 230px; margin-top: -50px;""><div style=""display: flex; justify-content: space-between; margin-top: 33px;""><img src=""images/choice_trial_13.png"" style=""width: 408px; height: 417px; margin-right: 200px;""><img src=""images/choice_trial_4.png"" style=""width: 408px; height: 417px;""></div></div>",f,delaylearn,learning,trial,13tegHUn27W5eqKoo56ZxVRwt4E2,13tegHUn27W5eqKoo56ZxVRwt4E2,4.0,images/choice_trial_13.png,images/choice_trial_4.png,images/pattern_7.png,j,f,750.0,13.0,4.0,6.0,0.0,17.0,1.0,0.0,13.0,100.0,,,,,,5c7c0337a1b1360011c481fb,09:06:20,27/02/2024
html-keyboard-response,92,184852,0.0-40.0-1.0,,"<div style=""display: flex; flex-direction: column; align-items: center; margin-top: -40px;""><img src=""images/pattern_7.png"" style=""width: 234px; height: 230px; margin-top: -50px;""><div style=""display: flex; justify-content: space-between; margin-top: 33px;""><img src=""images/choice_trial_13.png"" style=""width: 408px; height: 417px; margin-right: 608px;""></div></div>",,delaylearn,learning,display_response,13tegHUn27W5eqKoo56ZxVRwt4E2,13tegHUn27W5eqKoo56ZxVRwt4E2,,,,,,,,,,,,,,,,,chosen stimuli: images/choice_trial_13.png,,,,,5c7c0337a1b1360011c481fb,09:06:20,27/02/2024
html-keyboard-response,93,185618,0.0-40.0-2.0,,,,delaylearn,learning,feedback_duration_window,13tegHUn27W5eqKoo56ZxVRwt4E2,13tegHUn27W5eqKoo56ZxVRwt4E2,,,,,,,,,,,,,,,,,,750.0,,,,5c7c0337a1b1360011c481fb,09:06:20,27/02/2024
html-keyboard-response,94,187135,0.0-40.0-3.0,,<div style='margin:auto;width: auto; font-size: 150%'><span style='font-weight: bold; font-size: 100px; color: red;'>0 points!</span><br><br></div>,,delaylearn,learning,feedback_image_window,13tegHUn27W5eqKoo56ZxVRwt4E2,13tegHUn27W5eqKoo56ZxVRwt4E2,,,,,,,,,,,,,,,,,,,,,,5c7c0337a1b1360011c481fb,09:06:20,27/02/2024
html-keyboard-response,95,189400,0.0-41.0,,"<div style=""font-size:100px;"">+</div>",,delaylearn,learning,ITI,13tegHUn27W5eqKoo56ZxVRwt4E2,13tegHUn27W5eqKoo56ZxVRwt4E2,,,,,,,,,,,,,,,,,,,2250.0,,,5c7c0337a1b1360011c481fb,09:06:20,27/02/2024
html-keyboard-response,96,190482,0.0-42.0-0.0,1079.1000000000931,"<div style=""display: flex; flex-direction: column; align-items: center; margin-top: -40px;""><img src=""images/pattern_1.png"" style=""width: 234px; height: 230px; margin-top: -50px;""><div style=""display: flex; justify-content: space-between; margin-top: 33px;""><img src=""images/choice_trial_1.png"" style=""width: 408px; height: 417px; margin-right: 200px;""><img src=""images/choice_trial_9.png"" style=""width: 408px; height: 417px;""></div></div>",j,delaylearn,learning,trial,13tegHUn27W5eqKoo56ZxVRwt4E2,13tegHUn27W5eqKoo56ZxVRwt4E2,4.0,images/choice_trial_1.png,images/choice_trial_9.png,images/pattern_1.png,f,f,7000.0,1.0,9.0,1.0,0.0,18.0,0.0,0.0,9.0,100.0,,,,,,5c7c0337a1b1360011c481fb,09:06:20,27/02/2024
html-keyboard-response,97,191500,0.0-42.0-1.0,,"<div style=""display: flex; flex-direction: column; align-items: center; margin-top: -40px;""><img src=""images/pattern_1.png"" style=""width: 234px; height: 230px; margin-top: -50px;""><div style=""display: flex; justify-content: space-between; margin-top: 33px;""><img src=""images/choice_trial_9.png"" style=""width: 408px; height: 417px; margin-left:608px;""></div></div>",,delaylearn,learning,display_response,13tegHUn27W5eqKoo56ZxVRwt4E2,13tegHUn27W5eqKoo56ZxVRwt4E2,,,,,,,,,,,,,,,,,chosen stimuli: images/choice_trial_9.png,,,,,5c7c0337a1b1360011c481fb,09:06:20,27/02/2024
html-keyboard-response,98,198515,0.0-42.0-2.0,,,,delaylearn,learning,feedback_duration_window,13tegHUn27W5eqKoo56ZxVRwt4E2,13tegHUn27W5eqKoo56ZxVRwt4E2,,,,,,,,,,,,,,,,,,7000.0,,,,5c7c0337a1b1360011c481fb,09:06:20,27/02/2024
html-keyboard-response,99,200030,0.0-42.0-3.0,,<div style='margin:auto;width: auto; font-size: 150%'><span style='font-weight: bold; font-size: 100px; color: red;'>0 points!</span><br><br></div>,,delaylearn,learning,feedback_image_window,13tegHUn27W5eqKoo56ZxVRwt4E2,13tegHUn27W5eqKoo56ZxVRwt4E2,,,,,,,,,,,,,,,,,,,,,,5c7c0337a1b1360011c481fb,09:06:20,27/02/2024
html-keyboard-response,100,202115,0.0-43.0,,"<div style=""font-size:100px;"">+</div>",,delaylearn,learning,ITI,13tegHUn27W5eqKoo56ZxVRwt4E2,13tegHUn27W5eqKoo56ZxVRwt4E2,,,,,,,,,,,,,,,,,,,2084.0,,,5c7c0337a1b1360011c481fb,09:06:20,27/02/2024
html-keyboard-response,101,203275,0.0-44.0-0.0,1156.8999999999069,"<div style=""display: flex; flex-direction: column; align-items: center; margin-top: -40px;""><img src=""images/pattern_6.png"" style=""width: 234px; height: 230px; margin-top: -50px;""><div style=""display: flex; justify-content: space-between; margin-top: 33px;""><img src=""images/choice_trial_3.png"" style=""width: 408px; height: 417px; margin-right: 200px;""><img src=""images/choice_trial_10.png"" style=""width: 408px; height: 417px;""></div></div>",j,delaylearn,learning,trial,13tegHUn27W5eqKoo56ZxVRwt4E2,13tegHUn27W5eqKoo56ZxVRwt4E2,4.0,images/choice_trial_3.png,images/choice_trial_10.png,images/pattern_6.png,j,j,750.0,3.0,10.0,5.0,1.0,19.0,1.0,1.0,10.0,110.0,,,,,,5c7c0337a1b1360011c481fb,09:06:20,27/02/2024
html-keyboard-response,102,204280,0.0-44.0-1.0,,"<div style=""display: flex; flex-direction: column; align-items: center; margin-top: -40px;""><img src=""images/pattern_6.png"" style=""width: 234px; height: 230px; margin-top: -50px;""><div style=""display: flex; justify-content: space-between; margin-top: 33px;""><img src=""images/choice_trial_10.png"" style=""width: 408px; height: 417px; margin-left:608px;""></div></div>",,delaylearn,learning,display_response,13tegHUn27W5eqKoo56ZxVRwt4E2,13tegHUn27W5eqKoo56ZxVRwt4E2,,,,,,,,,,,,,,,,,chosen stimuli: images/choice_trial_10.png,,,,,5c7c0337a1b1360011c481fb,09:06:20,27/02/2024
html-keyboard-response,103,205041,0.0-44.0-2.0,,,,delaylearn,learning,feedback_duration_window,13tegHUn27W5eqKoo56ZxVRwt4E2,13tegHUn27W5eqKoo56ZxVRwt4E2,,,,,,,,,,,,,,,,,,750.0,,,,5c7c0337a1b1360011c481fb,09:06:20,27/02/2024
html-keyboard-response,104,206546,0.0-44.0-3.0,,<div style='margin:auto;width: auto; font-size: 150%'><span style='font-weight: bold; font-size: 100px; color: green;'>+10 points!</span><br><br></div>,,delaylearn,learning,feedback_image_window,13tegHUn27W5eqKoo56ZxVRwt4E2,13tegHUn27W5eqKoo56ZxVRwt4E2,,,,,,,,,,,,,,,,,,,,,,5c7c0337a1b1360011c481fb,09:06:20,27/02/2024
html-keyboard-response,105,208895,0.0-45.0,,"<div style=""font-size:100px;"">+</div>",,delaylearn,learning,ITI,13tegHUn27W5eqKoo56ZxVRwt4E2,13tegHUn27W5eqKoo56ZxVRwt4E2,,,,,,,,,,,,,,,,,,,2347.0,,,5c7c0337a1b1360011c481fb,09:06:20,27/02/2024
html-keyboard-response,106,209638,0.0-46.0-0.0,739.5999999998603,"<div style=""display: flex; flex-direction: column; align-items: center; margin-top: -40px;""><img src=""images/pattern_4.png"" style=""width: 234px; height: 230px; margin-top: -50px;""><div style=""display: flex; justify-content: space-between; margin-top: 33px;""><img src=""images/choice_trial_8.png"" style=""width: 408px; height: 417px; margin-right: 200px;""><img src=""images/choice_trial_7.png"" style=""width: 408px; height: 417px;""></div></div>",f,delaylearn,learning,trial,13tegHUn27W5eqKoo56ZxVRwt4E2,13tegHUn27W5eqKoo56ZxVRwt4E2,4.0,images/choice_trial_8.png,images/choice_trial_7.png,images/pattern_4.png,f,f,7000.0,8.0,7.0,3.0,0.0,20.0,1.0,1.0,8.0,120.0,,,,,,5c7c0337a1b1360011c481fb,09:06:20,27/02/2024
html-keyboard-response,107,210645,0.0-46.0-1.0,,"<div style=""display: flex; flex-direction: column; align-items: center; margin-top: -40px;""><img src=""images/pattern_4.png"" style=""width: 234px; height: 230px; margin-top: -50px;""><div style=""display: flex; justify-content: space-between; margin-top: 33px;""><img src=""images/choice_trial_8.png"" style=""width: 408px; height: 417px; margin-right: 608px;""></div></div>",,delaylearn,learning,display_response,13tegHUn27W5eqKoo56ZxVRwt4E2,13tegHUn27W5eqKoo56ZxVRwt4E2,,,,,,,,,,,,,,,,,chosen stimuli: images/choice_trial_8.png,,,,,5c7c0337a1b1360011c481fb,09:06:20,27/02/2024
html-keyboard-response,108,217660,0.0-46.0-2.0,,,,delaylearn,learning,feedback_duration_window,13tegHUn27W5eqKoo56ZxVRwt4E2,13tegHUn27W5eqKoo56ZxVRwt4E2,,,,,,,,,,,,,,,,,,7000.0,,,,5c7c0337a1b1360011c481fb,09:06:20,27/02/2024
html-keyboard-response,109,219176,0.0-46.0-3.0,,<div style='margin:auto;width: auto; font-size: 150%'><span style='font-weight: bold; font-size: 100px; color: green;'>+10 points!</span><br><br></div>,,delaylearn,learning,feedback_image_window,13tegHUn27W5eqKoo56ZxVRwt4E2,13tegHUn27W5eqKoo56ZxVRwt4E2,,,,,,,,,,,,,,,,,,,,,,5c7c0337a1b1360011c481fb,09:06:20,27/02/2024
html-keyboard-response,110,219693,0.0-47.0-0.0,,,,,,mood_trial_fixation,13tegHUn27W5eqKoo56ZxVRwt4E2,,,,,,,,,,,,,,,,,,,,,,,5c7c0337a1b1360011c481fb,09:06:20,27/02/2024
lmdlab-html-vas-response,111,224295,0.0-47.0-1.0,3584.0,How happy are you right now?,0.7685185185185185,delaylearn,learning,mood_trial,13tegHUn27W5eqKoo56ZxVRwt4E2,13tegHUn27W5eqKoo56ZxVRwt4E2,,,,,,,,,,,,,,,,,,,,"['Very unhappy', 'Very happy']",,5c7c0337a1b1360011c481fb,09:06:20,27/02/2024
html-keyboard-response,112,226489,0.0-48.0,,"<div style=""font-size:100px;"">+</div>",,delaylearn,learning,ITI,13tegHUn27W5eqKoo56ZxVRwt4E2,13tegHUn27W5eqKoo56ZxVRwt4E2,,,,,,,,,,,,,,,,,,,2188.0,,,5c7c0337a1b1360011c481fb,09:06:20,27/02/2024
html-keyboard-response,113,227436,0.0-49.0-0.0,944.9000000001397,"<div style=""display: flex; flex-direction: column; align-items: center; margin-top: -40px;""><img src=""images/pattern_7.png"" style=""width: 234px; height: 230px; margin-top: -50px;""><div style=""display: flex; justify-content: space-between; margin-top: 33px;""><img src=""images/choice_trial_4.png"" style=""width: 408px; height: 417px; margin-right: 200px;""><img src=""images/choice_trial_13.png"" style=""width: 408px; height: 417px;""></div></div>",j,delaylearn,learning,trial,13tegHUn27W5eqKoo56ZxVRwt4E2,13tegHUn27W5eqKoo56ZxVRwt4E2,4.0,images/choice_trial_4.png,images/choice_trial_13.png,images/pattern_7.png,j,j,750.0,4.0,13.0,6.0,1.0,21.0,1.0,1.0,13.0,130.0,,,,,,5c7c0337a1b1360011c481fb,09:06:20,27/02/2024
html-keyboard-response,114,228440,0.0-49.0-1.0,,"<div style=""display: flex; flex-direction: column; align-items: center; margin-top: -40px;""><img src=""images/pattern_7.png"" style=""width: 234px; height: 230px; margin-top: -50px;""><div style=""display: flex; justify-content: space-between; margin-top: 33px;""><img src=""images/choice_trial_13.png"" style=""width: 408px; height: 417px; margin-left:608px;""></div></div>",,delaylearn,learning,display_response,13tegHUn27W5eqKoo56ZxVRwt4E2,13tegHUn27W5eqKoo56ZxVRwt4E2,,,,,,,,,,,,,,,,,chosen stimuli: images/choice_trial_13.png,,,,,5c7c0337a1b1360011c481fb,09:06:20,27/02/2024
html-keyboard-response,115,229206,0.0-49.0-2.0,,,,delaylearn,learning,feedback_duration_window,13tegHUn27W5eqKoo56ZxVRwt4E2,13tegHUn27W5eqKoo56ZxVRwt4E2,,,,,,,,,,,,,,,,,,750.0,,,,5c7c0337a1b1360011c481fb,09:06:20,27/02/2024
html-keyboard-response,116,230724,0.0-49.0-3.0,,<div style='margin:auto;width: auto; font-size: 150%'><span style='font-weight: bold; font-size: 100px; color: green;'>+10 points!</span><br><br></div>,,delaylearn,learning,feedback_image_window,13tegHUn27W5eqKoo56ZxVRwt4E2,13tegHUn27W5eqKoo56ZxVRwt4E2,,,,,,,,,,,,,,,,,,,,,,5c7c0337a1b1360011c481fb,09:06:20,27/02/2024
html-keyboard-response,117,232905,0.0-50.0,,"<div style=""font-size:100px;"">+</div>",,delaylearn,learning,ITI,13tegHUn27W5eqKoo56ZxVRwt4E2,13tegHUn27W5eqKoo56ZxVRwt4E2,,,,,,,,,,,,,,,,,,,2166.0,,,5c7c0337a1b1360011c481fb,09:06:20,27/02/2024
html-keyboard-response,118,233777,0.0-51.0-0.0,867.1000000000931,"<div style=""display: flex; flex-direction: column; align-items: center; margin-top: -40px;""><img src=""images/pattern_1.png"" style=""width: 234px; height: 230px; margin-top: -50px;""><div style=""display: flex; justify-content: space-between; margin-top: 33px;""><img src=""images/choice_trial_9.png"" style=""width: 408px; height: 417px; margin-right: 200px;""><img src=""images/choice_trial_1.png"" style=""width: 408px; height: 417px;""></div></div>",f,delaylearn,learning,trial,13tegHUn27W5eqKoo56ZxVRwt4E2,13tegHUn27W5eqKoo56ZxVRwt4E2,4.0,images/choice_trial_9.png,images/choice_trial_1.png,images/pattern_1.png,f,j,7000.0,9.0,1.0,1.0,1.0,22.0,0.0,1.0,9.0,140.0,,,,,,5c7c0337a1b1360011c481fb,09:06:20,27/02/2024
html-keyboard-response,119,234789,0.0-51.0-1.0,,"<div style=""display: flex; flex-direction: column; align-items: center; margin-top: -40px;""><img src=""images/pattern_1.png"" style=""width: 234px; height: 230px; margin-top: -50px;""><div style=""display: flex; justify-content: space-between; margin-top: 33px;""><img src=""images/choice_trial_9.png"" style=""width: 408px; height: 417px; margin-right: 608px;""></div></div>",,delaylearn,learning,display_response,13tegHUn27W5eqKoo56ZxVRwt4E2,13tegHUn27W5eqKoo56ZxVRwt4E2,,,,,,,,,,,,,,,,,chosen stimuli: images/choice_trial_9.png,,,,,5c7c0337a1b1360011c481fb,09:06:20,27/02/2024
html-keyboard-response,120,241804,0.0-51.0-2.0,,,,delaylearn,learning,feedback_duration_window,13tegHUn27W5eqKoo56ZxVRwt4E2,13tegHUn27W5eqKoo56ZxVRwt4E2,,,,,,,,,,,,,,,,,,7000.0,,,,5c7c0337a1b1360011c481fb,09:06:20,27/02/2024
html-keyboard-response,121,243320,0.0-51.0-3.0,,<div style='margin:auto;width: auto; font-size: 150%'><span style='font-weight: bold; font-size: 100px; color: green;'>+10 points!</span><br><br></div>,,delaylearn,learning,feedback_image_window,13tegHUn27W5eqKoo56ZxVRwt4E2,13tegHUn27W5eqKoo56ZxVRwt4E2,,,,,,,,,,,,,,,,,,,,,,5c7c0337a1b1360011c481fb,09:06:20,27/02/2024
html-keyboard-response,122,245186,0.0-52.0,,"<div style=""font-size:100px;"">+</div>",,delaylearn,learning,ITI,13tegHUn27W5eqKoo56ZxVRwt4E2,13tegHUn27W5eqKoo56ZxVRwt4E2,,,,,,,,,,,,,,,,,,,1864.0,,,5c7c0337a1b1360011c481fb,09:06:20,27/02/2024
html-keyboard-response,123,246204,0.0-53.0-0.0,1014.5,"<div style=""display: flex; flex-direction: column; align-items: center; margin-top: -40px;""><img src=""images/pattern_5.png"" style=""width: 234px; height: 230px; margin-top: -50px;""><div style=""display: flex; justify-content: space-between; margin-top: 33px;""><img src=""images/choice_trial_15.png"" style=""width: 408px; height: 417px; margin-right: 200px;""><img src=""images/choice_trial_5.png"" style=""width: 408px; height: 417px;""></div></div>",j,delaylearn,learning,trial,13tegHUn27W5eqKoo56ZxVRwt4E2,13tegHUn27W5eqKoo56ZxVRwt4E2,4.0,images/choice_trial_15.png,images/choice_trial_5.png,images/pattern_5.png,j,j,750.0,15.0,5.0,4.0,1.0,23.0,1.0,1.0,5.0,150.0,,,,,,5c7c0337a1b1360011c481fb,09:06:20,27/02/2024
html-keyboard-response,124,247220,0.0-53.0-1.0,,"<div style=""display: flex; flex-direction: column; align-items: center; margin-top: -40px;""><img src=""images/pattern_5.png"" style=""width: 234px; height: 230px; margin-top: -50px;""><div style=""display: flex; justify-content: space-between; margin-top: 33px;""><img src=""images/choice_trial_5.png"" style=""width: 408px; height: 417px; margin-left:608px;""></div></div>",,delaylearn,learning,display_response,13tegHUn27W5eqKoo56ZxVRwt4E2,13tegHUn27W5eqKoo56ZxVRwt4E2,,,,,,,,,,,,,,,,,chosen stimuli: images/choice_trial_5.png,,,,,5c7c0337a1b1360011c481fb,09:06:20,27/02/2024
html-keyboard-response,125,247984,0.0-53.0-2.0,,,,delaylearn,learning,feedback_duration_window,13tegHUn27W5eqKoo56ZxVRwt4E2,13tegHUn27W5eqKoo56ZxVRwt4E2,,,,,,,,,,,,,,,,,,750.0,,,,5c7c0337a1b1360011c481fb,09:06:20,27/02/2024
html-keyboard-response,126,249486,0.0-53.0-3.0,,<div style='margin:auto;width: auto; font-size: 150%'><span style='font-weight: bold; font-size: 100px; color: green;'>+10 points!</span><br><br></div>,,delaylearn,learning,feedback_image_window,13tegHUn27W5eqKoo56ZxVRwt4E2,13tegHUn27W5eqKoo56ZxVRwt4E2,,,,,,,,,,,,,,,,,,,,,,5c7c0337a1b1360011c481fb,09:06:20,27/02/2024
html-keyboard-response,127,251919,0.0-54.0,,"<div style=""font-size:100px;"">+</div>",,delaylearn,learning,ITI,13tegHUn27W5eqKoo56ZxVRwt4E2,13tegHUn27W5eqKoo56ZxVRwt4E2,,,,,,,,,,,,,,,,,,,2416.0,,,5c7c0337a1b1360011c481fb,09:06:20,27/02/2024
html-keyboard-response,128,252865,0.0-55.0-0.0,942.8000000000466,"<div style=""display: flex; flex-direction: column; align-items: center; margin-top: -40px;""><img src=""images/pattern_3.png"" style=""width: 234px; height: 230px; margin-top: -50px;""><div style=""display: flex; justify-content: space-between; margin-top: 33px;""><img src=""images/choice_trial_6.png"" style=""width: 408px; height: 417px; margin-right: 200px;""><img src=""images/choice_trial_16.png"" style=""width: 408px; height: 417px;""></div></div>",j,delaylearn,learning,trial,13tegHUn27W5eqKoo56ZxVRwt4E2,13tegHUn27W5eqKoo56ZxVRwt4E2,4.0,images/choice_trial_6.png,images/choice_trial_16.png,images/pattern_3.png,j,j,7000.0,6.0,16.0,2.0,1.0,24.0,1.0,1.0,16.0,160.0,,,,,,5c7c0337a1b1360011c481fb,09:06:20,27/02/2024
html-keyboard-response,129,253868,0.0-55.0-1.0,,"<div style=""display: flex; flex-direction: column; align-items: center; margin-top: -40px;""><img src=""images/pattern_3.png"" style=""width: 234px; height: 230px; margin-top: -50px;""><div style=""display: flex; justify-content: space-between; margin-top: 33px;""><img src=""images/choice_trial_16.png"" style=""width: 408px; height: 417px; margin-left:608px;""></div></div>",,delaylearn,learning,display_response,13tegHUn27W5eqKoo56ZxVRwt4E2,13tegHUn27W5eqKoo56ZxVRwt4E2,,,,,,,,,,,,,,,,,chosen stimuli: images/choice_trial_16.png,,,,,5c7c0337a1b1360011c481fb,09:06:20,27/02/2024
html-keyboard-response,130,260883,0.0-55.0-2.0,,,,delaylearn,learning,feedback_duration_window,13tegHUn27W5eqKoo56ZxVRwt4E2,13tegHUn27W5eqKoo56ZxVRwt4E2,,,,,,,,,,,,,,,,,,7000.0,,,,5c7c0337a1b1360011c481fb,09:06:20,27/02/2024
html-keyboard-response,131,262400,0.0-55.0-3.0,,<div style='margin:auto;width: auto; font-size: 150%'><span style='font-weight: bold; font-size: 100px; color: green;'>+10 points!</span><br><br></div>,,delaylearn,learning,feedback_image_window,13tegHUn27W5eqKoo56ZxVRwt4E2,13tegHUn27W5eqKoo56ZxVRwt4E2,,,,,,,,,,,,,,,,,,,,,,5c7c0337a1b1360011c481fb,09:06:20,27/02/2024
lmdlab-html-vas-response,132,268198,0.0-56.0-0.0,4274.0,*How <b><u>confident</u></b> are you feeling about your answers at this moment?*,0.6389130768952547,rewlearn,rate_confidence,,13tegHUn27W5eqKoo56ZxVRwt4E2,13tegHUn27W5eqKoo56ZxVRwt4E2,,,,,,,,,,,,,,,,,,,,"['No confidence', 'Complete confidence']",,5c7c0337a1b1360011c481fb,09:06:20,27/02/2024
lmdlab-rest-trial-limit,133,319419,0.0-56.0-1.0,49708.299999999814,"<div style=""font-size:40px;""><b>Please take a break!</b><br><br><br><br><p>Great work: you earned undefined points.<br><br><br><p>You have completed part(s) 1 of 6.<br><br><br><br>When you are ready to continue<br><br><br>please click the button.</p><br><br>",0,delaylearn,learning,break,13tegHUn27W5eqKoo56ZxVRwt4E2,13tegHUn27W5eqKoo56ZxVRwt4E2,,,,,,,,,,,,,,,,,,,,,0.0,5c7c0337a1b1360011c481fb,09:06:20,27/02/2024
html-keyboard-response,134,322435,0.0-56.0-2.0,,"<div style=""font-size:100px;"">+</div>",,delaylearn,learning,pre_fixation,13tegHUn27W5eqKoo56ZxVRwt4E2,,,,,,,,,,,,,,,,,,,,,,,5c7c0337a1b1360011c481fb,09:06:20,27/02/2024
lmdlab-html-vas-response,135,329101,0.0-56.0-3.0-0.0,5646.0,How happy are you right now?,0.6092592592592593,delaylearn,learning,mood_baseline,13tegHUn27W5eqKoo56ZxVRwt4E2,13tegHUn27W5eqKoo56ZxVRwt4E2,,,,,,,,,,,,,,,,,,,,"['Very unhappy', 'Very happy']",,5c7c0337a1b1360011c481fb,09:06:20,27/02/2024
html-keyboard-response,136,330616,0.0-56.0-3.0-1.0,,,,,,mood_baseline_fixation,13tegHUn27W5eqKoo56ZxVRwt4E2,,,,,,,,,,,,,,,,,,,,,,,5c7c0337a1b1360011c481fb,09:06:20,27/02/2024
html-keyboard-response,137,333016,0.0-57.0,,"<div style=""font-size:100px;"">+</div>",,delaylearn,learning,ITI,13tegHUn27W5eqKoo56ZxVRwt4E2,13tegHUn27W5eqKoo56ZxVRwt4E2,,,,,,,,,,,,,,,,,,,2392.0,,,5c7c0337a1b1360011c481fb,09:06:20,27/02/2024
html-keyboard-response,138,334224,0.0-58.0-0.0,1204.5999999998603,"<div style=""display: flex; flex-direction: column; align-items: center; margin-top: -40px;""><img src=""images/pattern_7.png"" style=""width: 234px; height: 230px; margin-top: -50px;""><div style=""display: flex; justify-content: space-between; margin-top: 33px;""><img src=""images/choice_trial_4.png"" style=""width: 408px; height: 417px; margin-right: 200px;""><img src=""images/choice_trial_13.png"" style=""width: 408px; height: 417px;""></div></div>",j,delaylearn,learning,trial,13tegHUn27W5eqKoo56ZxVRwt4E2,13tegHUn27W5eqKoo56ZxVRwt4E2,4.0,images/choice_trial_4.png,images/choice_trial_13.png,images/pattern_7.png,j,j,750.0,4.0,13.0,6.0,1.0,25.0,1.0,1.0,13.0,170.0,,,,,,5c7c0337a1b1360011c481fb,09:06:20,27/02/2024
html-keyboard-response,139,335232,0.0-58.0-1.0,,"<div style=""display: flex; flex-direction: column; align-items: center; margin-top: -40px;""><img src=""images/pattern_7.png"" style=""width: 234px; height: 230px; margin-top: -50px;""><div style=""display: flex; justify-content: space-between; margin-top: 33px;""><img src=""images/choice_trial_13.png"" style=""width: 408px; height: 417px; margin-left:608px;""></div></div>",,delaylearn,learning,display_response,13tegHUn27W5eqKoo56ZxVRwt4E2,13tegHUn27W5eqKoo56ZxVRwt4E2,,,,,,,,,,,,,,,,,chosen stimuli: images/choice_trial_13.png,,,,,5c7c0337a1b1360011c481fb,09:06:20,27/02/2024
html-keyboard-response,140,335998,0.0-58.0-2.0,,,,delaylearn,learning,feedback_duration_window,13tegHUn27W5eqKoo56ZxVRwt4E2,13tegHUn27W5eqKoo56ZxVRwt4E2,,,,,,,,,,,,,,,,,,750.0,,,,5c7c0337a1b1360011c481fb,09:06:20,27/02/2024
html-keyboard-response,141,337515,0.0-58.0-3.0,,<div style='margin:auto;width: auto; font-size: 150%'><span style='font-weight: bold; font-size: 100px; color: green;'>+10 points!</span><br><br></div>,,delaylearn,learning,feedback_image_window,13tegHUn27W5eqKoo56ZxVRwt4E2,13tegHUn27W5eqKoo56ZxVRwt4E2,,,,,,,,,,,,,,,,,,,,,,5c7c0337a1b1360011c481fb,09:06:20,27/02/2024
html-keyboard-response,142,338031,0.0-59.0-0.0,,,,,,mood_trial_fixation,13tegHUn27W5eqKoo56ZxVRwt4E2,,,,,,,,,,,,,,,,,,,,,,,5c7c0337a1b1360011c481fb,09:06:20,27/02/2024
lmdlab-html-vas-response,143,343017,0.0-59.0-1.0,3967.0,How happy are you right now?,0.7,delaylearn,learning,mood_trial,13tegHUn27W5eqKoo56ZxVRwt4E2,13tegHUn27W5eqKoo56ZxVRwt4E2,,,,,,,,,,,,,,,,,,,,"['Very unhappy', 'Very happy']",,5c7c0337a1b1360011c481fb,09:06:20,27/02/2024
html-keyboard-response,144,345112,0.0-60.0,,"<div style=""font-size:100px;"">+</div>",,delaylearn,learning,ITI,13tegHUn27W5eqKoo56ZxVRwt4E2,13tegHUn27W5eqKoo56ZxVRwt4E2,,,,,,,,,,,,,,,,,,,2082.0,,,5c7c0337a1b1360011c481fb,09:06:20,27/02/2024
html-keyboard-response,145,345805,0.0-61.0-0.0,688.3000000000466,"<div style=""display: flex; flex-direction: column; align-items: center; margin-top: -40px;""><img src=""images/pattern_1.png"" style=""width: 234px; height: 230px; margin-top: -50px;""><div style=""display: flex; justify-content: space-between; margin-top: 33px;""><img src=""images/choice_trial_1.png"" style=""width: 408px; height: 417px; margin-right: 200px;""><img src=""images/choice_trial_9.png"" style=""width: 408px; height: 417px;""></div></div>",j,delaylearn,learning,trial,13tegHUn27W5eqKoo56ZxVRwt4E2,13tegHUn27W5eqKoo56ZxVRwt4E2,4.0,images/choice_trial_1.png,images/choice_trial_9.png,images/pattern_1.png,f,f,7000.0,1.0,9.0,1.0,0.0,26.0,0.0,0.0,9.0,170.0,,,,,,5c7c0337a1b1360011c481fb,09:06:20,27/02/2024
html-keyboard-response,146,346812,0.0-61.0-1.0,,"<div style=""display: flex; flex-direction: column; align-items: center; margin-top: -40px;""><img src=""images/pattern_1.png"" style=""width: 234px; height: 230px; margin-top: -50px;""><div style=""display: flex; justify-content: space-between; margin-top: 33px;""><img src=""images/choice_trial_9.png"" style=""width: 408px; height: 417px; margin-left:608px;""></div></div>",,delaylearn,learning,display_response,13tegHUn27W5eqKoo56ZxVRwt4E2,13tegHUn27W5eqKoo56ZxVRwt4E2,,,,,,,,,,,,,,,,,chosen stimuli: images/choice_trial_9.png,,,,,5c7c0337a1b1360011c481fb,09:06:20,27/02/2024
html-keyboard-response,147,353826,0.0-61.0-2.0,,,,delaylearn,learning,feedback_duration_window,13tegHUn27W5eqKoo56ZxVRwt4E2,13tegHUn27W5eqKoo56ZxVRwt4E2,,,,,,,,,,,,,,,,,,7000.0,,,,5c7c0337a1b1360011c481fb,09:06:20,27/02/2024
html-keyboard-response,148,355344,0.0-61.0-3.0,,<div style='margin:auto;width: auto; font-size: 150%'><span style='font-weight: bold; font-size: 100px; color: red;'>0 points!</span><br><br></div>,,delaylearn,learning,feedback_image_window,13tegHUn27W5eqKoo56ZxVRwt4E2,13tegHUn27W5eqKoo56ZxVRwt4E2,,,,,,,,,,,,,,,,,,,,,,5c7c0337a1b1360011c481fb,09:06:20,27/02/2024
html-keyboard-response,149,357823,0.0-62.0,,"<div style=""font-size:100px;"">+</div>",,delaylearn,learning,ITI,13tegHUn27W5eqKoo56ZxVRwt4E2,13tegHUn27W5eqKoo56ZxVRwt4E2,,,,,,,,,,,,,,,,,,,2469.0,,,5c7c0337a1b1360011c481fb,09:06:20,27/02/2024
html-keyboard-response,150,359073,0.0-63.0-0.0,1245.7000000001863,"<div style=""display: flex; flex-direction: column; align-items: center; margin-top: -40px;""><img src=""images/pattern_5.png"" style=""width: 234px; height: 230px; margin-top: -50px;""><div style=""display: flex; justify-content: space-between; margin-top: 33px;""><img src=""images/choice_trial_5.png"" style=""width: 408px; height: 417px; margin-right: 200px;""><img src=""images/choice_trial_15.png"" style=""width: 408px; height: 417px;""></div></div>",f,delaylearn,learning,trial,13tegHUn27W5eqKoo56ZxVRwt4E2,13tegHUn27W5eqKoo56ZxVRwt4E2,4.0,images/choice_trial_5.png,images/choice_trial_15.png,images/pattern_5.png,f,f,750.0,5.0,15.0,4.0,0.0,27.0,1.0,1.0,5.0,180.0,,,,,,5c7c0337a1b1360011c481fb,09:06:20,27/02/2024
html-keyboard-response,151,360092,0.0-63.0-1.0,,"<div style=""display: flex; flex-direction: column; align-items: center; margin-top: -40px;""><img src=""images/pattern_5.png"" style=""width: 234px; height: 230px; margin-top: -50px;""><div style=""display: flex; justify-content: space-between; margin-top: 33px;""><img src=""images/choice_trial_5.png"" style=""width: 408px; height: 417px; margin-right: 608px;""></div></div>",,delaylearn,learning,display_response,13tegHUn27W5eqKoo56ZxVRwt4E2,13tegHUn27W5eqKoo56ZxVRwt4E2,,,,,,,,,,,,,,,,,chosen stimuli: images/choice_trial_5.png,,,,,5c7c0337a1b1360011c481fb,09:06:20,27/02/2024
html-keyboard-response,152,360857,0.0-63.0-2.0,,,,delaylearn,learning,feedback_duration_window,13tegHUn27W5eqKoo56ZxVRwt4E2,13tegHUn27W5eqKoo56ZxVRwt4E2,,,,,,,,,,,,,,,,,,750.0,,,,5c7c0337a1b1360011c481fb,09:06:20,27/02/2024
html-keyboard-response,153,362375,0.0-63.0-3.0,,<div style='margin:auto;width: auto; font-size: 150%'><span style='font-weight: bold; font-size: 100px; color: green;'>+10 points!</span><br><br></div>,,delaylearn,learning,feedback_image_window,13tegHUn27W5eqKoo56ZxVRwt4E2,13tegHUn27W5eqKoo56ZxVRwt4E2,,,,,,,,,,,,,,,,,,,,,,5c7c0337a1b1360011c481fb,09:06:20,27/02/2024
html-keyboard-response,154,364390,0.0-64.0,,"<div style=""font-size:100px;"">+</div>",,delaylearn,learning,ITI,13tegHUn27W5eqKoo56ZxVRwt4E2,13tegHUn27W5eqKoo56ZxVRwt4E2,,,,,,,,,,,,,,,,,,,2004.0,,,5c7c0337a1b1360011c481fb,09:06:20,27/02/2024
html-keyboard-response,155,365713,0.0-65.0-0.0,1320.5,"<div style=""display: flex; flex-direction: column; align-items: center; margin-top: -40px;""><img src=""images/pattern_6.png"" style=""width: 234px; height: 230px; margin-top: -50px;""><div style=""display: flex; justify-content: space-between; margin-top: 33px;""><img src=""images/choice_trial_3.png"" style=""width: 408px; height: 417px; margin-right: 200px;""><img src=""images/choice_trial_10.png"" style=""width: 408px; height: 417px;""></div></div>",j,delaylearn,learning,trial,13tegHUn27W5eqKoo56ZxVRwt4E2,13tegHUn27W5eqKoo56ZxVRwt4E2,4.0,images/choice_trial_3.png,images/choice_trial_10.png,images/pattern_6.png,j,j,750.0,3.0,10.0,5.0,1.0,28.0,1.0,1.0,10.0,190.0,,,,,,5c7c0337a1b1360011c481fb,09:06:20,27/02/2024
html-keyboard-response,156,366725,0.0-65.0-1.0,,"<div style=""display: flex; flex-direction: column; align-items: center; margin-top: -40px;""><img src=""images/pattern_6.png"" style=""width: 234px; height: 230px; margin-top: -50px;""><div style=""display: flex; justify-content: space-between; margin-top: 33px;""><img src=""images/choice_trial_10.png"" style=""width: 408px; height: 417px; margin-left:608px;""></div></div>",,delaylearn,learning,display_response,13tegHUn27W5eqKoo56ZxVRwt4E2,13tegHUn27W5eqKoo56ZxVRwt4E2,,,,,,,,,,,,,,,,,chosen stimuli: images/choice_trial_10.png,,,,,5c7c0337a1b1360011c481fb,09:06:20,27/02/2024
html-keyboard-response,157,367492,0.0-65.0-2.0,,,,delaylearn,learning,feedback_duration_window,13tegHUn27W5eqKoo56ZxVRwt4E2,13tegHUn27W5eqKoo56ZxVRwt4E2,,,,,,,,,,,,,,,,,,750.0,,,,5c7c0337a1b1360011c481fb,09:06:20,27/02/2024
html-keyboard-response,158,369007,0.0-65.0-3.0,,<div style='margin:auto;width: auto; font-size: 150%'><span style='font-weight: bold; font-size: 100px; color: green;'>+10 points!</span><br><br></div>,,delaylearn,learning,feedback_image_window,13tegHUn27W5eqKoo56ZxVRwt4E2,13tegHUn27W5eqKoo56ZxVRwt4E2,,,,,,,,,,,,,,,,,,,,,,5c7c0337a1b1360011c481fb,09:06:20,27/02/2024
html-keyboard-response,159,369525,0.0-66.0-0.0,,,,,,mood_trial_fixation,13tegHUn27W5eqKoo56ZxVRwt4E2,,,,,,,,,,,,,,,,,,,,,,,5c7c0337a1b1360011c481fb,09:06:20,27/02/2024
lmdlab-html-vas-response,160,373679,0.0-66.0-1.0,3133.0,How happy are you right now?,0.6203703703703703,delaylearn,learning,mood_trial,13tegHUn27W5eqKoo56ZxVRwt4E2,13tegHUn27W5eqKoo56ZxVRwt4E2,,,,,,,,,,,,,,,,,,,,"['Very unhappy', 'Very happy']",,5c7c0337a1b1360011c481fb,09:06:20,27/02/2024
html-keyboard-response,161,376140,0.0-67.0,,"<div style=""font-size:100px;"">+</div>",,delaylearn,learning,ITI,13tegHUn27W5eqKoo56ZxVRwt4E2,13tegHUn27W5eqKoo56ZxVRwt4E2,,,,,,,,,,,,,,,,,,,2454.0,,,5c7c0337a1b1360011c481fb,09:06:20,27/02/2024
html-keyboard-response,162,377243,0.0-68.0-0.0,1099.2999999998137,"<div style=""display: flex; flex-direction: column; align-items: center; margin-top: -40px;""><img src=""images/pattern_4.png"" style=""width: 234px; height: 230px; margin-top: -50px;""><div style=""display: flex; justify-content: space-between; margin-top: 33px;""><img src=""images/choice_trial_7.png"" style=""width: 408px; height: 417px; margin-right: 200px;""><img src=""images/choice_trial_8.png"" style=""width: 408px; height: 417px;""></div></div>",j,delaylearn,learning,trial,13tegHUn27W5eqKoo56ZxVRwt4E2,13tegHUn27W5eqKoo56ZxVRwt4E2,4.0,images/choice_trial_7.png,images/choice_trial_8.png,images/pattern_4.png,j,j,7000.0,7.0,8.0,3.0,1.0,29.0,1.0,1.0,8.0,200.0,,,,,,5c7c0337a1b1360011c481fb,09:06:20,27/02/2024
html-keyboard-response,163,378256,0.0-68.0-1.0,,"<div style=""display: flex; flex-direction: column; align-items: center; margin-top: -40px;""><img src=""images/pattern_4.png"" style=""width: 234px; height: 230px; margin-top: -50px;""><div style=""display: flex; justify-content: space-between; margin-top: 33px;""><img src=""images/choice_trial_8.png"" style=""width: 408px; height: 417px; margin-left:608px;""></div></div>",,delaylearn,learning,display_response,13tegHUn27W5eqKoo56ZxVRwt4E2,13tegHUn27W5eqKoo56ZxVRwt4E2,,,,,,,,,,,,,,,,,chosen stimuli: images/choice_trial_8.png,,,,,5c7c0337a1b1360011c481fb,09:06:20,27/02/2024
html-keyboard-response,164,385271,0.0-68.0-2.0,,,,delaylearn,learning,feedback_duration_window,13tegHUn27W5eqKoo56ZxVRwt4E2,13tegHUn27W5eqKoo56ZxVRwt4E2,,,,,,,,,,,,,,,,,,7000.0,,,,5c7c0337a1b1360011c481fb,09:06:20,27/02/2024
html-keyboard-response,165,386787,0.0-68.0-3.0,,<div style='margin:auto;width: auto; font-size: 150%'><span style='font-weight: bold; font-size: 100px; color: green;'>+10 points!</span><br><br></div>,,delaylearn,learning,feedback_image_window,13tegHUn27W5eqKoo56ZxVRwt4E2,13tegHUn27W5eqKoo56ZxVRwt4E2,,,,,,,,,,,,,,,,,,,,,,5c7c0337a1b1360011c481fb,09:06:20,27/02/2024
html-keyboard-response,166,388503,0.0-69.0,,"<div style=""font-size:100px;"">+</div>",,delaylearn,learning,ITI,13tegHUn27W5eqKoo56ZxVRwt4E2,13tegHUn27W5eqKoo56ZxVRwt4E2,,,,,,,,,,,,,,,,,,,1701.0,,,5c7c0337a1b1360011c481fb,09:06:20,27/02/2024
html-keyboard-response,167,389515,0.0-70.0-0.0,1009.0,"<div style=""display: flex; flex-direction: column; align-items: center; margin-top: -40px;""><img src=""images/pattern_3.png"" style=""width: 234px; height: 230px; margin-top: -50px;""><div style=""display: flex; justify-content: space-between; margin-top: 33px;""><img src=""images/choice_trial_6.png"" style=""width: 408px; height: 417px; margin-right: 200px;""><img src=""images/choice_trial_16.png"" style=""width: 408px; height: 417px;""></div></div>",j,delaylearn,learning,trial,13tegHUn27W5eqKoo56ZxVRwt4E2,13tegHUn27W5eqKoo56ZxVRwt4E2,4.0,images/choice_trial_6.png,images/choice_trial_16.png,images/pattern_3.png,j,j,7000.0,6.0,16.0,2.0,1.0,30.0,1.0,1.0,16.0,210.0,,,,,,5c7c0337a1b1360011c481fb,09:06:20,27/02/2024
html-keyboard-response,168,390520,0.0-70.0-1.0,,"<div style=""display: flex; flex-direction: column; align-items: center; margin-top: -40px;""><img src=""images/pattern_3.png"" style=""width: 234px; height: 230px; margin-top: -50px;""><div style=""display: flex; justify-content: space-between; margin-top: 33px;""><img src=""images/choice_trial_16.png"" style=""width: 408px; height: 417px; margin-left:608px;""></div></div>",,delaylearn,learning,display_response,13tegHUn27W5eqKoo56ZxVRwt4E2,13tegHUn27W5eqKoo56ZxVRwt4E2,,,,,,,,,,,,,,,,,chosen stimuli: images/choice_trial_16.png,,,,,5c7c0337a1b1360011c481fb,09:06:20,27/02/2024
html-keyboard-response,169,397534,0.0-70.0-2.0,,,,delaylearn,learning,feedback_duration_window,13tegHUn27W5eqKoo56ZxVRwt4E2,13tegHUn27W5eqKoo56ZxVRwt4E2,,,,,,,,,,,,,,,,,,7000.0,,,,5c7c0337a1b1360011c481fb,09:06:20,27/02/2024
html-keyboard-response,170,399051,0.0-70.0-3.0,,<div style='margin:auto;width: auto; font-size: 150%'><span style='font-weight: bold; font-size: 100px; color: green;'>+10 points!</span><br><br></div>,,delaylearn,learning,feedback_image_window,13tegHUn27W5eqKoo56ZxVRwt4E2,13tegHUn27W5eqKoo56ZxVRwt4E2,,,,,,,,,,,,,,,,,,,,,,5c7c0337a1b1360011c481fb,09:06:20,27/02/2024
html-keyboard-response,171,401017,0.0-71.0,,"<div style=""font-size:100px;"">+</div>",,delaylearn,learning,ITI,13tegHUn27W5eqKoo56ZxVRwt4E2,13tegHUn27W5eqKoo56ZxVRwt4E2,,,,,,,,,,,,,,,,,,,1964.0,,,5c7c0337a1b1360011c481fb,09:06:20,27/02/2024
html-keyboard-response,172,404031,0.0-72.0-0.0,,"<div style=""display: flex; flex-direction: column; align-items: center; margin-top: -40px;""><img src=""images/pattern_5.png"" style=""width: 234px; height: 230px; margin-top: -50px;""><div style=""display: flex; justify-content: space-between; margin-top: 33px;""><img src=""images/choice_trial_5.png"" style=""width: 408px; height: 417px; margin-right: 200px;""><img src=""images/choice_trial_15.png"" style=""width: 408px; height: 417px;""></div></div>",,delaylearn,learning,trial,13tegHUn27W5eqKoo56ZxVRwt4E2,13tegHUn27W5eqKoo56ZxVRwt4E2,4.0,images/choice_trial_5.png,images/choice_trial_15.png,images/pattern_5.png,j,f,750.0,5.0,15.0,4.0,0.0,31.0,0.0,0.0,0.0,210.0,,,,,,5c7c0337a1b1360011c481fb,09:06:20,27/02/2024
html-keyboard-response,173,405049,0.0-72.0-1.0,,<div style='font-weight: bold; font-size: 75px; color: red;'>Missed Trial <br><br><br><br> Please respond faster</div>,,delaylearn,learning,display_response,13tegHUn27W5eqKoo56ZxVRwt4E2,13tegHUn27W5eqKoo56ZxVRwt4E2,,,,,,,,,,,,,,,,,Missed trial,,,,,5c7c0337a1b1360011c481fb,09:06:20,27/02/2024
html-keyboard-response,174,405055,0.0-72.0-2.0,,,,delaylearn,learning,feedback_duration_window,13tegHUn27W5eqKoo56ZxVRwt4E2,13tegHUn27W5eqKoo56ZxVRwt4E2,,,,,,,,,,,,,,,,,,0.0,,,,5c7c0337a1b1360011c481fb,09:06:20,27/02/2024
html-keyboard-response,175,405060,0.0-72.0-3.0,,,,delaylearn,learning,feedback_image_window,13tegHUn27W5eqKoo56ZxVRwt4E2,13tegHUn27W5eqKoo56ZxVRwt4E2,,,,,,,,,,,,,,,,,,,,,,5c7c0337a1b1360011c481fb,09:06:20,27/02/2024
html-keyboard-response,176,407049,0.0-73.0,,"<div style=""font-size:100px;"">+</div>",,delaylearn,learning,ITI,13tegHUn27W5eqKoo56ZxVRwt4E2,13tegHUn27W5eqKoo56ZxVRwt4E2,,,,,,,,,,,,,,,,,,,1973.0,,,5c7c0337a1b1360011c481fb,09:06:20,27/02/2024
html-keyboard-response,177,407943,0.0-74.0-0.0,890.8000000000466,"<div style=""display: flex; flex-direction: column; align-items: center; margin-top: -40px;""><img src=""images/pattern_1.png"" style=""width: 234px; height: 230px; margin-top: -50px;""><div style=""display: flex; justify-content: space-between; margin-top: 33px;""><img src=""images/choice_trial_1.png"" style=""width: 408px; height: 417px; margin-right: 200px;""><img src=""images/choice_trial_9.png"" style=""width: 408px; height: 417px;""></div></div>",j,delaylearn,learning,trial,13tegHUn27W5eqKoo56ZxVRwt4E2,13tegHUn27W5eqKoo56ZxVRwt4E2,4.0,images/choice_trial_1.png,images/choice_trial_9.png,images/pattern_1.png,f,f,7000.0,1.0,9.0,1.0,0.0,32.0,0.0,0.0,9.0,210.0,,,,,,5c7c0337a1b1360011c481fb,09:06:20,27/02/2024
html-keyboard-response,178,408948,0.0-74.0-1.0,,"<div style=""display: flex; flex-direction: column; align-items: center; margin-top: -40px;""><img src=""images/pattern_1.png"" style=""width: 234px; height: 230px; margin-top: -50px;""><div style=""display: flex; justify-content: space-between; margin-top: 33px;""><img src=""images/choice_trial_9.png"" style=""width: 408px; height: 417px; margin-left:608px;""></div></div>",,delaylearn,learning,display_response,13tegHUn27W5eqKoo56ZxVRwt4E2,13tegHUn27W5eqKoo56ZxVRwt4E2,,,,,,,,,,,,,,,,,chosen stimuli: images/choice_trial_9.png,,,,,5c7c0337a1b1360011c481fb,09:06:20,27/02/2024
html-keyboard-response,179,415963,0.0-74.0-2.0,,,,delaylearn,learning,feedback_duration_window,13tegHUn27W5eqKoo56ZxVRwt4E2,13tegHUn27W5eqKoo56ZxVRwt4E2,,,,,,,,,,,,,,,,,,7000.0,,,,5c7c0337a1b1360011c481fb,09:06:20,27/02/2024
html-keyboard-response,180,417479,0.0-74.0-3.0,,<div style='margin:auto;width: auto; font-size: 150%'><span style='font-weight: bold; font-size: 100px; color: red;'>0 points!</span><br><br></div>,,delaylearn,learning,feedback_image_window,13tegHUn27W5eqKoo56ZxVRwt4E2,13tegHUn27W5eqKoo56ZxVRwt4E2,,,,,,,,,,,,,,,,,,,,,,5c7c0337a1b1360011c481fb,09:06:20,27/02/2024
html-keyboard-response,181,417996,0.0-75.0-0.0,,,,,,mood_trial_fixation,13tegHUn27W5eqKoo56ZxVRwt4E2,,,,,,,,,,,,,,,,,,,,,,,5c7c0337a1b1360011c481fb,09:06:20,27/02/2024
lmdlab-html-vas-response,182,423904,0.0-75.0-1.0,4883.0,How happy are you right now?,0.6055555555555555,delaylearn,learning,mood_trial,13tegHUn27W5eqKoo56ZxVRwt4E2,13tegHUn27W5eqKoo56ZxVRwt4E2,,,,,,,,,,,,,,,,,,,,"['Very unhappy', 'Very happy']",,5c7c0337a1b1360011c481fb,09:06:20,27/02/2024
html-keyboard-response,183,425731,0.0-76.0,,"<div style=""font-size:100px;"">+</div>",,delaylearn,learning,ITI,13tegHUn27W5eqKoo56ZxVRwt4E2,13tegHUn27W5eqKoo56ZxVRwt4E2,,,,,,,,,,,,,,,,,,,1820.0,,,5c7c0337a1b1360011c481fb,09:06:20,27/02/2024
html-keyboard-response,184,426971,0.0-77.0-0.0,1236.6999999999534,"<div style=""display: flex; flex-direction: column; align-items: center; margin-top: -40px;""><img src=""images/pattern_6.png"" style=""width: 234px; height: 230px; margin-top: -50px;""><div style=""display: flex; justify-content: space-between; margin-top: 33px;""><img src=""images/choice_trial_10.png"" style=""width: 408px; height: 417px; margin-right: 200px;""><img src=""images/choice_trial_3.png"" style=""width: 408px; height: 417px;""></div></div>",f,delaylearn,learning,trial,13tegHUn27W5eqKoo56ZxVRwt4E2,13tegHUn27W5eqKoo56ZxVRwt4E2,4.0,images/choice_trial_10.png,images/choice_trial_3.png,images/pattern_6.png,j,f,750.0,10.0,3.0,5.0,0.0,33.0,1.0,0.0,10.0,210.0,,,,,,5c7c0337a1b1360011c481fb,09:06:20,27/02/2024
html-keyboard-response,185,427980,0.0-77.0-1.0,,"<div style=""display: flex; flex-direction: column; align-items: center; margin-top: -40px;""><img src=""images/pattern_6.png"" style=""width: 234px; height: 230px; margin-top: -50px;""><div style=""display: flex; justify-content: space-between; margin-top: 33px;""><img src=""images/choice_trial_10.png"" style=""width: 408px; height: 417px; margin-right: 608px;""></div></div>",,delaylearn,learning,display_response,13tegHUn27W5eqKoo56ZxVRwt4E2,13tegHUn27W5eqKoo56ZxVRwt4E2,,,,,,,,,,,,,,,,,chosen stimuli: images/choice_trial_10.png,,,,,5c7c0337a1b1360011c481fb,09:06:20,27/02/2024
html-keyboard-response,186,428747,0.0-77.0-2.0,,,,delaylearn,learning,feedback_duration_window,13tegHUn27W5eqKoo56ZxVRwt4E2,13tegHUn27W5eqKoo56ZxVRwt4E2,,,,,,,,,,,,,,,,,,750.0,,,,5c7c0337a1b1360011c481fb,09:06:20,27/02/2024
html-keyboard-response,187,430263,0.0-77.0-3.0,,<div style='margin:auto;width: auto; font-size: 150%'><span style='font-weight: bold; font-size: 100px; color: red;'>0 points!</span><br><br></div>,,delaylearn,learning,feedback_image_window,13tegHUn27W5eqKoo56ZxVRwt4E2,13tegHUn27W5eqKoo56ZxVRwt4E2,,,,,,,,,,,,,,,,,,,,,,5c7c0337a1b1360011c481fb,09:06:20,27/02/2024
html-keyboard-response,188,432712,0.0-78.0,,"<div style=""font-size:100px;"">+</div>",,delaylearn,learning,ITI,13tegHUn27W5eqKoo56ZxVRwt4E2,13tegHUn27W5eqKoo56ZxVRwt4E2,,,,,,,,,,,,,,,,,,,2432.0,,,5c7c0337a1b1360011c481fb,09:06:20,27/02/2024
html-keyboard-response,189,433652,0.0-79.0-0.0,935.1999999999534,"<div style=""display: flex; flex-direction: column; align-items: center; margin-top: -40px;""><img src=""images/pattern_3.png"" style=""width: 234px; height: 230px; margin-top: -50px;""><div style=""display: flex; justify-content: space-between; margin-top: 33px;""><img src=""images/choice_trial_6.png"" style=""width: 408px; height: 417px; margin-right: 200px;""><img src=""images/choice_trial_16.png"" style=""width: 408px; height: 417px;""></div></div>",j,delaylearn,learning,trial,13tegHUn27W5eqKoo56ZxVRwt4E2,13tegHUn27W5eqKoo56ZxVRwt4E2,4.0,images/choice_trial_6.png,images/choice_trial_16.png,images/pattern_3.png,j,j,7000.0,6.0,16.0,2.0,1.0,34.0,1.0,1.0,16.0,220.0,,,,,,5c7c0337a1b1360011c481fb,09:06:20,27/02/2024
html-keyboard-response,190,434662,0.0-79.0-1.0,,"<div style=""display: flex; flex-direction: column; align-items: center; margin-top: -40px;""><img src=""images/pattern_3.png"" style=""width: 234px; height: 230px; margin-top: -50px;""><div style=""display: flex; justify-content: space-between; margin-top: 33px;""><img src=""images/choice_trial_16.png"" style=""width: 408px; height: 417px; margin-left:608px;""></div></div>",,delaylearn,learning,display_response,13tegHUn27W5eqKoo56ZxVRwt4E2,13tegHUn27W5eqKoo56ZxVRwt4E2,,,,,,,,,,,,,,,,,chosen stimuli: images/choice_trial_16.png,,,,,5c7c0337a1b1360011c481fb,09:06:20,27/02/2024
html-keyboard-response,191,441677,0.0-79.0-2.0,,,,delaylearn,learning,feedback_duration_window,13tegHUn27W5eqKoo56ZxVRwt4E2,13tegHUn27W5eqKoo56ZxVRwt4E2,,,,,,,,,,,,,,,,,,7000.0,,,,5c7c0337a1b1360011c481fb,09:06:20,27/02/2024
html-keyboard-response,192,443192,0.0-79.0-3.0,,<div style='margin:auto;width: auto; font-size: 150%'><span style='font-weight: bold; font-size: 100px; color: green;'>+10 points!</span><br><br></div>,,delaylearn,learning,feedback_image_window,13tegHUn27W5eqKoo56ZxVRwt4E2,13tegHUn27W5eqKoo56ZxVRwt4E2,,,,,,,,,,,,,,,,,,,,,,5c7c0337a1b1360011c481fb,09:06:20,27/02/2024
html-keyboard-response,193,445558,0.0-80.0,,"<div style=""font-size:100px;"">+</div>",,delaylearn,learning,ITI,13tegHUn27W5eqKoo56ZxVRwt4E2,13tegHUn27W5eqKoo56ZxVRwt4E2,,,,,,,,,,,,,,,,,,,2353.0,,,5c7c0337a1b1360011c481fb,09:06:20,27/02/2024
html-keyboard-response,194,446540,0.0-81.0-0.0,976.3999999999069,"<div style=""display: flex; flex-direction: column; align-items: center; margin-top: -40px;""><img src=""images/pattern_4.png"" style=""width: 234px; height: 230px; margin-top: -50px;""><div style=""display: flex; justify-content: space-between; margin-top: 33px;""><img src=""images/choice_trial_7.png"" style=""width: 408px; height: 417px; margin-right: 200px;""><img src=""images/choice_trial_8.png"" style=""width: 408px; height: 417px;""></div></div>",j,delaylearn,learning,trial,13tegHUn27W5eqKoo56ZxVRwt4E2,13tegHUn27W5eqKoo56ZxVRwt4E2,4.0,images/choice_trial_7.png,images/choice_trial_8.png,images/pattern_4.png,f,j,7000.0,7.0,8.0,3.0,1.0,35.0,1.0,0.0,8.0,220.0,,,,,,5c7c0337a1b1360011c481fb,09:06:20,27/02/2024
html-keyboard-response,195,447559,0.0-81.0-1.0,,"<div style=""display: flex; flex-direction: column; align-items: center; margin-top: -40px;""><img src=""images/pattern_4.png"" style=""width: 234px; height: 230px; margin-top: -50px;""><div style=""display: flex; justify-content: space-between; margin-top: 33px;""><img src=""images/choice_trial_8.png"" style=""width: 408px; height: 417px; margin-left:608px;""></div></div>",,delaylearn,learning,display_response,13tegHUn27W5eqKoo56ZxVRwt4E2,13tegHUn27W5eqKoo56ZxVRwt4E2,,,,,,,,,,,,,,,,,chosen stimuli: images/choice_trial_8.png,,,,,5c7c0337a1b1360011c481fb,09:06:20,27/02/2024
html-keyboard-response,196,454574,0.0-81.0-2.0,,,,delaylearn,learning,feedback_duration_window,13tegHUn27W5eqKoo56ZxVRwt4E2,13tegHUn27W5eqKoo56ZxVRwt4E2,,,,,,,,,,,,,,,,,,7000.0,,,,5c7c0337a1b1360011c481fb,09:06:20,27/02/2024
html-keyboard-response,197,456090,0.0-81.0-3.0,,<div style='margin:auto;width: auto; font-size: 150%'><span style='font-weight: bold; font-size: 100px; color: red;'>0 points!</span><br><br></div>,,delaylearn,learning,feedback_image_window,13tegHUn27W5eqKoo56ZxVRwt4E2,13tegHUn27W5eqKoo56ZxVRwt4E2,,,,,,,,,,,,,,,,,,,,,,5c7c0337a1b1360011c481fb,09:06:20,27/02/2024
html-keyboard-response,198,458506,0.0-82.0,,"<div style=""font-size:100px;"">+</div>",,delaylearn,learning,ITI,13tegHUn27W5eqKoo56ZxVRwt4E2,13tegHUn27W5eqKoo56ZxVRwt4E2,,,,,,,,,,,,,,,,,,,2405.0,,,5c7c0337a1b1360011c481fb,09:06:20,27/02/2024
html-keyboard-response,199,459592,0.0-83.0-0.0,1084.2999999998137,"<div style=""display: flex; flex-direction: column; align-items: center; margin-top: -40px;""><img src=""images/pattern_7.png"" style=""width: 234px; height: 230px; margin-top: -50px;""><div style=""display: flex; justify-content: space-between; margin-top: 33px;""><img src=""images/choice_trial_13.png"" style=""width: 408px; height: 417px; margin-right: 200px;""><img src=""images/choice_trial_4.png"" style=""width: 408px; height: 417px;""></div></div>",f,delaylearn,learning,trial,13tegHUn27W5eqKoo56ZxVRwt4E2,13tegHUn27W5eqKoo56ZxVRwt4E2,4.0,images/choice_trial_13.png,images/choice_trial_4.png,images/pattern_7.png,f,f,750.0,13.0,4.0,6.0,0.0,36.0,1.0,1.0,13.0,230.0,,,,,,5c7c0337a1b1360011c481fb,09:06:20,27/02/2024
html-keyboard-response,200,460606,0.0-83.0-1.0,,"<div style=""display: flex; flex-direction: column; align-items: center; margin-top: -40px;""><img src=""images/pattern_7.png"" style=""width: 234px; height: 230px; margin-top: -50px;""><div style=""display: flex; justify-content: space-between; margin-top: 33px;""><img src=""images/choice_trial_13.png"" style=""width: 408px; height: 417px; margin-right: 608px;""></div></div>",,delaylearn,learning,display_response,13tegHUn27W5eqKoo56ZxVRwt4E2,13tegHUn27W5eqKoo56ZxVRwt4E2,,,,,,,,,,,,,,,,,chosen stimuli: images/choice_trial_13.png,,,,,5c7c0337a1b1360011c481fb,09:06:20,27/02/2024
html-keyboard-response,201,461372,0.0-83.0-2.0,,,,delaylearn,learning,feedback_duration_window,13tegHUn27W5eqKoo56ZxVRwt4E2,13tegHUn27W5eqKoo56ZxVRwt4E2,,,,,,,,,,,,,,,,,,750.0,,,,5c7c0337a1b1360011c481fb,09:06:20,27/02/2024
html-keyboard-response,202,462888,0.0-83.0-3.0,,<div style='margin:auto;width: auto; font-size: 150%'><span style='font-weight: bold; font-size: 100px; color: green;'>+10 points!</span><br><br></div>,,delaylearn,learning,feedback_image_window,13tegHUn27W5eqKoo56ZxVRwt4E2,13tegHUn27W5eqKoo56ZxVRwt4E2,,,,,,,,,,,,,,,,,,,,,,5c7c0337a1b1360011c481fb,09:06:20,27/02/2024
html-keyboard-response,203,465088,0.0-84.0,,"<div style=""font-size:100px;"">+</div>",,delaylearn,learning,ITI,13tegHUn27W5eqKoo56ZxVRwt4E2,13tegHUn27W5eqKoo56ZxVRwt4E2,,,,,,,,,,,,,,,,,,,2189.0,,,5c7c0337a1b1360011c481fb,09:06:20,27/02/2024
html-keyboard-response,204,466032,0.0-85.0-0.0,939.4000000001397,"<div style=""display: flex; flex-direction: column; align-items: center; margin-top: -40px;""><img src=""images/pattern_1.png"" style=""width: 234px; height: 230px; margin-top: -50px;""><div style=""display: flex; justify-content: space-between; margin-top: 33px;""><img src=""images/choice_trial_1.png"" style=""width: 408px; height: 417px; margin-right: 200px;""><img src=""images/choice_trial_9.png"" style=""width: 408px; height: 417px;""></div></div>",j,delaylearn,learning,trial,13tegHUn27W5eqKoo56ZxVRwt4E2,13tegHUn27W5eqKoo56ZxVRwt4E2,4.0,images/choice_trial_1.png,images/choice_trial_9.png,images/pattern_1.png,f,f,7000.0,1.0,9.0,1.0,0.0,37.0,0.0,0.0,9.0,230.0,,,,,,5c7c0337a1b1360011c481fb,09:06:20,27/02/2024
html-keyboard-response,205,467037,0.0-85.0-1.0,,"<div style=""display: flex; flex-direction: column; align-items: center; margin-top: -40px;""><img src=""images/pattern_1.png"" style=""width: 234px; height: 230px; margin-top: -50px;""><div style=""display: flex; justify-content: space-between; margin-top: 33px;""><img src=""images/choice_trial_9.png"" style=""width: 408px; height: 417px; margin-left:608px;""></div></div>",,delaylearn,learning,display_response,13tegHUn27W5eqKoo56ZxVRwt4E2,13tegHUn27W5eqKoo56ZxVRwt4E2,,,,,,,,,,,,,,,,,chosen stimuli: images/choice_trial_9.png,,,,,5c7c0337a1b1360011c481fb,09:06:20,27/02/2024
html-keyboard-response,206,474052,0.0-85.0-2.0,,,,delaylearn,learning,feedback_duration_window,13tegHUn27W5eqKoo56ZxVRwt4E2,13tegHUn27W5eqKoo56ZxVRwt4E2,,,,,,,,,,,,,,,,,,7000.0,,,,5c7c0337a1b1360011c481fb,09:06:20,27/02/2024
html-keyboard-response,207,475568,0.0-85.0-3.0,,<div style='margin:auto;width: auto; font-size: 150%'><span style='font-weight: bold; font-size: 100px; color: red;'>0 points!</span><br><br></div>,,delaylearn,learning,feedback_image_window,13tegHUn27W5eqKoo56ZxVRwt4E2,13tegHUn27W5eqKoo56ZxVRwt4E2,,,,,,,,,,,,,,,,,,,,,,5c7c0337a1b1360011c481fb,09:06:20,27/02/2024
html-keyboard-response,208,476085,0.0-86.0-0.0,,,,,,mood_trial_fixation,13tegHUn27W5eqKoo56ZxVRwt4E2,,,,,,,,,,,,,,,,,,,,,,,5c7c0337a1b1360011c481fb,09:06:20,27/02/2024
lmdlab-html-vas-response,209,480039,0.0-86.0-1.0,2934.0,How happy are you right now?,0.5055555555555555,delaylearn,learning,mood_trial,13tegHUn27W5eqKoo56ZxVRwt4E2,13tegHUn27W5eqKoo56ZxVRwt4E2,,,,,,,,,,,,,,,,,,,,"['Very unhappy', 'Very happy']",,5c7c0337a1b1360011c481fb,09:06:20,27/02/2024
html-keyboard-response,210,481967,0.0-87.0,,"<div style=""font-size:100px;"">+</div>",,delaylearn,learning,ITI,13tegHUn27W5eqKoo56ZxVRwt4E2,13tegHUn27W5eqKoo56ZxVRwt4E2,,,,,,,,,,,,,,,,,,,1925.0,,,5c7c0337a1b1360011c481fb,09:06:20,27/02/2024
html-keyboard-response,211,482832,0.0-88.0-0.0,860.3000000000466,"<div style=""display: flex; flex-direction: column; align-items: center; margin-top: -40px;""><img src=""images/pattern_3.png"" style=""width: 234px; height: 230px; margin-top: -50px;""><div style=""display: flex; justify-content: space-between; margin-top: 33px;""><img src=""images/choice_trial_16.png"" style=""width: 408px; height: 417px; margin-right: 200px;""><img src=""images/choice_trial_6.png"" style=""width: 408px; height: 417px;""></div></div>",f,delaylearn,learning,trial,13tegHUn27W5eqKoo56ZxVRwt4E2,13tegHUn27W5eqKoo56ZxVRwt4E2,4.0,images/choice_trial_16.png,images/choice_trial_6.png,images/pattern_3.png,j,f,7000.0,16.0,6.0,2.0,0.0,38.0,1.0,0.0,16.0,230.0,,,,,,5c7c0337a1b1360011c481fb,09:06:20,27/02/2024
html-keyboard-response,212,483852,0.0-88.0-1.0,,"<div style=""display: flex; flex-direction: column; align-items: center; margin-top: -40px;""><img src=""images/pattern_3.png"" style=""width: 234px; height: 230px; margin-top: -50px;""><div style=""display: flex; justify-content: space-between; margin-top: 33px;""><img src=""images/choice_trial_16.png"" style=""width: 408px; height: 417px; margin-right: 608px;""></div></div>",,delaylearn,learning,display_response,13tegHUn27W5eqKoo56ZxVRwt4E2,13tegHUn27W5eqKoo56ZxVRwt4E2,,,,,,,,,,,,,,,,,chosen stimuli: images/choice_trial_16.png,,,,,5c7c0337a1b1360011c481fb,09:06:20,27/02/2024
html-keyboard-response,213,490866,0.0-88.0-2.0,,,,delaylearn,learning,feedback_duration_window,13tegHUn27W5eqKoo56ZxVRwt4E2,13tegHUn27W5eqKoo56ZxVRwt4E2,,,,,,,,,,,,,,,,,,7000.0,,,,5c7c0337a1b1360011c481fb,09:06:20,27/02/2024
html-keyboard-response,214,492383,0.0-88.0-3.0,,<div style='margin:auto;width: auto; font-size: 150%'><span style='font-weight: bold; font-size: 100px; color: red;'>0 points!</span><br><br></div>,,delaylearn,learning,feedback_image_window,13tegHUn27W5eqKoo56ZxVRwt4E2,13tegHUn27W5eqKoo56ZxVRwt4E2,,,,,,,,,,,,,,,,,,,,,,5c7c0337a1b1360011c481fb,09:06:20,27/02/2024
html-keyboard-response,215,493899,0.0-89.0,,"<div style=""font-size:100px;"">+</div>",,delaylearn,learning,ITI,13tegHUn27W5eqKoo56ZxVRwt4E2,13tegHUn27W5eqKoo56ZxVRwt4E2,,,,,,,,,,,,,,,,,,,1507.0,,,5c7c0337a1b1360011c481fb,09:06:20,27/02/2024
html-keyboard-response,216,495328,0.0-90.0-0.0,1423.6999999999534,"<div style=""display: flex; flex-direction: column; align-items: center; margin-top: -40px;""><img src=""images/pattern_7.png"" style=""width: 234px; height: 230px; margin-top: -50px;""><div style=""display: flex; justify-content: space-between; margin-top: 33px;""><img src=""images/choice_trial_4.png"" style=""width: 408px; height: 417px; margin-right: 200px;""><img src=""images/choice_trial_13.png"" style=""width: 408px; height: 417px;""></div></div>",f,delaylearn,learning,trial,13tegHUn27W5eqKoo56ZxVRwt4E2,13tegHUn27W5eqKoo56ZxVRwt4E2,4.0,images/choice_trial_4.png,images/choice_trial_13.png,images/pattern_7.png,j,j,750.0,4.0,13.0,6.0,1.0,39.0,0.0,0.0,4.0,230.0,,,,,,5c7c0337a1b1360011c481fb,09:06:20,27/02/2024
html-keyboard-response,217,496332,0.0-90.0-1.0,,"<div style=""display: flex; flex-direction: column; align-items: center; margin-top: -40px;""><img src=""images/pattern_7.png"" style=""width: 234px; height: 230px; margin-top: -50px;""><div style=""display: flex; justify-content: space-between; margin-top: 33px;""><img src=""images/choice_trial_4.png"" style=""width: 408px; height: 417px; margin-right: 608px;""></div></div>",,delaylearn,learning,display_response,13tegHUn27W5eqKoo56ZxVRwt4E2,13tegHUn27W5eqKoo56ZxVRwt4E2,,,,,,,,,,,,,,,,,chosen stimuli: images/choice_trial_4.png,,,,,5c7c0337a1b1360011c481fb,09:06:20,27/02/2024
html-keyboard-response,218,497098,0.0-90.0-2.0,,,,delaylearn,learning,feedback_duration_window,13tegHUn27W5eqKoo56ZxVRwt4E2,13tegHUn27W5eqKoo56ZxVRwt4E2,,,,,,,,,,,,,,,,,,750.0,,,,5c7c0337a1b1360011c481fb,09:06:20,27/02/2024
html-keyboard-response,219,498613,0.0-90.0-3.0,,<div style='margin:auto;width: auto; font-size: 150%'><span style='font-weight: bold; font-size: 100px; color: red;'>0 points!</span><br><br></div>,,delaylearn,learning,feedback_image_window,13tegHUn27W5eqKoo56ZxVRwt4E2,13tegHUn27W5eqKoo56ZxVRwt4E2,,,,,,,,,,,,,,,,,,,,,,5c7c0337a1b1360011c481fb,09:06:20,27/02/2024
html-keyboard-response,220,500848,0.0-91.0,,"<div style=""font-size:100px;"">+</div>",,delaylearn,learning,ITI,13tegHUn27W5eqKoo56ZxVRwt4E2,13tegHUn27W5eqKoo56ZxVRwt4E2,,,,,,,,,,,,,,,,,,,2224.0,,,5c7c0337a1b1360011c481fb,09:06:20,27/02/2024
html-keyboard-response,221,501995,0.0-92.0-0.0,1142.8000000000466,"<div style=""display: flex; flex-direction: column; align-items: center; margin-top: -40px;""><img src=""images/pattern_5.png"" style=""width: 234px; height: 230px; margin-top: -50px;""><div style=""display: flex; justify-content: space-between; margin-top: 33px;""><img src=""images/choice_trial_15.png"" style=""width: 408px; height: 417px; margin-right: 200px;""><img src=""images/choice_trial_5.png"" style=""width: 408px; height: 417px;""></div></div>",j,delaylearn,learning,trial,13tegHUn27W5eqKoo56ZxVRwt4E2,13tegHUn27W5eqKoo56ZxVRwt4E2,4.0,images/choice_trial_15.png,images/choice_trial_5.png,images/pattern_5.png,j,j,750.0,15.0,5.0,4.0,1.0,40.0,1.0,1.0,5.0,240.0,,,,,,5c7c0337a1b1360011c481fb,09:06:20,27/02/2024
html-keyboard-response,222,503013,0.0-92.0-1.0,,"<div style=""display: flex; flex-direction: column; align-items: center; margin-top: -40px;""><img src=""images/pattern_5.png"" style=""width: 234px; height: 230px; margin-top: -50px;""><div style=""display: flex; justify-content: space-between; margin-top: 33px;""><img src=""images/choice_trial_5.png"" style=""width: 408px; height: 417px; margin-left:608px;""></div></div>",,delaylearn,learning,display_response,13tegHUn27W5eqKoo56ZxVRwt4E2,13tegHUn27W5eqKoo56ZxVRwt4E2,,,,,,,,,,,,,,,,,chosen stimuli: images/choice_trial_5.png,,,,,5c7c0337a1b1360011c481fb,09:06:20,27/02/2024
html-keyboard-response,223,503780,0.0-92.0-2.0,,,,delaylearn,learning,feedback_duration_window,13tegHUn27W5eqKoo56ZxVRwt4E2,13tegHUn27W5eqKoo56ZxVRwt4E2,,,,,,,,,,,,,,,,,,750.0,,,,5c7c0337a1b1360011c481fb,09:06:20,27/02/2024
html-keyboard-response,224,505295,0.0-92.0-3.0,,<div style='margin:auto;width: auto; font-size: 150%'><span style='font-weight: bold; font-size: 100px; color: green;'>+10 points!</span><br><br></div>,,delaylearn,learning,feedback_image_window,13tegHUn27W5eqKoo56ZxVRwt4E2,13tegHUn27W5eqKoo56ZxVRwt4E2,,,,,,,,,,,,,,,,,,,,,,5c7c0337a1b1360011c481fb,09:06:20,27/02/2024
html-keyboard-response,225,505813,0.0-93.0-0.0,,,,,,mood_trial_fixation,13tegHUn27W5eqKoo56ZxVRwt4E2,,,,,,,,,,,,,,,,,,,,,,,5c7c0337a1b1360011c481fb,09:06:20,27/02/2024
lmdlab-html-vas-response,226,509867,0.0-93.0-1.0,3034.0,How happy are you right now?,0.49074074074074076,delaylearn,learning,mood_trial,13tegHUn27W5eqKoo56ZxVRwt4E2,13tegHUn27W5eqKoo56ZxVRwt4E2,,,,,,,,,,,,,,,,,,,,"['Very unhappy', 'Very happy']",,5c7c0337a1b1360011c481fb,09:06:20,27/02/2024
html-keyboard-response,227,511428,0.0-94.0,,"<div style=""font-size:100px;"">+</div>",,delaylearn,learning,ITI,13tegHUn27W5eqKoo56ZxVRwt4E2,13tegHUn27W5eqKoo56ZxVRwt4E2,,,,,,,,,,,,,,,,,,,1555.0,,,5c7c0337a1b1360011c481fb,09:06:20,27/02/2024
html-keyboard-response,228,512654,0.0-95.0-0.0,1223.5,"<div style=""display: flex; flex-direction: column; align-items: center; margin-top: -40px;""><img src=""images/pattern_4.png"" style=""width: 234px; height: 230px; margin-top: -50px;""><div style=""display: flex; justify-content: space-between; margin-top: 33px;""><img src=""images/choice_trial_8.png"" style=""width: 408px; height: 417px; margin-right: 200px;""><img src=""images/choice_trial_7.png"" style=""width: 408px; height: 417px;""></div></div>",j,delaylearn,learning,trial,13tegHUn27W5eqKoo56ZxVRwt4E2,13tegHUn27W5eqKoo56ZxVRwt4E2,4.0,images/choice_trial_8.png,images/choice_trial_7.png,images/pattern_4.png,f,f,7000.0,8.0,7.0,3.0,0.0,41.0,0.0,0.0,7.0,240.0,,,,,,5c7c0337a1b1360011c481fb,09:06:20,27/02/2024
html-keyboard-response,229,513660,0.0-95.0-1.0,,"<div style=""display: flex; flex-direction: column; align-items: center; margin-top: -40px;""><img src=""images/pattern_4.png"" style=""width: 234px; height: 230px; margin-top: -50px;""><div style=""display: flex; justify-content: space-between; margin-top: 33px;""><img src=""images/choice_trial_7.png"" style=""width: 408px; height: 417px; margin-left:608px;""></div></div>",,delaylearn,learning,display_response,13tegHUn27W5eqKoo56ZxVRwt4E2,13tegHUn27W5eqKoo56ZxVRwt4E2,,,,,,,,,,,,,,,,,chosen stimuli: images/choice_trial_7.png,,,,,5c7c0337a1b1360011c481fb,09:06:20,27/02/2024
html-keyboard-response,230,520676,0.0-95.0-2.0,,,,delaylearn,learning,feedback_duration_window,13tegHUn27W5eqKoo56ZxVRwt4E2,13tegHUn27W5eqKoo56ZxVRwt4E2,,,,,,,,,,,,,,,,,,7000.0,,,,5c7c0337a1b1360011c481fb,09:06:20,27/02/2024
html-keyboard-response,231,522193,0.0-95.0-3.0,,<div style='margin:auto;width: auto; font-size: 150%'><span style='font-weight: bold; font-size: 100px; color: red;'>0 points!</span><br><br></div>,,delaylearn,learning,feedback_image_window,13tegHUn27W5eqKoo56ZxVRwt4E2,13tegHUn27W5eqKoo56ZxVRwt4E2,,,,,,,,,,,,,,,,,,,,,,5c7c0337a1b1360011c481fb,09:06:20,27/02/2024
html-keyboard-response,232,523792,0.0-96.0,,"<div style=""font-size:100px;"">+</div>",,delaylearn,learning,ITI,13tegHUn27W5eqKoo56ZxVRwt4E2,13tegHUn27W5eqKoo56ZxVRwt4E2,,,,,,,,,,,,,,,,,,,1590.0,,,5c7c0337a1b1360011c481fb,09:06:20,27/02/2024
