trial_type,trial_index,time_elapsed,internal_node_id,rt,stimulus,response,exp_name,exp_stage,test_part,subjectID,databaseID,counterbal,choice_stimuli_1,choice_stimuli_2,pattern_stimuli,rewarded_answer,correct_answer,feedback_duration_times,stim_left,stim_right,pair,leftright_counter,trial,response_correct,response_rewarded,chosen_stim,counter,displayed_choice,feedback_durations,ITI_duration,labels,rest_warning,prolificID,start_time,date
pavlovia,0,573,0.0-0.0,,,,,,,PLXYpjF7dOQrX9uLH8yHRIB1x8g2,,,,,,,,,,,,,,,,,,,,,,,5c5844d8dd470300014ee3f1,16:52:18,27/03/2024
html-keyboard-response,1,3578,0.0-1.0,,"<div style=""font-size:100px;"">+</div>",,delaylearn,learning,pre_fixation,PLXYpjF7dOQrX9uLH8yHRIB1x8g2,,,,,,,,,,,,,,,,,,,,,,,5c5844d8dd470300014ee3f1,16:52:18,27/03/2024
html-keyboard-response,2,4722,0.0-2.0-0.0,1142.0999999046326,"<div style=""display: flex; flex-direction: column; align-items: center; margin-top: -40px;""><img src=""images/demo_images/pattern_1.png"" style=""width: 234px; height: 230px; margin-top: -50px;""><div style=""display: flex; justify-content: space-between; margin-top: 33px;""><img src=""images/demo_images/choice_trial_2.png"" style=""width: 408px; height: 417px; margin-right: 200px;""><img src=""images/demo_images/choice_trial_1.png"" style=""width: 408px; height: 417px;""></div></div>",f,delaylearn,learning,trial,PLXYpjF7dOQrX9uLH8yHRIB1x8g2,PLXYpjF7dOQrX9uLH8yHRIB1x8g2,5.0,images/demo_images/choice_trial_2.png,images/demo_images/choice_trial_1.png,images/demo_images/pattern_1.png,j,j,3000.0,2.0,1.0,20.0,1.0,1.0,0.0,0.0,2.0,0.0,,,,,,5c5844d8dd470300014ee3f1,16:52:18,27/03/2024
html-keyboard-response,3,5728,0.0-2.0-1.0,,"<div style=""display: flex; flex-direction: column; align-items: center; margin-top: -40px;""><img src=""images/demo_images/pattern_1.png"" style=""width: 234px; height: 230px; margin-top: -50px;""><div style=""display: flex; justify-content: space-between; margin-top: 33px;""><img src=""images/demo_images/choice_trial_2.png"" style=""width: 408px; height: 417px; margin-right: 608px;""></div></div>",,delaylearn,learning,display_response,PLXYpjF7dOQrX9uLH8yHRIB1x8g2,PLXYpjF7dOQrX9uLH8yHRIB1x8g2,,,,,,,,,,,,,,,,,chosen stimuli: images/demo_images/choice_trial_2.png,,,,,5c5844d8dd470300014ee3f1,16:52:18,27/03/2024
html-keyboard-response,4,8731,0.0-2.0-2.0,,,,delaylearn,learning,feedback_duration_window,PLXYpjF7dOQrX9uLH8yHRIB1x8g2,PLXYpjF7dOQrX9uLH8yHRIB1x8g2,,,,,,,,,,,,,,,,,,3000.0,,,,5c5844d8dd470300014ee3f1,16:52:18,27/03/2024
html-keyboard-response,5,10242,0.0-2.0-3.0,,<div style='margin:auto;width: auto; font-size: 150%'><span style='font-weight: bold; font-size: 100px; color: red;'>0 points!</span><br><br></div>,,delaylearn,learning,feedback_image_window,PLXYpjF7dOQrX9uLH8yHRIB1x8g2,PLXYpjF7dOQrX9uLH8yHRIB1x8g2,,,,,,,,,,,,,,,,,,,,,,5c5844d8dd470300014ee3f1,16:52:18,27/03/2024
html-keyboard-response,6,12183,0.0-3.0,,"<div style=""font-size:100px;"">+</div>",,delaylearn,learning,ITI,PLXYpjF7dOQrX9uLH8yHRIB1x8g2,PLXYpjF7dOQrX9uLH8yHRIB1x8g2,,,,,,,,,,,,,,,,,,,1936.0,,,5c5844d8dd470300014ee3f1,16:52:18,27/03/2024
html-keyboard-response,7,13026,0.0-4.0-0.0,840.2999999523163,"<div style=""display: flex; flex-direction: column; align-items: center; margin-top: -40px;""><img src=""images/demo_images/pattern_1.png"" style=""width: 234px; height: 230px; margin-top: -50px;""><div style=""display: flex; justify-content: space-between; margin-top: 33px;""><img src=""images/demo_images/choice_trial_2.png"" style=""width: 408px; height: 417px; margin-right: 200px;""><img src=""images/demo_images/choice_trial_1.png"" style=""width: 408px; height: 417px;""></div></div>",j,delaylearn,learning,trial,PLXYpjF7dOQrX9uLH8yHRIB1x8g2,PLXYpjF7dOQrX9uLH8yHRIB1x8g2,5.0,images/demo_images/choice_trial_2.png,images/demo_images/choice_trial_1.png,images/demo_images/pattern_1.png,j,j,3000.0,2.0,1.0,20.0,1.0,2.0,1.0,1.0,1.0,10.0,,,,,,5c5844d8dd470300014ee3f1,16:52:18,27/03/2024
html-keyboard-response,8,14037,0.0-4.0-1.0,,"<div style=""display: flex; flex-direction: column; align-items: center; margin-top: -40px;""><img src=""images/demo_images/pattern_1.png"" style=""width: 234px; height: 230px; margin-top: -50px;""><div style=""display: flex; justify-content: space-between; margin-top: 33px;""><img src=""images/demo_images/choice_trial_1.png"" style=""width: 408px; height: 417px; margin-left:608px;""></div></div>",,delaylearn,learning,display_response,PLXYpjF7dOQrX9uLH8yHRIB1x8g2,PLXYpjF7dOQrX9uLH8yHRIB1x8g2,,,,,,,,,,,,,,,,,chosen stimuli: images/demo_images/choice_trial_1.png,,,,,5c5844d8dd470300014ee3f1,16:52:18,27/03/2024
html-keyboard-response,9,17044,0.0-4.0-2.0,,,,delaylearn,learning,feedback_duration_window,PLXYpjF7dOQrX9uLH8yHRIB1x8g2,PLXYpjF7dOQrX9uLH8yHRIB1x8g2,,,,,,,,,,,,,,,,,,3000.0,,,,5c5844d8dd470300014ee3f1,16:52:18,27/03/2024
html-keyboard-response,10,18555,0.0-4.0-3.0,,<div style='margin:auto;width: auto; font-size: 150%'><span style='font-weight: bold; font-size: 100px; color: green;'>+10 points!</span><br><br></div>,,delaylearn,learning,feedback_image_window,PLXYpjF7dOQrX9uLH8yHRIB1x8g2,PLXYpjF7dOQrX9uLH8yHRIB1x8g2,,,,,,,,,,,,,,,,,,,,,,5c5844d8dd470300014ee3f1,16:52:18,27/03/2024
html-keyboard-response,11,20420,0.0-5.0,,"<div style=""font-size:100px;"">+</div>",,delaylearn,learning,ITI,PLXYpjF7dOQrX9uLH8yHRIB1x8g2,PLXYpjF7dOQrX9uLH8yHRIB1x8g2,,,,,,,,,,,,,,,,,,,1864.0,,,5c5844d8dd470300014ee3f1,16:52:18,27/03/2024
html-keyboard-response,12,21803,0.0-6.0-0.0,1380.9000000953674,"<div style=""display: flex; flex-direction: column; align-items: center; margin-top: -40px;""><img src=""images/demo_images/pattern_1.png"" style=""width: 234px; height: 230px; margin-top: -50px;""><div style=""display: flex; justify-content: space-between; margin-top: 33px;""><img src=""images/demo_images/choice_trial_1.png"" style=""width: 408px; height: 417px; margin-right: 200px;""><img src=""images/demo_images/choice_trial_2.png"" style=""width: 408px; height: 417px;""></div></div>",f,delaylearn,learning,trial,PLXYpjF7dOQrX9uLH8yHRIB1x8g2,PLXYpjF7dOQrX9uLH8yHRIB1x8g2,5.0,images/demo_images/choice_trial_1.png,images/demo_images/choice_trial_2.png,images/demo_images/pattern_1.png,j,f,3000.0,1.0,2.0,20.0,0.0,3.0,1.0,0.0,1.0,10.0,,,,,,5c5844d8dd470300014ee3f1,16:52:18,27/03/2024
html-keyboard-response,13,22814,0.0-6.0-1.0,,"<div style=""display: flex; flex-direction: column; align-items: center; margin-top: -40px;""><img src=""images/demo_images/pattern_1.png"" style=""width: 234px; height: 230px; margin-top: -50px;""><div style=""display: flex; justify-content: space-between; margin-top: 33px;""><img src=""images/demo_images/choice_trial_1.png"" style=""width: 408px; height: 417px; margin-right: 608px;""></div></div>",,delaylearn,learning,display_response,PLXYpjF7dOQrX9uLH8yHRIB1x8g2,PLXYpjF7dOQrX9uLH8yHRIB1x8g2,,,,,,,,,,,,,,,,,chosen stimuli: images/demo_images/choice_trial_1.png,,,,,5c5844d8dd470300014ee3f1,16:52:18,27/03/2024
html-keyboard-response,14,25819,0.0-6.0-2.0,,,,delaylearn,learning,feedback_duration_window,PLXYpjF7dOQrX9uLH8yHRIB1x8g2,PLXYpjF7dOQrX9uLH8yHRIB1x8g2,,,,,,,,,,,,,,,,,,3000.0,,,,5c5844d8dd470300014ee3f1,16:52:18,27/03/2024
html-keyboard-response,15,27335,0.0-6.0-3.0,,<div style='margin:auto;width: auto; font-size: 150%'><span style='font-weight: bold; font-size: 100px; color: red;'>0 points!</span><br><br></div>,,delaylearn,learning,feedback_image_window,PLXYpjF7dOQrX9uLH8yHRIB1x8g2,PLXYpjF7dOQrX9uLH8yHRIB1x8g2,,,,,,,,,,,,,,,,,,,,,,5c5844d8dd470300014ee3f1,16:52:18,27/03/2024
html-keyboard-response,16,29476,0.0-7.0,,"<div style=""font-size:100px;"">+</div>",,delaylearn,learning,ITI,PLXYpjF7dOQrX9uLH8yHRIB1x8g2,PLXYpjF7dOQrX9uLH8yHRIB1x8g2,,,,,,,,,,,,,,,,,,,2129.0,,,5c5844d8dd470300014ee3f1,16:52:18,27/03/2024
html-keyboard-response,17,30749,0.0-8.0-0.0,1271.1000001430511,"<div style=""display: flex; flex-direction: column; align-items: center; margin-top: -40px;""><img src=""images/demo_images/pattern_1.png"" style=""width: 234px; height: 230px; margin-top: -50px;""><div style=""display: flex; justify-content: space-between; margin-top: 33px;""><img src=""images/demo_images/choice_trial_1.png"" style=""width: 408px; height: 417px; margin-right: 200px;""><img src=""images/demo_images/choice_trial_2.png"" style=""width: 408px; height: 417px;""></div></div>",j,delaylearn,learning,trial,PLXYpjF7dOQrX9uLH8yHRIB1x8g2,PLXYpjF7dOQrX9uLH8yHRIB1x8g2,5.0,images/demo_images/choice_trial_1.png,images/demo_images/choice_trial_2.png,images/demo_images/pattern_1.png,f,f,3000.0,1.0,2.0,20.0,0.0,4.0,0.0,0.0,2.0,10.0,,,,,,5c5844d8dd470300014ee3f1,16:52:18,27/03/2024
html-keyboard-response,18,31767,0.0-8.0-1.0,,"<div style=""display: flex; flex-direction: column; align-items: center; margin-top: -40px;""><img src=""images/demo_images/pattern_1.png"" style=""width: 234px; height: 230px; margin-top: -50px;""><div style=""display: flex; justify-content: space-between; margin-top: 33px;""><img src=""images/demo_images/choice_trial_2.png"" style=""width: 408px; height: 417px; margin-left:608px;""></div></div>",,delaylearn,learning,display_response,PLXYpjF7dOQrX9uLH8yHRIB1x8g2,PLXYpjF7dOQrX9uLH8yHRIB1x8g2,,,,,,,,,,,,,,,,,chosen stimuli: images/demo_images/choice_trial_2.png,,,,,5c5844d8dd470300014ee3f1,16:52:18,27/03/2024
html-keyboard-response,19,34776,0.0-8.0-2.0,,,,delaylearn,learning,feedback_duration_window,PLXYpjF7dOQrX9uLH8yHRIB1x8g2,PLXYpjF7dOQrX9uLH8yHRIB1x8g2,,,,,,,,,,,,,,,,,,3000.0,,,,5c5844d8dd470300014ee3f1,16:52:18,27/03/2024
html-keyboard-response,20,36292,0.0-8.0-3.0,,<div style='margin:auto;width: auto; font-size: 150%'><span style='font-weight: bold; font-size: 100px; color: red;'>0 points!</span><br><br></div>,,delaylearn,learning,feedback_image_window,PLXYpjF7dOQrX9uLH8yHRIB1x8g2,PLXYpjF7dOQrX9uLH8yHRIB1x8g2,,,,,,,,,,,,,,,,,,,,,,5c5844d8dd470300014ee3f1,16:52:18,27/03/2024
html-keyboard-response,21,36801,0.0-9.0-0.0,,,,,,mood_trial_fixation,PLXYpjF7dOQrX9uLH8yHRIB1x8g2,,,,,,,,,,,,,,,,,,,,,,,5c5844d8dd470300014ee3f1,16:52:18,27/03/2024
lmdlab-html-vas-response,22,42909,0.0-9.0-1.0,5077.0,How happy are you right now?,0.30253297616221897,delaylearn,learning,mood_trial,PLXYpjF7dOQrX9uLH8yHRIB1x8g2,PLXYpjF7dOQrX9uLH8yHRIB1x8g2,,,,,,,,,,,,,,,,,,,,"['Very unhappy', 'Very happy']",,5c5844d8dd470300014ee3f1,16:52:18,27/03/2024
html-keyboard-response,23,44815,0.0-10.0,,"<div style=""font-size:100px;"">+</div>",,delaylearn,learning,ITI,PLXYpjF7dOQrX9uLH8yHRIB1x8g2,PLXYpjF7dOQrX9uLH8yHRIB1x8g2,,,,,,,,,,,,,,,,,,,1899.0,,,5c5844d8dd470300014ee3f1,16:52:18,27/03/2024
html-keyboard-response,24,46012,0.0-11.0-0.0,1195.3000001907349,"<div style=""display: flex; flex-direction: column; align-items: center; margin-top: -40px;""><img src=""images/demo_images/pattern_1.png"" style=""width: 234px; height: 230px; margin-top: -50px;""><div style=""display: flex; justify-content: space-between; margin-top: 33px;""><img src=""images/demo_images/choice_trial_2.png"" style=""width: 408px; height: 417px; margin-right: 200px;""><img src=""images/demo_images/choice_trial_1.png"" style=""width: 408px; height: 417px;""></div></div>",j,delaylearn,learning,trial,PLXYpjF7dOQrX9uLH8yHRIB1x8g2,PLXYpjF7dOQrX9uLH8yHRIB1x8g2,5.0,images/demo_images/choice_trial_2.png,images/demo_images/choice_trial_1.png,images/demo_images/pattern_1.png,j,j,3000.0,2.0,1.0,20.0,1.0,5.0,1.0,1.0,1.0,20.0,,,,,,5c5844d8dd470300014ee3f1,16:52:18,27/03/2024
html-keyboard-response,25,47023,0.0-11.0-1.0,,"<div style=""display: flex; flex-direction: column; align-items: center; margin-top: -40px;""><img src=""images/demo_images/pattern_1.png"" style=""width: 234px; height: 230px; margin-top: -50px;""><div style=""display: flex; justify-content: space-between; margin-top: 33px;""><img src=""images/demo_images/choice_trial_1.png"" style=""width: 408px; height: 417px; margin-left:608px;""></div></div>",,delaylearn,learning,display_response,PLXYpjF7dOQrX9uLH8yHRIB1x8g2,PLXYpjF7dOQrX9uLH8yHRIB1x8g2,,,,,,,,,,,,,,,,,chosen stimuli: images/demo_images/choice_trial_1.png,,,,,5c5844d8dd470300014ee3f1,16:52:18,27/03/2024
html-keyboard-response,26,50031,0.0-11.0-2.0,,,,delaylearn,learning,feedback_duration_window,PLXYpjF7dOQrX9uLH8yHRIB1x8g2,PLXYpjF7dOQrX9uLH8yHRIB1x8g2,,,,,,,,,,,,,,,,,,3000.0,,,,5c5844d8dd470300014ee3f1,16:52:18,27/03/2024
html-keyboard-response,27,51543,0.0-11.0-3.0,,<div style='margin:auto;width: auto; font-size: 150%'><span style='font-weight: bold; font-size: 100px; color: green;'>+10 points!</span><br><br></div>,,delaylearn,learning,feedback_image_window,PLXYpjF7dOQrX9uLH8yHRIB1x8g2,PLXYpjF7dOQrX9uLH8yHRIB1x8g2,,,,,,,,,,,,,,,,,,,,,,5c5844d8dd470300014ee3f1,16:52:18,27/03/2024
html-keyboard-response,28,53777,0.0-12.0,,"<div style=""font-size:100px;"">+</div>",,delaylearn,learning,ITI,PLXYpjF7dOQrX9uLH8yHRIB1x8g2,PLXYpjF7dOQrX9uLH8yHRIB1x8g2,,,,,,,,,,,,,,,,,,,2227.0,,,5c5844d8dd470300014ee3f1,16:52:18,27/03/2024
html-keyboard-response,29,54584,0.0-13.0-0.0,804.6999998092651,"<div style=""display: flex; flex-direction: column; align-items: center; margin-top: -40px;""><img src=""images/demo_images/pattern_1.png"" style=""width: 234px; height: 230px; margin-top: -50px;""><div style=""display: flex; justify-content: space-between; margin-top: 33px;""><img src=""images/demo_images/choice_trial_1.png"" style=""width: 408px; height: 417px; margin-right: 200px;""><img src=""images/demo_images/choice_trial_2.png"" style=""width: 408px; height: 417px;""></div></div>",f,delaylearn,learning,trial,PLXYpjF7dOQrX9uLH8yHRIB1x8g2,PLXYpjF7dOQrX9uLH8yHRIB1x8g2,5.0,images/demo_images/choice_trial_1.png,images/demo_images/choice_trial_2.png,images/demo_images/pattern_1.png,f,f,3000.0,1.0,2.0,20.0,0.0,6.0,1.0,1.0,1.0,30.0,,,,,,5c5844d8dd470300014ee3f1,16:52:18,27/03/2024
html-keyboard-response,30,55600,0.0-13.0-1.0,,"<div style=""display: flex; flex-direction: column; align-items: center; margin-top: -40px;""><img src=""images/demo_images/pattern_1.png"" style=""width: 234px; height: 230px; margin-top: -50px;""><div style=""display: flex; justify-content: space-between; margin-top: 33px;""><img src=""images/demo_images/choice_trial_1.png"" style=""width: 408px; height: 417px; margin-right: 608px;""></div></div>",,delaylearn,learning,display_response,PLXYpjF7dOQrX9uLH8yHRIB1x8g2,PLXYpjF7dOQrX9uLH8yHRIB1x8g2,,,,,,,,,,,,,,,,,chosen stimuli: images/demo_images/choice_trial_1.png,,,,,5c5844d8dd470300014ee3f1,16:52:18,27/03/2024
html-keyboard-response,31,58611,0.0-13.0-2.0,,,,delaylearn,learning,feedback_duration_window,PLXYpjF7dOQrX9uLH8yHRIB1x8g2,PLXYpjF7dOQrX9uLH8yHRIB1x8g2,,,,,,,,,,,,,,,,,,3000.0,,,,5c5844d8dd470300014ee3f1,16:52:18,27/03/2024
html-keyboard-response,32,60122,0.0-13.0-3.0,,<div style='margin:auto;width: auto; font-size: 150%'><span style='font-weight: bold; font-size: 100px; color: green;'>+10 points!</span><br><br></div>,,delaylearn,learning,feedback_image_window,PLXYpjF7dOQrX9uLH8yHRIB1x8g2,PLXYpjF7dOQrX9uLH8yHRIB1x8g2,,,,,,,,,,,,,,,,,,,,,,5c5844d8dd470300014ee3f1,16:52:18,27/03/2024
html-keyboard-response,33,61712,0.0-14.0,,"<div style=""font-size:100px;"">+</div>",,delaylearn,learning,ITI,PLXYpjF7dOQrX9uLH8yHRIB1x8g2,PLXYpjF7dOQrX9uLH8yHRIB1x8g2,,,,,,,,,,,,,,,,,,,1575.0,,,5c5844d8dd470300014ee3f1,16:52:18,27/03/2024
html-keyboard-response,34,62532,0.0-15.0-0.0,818.3000001907349,"<div style=""display: flex; flex-direction: column; align-items: center; margin-top: -40px;""><img src=""images/demo_images/pattern_1.png"" style=""width: 234px; height: 230px; margin-top: -50px;""><div style=""display: flex; justify-content: space-between; margin-top: 33px;""><img src=""images/demo_images/choice_trial_2.png"" style=""width: 408px; height: 417px; margin-right: 200px;""><img src=""images/demo_images/choice_trial_1.png"" style=""width: 408px; height: 417px;""></div></div>",j,delaylearn,learning,trial,PLXYpjF7dOQrX9uLH8yHRIB1x8g2,PLXYpjF7dOQrX9uLH8yHRIB1x8g2,5.0,images/demo_images/choice_trial_2.png,images/demo_images/choice_trial_1.png,images/demo_images/pattern_1.png,j,j,3000.0,2.0,1.0,20.0,1.0,7.0,1.0,1.0,1.0,40.0,,,,,,5c5844d8dd470300014ee3f1,16:52:18,27/03/2024
html-keyboard-response,35,63549,0.0-15.0-1.0,,"<div style=""display: flex; flex-direction: column; align-items: center; margin-top: -40px;""><img src=""images/demo_images/pattern_1.png"" style=""width: 234px; height: 230px; margin-top: -50px;""><div style=""display: flex; justify-content: space-between; margin-top: 33px;""><img src=""images/demo_images/choice_trial_1.png"" style=""width: 408px; height: 417px; margin-left:608px;""></div></div>",,delaylearn,learning,display_response,PLXYpjF7dOQrX9uLH8yHRIB1x8g2,PLXYpjF7dOQrX9uLH8yHRIB1x8g2,,,,,,,,,,,,,,,,,chosen stimuli: images/demo_images/choice_trial_1.png,,,,,5c5844d8dd470300014ee3f1,16:52:18,27/03/2024
html-keyboard-response,36,66559,0.0-15.0-2.0,,,,delaylearn,learning,feedback_duration_window,PLXYpjF7dOQrX9uLH8yHRIB1x8g2,PLXYpjF7dOQrX9uLH8yHRIB1x8g2,,,,,,,,,,,,,,,,,,3000.0,,,,5c5844d8dd470300014ee3f1,16:52:18,27/03/2024
html-keyboard-response,37,68071,0.0-15.0-3.0,,<div style='margin:auto;width: auto; font-size: 150%'><span style='font-weight: bold; font-size: 100px; color: green;'>+10 points!</span><br><br></div>,,delaylearn,learning,feedback_image_window,PLXYpjF7dOQrX9uLH8yHRIB1x8g2,PLXYpjF7dOQrX9uLH8yHRIB1x8g2,,,,,,,,,,,,,,,,,,,,,,5c5844d8dd470300014ee3f1,16:52:18,27/03/2024
html-keyboard-response,38,69913,0.0-16.0,,"<div style=""font-size:100px;"">+</div>",,delaylearn,learning,ITI,PLXYpjF7dOQrX9uLH8yHRIB1x8g2,PLXYpjF7dOQrX9uLH8yHRIB1x8g2,,,,,,,,,,,,,,,,,,,1828.0,,,5c5844d8dd470300014ee3f1,16:52:18,27/03/2024
html-keyboard-response,39,70747,0.0-17.0-0.0,832.7999999523163,"<div style=""display: flex; flex-direction: column; align-items: center; margin-top: -40px;""><img src=""images/demo_images/pattern_1.png"" style=""width: 234px; height: 230px; margin-top: -50px;""><div style=""display: flex; justify-content: space-between; margin-top: 33px;""><img src=""images/demo_images/choice_trial_1.png"" style=""width: 408px; height: 417px; margin-right: 200px;""><img src=""images/demo_images/choice_trial_2.png"" style=""width: 408px; height: 417px;""></div></div>",f,delaylearn,learning,trial,PLXYpjF7dOQrX9uLH8yHRIB1x8g2,PLXYpjF7dOQrX9uLH8yHRIB1x8g2,5.0,images/demo_images/choice_trial_1.png,images/demo_images/choice_trial_2.png,images/demo_images/pattern_1.png,f,f,3000.0,1.0,2.0,20.0,0.0,8.0,1.0,1.0,1.0,50.0,,,,,,5c5844d8dd470300014ee3f1,16:52:18,27/03/2024
html-keyboard-response,40,71750,0.0-17.0-1.0,,"<div style=""display: flex; flex-direction: column; align-items: center; margin-top: -40px;""><img src=""images/demo_images/pattern_1.png"" style=""width: 234px; height: 230px; margin-top: -50px;""><div style=""display: flex; justify-content: space-between; margin-top: 33px;""><img src=""images/demo_images/choice_trial_1.png"" style=""width: 408px; height: 417px; margin-right: 608px;""></div></div>",,delaylearn,learning,display_response,PLXYpjF7dOQrX9uLH8yHRIB1x8g2,PLXYpjF7dOQrX9uLH8yHRIB1x8g2,,,,,,,,,,,,,,,,,chosen stimuli: images/demo_images/choice_trial_1.png,,,,,5c5844d8dd470300014ee3f1,16:52:18,27/03/2024
html-keyboard-response,41,74765,0.0-17.0-2.0,,,,delaylearn,learning,feedback_duration_window,PLXYpjF7dOQrX9uLH8yHRIB1x8g2,PLXYpjF7dOQrX9uLH8yHRIB1x8g2,,,,,,,,,,,,,,,,,,3000.0,,,,5c5844d8dd470300014ee3f1,16:52:18,27/03/2024
html-keyboard-response,42,76280,0.0-17.0-3.0,,<div style='margin:auto;width: auto; font-size: 150%'><span style='font-weight: bold; font-size: 100px; color: green;'>+10 points!</span><br><br></div>,,delaylearn,learning,feedback_image_window,PLXYpjF7dOQrX9uLH8yHRIB1x8g2,PLXYpjF7dOQrX9uLH8yHRIB1x8g2,,,,,,,,,,,,,,,,,,,,,,5c5844d8dd470300014ee3f1,16:52:18,27/03/2024
html-button-response,43,80991,0.0-18.0,4709.899999856949,"
  <div style=""display: flex; align-items: center; justify-content: center; height: 80vh;"">
  <div>
          <img src=""images/inst_demo_finish.png"" style=""width: 80vw; height:auto;"">
          <br><br>
      </div>
      <br><br>
  </div>",0,,,,PLXYpjF7dOQrX9uLH8yHRIB1x8g2,,,,,,,,,,,,,,,,,,,,,,,5c5844d8dd470300014ee3f1,16:52:18,27/03/2024
html-keyboard-response,44,91114,0.0-19.0,10121.200000047684,"
  <div style=""display: flex; align-items: center; justify-content: center; height: 80vh;"">
  <div>
          <img src=""images/inst_6.png"" style=""width: 80vw; height:auto;"">
          <br><br>
      </div>
      <br><br>
  </div>",f,,,,PLXYpjF7dOQrX9uLH8yHRIB1x8g2,,,,,,,,,,,,,,,,,,,,,,,5c5844d8dd470300014ee3f1,16:52:18,27/03/2024
html-keyboard-response,45,94120,0.0-20.0,,"<div style=""font-size:100px;"">+</div>",,delaylearn,learning,pre_fixation,PLXYpjF7dOQrX9uLH8yHRIB1x8g2,,,,,,,,,,,,,,,,,,,,,,,5c5844d8dd470300014ee3f1,16:52:18,27/03/2024
html-keyboard-response,46,95739,0.0-21.0,,"<div style=""font-size:100px;"">+</div>",,delaylearn,learning,ITI,PLXYpjF7dOQrX9uLH8yHRIB1x8g2,PLXYpjF7dOQrX9uLH8yHRIB1x8g2,,,,,,,,,,,,,,,,,,,1608.0,,,5c5844d8dd470300014ee3f1,16:52:18,27/03/2024
html-keyboard-response,47,97926,0.0-22.0-0.0,2185.5999999046326,"<div style=""display: flex; flex-direction: column; align-items: center; margin-top: -40px;""><img src=""images/pattern_3.png"" style=""width: 234px; height: 230px; margin-top: -50px;""><div style=""display: flex; justify-content: space-between; margin-top: 33px;""><img src=""images/choice_trial_16.png"" style=""width: 408px; height: 417px; margin-right: 200px;""><img src=""images/choice_trial_2.png"" style=""width: 408px; height: 417px;""></div></div>",f,delaylearn,learning,trial,PLXYpjF7dOQrX9uLH8yHRIB1x8g2,PLXYpjF7dOQrX9uLH8yHRIB1x8g2,5.0,images/choice_trial_16.png,images/choice_trial_2.png,images/pattern_3.png,f,f,7000.0,16.0,2.0,2.0,0.0,9.0,1.0,1.0,16.0,60.0,,,,,,5c5844d8dd470300014ee3f1,16:52:18,27/03/2024
html-keyboard-response,48,98939,0.0-22.0-1.0,,"<div style=""display: flex; flex-direction: column; align-items: center; margin-top: -40px;""><img src=""images/pattern_3.png"" style=""width: 234px; height: 230px; margin-top: -50px;""><div style=""display: flex; justify-content: space-between; margin-top: 33px;""><img src=""images/choice_trial_16.png"" style=""width: 408px; height: 417px; margin-right: 608px;""></div></div>",,delaylearn,learning,display_response,PLXYpjF7dOQrX9uLH8yHRIB1x8g2,PLXYpjF7dOQrX9uLH8yHRIB1x8g2,,,,,,,,,,,,,,,,,chosen stimuli: images/choice_trial_16.png,,,,,5c5844d8dd470300014ee3f1,16:52:18,27/03/2024
html-keyboard-response,49,105943,0.0-22.0-2.0,,,,delaylearn,learning,feedback_duration_window,PLXYpjF7dOQrX9uLH8yHRIB1x8g2,PLXYpjF7dOQrX9uLH8yHRIB1x8g2,,,,,,,,,,,,,,,,,,7000.0,,,,5c5844d8dd470300014ee3f1,16:52:18,27/03/2024
html-keyboard-response,50,107450,0.0-22.0-3.0,,<div style='margin:auto;width: auto; font-size: 150%'><span style='font-weight: bold; font-size: 100px; color: green;'>+10 points!</span><br><br></div>,,delaylearn,learning,feedback_image_window,PLXYpjF7dOQrX9uLH8yHRIB1x8g2,PLXYpjF7dOQrX9uLH8yHRIB1x8g2,,,,,,,,,,,,,,,,,,,,,,5c5844d8dd470300014ee3f1,16:52:18,27/03/2024
html-keyboard-response,51,109671,0.0-23.0,,"<div style=""font-size:100px;"">+</div>",,delaylearn,learning,ITI,PLXYpjF7dOQrX9uLH8yHRIB1x8g2,PLXYpjF7dOQrX9uLH8yHRIB1x8g2,,,,,,,,,,,,,,,,,,,2207.0,,,5c5844d8dd470300014ee3f1,16:52:18,27/03/2024
html-keyboard-response,52,111671,0.0-24.0-0.0,1997.9000000953674,"<div style=""display: flex; flex-direction: column; align-items: center; margin-top: -40px;""><img src=""images/pattern_7.png"" style=""width: 234px; height: 230px; margin-top: -50px;""><div style=""display: flex; justify-content: space-between; margin-top: 33px;""><img src=""images/choice_trial_10.png"" style=""width: 408px; height: 417px; margin-right: 200px;""><img src=""images/choice_trial_8.png"" style=""width: 408px; height: 417px;""></div></div>",j,delaylearn,learning,trial,PLXYpjF7dOQrX9uLH8yHRIB1x8g2,PLXYpjF7dOQrX9uLH8yHRIB1x8g2,5.0,images/choice_trial_10.png,images/choice_trial_8.png,images/pattern_7.png,j,j,750.0,10.0,8.0,6.0,1.0,10.0,1.0,1.0,8.0,70.0,,,,,,5c5844d8dd470300014ee3f1,16:52:18,27/03/2024
html-keyboard-response,53,112685,0.0-24.0-1.0,,"<div style=""display: flex; flex-direction: column; align-items: center; margin-top: -40px;""><img src=""images/pattern_7.png"" style=""width: 234px; height: 230px; margin-top: -50px;""><div style=""display: flex; justify-content: space-between; margin-top: 33px;""><img src=""images/choice_trial_8.png"" style=""width: 408px; height: 417px; margin-left:608px;""></div></div>",,delaylearn,learning,display_response,PLXYpjF7dOQrX9uLH8yHRIB1x8g2,PLXYpjF7dOQrX9uLH8yHRIB1x8g2,,,,,,,,,,,,,,,,,chosen stimuli: images/choice_trial_8.png,,,,,5c5844d8dd470300014ee3f1,16:52:18,27/03/2024
html-keyboard-response,54,113437,0.0-24.0-2.0,,,,delaylearn,learning,feedback_duration_window,PLXYpjF7dOQrX9uLH8yHRIB1x8g2,PLXYpjF7dOQrX9uLH8yHRIB1x8g2,,,,,,,,,,,,,,,,,,750.0,,,,5c5844d8dd470300014ee3f1,16:52:18,27/03/2024
html-keyboard-response,55,114951,0.0-24.0-3.0,,<div style='margin:auto;width: auto; font-size: 150%'><span style='font-weight: bold; font-size: 100px; color: green;'>+10 points!</span><br><br></div>,,delaylearn,learning,feedback_image_window,PLXYpjF7dOQrX9uLH8yHRIB1x8g2,PLXYpjF7dOQrX9uLH8yHRIB1x8g2,,,,,,,,,,,,,,,,,,,,,,5c5844d8dd470300014ee3f1,16:52:18,27/03/2024
html-keyboard-response,56,117419,0.0-25.0,,"<div style=""font-size:100px;"">+</div>",,delaylearn,learning,ITI,PLXYpjF7dOQrX9uLH8yHRIB1x8g2,PLXYpjF7dOQrX9uLH8yHRIB1x8g2,,,,,,,,,,,,,,,,,,,2453.0,,,5c5844d8dd470300014ee3f1,16:52:18,27/03/2024
html-keyboard-response,57,119492,0.0-26.0-0.0,2070.7999999523163,"<div style=""display: flex; flex-direction: column; align-items: center; margin-top: -40px;""><img src=""images/pattern_4.png"" style=""width: 234px; height: 230px; margin-top: -50px;""><div style=""display: flex; justify-content: space-between; margin-top: 33px;""><img src=""images/choice_trial_11.png"" style=""width: 408px; height: 417px; margin-right: 200px;""><img src=""images/choice_trial_4.png"" style=""width: 408px; height: 417px;""></div></div>",j,delaylearn,learning,trial,PLXYpjF7dOQrX9uLH8yHRIB1x8g2,PLXYpjF7dOQrX9uLH8yHRIB1x8g2,5.0,images/choice_trial_11.png,images/choice_trial_4.png,images/pattern_4.png,f,f,7000.0,11.0,4.0,3.0,0.0,11.0,0.0,0.0,4.0,70.0,,,,,,5c5844d8dd470300014ee3f1,16:52:18,27/03/2024
html-keyboard-response,58,120504,0.0-26.0-1.0,,"<div style=""display: flex; flex-direction: column; align-items: center; margin-top: -40px;""><img src=""images/pattern_4.png"" style=""width: 234px; height: 230px; margin-top: -50px;""><div style=""display: flex; justify-content: space-between; margin-top: 33px;""><img src=""images/choice_trial_4.png"" style=""width: 408px; height: 417px; margin-left:608px;""></div></div>",,delaylearn,learning,display_response,PLXYpjF7dOQrX9uLH8yHRIB1x8g2,PLXYpjF7dOQrX9uLH8yHRIB1x8g2,,,,,,,,,,,,,,,,,chosen stimuli: images/choice_trial_4.png,,,,,5c5844d8dd470300014ee3f1,16:52:18,27/03/2024
html-keyboard-response,59,127510,0.0-26.0-2.0,,,,delaylearn,learning,feedback_duration_window,PLXYpjF7dOQrX9uLH8yHRIB1x8g2,PLXYpjF7dOQrX9uLH8yHRIB1x8g2,,,,,,,,,,,,,,,,,,7000.0,,,,5c5844d8dd470300014ee3f1,16:52:18,27/03/2024
html-keyboard-response,60,129019,0.0-26.0-3.0,,<div style='margin:auto;width: auto; font-size: 150%'><span style='font-weight: bold; font-size: 100px; color: red;'>0 points!</span><br><br></div>,,delaylearn,learning,feedback_image_window,PLXYpjF7dOQrX9uLH8yHRIB1x8g2,PLXYpjF7dOQrX9uLH8yHRIB1x8g2,,,,,,,,,,,,,,,,,,,,,,5c5844d8dd470300014ee3f1,16:52:18,27/03/2024
html-keyboard-response,61,130639,0.0-27.0,,"<div style=""font-size:100px;"">+</div>",,delaylearn,learning,ITI,PLXYpjF7dOQrX9uLH8yHRIB1x8g2,PLXYpjF7dOQrX9uLH8yHRIB1x8g2,,,,,,,,,,,,,,,,,,,1614.0,,,5c5844d8dd470300014ee3f1,16:52:18,27/03/2024
html-keyboard-response,62,132408,0.0-28.0-0.0,1765.5999999046326,"<div style=""display: flex; flex-direction: column; align-items: center; margin-top: -40px;""><img src=""images/pattern_5.png"" style=""width: 234px; height: 230px; margin-top: -50px;""><div style=""display: flex; justify-content: space-between; margin-top: 33px;""><img src=""images/choice_trial_13.png"" style=""width: 408px; height: 417px; margin-right: 200px;""><img src=""images/choice_trial_7.png"" style=""width: 408px; height: 417px;""></div></div>",j,delaylearn,learning,trial,PLXYpjF7dOQrX9uLH8yHRIB1x8g2,PLXYpjF7dOQrX9uLH8yHRIB1x8g2,5.0,images/choice_trial_13.png,images/choice_trial_7.png,images/pattern_5.png,j,j,750.0,13.0,7.0,4.0,1.0,12.0,1.0,1.0,7.0,80.0,,,,,,5c5844d8dd470300014ee3f1,16:52:18,27/03/2024
html-keyboard-response,63,133417,0.0-28.0-1.0,,"<div style=""display: flex; flex-direction: column; align-items: center; margin-top: -40px;""><img src=""images/pattern_5.png"" style=""width: 234px; height: 230px; margin-top: -50px;""><div style=""display: flex; justify-content: space-between; margin-top: 33px;""><img src=""images/choice_trial_7.png"" style=""width: 408px; height: 417px; margin-left:608px;""></div></div>",,delaylearn,learning,display_response,PLXYpjF7dOQrX9uLH8yHRIB1x8g2,PLXYpjF7dOQrX9uLH8yHRIB1x8g2,,,,,,,,,,,,,,,,,chosen stimuli: images/choice_trial_7.png,,,,,5c5844d8dd470300014ee3f1,16:52:18,27/03/2024
html-keyboard-response,64,134173,0.0-28.0-2.0,,,,delaylearn,learning,feedback_duration_window,PLXYpjF7dOQrX9uLH8yHRIB1x8g2,PLXYpjF7dOQrX9uLH8yHRIB1x8g2,,,,,,,,,,,,,,,,,,750.0,,,,5c5844d8dd470300014ee3f1,16:52:18,27/03/2024
html-keyboard-response,65,135685,0.0-28.0-3.0,,<div style='margin:auto;width: auto; font-size: 150%'><span style='font-weight: bold; font-size: 100px; color: green;'>+10 points!</span><br><br></div>,,delaylearn,learning,feedback_image_window,PLXYpjF7dOQrX9uLH8yHRIB1x8g2,PLXYpjF7dOQrX9uLH8yHRIB1x8g2,,,,,,,,,,,,,,,,,,,,,,5c5844d8dd470300014ee3f1,16:52:18,27/03/2024
html-keyboard-response,66,137645,0.0-29.0,,"<div style=""font-size:100px;"">+</div>",,delaylearn,learning,ITI,PLXYpjF7dOQrX9uLH8yHRIB1x8g2,PLXYpjF7dOQrX9uLH8yHRIB1x8g2,,,,,,,,,,,,,,,,,,,1945.0,,,5c5844d8dd470300014ee3f1,16:52:18,27/03/2024
html-keyboard-response,67,139161,0.0-30.0-0.0,1513.3000001907349,"<div style=""display: flex; flex-direction: column; align-items: center; margin-top: -40px;""><img src=""images/pattern_6.png"" style=""width: 234px; height: 230px; margin-top: -50px;""><div style=""display: flex; justify-content: space-between; margin-top: 33px;""><img src=""images/choice_trial_14.png"" style=""width: 408px; height: 417px; margin-right: 200px;""><img src=""images/choice_trial_9.png"" style=""width: 408px; height: 417px;""></div></div>",f,delaylearn,learning,trial,PLXYpjF7dOQrX9uLH8yHRIB1x8g2,PLXYpjF7dOQrX9uLH8yHRIB1x8g2,5.0,images/choice_trial_14.png,images/choice_trial_9.png,images/pattern_6.png,j,f,750.0,14.0,9.0,5.0,0.0,13.0,1.0,0.0,14.0,80.0,,,,,,5c5844d8dd470300014ee3f1,16:52:18,27/03/2024
html-keyboard-response,68,140170,0.0-30.0-1.0,,"<div style=""display: flex; flex-direction: column; align-items: center; margin-top: -40px;""><img src=""images/pattern_6.png"" style=""width: 234px; height: 230px; margin-top: -50px;""><div style=""display: flex; justify-content: space-between; margin-top: 33px;""><img src=""images/choice_trial_14.png"" style=""width: 408px; height: 417px; margin-right: 608px;""></div></div>",,delaylearn,learning,display_response,PLXYpjF7dOQrX9uLH8yHRIB1x8g2,PLXYpjF7dOQrX9uLH8yHRIB1x8g2,,,,,,,,,,,,,,,,,chosen stimuli: images/choice_trial_14.png,,,,,5c5844d8dd470300014ee3f1,16:52:18,27/03/2024
html-keyboard-response,69,140926,0.0-30.0-2.0,,,,delaylearn,learning,feedback_duration_window,PLXYpjF7dOQrX9uLH8yHRIB1x8g2,PLXYpjF7dOQrX9uLH8yHRIB1x8g2,,,,,,,,,,,,,,,,,,750.0,,,,5c5844d8dd470300014ee3f1,16:52:18,27/03/2024
html-keyboard-response,70,142436,0.0-30.0-3.0,,<div style='margin:auto;width: auto; font-size: 150%'><span style='font-weight: bold; font-size: 100px; color: red;'>0 points!</span><br><br></div>,,delaylearn,learning,feedback_image_window,PLXYpjF7dOQrX9uLH8yHRIB1x8g2,PLXYpjF7dOQrX9uLH8yHRIB1x8g2,,,,,,,,,,,,,,,,,,,,,,5c5844d8dd470300014ee3f1,16:52:18,27/03/2024
html-keyboard-response,71,142946,0.0-31.0-0.0,,,,,,mood_trial_fixation,PLXYpjF7dOQrX9uLH8yHRIB1x8g2,,,,,,,,,,,,,,,,,,,,,,,5c5844d8dd470300014ee3f1,16:52:18,27/03/2024
lmdlab-html-vas-response,72,153403,0.0-31.0-1.0,9449.0,How happy are you right now?,0.4935064935064935,delaylearn,learning,mood_trial,PLXYpjF7dOQrX9uLH8yHRIB1x8g2,PLXYpjF7dOQrX9uLH8yHRIB1x8g2,,,,,,,,,,,,,,,,,,,,"['Very unhappy', 'Very happy']",,5c5844d8dd470300014ee3f1,16:52:18,27/03/2024
html-keyboard-response,73,155913,0.0-32.0,,"<div style=""font-size:100px;"">+</div>",,delaylearn,learning,ITI,PLXYpjF7dOQrX9uLH8yHRIB1x8g2,PLXYpjF7dOQrX9uLH8yHRIB1x8g2,,,,,,,,,,,,,,,,,,,2499.0,,,5c5844d8dd470300014ee3f1,16:52:18,27/03/2024
html-keyboard-response,74,157437,0.0-33.0-0.0,1522.0999999046326,"<div style=""display: flex; flex-direction: column; align-items: center; margin-top: -40px;""><img src=""images/pattern_1.png"" style=""width: 234px; height: 230px; margin-top: -50px;""><div style=""display: flex; justify-content: space-between; margin-top: 33px;""><img src=""images/choice_trial_15.png"" style=""width: 408px; height: 417px; margin-right: 200px;""><img src=""images/choice_trial_6.png"" style=""width: 408px; height: 417px;""></div></div>",f,delaylearn,learning,trial,PLXYpjF7dOQrX9uLH8yHRIB1x8g2,PLXYpjF7dOQrX9uLH8yHRIB1x8g2,5.0,images/choice_trial_15.png,images/choice_trial_6.png,images/pattern_1.png,j,j,7000.0,15.0,6.0,1.0,1.0,14.0,0.0,0.0,15.0,80.0,,,,,,5c5844d8dd470300014ee3f1,16:52:18,27/03/2024
html-keyboard-response,75,158446,0.0-33.0-1.0,,"<div style=""display: flex; flex-direction: column; align-items: center; margin-top: -40px;""><img src=""images/pattern_1.png"" style=""width: 234px; height: 230px; margin-top: -50px;""><div style=""display: flex; justify-content: space-between; margin-top: 33px;""><img src=""images/choice_trial_15.png"" style=""width: 408px; height: 417px; margin-right: 608px;""></div></div>",,delaylearn,learning,display_response,PLXYpjF7dOQrX9uLH8yHRIB1x8g2,PLXYpjF7dOQrX9uLH8yHRIB1x8g2,,,,,,,,,,,,,,,,,chosen stimuli: images/choice_trial_15.png,,,,,5c5844d8dd470300014ee3f1,16:52:18,27/03/2024
html-keyboard-response,76,165451,0.0-33.0-2.0,,,,delaylearn,learning,feedback_duration_window,PLXYpjF7dOQrX9uLH8yHRIB1x8g2,PLXYpjF7dOQrX9uLH8yHRIB1x8g2,,,,,,,,,,,,,,,,,,7000.0,,,,5c5844d8dd470300014ee3f1,16:52:18,27/03/2024
html-keyboard-response,77,166953,0.0-33.0-3.0,,<div style='margin:auto;width: auto; font-size: 150%'><span style='font-weight: bold; font-size: 100px; color: red;'>0 points!</span><br><br></div>,,delaylearn,learning,feedback_image_window,PLXYpjF7dOQrX9uLH8yHRIB1x8g2,PLXYpjF7dOQrX9uLH8yHRIB1x8g2,,,,,,,,,,,,,,,,,,,,,,5c5844d8dd470300014ee3f1,16:52:18,27/03/2024
html-keyboard-response,78,168464,0.0-34.0,,"<div style=""font-size:100px;"">+</div>",,delaylearn,learning,ITI,PLXYpjF7dOQrX9uLH8yHRIB1x8g2,PLXYpjF7dOQrX9uLH8yHRIB1x8g2,,,,,,,,,,,,,,,,,,,1510.0,,,5c5844d8dd470300014ee3f1,16:52:18,27/03/2024
html-keyboard-response,79,169325,0.0-35.0-0.0,858.5,"<div style=""display: flex; flex-direction: column; align-items: center; margin-top: -40px;""><img src=""images/pattern_3.png"" style=""width: 234px; height: 230px; margin-top: -50px;""><div style=""display: flex; justify-content: space-between; margin-top: 33px;""><img src=""images/choice_trial_2.png"" style=""width: 408px; height: 417px; margin-right: 200px;""><img src=""images/choice_trial_16.png"" style=""width: 408px; height: 417px;""></div></div>",j,delaylearn,learning,trial,PLXYpjF7dOQrX9uLH8yHRIB1x8g2,PLXYpjF7dOQrX9uLH8yHRIB1x8g2,5.0,images/choice_trial_2.png,images/choice_trial_16.png,images/pattern_3.png,f,j,7000.0,2.0,16.0,2.0,1.0,15.0,1.0,0.0,16.0,80.0,,,,,,5c5844d8dd470300014ee3f1,16:52:18,27/03/2024
html-keyboard-response,80,170333,0.0-35.0-1.0,,"<div style=""display: flex; flex-direction: column; align-items: center; margin-top: -40px;""><img src=""images/pattern_3.png"" style=""width: 234px; height: 230px; margin-top: -50px;""><div style=""display: flex; justify-content: space-between; margin-top: 33px;""><img src=""images/choice_trial_16.png"" style=""width: 408px; height: 417px; margin-left:608px;""></div></div>",,delaylearn,learning,display_response,PLXYpjF7dOQrX9uLH8yHRIB1x8g2,PLXYpjF7dOQrX9uLH8yHRIB1x8g2,,,,,,,,,,,,,,,,,chosen stimuli: images/choice_trial_16.png,,,,,5c5844d8dd470300014ee3f1,16:52:18,27/03/2024
html-keyboard-response,81,177347,0.0-35.0-2.0,,,,delaylearn,learning,feedback_duration_window,PLXYpjF7dOQrX9uLH8yHRIB1x8g2,PLXYpjF7dOQrX9uLH8yHRIB1x8g2,,,,,,,,,,,,,,,,,,7000.0,,,,5c5844d8dd470300014ee3f1,16:52:18,27/03/2024
html-keyboard-response,82,178860,0.0-35.0-3.0,,<div style='margin:auto;width: auto; font-size: 150%'><span style='font-weight: bold; font-size: 100px; color: red;'>0 points!</span><br><br></div>,,delaylearn,learning,feedback_image_window,PLXYpjF7dOQrX9uLH8yHRIB1x8g2,PLXYpjF7dOQrX9uLH8yHRIB1x8g2,,,,,,,,,,,,,,,,,,,,,,5c5844d8dd470300014ee3f1,16:52:18,27/03/2024
html-keyboard-response,83,180401,0.0-36.0,,"<div style=""font-size:100px;"">+</div>",,delaylearn,learning,ITI,PLXYpjF7dOQrX9uLH8yHRIB1x8g2,PLXYpjF7dOQrX9uLH8yHRIB1x8g2,,,,,,,,,,,,,,,,,,,1527.0,,,5c5844d8dd470300014ee3f1,16:52:18,27/03/2024
html-keyboard-response,84,182074,0.0-37.0-0.0,1670.4000000953674,"<div style=""display: flex; flex-direction: column; align-items: center; margin-top: -40px;""><img src=""images/pattern_5.png"" style=""width: 234px; height: 230px; margin-top: -50px;""><div style=""display: flex; justify-content: space-between; margin-top: 33px;""><img src=""images/choice_trial_7.png"" style=""width: 408px; height: 417px; margin-right: 200px;""><img src=""images/choice_trial_13.png"" style=""width: 408px; height: 417px;""></div></div>",f,delaylearn,learning,trial,PLXYpjF7dOQrX9uLH8yHRIB1x8g2,PLXYpjF7dOQrX9uLH8yHRIB1x8g2,5.0,images/choice_trial_7.png,images/choice_trial_13.png,images/pattern_5.png,f,f,750.0,7.0,13.0,4.0,0.0,16.0,1.0,1.0,7.0,90.0,,,,,,5c5844d8dd470300014ee3f1,16:52:18,27/03/2024
html-keyboard-response,85,183084,0.0-37.0-1.0,,"<div style=""display: flex; flex-direction: column; align-items: center; margin-top: -40px;""><img src=""images/pattern_5.png"" style=""width: 234px; height: 230px; margin-top: -50px;""><div style=""display: flex; justify-content: space-between; margin-top: 33px;""><img src=""images/choice_trial_7.png"" style=""width: 408px; height: 417px; margin-right: 608px;""></div></div>",,delaylearn,learning,display_response,PLXYpjF7dOQrX9uLH8yHRIB1x8g2,PLXYpjF7dOQrX9uLH8yHRIB1x8g2,,,,,,,,,,,,,,,,,chosen stimuli: images/choice_trial_7.png,,,,,5c5844d8dd470300014ee3f1,16:52:18,27/03/2024
html-keyboard-response,86,183838,0.0-37.0-2.0,,,,delaylearn,learning,feedback_duration_window,PLXYpjF7dOQrX9uLH8yHRIB1x8g2,PLXYpjF7dOQrX9uLH8yHRIB1x8g2,,,,,,,,,,,,,,,,,,750.0,,,,5c5844d8dd470300014ee3f1,16:52:18,27/03/2024
html-keyboard-response,87,185346,0.0-37.0-3.0,,<div style='margin:auto;width: auto; font-size: 150%'><span style='font-weight: bold; font-size: 100px; color: green;'>+10 points!</span><br><br></div>,,delaylearn,learning,feedback_image_window,PLXYpjF7dOQrX9uLH8yHRIB1x8g2,PLXYpjF7dOQrX9uLH8yHRIB1x8g2,,,,,,,,,,,,,,,,,,,,,,5c5844d8dd470300014ee3f1,16:52:18,27/03/2024
html-keyboard-response,88,185854,0.0-38.0-0.0,,,,,,mood_trial_fixation,PLXYpjF7dOQrX9uLH8yHRIB1x8g2,,,,,,,,,,,,,,,,,,,,,,,5c5844d8dd470300014ee3f1,16:52:18,27/03/2024
lmdlab-html-vas-response,89,190682,0.0-38.0-1.0,3820.0,How happy are you right now?,0.33508528025499307,delaylearn,learning,mood_trial,PLXYpjF7dOQrX9uLH8yHRIB1x8g2,PLXYpjF7dOQrX9uLH8yHRIB1x8g2,,,,,,,,,,,,,,,,,,,,"['Very unhappy', 'Very happy']",,5c5844d8dd470300014ee3f1,16:52:18,27/03/2024
html-keyboard-response,90,193082,0.0-39.0,,"<div style=""font-size:100px;"">+</div>",,delaylearn,learning,ITI,PLXYpjF7dOQrX9uLH8yHRIB1x8g2,PLXYpjF7dOQrX9uLH8yHRIB1x8g2,,,,,,,,,,,,,,,,,,,2390.0,,,5c5844d8dd470300014ee3f1,16:52:18,27/03/2024
html-keyboard-response,91,194666,0.0-40.0-0.0,1582.1000001430511,"<div style=""display: flex; flex-direction: column; align-items: center; margin-top: -40px;""><img src=""images/pattern_6.png"" style=""width: 234px; height: 230px; margin-top: -50px;""><div style=""display: flex; justify-content: space-between; margin-top: 33px;""><img src=""images/choice_trial_14.png"" style=""width: 408px; height: 417px; margin-right: 200px;""><img src=""images/choice_trial_9.png"" style=""width: 408px; height: 417px;""></div></div>",f,delaylearn,learning,trial,PLXYpjF7dOQrX9uLH8yHRIB1x8g2,PLXYpjF7dOQrX9uLH8yHRIB1x8g2,5.0,images/choice_trial_14.png,images/choice_trial_9.png,images/pattern_6.png,f,f,750.0,14.0,9.0,5.0,0.0,17.0,1.0,1.0,14.0,100.0,,,,,,5c5844d8dd470300014ee3f1,16:52:18,27/03/2024
html-keyboard-response,92,195675,0.0-40.0-1.0,,"<div style=""display: flex; flex-direction: column; align-items: center; margin-top: -40px;""><img src=""images/pattern_6.png"" style=""width: 234px; height: 230px; margin-top: -50px;""><div style=""display: flex; justify-content: space-between; margin-top: 33px;""><img src=""images/choice_trial_14.png"" style=""width: 408px; height: 417px; margin-right: 608px;""></div></div>",,delaylearn,learning,display_response,PLXYpjF7dOQrX9uLH8yHRIB1x8g2,PLXYpjF7dOQrX9uLH8yHRIB1x8g2,,,,,,,,,,,,,,,,,chosen stimuli: images/choice_trial_14.png,,,,,5c5844d8dd470300014ee3f1,16:52:18,27/03/2024
html-keyboard-response,93,196431,0.0-40.0-2.0,,,,delaylearn,learning,feedback_duration_window,PLXYpjF7dOQrX9uLH8yHRIB1x8g2,PLXYpjF7dOQrX9uLH8yHRIB1x8g2,,,,,,,,,,,,,,,,,,750.0,,,,5c5844d8dd470300014ee3f1,16:52:18,27/03/2024
html-keyboard-response,94,197942,0.0-40.0-3.0,,<div style='margin:auto;width: auto; font-size: 150%'><span style='font-weight: bold; font-size: 100px; color: green;'>+10 points!</span><br><br></div>,,delaylearn,learning,feedback_image_window,PLXYpjF7dOQrX9uLH8yHRIB1x8g2,PLXYpjF7dOQrX9uLH8yHRIB1x8g2,,,,,,,,,,,,,,,,,,,,,,5c5844d8dd470300014ee3f1,16:52:18,27/03/2024
html-keyboard-response,95,199898,0.0-41.0,,"<div style=""font-size:100px;"">+</div>",,delaylearn,learning,ITI,PLXYpjF7dOQrX9uLH8yHRIB1x8g2,PLXYpjF7dOQrX9uLH8yHRIB1x8g2,,,,,,,,,,,,,,,,,,,1955.0,,,5c5844d8dd470300014ee3f1,16:52:18,27/03/2024
html-keyboard-response,96,201352,0.0-42.0-0.0,1451.2000000476837,"<div style=""display: flex; flex-direction: column; align-items: center; margin-top: -40px;""><img src=""images/pattern_4.png"" style=""width: 234px; height: 230px; margin-top: -50px;""><div style=""display: flex; justify-content: space-between; margin-top: 33px;""><img src=""images/choice_trial_4.png"" style=""width: 408px; height: 417px; margin-right: 200px;""><img src=""images/choice_trial_11.png"" style=""width: 408px; height: 417px;""></div></div>",j,delaylearn,learning,trial,PLXYpjF7dOQrX9uLH8yHRIB1x8g2,PLXYpjF7dOQrX9uLH8yHRIB1x8g2,5.0,images/choice_trial_4.png,images/choice_trial_11.png,images/pattern_4.png,j,j,7000.0,4.0,11.0,3.0,1.0,18.0,1.0,1.0,11.0,110.0,,,,,,5c5844d8dd470300014ee3f1,16:52:18,27/03/2024
html-keyboard-response,97,202369,0.0-42.0-1.0,,"<div style=""display: flex; flex-direction: column; align-items: center; margin-top: -40px;""><img src=""images/pattern_4.png"" style=""width: 234px; height: 230px; margin-top: -50px;""><div style=""display: flex; justify-content: space-between; margin-top: 33px;""><img src=""images/choice_trial_11.png"" style=""width: 408px; height: 417px; margin-left:608px;""></div></div>",,delaylearn,learning,display_response,PLXYpjF7dOQrX9uLH8yHRIB1x8g2,PLXYpjF7dOQrX9uLH8yHRIB1x8g2,,,,,,,,,,,,,,,,,chosen stimuli: images/choice_trial_11.png,,,,,5c5844d8dd470300014ee3f1,16:52:18,27/03/2024
html-keyboard-response,98,209378,0.0-42.0-2.0,,,,delaylearn,learning,feedback_duration_window,PLXYpjF7dOQrX9uLH8yHRIB1x8g2,PLXYpjF7dOQrX9uLH8yHRIB1x8g2,,,,,,,,,,,,,,,,,,7000.0,,,,5c5844d8dd470300014ee3f1,16:52:18,27/03/2024
html-keyboard-response,99,210890,0.0-42.0-3.0,,<div style='margin:auto;width: auto; font-size: 150%'><span style='font-weight: bold; font-size: 100px; color: green;'>+10 points!</span><br><br></div>,,delaylearn,learning,feedback_image_window,PLXYpjF7dOQrX9uLH8yHRIB1x8g2,PLXYpjF7dOQrX9uLH8yHRIB1x8g2,,,,,,,,,,,,,,,,,,,,,,5c5844d8dd470300014ee3f1,16:52:18,27/03/2024
html-keyboard-response,100,213082,0.0-43.0,,"<div style=""font-size:100px;"">+</div>",,delaylearn,learning,ITI,PLXYpjF7dOQrX9uLH8yHRIB1x8g2,PLXYpjF7dOQrX9uLH8yHRIB1x8g2,,,,,,,,,,,,,,,,,,,2181.0,,,5c5844d8dd470300014ee3f1,16:52:18,27/03/2024
html-keyboard-response,101,214647,0.0-44.0-0.0,1563.0999999046326,"<div style=""display: flex; flex-direction: column; align-items: center; margin-top: -40px;""><img src=""images/pattern_7.png"" style=""width: 234px; height: 230px; margin-top: -50px;""><div style=""display: flex; justify-content: space-between; margin-top: 33px;""><img src=""images/choice_trial_8.png"" style=""width: 408px; height: 417px; margin-right: 200px;""><img src=""images/choice_trial_10.png"" style=""width: 408px; height: 417px;""></div></div>",f,delaylearn,learning,trial,PLXYpjF7dOQrX9uLH8yHRIB1x8g2,PLXYpjF7dOQrX9uLH8yHRIB1x8g2,5.0,images/choice_trial_8.png,images/choice_trial_10.png,images/pattern_7.png,j,f,750.0,8.0,10.0,6.0,0.0,19.0,1.0,0.0,8.0,110.0,,,,,,5c5844d8dd470300014ee3f1,16:52:18,27/03/2024
html-keyboard-response,102,215655,0.0-44.0-1.0,,"<div style=""display: flex; flex-direction: column; align-items: center; margin-top: -40px;""><img src=""images/pattern_7.png"" style=""width: 234px; height: 230px; margin-top: -50px;""><div style=""display: flex; justify-content: space-between; margin-top: 33px;""><img src=""images/choice_trial_8.png"" style=""width: 408px; height: 417px; margin-right: 608px;""></div></div>",,delaylearn,learning,display_response,PLXYpjF7dOQrX9uLH8yHRIB1x8g2,PLXYpjF7dOQrX9uLH8yHRIB1x8g2,,,,,,,,,,,,,,,,,chosen stimuli: images/choice_trial_8.png,,,,,5c5844d8dd470300014ee3f1,16:52:18,27/03/2024
html-keyboard-response,103,216411,0.0-44.0-2.0,,,,delaylearn,learning,feedback_duration_window,PLXYpjF7dOQrX9uLH8yHRIB1x8g2,PLXYpjF7dOQrX9uLH8yHRIB1x8g2,,,,,,,,,,,,,,,,,,750.0,,,,5c5844d8dd470300014ee3f1,16:52:18,27/03/2024
html-keyboard-response,104,217924,0.0-44.0-3.0,,<div style='margin:auto;width: auto; font-size: 150%'><span style='font-weight: bold; font-size: 100px; color: red;'>0 points!</span><br><br></div>,,delaylearn,learning,feedback_image_window,PLXYpjF7dOQrX9uLH8yHRIB1x8g2,PLXYpjF7dOQrX9uLH8yHRIB1x8g2,,,,,,,,,,,,,,,,,,,,,,5c5844d8dd470300014ee3f1,16:52:18,27/03/2024
html-keyboard-response,105,219509,0.0-45.0,,"<div style=""font-size:100px;"">+</div>",,delaylearn,learning,ITI,PLXYpjF7dOQrX9uLH8yHRIB1x8g2,PLXYpjF7dOQrX9uLH8yHRIB1x8g2,,,,,,,,,,,,,,,,,,,1570.0,,,5c5844d8dd470300014ee3f1,16:52:18,27/03/2024
html-keyboard-response,106,220809,0.0-46.0-0.0,1297.7999999523163,"<div style=""display: flex; flex-direction: column; align-items: center; margin-top: -40px;""><img src=""images/pattern_1.png"" style=""width: 234px; height: 230px; margin-top: -50px;""><div style=""display: flex; justify-content: space-between; margin-top: 33px;""><img src=""images/choice_trial_6.png"" style=""width: 408px; height: 417px; margin-right: 200px;""><img src=""images/choice_trial_15.png"" style=""width: 408px; height: 417px;""></div></div>",f,delaylearn,learning,trial,PLXYpjF7dOQrX9uLH8yHRIB1x8g2,PLXYpjF7dOQrX9uLH8yHRIB1x8g2,5.0,images/choice_trial_6.png,images/choice_trial_15.png,images/pattern_1.png,f,f,7000.0,6.0,15.0,1.0,0.0,20.0,1.0,1.0,6.0,120.0,,,,,,5c5844d8dd470300014ee3f1,16:52:18,27/03/2024
html-keyboard-response,107,221820,0.0-46.0-1.0,,"<div style=""display: flex; flex-direction: column; align-items: center; margin-top: -40px;""><img src=""images/pattern_1.png"" style=""width: 234px; height: 230px; margin-top: -50px;""><div style=""display: flex; justify-content: space-between; margin-top: 33px;""><img src=""images/choice_trial_6.png"" style=""width: 408px; height: 417px; margin-right: 608px;""></div></div>",,delaylearn,learning,display_response,PLXYpjF7dOQrX9uLH8yHRIB1x8g2,PLXYpjF7dOQrX9uLH8yHRIB1x8g2,,,,,,,,,,,,,,,,,chosen stimuli: images/choice_trial_6.png,,,,,5c5844d8dd470300014ee3f1,16:52:18,27/03/2024
html-keyboard-response,108,228835,0.0-46.0-2.0,,,,delaylearn,learning,feedback_duration_window,PLXYpjF7dOQrX9uLH8yHRIB1x8g2,PLXYpjF7dOQrX9uLH8yHRIB1x8g2,,,,,,,,,,,,,,,,,,7000.0,,,,5c5844d8dd470300014ee3f1,16:52:18,27/03/2024
html-keyboard-response,109,230347,0.0-46.0-3.0,,<div style='margin:auto;width: auto; font-size: 150%'><span style='font-weight: bold; font-size: 100px; color: green;'>+10 points!</span><br><br></div>,,delaylearn,learning,feedback_image_window,PLXYpjF7dOQrX9uLH8yHRIB1x8g2,PLXYpjF7dOQrX9uLH8yHRIB1x8g2,,,,,,,,,,,,,,,,,,,,,,5c5844d8dd470300014ee3f1,16:52:18,27/03/2024
html-keyboard-response,110,232674,0.0-47.0,,"<div style=""font-size:100px;"">+</div>",,delaylearn,learning,ITI,PLXYpjF7dOQrX9uLH8yHRIB1x8g2,PLXYpjF7dOQrX9uLH8yHRIB1x8g2,,,,,,,,,,,,,,,,,,,2323.0,,,5c5844d8dd470300014ee3f1,16:52:18,27/03/2024
html-keyboard-response,111,233806,0.0-48.0-0.0,1130.5,"<div style=""display: flex; flex-direction: column; align-items: center; margin-top: -40px;""><img src=""images/pattern_6.png"" style=""width: 234px; height: 230px; margin-top: -50px;""><div style=""display: flex; justify-content: space-between; margin-top: 33px;""><img src=""images/choice_trial_9.png"" style=""width: 408px; height: 417px; margin-right: 200px;""><img src=""images/choice_trial_14.png"" style=""width: 408px; height: 417px;""></div></div>",j,delaylearn,learning,trial,PLXYpjF7dOQrX9uLH8yHRIB1x8g2,PLXYpjF7dOQrX9uLH8yHRIB1x8g2,5.0,images/choice_trial_9.png,images/choice_trial_14.png,images/pattern_6.png,j,j,750.0,9.0,14.0,5.0,1.0,21.0,1.0,1.0,14.0,130.0,,,,,,5c5844d8dd470300014ee3f1,16:52:18,27/03/2024
html-keyboard-response,112,234815,0.0-48.0-1.0,,"<div style=""display: flex; flex-direction: column; align-items: center; margin-top: -40px;""><img src=""images/pattern_6.png"" style=""width: 234px; height: 230px; margin-top: -50px;""><div style=""display: flex; justify-content: space-between; margin-top: 33px;""><img src=""images/choice_trial_14.png"" style=""width: 408px; height: 417px; margin-left:608px;""></div></div>",,delaylearn,learning,display_response,PLXYpjF7dOQrX9uLH8yHRIB1x8g2,PLXYpjF7dOQrX9uLH8yHRIB1x8g2,,,,,,,,,,,,,,,,,chosen stimuli: images/choice_trial_14.png,,,,,5c5844d8dd470300014ee3f1,16:52:18,27/03/2024
html-keyboard-response,113,235569,0.0-48.0-2.0,,,,delaylearn,learning,feedback_duration_window,PLXYpjF7dOQrX9uLH8yHRIB1x8g2,PLXYpjF7dOQrX9uLH8yHRIB1x8g2,,,,,,,,,,,,,,,,,,750.0,,,,5c5844d8dd470300014ee3f1,16:52:18,27/03/2024
html-keyboard-response,114,237084,0.0-48.0-3.0,,<div style='margin:auto;width: auto; font-size: 150%'><span style='font-weight: bold; font-size: 100px; color: green;'>+10 points!</span><br><br></div>,,delaylearn,learning,feedback_image_window,PLXYpjF7dOQrX9uLH8yHRIB1x8g2,PLXYpjF7dOQrX9uLH8yHRIB1x8g2,,,,,,,,,,,,,,,,,,,,,,5c5844d8dd470300014ee3f1,16:52:18,27/03/2024
html-keyboard-response,115,239015,0.0-49.0,,"<div style=""font-size:100px;"">+</div>",,delaylearn,learning,ITI,PLXYpjF7dOQrX9uLH8yHRIB1x8g2,PLXYpjF7dOQrX9uLH8yHRIB1x8g2,,,,,,,,,,,,,,,,,,,1924.0,,,5c5844d8dd470300014ee3f1,16:52:18,27/03/2024
html-keyboard-response,116,239949,0.0-50.0-0.0,931.2999999523163,"<div style=""display: flex; flex-direction: column; align-items: center; margin-top: -40px;""><img src=""images/pattern_4.png"" style=""width: 234px; height: 230px; margin-top: -50px;""><div style=""display: flex; justify-content: space-between; margin-top: 33px;""><img src=""images/choice_trial_11.png"" style=""width: 408px; height: 417px; margin-right: 200px;""><img src=""images/choice_trial_4.png"" style=""width: 408px; height: 417px;""></div></div>",f,delaylearn,learning,trial,PLXYpjF7dOQrX9uLH8yHRIB1x8g2,PLXYpjF7dOQrX9uLH8yHRIB1x8g2,5.0,images/choice_trial_11.png,images/choice_trial_4.png,images/pattern_4.png,f,f,7000.0,11.0,4.0,3.0,0.0,22.0,1.0,1.0,11.0,140.0,,,,,,5c5844d8dd470300014ee3f1,16:52:18,27/03/2024
html-keyboard-response,117,240957,0.0-50.0-1.0,,"<div style=""display: flex; flex-direction: column; align-items: center; margin-top: -40px;""><img src=""images/pattern_4.png"" style=""width: 234px; height: 230px; margin-top: -50px;""><div style=""display: flex; justify-content: space-between; margin-top: 33px;""><img src=""images/choice_trial_11.png"" style=""width: 408px; height: 417px; margin-right: 608px;""></div></div>",,delaylearn,learning,display_response,PLXYpjF7dOQrX9uLH8yHRIB1x8g2,PLXYpjF7dOQrX9uLH8yHRIB1x8g2,,,,,,,,,,,,,,,,,chosen stimuli: images/choice_trial_11.png,,,,,5c5844d8dd470300014ee3f1,16:52:18,27/03/2024
html-keyboard-response,118,247960,0.0-50.0-2.0,,,,delaylearn,learning,feedback_duration_window,PLXYpjF7dOQrX9uLH8yHRIB1x8g2,PLXYpjF7dOQrX9uLH8yHRIB1x8g2,,,,,,,,,,,,,,,,,,7000.0,,,,5c5844d8dd470300014ee3f1,16:52:18,27/03/2024
html-keyboard-response,119,249474,0.0-50.0-3.0,,<div style='margin:auto;width: auto; font-size: 150%'><span style='font-weight: bold; font-size: 100px; color: green;'>+10 points!</span><br><br></div>,,delaylearn,learning,feedback_image_window,PLXYpjF7dOQrX9uLH8yHRIB1x8g2,PLXYpjF7dOQrX9uLH8yHRIB1x8g2,,,,,,,,,,,,,,,,,,,,,,5c5844d8dd470300014ee3f1,16:52:18,27/03/2024
html-keyboard-response,120,249983,0.0-51.0-0.0,,,,,,mood_trial_fixation,PLXYpjF7dOQrX9uLH8yHRIB1x8g2,,,,,,,,,,,,,,,,,,,,,,,5c5844d8dd470300014ee3f1,16:52:18,27/03/2024
lmdlab-html-vas-response,121,255866,0.0-51.0-1.0,4874.0,How happy are you right now?,0.580312637753891,delaylearn,learning,mood_trial,PLXYpjF7dOQrX9uLH8yHRIB1x8g2,PLXYpjF7dOQrX9uLH8yHRIB1x8g2,,,,,,,,,,,,,,,,,,,,"['Very unhappy', 'Very happy']",,5c5844d8dd470300014ee3f1,16:52:18,27/03/2024
html-keyboard-response,122,258099,0.0-52.0,,"<div style=""font-size:100px;"">+</div>",,delaylearn,learning,ITI,PLXYpjF7dOQrX9uLH8yHRIB1x8g2,PLXYpjF7dOQrX9uLH8yHRIB1x8g2,,,,,,,,,,,,,,,,,,,2230.0,,,5c5844d8dd470300014ee3f1,16:52:18,27/03/2024
html-keyboard-response,123,259192,0.0-53.0-0.0,1090.5999999046326,"<div style=""display: flex; flex-direction: column; align-items: center; margin-top: -40px;""><img src=""images/pattern_7.png"" style=""width: 234px; height: 230px; margin-top: -50px;""><div style=""display: flex; justify-content: space-between; margin-top: 33px;""><img src=""images/choice_trial_10.png"" style=""width: 408px; height: 417px; margin-right: 200px;""><img src=""images/choice_trial_8.png"" style=""width: 408px; height: 417px;""></div></div>",j,delaylearn,learning,trial,PLXYpjF7dOQrX9uLH8yHRIB1x8g2,PLXYpjF7dOQrX9uLH8yHRIB1x8g2,5.0,images/choice_trial_10.png,images/choice_trial_8.png,images/pattern_7.png,j,j,750.0,10.0,8.0,6.0,1.0,23.0,1.0,1.0,8.0,150.0,,,,,,5c5844d8dd470300014ee3f1,16:52:18,27/03/2024
html-keyboard-response,124,260196,0.0-53.0-1.0,,"<div style=""display: flex; flex-direction: column; align-items: center; margin-top: -40px;""><img src=""images/pattern_7.png"" style=""width: 234px; height: 230px; margin-top: -50px;""><div style=""display: flex; justify-content: space-between; margin-top: 33px;""><img src=""images/choice_trial_8.png"" style=""width: 408px; height: 417px; margin-left:608px;""></div></div>",,delaylearn,learning,display_response,PLXYpjF7dOQrX9uLH8yHRIB1x8g2,PLXYpjF7dOQrX9uLH8yHRIB1x8g2,,,,,,,,,,,,,,,,,chosen stimuli: images/choice_trial_8.png,,,,,5c5844d8dd470300014ee3f1,16:52:18,27/03/2024
html-keyboard-response,125,260952,0.0-53.0-2.0,,,,delaylearn,learning,feedback_duration_window,PLXYpjF7dOQrX9uLH8yHRIB1x8g2,PLXYpjF7dOQrX9uLH8yHRIB1x8g2,,,,,,,,,,,,,,,,,,750.0,,,,5c5844d8dd470300014ee3f1,16:52:18,27/03/2024
html-keyboard-response,126,262465,0.0-53.0-3.0,,<div style='margin:auto;width: auto; font-size: 150%'><span style='font-weight: bold; font-size: 100px; color: green;'>+10 points!</span><br><br></div>,,delaylearn,learning,feedback_image_window,PLXYpjF7dOQrX9uLH8yHRIB1x8g2,PLXYpjF7dOQrX9uLH8yHRIB1x8g2,,,,,,,,,,,,,,,,,,,,,,5c5844d8dd470300014ee3f1,16:52:18,27/03/2024
html-keyboard-response,127,264098,0.0-54.0,,"<div style=""font-size:100px;"">+</div>",,delaylearn,learning,ITI,PLXYpjF7dOQrX9uLH8yHRIB1x8g2,PLXYpjF7dOQrX9uLH8yHRIB1x8g2,,,,,,,,,,,,,,,,,,,1624.0,,,5c5844d8dd470300014ee3f1,16:52:18,27/03/2024
html-keyboard-response,128,265396,0.0-55.0-0.0,1295.2000000476837,"<div style=""display: flex; flex-direction: column; align-items: center; margin-top: -40px;""><img src=""images/pattern_1.png"" style=""width: 234px; height: 230px; margin-top: -50px;""><div style=""display: flex; justify-content: space-between; margin-top: 33px;""><img src=""images/choice_trial_15.png"" style=""width: 408px; height: 417px; margin-right: 200px;""><img src=""images/choice_trial_6.png"" style=""width: 408px; height: 417px;""></div></div>",j,delaylearn,learning,trial,PLXYpjF7dOQrX9uLH8yHRIB1x8g2,PLXYpjF7dOQrX9uLH8yHRIB1x8g2,5.0,images/choice_trial_15.png,images/choice_trial_6.png,images/pattern_1.png,f,j,7000.0,15.0,6.0,1.0,1.0,24.0,1.0,0.0,6.0,150.0,,,,,,5c5844d8dd470300014ee3f1,16:52:18,27/03/2024
html-keyboard-response,129,266398,0.0-55.0-1.0,,"<div style=""display: flex; flex-direction: column; align-items: center; margin-top: -40px;""><img src=""images/pattern_1.png"" style=""width: 234px; height: 230px; margin-top: -50px;""><div style=""display: flex; justify-content: space-between; margin-top: 33px;""><img src=""images/choice_trial_6.png"" style=""width: 408px; height: 417px; margin-left:608px;""></div></div>",,delaylearn,learning,display_response,PLXYpjF7dOQrX9uLH8yHRIB1x8g2,PLXYpjF7dOQrX9uLH8yHRIB1x8g2,,,,,,,,,,,,,,,,,chosen stimuli: images/choice_trial_6.png,,,,,5c5844d8dd470300014ee3f1,16:52:18,27/03/2024
html-keyboard-response,130,273412,0.0-55.0-2.0,,,,delaylearn,learning,feedback_duration_window,PLXYpjF7dOQrX9uLH8yHRIB1x8g2,PLXYpjF7dOQrX9uLH8yHRIB1x8g2,,,,,,,,,,,,,,,,,,7000.0,,,,5c5844d8dd470300014ee3f1,16:52:18,27/03/2024
html-keyboard-response,131,274922,0.0-55.0-3.0,,<div style='margin:auto;width: auto; font-size: 150%'><span style='font-weight: bold; font-size: 100px; color: red;'>0 points!</span><br><br></div>,,delaylearn,learning,feedback_image_window,PLXYpjF7dOQrX9uLH8yHRIB1x8g2,PLXYpjF7dOQrX9uLH8yHRIB1x8g2,,,,,,,,,,,,,,,,,,,,,,5c5844d8dd470300014ee3f1,16:52:18,27/03/2024
html-keyboard-response,132,276600,0.0-56.0,,"<div style=""font-size:100px;"">+</div>",,delaylearn,learning,ITI,PLXYpjF7dOQrX9uLH8yHRIB1x8g2,PLXYpjF7dOQrX9uLH8yHRIB1x8g2,,,,,,,,,,,,,,,,,,,1676.0,,,5c5844d8dd470300014ee3f1,16:52:18,27/03/2024
html-keyboard-response,133,278555,0.0-57.0-0.0,1952.7999999523163,"<div style=""display: flex; flex-direction: column; align-items: center; margin-top: -40px;""><img src=""images/pattern_5.png"" style=""width: 234px; height: 230px; margin-top: -50px;""><div style=""display: flex; justify-content: space-between; margin-top: 33px;""><img src=""images/choice_trial_13.png"" style=""width: 408px; height: 417px; margin-right: 200px;""><img src=""images/choice_trial_7.png"" style=""width: 408px; height: 417px;""></div></div>",j,delaylearn,learning,trial,PLXYpjF7dOQrX9uLH8yHRIB1x8g2,PLXYpjF7dOQrX9uLH8yHRIB1x8g2,5.0,images/choice_trial_13.png,images/choice_trial_7.png,images/pattern_5.png,j,j,750.0,13.0,7.0,4.0,1.0,25.0,1.0,1.0,7.0,160.0,,,,,,5c5844d8dd470300014ee3f1,16:52:18,27/03/2024
html-keyboard-response,134,279561,0.0-57.0-1.0,,"<div style=""display: flex; flex-direction: column; align-items: center; margin-top: -40px;""><img src=""images/pattern_5.png"" style=""width: 234px; height: 230px; margin-top: -50px;""><div style=""display: flex; justify-content: space-between; margin-top: 33px;""><img src=""images/choice_trial_7.png"" style=""width: 408px; height: 417px; margin-left:608px;""></div></div>",,delaylearn,learning,display_response,PLXYpjF7dOQrX9uLH8yHRIB1x8g2,PLXYpjF7dOQrX9uLH8yHRIB1x8g2,,,,,,,,,,,,,,,,,chosen stimuli: images/choice_trial_7.png,,,,,5c5844d8dd470300014ee3f1,16:52:18,27/03/2024
html-keyboard-response,135,280316,0.0-57.0-2.0,,,,delaylearn,learning,feedback_duration_window,PLXYpjF7dOQrX9uLH8yHRIB1x8g2,PLXYpjF7dOQrX9uLH8yHRIB1x8g2,,,,,,,,,,,,,,,,,,750.0,,,,5c5844d8dd470300014ee3f1,16:52:18,27/03/2024
html-keyboard-response,136,281827,0.0-57.0-3.0,,<div style='margin:auto;width: auto; font-size: 150%'><span style='font-weight: bold; font-size: 100px; color: green;'>+10 points!</span><br><br></div>,,delaylearn,learning,feedback_image_window,PLXYpjF7dOQrX9uLH8yHRIB1x8g2,PLXYpjF7dOQrX9uLH8yHRIB1x8g2,,,,,,,,,,,,,,,,,,,,,,5c5844d8dd470300014ee3f1,16:52:18,27/03/2024
html-keyboard-response,137,283712,0.0-58.0,,"<div style=""font-size:100px;"">+</div>",,delaylearn,learning,ITI,PLXYpjF7dOQrX9uLH8yHRIB1x8g2,PLXYpjF7dOQrX9uLH8yHRIB1x8g2,,,,,,,,,,,,,,,,,,,1881.0,,,5c5844d8dd470300014ee3f1,16:52:18,27/03/2024
html-keyboard-response,138,284975,0.0-59.0-0.0,1261.0,"<div style=""display: flex; flex-direction: column; align-items: center; margin-top: -40px;""><img src=""images/pattern_3.png"" style=""width: 234px; height: 230px; margin-top: -50px;""><div style=""display: flex; justify-content: space-between; margin-top: 33px;""><img src=""images/choice_trial_2.png"" style=""width: 408px; height: 417px; margin-right: 200px;""><img src=""images/choice_trial_16.png"" style=""width: 408px; height: 417px;""></div></div>",j,delaylearn,learning,trial,PLXYpjF7dOQrX9uLH8yHRIB1x8g2,PLXYpjF7dOQrX9uLH8yHRIB1x8g2,5.0,images/choice_trial_2.png,images/choice_trial_16.png,images/pattern_3.png,j,j,7000.0,2.0,16.0,2.0,1.0,26.0,1.0,1.0,16.0,170.0,,,,,,5c5844d8dd470300014ee3f1,16:52:18,27/03/2024
html-keyboard-response,139,285979,0.0-59.0-1.0,,"<div style=""display: flex; flex-direction: column; align-items: center; margin-top: -40px;""><img src=""images/pattern_3.png"" style=""width: 234px; height: 230px; margin-top: -50px;""><div style=""display: flex; justify-content: space-between; margin-top: 33px;""><img src=""images/choice_trial_16.png"" style=""width: 408px; height: 417px; margin-left:608px;""></div></div>",,delaylearn,learning,display_response,PLXYpjF7dOQrX9uLH8yHRIB1x8g2,PLXYpjF7dOQrX9uLH8yHRIB1x8g2,,,,,,,,,,,,,,,,,chosen stimuli: images/choice_trial_16.png,,,,,5c5844d8dd470300014ee3f1,16:52:18,27/03/2024
html-keyboard-response,140,292986,0.0-59.0-2.0,,,,delaylearn,learning,feedback_duration_window,PLXYpjF7dOQrX9uLH8yHRIB1x8g2,PLXYpjF7dOQrX9uLH8yHRIB1x8g2,,,,,,,,,,,,,,,,,,7000.0,,,,5c5844d8dd470300014ee3f1,16:52:18,27/03/2024
html-keyboard-response,141,294498,0.0-59.0-3.0,,<div style='margin:auto;width: auto; font-size: 150%'><span style='font-weight: bold; font-size: 100px; color: green;'>+10 points!</span><br><br></div>,,delaylearn,learning,feedback_image_window,PLXYpjF7dOQrX9uLH8yHRIB1x8g2,PLXYpjF7dOQrX9uLH8yHRIB1x8g2,,,,,,,,,,,,,,,,,,,,,,5c5844d8dd470300014ee3f1,16:52:18,27/03/2024
lmdlab-html-vas-response,142,302075,0.0-60.0-0.0,6061.0,*How <b><u>confident</u></b> are you feeling about your answers at this moment?*,0.3394255874673629,rewlearn,rate_confidence,,PLXYpjF7dOQrX9uLH8yHRIB1x8g2,PLXYpjF7dOQrX9uLH8yHRIB1x8g2,,,,,,,,,,,,,,,,,,,,"['No confidence', 'Complete confidence']",,5c5844d8dd470300014ee3f1,16:52:18,27/03/2024
lmdlab-rest-trial-limit,143,311095,0.0-60.0-1.0,7510.200000047684,"<div style=""font-size:40px;""><b>Please take a break!</b><br><br><br><br><p>Great work: you earned 170 points.<br><br><br><p>You have completed part(s) 1 of 5.<br><br><br><br>When you are ready to continue<br><br><br>please click the button.</p><br><br>",0,delaylearn,learning,break,PLXYpjF7dOQrX9uLH8yHRIB1x8g2,PLXYpjF7dOQrX9uLH8yHRIB1x8g2,,,,,,,,,,,,,,,,,,,,,0.0,5c5844d8dd470300014ee3f1,16:52:18,27/03/2024
html-keyboard-response,144,314100,0.0-60.0-2.0,,"<div style=""font-size:100px;"">+</div>",,delaylearn,learning,pre_fixation,PLXYpjF7dOQrX9uLH8yHRIB1x8g2,,,,,,,,,,,,,,,,,,,,,,,5c5844d8dd470300014ee3f1,16:52:18,27/03/2024
lmdlab-html-vas-response,145,319393,0.0-60.0-3.0-0.0,4273.0,How happy are you right now?,0.5173781831745278,delaylearn,learning,mood_baseline,PLXYpjF7dOQrX9uLH8yHRIB1x8g2,PLXYpjF7dOQrX9uLH8yHRIB1x8g2,,,,,,,,,,,,,,,,,,,,"['Very unhappy', 'Very happy']",,5c5844d8dd470300014ee3f1,16:52:18,27/03/2024
html-keyboard-response,146,320906,0.0-60.0-3.0-1.0,,,,,,mood_baseline_fixation,PLXYpjF7dOQrX9uLH8yHRIB1x8g2,,,,,,,,,,,,,,,,,,,,,,,5c5844d8dd470300014ee3f1,16:52:18,27/03/2024
html-keyboard-response,147,323233,0.0-61.0,,"<div style=""font-size:100px;"">+</div>",,delaylearn,learning,ITI,PLXYpjF7dOQrX9uLH8yHRIB1x8g2,PLXYpjF7dOQrX9uLH8yHRIB1x8g2,,,,,,,,,,,,,,,,,,,2324.0,,,5c5844d8dd470300014ee3f1,16:52:18,27/03/2024
html-keyboard-response,148,324191,0.0-62.0-0.0,955.8999998569489,"<div style=""display: flex; flex-direction: column; align-items: center; margin-top: -40px;""><img src=""images/pattern_7.png"" style=""width: 234px; height: 230px; margin-top: -50px;""><div style=""display: flex; justify-content: space-between; margin-top: 33px;""><img src=""images/choice_trial_10.png"" style=""width: 408px; height: 417px; margin-right: 200px;""><img src=""images/choice_trial_8.png"" style=""width: 408px; height: 417px;""></div></div>",j,delaylearn,learning,trial,PLXYpjF7dOQrX9uLH8yHRIB1x8g2,PLXYpjF7dOQrX9uLH8yHRIB1x8g2,5.0,images/choice_trial_10.png,images/choice_trial_8.png,images/pattern_7.png,j,j,750.0,10.0,8.0,6.0,1.0,27.0,1.0,1.0,8.0,180.0,,,,,,5c5844d8dd470300014ee3f1,16:52:18,27/03/2024
html-keyboard-response,149,325195,0.0-62.0-1.0,,"<div style=""display: flex; flex-direction: column; align-items: center; margin-top: -40px;""><img src=""images/pattern_7.png"" style=""width: 234px; height: 230px; margin-top: -50px;""><div style=""display: flex; justify-content: space-between; margin-top: 33px;""><img src=""images/choice_trial_8.png"" style=""width: 408px; height: 417px; margin-left:608px;""></div></div>",,delaylearn,learning,display_response,PLXYpjF7dOQrX9uLH8yHRIB1x8g2,PLXYpjF7dOQrX9uLH8yHRIB1x8g2,,,,,,,,,,,,,,,,,chosen stimuli: images/choice_trial_8.png,,,,,5c5844d8dd470300014ee3f1,16:52:18,27/03/2024
html-keyboard-response,150,325950,0.0-62.0-2.0,,,,delaylearn,learning,feedback_duration_window,PLXYpjF7dOQrX9uLH8yHRIB1x8g2,PLXYpjF7dOQrX9uLH8yHRIB1x8g2,,,,,,,,,,,,,,,,,,750.0,,,,5c5844d8dd470300014ee3f1,16:52:18,27/03/2024
html-keyboard-response,151,327467,0.0-62.0-3.0,,<div style='margin:auto;width: auto; font-size: 150%'><span style='font-weight: bold; font-size: 100px; color: green;'>+10 points!</span><br><br></div>,,delaylearn,learning,feedback_image_window,PLXYpjF7dOQrX9uLH8yHRIB1x8g2,PLXYpjF7dOQrX9uLH8yHRIB1x8g2,,,,,,,,,,,,,,,,,,,,,,5c5844d8dd470300014ee3f1,16:52:18,27/03/2024
html-keyboard-response,152,327979,0.0-63.0-0.0,,,,,,mood_trial_fixation,PLXYpjF7dOQrX9uLH8yHRIB1x8g2,,,,,,,,,,,,,,,,,,,,,,,5c5844d8dd470300014ee3f1,16:52:18,27/03/2024
lmdlab-html-vas-response,153,332398,0.0-63.0-1.0,3410.0,How happy are you right now?,0.6106947882404802,delaylearn,learning,mood_trial,PLXYpjF7dOQrX9uLH8yHRIB1x8g2,PLXYpjF7dOQrX9uLH8yHRIB1x8g2,,,,,,,,,,,,,,,,,,,,"['Very unhappy', 'Very happy']",,5c5844d8dd470300014ee3f1,16:52:18,27/03/2024
html-keyboard-response,154,333994,0.0-64.0,,"<div style=""font-size:100px;"">+</div>",,delaylearn,learning,ITI,PLXYpjF7dOQrX9uLH8yHRIB1x8g2,PLXYpjF7dOQrX9uLH8yHRIB1x8g2,,,,,,,,,,,,,,,,,,,1588.0,,,5c5844d8dd470300014ee3f1,16:52:18,27/03/2024
html-keyboard-response,155,335207,0.0-65.0-0.0,1211.5,"<div style=""display: flex; flex-direction: column; align-items: center; margin-top: -40px;""><img src=""images/pattern_1.png"" style=""width: 234px; height: 230px; margin-top: -50px;""><div style=""display: flex; justify-content: space-between; margin-top: 33px;""><img src=""images/choice_trial_6.png"" style=""width: 408px; height: 417px; margin-right: 200px;""><img src=""images/choice_trial_15.png"" style=""width: 408px; height: 417px;""></div></div>",f,delaylearn,learning,trial,PLXYpjF7dOQrX9uLH8yHRIB1x8g2,PLXYpjF7dOQrX9uLH8yHRIB1x8g2,5.0,images/choice_trial_6.png,images/choice_trial_15.png,images/pattern_1.png,f,f,7000.0,6.0,15.0,1.0,0.0,28.0,1.0,1.0,6.0,190.0,,,,,,5c5844d8dd470300014ee3f1,16:52:18,27/03/2024
html-keyboard-response,156,336214,0.0-65.0-1.0,,"<div style=""display: flex; flex-direction: column; align-items: center; margin-top: -40px;""><img src=""images/pattern_1.png"" style=""width: 234px; height: 230px; margin-top: -50px;""><div style=""display: flex; justify-content: space-between; margin-top: 33px;""><img src=""images/choice_trial_6.png"" style=""width: 408px; height: 417px; margin-right: 608px;""></div></div>",,delaylearn,learning,display_response,PLXYpjF7dOQrX9uLH8yHRIB1x8g2,PLXYpjF7dOQrX9uLH8yHRIB1x8g2,,,,,,,,,,,,,,,,,chosen stimuli: images/choice_trial_6.png,,,,,5c5844d8dd470300014ee3f1,16:52:18,27/03/2024
html-keyboard-response,157,343217,0.0-65.0-2.0,,,,delaylearn,learning,feedback_duration_window,PLXYpjF7dOQrX9uLH8yHRIB1x8g2,PLXYpjF7dOQrX9uLH8yHRIB1x8g2,,,,,,,,,,,,,,,,,,7000.0,,,,5c5844d8dd470300014ee3f1,16:52:18,27/03/2024
html-keyboard-response,158,344726,0.0-65.0-3.0,,<div style='margin:auto;width: auto; font-size: 150%'><span style='font-weight: bold; font-size: 100px; color: green;'>+10 points!</span><br><br></div>,,delaylearn,learning,feedback_image_window,PLXYpjF7dOQrX9uLH8yHRIB1x8g2,PLXYpjF7dOQrX9uLH8yHRIB1x8g2,,,,,,,,,,,,,,,,,,,,,,5c5844d8dd470300014ee3f1,16:52:18,27/03/2024
html-keyboard-response,159,346286,0.0-66.0,,"<div style=""font-size:100px;"">+</div>",,delaylearn,learning,ITI,PLXYpjF7dOQrX9uLH8yHRIB1x8g2,PLXYpjF7dOQrX9uLH8yHRIB1x8g2,,,,,,,,,,,,,,,,,,,1557.0,,,5c5844d8dd470300014ee3f1,16:52:18,27/03/2024
html-keyboard-response,160,347440,0.0-67.0-0.0,1151.7999999523163,"<div style=""display: flex; flex-direction: column; align-items: center; margin-top: -40px;""><img src=""images/pattern_5.png"" style=""width: 234px; height: 230px; margin-top: -50px;""><div style=""display: flex; justify-content: space-between; margin-top: 33px;""><img src=""images/choice_trial_7.png"" style=""width: 408px; height: 417px; margin-right: 200px;""><img src=""images/choice_trial_13.png"" style=""width: 408px; height: 417px;""></div></div>",f,delaylearn,learning,trial,PLXYpjF7dOQrX9uLH8yHRIB1x8g2,PLXYpjF7dOQrX9uLH8yHRIB1x8g2,5.0,images/choice_trial_7.png,images/choice_trial_13.png,images/pattern_5.png,f,f,750.0,7.0,13.0,4.0,0.0,29.0,1.0,1.0,7.0,200.0,,,,,,5c5844d8dd470300014ee3f1,16:52:18,27/03/2024
html-keyboard-response,161,348443,0.0-67.0-1.0,,"<div style=""display: flex; flex-direction: column; align-items: center; margin-top: -40px;""><img src=""images/pattern_5.png"" style=""width: 234px; height: 230px; margin-top: -50px;""><div style=""display: flex; justify-content: space-between; margin-top: 33px;""><img src=""images/choice_trial_7.png"" style=""width: 408px; height: 417px; margin-right: 608px;""></div></div>",,delaylearn,learning,display_response,PLXYpjF7dOQrX9uLH8yHRIB1x8g2,PLXYpjF7dOQrX9uLH8yHRIB1x8g2,,,,,,,,,,,,,,,,,chosen stimuli: images/choice_trial_7.png,,,,,5c5844d8dd470300014ee3f1,16:52:18,27/03/2024
html-keyboard-response,162,349199,0.0-67.0-2.0,,,,delaylearn,learning,feedback_duration_window,PLXYpjF7dOQrX9uLH8yHRIB1x8g2,PLXYpjF7dOQrX9uLH8yHRIB1x8g2,,,,,,,,,,,,,,,,,,750.0,,,,5c5844d8dd470300014ee3f1,16:52:18,27/03/2024
html-keyboard-response,163,350711,0.0-67.0-3.0,,<div style='margin:auto;width: auto; font-size: 150%'><span style='font-weight: bold; font-size: 100px; color: green;'>+10 points!</span><br><br></div>,,delaylearn,learning,feedback_image_window,PLXYpjF7dOQrX9uLH8yHRIB1x8g2,PLXYpjF7dOQrX9uLH8yHRIB1x8g2,,,,,,,,,,,,,,,,,,,,,,5c5844d8dd470300014ee3f1,16:52:18,27/03/2024
html-keyboard-response,164,353105,0.0-68.0,,"<div style=""font-size:100px;"">+</div>",,delaylearn,learning,ITI,PLXYpjF7dOQrX9uLH8yHRIB1x8g2,PLXYpjF7dOQrX9uLH8yHRIB1x8g2,,,,,,,,,,,,,,,,,,,2392.0,,,5c5844d8dd470300014ee3f1,16:52:18,27/03/2024
html-keyboard-response,165,354041,0.0-69.0-0.0,934.0,"<div style=""display: flex; flex-direction: column; align-items: center; margin-top: -40px;""><img src=""images/pattern_6.png"" style=""width: 234px; height: 230px; margin-top: -50px;""><div style=""display: flex; justify-content: space-between; margin-top: 33px;""><img src=""images/choice_trial_9.png"" style=""width: 408px; height: 417px; margin-right: 200px;""><img src=""images/choice_trial_14.png"" style=""width: 408px; height: 417px;""></div></div>",j,delaylearn,learning,trial,PLXYpjF7dOQrX9uLH8yHRIB1x8g2,PLXYpjF7dOQrX9uLH8yHRIB1x8g2,5.0,images/choice_trial_9.png,images/choice_trial_14.png,images/pattern_6.png,j,j,750.0,9.0,14.0,5.0,1.0,30.0,1.0,1.0,14.0,210.0,,,,,,5c5844d8dd470300014ee3f1,16:52:18,27/03/2024
html-keyboard-response,166,355051,0.0-69.0-1.0,,"<div style=""display: flex; flex-direction: column; align-items: center; margin-top: -40px;""><img src=""images/pattern_6.png"" style=""width: 234px; height: 230px; margin-top: -50px;""><div style=""display: flex; justify-content: space-between; margin-top: 33px;""><img src=""images/choice_trial_14.png"" style=""width: 408px; height: 417px; margin-left:608px;""></div></div>",,delaylearn,learning,display_response,PLXYpjF7dOQrX9uLH8yHRIB1x8g2,PLXYpjF7dOQrX9uLH8yHRIB1x8g2,,,,,,,,,,,,,,,,,chosen stimuli: images/choice_trial_14.png,,,,,5c5844d8dd470300014ee3f1,16:52:18,27/03/2024
html-keyboard-response,167,355807,0.0-69.0-2.0,,,,delaylearn,learning,feedback_duration_window,PLXYpjF7dOQrX9uLH8yHRIB1x8g2,PLXYpjF7dOQrX9uLH8yHRIB1x8g2,,,,,,,,,,,,,,,,,,750.0,,,,5c5844d8dd470300014ee3f1,16:52:18,27/03/2024
html-keyboard-response,168,357316,0.0-69.0-3.0,,<div style='margin:auto;width: auto; font-size: 150%'><span style='font-weight: bold; font-size: 100px; color: green;'>+10 points!</span><br><br></div>,,delaylearn,learning,feedback_image_window,PLXYpjF7dOQrX9uLH8yHRIB1x8g2,PLXYpjF7dOQrX9uLH8yHRIB1x8g2,,,,,,,,,,,,,,,,,,,,,,5c5844d8dd470300014ee3f1,16:52:18,27/03/2024
html-keyboard-response,169,357825,0.0-70.0-0.0,,,,,,mood_trial_fixation,PLXYpjF7dOQrX9uLH8yHRIB1x8g2,,,,,,,,,,,,,,,,,,,,,,,5c5844d8dd470300014ee3f1,16:52:18,27/03/2024
lmdlab-html-vas-response,170,362634,0.0-70.0-1.0,3801.0,How happy are you right now?,0.8146892272218643,delaylearn,learning,mood_trial,PLXYpjF7dOQrX9uLH8yHRIB1x8g2,PLXYpjF7dOQrX9uLH8yHRIB1x8g2,,,,,,,,,,,,,,,,,,,,"['Very unhappy', 'Very happy']",,5c5844d8dd470300014ee3f1,16:52:18,27/03/2024
html-keyboard-response,171,364582,0.0-71.0,,"<div style=""font-size:100px;"">+</div>",,delaylearn,learning,ITI,PLXYpjF7dOQrX9uLH8yHRIB1x8g2,PLXYpjF7dOQrX9uLH8yHRIB1x8g2,,,,,,,,,,,,,,,,,,,1934.0,,,5c5844d8dd470300014ee3f1,16:52:18,27/03/2024
html-keyboard-response,172,365740,0.0-72.0-0.0,1156.0999999046326,"<div style=""display: flex; flex-direction: column; align-items: center; margin-top: -40px;""><img src=""images/pattern_4.png"" style=""width: 234px; height: 230px; margin-top: -50px;""><div style=""display: flex; justify-content: space-between; margin-top: 33px;""><img src=""images/choice_trial_4.png"" style=""width: 408px; height: 417px; margin-right: 200px;""><img src=""images/choice_trial_11.png"" style=""width: 408px; height: 417px;""></div></div>",j,delaylearn,learning,trial,PLXYpjF7dOQrX9uLH8yHRIB1x8g2,PLXYpjF7dOQrX9uLH8yHRIB1x8g2,5.0,images/choice_trial_4.png,images/choice_trial_11.png,images/pattern_4.png,j,j,7000.0,4.0,11.0,3.0,1.0,31.0,1.0,1.0,11.0,220.0,,,,,,5c5844d8dd470300014ee3f1,16:52:18,27/03/2024
html-keyboard-response,173,366751,0.0-72.0-1.0,,"<div style=""display: flex; flex-direction: column; align-items: center; margin-top: -40px;""><img src=""images/pattern_4.png"" style=""width: 234px; height: 230px; margin-top: -50px;""><div style=""display: flex; justify-content: space-between; margin-top: 33px;""><img src=""images/choice_trial_11.png"" style=""width: 408px; height: 417px; margin-left:608px;""></div></div>",,delaylearn,learning,display_response,PLXYpjF7dOQrX9uLH8yHRIB1x8g2,PLXYpjF7dOQrX9uLH8yHRIB1x8g2,,,,,,,,,,,,,,,,,chosen stimuli: images/choice_trial_11.png,,,,,5c5844d8dd470300014ee3f1,16:52:18,27/03/2024
html-keyboard-response,174,373762,0.0-72.0-2.0,,,,delaylearn,learning,feedback_duration_window,PLXYpjF7dOQrX9uLH8yHRIB1x8g2,PLXYpjF7dOQrX9uLH8yHRIB1x8g2,,,,,,,,,,,,,,,,,,7000.0,,,,5c5844d8dd470300014ee3f1,16:52:18,27/03/2024
html-keyboard-response,175,375275,0.0-72.0-3.0,,<div style='margin:auto;width: auto; font-size: 150%'><span style='font-weight: bold; font-size: 100px; color: green;'>+10 points!</span><br><br></div>,,delaylearn,learning,feedback_image_window,PLXYpjF7dOQrX9uLH8yHRIB1x8g2,PLXYpjF7dOQrX9uLH8yHRIB1x8g2,,,,,,,,,,,,,,,,,,,,,,5c5844d8dd470300014ee3f1,16:52:18,27/03/2024
html-keyboard-response,176,377434,0.0-73.0,,"<div style=""font-size:100px;"">+</div>",,delaylearn,learning,ITI,PLXYpjF7dOQrX9uLH8yHRIB1x8g2,PLXYpjF7dOQrX9uLH8yHRIB1x8g2,,,,,,,,,,,,,,,,,,,2156.0,,,5c5844d8dd470300014ee3f1,16:52:18,27/03/2024
html-keyboard-response,177,378775,0.0-74.0-0.0,1338.7999999523163,"<div style=""display: flex; flex-direction: column; align-items: center; margin-top: -40px;""><img src=""images/pattern_3.png"" style=""width: 234px; height: 230px; margin-top: -50px;""><div style=""display: flex; justify-content: space-between; margin-top: 33px;""><img src=""images/choice_trial_2.png"" style=""width: 408px; height: 417px; margin-right: 200px;""><img src=""images/choice_trial_16.png"" style=""width: 408px; height: 417px;""></div></div>",j,delaylearn,learning,trial,PLXYpjF7dOQrX9uLH8yHRIB1x8g2,PLXYpjF7dOQrX9uLH8yHRIB1x8g2,5.0,images/choice_trial_2.png,images/choice_trial_16.png,images/pattern_3.png,j,j,7000.0,2.0,16.0,2.0,1.0,32.0,1.0,1.0,16.0,230.0,,,,,,5c5844d8dd470300014ee3f1,16:52:18,27/03/2024
html-keyboard-response,178,379784,0.0-74.0-1.0,,"<div style=""display: flex; flex-direction: column; align-items: center; margin-top: -40px;""><img src=""images/pattern_3.png"" style=""width: 234px; height: 230px; margin-top: -50px;""><div style=""display: flex; justify-content: space-between; margin-top: 33px;""><img src=""images/choice_trial_16.png"" style=""width: 408px; height: 417px; margin-left:608px;""></div></div>",,delaylearn,learning,display_response,PLXYpjF7dOQrX9uLH8yHRIB1x8g2,PLXYpjF7dOQrX9uLH8yHRIB1x8g2,,,,,,,,,,,,,,,,,chosen stimuli: images/choice_trial_16.png,,,,,5c5844d8dd470300014ee3f1,16:52:18,27/03/2024
html-keyboard-response,179,386800,0.0-74.0-2.0,,,,delaylearn,learning,feedback_duration_window,PLXYpjF7dOQrX9uLH8yHRIB1x8g2,PLXYpjF7dOQrX9uLH8yHRIB1x8g2,,,,,,,,,,,,,,,,,,7000.0,,,,5c5844d8dd470300014ee3f1,16:52:18,27/03/2024
html-keyboard-response,180,388312,0.0-74.0-3.0,,<div style='margin:auto;width: auto; font-size: 150%'><span style='font-weight: bold; font-size: 100px; color: green;'>+10 points!</span><br><br></div>,,delaylearn,learning,feedback_image_window,PLXYpjF7dOQrX9uLH8yHRIB1x8g2,PLXYpjF7dOQrX9uLH8yHRIB1x8g2,,,,,,,,,,,,,,,,,,,,,,5c5844d8dd470300014ee3f1,16:52:18,27/03/2024
html-keyboard-response,181,389839,0.0-75.0,,"<div style=""font-size:100px;"">+</div>",,delaylearn,learning,ITI,PLXYpjF7dOQrX9uLH8yHRIB1x8g2,PLXYpjF7dOQrX9uLH8yHRIB1x8g2,,,,,,,,,,,,,,,,,,,1518.0,,,5c5844d8dd470300014ee3f1,16:52:18,27/03/2024
html-keyboard-response,182,390801,0.0-76.0-0.0,960.5999999046326,"<div style=""display: flex; flex-direction: column; align-items: center; margin-top: -40px;""><img src=""images/pattern_5.png"" style=""width: 234px; height: 230px; margin-top: -50px;""><div style=""display: flex; justify-content: space-between; margin-top: 33px;""><img src=""images/choice_trial_7.png"" style=""width: 408px; height: 417px; margin-right: 200px;""><img src=""images/choice_trial_13.png"" style=""width: 408px; height: 417px;""></div></div>",f,delaylearn,learning,trial,PLXYpjF7dOQrX9uLH8yHRIB1x8g2,PLXYpjF7dOQrX9uLH8yHRIB1x8g2,5.0,images/choice_trial_7.png,images/choice_trial_13.png,images/pattern_5.png,j,f,750.0,7.0,13.0,4.0,0.0,33.0,1.0,0.0,7.0,230.0,,,,,,5c5844d8dd470300014ee3f1,16:52:18,27/03/2024
html-keyboard-response,183,391813,0.0-76.0-1.0,,"<div style=""display: flex; flex-direction: column; align-items: center; margin-top: -40px;""><img src=""images/pattern_5.png"" style=""width: 234px; height: 230px; margin-top: -50px;""><div style=""display: flex; justify-content: space-between; margin-top: 33px;""><img src=""images/choice_trial_7.png"" style=""width: 408px; height: 417px; margin-right: 608px;""></div></div>",,delaylearn,learning,display_response,PLXYpjF7dOQrX9uLH8yHRIB1x8g2,PLXYpjF7dOQrX9uLH8yHRIB1x8g2,,,,,,,,,,,,,,,,,chosen stimuli: images/choice_trial_7.png,,,,,5c5844d8dd470300014ee3f1,16:52:18,27/03/2024
html-keyboard-response,184,392575,0.0-76.0-2.0,,,,delaylearn,learning,feedback_duration_window,PLXYpjF7dOQrX9uLH8yHRIB1x8g2,PLXYpjF7dOQrX9uLH8yHRIB1x8g2,,,,,,,,,,,,,,,,,,750.0,,,,5c5844d8dd470300014ee3f1,16:52:18,27/03/2024
html-keyboard-response,185,394084,0.0-76.0-3.0,,<div style='margin:auto;width: auto; font-size: 150%'><span style='font-weight: bold; font-size: 100px; color: red;'>0 points!</span><br><br></div>,,delaylearn,learning,feedback_image_window,PLXYpjF7dOQrX9uLH8yHRIB1x8g2,PLXYpjF7dOQrX9uLH8yHRIB1x8g2,,,,,,,,,,,,,,,,,,,,,,5c5844d8dd470300014ee3f1,16:52:18,27/03/2024
html-keyboard-response,186,396412,0.0-77.0,,"<div style=""font-size:100px;"">+</div>",,delaylearn,learning,ITI,PLXYpjF7dOQrX9uLH8yHRIB1x8g2,PLXYpjF7dOQrX9uLH8yHRIB1x8g2,,,,,,,,,,,,,,,,,,,2313.0,,,5c5844d8dd470300014ee3f1,16:52:18,27/03/2024
html-keyboard-response,187,397799,0.0-78.0-0.0,1384.6000001430511,"<div style=""display: flex; flex-direction: column; align-items: center; margin-top: -40px;""><img src=""images/pattern_1.png"" style=""width: 234px; height: 230px; margin-top: -50px;""><div style=""display: flex; justify-content: space-between; margin-top: 33px;""><img src=""images/choice_trial_6.png"" style=""width: 408px; height: 417px; margin-right: 200px;""><img src=""images/choice_trial_15.png"" style=""width: 408px; height: 417px;""></div></div>",f,delaylearn,learning,trial,PLXYpjF7dOQrX9uLH8yHRIB1x8g2,PLXYpjF7dOQrX9uLH8yHRIB1x8g2,5.0,images/choice_trial_6.png,images/choice_trial_15.png,images/pattern_1.png,f,f,7000.0,6.0,15.0,1.0,0.0,34.0,1.0,1.0,6.0,240.0,,,,,,5c5844d8dd470300014ee3f1,16:52:18,27/03/2024
html-keyboard-response,188,398808,0.0-78.0-1.0,,"<div style=""display: flex; flex-direction: column; align-items: center; margin-top: -40px;""><img src=""images/pattern_1.png"" style=""width: 234px; height: 230px; margin-top: -50px;""><div style=""display: flex; justify-content: space-between; margin-top: 33px;""><img src=""images/choice_trial_6.png"" style=""width: 408px; height: 417px; margin-right: 608px;""></div></div>",,delaylearn,learning,display_response,PLXYpjF7dOQrX9uLH8yHRIB1x8g2,PLXYpjF7dOQrX9uLH8yHRIB1x8g2,,,,,,,,,,,,,,,,,chosen stimuli: images/choice_trial_6.png,,,,,5c5844d8dd470300014ee3f1,16:52:18,27/03/2024
html-keyboard-response,189,405822,0.0-78.0-2.0,,,,delaylearn,learning,feedback_duration_window,PLXYpjF7dOQrX9uLH8yHRIB1x8g2,PLXYpjF7dOQrX9uLH8yHRIB1x8g2,,,,,,,,,,,,,,,,,,7000.0,,,,5c5844d8dd470300014ee3f1,16:52:18,27/03/2024
html-keyboard-response,190,407336,0.0-78.0-3.0,,<div style='margin:auto;width: auto; font-size: 150%'><span style='font-weight: bold; font-size: 100px; color: green;'>+10 points!</span><br><br></div>,,delaylearn,learning,feedback_image_window,PLXYpjF7dOQrX9uLH8yHRIB1x8g2,PLXYpjF7dOQrX9uLH8yHRIB1x8g2,,,,,,,,,,,,,,,,,,,,,,5c5844d8dd470300014ee3f1,16:52:18,27/03/2024
html-keyboard-response,191,407845,0.0-79.0-0.0,,,,,,mood_trial_fixation,PLXYpjF7dOQrX9uLH8yHRIB1x8g2,,,,,,,,,,,,,,,,,,,,,,,5c5844d8dd470300014ee3f1,16:52:18,27/03/2024
lmdlab-html-vas-response,192,412679,0.0-79.0-1.0,3826.0,How happy are you right now?,0.5325692584178224,delaylearn,learning,mood_trial,PLXYpjF7dOQrX9uLH8yHRIB1x8g2,PLXYpjF7dOQrX9uLH8yHRIB1x8g2,,,,,,,,,,,,,,,,,,,,"['Very unhappy', 'Very happy']",,5c5844d8dd470300014ee3f1,16:52:18,27/03/2024
html-keyboard-response,193,414225,0.0-80.0,,"<div style=""font-size:100px;"">+</div>",,delaylearn,learning,ITI,PLXYpjF7dOQrX9uLH8yHRIB1x8g2,PLXYpjF7dOQrX9uLH8yHRIB1x8g2,,,,,,,,,,,,,,,,,,,1536.0,,,5c5844d8dd470300014ee3f1,16:52:18,27/03/2024
html-keyboard-response,194,415183,0.0-81.0-0.0,954.0999999046326,"<div style=""display: flex; flex-direction: column; align-items: center; margin-top: -40px;""><img src=""images/pattern_6.png"" style=""width: 234px; height: 230px; margin-top: -50px;""><div style=""display: flex; justify-content: space-between; margin-top: 33px;""><img src=""images/choice_trial_14.png"" style=""width: 408px; height: 417px; margin-right: 200px;""><img src=""images/choice_trial_9.png"" style=""width: 408px; height: 417px;""></div></div>",f,delaylearn,learning,trial,PLXYpjF7dOQrX9uLH8yHRIB1x8g2,PLXYpjF7dOQrX9uLH8yHRIB1x8g2,5.0,images/choice_trial_14.png,images/choice_trial_9.png,images/pattern_6.png,j,f,750.0,14.0,9.0,5.0,0.0,35.0,1.0,0.0,14.0,240.0,,,,,,5c5844d8dd470300014ee3f1,16:52:18,27/03/2024
html-keyboard-response,195,416194,0.0-81.0-1.0,,"<div style=""display: flex; flex-direction: column; align-items: center; margin-top: -40px;""><img src=""images/pattern_6.png"" style=""width: 234px; height: 230px; margin-top: -50px;""><div style=""display: flex; justify-content: space-between; margin-top: 33px;""><img src=""images/choice_trial_14.png"" style=""width: 408px; height: 417px; margin-right: 608px;""></div></div>",,delaylearn,learning,display_response,PLXYpjF7dOQrX9uLH8yHRIB1x8g2,PLXYpjF7dOQrX9uLH8yHRIB1x8g2,,,,,,,,,,,,,,,,,chosen stimuli: images/choice_trial_14.png,,,,,5c5844d8dd470300014ee3f1,16:52:18,27/03/2024
html-keyboard-response,196,416950,0.0-81.0-2.0,,,,delaylearn,learning,feedback_duration_window,PLXYpjF7dOQrX9uLH8yHRIB1x8g2,PLXYpjF7dOQrX9uLH8yHRIB1x8g2,,,,,,,,,,,,,,,,,,750.0,,,,5c5844d8dd470300014ee3f1,16:52:18,27/03/2024
html-keyboard-response,197,418461,0.0-81.0-3.0,,<div style='margin:auto;width: auto; font-size: 150%'><span style='font-weight: bold; font-size: 100px; color: red;'>0 points!</span><br><br></div>,,delaylearn,learning,feedback_image_window,PLXYpjF7dOQrX9uLH8yHRIB1x8g2,PLXYpjF7dOQrX9uLH8yHRIB1x8g2,,,,,,,,,,,,,,,,,,,,,,5c5844d8dd470300014ee3f1,16:52:18,27/03/2024
html-keyboard-response,198,420020,0.0-82.0,,"<div style=""font-size:100px;"">+</div>",,delaylearn,learning,ITI,PLXYpjF7dOQrX9uLH8yHRIB1x8g2,PLXYpjF7dOQrX9uLH8yHRIB1x8g2,,,,,,,,,,,,,,,,,,,1551.0,,,5c5844d8dd470300014ee3f1,16:52:18,27/03/2024
html-keyboard-response,199,421221,0.0-83.0-0.0,1198.7999999523163,"<div style=""display: flex; flex-direction: column; align-items: center; margin-top: -40px;""><img src=""images/pattern_3.png"" style=""width: 234px; height: 230px; margin-top: -50px;""><div style=""display: flex; justify-content: space-between; margin-top: 33px;""><img src=""images/choice_trial_2.png"" style=""width: 408px; height: 417px; margin-right: 200px;""><img src=""images/choice_trial_16.png"" style=""width: 408px; height: 417px;""></div></div>",j,delaylearn,learning,trial,PLXYpjF7dOQrX9uLH8yHRIB1x8g2,PLXYpjF7dOQrX9uLH8yHRIB1x8g2,5.0,images/choice_trial_2.png,images/choice_trial_16.png,images/pattern_3.png,j,j,7000.0,2.0,16.0,2.0,1.0,36.0,1.0,1.0,16.0,250.0,,,,,,5c5844d8dd470300014ee3f1,16:52:18,27/03/2024
html-keyboard-response,200,422228,0.0-83.0-1.0,,"<div style=""display: flex; flex-direction: column; align-items: center; margin-top: -40px;""><img src=""images/pattern_3.png"" style=""width: 234px; height: 230px; margin-top: -50px;""><div style=""display: flex; justify-content: space-between; margin-top: 33px;""><img src=""images/choice_trial_16.png"" style=""width: 408px; height: 417px; margin-left:608px;""></div></div>",,delaylearn,learning,display_response,PLXYpjF7dOQrX9uLH8yHRIB1x8g2,PLXYpjF7dOQrX9uLH8yHRIB1x8g2,,,,,,,,,,,,,,,,,chosen stimuli: images/choice_trial_16.png,,,,,5c5844d8dd470300014ee3f1,16:52:18,27/03/2024
html-keyboard-response,201,429234,0.0-83.0-2.0,,,,delaylearn,learning,feedback_duration_window,PLXYpjF7dOQrX9uLH8yHRIB1x8g2,PLXYpjF7dOQrX9uLH8yHRIB1x8g2,,,,,,,,,,,,,,,,,,7000.0,,,,5c5844d8dd470300014ee3f1,16:52:18,27/03/2024
html-keyboard-response,202,430749,0.0-83.0-3.0,,<div style='margin:auto;width: auto; font-size: 150%'><span style='font-weight: bold; font-size: 100px; color: green;'>+10 points!</span><br><br></div>,,delaylearn,learning,feedback_image_window,PLXYpjF7dOQrX9uLH8yHRIB1x8g2,PLXYpjF7dOQrX9uLH8yHRIB1x8g2,,,,,,,,,,,,,,,,,,,,,,5c5844d8dd470300014ee3f1,16:52:18,27/03/2024
html-keyboard-response,203,433168,0.0-84.0,,"<div style=""font-size:100px;"">+</div>",,delaylearn,learning,ITI,PLXYpjF7dOQrX9uLH8yHRIB1x8g2,PLXYpjF7dOQrX9uLH8yHRIB1x8g2,,,,,,,,,,,,,,,,,,,2406.0,,,5c5844d8dd470300014ee3f1,16:52:18,27/03/2024
html-keyboard-response,204,434369,0.0-85.0-0.0,1198.7000000476837,"<div style=""display: flex; flex-direction: column; align-items: center; margin-top: -40px;""><img src=""images/pattern_4.png"" style=""width: 234px; height: 230px; margin-top: -50px;""><div style=""display: flex; justify-content: space-between; margin-top: 33px;""><img src=""images/choice_trial_4.png"" style=""width: 408px; height: 417px; margin-right: 200px;""><img src=""images/choice_trial_11.png"" style=""width: 408px; height: 417px;""></div></div>",j,delaylearn,learning,trial,PLXYpjF7dOQrX9uLH8yHRIB1x8g2,PLXYpjF7dOQrX9uLH8yHRIB1x8g2,5.0,images/choice_trial_4.png,images/choice_trial_11.png,images/pattern_4.png,f,j,7000.0,4.0,11.0,3.0,1.0,37.0,1.0,0.0,11.0,250.0,,,,,,5c5844d8dd470300014ee3f1,16:52:18,27/03/2024
html-keyboard-response,205,435375,0.0-85.0-1.0,,"<div style=""display: flex; flex-direction: column; align-items: center; margin-top: -40px;""><img src=""images/pattern_4.png"" style=""width: 234px; height: 230px; margin-top: -50px;""><div style=""display: flex; justify-content: space-between; margin-top: 33px;""><img src=""images/choice_trial_11.png"" style=""width: 408px; height: 417px; margin-left:608px;""></div></div>",,delaylearn,learning,display_response,PLXYpjF7dOQrX9uLH8yHRIB1x8g2,PLXYpjF7dOQrX9uLH8yHRIB1x8g2,,,,,,,,,,,,,,,,,chosen stimuli: images/choice_trial_11.png,,,,,5c5844d8dd470300014ee3f1,16:52:18,27/03/2024
html-keyboard-response,206,442388,0.0-85.0-2.0,,,,delaylearn,learning,feedback_duration_window,PLXYpjF7dOQrX9uLH8yHRIB1x8g2,PLXYpjF7dOQrX9uLH8yHRIB1x8g2,,,,,,,,,,,,,,,,,,7000.0,,,,5c5844d8dd470300014ee3f1,16:52:18,27/03/2024
html-keyboard-response,207,443898,0.0-85.0-3.0,,<div style='margin:auto;width: auto; font-size: 150%'><span style='font-weight: bold; font-size: 100px; color: red;'>0 points!</span><br><br></div>,,delaylearn,learning,feedback_image_window,PLXYpjF7dOQrX9uLH8yHRIB1x8g2,PLXYpjF7dOQrX9uLH8yHRIB1x8g2,,,,,,,,,,,,,,,,,,,,,,5c5844d8dd470300014ee3f1,16:52:18,27/03/2024
html-keyboard-response,208,445985,0.0-86.0,,"<div style=""font-size:100px;"">+</div>",,delaylearn,learning,ITI,PLXYpjF7dOQrX9uLH8yHRIB1x8g2,PLXYpjF7dOQrX9uLH8yHRIB1x8g2,,,,,,,,,,,,,,,,,,,2085.0,,,5c5844d8dd470300014ee3f1,16:52:18,27/03/2024
html-keyboard-response,209,447407,0.0-87.0-0.0,1420.2999999523163,"<div style=""display: flex; flex-direction: column; align-items: center; margin-top: -40px;""><img src=""images/pattern_7.png"" style=""width: 234px; height: 230px; margin-top: -50px;""><div style=""display: flex; justify-content: space-between; margin-top: 33px;""><img src=""images/choice_trial_8.png"" style=""width: 408px; height: 417px; margin-right: 200px;""><img src=""images/choice_trial_10.png"" style=""width: 408px; height: 417px;""></div></div>",f,delaylearn,learning,trial,PLXYpjF7dOQrX9uLH8yHRIB1x8g2,PLXYpjF7dOQrX9uLH8yHRIB1x8g2,5.0,images/choice_trial_8.png,images/choice_trial_10.png,images/pattern_7.png,f,f,750.0,8.0,10.0,6.0,0.0,38.0,1.0,1.0,8.0,260.0,,,,,,5c5844d8dd470300014ee3f1,16:52:18,27/03/2024
html-keyboard-response,210,448420,0.0-87.0-1.0,,"<div style=""display: flex; flex-direction: column; align-items: center; margin-top: -40px;""><img src=""images/pattern_7.png"" style=""width: 234px; height: 230px; margin-top: -50px;""><div style=""display: flex; justify-content: space-between; margin-top: 33px;""><img src=""images/choice_trial_8.png"" style=""width: 408px; height: 417px; margin-right: 608px;""></div></div>",,delaylearn,learning,display_response,PLXYpjF7dOQrX9uLH8yHRIB1x8g2,PLXYpjF7dOQrX9uLH8yHRIB1x8g2,,,,,,,,,,,,,,,,,chosen stimuli: images/choice_trial_8.png,,,,,5c5844d8dd470300014ee3f1,16:52:18,27/03/2024
html-keyboard-response,211,449174,0.0-87.0-2.0,,,,delaylearn,learning,feedback_duration_window,PLXYpjF7dOQrX9uLH8yHRIB1x8g2,PLXYpjF7dOQrX9uLH8yHRIB1x8g2,,,,,,,,,,,,,,,,,,750.0,,,,5c5844d8dd470300014ee3f1,16:52:18,27/03/2024
html-keyboard-response,212,450683,0.0-87.0-3.0,,<div style='margin:auto;width: auto; font-size: 150%'><span style='font-weight: bold; font-size: 100px; color: green;'>+10 points!</span><br><br></div>,,delaylearn,learning,feedback_image_window,PLXYpjF7dOQrX9uLH8yHRIB1x8g2,PLXYpjF7dOQrX9uLH8yHRIB1x8g2,,,,,,,,,,,,,,,,,,,,,,5c5844d8dd470300014ee3f1,16:52:18,27/03/2024
html-keyboard-response,213,452489,0.0-88.0,,"<div style=""font-size:100px;"">+</div>",,delaylearn,learning,ITI,PLXYpjF7dOQrX9uLH8yHRIB1x8g2,PLXYpjF7dOQrX9uLH8yHRIB1x8g2,,,,,,,,,,,,,,,,,,,1791.0,,,5c5844d8dd470300014ee3f1,16:52:18,27/03/2024
html-keyboard-response,214,453783,0.0-89.0-0.0,1291.2999999523163,"<div style=""display: flex; flex-direction: column; align-items: center; margin-top: -40px;""><img src=""images/pattern_1.png"" style=""width: 234px; height: 230px; margin-top: -50px;""><div style=""display: flex; justify-content: space-between; margin-top: 33px;""><img src=""images/choice_trial_6.png"" style=""width: 408px; height: 417px; margin-right: 200px;""><img src=""images/choice_trial_15.png"" style=""width: 408px; height: 417px;""></div></div>",f,delaylearn,learning,trial,PLXYpjF7dOQrX9uLH8yHRIB1x8g2,PLXYpjF7dOQrX9uLH8yHRIB1x8g2,5.0,images/choice_trial_6.png,images/choice_trial_15.png,images/pattern_1.png,f,f,7000.0,6.0,15.0,1.0,0.0,39.0,1.0,1.0,6.0,270.0,,,,,,5c5844d8dd470300014ee3f1,16:52:18,27/03/2024
html-keyboard-response,215,454789,0.0-89.0-1.0,,"<div style=""display: flex; flex-direction: column; align-items: center; margin-top: -40px;""><img src=""images/pattern_1.png"" style=""width: 234px; height: 230px; margin-top: -50px;""><div style=""display: flex; justify-content: space-between; margin-top: 33px;""><img src=""images/choice_trial_6.png"" style=""width: 408px; height: 417px; margin-right: 608px;""></div></div>",,delaylearn,learning,display_response,PLXYpjF7dOQrX9uLH8yHRIB1x8g2,PLXYpjF7dOQrX9uLH8yHRIB1x8g2,,,,,,,,,,,,,,,,,chosen stimuli: images/choice_trial_6.png,,,,,5c5844d8dd470300014ee3f1,16:52:18,27/03/2024
html-keyboard-response,216,461790,0.0-89.0-2.0,,,,delaylearn,learning,feedback_duration_window,PLXYpjF7dOQrX9uLH8yHRIB1x8g2,PLXYpjF7dOQrX9uLH8yHRIB1x8g2,,,,,,,,,,,,,,,,,,7000.0,,,,5c5844d8dd470300014ee3f1,16:52:18,27/03/2024
html-keyboard-response,217,463303,0.0-89.0-3.0,,<div style='margin:auto;width: auto; font-size: 150%'><span style='font-weight: bold; font-size: 100px; color: green;'>+10 points!</span><br><br></div>,,delaylearn,learning,feedback_image_window,PLXYpjF7dOQrX9uLH8yHRIB1x8g2,PLXYpjF7dOQrX9uLH8yHRIB1x8g2,,,,,,,,,,,,,,,,,,,,,,5c5844d8dd470300014ee3f1,16:52:18,27/03/2024
html-keyboard-response,218,463811,0.0-90.0-0.0,,,,,,mood_trial_fixation,PLXYpjF7dOQrX9uLH8yHRIB1x8g2,,,,,,,,,,,,,,,,,,,,,,,5c5844d8dd470300014ee3f1,16:52:18,27/03/2024
lmdlab-html-vas-response,219,468591,0.0-90.0-1.0,3772.0,How happy are you right now?,0.43708249974568514,delaylearn,learning,mood_trial,PLXYpjF7dOQrX9uLH8yHRIB1x8g2,PLXYpjF7dOQrX9uLH8yHRIB1x8g2,,,,,,,,,,,,,,,,,,,,"['Very unhappy', 'Very happy']",,5c5844d8dd470300014ee3f1,16:52:18,27/03/2024
html-keyboard-response,220,470297,0.0-91.0,,"<div style=""font-size:100px;"">+</div>",,delaylearn,learning,ITI,PLXYpjF7dOQrX9uLH8yHRIB1x8g2,PLXYpjF7dOQrX9uLH8yHRIB1x8g2,,,,,,,,,,,,,,,,,,,1700.0,,,5c5844d8dd470300014ee3f1,16:52:18,27/03/2024
html-keyboard-response,221,471446,0.0-92.0-0.0,1147.2000000476837,"<div style=""display: flex; flex-direction: column; align-items: center; margin-top: -40px;""><img src=""images/pattern_3.png"" style=""width: 234px; height: 230px; margin-top: -50px;""><div style=""display: flex; justify-content: space-between; margin-top: 33px;""><img src=""images/choice_trial_16.png"" style=""width: 408px; height: 417px; margin-right: 200px;""><img src=""images/choice_trial_2.png"" style=""width: 408px; height: 417px;""></div></div>",f,delaylearn,learning,trial,PLXYpjF7dOQrX9uLH8yHRIB1x8g2,PLXYpjF7dOQrX9uLH8yHRIB1x8g2,5.0,images/choice_trial_16.png,images/choice_trial_2.png,images/pattern_3.png,j,f,7000.0,16.0,2.0,2.0,0.0,40.0,1.0,0.0,16.0,270.0,,,,,,5c5844d8dd470300014ee3f1,16:52:18,27/03/2024
html-keyboard-response,222,472458,0.0-92.0-1.0,,"<div style=""display: flex; flex-direction: column; align-items: center; margin-top: -40px;""><img src=""images/pattern_3.png"" style=""width: 234px; height: 230px; margin-top: -50px;""><div style=""display: flex; justify-content: space-between; margin-top: 33px;""><img src=""images/choice_trial_16.png"" style=""width: 408px; height: 417px; margin-right: 608px;""></div></div>",,delaylearn,learning,display_response,PLXYpjF7dOQrX9uLH8yHRIB1x8g2,PLXYpjF7dOQrX9uLH8yHRIB1x8g2,,,,,,,,,,,,,,,,,chosen stimuli: images/choice_trial_16.png,,,,,5c5844d8dd470300014ee3f1,16:52:18,27/03/2024
html-keyboard-response,223,479468,0.0-92.0-2.0,,,,delaylearn,learning,feedback_duration_window,PLXYpjF7dOQrX9uLH8yHRIB1x8g2,PLXYpjF7dOQrX9uLH8yHRIB1x8g2,,,,,,,,,,,,,,,,,,7000.0,,,,5c5844d8dd470300014ee3f1,16:52:18,27/03/2024
html-keyboard-response,224,480979,0.0-92.0-3.0,,<div style='margin:auto;width: auto; font-size: 150%'><span style='font-weight: bold; font-size: 100px; color: red;'>0 points!</span><br><br></div>,,delaylearn,learning,feedback_image_window,PLXYpjF7dOQrX9uLH8yHRIB1x8g2,PLXYpjF7dOQrX9uLH8yHRIB1x8g2,,,,,,,,,,,,,,,,,,,,,,5c5844d8dd470300014ee3f1,16:52:18,27/03/2024
html-keyboard-response,225,482659,0.0-93.0,,"<div style=""font-size:100px;"">+</div>",,delaylearn,learning,ITI,PLXYpjF7dOQrX9uLH8yHRIB1x8g2,PLXYpjF7dOQrX9uLH8yHRIB1x8g2,,,,,,,,,,,,,,,,,,,1663.0,,,5c5844d8dd470300014ee3f1,16:52:18,27/03/2024
html-keyboard-response,226,483982,0.0-94.0-0.0,1320.2999999523163,"<div style=""display: flex; flex-direction: column; align-items: center; margin-top: -40px;""><img src=""images/pattern_7.png"" style=""width: 234px; height: 230px; margin-top: -50px;""><div style=""display: flex; justify-content: space-between; margin-top: 33px;""><img src=""images/choice_trial_10.png"" style=""width: 408px; height: 417px; margin-right: 200px;""><img src=""images/choice_trial_8.png"" style=""width: 408px; height: 417px;""></div></div>",j,delaylearn,learning,trial,PLXYpjF7dOQrX9uLH8yHRIB1x8g2,PLXYpjF7dOQrX9uLH8yHRIB1x8g2,5.0,images/choice_trial_10.png,images/choice_trial_8.png,images/pattern_7.png,j,j,750.0,10.0,8.0,6.0,1.0,41.0,1.0,1.0,8.0,280.0,,,,,,5c5844d8dd470300014ee3f1,16:52:18,27/03/2024
html-keyboard-response,227,484988,0.0-94.0-1.0,,"<div style=""display: flex; flex-direction: column; align-items: center; margin-top: -40px;""><img src=""images/pattern_7.png"" style=""width: 234px; height: 230px; margin-top: -50px;""><div style=""display: flex; justify-content: space-between; margin-top: 33px;""><img src=""images/choice_trial_8.png"" style=""width: 408px; height: 417px; margin-left:608px;""></div></div>",,delaylearn,learning,display_response,PLXYpjF7dOQrX9uLH8yHRIB1x8g2,PLXYpjF7dOQrX9uLH8yHRIB1x8g2,,,,,,,,,,,,,,,,,chosen stimuli: images/choice_trial_8.png,,,,,5c5844d8dd470300014ee3f1,16:52:18,27/03/2024
html-keyboard-response,228,485743,0.0-94.0-2.0,,,,delaylearn,learning,feedback_duration_window,PLXYpjF7dOQrX9uLH8yHRIB1x8g2,PLXYpjF7dOQrX9uLH8yHRIB1x8g2,,,,,,,,,,,,,,,,,,750.0,,,,5c5844d8dd470300014ee3f1,16:52:18,27/03/2024
html-keyboard-response,229,487258,0.0-94.0-3.0,,<div style='margin:auto;width: auto; font-size: 150%'><span style='font-weight: bold; font-size: 100px; color: green;'>+10 points!</span><br><br></div>,,delaylearn,learning,feedback_image_window,PLXYpjF7dOQrX9uLH8yHRIB1x8g2,PLXYpjF7dOQrX9uLH8yHRIB1x8g2,,,,,,,,,,,,,,,,,,,,,,5c5844d8dd470300014ee3f1,16:52:18,27/03/2024
html-keyboard-response,230,489237,0.0-95.0,,"<div style=""font-size:100px;"">+</div>",,delaylearn,learning,ITI,PLXYpjF7dOQrX9uLH8yHRIB1x8g2,PLXYpjF7dOQrX9uLH8yHRIB1x8g2,,,,,,,,,,,,,,,,,,,1969.0,,,5c5844d8dd470300014ee3f1,16:52:18,27/03/2024
