trial_type,trial_index,time_elapsed,internal_node_id,rt,stimulus,response,exp_name,exp_stage,test_part,subjectID,databaseID,counterbal,choice_stimuli_1,choice_stimuli_2,pattern_stimuli,rewarded_answer,correct_answer,feedback_duration_times,stim_left,stim_right,pair,leftright_counter,trial,response_correct,response_rewarded,chosen_stim,counter,displayed_choice,feedback_durations,ITI_duration,labels,rest_warning,prolificID,start_time,date
pavlovia,0,449,0.0-0.0,,,,,,,ZhWeSHRTTUfCl0Y6uOwX4qUdAcU2,,,,,,,,,,,,,,,,,,,,,,,5ecf82c4e84c2d01e7ba2f7a,15:54:24,26/03/2024
html-keyboard-response,1,3453,0.0-1.0,,"<div style=""font-size:100px;"">+</div>",,delaylearn,learning,pre_fixation,ZhWeSHRTTUfCl0Y6uOwX4qUdAcU2,,,,,,,,,,,,,,,,,,,,,,,5ecf82c4e84c2d01e7ba2f7a,15:54:24,26/03/2024
html-keyboard-response,2,4647,0.0-2.0-0.0,1191.199999999255,"<div style=""display: flex; flex-direction: column; align-items: center; margin-top: -40px;""><img src=""images/demo_images/pattern_1.png"" style=""width: 234px; height: 230px; margin-top: -50px;""><div style=""display: flex; justify-content: space-between; margin-top: 33px;""><img src=""images/demo_images/choice_trial_2.png"" style=""width: 408px; height: 417px; margin-right: 200px;""><img src=""images/demo_images/choice_trial_1.png"" style=""width: 408px; height: 417px;""></div></div>",j,delaylearn,learning,trial,ZhWeSHRTTUfCl0Y6uOwX4qUdAcU2,ZhWeSHRTTUfCl0Y6uOwX4qUdAcU2,3.0,images/demo_images/choice_trial_2.png,images/demo_images/choice_trial_1.png,images/demo_images/pattern_1.png,j,j,3000.0,2.0,1.0,20.0,1.0,1.0,1.0,1.0,1.0,10.0,,,,,,5ecf82c4e84c2d01e7ba2f7a,15:54:24,26/03/2024
html-keyboard-response,3,5652,0.0-2.0-1.0,,"<div style=""display: flex; flex-direction: column; align-items: center; margin-top: -40px;""><img src=""images/demo_images/pattern_1.png"" style=""width: 234px; height: 230px; margin-top: -50px;""><div style=""display: flex; justify-content: space-between; margin-top: 33px;""><img src=""images/demo_images/choice_trial_1.png"" style=""width: 408px; height: 417px; margin-left:608px;""></div></div>",,delaylearn,learning,display_response,ZhWeSHRTTUfCl0Y6uOwX4qUdAcU2,ZhWeSHRTTUfCl0Y6uOwX4qUdAcU2,,,,,,,,,,,,,,,,,chosen stimuli: images/demo_images/choice_trial_1.png,,,,,5ecf82c4e84c2d01e7ba2f7a,15:54:24,26/03/2024
html-keyboard-response,4,8657,0.0-2.0-2.0,,,,delaylearn,learning,feedback_duration_window,ZhWeSHRTTUfCl0Y6uOwX4qUdAcU2,ZhWeSHRTTUfCl0Y6uOwX4qUdAcU2,,,,,,,,,,,,,,,,,,3000.0,,,,5ecf82c4e84c2d01e7ba2f7a,15:54:24,26/03/2024
html-keyboard-response,5,10162,0.0-2.0-3.0,,<div style='margin:auto;width: auto; font-size: 150%'><span style='font-weight: bold; font-size: 100px; color: green;'>+10 points!</span><br><br></div>,,delaylearn,learning,feedback_image_window,ZhWeSHRTTUfCl0Y6uOwX4qUdAcU2,ZhWeSHRTTUfCl0Y6uOwX4qUdAcU2,,,,,,,,,,,,,,,,,,,,,,5ecf82c4e84c2d01e7ba2f7a,15:54:24,26/03/2024
html-keyboard-response,6,12537,0.0-3.0,,"<div style=""font-size:100px;"">+</div>",,delaylearn,learning,ITI,ZhWeSHRTTUfCl0Y6uOwX4qUdAcU2,ZhWeSHRTTUfCl0Y6uOwX4qUdAcU2,,,,,,,,,,,,,,,,,,,2372.0,,,5ecf82c4e84c2d01e7ba2f7a,15:54:24,26/03/2024
html-keyboard-response,7,13404,0.0-4.0-0.0,863.3000000007451,"<div style=""display: flex; flex-direction: column; align-items: center; margin-top: -40px;""><img src=""images/demo_images/pattern_1.png"" style=""width: 234px; height: 230px; margin-top: -50px;""><div style=""display: flex; justify-content: space-between; margin-top: 33px;""><img src=""images/demo_images/choice_trial_2.png"" style=""width: 408px; height: 417px; margin-right: 200px;""><img src=""images/demo_images/choice_trial_1.png"" style=""width: 408px; height: 417px;""></div></div>",j,delaylearn,learning,trial,ZhWeSHRTTUfCl0Y6uOwX4qUdAcU2,ZhWeSHRTTUfCl0Y6uOwX4qUdAcU2,3.0,images/demo_images/choice_trial_2.png,images/demo_images/choice_trial_1.png,images/demo_images/pattern_1.png,j,j,3000.0,2.0,1.0,20.0,1.0,2.0,1.0,1.0,1.0,20.0,,,,,,5ecf82c4e84c2d01e7ba2f7a,15:54:24,26/03/2024
html-keyboard-response,8,14409,0.0-4.0-1.0,,"<div style=""display: flex; flex-direction: column; align-items: center; margin-top: -40px;""><img src=""images/demo_images/pattern_1.png"" style=""width: 234px; height: 230px; margin-top: -50px;""><div style=""display: flex; justify-content: space-between; margin-top: 33px;""><img src=""images/demo_images/choice_trial_1.png"" style=""width: 408px; height: 417px; margin-left:608px;""></div></div>",,delaylearn,learning,display_response,ZhWeSHRTTUfCl0Y6uOwX4qUdAcU2,ZhWeSHRTTUfCl0Y6uOwX4qUdAcU2,,,,,,,,,,,,,,,,,chosen stimuli: images/demo_images/choice_trial_1.png,,,,,5ecf82c4e84c2d01e7ba2f7a,15:54:24,26/03/2024
html-keyboard-response,9,17414,0.0-4.0-2.0,,,,delaylearn,learning,feedback_duration_window,ZhWeSHRTTUfCl0Y6uOwX4qUdAcU2,ZhWeSHRTTUfCl0Y6uOwX4qUdAcU2,,,,,,,,,,,,,,,,,,3000.0,,,,5ecf82c4e84c2d01e7ba2f7a,15:54:24,26/03/2024
html-keyboard-response,10,18918,0.0-4.0-3.0,,<div style='margin:auto;width: auto; font-size: 150%'><span style='font-weight: bold; font-size: 100px; color: green;'>+10 points!</span><br><br></div>,,delaylearn,learning,feedback_image_window,ZhWeSHRTTUfCl0Y6uOwX4qUdAcU2,ZhWeSHRTTUfCl0Y6uOwX4qUdAcU2,,,,,,,,,,,,,,,,,,,,,,5ecf82c4e84c2d01e7ba2f7a,15:54:24,26/03/2024
html-keyboard-response,11,21311,0.0-5.0,,"<div style=""font-size:100px;"">+</div>",,delaylearn,learning,ITI,ZhWeSHRTTUfCl0Y6uOwX4qUdAcU2,ZhWeSHRTTUfCl0Y6uOwX4qUdAcU2,,,,,,,,,,,,,,,,,,,2390.0,,,5ecf82c4e84c2d01e7ba2f7a,15:54:24,26/03/2024
html-keyboard-response,12,22404,0.0-6.0-0.0,1090.5,"<div style=""display: flex; flex-direction: column; align-items: center; margin-top: -40px;""><img src=""images/demo_images/pattern_1.png"" style=""width: 234px; height: 230px; margin-top: -50px;""><div style=""display: flex; justify-content: space-between; margin-top: 33px;""><img src=""images/demo_images/choice_trial_1.png"" style=""width: 408px; height: 417px; margin-right: 200px;""><img src=""images/demo_images/choice_trial_2.png"" style=""width: 408px; height: 417px;""></div></div>",f,delaylearn,learning,trial,ZhWeSHRTTUfCl0Y6uOwX4qUdAcU2,ZhWeSHRTTUfCl0Y6uOwX4qUdAcU2,3.0,images/demo_images/choice_trial_1.png,images/demo_images/choice_trial_2.png,images/demo_images/pattern_1.png,j,f,3000.0,1.0,2.0,20.0,0.0,3.0,1.0,0.0,1.0,20.0,,,,,,5ecf82c4e84c2d01e7ba2f7a,15:54:24,26/03/2024
html-keyboard-response,13,23408,0.0-6.0-1.0,,"<div style=""display: flex; flex-direction: column; align-items: center; margin-top: -40px;""><img src=""images/demo_images/pattern_1.png"" style=""width: 234px; height: 230px; margin-top: -50px;""><div style=""display: flex; justify-content: space-between; margin-top: 33px;""><img src=""images/demo_images/choice_trial_1.png"" style=""width: 408px; height: 417px; margin-right: 608px;""></div></div>",,delaylearn,learning,display_response,ZhWeSHRTTUfCl0Y6uOwX4qUdAcU2,ZhWeSHRTTUfCl0Y6uOwX4qUdAcU2,,,,,,,,,,,,,,,,,chosen stimuli: images/demo_images/choice_trial_1.png,,,,,5ecf82c4e84c2d01e7ba2f7a,15:54:24,26/03/2024
html-keyboard-response,14,26411,0.0-6.0-2.0,,,,delaylearn,learning,feedback_duration_window,ZhWeSHRTTUfCl0Y6uOwX4qUdAcU2,ZhWeSHRTTUfCl0Y6uOwX4qUdAcU2,,,,,,,,,,,,,,,,,,3000.0,,,,5ecf82c4e84c2d01e7ba2f7a,15:54:24,26/03/2024
html-keyboard-response,15,27917,0.0-6.0-3.0,,<div style='margin:auto;width: auto; font-size: 150%'><span style='font-weight: bold; font-size: 100px; color: red;'>0 points!</span><br><br></div>,,delaylearn,learning,feedback_image_window,ZhWeSHRTTUfCl0Y6uOwX4qUdAcU2,ZhWeSHRTTUfCl0Y6uOwX4qUdAcU2,,,,,,,,,,,,,,,,,,,,,,5ecf82c4e84c2d01e7ba2f7a,15:54:24,26/03/2024
html-keyboard-response,16,29804,0.0-7.0,,"<div style=""font-size:100px;"">+</div>",,delaylearn,learning,ITI,ZhWeSHRTTUfCl0Y6uOwX4qUdAcU2,ZhWeSHRTTUfCl0Y6uOwX4qUdAcU2,,,,,,,,,,,,,,,,,,,1886.0,,,5ecf82c4e84c2d01e7ba2f7a,15:54:24,26/03/2024
html-keyboard-response,17,31080,0.0-8.0-0.0,1273.5,"<div style=""display: flex; flex-direction: column; align-items: center; margin-top: -40px;""><img src=""images/demo_images/pattern_1.png"" style=""width: 234px; height: 230px; margin-top: -50px;""><div style=""display: flex; justify-content: space-between; margin-top: 33px;""><img src=""images/demo_images/choice_trial_1.png"" style=""width: 408px; height: 417px; margin-right: 200px;""><img src=""images/demo_images/choice_trial_2.png"" style=""width: 408px; height: 417px;""></div></div>",f,delaylearn,learning,trial,ZhWeSHRTTUfCl0Y6uOwX4qUdAcU2,ZhWeSHRTTUfCl0Y6uOwX4qUdAcU2,3.0,images/demo_images/choice_trial_1.png,images/demo_images/choice_trial_2.png,images/demo_images/pattern_1.png,f,f,3000.0,1.0,2.0,20.0,0.0,4.0,1.0,1.0,1.0,30.0,,,,,,5ecf82c4e84c2d01e7ba2f7a,15:54:24,26/03/2024
html-keyboard-response,18,32083,0.0-8.0-1.0,,"<div style=""display: flex; flex-direction: column; align-items: center; margin-top: -40px;""><img src=""images/demo_images/pattern_1.png"" style=""width: 234px; height: 230px; margin-top: -50px;""><div style=""display: flex; justify-content: space-between; margin-top: 33px;""><img src=""images/demo_images/choice_trial_1.png"" style=""width: 408px; height: 417px; margin-right: 608px;""></div></div>",,delaylearn,learning,display_response,ZhWeSHRTTUfCl0Y6uOwX4qUdAcU2,ZhWeSHRTTUfCl0Y6uOwX4qUdAcU2,,,,,,,,,,,,,,,,,chosen stimuli: images/demo_images/choice_trial_1.png,,,,,5ecf82c4e84c2d01e7ba2f7a,15:54:24,26/03/2024
html-keyboard-response,19,35087,0.0-8.0-2.0,,,,delaylearn,learning,feedback_duration_window,ZhWeSHRTTUfCl0Y6uOwX4qUdAcU2,ZhWeSHRTTUfCl0Y6uOwX4qUdAcU2,,,,,,,,,,,,,,,,,,3000.0,,,,5ecf82c4e84c2d01e7ba2f7a,15:54:24,26/03/2024
html-keyboard-response,20,36592,0.0-8.0-3.0,,<div style='margin:auto;width: auto; font-size: 150%'><span style='font-weight: bold; font-size: 100px; color: green;'>+10 points!</span><br><br></div>,,delaylearn,learning,feedback_image_window,ZhWeSHRTTUfCl0Y6uOwX4qUdAcU2,ZhWeSHRTTUfCl0Y6uOwX4qUdAcU2,,,,,,,,,,,,,,,,,,,,,,5ecf82c4e84c2d01e7ba2f7a,15:54:24,26/03/2024
html-keyboard-response,21,37094,0.0-9.0-0.0,,,,,,mood_trial_fixation,ZhWeSHRTTUfCl0Y6uOwX4qUdAcU2,,,,,,,,,,,,,,,,,,,,,,,5ecf82c4e84c2d01e7ba2f7a,15:54:24,26/03/2024
lmdlab-html-vas-response,22,40862,0.0-9.0-1.0,2754.0,How happy are you right now?,0.5518518518518518,delaylearn,learning,mood_trial,ZhWeSHRTTUfCl0Y6uOwX4qUdAcU2,ZhWeSHRTTUfCl0Y6uOwX4qUdAcU2,,,,,,,,,,,,,,,,,,,,"['Very unhappy', 'Very happy']",,5ecf82c4e84c2d01e7ba2f7a,15:54:24,26/03/2024
html-keyboard-response,23,43219,0.0-10.0,,"<div style=""font-size:100px;"">+</div>",,delaylearn,learning,ITI,ZhWeSHRTTUfCl0Y6uOwX4qUdAcU2,ZhWeSHRTTUfCl0Y6uOwX4qUdAcU2,,,,,,,,,,,,,,,,,,,2353.0,,,5ecf82c4e84c2d01e7ba2f7a,15:54:24,26/03/2024
html-keyboard-response,24,44037,0.0-11.0-0.0,815.4000000022352,"<div style=""display: flex; flex-direction: column; align-items: center; margin-top: -40px;""><img src=""images/demo_images/pattern_1.png"" style=""width: 234px; height: 230px; margin-top: -50px;""><div style=""display: flex; justify-content: space-between; margin-top: 33px;""><img src=""images/demo_images/choice_trial_2.png"" style=""width: 408px; height: 417px; margin-right: 200px;""><img src=""images/demo_images/choice_trial_1.png"" style=""width: 408px; height: 417px;""></div></div>",j,delaylearn,learning,trial,ZhWeSHRTTUfCl0Y6uOwX4qUdAcU2,ZhWeSHRTTUfCl0Y6uOwX4qUdAcU2,3.0,images/demo_images/choice_trial_2.png,images/demo_images/choice_trial_1.png,images/demo_images/pattern_1.png,j,j,3000.0,2.0,1.0,20.0,1.0,5.0,1.0,1.0,1.0,40.0,,,,,,5ecf82c4e84c2d01e7ba2f7a,15:54:24,26/03/2024
html-keyboard-response,25,45040,0.0-11.0-1.0,,"<div style=""display: flex; flex-direction: column; align-items: center; margin-top: -40px;""><img src=""images/demo_images/pattern_1.png"" style=""width: 234px; height: 230px; margin-top: -50px;""><div style=""display: flex; justify-content: space-between; margin-top: 33px;""><img src=""images/demo_images/choice_trial_1.png"" style=""width: 408px; height: 417px; margin-left:608px;""></div></div>",,delaylearn,learning,display_response,ZhWeSHRTTUfCl0Y6uOwX4qUdAcU2,ZhWeSHRTTUfCl0Y6uOwX4qUdAcU2,,,,,,,,,,,,,,,,,chosen stimuli: images/demo_images/choice_trial_1.png,,,,,5ecf82c4e84c2d01e7ba2f7a,15:54:24,26/03/2024
html-keyboard-response,26,48042,0.0-11.0-2.0,,,,delaylearn,learning,feedback_duration_window,ZhWeSHRTTUfCl0Y6uOwX4qUdAcU2,ZhWeSHRTTUfCl0Y6uOwX4qUdAcU2,,,,,,,,,,,,,,,,,,3000.0,,,,5ecf82c4e84c2d01e7ba2f7a,15:54:24,26/03/2024
html-keyboard-response,27,49545,0.0-11.0-3.0,,<div style='margin:auto;width: auto; font-size: 150%'><span style='font-weight: bold; font-size: 100px; color: green;'>+10 points!</span><br><br></div>,,delaylearn,learning,feedback_image_window,ZhWeSHRTTUfCl0Y6uOwX4qUdAcU2,ZhWeSHRTTUfCl0Y6uOwX4qUdAcU2,,,,,,,,,,,,,,,,,,,,,,5ecf82c4e84c2d01e7ba2f7a,15:54:24,26/03/2024
html-keyboard-response,28,51835,0.0-12.0,,"<div style=""font-size:100px;"">+</div>",,delaylearn,learning,ITI,ZhWeSHRTTUfCl0Y6uOwX4qUdAcU2,ZhWeSHRTTUfCl0Y6uOwX4qUdAcU2,,,,,,,,,,,,,,,,,,,2285.0,,,5ecf82c4e84c2d01e7ba2f7a,15:54:24,26/03/2024
html-keyboard-response,29,52464,0.0-13.0-0.0,625.5,"<div style=""display: flex; flex-direction: column; align-items: center; margin-top: -40px;""><img src=""images/demo_images/pattern_1.png"" style=""width: 234px; height: 230px; margin-top: -50px;""><div style=""display: flex; justify-content: space-between; margin-top: 33px;""><img src=""images/demo_images/choice_trial_1.png"" style=""width: 408px; height: 417px; margin-right: 200px;""><img src=""images/demo_images/choice_trial_2.png"" style=""width: 408px; height: 417px;""></div></div>",f,delaylearn,learning,trial,ZhWeSHRTTUfCl0Y6uOwX4qUdAcU2,ZhWeSHRTTUfCl0Y6uOwX4qUdAcU2,3.0,images/demo_images/choice_trial_1.png,images/demo_images/choice_trial_2.png,images/demo_images/pattern_1.png,f,f,3000.0,1.0,2.0,20.0,0.0,6.0,1.0,1.0,1.0,50.0,,,,,,5ecf82c4e84c2d01e7ba2f7a,15:54:24,26/03/2024
html-keyboard-response,30,53468,0.0-13.0-1.0,,"<div style=""display: flex; flex-direction: column; align-items: center; margin-top: -40px;""><img src=""images/demo_images/pattern_1.png"" style=""width: 234px; height: 230px; margin-top: -50px;""><div style=""display: flex; justify-content: space-between; margin-top: 33px;""><img src=""images/demo_images/choice_trial_1.png"" style=""width: 408px; height: 417px; margin-right: 608px;""></div></div>",,delaylearn,learning,display_response,ZhWeSHRTTUfCl0Y6uOwX4qUdAcU2,ZhWeSHRTTUfCl0Y6uOwX4qUdAcU2,,,,,,,,,,,,,,,,,chosen stimuli: images/demo_images/choice_trial_1.png,,,,,5ecf82c4e84c2d01e7ba2f7a,15:54:24,26/03/2024
html-keyboard-response,31,56473,0.0-13.0-2.0,,,,delaylearn,learning,feedback_duration_window,ZhWeSHRTTUfCl0Y6uOwX4qUdAcU2,ZhWeSHRTTUfCl0Y6uOwX4qUdAcU2,,,,,,,,,,,,,,,,,,3000.0,,,,5ecf82c4e84c2d01e7ba2f7a,15:54:24,26/03/2024
html-keyboard-response,32,57979,0.0-13.0-3.0,,<div style='margin:auto;width: auto; font-size: 150%'><span style='font-weight: bold; font-size: 100px; color: green;'>+10 points!</span><br><br></div>,,delaylearn,learning,feedback_image_window,ZhWeSHRTTUfCl0Y6uOwX4qUdAcU2,ZhWeSHRTTUfCl0Y6uOwX4qUdAcU2,,,,,,,,,,,,,,,,,,,,,,5ecf82c4e84c2d01e7ba2f7a,15:54:24,26/03/2024
html-keyboard-response,33,60066,0.0-14.0,,"<div style=""font-size:100px;"">+</div>",,delaylearn,learning,ITI,ZhWeSHRTTUfCl0Y6uOwX4qUdAcU2,ZhWeSHRTTUfCl0Y6uOwX4qUdAcU2,,,,,,,,,,,,,,,,,,,2085.0,,,5ecf82c4e84c2d01e7ba2f7a,15:54:24,26/03/2024
html-keyboard-response,34,60744,0.0-15.0-0.0,675.1000000014901,"<div style=""display: flex; flex-direction: column; align-items: center; margin-top: -40px;""><img src=""images/demo_images/pattern_1.png"" style=""width: 234px; height: 230px; margin-top: -50px;""><div style=""display: flex; justify-content: space-between; margin-top: 33px;""><img src=""images/demo_images/choice_trial_2.png"" style=""width: 408px; height: 417px; margin-right: 200px;""><img src=""images/demo_images/choice_trial_1.png"" style=""width: 408px; height: 417px;""></div></div>",j,delaylearn,learning,trial,ZhWeSHRTTUfCl0Y6uOwX4qUdAcU2,ZhWeSHRTTUfCl0Y6uOwX4qUdAcU2,3.0,images/demo_images/choice_trial_2.png,images/demo_images/choice_trial_1.png,images/demo_images/pattern_1.png,j,j,3000.0,2.0,1.0,20.0,1.0,7.0,1.0,1.0,1.0,60.0,,,,,,5ecf82c4e84c2d01e7ba2f7a,15:54:24,26/03/2024
html-keyboard-response,35,61747,0.0-15.0-1.0,,"<div style=""display: flex; flex-direction: column; align-items: center; margin-top: -40px;""><img src=""images/demo_images/pattern_1.png"" style=""width: 234px; height: 230px; margin-top: -50px;""><div style=""display: flex; justify-content: space-between; margin-top: 33px;""><img src=""images/demo_images/choice_trial_1.png"" style=""width: 408px; height: 417px; margin-left:608px;""></div></div>",,delaylearn,learning,display_response,ZhWeSHRTTUfCl0Y6uOwX4qUdAcU2,ZhWeSHRTTUfCl0Y6uOwX4qUdAcU2,,,,,,,,,,,,,,,,,chosen stimuli: images/demo_images/choice_trial_1.png,,,,,5ecf82c4e84c2d01e7ba2f7a,15:54:24,26/03/2024
html-keyboard-response,36,64750,0.0-15.0-2.0,,,,delaylearn,learning,feedback_duration_window,ZhWeSHRTTUfCl0Y6uOwX4qUdAcU2,ZhWeSHRTTUfCl0Y6uOwX4qUdAcU2,,,,,,,,,,,,,,,,,,3000.0,,,,5ecf82c4e84c2d01e7ba2f7a,15:54:24,26/03/2024
html-keyboard-response,37,66255,0.0-15.0-3.0,,<div style='margin:auto;width: auto; font-size: 150%'><span style='font-weight: bold; font-size: 100px; color: green;'>+10 points!</span><br><br></div>,,delaylearn,learning,feedback_image_window,ZhWeSHRTTUfCl0Y6uOwX4qUdAcU2,ZhWeSHRTTUfCl0Y6uOwX4qUdAcU2,,,,,,,,,,,,,,,,,,,,,,5ecf82c4e84c2d01e7ba2f7a,15:54:24,26/03/2024
html-keyboard-response,38,68438,0.0-16.0,,"<div style=""font-size:100px;"">+</div>",,delaylearn,learning,ITI,ZhWeSHRTTUfCl0Y6uOwX4qUdAcU2,ZhWeSHRTTUfCl0Y6uOwX4qUdAcU2,,,,,,,,,,,,,,,,,,,2179.0,,,5ecf82c4e84c2d01e7ba2f7a,15:54:24,26/03/2024
html-keyboard-response,39,69151,0.0-17.0-0.0,710.4000000022352,"<div style=""display: flex; flex-direction: column; align-items: center; margin-top: -40px;""><img src=""images/demo_images/pattern_1.png"" style=""width: 234px; height: 230px; margin-top: -50px;""><div style=""display: flex; justify-content: space-between; margin-top: 33px;""><img src=""images/demo_images/choice_trial_1.png"" style=""width: 408px; height: 417px; margin-right: 200px;""><img src=""images/demo_images/choice_trial_2.png"" style=""width: 408px; height: 417px;""></div></div>",f,delaylearn,learning,trial,ZhWeSHRTTUfCl0Y6uOwX4qUdAcU2,ZhWeSHRTTUfCl0Y6uOwX4qUdAcU2,3.0,images/demo_images/choice_trial_1.png,images/demo_images/choice_trial_2.png,images/demo_images/pattern_1.png,f,f,3000.0,1.0,2.0,20.0,0.0,8.0,1.0,1.0,1.0,70.0,,,,,,5ecf82c4e84c2d01e7ba2f7a,15:54:24,26/03/2024
html-keyboard-response,40,70157,0.0-17.0-1.0,,"<div style=""display: flex; flex-direction: column; align-items: center; margin-top: -40px;""><img src=""images/demo_images/pattern_1.png"" style=""width: 234px; height: 230px; margin-top: -50px;""><div style=""display: flex; justify-content: space-between; margin-top: 33px;""><img src=""images/demo_images/choice_trial_1.png"" style=""width: 408px; height: 417px; margin-right: 608px;""></div></div>",,delaylearn,learning,display_response,ZhWeSHRTTUfCl0Y6uOwX4qUdAcU2,ZhWeSHRTTUfCl0Y6uOwX4qUdAcU2,,,,,,,,,,,,,,,,,chosen stimuli: images/demo_images/choice_trial_1.png,,,,,5ecf82c4e84c2d01e7ba2f7a,15:54:24,26/03/2024
html-keyboard-response,41,73161,0.0-17.0-2.0,,,,delaylearn,learning,feedback_duration_window,ZhWeSHRTTUfCl0Y6uOwX4qUdAcU2,ZhWeSHRTTUfCl0Y6uOwX4qUdAcU2,,,,,,,,,,,,,,,,,,3000.0,,,,5ecf82c4e84c2d01e7ba2f7a,15:54:24,26/03/2024
html-keyboard-response,42,74665,0.0-17.0-3.0,,<div style='margin:auto;width: auto; font-size: 150%'><span style='font-weight: bold; font-size: 100px; color: green;'>+10 points!</span><br><br></div>,,delaylearn,learning,feedback_image_window,ZhWeSHRTTUfCl0Y6uOwX4qUdAcU2,ZhWeSHRTTUfCl0Y6uOwX4qUdAcU2,,,,,,,,,,,,,,,,,,,,,,5ecf82c4e84c2d01e7ba2f7a,15:54:24,26/03/2024
html-button-response,43,77002,0.0-18.0,2334.900000002235,"
  <div style=""display: flex; align-items: center; justify-content: center; height: 80vh;"">
  <div>
          <img src=""images/inst_demo_finish.png"" style=""width: 80vw; height:auto;"">
          <br><br>
      </div>
      <br><br>
  </div>",0,,,,ZhWeSHRTTUfCl0Y6uOwX4qUdAcU2,,,,,,,,,,,,,,,,,,,,,,,5ecf82c4e84c2d01e7ba2f7a,15:54:24,26/03/2024
html-keyboard-response,44,79875,0.0-19.0,2872.300000000745,"
  <div style=""display: flex; align-items: center; justify-content: center; height: 80vh;"">
  <div>
          <img src=""images/inst_6.png"" style=""width: 80vw; height:auto;"">
          <br><br>
      </div>
      <br><br>
  </div>",f,,,,ZhWeSHRTTUfCl0Y6uOwX4qUdAcU2,,,,,,,,,,,,,,,,,,,,,,,5ecf82c4e84c2d01e7ba2f7a,15:54:24,26/03/2024
html-keyboard-response,45,82877,0.0-20.0,,"<div style=""font-size:100px;"">+</div>",,delaylearn,learning,pre_fixation,ZhWeSHRTTUfCl0Y6uOwX4qUdAcU2,,,,,,,,,,,,,,,,,,,,,,,5ecf82c4e84c2d01e7ba2f7a,15:54:24,26/03/2024
html-keyboard-response,46,84816,0.0-21.0,,"<div style=""font-size:100px;"">+</div>",,delaylearn,learning,ITI,ZhWeSHRTTUfCl0Y6uOwX4qUdAcU2,ZhWeSHRTTUfCl0Y6uOwX4qUdAcU2,,,,,,,,,,,,,,,,,,,1936.0,,,5ecf82c4e84c2d01e7ba2f7a,15:54:24,26/03/2024
html-keyboard-response,47,86253,0.0-22.0-0.0,1434.8999999985099,"<div style=""display: flex; flex-direction: column; align-items: center; margin-top: -40px;""><img src=""images/pattern_3.png"" style=""width: 234px; height: 230px; margin-top: -50px;""><div style=""display: flex; justify-content: space-between; margin-top: 33px;""><img src=""images/choice_trial_13.png"" style=""width: 408px; height: 417px; margin-right: 200px;""><img src=""images/choice_trial_10.png"" style=""width: 408px; height: 417px;""></div></div>",f,delaylearn,learning,trial,ZhWeSHRTTUfCl0Y6uOwX4qUdAcU2,ZhWeSHRTTUfCl0Y6uOwX4qUdAcU2,3.0,images/choice_trial_13.png,images/choice_trial_10.png,images/pattern_3.png,f,f,7000.0,13.0,10.0,2.0,0.0,9.0,1.0,1.0,13.0,80.0,,,,,,5ecf82c4e84c2d01e7ba2f7a,15:54:24,26/03/2024
html-keyboard-response,48,87256,0.0-22.0-1.0,,"<div style=""display: flex; flex-direction: column; align-items: center; margin-top: -40px;""><img src=""images/pattern_3.png"" style=""width: 234px; height: 230px; margin-top: -50px;""><div style=""display: flex; justify-content: space-between; margin-top: 33px;""><img src=""images/choice_trial_13.png"" style=""width: 408px; height: 417px; margin-right: 608px;""></div></div>",,delaylearn,learning,display_response,ZhWeSHRTTUfCl0Y6uOwX4qUdAcU2,ZhWeSHRTTUfCl0Y6uOwX4qUdAcU2,,,,,,,,,,,,,,,,,chosen stimuli: images/choice_trial_13.png,,,,,5ecf82c4e84c2d01e7ba2f7a,15:54:24,26/03/2024
html-keyboard-response,49,94258,0.0-22.0-2.0,,,,delaylearn,learning,feedback_duration_window,ZhWeSHRTTUfCl0Y6uOwX4qUdAcU2,ZhWeSHRTTUfCl0Y6uOwX4qUdAcU2,,,,,,,,,,,,,,,,,,7000.0,,,,5ecf82c4e84c2d01e7ba2f7a,15:54:24,26/03/2024
html-keyboard-response,50,95763,0.0-22.0-3.0,,<div style='margin:auto;width: auto; font-size: 150%'><span style='font-weight: bold; font-size: 100px; color: green;'>+10 points!</span><br><br></div>,,delaylearn,learning,feedback_image_window,ZhWeSHRTTUfCl0Y6uOwX4qUdAcU2,ZhWeSHRTTUfCl0Y6uOwX4qUdAcU2,,,,,,,,,,,,,,,,,,,,,,5ecf82c4e84c2d01e7ba2f7a,15:54:24,26/03/2024
html-keyboard-response,51,97685,0.0-23.0,,"<div style=""font-size:100px;"">+</div>",,delaylearn,learning,ITI,ZhWeSHRTTUfCl0Y6uOwX4qUdAcU2,ZhWeSHRTTUfCl0Y6uOwX4qUdAcU2,,,,,,,,,,,,,,,,,,,1920.0,,,5ecf82c4e84c2d01e7ba2f7a,15:54:24,26/03/2024
html-keyboard-response,52,99134,0.0-24.0-0.0,1445.800000000745,"<div style=""display: flex; flex-direction: column; align-items: center; margin-top: -40px;""><img src=""images/pattern_7.png"" style=""width: 234px; height: 230px; margin-top: -50px;""><div style=""display: flex; justify-content: space-between; margin-top: 33px;""><img src=""images/choice_trial_12.png"" style=""width: 408px; height: 417px; margin-right: 200px;""><img src=""images/choice_trial_6.png"" style=""width: 408px; height: 417px;""></div></div>",j,delaylearn,learning,trial,ZhWeSHRTTUfCl0Y6uOwX4qUdAcU2,ZhWeSHRTTUfCl0Y6uOwX4qUdAcU2,3.0,images/choice_trial_12.png,images/choice_trial_6.png,images/pattern_7.png,j,j,750.0,12.0,6.0,6.0,1.0,10.0,1.0,1.0,6.0,90.0,,,,,,5ecf82c4e84c2d01e7ba2f7a,15:54:24,26/03/2024
html-keyboard-response,53,100137,0.0-24.0-1.0,,"<div style=""display: flex; flex-direction: column; align-items: center; margin-top: -40px;""><img src=""images/pattern_7.png"" style=""width: 234px; height: 230px; margin-top: -50px;""><div style=""display: flex; justify-content: space-between; margin-top: 33px;""><img src=""images/choice_trial_6.png"" style=""width: 408px; height: 417px; margin-left:608px;""></div></div>",,delaylearn,learning,display_response,ZhWeSHRTTUfCl0Y6uOwX4qUdAcU2,ZhWeSHRTTUfCl0Y6uOwX4qUdAcU2,,,,,,,,,,,,,,,,,chosen stimuli: images/choice_trial_6.png,,,,,5ecf82c4e84c2d01e7ba2f7a,15:54:24,26/03/2024
html-keyboard-response,54,100890,0.0-24.0-2.0,,,,delaylearn,learning,feedback_duration_window,ZhWeSHRTTUfCl0Y6uOwX4qUdAcU2,ZhWeSHRTTUfCl0Y6uOwX4qUdAcU2,,,,,,,,,,,,,,,,,,750.0,,,,5ecf82c4e84c2d01e7ba2f7a,15:54:24,26/03/2024
html-keyboard-response,55,102393,0.0-24.0-3.0,,<div style='margin:auto;width: auto; font-size: 150%'><span style='font-weight: bold; font-size: 100px; color: green;'>+10 points!</span><br><br></div>,,delaylearn,learning,feedback_image_window,ZhWeSHRTTUfCl0Y6uOwX4qUdAcU2,ZhWeSHRTTUfCl0Y6uOwX4qUdAcU2,,,,,,,,,,,,,,,,,,,,,,5ecf82c4e84c2d01e7ba2f7a,15:54:24,26/03/2024
html-keyboard-response,56,104861,0.0-25.0,,"<div style=""font-size:100px;"">+</div>",,delaylearn,learning,ITI,ZhWeSHRTTUfCl0Y6uOwX4qUdAcU2,ZhWeSHRTTUfCl0Y6uOwX4qUdAcU2,,,,,,,,,,,,,,,,,,,2465.0,,,5ecf82c4e84c2d01e7ba2f7a,15:54:24,26/03/2024
html-keyboard-response,57,106311,0.0-26.0-0.0,1447.7000000029802,"<div style=""display: flex; flex-direction: column; align-items: center; margin-top: -40px;""><img src=""images/pattern_4.png"" style=""width: 234px; height: 230px; margin-top: -50px;""><div style=""display: flex; justify-content: space-between; margin-top: 33px;""><img src=""images/choice_trial_15.png"" style=""width: 408px; height: 417px; margin-right: 200px;""><img src=""images/choice_trial_9.png"" style=""width: 408px; height: 417px;""></div></div>",j,delaylearn,learning,trial,ZhWeSHRTTUfCl0Y6uOwX4qUdAcU2,ZhWeSHRTTUfCl0Y6uOwX4qUdAcU2,3.0,images/choice_trial_15.png,images/choice_trial_9.png,images/pattern_4.png,f,f,7000.0,15.0,9.0,3.0,0.0,11.0,0.0,0.0,9.0,90.0,,,,,,5ecf82c4e84c2d01e7ba2f7a,15:54:24,26/03/2024
html-keyboard-response,58,107314,0.0-26.0-1.0,,"<div style=""display: flex; flex-direction: column; align-items: center; margin-top: -40px;""><img src=""images/pattern_4.png"" style=""width: 234px; height: 230px; margin-top: -50px;""><div style=""display: flex; justify-content: space-between; margin-top: 33px;""><img src=""images/choice_trial_9.png"" style=""width: 408px; height: 417px; margin-left:608px;""></div></div>",,delaylearn,learning,display_response,ZhWeSHRTTUfCl0Y6uOwX4qUdAcU2,ZhWeSHRTTUfCl0Y6uOwX4qUdAcU2,,,,,,,,,,,,,,,,,chosen stimuli: images/choice_trial_9.png,,,,,5ecf82c4e84c2d01e7ba2f7a,15:54:24,26/03/2024
html-keyboard-response,59,114317,0.0-26.0-2.0,,,,delaylearn,learning,feedback_duration_window,ZhWeSHRTTUfCl0Y6uOwX4qUdAcU2,ZhWeSHRTTUfCl0Y6uOwX4qUdAcU2,,,,,,,,,,,,,,,,,,7000.0,,,,5ecf82c4e84c2d01e7ba2f7a,15:54:24,26/03/2024
html-keyboard-response,60,115821,0.0-26.0-3.0,,<div style='margin:auto;width: auto; font-size: 150%'><span style='font-weight: bold; font-size: 100px; color: red;'>0 points!</span><br><br></div>,,delaylearn,learning,feedback_image_window,ZhWeSHRTTUfCl0Y6uOwX4qUdAcU2,ZhWeSHRTTUfCl0Y6uOwX4qUdAcU2,,,,,,,,,,,,,,,,,,,,,,5ecf82c4e84c2d01e7ba2f7a,15:54:24,26/03/2024
html-keyboard-response,61,118312,0.0-27.0,,"<div style=""font-size:100px;"">+</div>",,delaylearn,learning,ITI,ZhWeSHRTTUfCl0Y6uOwX4qUdAcU2,ZhWeSHRTTUfCl0Y6uOwX4qUdAcU2,,,,,,,,,,,,,,,,,,,2488.0,,,5ecf82c4e84c2d01e7ba2f7a,15:54:24,26/03/2024
html-keyboard-response,62,119775,0.0-28.0-0.0,1460.199999999255,"<div style=""display: flex; flex-direction: column; align-items: center; margin-top: -40px;""><img src=""images/pattern_5.png"" style=""width: 234px; height: 230px; margin-top: -50px;""><div style=""display: flex; justify-content: space-between; margin-top: 33px;""><img src=""images/choice_trial_2.png"" style=""width: 408px; height: 417px; margin-right: 200px;""><img src=""images/choice_trial_11.png"" style=""width: 408px; height: 417px;""></div></div>",f,delaylearn,learning,trial,ZhWeSHRTTUfCl0Y6uOwX4qUdAcU2,ZhWeSHRTTUfCl0Y6uOwX4qUdAcU2,3.0,images/choice_trial_2.png,images/choice_trial_11.png,images/pattern_5.png,j,j,750.0,2.0,11.0,4.0,1.0,12.0,0.0,0.0,2.0,90.0,,,,,,5ecf82c4e84c2d01e7ba2f7a,15:54:24,26/03/2024
html-keyboard-response,63,120778,0.0-28.0-1.0,,"<div style=""display: flex; flex-direction: column; align-items: center; margin-top: -40px;""><img src=""images/pattern_5.png"" style=""width: 234px; height: 230px; margin-top: -50px;""><div style=""display: flex; justify-content: space-between; margin-top: 33px;""><img src=""images/choice_trial_2.png"" style=""width: 408px; height: 417px; margin-right: 608px;""></div></div>",,delaylearn,learning,display_response,ZhWeSHRTTUfCl0Y6uOwX4qUdAcU2,ZhWeSHRTTUfCl0Y6uOwX4qUdAcU2,,,,,,,,,,,,,,,,,chosen stimuli: images/choice_trial_2.png,,,,,5ecf82c4e84c2d01e7ba2f7a,15:54:24,26/03/2024
html-keyboard-response,64,121529,0.0-28.0-2.0,,,,delaylearn,learning,feedback_duration_window,ZhWeSHRTTUfCl0Y6uOwX4qUdAcU2,ZhWeSHRTTUfCl0Y6uOwX4qUdAcU2,,,,,,,,,,,,,,,,,,750.0,,,,5ecf82c4e84c2d01e7ba2f7a,15:54:24,26/03/2024
html-keyboard-response,65,123035,0.0-28.0-3.0,,<div style='margin:auto;width: auto; font-size: 150%'><span style='font-weight: bold; font-size: 100px; color: red;'>0 points!</span><br><br></div>,,delaylearn,learning,feedback_image_window,ZhWeSHRTTUfCl0Y6uOwX4qUdAcU2,ZhWeSHRTTUfCl0Y6uOwX4qUdAcU2,,,,,,,,,,,,,,,,,,,,,,5ecf82c4e84c2d01e7ba2f7a,15:54:24,26/03/2024
html-keyboard-response,66,124684,0.0-29.0,,"<div style=""font-size:100px;"">+</div>",,delaylearn,learning,ITI,ZhWeSHRTTUfCl0Y6uOwX4qUdAcU2,ZhWeSHRTTUfCl0Y6uOwX4qUdAcU2,,,,,,,,,,,,,,,,,,,1644.0,,,5ecf82c4e84c2d01e7ba2f7a,15:54:24,26/03/2024
html-keyboard-response,67,125743,0.0-30.0-0.0,1056.9000000022352,"<div style=""display: flex; flex-direction: column; align-items: center; margin-top: -40px;""><img src=""images/pattern_6.png"" style=""width: 234px; height: 230px; margin-top: -50px;""><div style=""display: flex; justify-content: space-between; margin-top: 33px;""><img src=""images/choice_trial_16.png"" style=""width: 408px; height: 417px; margin-right: 200px;""><img src=""images/choice_trial_3.png"" style=""width: 408px; height: 417px;""></div></div>",j,delaylearn,learning,trial,ZhWeSHRTTUfCl0Y6uOwX4qUdAcU2,ZhWeSHRTTUfCl0Y6uOwX4qUdAcU2,3.0,images/choice_trial_16.png,images/choice_trial_3.png,images/pattern_6.png,j,f,750.0,16.0,3.0,5.0,0.0,13.0,0.0,1.0,3.0,100.0,,,,,,5ecf82c4e84c2d01e7ba2f7a,15:54:24,26/03/2024
html-keyboard-response,68,126746,0.0-30.0-1.0,,"<div style=""display: flex; flex-direction: column; align-items: center; margin-top: -40px;""><img src=""images/pattern_6.png"" style=""width: 234px; height: 230px; margin-top: -50px;""><div style=""display: flex; justify-content: space-between; margin-top: 33px;""><img src=""images/choice_trial_3.png"" style=""width: 408px; height: 417px; margin-left:608px;""></div></div>",,delaylearn,learning,display_response,ZhWeSHRTTUfCl0Y6uOwX4qUdAcU2,ZhWeSHRTTUfCl0Y6uOwX4qUdAcU2,,,,,,,,,,,,,,,,,chosen stimuli: images/choice_trial_3.png,,,,,5ecf82c4e84c2d01e7ba2f7a,15:54:24,26/03/2024
html-keyboard-response,69,127499,0.0-30.0-2.0,,,,delaylearn,learning,feedback_duration_window,ZhWeSHRTTUfCl0Y6uOwX4qUdAcU2,ZhWeSHRTTUfCl0Y6uOwX4qUdAcU2,,,,,,,,,,,,,,,,,,750.0,,,,5ecf82c4e84c2d01e7ba2f7a,15:54:24,26/03/2024
html-keyboard-response,70,129003,0.0-30.0-3.0,,<div style='margin:auto;width: auto; font-size: 150%'><span style='font-weight: bold; font-size: 100px; color: green;'>+10 points!</span><br><br></div>,,delaylearn,learning,feedback_image_window,ZhWeSHRTTUfCl0Y6uOwX4qUdAcU2,ZhWeSHRTTUfCl0Y6uOwX4qUdAcU2,,,,,,,,,,,,,,,,,,,,,,5ecf82c4e84c2d01e7ba2f7a,15:54:24,26/03/2024
html-keyboard-response,71,129505,0.0-31.0-0.0,,,,,,mood_trial_fixation,ZhWeSHRTTUfCl0Y6uOwX4qUdAcU2,,,,,,,,,,,,,,,,,,,,,,,5ecf82c4e84c2d01e7ba2f7a,15:54:24,26/03/2024
lmdlab-html-vas-response,72,133818,0.0-31.0-1.0,3307.0,How happy are you right now?,0.5037037037037037,delaylearn,learning,mood_trial,ZhWeSHRTTUfCl0Y6uOwX4qUdAcU2,ZhWeSHRTTUfCl0Y6uOwX4qUdAcU2,,,,,,,,,,,,,,,,,,,,"['Very unhappy', 'Very happy']",,5ecf82c4e84c2d01e7ba2f7a,15:54:24,26/03/2024
html-keyboard-response,73,135791,0.0-32.0,,"<div style=""font-size:100px;"">+</div>",,delaylearn,learning,ITI,ZhWeSHRTTUfCl0Y6uOwX4qUdAcU2,ZhWeSHRTTUfCl0Y6uOwX4qUdAcU2,,,,,,,,,,,,,,,,,,,1968.0,,,5ecf82c4e84c2d01e7ba2f7a,15:54:24,26/03/2024
html-keyboard-response,74,137019,0.0-33.0-0.0,1224.5,"<div style=""display: flex; flex-direction: column; align-items: center; margin-top: -40px;""><img src=""images/pattern_1.png"" style=""width: 234px; height: 230px; margin-top: -50px;""><div style=""display: flex; justify-content: space-between; margin-top: 33px;""><img src=""images/choice_trial_8.png"" style=""width: 408px; height: 417px; margin-right: 200px;""><img src=""images/choice_trial_14.png"" style=""width: 408px; height: 417px;""></div></div>",j,delaylearn,learning,trial,ZhWeSHRTTUfCl0Y6uOwX4qUdAcU2,ZhWeSHRTTUfCl0Y6uOwX4qUdAcU2,3.0,images/choice_trial_8.png,images/choice_trial_14.png,images/pattern_1.png,j,j,7000.0,8.0,14.0,1.0,1.0,14.0,1.0,1.0,14.0,110.0,,,,,,5ecf82c4e84c2d01e7ba2f7a,15:54:24,26/03/2024
html-keyboard-response,75,138022,0.0-33.0-1.0,,"<div style=""display: flex; flex-direction: column; align-items: center; margin-top: -40px;""><img src=""images/pattern_1.png"" style=""width: 234px; height: 230px; margin-top: -50px;""><div style=""display: flex; justify-content: space-between; margin-top: 33px;""><img src=""images/choice_trial_14.png"" style=""width: 408px; height: 417px; margin-left:608px;""></div></div>",,delaylearn,learning,display_response,ZhWeSHRTTUfCl0Y6uOwX4qUdAcU2,ZhWeSHRTTUfCl0Y6uOwX4qUdAcU2,,,,,,,,,,,,,,,,,chosen stimuli: images/choice_trial_14.png,,,,,5ecf82c4e84c2d01e7ba2f7a,15:54:24,26/03/2024
html-keyboard-response,76,145024,0.0-33.0-2.0,,,,delaylearn,learning,feedback_duration_window,ZhWeSHRTTUfCl0Y6uOwX4qUdAcU2,ZhWeSHRTTUfCl0Y6uOwX4qUdAcU2,,,,,,,,,,,,,,,,,,7000.0,,,,5ecf82c4e84c2d01e7ba2f7a,15:54:24,26/03/2024
html-keyboard-response,77,146528,0.0-33.0-3.0,,<div style='margin:auto;width: auto; font-size: 150%'><span style='font-weight: bold; font-size: 100px; color: green;'>+10 points!</span><br><br></div>,,delaylearn,learning,feedback_image_window,ZhWeSHRTTUfCl0Y6uOwX4qUdAcU2,ZhWeSHRTTUfCl0Y6uOwX4qUdAcU2,,,,,,,,,,,,,,,,,,,,,,5ecf82c4e84c2d01e7ba2f7a,15:54:24,26/03/2024
html-keyboard-response,78,148234,0.0-34.0,,"<div style=""font-size:100px;"">+</div>",,delaylearn,learning,ITI,ZhWeSHRTTUfCl0Y6uOwX4qUdAcU2,ZhWeSHRTTUfCl0Y6uOwX4qUdAcU2,,,,,,,,,,,,,,,,,,,1702.0,,,5ecf82c4e84c2d01e7ba2f7a,15:54:24,26/03/2024
html-keyboard-response,79,149322,0.0-35.0-0.0,1085.199999999255,"<div style=""display: flex; flex-direction: column; align-items: center; margin-top: -40px;""><img src=""images/pattern_3.png"" style=""width: 234px; height: 230px; margin-top: -50px;""><div style=""display: flex; justify-content: space-between; margin-top: 33px;""><img src=""images/choice_trial_10.png"" style=""width: 408px; height: 417px; margin-right: 200px;""><img src=""images/choice_trial_13.png"" style=""width: 408px; height: 417px;""></div></div>",j,delaylearn,learning,trial,ZhWeSHRTTUfCl0Y6uOwX4qUdAcU2,ZhWeSHRTTUfCl0Y6uOwX4qUdAcU2,3.0,images/choice_trial_10.png,images/choice_trial_13.png,images/pattern_3.png,f,j,7000.0,10.0,13.0,2.0,1.0,15.0,1.0,0.0,13.0,110.0,,,,,,5ecf82c4e84c2d01e7ba2f7a,15:54:24,26/03/2024
html-keyboard-response,80,150325,0.0-35.0-1.0,,"<div style=""display: flex; flex-direction: column; align-items: center; margin-top: -40px;""><img src=""images/pattern_3.png"" style=""width: 234px; height: 230px; margin-top: -50px;""><div style=""display: flex; justify-content: space-between; margin-top: 33px;""><img src=""images/choice_trial_13.png"" style=""width: 408px; height: 417px; margin-left:608px;""></div></div>",,delaylearn,learning,display_response,ZhWeSHRTTUfCl0Y6uOwX4qUdAcU2,ZhWeSHRTTUfCl0Y6uOwX4qUdAcU2,,,,,,,,,,,,,,,,,chosen stimuli: images/choice_trial_13.png,,,,,5ecf82c4e84c2d01e7ba2f7a,15:54:24,26/03/2024
html-keyboard-response,81,157327,0.0-35.0-2.0,,,,delaylearn,learning,feedback_duration_window,ZhWeSHRTTUfCl0Y6uOwX4qUdAcU2,ZhWeSHRTTUfCl0Y6uOwX4qUdAcU2,,,,,,,,,,,,,,,,,,7000.0,,,,5ecf82c4e84c2d01e7ba2f7a,15:54:24,26/03/2024
html-keyboard-response,82,158833,0.0-35.0-3.0,,<div style='margin:auto;width: auto; font-size: 150%'><span style='font-weight: bold; font-size: 100px; color: red;'>0 points!</span><br><br></div>,,delaylearn,learning,feedback_image_window,ZhWeSHRTTUfCl0Y6uOwX4qUdAcU2,ZhWeSHRTTUfCl0Y6uOwX4qUdAcU2,,,,,,,,,,,,,,,,,,,,,,5ecf82c4e84c2d01e7ba2f7a,15:54:24,26/03/2024
html-keyboard-response,83,161262,0.0-36.0,,"<div style=""font-size:100px;"">+</div>",,delaylearn,learning,ITI,ZhWeSHRTTUfCl0Y6uOwX4qUdAcU2,ZhWeSHRTTUfCl0Y6uOwX4qUdAcU2,,,,,,,,,,,,,,,,,,,2424.0,,,5ecf82c4e84c2d01e7ba2f7a,15:54:24,26/03/2024
html-keyboard-response,84,163239,0.0-37.0-0.0,1974.3999999985099,"<div style=""display: flex; flex-direction: column; align-items: center; margin-top: -40px;""><img src=""images/pattern_5.png"" style=""width: 234px; height: 230px; margin-top: -50px;""><div style=""display: flex; justify-content: space-between; margin-top: 33px;""><img src=""images/choice_trial_11.png"" style=""width: 408px; height: 417px; margin-right: 200px;""><img src=""images/choice_trial_2.png"" style=""width: 408px; height: 417px;""></div></div>",j,delaylearn,learning,trial,ZhWeSHRTTUfCl0Y6uOwX4qUdAcU2,ZhWeSHRTTUfCl0Y6uOwX4qUdAcU2,3.0,images/choice_trial_11.png,images/choice_trial_2.png,images/pattern_5.png,f,f,750.0,11.0,2.0,4.0,0.0,16.0,0.0,0.0,2.0,110.0,,,,,,5ecf82c4e84c2d01e7ba2f7a,15:54:24,26/03/2024
html-keyboard-response,85,164244,0.0-37.0-1.0,,"<div style=""display: flex; flex-direction: column; align-items: center; margin-top: -40px;""><img src=""images/pattern_5.png"" style=""width: 234px; height: 230px; margin-top: -50px;""><div style=""display: flex; justify-content: space-between; margin-top: 33px;""><img src=""images/choice_trial_2.png"" style=""width: 408px; height: 417px; margin-left:608px;""></div></div>",,delaylearn,learning,display_response,ZhWeSHRTTUfCl0Y6uOwX4qUdAcU2,ZhWeSHRTTUfCl0Y6uOwX4qUdAcU2,,,,,,,,,,,,,,,,,chosen stimuli: images/choice_trial_2.png,,,,,5ecf82c4e84c2d01e7ba2f7a,15:54:24,26/03/2024
html-keyboard-response,86,164996,0.0-37.0-2.0,,,,delaylearn,learning,feedback_duration_window,ZhWeSHRTTUfCl0Y6uOwX4qUdAcU2,ZhWeSHRTTUfCl0Y6uOwX4qUdAcU2,,,,,,,,,,,,,,,,,,750.0,,,,5ecf82c4e84c2d01e7ba2f7a,15:54:24,26/03/2024
html-keyboard-response,87,166500,0.0-37.0-3.0,,<div style='margin:auto;width: auto; font-size: 150%'><span style='font-weight: bold; font-size: 100px; color: red;'>0 points!</span><br><br></div>,,delaylearn,learning,feedback_image_window,ZhWeSHRTTUfCl0Y6uOwX4qUdAcU2,ZhWeSHRTTUfCl0Y6uOwX4qUdAcU2,,,,,,,,,,,,,,,,,,,,,,5ecf82c4e84c2d01e7ba2f7a,15:54:24,26/03/2024
html-keyboard-response,88,167003,0.0-38.0-0.0,,,,,,mood_trial_fixation,ZhWeSHRTTUfCl0Y6uOwX4qUdAcU2,,,,,,,,,,,,,,,,,,,,,,,5ecf82c4e84c2d01e7ba2f7a,15:54:24,26/03/2024
lmdlab-html-vas-response,89,170509,0.0-38.0-1.0,2500.0,How happy are you right now?,0.3592592592592593,delaylearn,learning,mood_trial,ZhWeSHRTTUfCl0Y6uOwX4qUdAcU2,ZhWeSHRTTUfCl0Y6uOwX4qUdAcU2,,,,,,,,,,,,,,,,,,,,"['Very unhappy', 'Very happy']",,5ecf82c4e84c2d01e7ba2f7a,15:54:24,26/03/2024
html-keyboard-response,90,172570,0.0-39.0,,"<div style=""font-size:100px;"">+</div>",,delaylearn,learning,ITI,ZhWeSHRTTUfCl0Y6uOwX4qUdAcU2,ZhWeSHRTTUfCl0Y6uOwX4qUdAcU2,,,,,,,,,,,,,,,,,,,2057.0,,,5ecf82c4e84c2d01e7ba2f7a,15:54:24,26/03/2024
html-keyboard-response,91,174195,0.0-40.0-0.0,1622.1000000014901,"<div style=""display: flex; flex-direction: column; align-items: center; margin-top: -40px;""><img src=""images/pattern_6.png"" style=""width: 234px; height: 230px; margin-top: -50px;""><div style=""display: flex; justify-content: space-between; margin-top: 33px;""><img src=""images/choice_trial_16.png"" style=""width: 408px; height: 417px; margin-right: 200px;""><img src=""images/choice_trial_3.png"" style=""width: 408px; height: 417px;""></div></div>",j,delaylearn,learning,trial,ZhWeSHRTTUfCl0Y6uOwX4qUdAcU2,ZhWeSHRTTUfCl0Y6uOwX4qUdAcU2,3.0,images/choice_trial_16.png,images/choice_trial_3.png,images/pattern_6.png,f,f,750.0,16.0,3.0,5.0,0.0,17.0,0.0,0.0,3.0,110.0,,,,,,5ecf82c4e84c2d01e7ba2f7a,15:54:24,26/03/2024
html-keyboard-response,92,175198,0.0-40.0-1.0,,"<div style=""display: flex; flex-direction: column; align-items: center; margin-top: -40px;""><img src=""images/pattern_6.png"" style=""width: 234px; height: 230px; margin-top: -50px;""><div style=""display: flex; justify-content: space-between; margin-top: 33px;""><img src=""images/choice_trial_3.png"" style=""width: 408px; height: 417px; margin-left:608px;""></div></div>",,delaylearn,learning,display_response,ZhWeSHRTTUfCl0Y6uOwX4qUdAcU2,ZhWeSHRTTUfCl0Y6uOwX4qUdAcU2,,,,,,,,,,,,,,,,,chosen stimuli: images/choice_trial_3.png,,,,,5ecf82c4e84c2d01e7ba2f7a,15:54:24,26/03/2024
html-keyboard-response,93,175953,0.0-40.0-2.0,,,,delaylearn,learning,feedback_duration_window,ZhWeSHRTTUfCl0Y6uOwX4qUdAcU2,ZhWeSHRTTUfCl0Y6uOwX4qUdAcU2,,,,,,,,,,,,,,,,,,750.0,,,,5ecf82c4e84c2d01e7ba2f7a,15:54:24,26/03/2024
html-keyboard-response,94,177456,0.0-40.0-3.0,,<div style='margin:auto;width: auto; font-size: 150%'><span style='font-weight: bold; font-size: 100px; color: red;'>0 points!</span><br><br></div>,,delaylearn,learning,feedback_image_window,ZhWeSHRTTUfCl0Y6uOwX4qUdAcU2,ZhWeSHRTTUfCl0Y6uOwX4qUdAcU2,,,,,,,,,,,,,,,,,,,,,,5ecf82c4e84c2d01e7ba2f7a,15:54:24,26/03/2024
html-keyboard-response,95,179104,0.0-41.0,,"<div style=""font-size:100px;"">+</div>",,delaylearn,learning,ITI,ZhWeSHRTTUfCl0Y6uOwX4qUdAcU2,ZhWeSHRTTUfCl0Y6uOwX4qUdAcU2,,,,,,,,,,,,,,,,,,,1645.0,,,5ecf82c4e84c2d01e7ba2f7a,15:54:24,26/03/2024
html-keyboard-response,96,180464,0.0-42.0-0.0,1357.5999999977648,"<div style=""display: flex; flex-direction: column; align-items: center; margin-top: -40px;""><img src=""images/pattern_4.png"" style=""width: 234px; height: 230px; margin-top: -50px;""><div style=""display: flex; justify-content: space-between; margin-top: 33px;""><img src=""images/choice_trial_9.png"" style=""width: 408px; height: 417px; margin-right: 200px;""><img src=""images/choice_trial_15.png"" style=""width: 408px; height: 417px;""></div></div>",f,delaylearn,learning,trial,ZhWeSHRTTUfCl0Y6uOwX4qUdAcU2,ZhWeSHRTTUfCl0Y6uOwX4qUdAcU2,3.0,images/choice_trial_9.png,images/choice_trial_15.png,images/pattern_4.png,j,j,7000.0,9.0,15.0,3.0,1.0,18.0,0.0,0.0,9.0,110.0,,,,,,5ecf82c4e84c2d01e7ba2f7a,15:54:24,26/03/2024
html-keyboard-response,97,181470,0.0-42.0-1.0,,"<div style=""display: flex; flex-direction: column; align-items: center; margin-top: -40px;""><img src=""images/pattern_4.png"" style=""width: 234px; height: 230px; margin-top: -50px;""><div style=""display: flex; justify-content: space-between; margin-top: 33px;""><img src=""images/choice_trial_9.png"" style=""width: 408px; height: 417px; margin-right: 608px;""></div></div>",,delaylearn,learning,display_response,ZhWeSHRTTUfCl0Y6uOwX4qUdAcU2,ZhWeSHRTTUfCl0Y6uOwX4qUdAcU2,,,,,,,,,,,,,,,,,chosen stimuli: images/choice_trial_9.png,,,,,5ecf82c4e84c2d01e7ba2f7a,15:54:24,26/03/2024
html-keyboard-response,98,188471,0.0-42.0-2.0,,,,delaylearn,learning,feedback_duration_window,ZhWeSHRTTUfCl0Y6uOwX4qUdAcU2,ZhWeSHRTTUfCl0Y6uOwX4qUdAcU2,,,,,,,,,,,,,,,,,,7000.0,,,,5ecf82c4e84c2d01e7ba2f7a,15:54:24,26/03/2024
html-keyboard-response,99,189974,0.0-42.0-3.0,,<div style='margin:auto;width: auto; font-size: 150%'><span style='font-weight: bold; font-size: 100px; color: red;'>0 points!</span><br><br></div>,,delaylearn,learning,feedback_image_window,ZhWeSHRTTUfCl0Y6uOwX4qUdAcU2,ZhWeSHRTTUfCl0Y6uOwX4qUdAcU2,,,,,,,,,,,,,,,,,,,,,,5ecf82c4e84c2d01e7ba2f7a,15:54:24,26/03/2024
html-keyboard-response,100,191559,0.0-43.0,,"<div style=""font-size:100px;"">+</div>",,delaylearn,learning,ITI,ZhWeSHRTTUfCl0Y6uOwX4qUdAcU2,ZhWeSHRTTUfCl0Y6uOwX4qUdAcU2,,,,,,,,,,,,,,,,,,,1580.0,,,5ecf82c4e84c2d01e7ba2f7a,15:54:24,26/03/2024
html-keyboard-response,101,192946,0.0-44.0-0.0,1383.800000000745,"<div style=""display: flex; flex-direction: column; align-items: center; margin-top: -40px;""><img src=""images/pattern_7.png"" style=""width: 234px; height: 230px; margin-top: -50px;""><div style=""display: flex; justify-content: space-between; margin-top: 33px;""><img src=""images/choice_trial_6.png"" style=""width: 408px; height: 417px; margin-right: 200px;""><img src=""images/choice_trial_12.png"" style=""width: 408px; height: 417px;""></div></div>",f,delaylearn,learning,trial,ZhWeSHRTTUfCl0Y6uOwX4qUdAcU2,ZhWeSHRTTUfCl0Y6uOwX4qUdAcU2,3.0,images/choice_trial_6.png,images/choice_trial_12.png,images/pattern_7.png,j,f,750.0,6.0,12.0,6.0,0.0,19.0,1.0,0.0,6.0,110.0,,,,,,5ecf82c4e84c2d01e7ba2f7a,15:54:24,26/03/2024
html-keyboard-response,102,193951,0.0-44.0-1.0,,"<div style=""display: flex; flex-direction: column; align-items: center; margin-top: -40px;""><img src=""images/pattern_7.png"" style=""width: 234px; height: 230px; margin-top: -50px;""><div style=""display: flex; justify-content: space-between; margin-top: 33px;""><img src=""images/choice_trial_6.png"" style=""width: 408px; height: 417px; margin-right: 608px;""></div></div>",,delaylearn,learning,display_response,ZhWeSHRTTUfCl0Y6uOwX4qUdAcU2,ZhWeSHRTTUfCl0Y6uOwX4qUdAcU2,,,,,,,,,,,,,,,,,chosen stimuli: images/choice_trial_6.png,,,,,5ecf82c4e84c2d01e7ba2f7a,15:54:24,26/03/2024
html-keyboard-response,103,194706,0.0-44.0-2.0,,,,delaylearn,learning,feedback_duration_window,ZhWeSHRTTUfCl0Y6uOwX4qUdAcU2,ZhWeSHRTTUfCl0Y6uOwX4qUdAcU2,,,,,,,,,,,,,,,,,,750.0,,,,5ecf82c4e84c2d01e7ba2f7a,15:54:24,26/03/2024
html-keyboard-response,104,196210,0.0-44.0-3.0,,<div style='margin:auto;width: auto; font-size: 150%'><span style='font-weight: bold; font-size: 100px; color: red;'>0 points!</span><br><br></div>,,delaylearn,learning,feedback_image_window,ZhWeSHRTTUfCl0Y6uOwX4qUdAcU2,ZhWeSHRTTUfCl0Y6uOwX4qUdAcU2,,,,,,,,,,,,,,,,,,,,,,5ecf82c4e84c2d01e7ba2f7a,15:54:24,26/03/2024
html-keyboard-response,105,198581,0.0-45.0,,"<div style=""font-size:100px;"">+</div>",,delaylearn,learning,ITI,ZhWeSHRTTUfCl0Y6uOwX4qUdAcU2,ZhWeSHRTTUfCl0Y6uOwX4qUdAcU2,,,,,,,,,,,,,,,,,,,2367.0,,,5ecf82c4e84c2d01e7ba2f7a,15:54:24,26/03/2024
html-keyboard-response,106,199583,0.0-46.0-0.0,999.3000000007451,"<div style=""display: flex; flex-direction: column; align-items: center; margin-top: -40px;""><img src=""images/pattern_1.png"" style=""width: 234px; height: 230px; margin-top: -50px;""><div style=""display: flex; justify-content: space-between; margin-top: 33px;""><img src=""images/choice_trial_14.png"" style=""width: 408px; height: 417px; margin-right: 200px;""><img src=""images/choice_trial_8.png"" style=""width: 408px; height: 417px;""></div></div>",f,delaylearn,learning,trial,ZhWeSHRTTUfCl0Y6uOwX4qUdAcU2,ZhWeSHRTTUfCl0Y6uOwX4qUdAcU2,3.0,images/choice_trial_14.png,images/choice_trial_8.png,images/pattern_1.png,f,f,7000.0,14.0,8.0,1.0,0.0,20.0,1.0,1.0,14.0,120.0,,,,,,5ecf82c4e84c2d01e7ba2f7a,15:54:24,26/03/2024
html-keyboard-response,107,200586,0.0-46.0-1.0,,"<div style=""display: flex; flex-direction: column; align-items: center; margin-top: -40px;""><img src=""images/pattern_1.png"" style=""width: 234px; height: 230px; margin-top: -50px;""><div style=""display: flex; justify-content: space-between; margin-top: 33px;""><img src=""images/choice_trial_14.png"" style=""width: 408px; height: 417px; margin-right: 608px;""></div></div>",,delaylearn,learning,display_response,ZhWeSHRTTUfCl0Y6uOwX4qUdAcU2,ZhWeSHRTTUfCl0Y6uOwX4qUdAcU2,,,,,,,,,,,,,,,,,chosen stimuli: images/choice_trial_14.png,,,,,5ecf82c4e84c2d01e7ba2f7a,15:54:24,26/03/2024
html-keyboard-response,108,207591,0.0-46.0-2.0,,,,delaylearn,learning,feedback_duration_window,ZhWeSHRTTUfCl0Y6uOwX4qUdAcU2,ZhWeSHRTTUfCl0Y6uOwX4qUdAcU2,,,,,,,,,,,,,,,,,,7000.0,,,,5ecf82c4e84c2d01e7ba2f7a,15:54:24,26/03/2024
html-keyboard-response,109,209095,0.0-46.0-3.0,,<div style='margin:auto;width: auto; font-size: 150%'><span style='font-weight: bold; font-size: 100px; color: green;'>+10 points!</span><br><br></div>,,delaylearn,learning,feedback_image_window,ZhWeSHRTTUfCl0Y6uOwX4qUdAcU2,ZhWeSHRTTUfCl0Y6uOwX4qUdAcU2,,,,,,,,,,,,,,,,,,,,,,5ecf82c4e84c2d01e7ba2f7a,15:54:24,26/03/2024
html-keyboard-response,110,211100,0.0-47.0,,"<div style=""font-size:100px;"">+</div>",,delaylearn,learning,ITI,ZhWeSHRTTUfCl0Y6uOwX4qUdAcU2,ZhWeSHRTTUfCl0Y6uOwX4qUdAcU2,,,,,,,,,,,,,,,,,,,2002.0,,,5ecf82c4e84c2d01e7ba2f7a,15:54:24,26/03/2024
html-keyboard-response,111,213134,0.0-48.0-0.0,2031.0999999977648,"<div style=""display: flex; flex-direction: column; align-items: center; margin-top: -40px;""><img src=""images/pattern_6.png"" style=""width: 234px; height: 230px; margin-top: -50px;""><div style=""display: flex; justify-content: space-between; margin-top: 33px;""><img src=""images/choice_trial_3.png"" style=""width: 408px; height: 417px; margin-right: 200px;""><img src=""images/choice_trial_16.png"" style=""width: 408px; height: 417px;""></div></div>",j,delaylearn,learning,trial,ZhWeSHRTTUfCl0Y6uOwX4qUdAcU2,ZhWeSHRTTUfCl0Y6uOwX4qUdAcU2,3.0,images/choice_trial_3.png,images/choice_trial_16.png,images/pattern_6.png,j,j,750.0,3.0,16.0,5.0,1.0,21.0,1.0,1.0,16.0,130.0,,,,,,5ecf82c4e84c2d01e7ba2f7a,15:54:24,26/03/2024
html-keyboard-response,112,214138,0.0-48.0-1.0,,"<div style=""display: flex; flex-direction: column; align-items: center; margin-top: -40px;""><img src=""images/pattern_6.png"" style=""width: 234px; height: 230px; margin-top: -50px;""><div style=""display: flex; justify-content: space-between; margin-top: 33px;""><img src=""images/choice_trial_16.png"" style=""width: 408px; height: 417px; margin-left:608px;""></div></div>",,delaylearn,learning,display_response,ZhWeSHRTTUfCl0Y6uOwX4qUdAcU2,ZhWeSHRTTUfCl0Y6uOwX4qUdAcU2,,,,,,,,,,,,,,,,,chosen stimuli: images/choice_trial_16.png,,,,,5ecf82c4e84c2d01e7ba2f7a,15:54:24,26/03/2024
html-keyboard-response,113,214893,0.0-48.0-2.0,,,,delaylearn,learning,feedback_duration_window,ZhWeSHRTTUfCl0Y6uOwX4qUdAcU2,ZhWeSHRTTUfCl0Y6uOwX4qUdAcU2,,,,,,,,,,,,,,,,,,750.0,,,,5ecf82c4e84c2d01e7ba2f7a,15:54:24,26/03/2024
html-keyboard-response,114,216396,0.0-48.0-3.0,,<div style='margin:auto;width: auto; font-size: 150%'><span style='font-weight: bold; font-size: 100px; color: green;'>+10 points!</span><br><br></div>,,delaylearn,learning,feedback_image_window,ZhWeSHRTTUfCl0Y6uOwX4qUdAcU2,ZhWeSHRTTUfCl0Y6uOwX4qUdAcU2,,,,,,,,,,,,,,,,,,,,,,5ecf82c4e84c2d01e7ba2f7a,15:54:24,26/03/2024
html-keyboard-response,115,217916,0.0-49.0,,"<div style=""font-size:100px;"">+</div>",,delaylearn,learning,ITI,ZhWeSHRTTUfCl0Y6uOwX4qUdAcU2,ZhWeSHRTTUfCl0Y6uOwX4qUdAcU2,,,,,,,,,,,,,,,,,,,1515.0,,,5ecf82c4e84c2d01e7ba2f7a,15:54:24,26/03/2024
html-keyboard-response,116,220279,0.0-50.0-0.0,2359.7999999970198,"<div style=""display: flex; flex-direction: column; align-items: center; margin-top: -40px;""><img src=""images/pattern_4.png"" style=""width: 234px; height: 230px; margin-top: -50px;""><div style=""display: flex; justify-content: space-between; margin-top: 33px;""><img src=""images/choice_trial_15.png"" style=""width: 408px; height: 417px; margin-right: 200px;""><img src=""images/choice_trial_9.png"" style=""width: 408px; height: 417px;""></div></div>",j,delaylearn,learning,trial,ZhWeSHRTTUfCl0Y6uOwX4qUdAcU2,ZhWeSHRTTUfCl0Y6uOwX4qUdAcU2,3.0,images/choice_trial_15.png,images/choice_trial_9.png,images/pattern_4.png,f,f,7000.0,15.0,9.0,3.0,0.0,22.0,0.0,0.0,9.0,130.0,,,,,,5ecf82c4e84c2d01e7ba2f7a,15:54:24,26/03/2024
html-keyboard-response,117,221282,0.0-50.0-1.0,,"<div style=""display: flex; flex-direction: column; align-items: center; margin-top: -40px;""><img src=""images/pattern_4.png"" style=""width: 234px; height: 230px; margin-top: -50px;""><div style=""display: flex; justify-content: space-between; margin-top: 33px;""><img src=""images/choice_trial_9.png"" style=""width: 408px; height: 417px; margin-left:608px;""></div></div>",,delaylearn,learning,display_response,ZhWeSHRTTUfCl0Y6uOwX4qUdAcU2,ZhWeSHRTTUfCl0Y6uOwX4qUdAcU2,,,,,,,,,,,,,,,,,chosen stimuli: images/choice_trial_9.png,,,,,5ecf82c4e84c2d01e7ba2f7a,15:54:24,26/03/2024
html-keyboard-response,118,228287,0.0-50.0-2.0,,,,delaylearn,learning,feedback_duration_window,ZhWeSHRTTUfCl0Y6uOwX4qUdAcU2,ZhWeSHRTTUfCl0Y6uOwX4qUdAcU2,,,,,,,,,,,,,,,,,,7000.0,,,,5ecf82c4e84c2d01e7ba2f7a,15:54:24,26/03/2024
html-keyboard-response,119,229793,0.0-50.0-3.0,,<div style='margin:auto;width: auto; font-size: 150%'><span style='font-weight: bold; font-size: 100px; color: red;'>0 points!</span><br><br></div>,,delaylearn,learning,feedback_image_window,ZhWeSHRTTUfCl0Y6uOwX4qUdAcU2,ZhWeSHRTTUfCl0Y6uOwX4qUdAcU2,,,,,,,,,,,,,,,,,,,,,,5ecf82c4e84c2d01e7ba2f7a,15:54:24,26/03/2024
html-keyboard-response,120,230294,0.0-51.0-0.0,,,,,,mood_trial_fixation,ZhWeSHRTTUfCl0Y6uOwX4qUdAcU2,,,,,,,,,,,,,,,,,,,,,,,5ecf82c4e84c2d01e7ba2f7a,15:54:24,26/03/2024
lmdlab-html-vas-response,121,237197,0.0-51.0-1.0,5897.0,How happy are you right now?,0.4388888888888889,delaylearn,learning,mood_trial,ZhWeSHRTTUfCl0Y6uOwX4qUdAcU2,ZhWeSHRTTUfCl0Y6uOwX4qUdAcU2,,,,,,,,,,,,,,,,,,,,"['Very unhappy', 'Very happy']",,5ecf82c4e84c2d01e7ba2f7a,15:54:24,26/03/2024
html-keyboard-response,122,239597,0.0-52.0,,"<div style=""font-size:100px;"">+</div>",,delaylearn,learning,ITI,ZhWeSHRTTUfCl0Y6uOwX4qUdAcU2,ZhWeSHRTTUfCl0Y6uOwX4qUdAcU2,,,,,,,,,,,,,,,,,,,2399.0,,,5ecf82c4e84c2d01e7ba2f7a,15:54:24,26/03/2024
html-keyboard-response,123,241604,0.0-53.0-0.0,2004.9000000022352,"<div style=""display: flex; flex-direction: column; align-items: center; margin-top: -40px;""><img src=""images/pattern_7.png"" style=""width: 234px; height: 230px; margin-top: -50px;""><div style=""display: flex; justify-content: space-between; margin-top: 33px;""><img src=""images/choice_trial_12.png"" style=""width: 408px; height: 417px; margin-right: 200px;""><img src=""images/choice_trial_6.png"" style=""width: 408px; height: 417px;""></div></div>",j,delaylearn,learning,trial,ZhWeSHRTTUfCl0Y6uOwX4qUdAcU2,ZhWeSHRTTUfCl0Y6uOwX4qUdAcU2,3.0,images/choice_trial_12.png,images/choice_trial_6.png,images/pattern_7.png,j,j,750.0,12.0,6.0,6.0,1.0,23.0,1.0,1.0,6.0,140.0,,,,,,5ecf82c4e84c2d01e7ba2f7a,15:54:24,26/03/2024
html-keyboard-response,124,242607,0.0-53.0-1.0,,"<div style=""display: flex; flex-direction: column; align-items: center; margin-top: -40px;""><img src=""images/pattern_7.png"" style=""width: 234px; height: 230px; margin-top: -50px;""><div style=""display: flex; justify-content: space-between; margin-top: 33px;""><img src=""images/choice_trial_6.png"" style=""width: 408px; height: 417px; margin-left:608px;""></div></div>",,delaylearn,learning,display_response,ZhWeSHRTTUfCl0Y6uOwX4qUdAcU2,ZhWeSHRTTUfCl0Y6uOwX4qUdAcU2,,,,,,,,,,,,,,,,,chosen stimuli: images/choice_trial_6.png,,,,,5ecf82c4e84c2d01e7ba2f7a,15:54:24,26/03/2024
html-keyboard-response,125,243360,0.0-53.0-2.0,,,,delaylearn,learning,feedback_duration_window,ZhWeSHRTTUfCl0Y6uOwX4qUdAcU2,ZhWeSHRTTUfCl0Y6uOwX4qUdAcU2,,,,,,,,,,,,,,,,,,750.0,,,,5ecf82c4e84c2d01e7ba2f7a,15:54:24,26/03/2024
html-keyboard-response,126,244862,0.0-53.0-3.0,,<div style='margin:auto;width: auto; font-size: 150%'><span style='font-weight: bold; font-size: 100px; color: green;'>+10 points!</span><br><br></div>,,delaylearn,learning,feedback_image_window,ZhWeSHRTTUfCl0Y6uOwX4qUdAcU2,ZhWeSHRTTUfCl0Y6uOwX4qUdAcU2,,,,,,,,,,,,,,,,,,,,,,5ecf82c4e84c2d01e7ba2f7a,15:54:24,26/03/2024
html-keyboard-response,127,246881,0.0-54.0,,"<div style=""font-size:100px;"">+</div>",,delaylearn,learning,ITI,ZhWeSHRTTUfCl0Y6uOwX4qUdAcU2,ZhWeSHRTTUfCl0Y6uOwX4qUdAcU2,,,,,,,,,,,,,,,,,,,2015.0,,,5ecf82c4e84c2d01e7ba2f7a,15:54:24,26/03/2024
html-keyboard-response,128,249349,0.0-55.0-0.0,2464.199999999255,"<div style=""display: flex; flex-direction: column; align-items: center; margin-top: -40px;""><img src=""images/pattern_1.png"" style=""width: 234px; height: 230px; margin-top: -50px;""><div style=""display: flex; justify-content: space-between; margin-top: 33px;""><img src=""images/choice_trial_8.png"" style=""width: 408px; height: 417px; margin-right: 200px;""><img src=""images/choice_trial_14.png"" style=""width: 408px; height: 417px;""></div></div>",j,delaylearn,learning,trial,ZhWeSHRTTUfCl0Y6uOwX4qUdAcU2,ZhWeSHRTTUfCl0Y6uOwX4qUdAcU2,3.0,images/choice_trial_8.png,images/choice_trial_14.png,images/pattern_1.png,f,j,7000.0,8.0,14.0,1.0,1.0,24.0,1.0,0.0,14.0,140.0,,,,,,5ecf82c4e84c2d01e7ba2f7a,15:54:24,26/03/2024
html-keyboard-response,129,250352,0.0-55.0-1.0,,"<div style=""display: flex; flex-direction: column; align-items: center; margin-top: -40px;""><img src=""images/pattern_1.png"" style=""width: 234px; height: 230px; margin-top: -50px;""><div style=""display: flex; justify-content: space-between; margin-top: 33px;""><img src=""images/choice_trial_14.png"" style=""width: 408px; height: 417px; margin-left:608px;""></div></div>",,delaylearn,learning,display_response,ZhWeSHRTTUfCl0Y6uOwX4qUdAcU2,ZhWeSHRTTUfCl0Y6uOwX4qUdAcU2,,,,,,,,,,,,,,,,,chosen stimuli: images/choice_trial_14.png,,,,,5ecf82c4e84c2d01e7ba2f7a,15:54:24,26/03/2024
html-keyboard-response,130,257355,0.0-55.0-2.0,,,,delaylearn,learning,feedback_duration_window,ZhWeSHRTTUfCl0Y6uOwX4qUdAcU2,ZhWeSHRTTUfCl0Y6uOwX4qUdAcU2,,,,,,,,,,,,,,,,,,7000.0,,,,5ecf82c4e84c2d01e7ba2f7a,15:54:24,26/03/2024
html-keyboard-response,131,258861,0.0-55.0-3.0,,<div style='margin:auto;width: auto; font-size: 150%'><span style='font-weight: bold; font-size: 100px; color: red;'>0 points!</span><br><br></div>,,delaylearn,learning,feedback_image_window,ZhWeSHRTTUfCl0Y6uOwX4qUdAcU2,ZhWeSHRTTUfCl0Y6uOwX4qUdAcU2,,,,,,,,,,,,,,,,,,,,,,5ecf82c4e84c2d01e7ba2f7a,15:54:24,26/03/2024
html-keyboard-response,132,261023,0.0-56.0,,"<div style=""font-size:100px;"">+</div>",,delaylearn,learning,ITI,ZhWeSHRTTUfCl0Y6uOwX4qUdAcU2,ZhWeSHRTTUfCl0Y6uOwX4qUdAcU2,,,,,,,,,,,,,,,,,,,2160.0,,,5ecf82c4e84c2d01e7ba2f7a,15:54:24,26/03/2024
html-keyboard-response,133,263517,0.0-57.0-0.0,2491.800000000745,"<div style=""display: flex; flex-direction: column; align-items: center; margin-top: -40px;""><img src=""images/pattern_5.png"" style=""width: 234px; height: 230px; margin-top: -50px;""><div style=""display: flex; justify-content: space-between; margin-top: 33px;""><img src=""images/choice_trial_2.png"" style=""width: 408px; height: 417px; margin-right: 200px;""><img src=""images/choice_trial_11.png"" style=""width: 408px; height: 417px;""></div></div>",j,delaylearn,learning,trial,ZhWeSHRTTUfCl0Y6uOwX4qUdAcU2,ZhWeSHRTTUfCl0Y6uOwX4qUdAcU2,3.0,images/choice_trial_2.png,images/choice_trial_11.png,images/pattern_5.png,j,j,750.0,2.0,11.0,4.0,1.0,25.0,1.0,1.0,11.0,150.0,,,,,,5ecf82c4e84c2d01e7ba2f7a,15:54:24,26/03/2024
html-keyboard-response,134,264520,0.0-57.0-1.0,,"<div style=""display: flex; flex-direction: column; align-items: center; margin-top: -40px;""><img src=""images/pattern_5.png"" style=""width: 234px; height: 230px; margin-top: -50px;""><div style=""display: flex; justify-content: space-between; margin-top: 33px;""><img src=""images/choice_trial_11.png"" style=""width: 408px; height: 417px; margin-left:608px;""></div></div>",,delaylearn,learning,display_response,ZhWeSHRTTUfCl0Y6uOwX4qUdAcU2,ZhWeSHRTTUfCl0Y6uOwX4qUdAcU2,,,,,,,,,,,,,,,,,chosen stimuli: images/choice_trial_11.png,,,,,5ecf82c4e84c2d01e7ba2f7a,15:54:24,26/03/2024
html-keyboard-response,135,265275,0.0-57.0-2.0,,,,delaylearn,learning,feedback_duration_window,ZhWeSHRTTUfCl0Y6uOwX4qUdAcU2,ZhWeSHRTTUfCl0Y6uOwX4qUdAcU2,,,,,,,,,,,,,,,,,,750.0,,,,5ecf82c4e84c2d01e7ba2f7a,15:54:24,26/03/2024
html-keyboard-response,136,266778,0.0-57.0-3.0,,<div style='margin:auto;width: auto; font-size: 150%'><span style='font-weight: bold; font-size: 100px; color: green;'>+10 points!</span><br><br></div>,,delaylearn,learning,feedback_image_window,ZhWeSHRTTUfCl0Y6uOwX4qUdAcU2,ZhWeSHRTTUfCl0Y6uOwX4qUdAcU2,,,,,,,,,,,,,,,,,,,,,,5ecf82c4e84c2d01e7ba2f7a,15:54:24,26/03/2024
html-keyboard-response,137,268361,0.0-58.0,,"<div style=""font-size:100px;"">+</div>",,delaylearn,learning,ITI,ZhWeSHRTTUfCl0Y6uOwX4qUdAcU2,ZhWeSHRTTUfCl0Y6uOwX4qUdAcU2,,,,,,,,,,,,,,,,,,,1581.0,,,5ecf82c4e84c2d01e7ba2f7a,15:54:24,26/03/2024
html-keyboard-response,138,271141,0.0-59.0-0.0,2776.60000000149,"<div style=""display: flex; flex-direction: column; align-items: center; margin-top: -40px;""><img src=""images/pattern_3.png"" style=""width: 234px; height: 230px; margin-top: -50px;""><div style=""display: flex; justify-content: space-between; margin-top: 33px;""><img src=""images/choice_trial_10.png"" style=""width: 408px; height: 417px; margin-right: 200px;""><img src=""images/choice_trial_13.png"" style=""width: 408px; height: 417px;""></div></div>",j,delaylearn,learning,trial,ZhWeSHRTTUfCl0Y6uOwX4qUdAcU2,ZhWeSHRTTUfCl0Y6uOwX4qUdAcU2,3.0,images/choice_trial_10.png,images/choice_trial_13.png,images/pattern_3.png,j,j,7000.0,10.0,13.0,2.0,1.0,26.0,1.0,1.0,13.0,160.0,,,,,,5ecf82c4e84c2d01e7ba2f7a,15:54:24,26/03/2024
html-keyboard-response,139,272144,0.0-59.0-1.0,,"<div style=""display: flex; flex-direction: column; align-items: center; margin-top: -40px;""><img src=""images/pattern_3.png"" style=""width: 234px; height: 230px; margin-top: -50px;""><div style=""display: flex; justify-content: space-between; margin-top: 33px;""><img src=""images/choice_trial_13.png"" style=""width: 408px; height: 417px; margin-left:608px;""></div></div>",,delaylearn,learning,display_response,ZhWeSHRTTUfCl0Y6uOwX4qUdAcU2,ZhWeSHRTTUfCl0Y6uOwX4qUdAcU2,,,,,,,,,,,,,,,,,chosen stimuli: images/choice_trial_13.png,,,,,5ecf82c4e84c2d01e7ba2f7a,15:54:24,26/03/2024
html-keyboard-response,140,279147,0.0-59.0-2.0,,,,delaylearn,learning,feedback_duration_window,ZhWeSHRTTUfCl0Y6uOwX4qUdAcU2,ZhWeSHRTTUfCl0Y6uOwX4qUdAcU2,,,,,,,,,,,,,,,,,,7000.0,,,,5ecf82c4e84c2d01e7ba2f7a,15:54:24,26/03/2024
html-keyboard-response,141,280651,0.0-59.0-3.0,,<div style='margin:auto;width: auto; font-size: 150%'><span style='font-weight: bold; font-size: 100px; color: green;'>+10 points!</span><br><br></div>,,delaylearn,learning,feedback_image_window,ZhWeSHRTTUfCl0Y6uOwX4qUdAcU2,ZhWeSHRTTUfCl0Y6uOwX4qUdAcU2,,,,,,,,,,,,,,,,,,,,,,5ecf82c4e84c2d01e7ba2f7a,15:54:24,26/03/2024
lmdlab-html-vas-response,142,285784,0.0-60.0-0.0,3622.0,*How <b><u>confident</u></b> are you feeling about your answers at this moment?*,0.21851851851851853,rewlearn,rate_confidence,,ZhWeSHRTTUfCl0Y6uOwX4qUdAcU2,ZhWeSHRTTUfCl0Y6uOwX4qUdAcU2,,,,,,,,,,,,,,,,,,,,"['No confidence', 'Complete confidence']",,5ecf82c4e84c2d01e7ba2f7a,15:54:24,26/03/2024
lmdlab-rest-trial-limit,143,293497,0.0-60.0-1.0,6208.599999997765,"<div style=""font-size:40px;""><b>Please take a break!</b><br><br><br><br><p>Great work: you earned 160 points.<br><br><br><p>You have completed part(s) 1 of 5.<br><br><br><br>When you are ready to continue<br><br><br>please click the button.</p><br><br>",0,delaylearn,learning,break,ZhWeSHRTTUfCl0Y6uOwX4qUdAcU2,ZhWeSHRTTUfCl0Y6uOwX4qUdAcU2,,,,,,,,,,,,,,,,,,,,,0.0,5ecf82c4e84c2d01e7ba2f7a,15:54:24,26/03/2024
html-keyboard-response,144,296503,0.0-60.0-2.0,,"<div style=""font-size:100px;"">+</div>",,delaylearn,learning,pre_fixation,ZhWeSHRTTUfCl0Y6uOwX4qUdAcU2,,,,,,,,,,,,,,,,,,,,,,,5ecf82c4e84c2d01e7ba2f7a,15:54:24,26/03/2024
lmdlab-html-vas-response,145,301219,0.0-60.0-3.0-0.0,3711.0,How happy are you right now?,0.4148148148148148,delaylearn,learning,mood_baseline,ZhWeSHRTTUfCl0Y6uOwX4qUdAcU2,ZhWeSHRTTUfCl0Y6uOwX4qUdAcU2,,,,,,,,,,,,,,,,,,,,"['Very unhappy', 'Very happy']",,5ecf82c4e84c2d01e7ba2f7a,15:54:24,26/03/2024
html-keyboard-response,146,302722,0.0-60.0-3.0-1.0,,,,,,mood_baseline_fixation,ZhWeSHRTTUfCl0Y6uOwX4qUdAcU2,,,,,,,,,,,,,,,,,,,,,,,5ecf82c4e84c2d01e7ba2f7a,15:54:24,26/03/2024
html-keyboard-response,147,304784,0.0-61.0,,"<div style=""font-size:100px;"">+</div>",,delaylearn,learning,ITI,ZhWeSHRTTUfCl0Y6uOwX4qUdAcU2,ZhWeSHRTTUfCl0Y6uOwX4qUdAcU2,,,,,,,,,,,,,,,,,,,2057.0,,,5ecf82c4e84c2d01e7ba2f7a,15:54:24,26/03/2024
html-keyboard-response,148,306586,0.0-62.0-0.0,1798.8999999985099,"<div style=""display: flex; flex-direction: column; align-items: center; margin-top: -40px;""><img src=""images/pattern_7.png"" style=""width: 234px; height: 230px; margin-top: -50px;""><div style=""display: flex; justify-content: space-between; margin-top: 33px;""><img src=""images/choice_trial_12.png"" style=""width: 408px; height: 417px; margin-right: 200px;""><img src=""images/choice_trial_6.png"" style=""width: 408px; height: 417px;""></div></div>",j,delaylearn,learning,trial,ZhWeSHRTTUfCl0Y6uOwX4qUdAcU2,ZhWeSHRTTUfCl0Y6uOwX4qUdAcU2,3.0,images/choice_trial_12.png,images/choice_trial_6.png,images/pattern_7.png,j,j,750.0,12.0,6.0,6.0,1.0,27.0,1.0,1.0,6.0,170.0,,,,,,5ecf82c4e84c2d01e7ba2f7a,15:54:24,26/03/2024
html-keyboard-response,149,307589,0.0-62.0-1.0,,"<div style=""display: flex; flex-direction: column; align-items: center; margin-top: -40px;""><img src=""images/pattern_7.png"" style=""width: 234px; height: 230px; margin-top: -50px;""><div style=""display: flex; justify-content: space-between; margin-top: 33px;""><img src=""images/choice_trial_6.png"" style=""width: 408px; height: 417px; margin-left:608px;""></div></div>",,delaylearn,learning,display_response,ZhWeSHRTTUfCl0Y6uOwX4qUdAcU2,ZhWeSHRTTUfCl0Y6uOwX4qUdAcU2,,,,,,,,,,,,,,,,,chosen stimuli: images/choice_trial_6.png,,,,,5ecf82c4e84c2d01e7ba2f7a,15:54:24,26/03/2024
html-keyboard-response,150,308341,0.0-62.0-2.0,,,,delaylearn,learning,feedback_duration_window,ZhWeSHRTTUfCl0Y6uOwX4qUdAcU2,ZhWeSHRTTUfCl0Y6uOwX4qUdAcU2,,,,,,,,,,,,,,,,,,750.0,,,,5ecf82c4e84c2d01e7ba2f7a,15:54:24,26/03/2024
html-keyboard-response,151,309844,0.0-62.0-3.0,,<div style='margin:auto;width: auto; font-size: 150%'><span style='font-weight: bold; font-size: 100px; color: green;'>+10 points!</span><br><br></div>,,delaylearn,learning,feedback_image_window,ZhWeSHRTTUfCl0Y6uOwX4qUdAcU2,ZhWeSHRTTUfCl0Y6uOwX4qUdAcU2,,,,,,,,,,,,,,,,,,,,,,5ecf82c4e84c2d01e7ba2f7a,15:54:24,26/03/2024
html-keyboard-response,152,310347,0.0-63.0-0.0,,,,,,mood_trial_fixation,ZhWeSHRTTUfCl0Y6uOwX4qUdAcU2,,,,,,,,,,,,,,,,,,,,,,,5ecf82c4e84c2d01e7ba2f7a,15:54:24,26/03/2024
lmdlab-html-vas-response,153,315360,0.0-63.0-1.0,4008.0,How happy are you right now?,0.37037037037037035,delaylearn,learning,mood_trial,ZhWeSHRTTUfCl0Y6uOwX4qUdAcU2,ZhWeSHRTTUfCl0Y6uOwX4qUdAcU2,,,,,,,,,,,,,,,,,,,,"['Very unhappy', 'Very happy']",,5ecf82c4e84c2d01e7ba2f7a,15:54:24,26/03/2024
html-keyboard-response,154,317789,0.0-64.0,,"<div style=""font-size:100px;"">+</div>",,delaylearn,learning,ITI,ZhWeSHRTTUfCl0Y6uOwX4qUdAcU2,ZhWeSHRTTUfCl0Y6uOwX4qUdAcU2,,,,,,,,,,,,,,,,,,,2424.0,,,5ecf82c4e84c2d01e7ba2f7a,15:54:24,26/03/2024
html-keyboard-response,155,320252,0.0-65.0-0.0,2459.0,"<div style=""display: flex; flex-direction: column; align-items: center; margin-top: -40px;""><img src=""images/pattern_1.png"" style=""width: 234px; height: 230px; margin-top: -50px;""><div style=""display: flex; justify-content: space-between; margin-top: 33px;""><img src=""images/choice_trial_14.png"" style=""width: 408px; height: 417px; margin-right: 200px;""><img src=""images/choice_trial_8.png"" style=""width: 408px; height: 417px;""></div></div>",f,delaylearn,learning,trial,ZhWeSHRTTUfCl0Y6uOwX4qUdAcU2,ZhWeSHRTTUfCl0Y6uOwX4qUdAcU2,3.0,images/choice_trial_14.png,images/choice_trial_8.png,images/pattern_1.png,f,f,7000.0,14.0,8.0,1.0,0.0,28.0,1.0,1.0,14.0,180.0,,,,,,5ecf82c4e84c2d01e7ba2f7a,15:54:24,26/03/2024
html-keyboard-response,156,321254,0.0-65.0-1.0,,"<div style=""display: flex; flex-direction: column; align-items: center; margin-top: -40px;""><img src=""images/pattern_1.png"" style=""width: 234px; height: 230px; margin-top: -50px;""><div style=""display: flex; justify-content: space-between; margin-top: 33px;""><img src=""images/choice_trial_14.png"" style=""width: 408px; height: 417px; margin-right: 608px;""></div></div>",,delaylearn,learning,display_response,ZhWeSHRTTUfCl0Y6uOwX4qUdAcU2,ZhWeSHRTTUfCl0Y6uOwX4qUdAcU2,,,,,,,,,,,,,,,,,chosen stimuli: images/choice_trial_14.png,,,,,5ecf82c4e84c2d01e7ba2f7a,15:54:24,26/03/2024
html-keyboard-response,157,328257,0.0-65.0-2.0,,,,delaylearn,learning,feedback_duration_window,ZhWeSHRTTUfCl0Y6uOwX4qUdAcU2,ZhWeSHRTTUfCl0Y6uOwX4qUdAcU2,,,,,,,,,,,,,,,,,,7000.0,,,,5ecf82c4e84c2d01e7ba2f7a,15:54:24,26/03/2024
html-keyboard-response,158,329759,0.0-65.0-3.0,,<div style='margin:auto;width: auto; font-size: 150%'><span style='font-weight: bold; font-size: 100px; color: green;'>+10 points!</span><br><br></div>,,delaylearn,learning,feedback_image_window,ZhWeSHRTTUfCl0Y6uOwX4qUdAcU2,ZhWeSHRTTUfCl0Y6uOwX4qUdAcU2,,,,,,,,,,,,,,,,,,,,,,5ecf82c4e84c2d01e7ba2f7a,15:54:24,26/03/2024
html-keyboard-response,159,331967,0.0-66.0,,"<div style=""font-size:100px;"">+</div>",,delaylearn,learning,ITI,ZhWeSHRTTUfCl0Y6uOwX4qUdAcU2,ZhWeSHRTTUfCl0Y6uOwX4qUdAcU2,,,,,,,,,,,,,,,,,,,2205.0,,,5ecf82c4e84c2d01e7ba2f7a,15:54:24,26/03/2024
html-keyboard-response,160,334573,0.0-67.0-0.0,2602.0,"<div style=""display: flex; flex-direction: column; align-items: center; margin-top: -40px;""><img src=""images/pattern_5.png"" style=""width: 234px; height: 230px; margin-top: -50px;""><div style=""display: flex; justify-content: space-between; margin-top: 33px;""><img src=""images/choice_trial_11.png"" style=""width: 408px; height: 417px; margin-right: 200px;""><img src=""images/choice_trial_2.png"" style=""width: 408px; height: 417px;""></div></div>",j,delaylearn,learning,trial,ZhWeSHRTTUfCl0Y6uOwX4qUdAcU2,ZhWeSHRTTUfCl0Y6uOwX4qUdAcU2,3.0,images/choice_trial_11.png,images/choice_trial_2.png,images/pattern_5.png,f,f,750.0,11.0,2.0,4.0,0.0,29.0,0.0,0.0,2.0,180.0,,,,,,5ecf82c4e84c2d01e7ba2f7a,15:54:24,26/03/2024
html-keyboard-response,161,335578,0.0-67.0-1.0,,"<div style=""display: flex; flex-direction: column; align-items: center; margin-top: -40px;""><img src=""images/pattern_5.png"" style=""width: 234px; height: 230px; margin-top: -50px;""><div style=""display: flex; justify-content: space-between; margin-top: 33px;""><img src=""images/choice_trial_2.png"" style=""width: 408px; height: 417px; margin-left:608px;""></div></div>",,delaylearn,learning,display_response,ZhWeSHRTTUfCl0Y6uOwX4qUdAcU2,ZhWeSHRTTUfCl0Y6uOwX4qUdAcU2,,,,,,,,,,,,,,,,,chosen stimuli: images/choice_trial_2.png,,,,,5ecf82c4e84c2d01e7ba2f7a,15:54:24,26/03/2024
html-keyboard-response,162,336330,0.0-67.0-2.0,,,,delaylearn,learning,feedback_duration_window,ZhWeSHRTTUfCl0Y6uOwX4qUdAcU2,ZhWeSHRTTUfCl0Y6uOwX4qUdAcU2,,,,,,,,,,,,,,,,,,750.0,,,,5ecf82c4e84c2d01e7ba2f7a,15:54:24,26/03/2024
html-keyboard-response,163,337833,0.0-67.0-3.0,,<div style='margin:auto;width: auto; font-size: 150%'><span style='font-weight: bold; font-size: 100px; color: red;'>0 points!</span><br><br></div>,,delaylearn,learning,feedback_image_window,ZhWeSHRTTUfCl0Y6uOwX4qUdAcU2,ZhWeSHRTTUfCl0Y6uOwX4qUdAcU2,,,,,,,,,,,,,,,,,,,,,,5ecf82c4e84c2d01e7ba2f7a,15:54:24,26/03/2024
html-keyboard-response,164,339955,0.0-68.0,,"<div style=""font-size:100px;"">+</div>",,delaylearn,learning,ITI,ZhWeSHRTTUfCl0Y6uOwX4qUdAcU2,ZhWeSHRTTUfCl0Y6uOwX4qUdAcU2,,,,,,,,,,,,,,,,,,,2120.0,,,5ecf82c4e84c2d01e7ba2f7a,15:54:24,26/03/2024
html-keyboard-response,165,342082,0.0-69.0-0.0,2123.099999997765,"<div style=""display: flex; flex-direction: column; align-items: center; margin-top: -40px;""><img src=""images/pattern_6.png"" style=""width: 234px; height: 230px; margin-top: -50px;""><div style=""display: flex; justify-content: space-between; margin-top: 33px;""><img src=""images/choice_trial_3.png"" style=""width: 408px; height: 417px; margin-right: 200px;""><img src=""images/choice_trial_16.png"" style=""width: 408px; height: 417px;""></div></div>",f,delaylearn,learning,trial,ZhWeSHRTTUfCl0Y6uOwX4qUdAcU2,ZhWeSHRTTUfCl0Y6uOwX4qUdAcU2,3.0,images/choice_trial_3.png,images/choice_trial_16.png,images/pattern_6.png,j,j,750.0,3.0,16.0,5.0,1.0,30.0,0.0,0.0,3.0,180.0,,,,,,5ecf82c4e84c2d01e7ba2f7a,15:54:24,26/03/2024
html-keyboard-response,166,343088,0.0-69.0-1.0,,"<div style=""display: flex; flex-direction: column; align-items: center; margin-top: -40px;""><img src=""images/pattern_6.png"" style=""width: 234px; height: 230px; margin-top: -50px;""><div style=""display: flex; justify-content: space-between; margin-top: 33px;""><img src=""images/choice_trial_3.png"" style=""width: 408px; height: 417px; margin-right: 608px;""></div></div>",,delaylearn,learning,display_response,ZhWeSHRTTUfCl0Y6uOwX4qUdAcU2,ZhWeSHRTTUfCl0Y6uOwX4qUdAcU2,,,,,,,,,,,,,,,,,chosen stimuli: images/choice_trial_3.png,,,,,5ecf82c4e84c2d01e7ba2f7a,15:54:24,26/03/2024
html-keyboard-response,167,343842,0.0-69.0-2.0,,,,delaylearn,learning,feedback_duration_window,ZhWeSHRTTUfCl0Y6uOwX4qUdAcU2,ZhWeSHRTTUfCl0Y6uOwX4qUdAcU2,,,,,,,,,,,,,,,,,,750.0,,,,5ecf82c4e84c2d01e7ba2f7a,15:54:24,26/03/2024
html-keyboard-response,168,345346,0.0-69.0-3.0,,<div style='margin:auto;width: auto; font-size: 150%'><span style='font-weight: bold; font-size: 100px; color: red;'>0 points!</span><br><br></div>,,delaylearn,learning,feedback_image_window,ZhWeSHRTTUfCl0Y6uOwX4qUdAcU2,ZhWeSHRTTUfCl0Y6uOwX4qUdAcU2,,,,,,,,,,,,,,,,,,,,,,5ecf82c4e84c2d01e7ba2f7a,15:54:24,26/03/2024
html-keyboard-response,169,345850,0.0-70.0-0.0,,,,,,mood_trial_fixation,ZhWeSHRTTUfCl0Y6uOwX4qUdAcU2,,,,,,,,,,,,,,,,,,,,,,,5ecf82c4e84c2d01e7ba2f7a,15:54:24,26/03/2024
lmdlab-html-vas-response,170,351333,0.0-70.0-1.0,4478.0,How happy are you right now?,0.3685185185185185,delaylearn,learning,mood_trial,ZhWeSHRTTUfCl0Y6uOwX4qUdAcU2,ZhWeSHRTTUfCl0Y6uOwX4qUdAcU2,,,,,,,,,,,,,,,,,,,,"['Very unhappy', 'Very happy']",,5ecf82c4e84c2d01e7ba2f7a,15:54:24,26/03/2024
html-keyboard-response,171,353545,0.0-71.0,,"<div style=""font-size:100px;"">+</div>",,delaylearn,learning,ITI,ZhWeSHRTTUfCl0Y6uOwX4qUdAcU2,ZhWeSHRTTUfCl0Y6uOwX4qUdAcU2,,,,,,,,,,,,,,,,,,,2209.0,,,5ecf82c4e84c2d01e7ba2f7a,15:54:24,26/03/2024
html-keyboard-response,172,355435,0.0-72.0-0.0,1886.5,"<div style=""display: flex; flex-direction: column; align-items: center; margin-top: -40px;""><img src=""images/pattern_4.png"" style=""width: 234px; height: 230px; margin-top: -50px;""><div style=""display: flex; justify-content: space-between; margin-top: 33px;""><img src=""images/choice_trial_9.png"" style=""width: 408px; height: 417px; margin-right: 200px;""><img src=""images/choice_trial_15.png"" style=""width: 408px; height: 417px;""></div></div>",f,delaylearn,learning,trial,ZhWeSHRTTUfCl0Y6uOwX4qUdAcU2,ZhWeSHRTTUfCl0Y6uOwX4qUdAcU2,3.0,images/choice_trial_9.png,images/choice_trial_15.png,images/pattern_4.png,j,j,7000.0,9.0,15.0,3.0,1.0,31.0,0.0,0.0,9.0,180.0,,,,,,5ecf82c4e84c2d01e7ba2f7a,15:54:24,26/03/2024
html-keyboard-response,173,356437,0.0-72.0-1.0,,"<div style=""display: flex; flex-direction: column; align-items: center; margin-top: -40px;""><img src=""images/pattern_4.png"" style=""width: 234px; height: 230px; margin-top: -50px;""><div style=""display: flex; justify-content: space-between; margin-top: 33px;""><img src=""images/choice_trial_9.png"" style=""width: 408px; height: 417px; margin-right: 608px;""></div></div>",,delaylearn,learning,display_response,ZhWeSHRTTUfCl0Y6uOwX4qUdAcU2,ZhWeSHRTTUfCl0Y6uOwX4qUdAcU2,,,,,,,,,,,,,,,,,chosen stimuli: images/choice_trial_9.png,,,,,5ecf82c4e84c2d01e7ba2f7a,15:54:24,26/03/2024
html-keyboard-response,174,363440,0.0-72.0-2.0,,,,delaylearn,learning,feedback_duration_window,ZhWeSHRTTUfCl0Y6uOwX4qUdAcU2,ZhWeSHRTTUfCl0Y6uOwX4qUdAcU2,,,,,,,,,,,,,,,,,,7000.0,,,,5ecf82c4e84c2d01e7ba2f7a,15:54:24,26/03/2024
html-keyboard-response,175,364943,0.0-72.0-3.0,,<div style='margin:auto;width: auto; font-size: 150%'><span style='font-weight: bold; font-size: 100px; color: red;'>0 points!</span><br><br></div>,,delaylearn,learning,feedback_image_window,ZhWeSHRTTUfCl0Y6uOwX4qUdAcU2,ZhWeSHRTTUfCl0Y6uOwX4qUdAcU2,,,,,,,,,,,,,,,,,,,,,,5ecf82c4e84c2d01e7ba2f7a,15:54:24,26/03/2024
html-keyboard-response,176,367386,0.0-73.0,,"<div style=""font-size:100px;"">+</div>",,delaylearn,learning,ITI,ZhWeSHRTTUfCl0Y6uOwX4qUdAcU2,ZhWeSHRTTUfCl0Y6uOwX4qUdAcU2,,,,,,,,,,,,,,,,,,,2437.0,,,5ecf82c4e84c2d01e7ba2f7a,15:54:24,26/03/2024
html-keyboard-response,177,369276,0.0-74.0-0.0,1886.5,"<div style=""display: flex; flex-direction: column; align-items: center; margin-top: -40px;""><img src=""images/pattern_3.png"" style=""width: 234px; height: 230px; margin-top: -50px;""><div style=""display: flex; justify-content: space-between; margin-top: 33px;""><img src=""images/choice_trial_10.png"" style=""width: 408px; height: 417px; margin-right: 200px;""><img src=""images/choice_trial_13.png"" style=""width: 408px; height: 417px;""></div></div>",j,delaylearn,learning,trial,ZhWeSHRTTUfCl0Y6uOwX4qUdAcU2,ZhWeSHRTTUfCl0Y6uOwX4qUdAcU2,3.0,images/choice_trial_10.png,images/choice_trial_13.png,images/pattern_3.png,j,j,7000.0,10.0,13.0,2.0,1.0,32.0,1.0,1.0,13.0,190.0,,,,,,5ecf82c4e84c2d01e7ba2f7a,15:54:24,26/03/2024
html-keyboard-response,178,370279,0.0-74.0-1.0,,"<div style=""display: flex; flex-direction: column; align-items: center; margin-top: -40px;""><img src=""images/pattern_3.png"" style=""width: 234px; height: 230px; margin-top: -50px;""><div style=""display: flex; justify-content: space-between; margin-top: 33px;""><img src=""images/choice_trial_13.png"" style=""width: 408px; height: 417px; margin-left:608px;""></div></div>",,delaylearn,learning,display_response,ZhWeSHRTTUfCl0Y6uOwX4qUdAcU2,ZhWeSHRTTUfCl0Y6uOwX4qUdAcU2,,,,,,,,,,,,,,,,,chosen stimuli: images/choice_trial_13.png,,,,,5ecf82c4e84c2d01e7ba2f7a,15:54:24,26/03/2024
html-keyboard-response,179,377283,0.0-74.0-2.0,,,,delaylearn,learning,feedback_duration_window,ZhWeSHRTTUfCl0Y6uOwX4qUdAcU2,ZhWeSHRTTUfCl0Y6uOwX4qUdAcU2,,,,,,,,,,,,,,,,,,7000.0,,,,5ecf82c4e84c2d01e7ba2f7a,15:54:24,26/03/2024
html-keyboard-response,180,378787,0.0-74.0-3.0,,<div style='margin:auto;width: auto; font-size: 150%'><span style='font-weight: bold; font-size: 100px; color: green;'>+10 points!</span><br><br></div>,,delaylearn,learning,feedback_image_window,ZhWeSHRTTUfCl0Y6uOwX4qUdAcU2,ZhWeSHRTTUfCl0Y6uOwX4qUdAcU2,,,,,,,,,,,,,,,,,,,,,,5ecf82c4e84c2d01e7ba2f7a,15:54:24,26/03/2024
html-keyboard-response,181,380641,0.0-75.0,,"<div style=""font-size:100px;"">+</div>",,delaylearn,learning,ITI,ZhWeSHRTTUfCl0Y6uOwX4qUdAcU2,ZhWeSHRTTUfCl0Y6uOwX4qUdAcU2,,,,,,,,,,,,,,,,,,,1849.0,,,5ecf82c4e84c2d01e7ba2f7a,15:54:24,26/03/2024
html-keyboard-response,182,383646,0.0-76.0-0.0,,"<div style=""display: flex; flex-direction: column; align-items: center; margin-top: -40px;""><img src=""images/pattern_5.png"" style=""width: 234px; height: 230px; margin-top: -50px;""><div style=""display: flex; justify-content: space-between; margin-top: 33px;""><img src=""images/choice_trial_11.png"" style=""width: 408px; height: 417px; margin-right: 200px;""><img src=""images/choice_trial_2.png"" style=""width: 408px; height: 417px;""></div></div>",,delaylearn,learning,trial,ZhWeSHRTTUfCl0Y6uOwX4qUdAcU2,ZhWeSHRTTUfCl0Y6uOwX4qUdAcU2,3.0,images/choice_trial_11.png,images/choice_trial_2.png,images/pattern_5.png,j,f,750.0,11.0,2.0,4.0,0.0,33.0,0.0,0.0,0.0,190.0,,,,,,5ecf82c4e84c2d01e7ba2f7a,15:54:24,26/03/2024
html-keyboard-response,183,384649,0.0-76.0-1.0,,<div style='font-weight: bold; font-size: 75px; color: red;'>Missed Trial <br><br><br><br> Please respond faster</div>,,delaylearn,learning,display_response,ZhWeSHRTTUfCl0Y6uOwX4qUdAcU2,ZhWeSHRTTUfCl0Y6uOwX4qUdAcU2,,,,,,,,,,,,,,,,,Missed trial,,,,,5ecf82c4e84c2d01e7ba2f7a,15:54:24,26/03/2024
html-keyboard-response,184,384656,0.0-76.0-2.0,,,,delaylearn,learning,feedback_duration_window,ZhWeSHRTTUfCl0Y6uOwX4qUdAcU2,ZhWeSHRTTUfCl0Y6uOwX4qUdAcU2,,,,,,,,,,,,,,,,,,0.0,,,,5ecf82c4e84c2d01e7ba2f7a,15:54:24,26/03/2024
html-keyboard-response,185,384662,0.0-76.0-3.0,,,,delaylearn,learning,feedback_image_window,ZhWeSHRTTUfCl0Y6uOwX4qUdAcU2,ZhWeSHRTTUfCl0Y6uOwX4qUdAcU2,,,,,,,,,,,,,,,,,,,,,,5ecf82c4e84c2d01e7ba2f7a,15:54:24,26/03/2024
html-keyboard-response,186,386598,0.0-77.0,,"<div style=""font-size:100px;"">+</div>",,delaylearn,learning,ITI,ZhWeSHRTTUfCl0Y6uOwX4qUdAcU2,ZhWeSHRTTUfCl0Y6uOwX4qUdAcU2,,,,,,,,,,,,,,,,,,,1935.0,,,5ecf82c4e84c2d01e7ba2f7a,15:54:24,26/03/2024
html-keyboard-response,187,388561,0.0-78.0-0.0,1960.800000000745,"<div style=""display: flex; flex-direction: column; align-items: center; margin-top: -40px;""><img src=""images/pattern_1.png"" style=""width: 234px; height: 230px; margin-top: -50px;""><div style=""display: flex; justify-content: space-between; margin-top: 33px;""><img src=""images/choice_trial_14.png"" style=""width: 408px; height: 417px; margin-right: 200px;""><img src=""images/choice_trial_8.png"" style=""width: 408px; height: 417px;""></div></div>",f,delaylearn,learning,trial,ZhWeSHRTTUfCl0Y6uOwX4qUdAcU2,ZhWeSHRTTUfCl0Y6uOwX4qUdAcU2,3.0,images/choice_trial_14.png,images/choice_trial_8.png,images/pattern_1.png,f,f,7000.0,14.0,8.0,1.0,0.0,34.0,1.0,1.0,14.0,200.0,,,,,,5ecf82c4e84c2d01e7ba2f7a,15:54:24,26/03/2024
html-keyboard-response,188,389566,0.0-78.0-1.0,,"<div style=""display: flex; flex-direction: column; align-items: center; margin-top: -40px;""><img src=""images/pattern_1.png"" style=""width: 234px; height: 230px; margin-top: -50px;""><div style=""display: flex; justify-content: space-between; margin-top: 33px;""><img src=""images/choice_trial_14.png"" style=""width: 408px; height: 417px; margin-right: 608px;""></div></div>",,delaylearn,learning,display_response,ZhWeSHRTTUfCl0Y6uOwX4qUdAcU2,ZhWeSHRTTUfCl0Y6uOwX4qUdAcU2,,,,,,,,,,,,,,,,,chosen stimuli: images/choice_trial_14.png,,,,,5ecf82c4e84c2d01e7ba2f7a,15:54:24,26/03/2024
html-keyboard-response,189,396568,0.0-78.0-2.0,,,,delaylearn,learning,feedback_duration_window,ZhWeSHRTTUfCl0Y6uOwX4qUdAcU2,ZhWeSHRTTUfCl0Y6uOwX4qUdAcU2,,,,,,,,,,,,,,,,,,7000.0,,,,5ecf82c4e84c2d01e7ba2f7a,15:54:24,26/03/2024
html-keyboard-response,190,398072,0.0-78.0-3.0,,<div style='margin:auto;width: auto; font-size: 150%'><span style='font-weight: bold; font-size: 100px; color: green;'>+10 points!</span><br><br></div>,,delaylearn,learning,feedback_image_window,ZhWeSHRTTUfCl0Y6uOwX4qUdAcU2,ZhWeSHRTTUfCl0Y6uOwX4qUdAcU2,,,,,,,,,,,,,,,,,,,,,,5ecf82c4e84c2d01e7ba2f7a,15:54:24,26/03/2024
html-keyboard-response,191,398576,0.0-79.0-0.0,,,,,,mood_trial_fixation,ZhWeSHRTTUfCl0Y6uOwX4qUdAcU2,,,,,,,,,,,,,,,,,,,,,,,5ecf82c4e84c2d01e7ba2f7a,15:54:24,26/03/2024
lmdlab-html-vas-response,192,402548,0.0-79.0-1.0,2966.0,How happy are you right now?,0.4074074074074074,delaylearn,learning,mood_trial,ZhWeSHRTTUfCl0Y6uOwX4qUdAcU2,ZhWeSHRTTUfCl0Y6uOwX4qUdAcU2,,,,,,,,,,,,,,,,,,,,"['Very unhappy', 'Very happy']",,5ecf82c4e84c2d01e7ba2f7a,15:54:24,26/03/2024
html-keyboard-response,193,404097,0.0-80.0,,"<div style=""font-size:100px;"">+</div>",,delaylearn,learning,ITI,ZhWeSHRTTUfCl0Y6uOwX4qUdAcU2,ZhWeSHRTTUfCl0Y6uOwX4qUdAcU2,,,,,,,,,,,,,,,,,,,1547.0,,,5ecf82c4e84c2d01e7ba2f7a,15:54:24,26/03/2024
html-keyboard-response,194,406291,0.0-81.0-0.0,2189.89999999851,"<div style=""display: flex; flex-direction: column; align-items: center; margin-top: -40px;""><img src=""images/pattern_6.png"" style=""width: 234px; height: 230px; margin-top: -50px;""><div style=""display: flex; justify-content: space-between; margin-top: 33px;""><img src=""images/choice_trial_16.png"" style=""width: 408px; height: 417px; margin-right: 200px;""><img src=""images/choice_trial_3.png"" style=""width: 408px; height: 417px;""></div></div>",f,delaylearn,learning,trial,ZhWeSHRTTUfCl0Y6uOwX4qUdAcU2,ZhWeSHRTTUfCl0Y6uOwX4qUdAcU2,3.0,images/choice_trial_16.png,images/choice_trial_3.png,images/pattern_6.png,j,f,750.0,16.0,3.0,5.0,0.0,35.0,1.0,0.0,16.0,200.0,,,,,,5ecf82c4e84c2d01e7ba2f7a,15:54:24,26/03/2024
html-keyboard-response,195,407294,0.0-81.0-1.0,,"<div style=""display: flex; flex-direction: column; align-items: center; margin-top: -40px;""><img src=""images/pattern_6.png"" style=""width: 234px; height: 230px; margin-top: -50px;""><div style=""display: flex; justify-content: space-between; margin-top: 33px;""><img src=""images/choice_trial_16.png"" style=""width: 408px; height: 417px; margin-right: 608px;""></div></div>",,delaylearn,learning,display_response,ZhWeSHRTTUfCl0Y6uOwX4qUdAcU2,ZhWeSHRTTUfCl0Y6uOwX4qUdAcU2,,,,,,,,,,,,,,,,,chosen stimuli: images/choice_trial_16.png,,,,,5ecf82c4e84c2d01e7ba2f7a,15:54:24,26/03/2024
html-keyboard-response,196,408047,0.0-81.0-2.0,,,,delaylearn,learning,feedback_duration_window,ZhWeSHRTTUfCl0Y6uOwX4qUdAcU2,ZhWeSHRTTUfCl0Y6uOwX4qUdAcU2,,,,,,,,,,,,,,,,,,750.0,,,,5ecf82c4e84c2d01e7ba2f7a,15:54:24,26/03/2024
html-keyboard-response,197,409550,0.0-81.0-3.0,,<div style='margin:auto;width: auto; font-size: 150%'><span style='font-weight: bold; font-size: 100px; color: red;'>0 points!</span><br><br></div>,,delaylearn,learning,feedback_image_window,ZhWeSHRTTUfCl0Y6uOwX4qUdAcU2,ZhWeSHRTTUfCl0Y6uOwX4qUdAcU2,,,,,,,,,,,,,,,,,,,,,,5ecf82c4e84c2d01e7ba2f7a,15:54:24,26/03/2024
html-keyboard-response,198,411335,0.0-82.0,,"<div style=""font-size:100px;"">+</div>",,delaylearn,learning,ITI,ZhWeSHRTTUfCl0Y6uOwX4qUdAcU2,ZhWeSHRTTUfCl0Y6uOwX4qUdAcU2,,,,,,,,,,,,,,,,,,,1783.0,,,5ecf82c4e84c2d01e7ba2f7a,15:54:24,26/03/2024
html-keyboard-response,199,412541,0.0-83.0-0.0,1203.300000000745,"<div style=""display: flex; flex-direction: column; align-items: center; margin-top: -40px;""><img src=""images/pattern_3.png"" style=""width: 234px; height: 230px; margin-top: -50px;""><div style=""display: flex; justify-content: space-between; margin-top: 33px;""><img src=""images/choice_trial_10.png"" style=""width: 408px; height: 417px; margin-right: 200px;""><img src=""images/choice_trial_13.png"" style=""width: 408px; height: 417px;""></div></div>",j,delaylearn,learning,trial,ZhWeSHRTTUfCl0Y6uOwX4qUdAcU2,ZhWeSHRTTUfCl0Y6uOwX4qUdAcU2,3.0,images/choice_trial_10.png,images/choice_trial_13.png,images/pattern_3.png,j,j,7000.0,10.0,13.0,2.0,1.0,36.0,1.0,1.0,13.0,210.0,,,,,,5ecf82c4e84c2d01e7ba2f7a,15:54:24,26/03/2024
html-keyboard-response,200,413544,0.0-83.0-1.0,,"<div style=""display: flex; flex-direction: column; align-items: center; margin-top: -40px;""><img src=""images/pattern_3.png"" style=""width: 234px; height: 230px; margin-top: -50px;""><div style=""display: flex; justify-content: space-between; margin-top: 33px;""><img src=""images/choice_trial_13.png"" style=""width: 408px; height: 417px; margin-left:608px;""></div></div>",,delaylearn,learning,display_response,ZhWeSHRTTUfCl0Y6uOwX4qUdAcU2,ZhWeSHRTTUfCl0Y6uOwX4qUdAcU2,,,,,,,,,,,,,,,,,chosen stimuli: images/choice_trial_13.png,,,,,5ecf82c4e84c2d01e7ba2f7a,15:54:24,26/03/2024
html-keyboard-response,201,420549,0.0-83.0-2.0,,,,delaylearn,learning,feedback_duration_window,ZhWeSHRTTUfCl0Y6uOwX4qUdAcU2,ZhWeSHRTTUfCl0Y6uOwX4qUdAcU2,,,,,,,,,,,,,,,,,,7000.0,,,,5ecf82c4e84c2d01e7ba2f7a,15:54:24,26/03/2024
html-keyboard-response,202,422054,0.0-83.0-3.0,,<div style='margin:auto;width: auto; font-size: 150%'><span style='font-weight: bold; font-size: 100px; color: green;'>+10 points!</span><br><br></div>,,delaylearn,learning,feedback_image_window,ZhWeSHRTTUfCl0Y6uOwX4qUdAcU2,ZhWeSHRTTUfCl0Y6uOwX4qUdAcU2,,,,,,,,,,,,,,,,,,,,,,5ecf82c4e84c2d01e7ba2f7a,15:54:24,26/03/2024
html-keyboard-response,203,423786,0.0-84.0,,"<div style=""font-size:100px;"">+</div>",,delaylearn,learning,ITI,ZhWeSHRTTUfCl0Y6uOwX4qUdAcU2,ZhWeSHRTTUfCl0Y6uOwX4qUdAcU2,,,,,,,,,,,,,,,,,,,1729.0,,,5ecf82c4e84c2d01e7ba2f7a,15:54:24,26/03/2024
html-keyboard-response,204,425813,0.0-85.0-0.0,2023.2000000029802,"<div style=""display: flex; flex-direction: column; align-items: center; margin-top: -40px;""><img src=""images/pattern_4.png"" style=""width: 234px; height: 230px; margin-top: -50px;""><div style=""display: flex; justify-content: space-between; margin-top: 33px;""><img src=""images/choice_trial_9.png"" style=""width: 408px; height: 417px; margin-right: 200px;""><img src=""images/choice_trial_15.png"" style=""width: 408px; height: 417px;""></div></div>",f,delaylearn,learning,trial,ZhWeSHRTTUfCl0Y6uOwX4qUdAcU2,ZhWeSHRTTUfCl0Y6uOwX4qUdAcU2,3.0,images/choice_trial_9.png,images/choice_trial_15.png,images/pattern_4.png,f,j,7000.0,9.0,15.0,3.0,1.0,37.0,0.0,1.0,9.0,220.0,,,,,,5ecf82c4e84c2d01e7ba2f7a,15:54:24,26/03/2024
html-keyboard-response,205,426817,0.0-85.0-1.0,,"<div style=""display: flex; flex-direction: column; align-items: center; margin-top: -40px;""><img src=""images/pattern_4.png"" style=""width: 234px; height: 230px; margin-top: -50px;""><div style=""display: flex; justify-content: space-between; margin-top: 33px;""><img src=""images/choice_trial_9.png"" style=""width: 408px; height: 417px; margin-right: 608px;""></div></div>",,delaylearn,learning,display_response,ZhWeSHRTTUfCl0Y6uOwX4qUdAcU2,ZhWeSHRTTUfCl0Y6uOwX4qUdAcU2,,,,,,,,,,,,,,,,,chosen stimuli: images/choice_trial_9.png,,,,,5ecf82c4e84c2d01e7ba2f7a,15:54:24,26/03/2024
html-keyboard-response,206,433820,0.0-85.0-2.0,,,,delaylearn,learning,feedback_duration_window,ZhWeSHRTTUfCl0Y6uOwX4qUdAcU2,ZhWeSHRTTUfCl0Y6uOwX4qUdAcU2,,,,,,,,,,,,,,,,,,7000.0,,,,5ecf82c4e84c2d01e7ba2f7a,15:54:24,26/03/2024
html-keyboard-response,207,435323,0.0-85.0-3.0,,<div style='margin:auto;width: auto; font-size: 150%'><span style='font-weight: bold; font-size: 100px; color: green;'>+10 points!</span><br><br></div>,,delaylearn,learning,feedback_image_window,ZhWeSHRTTUfCl0Y6uOwX4qUdAcU2,ZhWeSHRTTUfCl0Y6uOwX4qUdAcU2,,,,,,,,,,,,,,,,,,,,,,5ecf82c4e84c2d01e7ba2f7a,15:54:24,26/03/2024
html-keyboard-response,208,437123,0.0-86.0,,"<div style=""font-size:100px;"">+</div>",,delaylearn,learning,ITI,ZhWeSHRTTUfCl0Y6uOwX4qUdAcU2,ZhWeSHRTTUfCl0Y6uOwX4qUdAcU2,,,,,,,,,,,,,,,,,,,1798.0,,,5ecf82c4e84c2d01e7ba2f7a,15:54:24,26/03/2024
html-keyboard-response,209,438322,0.0-87.0-0.0,1196.3999999985099,"<div style=""display: flex; flex-direction: column; align-items: center; margin-top: -40px;""><img src=""images/pattern_7.png"" style=""width: 234px; height: 230px; margin-top: -50px;""><div style=""display: flex; justify-content: space-between; margin-top: 33px;""><img src=""images/choice_trial_6.png"" style=""width: 408px; height: 417px; margin-right: 200px;""><img src=""images/choice_trial_12.png"" style=""width: 408px; height: 417px;""></div></div>",f,delaylearn,learning,trial,ZhWeSHRTTUfCl0Y6uOwX4qUdAcU2,ZhWeSHRTTUfCl0Y6uOwX4qUdAcU2,3.0,images/choice_trial_6.png,images/choice_trial_12.png,images/pattern_7.png,f,f,750.0,6.0,12.0,6.0,0.0,38.0,1.0,1.0,6.0,230.0,,,,,,5ecf82c4e84c2d01e7ba2f7a,15:54:24,26/03/2024
html-keyboard-response,210,439326,0.0-87.0-1.0,,"<div style=""display: flex; flex-direction: column; align-items: center; margin-top: -40px;""><img src=""images/pattern_7.png"" style=""width: 234px; height: 230px; margin-top: -50px;""><div style=""display: flex; justify-content: space-between; margin-top: 33px;""><img src=""images/choice_trial_6.png"" style=""width: 408px; height: 417px; margin-right: 608px;""></div></div>",,delaylearn,learning,display_response,ZhWeSHRTTUfCl0Y6uOwX4qUdAcU2,ZhWeSHRTTUfCl0Y6uOwX4qUdAcU2,,,,,,,,,,,,,,,,,chosen stimuli: images/choice_trial_6.png,,,,,5ecf82c4e84c2d01e7ba2f7a,15:54:24,26/03/2024
html-keyboard-response,211,440079,0.0-87.0-2.0,,,,delaylearn,learning,feedback_duration_window,ZhWeSHRTTUfCl0Y6uOwX4qUdAcU2,ZhWeSHRTTUfCl0Y6uOwX4qUdAcU2,,,,,,,,,,,,,,,,,,750.0,,,,5ecf82c4e84c2d01e7ba2f7a,15:54:24,26/03/2024
html-keyboard-response,212,441584,0.0-87.0-3.0,,<div style='margin:auto;width: auto; font-size: 150%'><span style='font-weight: bold; font-size: 100px; color: green;'>+10 points!</span><br><br></div>,,delaylearn,learning,feedback_image_window,ZhWeSHRTTUfCl0Y6uOwX4qUdAcU2,ZhWeSHRTTUfCl0Y6uOwX4qUdAcU2,,,,,,,,,,,,,,,,,,,,,,5ecf82c4e84c2d01e7ba2f7a,15:54:24,26/03/2024
html-keyboard-response,213,443870,0.0-88.0,,"<div style=""font-size:100px;"">+</div>",,delaylearn,learning,ITI,ZhWeSHRTTUfCl0Y6uOwX4qUdAcU2,ZhWeSHRTTUfCl0Y6uOwX4qUdAcU2,,,,,,,,,,,,,,,,,,,2283.0,,,5ecf82c4e84c2d01e7ba2f7a,15:54:24,26/03/2024
html-keyboard-response,214,445642,0.0-89.0-0.0,1769.0,"<div style=""display: flex; flex-direction: column; align-items: center; margin-top: -40px;""><img src=""images/pattern_1.png"" style=""width: 234px; height: 230px; margin-top: -50px;""><div style=""display: flex; justify-content: space-between; margin-top: 33px;""><img src=""images/choice_trial_14.png"" style=""width: 408px; height: 417px; margin-right: 200px;""><img src=""images/choice_trial_8.png"" style=""width: 408px; height: 417px;""></div></div>",f,delaylearn,learning,trial,ZhWeSHRTTUfCl0Y6uOwX4qUdAcU2,ZhWeSHRTTUfCl0Y6uOwX4qUdAcU2,3.0,images/choice_trial_14.png,images/choice_trial_8.png,images/pattern_1.png,f,f,7000.0,14.0,8.0,1.0,0.0,39.0,1.0,1.0,14.0,240.0,,,,,,5ecf82c4e84c2d01e7ba2f7a,15:54:24,26/03/2024
html-keyboard-response,215,446644,0.0-89.0-1.0,,"<div style=""display: flex; flex-direction: column; align-items: center; margin-top: -40px;""><img src=""images/pattern_1.png"" style=""width: 234px; height: 230px; margin-top: -50px;""><div style=""display: flex; justify-content: space-between; margin-top: 33px;""><img src=""images/choice_trial_14.png"" style=""width: 408px; height: 417px; margin-right: 608px;""></div></div>",,delaylearn,learning,display_response,ZhWeSHRTTUfCl0Y6uOwX4qUdAcU2,ZhWeSHRTTUfCl0Y6uOwX4qUdAcU2,,,,,,,,,,,,,,,,,chosen stimuli: images/choice_trial_14.png,,,,,5ecf82c4e84c2d01e7ba2f7a,15:54:24,26/03/2024
html-keyboard-response,216,453649,0.0-89.0-2.0,,,,delaylearn,learning,feedback_duration_window,ZhWeSHRTTUfCl0Y6uOwX4qUdAcU2,ZhWeSHRTTUfCl0Y6uOwX4qUdAcU2,,,,,,,,,,,,,,,,,,7000.0,,,,5ecf82c4e84c2d01e7ba2f7a,15:54:24,26/03/2024
html-keyboard-response,217,455152,0.0-89.0-3.0,,<div style='margin:auto;width: auto; font-size: 150%'><span style='font-weight: bold; font-size: 100px; color: green;'>+10 points!</span><br><br></div>,,delaylearn,learning,feedback_image_window,ZhWeSHRTTUfCl0Y6uOwX4qUdAcU2,ZhWeSHRTTUfCl0Y6uOwX4qUdAcU2,,,,,,,,,,,,,,,,,,,,,,5ecf82c4e84c2d01e7ba2f7a,15:54:24,26/03/2024
html-keyboard-response,218,455658,0.0-90.0-0.0,,,,,,mood_trial_fixation,ZhWeSHRTTUfCl0Y6uOwX4qUdAcU2,,,,,,,,,,,,,,,,,,,,,,,5ecf82c4e84c2d01e7ba2f7a,15:54:24,26/03/2024
lmdlab-html-vas-response,219,459416,0.0-90.0-1.0,2754.0,How happy are you right now?,0.37592592592592594,delaylearn,learning,mood_trial,ZhWeSHRTTUfCl0Y6uOwX4qUdAcU2,ZhWeSHRTTUfCl0Y6uOwX4qUdAcU2,,,,,,,,,,,,,,,,,,,,"['Very unhappy', 'Very happy']",,5ecf82c4e84c2d01e7ba2f7a,15:54:24,26/03/2024
html-keyboard-response,220,461679,0.0-91.0,,"<div style=""font-size:100px;"">+</div>",,delaylearn,learning,ITI,ZhWeSHRTTUfCl0Y6uOwX4qUdAcU2,ZhWeSHRTTUfCl0Y6uOwX4qUdAcU2,,,,,,,,,,,,,,,,,,,2259.0,,,5ecf82c4e84c2d01e7ba2f7a,15:54:24,26/03/2024
html-keyboard-response,221,462417,0.0-92.0-0.0,733.5999999977648,"<div style=""display: flex; flex-direction: column; align-items: center; margin-top: -40px;""><img src=""images/pattern_3.png"" style=""width: 234px; height: 230px; margin-top: -50px;""><div style=""display: flex; justify-content: space-between; margin-top: 33px;""><img src=""images/choice_trial_13.png"" style=""width: 408px; height: 417px; margin-right: 200px;""><img src=""images/choice_trial_10.png"" style=""width: 408px; height: 417px;""></div></div>",f,delaylearn,learning,trial,ZhWeSHRTTUfCl0Y6uOwX4qUdAcU2,ZhWeSHRTTUfCl0Y6uOwX4qUdAcU2,3.0,images/choice_trial_13.png,images/choice_trial_10.png,images/pattern_3.png,j,f,7000.0,13.0,10.0,2.0,0.0,40.0,1.0,0.0,13.0,240.0,,,,,,5ecf82c4e84c2d01e7ba2f7a,15:54:24,26/03/2024
html-keyboard-response,222,463420,0.0-92.0-1.0,,"<div style=""display: flex; flex-direction: column; align-items: center; margin-top: -40px;""><img src=""images/pattern_3.png"" style=""width: 234px; height: 230px; margin-top: -50px;""><div style=""display: flex; justify-content: space-between; margin-top: 33px;""><img src=""images/choice_trial_13.png"" style=""width: 408px; height: 417px; margin-right: 608px;""></div></div>",,delaylearn,learning,display_response,ZhWeSHRTTUfCl0Y6uOwX4qUdAcU2,ZhWeSHRTTUfCl0Y6uOwX4qUdAcU2,,,,,,,,,,,,,,,,,chosen stimuli: images/choice_trial_13.png,,,,,5ecf82c4e84c2d01e7ba2f7a,15:54:24,26/03/2024
html-keyboard-response,223,470423,0.0-92.0-2.0,,,,delaylearn,learning,feedback_duration_window,ZhWeSHRTTUfCl0Y6uOwX4qUdAcU2,ZhWeSHRTTUfCl0Y6uOwX4qUdAcU2,,,,,,,,,,,,,,,,,,7000.0,,,,5ecf82c4e84c2d01e7ba2f7a,15:54:24,26/03/2024
html-keyboard-response,224,471926,0.0-92.0-3.0,,<div style='margin:auto;width: auto; font-size: 150%'><span style='font-weight: bold; font-size: 100px; color: red;'>0 points!</span><br><br></div>,,delaylearn,learning,feedback_image_window,ZhWeSHRTTUfCl0Y6uOwX4qUdAcU2,ZhWeSHRTTUfCl0Y6uOwX4qUdAcU2,,,,,,,,,,,,,,,,,,,,,,5ecf82c4e84c2d01e7ba2f7a,15:54:24,26/03/2024
html-keyboard-response,225,473874,0.0-93.0,,"<div style=""font-size:100px;"">+</div>",,delaylearn,learning,ITI,ZhWeSHRTTUfCl0Y6uOwX4qUdAcU2,ZhWeSHRTTUfCl0Y6uOwX4qUdAcU2,,,,,,,,,,,,,,,,,,,1945.0,,,5ecf82c4e84c2d01e7ba2f7a,15:54:24,26/03/2024
html-keyboard-response,226,474558,0.0-94.0-0.0,680.0,"<div style=""display: flex; flex-direction: column; align-items: center; margin-top: -40px;""><img src=""images/pattern_7.png"" style=""width: 234px; height: 230px; margin-top: -50px;""><div style=""display: flex; justify-content: space-between; margin-top: 33px;""><img src=""images/choice_trial_12.png"" style=""width: 408px; height: 417px; margin-right: 200px;""><img src=""images/choice_trial_6.png"" style=""width: 408px; height: 417px;""></div></div>",j,delaylearn,learning,trial,ZhWeSHRTTUfCl0Y6uOwX4qUdAcU2,ZhWeSHRTTUfCl0Y6uOwX4qUdAcU2,3.0,images/choice_trial_12.png,images/choice_trial_6.png,images/pattern_7.png,j,j,750.0,12.0,6.0,6.0,1.0,41.0,1.0,1.0,6.0,250.0,,,,,,5ecf82c4e84c2d01e7ba2f7a,15:54:24,26/03/2024
html-keyboard-response,227,475562,0.0-94.0-1.0,,"<div style=""display: flex; flex-direction: column; align-items: center; margin-top: -40px;""><img src=""images/pattern_7.png"" style=""width: 234px; height: 230px; margin-top: -50px;""><div style=""display: flex; justify-content: space-between; margin-top: 33px;""><img src=""images/choice_trial_6.png"" style=""width: 408px; height: 417px; margin-left:608px;""></div></div>",,delaylearn,learning,display_response,ZhWeSHRTTUfCl0Y6uOwX4qUdAcU2,ZhWeSHRTTUfCl0Y6uOwX4qUdAcU2,,,,,,,,,,,,,,,,,chosen stimuli: images/choice_trial_6.png,,,,,5ecf82c4e84c2d01e7ba2f7a,15:54:24,26/03/2024
html-keyboard-response,228,476317,0.0-94.0-2.0,,,,delaylearn,learning,feedback_duration_window,ZhWeSHRTTUfCl0Y6uOwX4qUdAcU2,ZhWeSHRTTUfCl0Y6uOwX4qUdAcU2,,,,,,,,,,,,,,,,,,750.0,,,,5ecf82c4e84c2d01e7ba2f7a,15:54:24,26/03/2024
html-keyboard-response,229,477820,0.0-94.0-3.0,,<div style='margin:auto;width: auto; font-size: 150%'><span style='font-weight: bold; font-size: 100px; color: green;'>+10 points!</span><br><br></div>,,delaylearn,learning,feedback_image_window,ZhWeSHRTTUfCl0Y6uOwX4qUdAcU2,ZhWeSHRTTUfCl0Y6uOwX4qUdAcU2,,,,,,,,,,,,,,,,,,,,,,5ecf82c4e84c2d01e7ba2f7a,15:54:24,26/03/2024
html-keyboard-response,230,480131,0.0-95.0,,"<div style=""font-size:100px;"">+</div>",,delaylearn,learning,ITI,ZhWeSHRTTUfCl0Y6uOwX4qUdAcU2,ZhWeSHRTTUfCl0Y6uOwX4qUdAcU2,,,,,,,,,,,,,,,,,,,2306.0,,,5ecf82c4e84c2d01e7ba2f7a,15:54:24,26/03/2024
