trial_type,trial_index,time_elapsed,internal_node_id,rt,stimulus,response,exp_name,exp_stage,test_part,subjectID,databaseID,counterbal,choice_stimuli_1,choice_stimuli_2,pattern_stimuli,rewarded_answer,correct_answer,feedback_duration_times,stim_left,stim_right,pair,leftright_counter,trial,response_correct,response_rewarded,chosen_stim,counter,displayed_choice,feedback_durations,ITI_duration,labels,rest_warning,prolificID,start_time,date
pavlovia,0,793,0.0-0.0,,,,,,,Dd1Qntnp65NxPkjCVvdqvkk9TSn1,,,,,,,,,,,,,,,,,,,,,,,655509818aa2ed735957565c,18:45:47,27/03/2024
html-keyboard-response,1,3795,0.0-1.0,,"<div style=""font-size:100px;"">+</div>",,delaylearn,learning,pre_fixation,Dd1Qntnp65NxPkjCVvdqvkk9TSn1,,,,,,,,,,,,,,,,,,,,,,,655509818aa2ed735957565c,18:45:47,27/03/2024
html-keyboard-response,2,4451,0.0-2.0-0.0,652.6999999992549,"<div style=""display: flex; flex-direction: column; align-items: center; margin-top: -40px;""><img src=""images/demo_images/pattern_1.png"" style=""width: 234px; height: 230px; margin-top: -50px;""><div style=""display: flex; justify-content: space-between; margin-top: 33px;""><img src=""images/demo_images/choice_trial_2.png"" style=""width: 408px; height: 417px; margin-right: 200px;""><img src=""images/demo_images/choice_trial_1.png"" style=""width: 408px; height: 417px;""></div></div>",f,delaylearn,learning,trial,Dd1Qntnp65NxPkjCVvdqvkk9TSn1,Dd1Qntnp65NxPkjCVvdqvkk9TSn1,5.0,images/demo_images/choice_trial_2.png,images/demo_images/choice_trial_1.png,images/demo_images/pattern_1.png,j,j,3000.0,2.0,1.0,20.0,1.0,1.0,0.0,0.0,2.0,0.0,,,,,,655509818aa2ed735957565c,18:45:47,27/03/2024
html-keyboard-response,3,5456,0.0-2.0-1.0,,"<div style=""display: flex; flex-direction: column; align-items: center; margin-top: -40px;""><img src=""images/demo_images/pattern_1.png"" style=""width: 234px; height: 230px; margin-top: -50px;""><div style=""display: flex; justify-content: space-between; margin-top: 33px;""><img src=""images/demo_images/choice_trial_2.png"" style=""width: 408px; height: 417px; margin-right: 608px;""></div></div>",,delaylearn,learning,display_response,Dd1Qntnp65NxPkjCVvdqvkk9TSn1,Dd1Qntnp65NxPkjCVvdqvkk9TSn1,,,,,,,,,,,,,,,,,chosen stimuli: images/demo_images/choice_trial_2.png,,,,,655509818aa2ed735957565c,18:45:47,27/03/2024
html-keyboard-response,4,8461,0.0-2.0-2.0,,,,delaylearn,learning,feedback_duration_window,Dd1Qntnp65NxPkjCVvdqvkk9TSn1,Dd1Qntnp65NxPkjCVvdqvkk9TSn1,,,,,,,,,,,,,,,,,,3000.0,,,,655509818aa2ed735957565c,18:45:47,27/03/2024
html-keyboard-response,5,9965,0.0-2.0-3.0,,<div style='margin:auto;width: auto; font-size: 150%'><span style='font-weight: bold; font-size: 100px; color: red;'>0 points!</span><br><br></div>,,delaylearn,learning,feedback_image_window,Dd1Qntnp65NxPkjCVvdqvkk9TSn1,Dd1Qntnp65NxPkjCVvdqvkk9TSn1,,,,,,,,,,,,,,,,,,,,,,655509818aa2ed735957565c,18:45:47,27/03/2024
html-keyboard-response,6,11969,0.0-3.0,,"<div style=""font-size:100px;"">+</div>",,delaylearn,learning,ITI,Dd1Qntnp65NxPkjCVvdqvkk9TSn1,Dd1Qntnp65NxPkjCVvdqvkk9TSn1,,,,,,,,,,,,,,,,,,,2002.0,,,655509818aa2ed735957565c,18:45:47,27/03/2024
html-keyboard-response,7,12837,0.0-4.0-0.0,861.0999999996275,"<div style=""display: flex; flex-direction: column; align-items: center; margin-top: -40px;""><img src=""images/demo_images/pattern_1.png"" style=""width: 234px; height: 230px; margin-top: -50px;""><div style=""display: flex; justify-content: space-between; margin-top: 33px;""><img src=""images/demo_images/choice_trial_2.png"" style=""width: 408px; height: 417px; margin-right: 200px;""><img src=""images/demo_images/choice_trial_1.png"" style=""width: 408px; height: 417px;""></div></div>",j,delaylearn,learning,trial,Dd1Qntnp65NxPkjCVvdqvkk9TSn1,Dd1Qntnp65NxPkjCVvdqvkk9TSn1,5.0,images/demo_images/choice_trial_2.png,images/demo_images/choice_trial_1.png,images/demo_images/pattern_1.png,j,j,3000.0,2.0,1.0,20.0,1.0,2.0,1.0,1.0,1.0,10.0,,,,,,655509818aa2ed735957565c,18:45:47,27/03/2024
html-keyboard-response,8,13840,0.0-4.0-1.0,,"<div style=""display: flex; flex-direction: column; align-items: center; margin-top: -40px;""><img src=""images/demo_images/pattern_1.png"" style=""width: 234px; height: 230px; margin-top: -50px;""><div style=""display: flex; justify-content: space-between; margin-top: 33px;""><img src=""images/demo_images/choice_trial_1.png"" style=""width: 408px; height: 417px; margin-left:608px;""></div></div>",,delaylearn,learning,display_response,Dd1Qntnp65NxPkjCVvdqvkk9TSn1,Dd1Qntnp65NxPkjCVvdqvkk9TSn1,,,,,,,,,,,,,,,,,chosen stimuli: images/demo_images/choice_trial_1.png,,,,,655509818aa2ed735957565c,18:45:47,27/03/2024
html-keyboard-response,9,16844,0.0-4.0-2.0,,,,delaylearn,learning,feedback_duration_window,Dd1Qntnp65NxPkjCVvdqvkk9TSn1,Dd1Qntnp65NxPkjCVvdqvkk9TSn1,,,,,,,,,,,,,,,,,,3000.0,,,,655509818aa2ed735957565c,18:45:47,27/03/2024
html-keyboard-response,10,18349,0.0-4.0-3.0,,<div style='margin:auto;width: auto; font-size: 150%'><span style='font-weight: bold; font-size: 100px; color: green;'>+10 points!</span><br><br></div>,,delaylearn,learning,feedback_image_window,Dd1Qntnp65NxPkjCVvdqvkk9TSn1,Dd1Qntnp65NxPkjCVvdqvkk9TSn1,,,,,,,,,,,,,,,,,,,,,,655509818aa2ed735957565c,18:45:47,27/03/2024
html-keyboard-response,11,20770,0.0-5.0,,"<div style=""font-size:100px;"">+</div>",,delaylearn,learning,ITI,Dd1Qntnp65NxPkjCVvdqvkk9TSn1,Dd1Qntnp65NxPkjCVvdqvkk9TSn1,,,,,,,,,,,,,,,,,,,2418.0,,,655509818aa2ed735957565c,18:45:47,27/03/2024
html-keyboard-response,12,21512,0.0-6.0-0.0,737.8000000007451,"<div style=""display: flex; flex-direction: column; align-items: center; margin-top: -40px;""><img src=""images/demo_images/pattern_1.png"" style=""width: 234px; height: 230px; margin-top: -50px;""><div style=""display: flex; justify-content: space-between; margin-top: 33px;""><img src=""images/demo_images/choice_trial_1.png"" style=""width: 408px; height: 417px; margin-right: 200px;""><img src=""images/demo_images/choice_trial_2.png"" style=""width: 408px; height: 417px;""></div></div>",j,delaylearn,learning,trial,Dd1Qntnp65NxPkjCVvdqvkk9TSn1,Dd1Qntnp65NxPkjCVvdqvkk9TSn1,5.0,images/demo_images/choice_trial_1.png,images/demo_images/choice_trial_2.png,images/demo_images/pattern_1.png,j,f,3000.0,1.0,2.0,20.0,0.0,3.0,0.0,1.0,2.0,20.0,,,,,,655509818aa2ed735957565c,18:45:47,27/03/2024
html-keyboard-response,13,22514,0.0-6.0-1.0,,"<div style=""display: flex; flex-direction: column; align-items: center; margin-top: -40px;""><img src=""images/demo_images/pattern_1.png"" style=""width: 234px; height: 230px; margin-top: -50px;""><div style=""display: flex; justify-content: space-between; margin-top: 33px;""><img src=""images/demo_images/choice_trial_2.png"" style=""width: 408px; height: 417px; margin-left:608px;""></div></div>",,delaylearn,learning,display_response,Dd1Qntnp65NxPkjCVvdqvkk9TSn1,Dd1Qntnp65NxPkjCVvdqvkk9TSn1,,,,,,,,,,,,,,,,,chosen stimuli: images/demo_images/choice_trial_2.png,,,,,655509818aa2ed735957565c,18:45:47,27/03/2024
html-keyboard-response,14,25516,0.0-6.0-2.0,,,,delaylearn,learning,feedback_duration_window,Dd1Qntnp65NxPkjCVvdqvkk9TSn1,Dd1Qntnp65NxPkjCVvdqvkk9TSn1,,,,,,,,,,,,,,,,,,3000.0,,,,655509818aa2ed735957565c,18:45:47,27/03/2024
html-keyboard-response,15,27020,0.0-6.0-3.0,,<div style='margin:auto;width: auto; font-size: 150%'><span style='font-weight: bold; font-size: 100px; color: green;'>+10 points!</span><br><br></div>,,delaylearn,learning,feedback_image_window,Dd1Qntnp65NxPkjCVvdqvkk9TSn1,Dd1Qntnp65NxPkjCVvdqvkk9TSn1,,,,,,,,,,,,,,,,,,,,,,655509818aa2ed735957565c,18:45:47,27/03/2024
html-keyboard-response,16,29171,0.0-7.0,,"<div style=""font-size:100px;"">+</div>",,delaylearn,learning,ITI,Dd1Qntnp65NxPkjCVvdqvkk9TSn1,Dd1Qntnp65NxPkjCVvdqvkk9TSn1,,,,,,,,,,,,,,,,,,,2148.0,,,655509818aa2ed735957565c,18:45:47,27/03/2024
html-keyboard-response,17,30067,0.0-8.0-0.0,888.5,"<div style=""display: flex; flex-direction: column; align-items: center; margin-top: -40px;""><img src=""images/demo_images/pattern_1.png"" style=""width: 234px; height: 230px; margin-top: -50px;""><div style=""display: flex; justify-content: space-between; margin-top: 33px;""><img src=""images/demo_images/choice_trial_1.png"" style=""width: 408px; height: 417px; margin-right: 200px;""><img src=""images/demo_images/choice_trial_2.png"" style=""width: 408px; height: 417px;""></div></div>",f,delaylearn,learning,trial,Dd1Qntnp65NxPkjCVvdqvkk9TSn1,Dd1Qntnp65NxPkjCVvdqvkk9TSn1,5.0,images/demo_images/choice_trial_1.png,images/demo_images/choice_trial_2.png,images/demo_images/pattern_1.png,f,f,3000.0,1.0,2.0,20.0,0.0,4.0,1.0,1.0,1.0,30.0,,,,,,655509818aa2ed735957565c,18:45:47,27/03/2024
html-keyboard-response,18,31070,0.0-8.0-1.0,,"<div style=""display: flex; flex-direction: column; align-items: center; margin-top: -40px;""><img src=""images/demo_images/pattern_1.png"" style=""width: 234px; height: 230px; margin-top: -50px;""><div style=""display: flex; justify-content: space-between; margin-top: 33px;""><img src=""images/demo_images/choice_trial_1.png"" style=""width: 408px; height: 417px; margin-right: 608px;""></div></div>",,delaylearn,learning,display_response,Dd1Qntnp65NxPkjCVvdqvkk9TSn1,Dd1Qntnp65NxPkjCVvdqvkk9TSn1,,,,,,,,,,,,,,,,,chosen stimuli: images/demo_images/choice_trial_1.png,,,,,655509818aa2ed735957565c,18:45:47,27/03/2024
html-keyboard-response,19,34074,0.0-8.0-2.0,,,,delaylearn,learning,feedback_duration_window,Dd1Qntnp65NxPkjCVvdqvkk9TSn1,Dd1Qntnp65NxPkjCVvdqvkk9TSn1,,,,,,,,,,,,,,,,,,3000.0,,,,655509818aa2ed735957565c,18:45:47,27/03/2024
html-keyboard-response,20,35579,0.0-8.0-3.0,,<div style='margin:auto;width: auto; font-size: 150%'><span style='font-weight: bold; font-size: 100px; color: green;'>+10 points!</span><br><br></div>,,delaylearn,learning,feedback_image_window,Dd1Qntnp65NxPkjCVvdqvkk9TSn1,Dd1Qntnp65NxPkjCVvdqvkk9TSn1,,,,,,,,,,,,,,,,,,,,,,655509818aa2ed735957565c,18:45:47,27/03/2024
html-keyboard-response,21,36081,0.0-9.0-0.0,,,,,,mood_trial_fixation,Dd1Qntnp65NxPkjCVvdqvkk9TSn1,,,,,,,,,,,,,,,,,,,,,,,655509818aa2ed735957565c,18:45:47,27/03/2024
lmdlab-html-vas-response,22,42224,0.0-9.0-1.0,5123.0,How happy are you right now?,0.9340476755620358,delaylearn,learning,mood_trial,Dd1Qntnp65NxPkjCVvdqvkk9TSn1,Dd1Qntnp65NxPkjCVvdqvkk9TSn1,,,,,,,,,,,,,,,,,,,,"['Very unhappy', 'Very happy']",,655509818aa2ed735957565c,18:45:47,27/03/2024
html-keyboard-response,23,44111,0.0-10.0,,"<div style=""font-size:100px;"">+</div>",,delaylearn,learning,ITI,Dd1Qntnp65NxPkjCVvdqvkk9TSn1,Dd1Qntnp65NxPkjCVvdqvkk9TSn1,,,,,,,,,,,,,,,,,,,1883.0,,,655509818aa2ed735957565c,18:45:47,27/03/2024
html-keyboard-response,24,45020,0.0-11.0-0.0,903.6999999992549,"<div style=""display: flex; flex-direction: column; align-items: center; margin-top: -40px;""><img src=""images/demo_images/pattern_1.png"" style=""width: 234px; height: 230px; margin-top: -50px;""><div style=""display: flex; justify-content: space-between; margin-top: 33px;""><img src=""images/demo_images/choice_trial_2.png"" style=""width: 408px; height: 417px; margin-right: 200px;""><img src=""images/demo_images/choice_trial_1.png"" style=""width: 408px; height: 417px;""></div></div>",j,delaylearn,learning,trial,Dd1Qntnp65NxPkjCVvdqvkk9TSn1,Dd1Qntnp65NxPkjCVvdqvkk9TSn1,5.0,images/demo_images/choice_trial_2.png,images/demo_images/choice_trial_1.png,images/demo_images/pattern_1.png,j,j,3000.0,2.0,1.0,20.0,1.0,5.0,1.0,1.0,1.0,40.0,,,,,,655509818aa2ed735957565c,18:45:47,27/03/2024
html-keyboard-response,25,46024,0.0-11.0-1.0,,"<div style=""display: flex; flex-direction: column; align-items: center; margin-top: -40px;""><img src=""images/demo_images/pattern_1.png"" style=""width: 234px; height: 230px; margin-top: -50px;""><div style=""display: flex; justify-content: space-between; margin-top: 33px;""><img src=""images/demo_images/choice_trial_1.png"" style=""width: 408px; height: 417px; margin-left:608px;""></div></div>",,delaylearn,learning,display_response,Dd1Qntnp65NxPkjCVvdqvkk9TSn1,Dd1Qntnp65NxPkjCVvdqvkk9TSn1,,,,,,,,,,,,,,,,,chosen stimuli: images/demo_images/choice_trial_1.png,,,,,655509818aa2ed735957565c,18:45:47,27/03/2024
html-keyboard-response,26,49027,0.0-11.0-2.0,,,,delaylearn,learning,feedback_duration_window,Dd1Qntnp65NxPkjCVvdqvkk9TSn1,Dd1Qntnp65NxPkjCVvdqvkk9TSn1,,,,,,,,,,,,,,,,,,3000.0,,,,655509818aa2ed735957565c,18:45:47,27/03/2024
html-keyboard-response,27,50532,0.0-11.0-3.0,,<div style='margin:auto;width: auto; font-size: 150%'><span style='font-weight: bold; font-size: 100px; color: green;'>+10 points!</span><br><br></div>,,delaylearn,learning,feedback_image_window,Dd1Qntnp65NxPkjCVvdqvkk9TSn1,Dd1Qntnp65NxPkjCVvdqvkk9TSn1,,,,,,,,,,,,,,,,,,,,,,655509818aa2ed735957565c,18:45:47,27/03/2024
html-keyboard-response,28,52165,0.0-12.0,,"<div style=""font-size:100px;"">+</div>",,delaylearn,learning,ITI,Dd1Qntnp65NxPkjCVvdqvkk9TSn1,Dd1Qntnp65NxPkjCVvdqvkk9TSn1,,,,,,,,,,,,,,,,,,,1631.0,,,655509818aa2ed735957565c,18:45:47,27/03/2024
html-keyboard-response,29,52832,0.0-13.0-0.0,661.8999999985099,"<div style=""display: flex; flex-direction: column; align-items: center; margin-top: -40px;""><img src=""images/demo_images/pattern_1.png"" style=""width: 234px; height: 230px; margin-top: -50px;""><div style=""display: flex; justify-content: space-between; margin-top: 33px;""><img src=""images/demo_images/choice_trial_1.png"" style=""width: 408px; height: 417px; margin-right: 200px;""><img src=""images/demo_images/choice_trial_2.png"" style=""width: 408px; height: 417px;""></div></div>",f,delaylearn,learning,trial,Dd1Qntnp65NxPkjCVvdqvkk9TSn1,Dd1Qntnp65NxPkjCVvdqvkk9TSn1,5.0,images/demo_images/choice_trial_1.png,images/demo_images/choice_trial_2.png,images/demo_images/pattern_1.png,f,f,3000.0,1.0,2.0,20.0,0.0,6.0,1.0,1.0,1.0,50.0,,,,,,655509818aa2ed735957565c,18:45:47,27/03/2024
html-keyboard-response,30,53835,0.0-13.0-1.0,,"<div style=""display: flex; flex-direction: column; align-items: center; margin-top: -40px;""><img src=""images/demo_images/pattern_1.png"" style=""width: 234px; height: 230px; margin-top: -50px;""><div style=""display: flex; justify-content: space-between; margin-top: 33px;""><img src=""images/demo_images/choice_trial_1.png"" style=""width: 408px; height: 417px; margin-right: 608px;""></div></div>",,delaylearn,learning,display_response,Dd1Qntnp65NxPkjCVvdqvkk9TSn1,Dd1Qntnp65NxPkjCVvdqvkk9TSn1,,,,,,,,,,,,,,,,,chosen stimuli: images/demo_images/choice_trial_1.png,,,,,655509818aa2ed735957565c,18:45:47,27/03/2024
html-keyboard-response,31,56838,0.0-13.0-2.0,,,,delaylearn,learning,feedback_duration_window,Dd1Qntnp65NxPkjCVvdqvkk9TSn1,Dd1Qntnp65NxPkjCVvdqvkk9TSn1,,,,,,,,,,,,,,,,,,3000.0,,,,655509818aa2ed735957565c,18:45:47,27/03/2024
html-keyboard-response,32,58341,0.0-13.0-3.0,,<div style='margin:auto;width: auto; font-size: 150%'><span style='font-weight: bold; font-size: 100px; color: green;'>+10 points!</span><br><br></div>,,delaylearn,learning,feedback_image_window,Dd1Qntnp65NxPkjCVvdqvkk9TSn1,Dd1Qntnp65NxPkjCVvdqvkk9TSn1,,,,,,,,,,,,,,,,,,,,,,655509818aa2ed735957565c,18:45:47,27/03/2024
html-keyboard-response,33,60241,0.0-14.0,,"<div style=""font-size:100px;"">+</div>",,delaylearn,learning,ITI,Dd1Qntnp65NxPkjCVvdqvkk9TSn1,Dd1Qntnp65NxPkjCVvdqvkk9TSn1,,,,,,,,,,,,,,,,,,,1898.0,,,655509818aa2ed735957565c,18:45:47,27/03/2024
html-keyboard-response,34,60886,0.0-15.0-0.0,639.7000000011176,"<div style=""display: flex; flex-direction: column; align-items: center; margin-top: -40px;""><img src=""images/demo_images/pattern_1.png"" style=""width: 234px; height: 230px; margin-top: -50px;""><div style=""display: flex; justify-content: space-between; margin-top: 33px;""><img src=""images/demo_images/choice_trial_2.png"" style=""width: 408px; height: 417px; margin-right: 200px;""><img src=""images/demo_images/choice_trial_1.png"" style=""width: 408px; height: 417px;""></div></div>",j,delaylearn,learning,trial,Dd1Qntnp65NxPkjCVvdqvkk9TSn1,Dd1Qntnp65NxPkjCVvdqvkk9TSn1,5.0,images/demo_images/choice_trial_2.png,images/demo_images/choice_trial_1.png,images/demo_images/pattern_1.png,j,j,3000.0,2.0,1.0,20.0,1.0,7.0,1.0,1.0,1.0,60.0,,,,,,655509818aa2ed735957565c,18:45:47,27/03/2024
html-keyboard-response,35,61891,0.0-15.0-1.0,,"<div style=""display: flex; flex-direction: column; align-items: center; margin-top: -40px;""><img src=""images/demo_images/pattern_1.png"" style=""width: 234px; height: 230px; margin-top: -50px;""><div style=""display: flex; justify-content: space-between; margin-top: 33px;""><img src=""images/demo_images/choice_trial_1.png"" style=""width: 408px; height: 417px; margin-left:608px;""></div></div>",,delaylearn,learning,display_response,Dd1Qntnp65NxPkjCVvdqvkk9TSn1,Dd1Qntnp65NxPkjCVvdqvkk9TSn1,,,,,,,,,,,,,,,,,chosen stimuli: images/demo_images/choice_trial_1.png,,,,,655509818aa2ed735957565c,18:45:47,27/03/2024
html-keyboard-response,36,64893,0.0-15.0-2.0,,,,delaylearn,learning,feedback_duration_window,Dd1Qntnp65NxPkjCVvdqvkk9TSn1,Dd1Qntnp65NxPkjCVvdqvkk9TSn1,,,,,,,,,,,,,,,,,,3000.0,,,,655509818aa2ed735957565c,18:45:47,27/03/2024
html-keyboard-response,37,66397,0.0-15.0-3.0,,<div style='margin:auto;width: auto; font-size: 150%'><span style='font-weight: bold; font-size: 100px; color: green;'>+10 points!</span><br><br></div>,,delaylearn,learning,feedback_image_window,Dd1Qntnp65NxPkjCVvdqvkk9TSn1,Dd1Qntnp65NxPkjCVvdqvkk9TSn1,,,,,,,,,,,,,,,,,,,,,,655509818aa2ed735957565c,18:45:47,27/03/2024
html-keyboard-response,38,68393,0.0-16.0,,"<div style=""font-size:100px;"">+</div>",,delaylearn,learning,ITI,Dd1Qntnp65NxPkjCVvdqvkk9TSn1,Dd1Qntnp65NxPkjCVvdqvkk9TSn1,,,,,,,,,,,,,,,,,,,1993.0,,,655509818aa2ed735957565c,18:45:47,27/03/2024
html-keyboard-response,39,69048,0.0-17.0-0.0,650.1999999992549,"<div style=""display: flex; flex-direction: column; align-items: center; margin-top: -40px;""><img src=""images/demo_images/pattern_1.png"" style=""width: 234px; height: 230px; margin-top: -50px;""><div style=""display: flex; justify-content: space-between; margin-top: 33px;""><img src=""images/demo_images/choice_trial_1.png"" style=""width: 408px; height: 417px; margin-right: 200px;""><img src=""images/demo_images/choice_trial_2.png"" style=""width: 408px; height: 417px;""></div></div>",f,delaylearn,learning,trial,Dd1Qntnp65NxPkjCVvdqvkk9TSn1,Dd1Qntnp65NxPkjCVvdqvkk9TSn1,5.0,images/demo_images/choice_trial_1.png,images/demo_images/choice_trial_2.png,images/demo_images/pattern_1.png,f,f,3000.0,1.0,2.0,20.0,0.0,8.0,1.0,1.0,1.0,70.0,,,,,,655509818aa2ed735957565c,18:45:47,27/03/2024
html-keyboard-response,40,70052,0.0-17.0-1.0,,"<div style=""display: flex; flex-direction: column; align-items: center; margin-top: -40px;""><img src=""images/demo_images/pattern_1.png"" style=""width: 234px; height: 230px; margin-top: -50px;""><div style=""display: flex; justify-content: space-between; margin-top: 33px;""><img src=""images/demo_images/choice_trial_1.png"" style=""width: 408px; height: 417px; margin-right: 608px;""></div></div>",,delaylearn,learning,display_response,Dd1Qntnp65NxPkjCVvdqvkk9TSn1,Dd1Qntnp65NxPkjCVvdqvkk9TSn1,,,,,,,,,,,,,,,,,chosen stimuli: images/demo_images/choice_trial_1.png,,,,,655509818aa2ed735957565c,18:45:47,27/03/2024
html-keyboard-response,41,73056,0.0-17.0-2.0,,,,delaylearn,learning,feedback_duration_window,Dd1Qntnp65NxPkjCVvdqvkk9TSn1,Dd1Qntnp65NxPkjCVvdqvkk9TSn1,,,,,,,,,,,,,,,,,,3000.0,,,,655509818aa2ed735957565c,18:45:47,27/03/2024
html-keyboard-response,42,74561,0.0-17.0-3.0,,<div style='margin:auto;width: auto; font-size: 150%'><span style='font-weight: bold; font-size: 100px; color: green;'>+10 points!</span><br><br></div>,,delaylearn,learning,feedback_image_window,Dd1Qntnp65NxPkjCVvdqvkk9TSn1,Dd1Qntnp65NxPkjCVvdqvkk9TSn1,,,,,,,,,,,,,,,,,,,,,,655509818aa2ed735957565c,18:45:47,27/03/2024
html-button-response,43,77895,0.0-18.0,3331.4000000003725,"
  <div style=""display: flex; align-items: center; justify-content: center; height: 80vh;"">
  <div>
          <img src=""images/inst_demo_finish.png"" style=""width: 80vw; height:auto;"">
          <br><br>
      </div>
      <br><br>
  </div>",0,,,,Dd1Qntnp65NxPkjCVvdqvkk9TSn1,,,,,,,,,,,,,,,,,,,,,,,655509818aa2ed735957565c,18:45:47,27/03/2024
html-keyboard-response,44,81733,0.0-19.0,3834.699999999255,"
  <div style=""display: flex; align-items: center; justify-content: center; height: 80vh;"">
  <div>
          <img src=""images/inst_6.png"" style=""width: 80vw; height:auto;"">
          <br><br>
      </div>
      <br><br>
  </div>",j,,,,Dd1Qntnp65NxPkjCVvdqvkk9TSn1,,,,,,,,,,,,,,,,,,,,,,,655509818aa2ed735957565c,18:45:47,27/03/2024
html-keyboard-response,45,84736,0.0-20.0,,"<div style=""font-size:100px;"">+</div>",,delaylearn,learning,pre_fixation,Dd1Qntnp65NxPkjCVvdqvkk9TSn1,,,,,,,,,,,,,,,,,,,,,,,655509818aa2ed735957565c,18:45:47,27/03/2024
html-keyboard-response,46,86311,0.0-21.0,,"<div style=""font-size:100px;"">+</div>",,delaylearn,learning,ITI,Dd1Qntnp65NxPkjCVvdqvkk9TSn1,Dd1Qntnp65NxPkjCVvdqvkk9TSn1,,,,,,,,,,,,,,,,,,,1571.0,,,655509818aa2ed735957565c,18:45:47,27/03/2024
html-keyboard-response,47,87196,0.0-22.0-0.0,877.7999999988824,"<div style=""display: flex; flex-direction: column; align-items: center; margin-top: -40px;""><img src=""images/pattern_3.png"" style=""width: 234px; height: 230px; margin-top: -50px;""><div style=""display: flex; justify-content: space-between; margin-top: 33px;""><img src=""images/choice_trial_16.png"" style=""width: 408px; height: 417px; margin-right: 200px;""><img src=""images/choice_trial_2.png"" style=""width: 408px; height: 417px;""></div></div>",f,delaylearn,learning,trial,Dd1Qntnp65NxPkjCVvdqvkk9TSn1,Dd1Qntnp65NxPkjCVvdqvkk9TSn1,5.0,images/choice_trial_16.png,images/choice_trial_2.png,images/pattern_3.png,f,f,7000.0,16.0,2.0,2.0,0.0,9.0,1.0,1.0,16.0,80.0,,,,,,655509818aa2ed735957565c,18:45:47,27/03/2024
html-keyboard-response,48,88200,0.0-22.0-1.0,,"<div style=""display: flex; flex-direction: column; align-items: center; margin-top: -40px;""><img src=""images/pattern_3.png"" style=""width: 234px; height: 230px; margin-top: -50px;""><div style=""display: flex; justify-content: space-between; margin-top: 33px;""><img src=""images/choice_trial_16.png"" style=""width: 408px; height: 417px; margin-right: 608px;""></div></div>",,delaylearn,learning,display_response,Dd1Qntnp65NxPkjCVvdqvkk9TSn1,Dd1Qntnp65NxPkjCVvdqvkk9TSn1,,,,,,,,,,,,,,,,,chosen stimuli: images/choice_trial_16.png,,,,,655509818aa2ed735957565c,18:45:47,27/03/2024
html-keyboard-response,49,95203,0.0-22.0-2.0,,,,delaylearn,learning,feedback_duration_window,Dd1Qntnp65NxPkjCVvdqvkk9TSn1,Dd1Qntnp65NxPkjCVvdqvkk9TSn1,,,,,,,,,,,,,,,,,,7000.0,,,,655509818aa2ed735957565c,18:45:47,27/03/2024
html-keyboard-response,50,96708,0.0-22.0-3.0,,<div style='margin:auto;width: auto; font-size: 150%'><span style='font-weight: bold; font-size: 100px; color: green;'>+10 points!</span><br><br></div>,,delaylearn,learning,feedback_image_window,Dd1Qntnp65NxPkjCVvdqvkk9TSn1,Dd1Qntnp65NxPkjCVvdqvkk9TSn1,,,,,,,,,,,,,,,,,,,,,,655509818aa2ed735957565c,18:45:47,27/03/2024
html-keyboard-response,51,98894,0.0-23.0,,"<div style=""font-size:100px;"">+</div>",,delaylearn,learning,ITI,Dd1Qntnp65NxPkjCVvdqvkk9TSn1,Dd1Qntnp65NxPkjCVvdqvkk9TSn1,,,,,,,,,,,,,,,,,,,2182.0,,,655509818aa2ed735957565c,18:45:47,27/03/2024
html-keyboard-response,52,99554,0.0-24.0-0.0,652.2999999988824,"<div style=""display: flex; flex-direction: column; align-items: center; margin-top: -40px;""><img src=""images/pattern_7.png"" style=""width: 234px; height: 230px; margin-top: -50px;""><div style=""display: flex; justify-content: space-between; margin-top: 33px;""><img src=""images/choice_trial_10.png"" style=""width: 408px; height: 417px; margin-right: 200px;""><img src=""images/choice_trial_8.png"" style=""width: 408px; height: 417px;""></div></div>",f,delaylearn,learning,trial,Dd1Qntnp65NxPkjCVvdqvkk9TSn1,Dd1Qntnp65NxPkjCVvdqvkk9TSn1,5.0,images/choice_trial_10.png,images/choice_trial_8.png,images/pattern_7.png,j,j,750.0,10.0,8.0,6.0,1.0,10.0,0.0,0.0,10.0,80.0,,,,,,655509818aa2ed735957565c,18:45:47,27/03/2024
html-keyboard-response,53,100558,0.0-24.0-1.0,,"<div style=""display: flex; flex-direction: column; align-items: center; margin-top: -40px;""><img src=""images/pattern_7.png"" style=""width: 234px; height: 230px; margin-top: -50px;""><div style=""display: flex; justify-content: space-between; margin-top: 33px;""><img src=""images/choice_trial_10.png"" style=""width: 408px; height: 417px; margin-right: 608px;""></div></div>",,delaylearn,learning,display_response,Dd1Qntnp65NxPkjCVvdqvkk9TSn1,Dd1Qntnp65NxPkjCVvdqvkk9TSn1,,,,,,,,,,,,,,,,,chosen stimuli: images/choice_trial_10.png,,,,,655509818aa2ed735957565c,18:45:47,27/03/2024
html-keyboard-response,54,101311,0.0-24.0-2.0,,,,delaylearn,learning,feedback_duration_window,Dd1Qntnp65NxPkjCVvdqvkk9TSn1,Dd1Qntnp65NxPkjCVvdqvkk9TSn1,,,,,,,,,,,,,,,,,,750.0,,,,655509818aa2ed735957565c,18:45:47,27/03/2024
html-keyboard-response,55,102815,0.0-24.0-3.0,,<div style='margin:auto;width: auto; font-size: 150%'><span style='font-weight: bold; font-size: 100px; color: red;'>0 points!</span><br><br></div>,,delaylearn,learning,feedback_image_window,Dd1Qntnp65NxPkjCVvdqvkk9TSn1,Dd1Qntnp65NxPkjCVvdqvkk9TSn1,,,,,,,,,,,,,,,,,,,,,,655509818aa2ed735957565c,18:45:47,27/03/2024
html-keyboard-response,56,104356,0.0-25.0,,"<div style=""font-size:100px;"">+</div>",,delaylearn,learning,ITI,Dd1Qntnp65NxPkjCVvdqvkk9TSn1,Dd1Qntnp65NxPkjCVvdqvkk9TSn1,,,,,,,,,,,,,,,,,,,1538.0,,,655509818aa2ed735957565c,18:45:47,27/03/2024
html-keyboard-response,57,105394,0.0-26.0-0.0,1034.0999999996275,"<div style=""display: flex; flex-direction: column; align-items: center; margin-top: -40px;""><img src=""images/pattern_4.png"" style=""width: 234px; height: 230px; margin-top: -50px;""><div style=""display: flex; justify-content: space-between; margin-top: 33px;""><img src=""images/choice_trial_11.png"" style=""width: 408px; height: 417px; margin-right: 200px;""><img src=""images/choice_trial_4.png"" style=""width: 408px; height: 417px;""></div></div>",j,delaylearn,learning,trial,Dd1Qntnp65NxPkjCVvdqvkk9TSn1,Dd1Qntnp65NxPkjCVvdqvkk9TSn1,5.0,images/choice_trial_11.png,images/choice_trial_4.png,images/pattern_4.png,f,f,7000.0,11.0,4.0,3.0,0.0,11.0,0.0,0.0,4.0,80.0,,,,,,655509818aa2ed735957565c,18:45:47,27/03/2024
html-keyboard-response,58,106398,0.0-26.0-1.0,,"<div style=""display: flex; flex-direction: column; align-items: center; margin-top: -40px;""><img src=""images/pattern_4.png"" style=""width: 234px; height: 230px; margin-top: -50px;""><div style=""display: flex; justify-content: space-between; margin-top: 33px;""><img src=""images/choice_trial_4.png"" style=""width: 408px; height: 417px; margin-left:608px;""></div></div>",,delaylearn,learning,display_response,Dd1Qntnp65NxPkjCVvdqvkk9TSn1,Dd1Qntnp65NxPkjCVvdqvkk9TSn1,,,,,,,,,,,,,,,,,chosen stimuli: images/choice_trial_4.png,,,,,655509818aa2ed735957565c,18:45:47,27/03/2024
html-keyboard-response,59,113402,0.0-26.0-2.0,,,,delaylearn,learning,feedback_duration_window,Dd1Qntnp65NxPkjCVvdqvkk9TSn1,Dd1Qntnp65NxPkjCVvdqvkk9TSn1,,,,,,,,,,,,,,,,,,7000.0,,,,655509818aa2ed735957565c,18:45:47,27/03/2024
html-keyboard-response,60,114908,0.0-26.0-3.0,,<div style='margin:auto;width: auto; font-size: 150%'><span style='font-weight: bold; font-size: 100px; color: red;'>0 points!</span><br><br></div>,,delaylearn,learning,feedback_image_window,Dd1Qntnp65NxPkjCVvdqvkk9TSn1,Dd1Qntnp65NxPkjCVvdqvkk9TSn1,,,,,,,,,,,,,,,,,,,,,,655509818aa2ed735957565c,18:45:47,27/03/2024
html-keyboard-response,61,117074,0.0-27.0,,"<div style=""font-size:100px;"">+</div>",,delaylearn,learning,ITI,Dd1Qntnp65NxPkjCVvdqvkk9TSn1,Dd1Qntnp65NxPkjCVvdqvkk9TSn1,,,,,,,,,,,,,,,,,,,2163.0,,,655509818aa2ed735957565c,18:45:47,27/03/2024
html-keyboard-response,62,118048,0.0-28.0-0.0,967.2000000011176,"<div style=""display: flex; flex-direction: column; align-items: center; margin-top: -40px;""><img src=""images/pattern_5.png"" style=""width: 234px; height: 230px; margin-top: -50px;""><div style=""display: flex; justify-content: space-between; margin-top: 33px;""><img src=""images/choice_trial_13.png"" style=""width: 408px; height: 417px; margin-right: 200px;""><img src=""images/choice_trial_7.png"" style=""width: 408px; height: 417px;""></div></div>",j,delaylearn,learning,trial,Dd1Qntnp65NxPkjCVvdqvkk9TSn1,Dd1Qntnp65NxPkjCVvdqvkk9TSn1,5.0,images/choice_trial_13.png,images/choice_trial_7.png,images/pattern_5.png,j,j,750.0,13.0,7.0,4.0,1.0,12.0,1.0,1.0,7.0,90.0,,,,,,655509818aa2ed735957565c,18:45:47,27/03/2024
html-keyboard-response,63,119051,0.0-28.0-1.0,,"<div style=""display: flex; flex-direction: column; align-items: center; margin-top: -40px;""><img src=""images/pattern_5.png"" style=""width: 234px; height: 230px; margin-top: -50px;""><div style=""display: flex; justify-content: space-between; margin-top: 33px;""><img src=""images/choice_trial_7.png"" style=""width: 408px; height: 417px; margin-left:608px;""></div></div>",,delaylearn,learning,display_response,Dd1Qntnp65NxPkjCVvdqvkk9TSn1,Dd1Qntnp65NxPkjCVvdqvkk9TSn1,,,,,,,,,,,,,,,,,chosen stimuli: images/choice_trial_7.png,,,,,655509818aa2ed735957565c,18:45:47,27/03/2024
html-keyboard-response,64,119804,0.0-28.0-2.0,,,,delaylearn,learning,feedback_duration_window,Dd1Qntnp65NxPkjCVvdqvkk9TSn1,Dd1Qntnp65NxPkjCVvdqvkk9TSn1,,,,,,,,,,,,,,,,,,750.0,,,,655509818aa2ed735957565c,18:45:47,27/03/2024
html-keyboard-response,65,121308,0.0-28.0-3.0,,<div style='margin:auto;width: auto; font-size: 150%'><span style='font-weight: bold; font-size: 100px; color: green;'>+10 points!</span><br><br></div>,,delaylearn,learning,feedback_image_window,Dd1Qntnp65NxPkjCVvdqvkk9TSn1,Dd1Qntnp65NxPkjCVvdqvkk9TSn1,,,,,,,,,,,,,,,,,,,,,,655509818aa2ed735957565c,18:45:47,27/03/2024
html-keyboard-response,66,123789,0.0-29.0,,"<div style=""font-size:100px;"">+</div>",,delaylearn,learning,ITI,Dd1Qntnp65NxPkjCVvdqvkk9TSn1,Dd1Qntnp65NxPkjCVvdqvkk9TSn1,,,,,,,,,,,,,,,,,,,2477.0,,,655509818aa2ed735957565c,18:45:47,27/03/2024
html-keyboard-response,67,124787,0.0-30.0-0.0,989.4000000003725,"<div style=""display: flex; flex-direction: column; align-items: center; margin-top: -40px;""><img src=""images/pattern_6.png"" style=""width: 234px; height: 230px; margin-top: -50px;""><div style=""display: flex; justify-content: space-between; margin-top: 33px;""><img src=""images/choice_trial_14.png"" style=""width: 408px; height: 417px; margin-right: 200px;""><img src=""images/choice_trial_9.png"" style=""width: 408px; height: 417px;""></div></div>",j,delaylearn,learning,trial,Dd1Qntnp65NxPkjCVvdqvkk9TSn1,Dd1Qntnp65NxPkjCVvdqvkk9TSn1,5.0,images/choice_trial_14.png,images/choice_trial_9.png,images/pattern_6.png,j,f,750.0,14.0,9.0,5.0,0.0,13.0,0.0,1.0,9.0,100.0,,,,,,655509818aa2ed735957565c,18:45:47,27/03/2024
html-keyboard-response,68,125791,0.0-30.0-1.0,,"<div style=""display: flex; flex-direction: column; align-items: center; margin-top: -40px;""><img src=""images/pattern_6.png"" style=""width: 234px; height: 230px; margin-top: -50px;""><div style=""display: flex; justify-content: space-between; margin-top: 33px;""><img src=""images/choice_trial_9.png"" style=""width: 408px; height: 417px; margin-left:608px;""></div></div>",,delaylearn,learning,display_response,Dd1Qntnp65NxPkjCVvdqvkk9TSn1,Dd1Qntnp65NxPkjCVvdqvkk9TSn1,,,,,,,,,,,,,,,,,chosen stimuli: images/choice_trial_9.png,,,,,655509818aa2ed735957565c,18:45:47,27/03/2024
html-keyboard-response,69,126545,0.0-30.0-2.0,,,,delaylearn,learning,feedback_duration_window,Dd1Qntnp65NxPkjCVvdqvkk9TSn1,Dd1Qntnp65NxPkjCVvdqvkk9TSn1,,,,,,,,,,,,,,,,,,750.0,,,,655509818aa2ed735957565c,18:45:47,27/03/2024
html-keyboard-response,70,128049,0.0-30.0-3.0,,<div style='margin:auto;width: auto; font-size: 150%'><span style='font-weight: bold; font-size: 100px; color: green;'>+10 points!</span><br><br></div>,,delaylearn,learning,feedback_image_window,Dd1Qntnp65NxPkjCVvdqvkk9TSn1,Dd1Qntnp65NxPkjCVvdqvkk9TSn1,,,,,,,,,,,,,,,,,,,,,,655509818aa2ed735957565c,18:45:47,27/03/2024
html-keyboard-response,71,128552,0.0-31.0-0.0,,,,,,mood_trial_fixation,Dd1Qntnp65NxPkjCVvdqvkk9TSn1,,,,,,,,,,,,,,,,,,,,,,,655509818aa2ed735957565c,18:45:47,27/03/2024
lmdlab-html-vas-response,72,132841,0.0-31.0-1.0,3281.0,How happy are you right now?,0.9752805940795497,delaylearn,learning,mood_trial,Dd1Qntnp65NxPkjCVvdqvkk9TSn1,Dd1Qntnp65NxPkjCVvdqvkk9TSn1,,,,,,,,,,,,,,,,,,,,"['Very unhappy', 'Very happy']",,655509818aa2ed735957565c,18:45:47,27/03/2024
html-keyboard-response,73,135335,0.0-32.0,,"<div style=""font-size:100px;"">+</div>",,delaylearn,learning,ITI,Dd1Qntnp65NxPkjCVvdqvkk9TSn1,Dd1Qntnp65NxPkjCVvdqvkk9TSn1,,,,,,,,,,,,,,,,,,,2492.0,,,655509818aa2ed735957565c,18:45:47,27/03/2024
html-keyboard-response,74,136302,0.0-33.0-0.0,959.6999999992549,"<div style=""display: flex; flex-direction: column; align-items: center; margin-top: -40px;""><img src=""images/pattern_1.png"" style=""width: 234px; height: 230px; margin-top: -50px;""><div style=""display: flex; justify-content: space-between; margin-top: 33px;""><img src=""images/choice_trial_15.png"" style=""width: 408px; height: 417px; margin-right: 200px;""><img src=""images/choice_trial_6.png"" style=""width: 408px; height: 417px;""></div></div>",f,delaylearn,learning,trial,Dd1Qntnp65NxPkjCVvdqvkk9TSn1,Dd1Qntnp65NxPkjCVvdqvkk9TSn1,5.0,images/choice_trial_15.png,images/choice_trial_6.png,images/pattern_1.png,j,j,7000.0,15.0,6.0,1.0,1.0,14.0,0.0,0.0,15.0,100.0,,,,,,655509818aa2ed735957565c,18:45:47,27/03/2024
html-keyboard-response,75,137307,0.0-33.0-1.0,,"<div style=""display: flex; flex-direction: column; align-items: center; margin-top: -40px;""><img src=""images/pattern_1.png"" style=""width: 234px; height: 230px; margin-top: -50px;""><div style=""display: flex; justify-content: space-between; margin-top: 33px;""><img src=""images/choice_trial_15.png"" style=""width: 408px; height: 417px; margin-right: 608px;""></div></div>",,delaylearn,learning,display_response,Dd1Qntnp65NxPkjCVvdqvkk9TSn1,Dd1Qntnp65NxPkjCVvdqvkk9TSn1,,,,,,,,,,,,,,,,,chosen stimuli: images/choice_trial_15.png,,,,,655509818aa2ed735957565c,18:45:47,27/03/2024
html-keyboard-response,76,144310,0.0-33.0-2.0,,,,delaylearn,learning,feedback_duration_window,Dd1Qntnp65NxPkjCVvdqvkk9TSn1,Dd1Qntnp65NxPkjCVvdqvkk9TSn1,,,,,,,,,,,,,,,,,,7000.0,,,,655509818aa2ed735957565c,18:45:47,27/03/2024
html-keyboard-response,77,145814,0.0-33.0-3.0,,<div style='margin:auto;width: auto; font-size: 150%'><span style='font-weight: bold; font-size: 100px; color: red;'>0 points!</span><br><br></div>,,delaylearn,learning,feedback_image_window,Dd1Qntnp65NxPkjCVvdqvkk9TSn1,Dd1Qntnp65NxPkjCVvdqvkk9TSn1,,,,,,,,,,,,,,,,,,,,,,655509818aa2ed735957565c,18:45:47,27/03/2024
html-keyboard-response,78,148218,0.0-34.0,,"<div style=""font-size:100px;"">+</div>",,delaylearn,learning,ITI,Dd1Qntnp65NxPkjCVvdqvkk9TSn1,Dd1Qntnp65NxPkjCVvdqvkk9TSn1,,,,,,,,,,,,,,,,,,,2401.0,,,655509818aa2ed735957565c,18:45:47,27/03/2024
html-keyboard-response,79,149054,0.0-35.0-0.0,831.5,"<div style=""display: flex; flex-direction: column; align-items: center; margin-top: -40px;""><img src=""images/pattern_3.png"" style=""width: 234px; height: 230px; margin-top: -50px;""><div style=""display: flex; justify-content: space-between; margin-top: 33px;""><img src=""images/choice_trial_2.png"" style=""width: 408px; height: 417px; margin-right: 200px;""><img src=""images/choice_trial_16.png"" style=""width: 408px; height: 417px;""></div></div>",j,delaylearn,learning,trial,Dd1Qntnp65NxPkjCVvdqvkk9TSn1,Dd1Qntnp65NxPkjCVvdqvkk9TSn1,5.0,images/choice_trial_2.png,images/choice_trial_16.png,images/pattern_3.png,f,j,7000.0,2.0,16.0,2.0,1.0,15.0,1.0,0.0,16.0,100.0,,,,,,655509818aa2ed735957565c,18:45:47,27/03/2024
html-keyboard-response,80,150057,0.0-35.0-1.0,,"<div style=""display: flex; flex-direction: column; align-items: center; margin-top: -40px;""><img src=""images/pattern_3.png"" style=""width: 234px; height: 230px; margin-top: -50px;""><div style=""display: flex; justify-content: space-between; margin-top: 33px;""><img src=""images/choice_trial_16.png"" style=""width: 408px; height: 417px; margin-left:608px;""></div></div>",,delaylearn,learning,display_response,Dd1Qntnp65NxPkjCVvdqvkk9TSn1,Dd1Qntnp65NxPkjCVvdqvkk9TSn1,,,,,,,,,,,,,,,,,chosen stimuli: images/choice_trial_16.png,,,,,655509818aa2ed735957565c,18:45:47,27/03/2024
html-keyboard-response,81,157060,0.0-35.0-2.0,,,,delaylearn,learning,feedback_duration_window,Dd1Qntnp65NxPkjCVvdqvkk9TSn1,Dd1Qntnp65NxPkjCVvdqvkk9TSn1,,,,,,,,,,,,,,,,,,7000.0,,,,655509818aa2ed735957565c,18:45:47,27/03/2024
html-keyboard-response,82,158565,0.0-35.0-3.0,,<div style='margin:auto;width: auto; font-size: 150%'><span style='font-weight: bold; font-size: 100px; color: red;'>0 points!</span><br><br></div>,,delaylearn,learning,feedback_image_window,Dd1Qntnp65NxPkjCVvdqvkk9TSn1,Dd1Qntnp65NxPkjCVvdqvkk9TSn1,,,,,,,,,,,,,,,,,,,,,,655509818aa2ed735957565c,18:45:47,27/03/2024
html-keyboard-response,83,160329,0.0-36.0,,"<div style=""font-size:100px;"">+</div>",,delaylearn,learning,ITI,Dd1Qntnp65NxPkjCVvdqvkk9TSn1,Dd1Qntnp65NxPkjCVvdqvkk9TSn1,,,,,,,,,,,,,,,,,,,1760.0,,,655509818aa2ed735957565c,18:45:47,27/03/2024
html-keyboard-response,84,161194,0.0-37.0-0.0,859.4000000003725,"<div style=""display: flex; flex-direction: column; align-items: center; margin-top: -40px;""><img src=""images/pattern_5.png"" style=""width: 234px; height: 230px; margin-top: -50px;""><div style=""display: flex; justify-content: space-between; margin-top: 33px;""><img src=""images/choice_trial_7.png"" style=""width: 408px; height: 417px; margin-right: 200px;""><img src=""images/choice_trial_13.png"" style=""width: 408px; height: 417px;""></div></div>",j,delaylearn,learning,trial,Dd1Qntnp65NxPkjCVvdqvkk9TSn1,Dd1Qntnp65NxPkjCVvdqvkk9TSn1,5.0,images/choice_trial_7.png,images/choice_trial_13.png,images/pattern_5.png,f,f,750.0,7.0,13.0,4.0,0.0,16.0,0.0,0.0,13.0,100.0,,,,,,655509818aa2ed735957565c,18:45:47,27/03/2024
html-keyboard-response,85,162199,0.0-37.0-1.0,,"<div style=""display: flex; flex-direction: column; align-items: center; margin-top: -40px;""><img src=""images/pattern_5.png"" style=""width: 234px; height: 230px; margin-top: -50px;""><div style=""display: flex; justify-content: space-between; margin-top: 33px;""><img src=""images/choice_trial_13.png"" style=""width: 408px; height: 417px; margin-left:608px;""></div></div>",,delaylearn,learning,display_response,Dd1Qntnp65NxPkjCVvdqvkk9TSn1,Dd1Qntnp65NxPkjCVvdqvkk9TSn1,,,,,,,,,,,,,,,,,chosen stimuli: images/choice_trial_13.png,,,,,655509818aa2ed735957565c,18:45:47,27/03/2024
html-keyboard-response,86,162953,0.0-37.0-2.0,,,,delaylearn,learning,feedback_duration_window,Dd1Qntnp65NxPkjCVvdqvkk9TSn1,Dd1Qntnp65NxPkjCVvdqvkk9TSn1,,,,,,,,,,,,,,,,,,750.0,,,,655509818aa2ed735957565c,18:45:47,27/03/2024
html-keyboard-response,87,164457,0.0-37.0-3.0,,<div style='margin:auto;width: auto; font-size: 150%'><span style='font-weight: bold; font-size: 100px; color: red;'>0 points!</span><br><br></div>,,delaylearn,learning,feedback_image_window,Dd1Qntnp65NxPkjCVvdqvkk9TSn1,Dd1Qntnp65NxPkjCVvdqvkk9TSn1,,,,,,,,,,,,,,,,,,,,,,655509818aa2ed735957565c,18:45:47,27/03/2024
html-keyboard-response,88,164960,0.0-38.0-0.0,,,,,,mood_trial_fixation,Dd1Qntnp65NxPkjCVvdqvkk9TSn1,,,,,,,,,,,,,,,,,,,,,,,655509818aa2ed735957565c,18:45:47,27/03/2024
lmdlab-html-vas-response,89,169570,0.0-38.0-1.0,3602.0,How happy are you right now?,0.1419416093045336,delaylearn,learning,mood_trial,Dd1Qntnp65NxPkjCVvdqvkk9TSn1,Dd1Qntnp65NxPkjCVvdqvkk9TSn1,,,,,,,,,,,,,,,,,,,,"['Very unhappy', 'Very happy']",,655509818aa2ed735957565c,18:45:47,27/03/2024
html-keyboard-response,90,171922,0.0-39.0,,"<div style=""font-size:100px;"">+</div>",,delaylearn,learning,ITI,Dd1Qntnp65NxPkjCVvdqvkk9TSn1,Dd1Qntnp65NxPkjCVvdqvkk9TSn1,,,,,,,,,,,,,,,,,,,2350.0,,,655509818aa2ed735957565c,18:45:47,27/03/2024
html-keyboard-response,91,172871,0.0-40.0-0.0,945.9000000003725,"<div style=""display: flex; flex-direction: column; align-items: center; margin-top: -40px;""><img src=""images/pattern_6.png"" style=""width: 234px; height: 230px; margin-top: -50px;""><div style=""display: flex; justify-content: space-between; margin-top: 33px;""><img src=""images/choice_trial_14.png"" style=""width: 408px; height: 417px; margin-right: 200px;""><img src=""images/choice_trial_9.png"" style=""width: 408px; height: 417px;""></div></div>",f,delaylearn,learning,trial,Dd1Qntnp65NxPkjCVvdqvkk9TSn1,Dd1Qntnp65NxPkjCVvdqvkk9TSn1,5.0,images/choice_trial_14.png,images/choice_trial_9.png,images/pattern_6.png,f,f,750.0,14.0,9.0,5.0,0.0,17.0,1.0,1.0,14.0,110.0,,,,,,655509818aa2ed735957565c,18:45:47,27/03/2024
html-keyboard-response,92,173875,0.0-40.0-1.0,,"<div style=""display: flex; flex-direction: column; align-items: center; margin-top: -40px;""><img src=""images/pattern_6.png"" style=""width: 234px; height: 230px; margin-top: -50px;""><div style=""display: flex; justify-content: space-between; margin-top: 33px;""><img src=""images/choice_trial_14.png"" style=""width: 408px; height: 417px; margin-right: 608px;""></div></div>",,delaylearn,learning,display_response,Dd1Qntnp65NxPkjCVvdqvkk9TSn1,Dd1Qntnp65NxPkjCVvdqvkk9TSn1,,,,,,,,,,,,,,,,,chosen stimuli: images/choice_trial_14.png,,,,,655509818aa2ed735957565c,18:45:47,27/03/2024
html-keyboard-response,93,174629,0.0-40.0-2.0,,,,delaylearn,learning,feedback_duration_window,Dd1Qntnp65NxPkjCVvdqvkk9TSn1,Dd1Qntnp65NxPkjCVvdqvkk9TSn1,,,,,,,,,,,,,,,,,,750.0,,,,655509818aa2ed735957565c,18:45:47,27/03/2024
html-keyboard-response,94,176134,0.0-40.0-3.0,,<div style='margin:auto;width: auto; font-size: 150%'><span style='font-weight: bold; font-size: 100px; color: green;'>+10 points!</span><br><br></div>,,delaylearn,learning,feedback_image_window,Dd1Qntnp65NxPkjCVvdqvkk9TSn1,Dd1Qntnp65NxPkjCVvdqvkk9TSn1,,,,,,,,,,,,,,,,,,,,,,655509818aa2ed735957565c,18:45:47,27/03/2024
html-keyboard-response,95,178527,0.0-41.0,,"<div style=""font-size:100px;"">+</div>",,delaylearn,learning,ITI,Dd1Qntnp65NxPkjCVvdqvkk9TSn1,Dd1Qntnp65NxPkjCVvdqvkk9TSn1,,,,,,,,,,,,,,,,,,,2391.0,,,655509818aa2ed735957565c,18:45:47,27/03/2024
html-keyboard-response,96,179354,0.0-42.0-0.0,822.0999999996275,"<div style=""display: flex; flex-direction: column; align-items: center; margin-top: -40px;""><img src=""images/pattern_4.png"" style=""width: 234px; height: 230px; margin-top: -50px;""><div style=""display: flex; justify-content: space-between; margin-top: 33px;""><img src=""images/choice_trial_4.png"" style=""width: 408px; height: 417px; margin-right: 200px;""><img src=""images/choice_trial_11.png"" style=""width: 408px; height: 417px;""></div></div>",j,delaylearn,learning,trial,Dd1Qntnp65NxPkjCVvdqvkk9TSn1,Dd1Qntnp65NxPkjCVvdqvkk9TSn1,5.0,images/choice_trial_4.png,images/choice_trial_11.png,images/pattern_4.png,j,j,7000.0,4.0,11.0,3.0,1.0,18.0,1.0,1.0,11.0,120.0,,,,,,655509818aa2ed735957565c,18:45:47,27/03/2024
html-keyboard-response,97,180357,0.0-42.0-1.0,,"<div style=""display: flex; flex-direction: column; align-items: center; margin-top: -40px;""><img src=""images/pattern_4.png"" style=""width: 234px; height: 230px; margin-top: -50px;""><div style=""display: flex; justify-content: space-between; margin-top: 33px;""><img src=""images/choice_trial_11.png"" style=""width: 408px; height: 417px; margin-left:608px;""></div></div>",,delaylearn,learning,display_response,Dd1Qntnp65NxPkjCVvdqvkk9TSn1,Dd1Qntnp65NxPkjCVvdqvkk9TSn1,,,,,,,,,,,,,,,,,chosen stimuli: images/choice_trial_11.png,,,,,655509818aa2ed735957565c,18:45:47,27/03/2024
html-keyboard-response,98,187361,0.0-42.0-2.0,,,,delaylearn,learning,feedback_duration_window,Dd1Qntnp65NxPkjCVvdqvkk9TSn1,Dd1Qntnp65NxPkjCVvdqvkk9TSn1,,,,,,,,,,,,,,,,,,7000.0,,,,655509818aa2ed735957565c,18:45:47,27/03/2024
html-keyboard-response,99,188866,0.0-42.0-3.0,,<div style='margin:auto;width: auto; font-size: 150%'><span style='font-weight: bold; font-size: 100px; color: green;'>+10 points!</span><br><br></div>,,delaylearn,learning,feedback_image_window,Dd1Qntnp65NxPkjCVvdqvkk9TSn1,Dd1Qntnp65NxPkjCVvdqvkk9TSn1,,,,,,,,,,,,,,,,,,,,,,655509818aa2ed735957565c,18:45:47,27/03/2024
html-keyboard-response,100,190599,0.0-43.0,,"<div style=""font-size:100px;"">+</div>",,delaylearn,learning,ITI,Dd1Qntnp65NxPkjCVvdqvkk9TSn1,Dd1Qntnp65NxPkjCVvdqvkk9TSn1,,,,,,,,,,,,,,,,,,,1729.0,,,655509818aa2ed735957565c,18:45:47,27/03/2024
html-keyboard-response,101,191741,0.0-44.0-0.0,1134.3999999985099,"<div style=""display: flex; flex-direction: column; align-items: center; margin-top: -40px;""><img src=""images/pattern_7.png"" style=""width: 234px; height: 230px; margin-top: -50px;""><div style=""display: flex; justify-content: space-between; margin-top: 33px;""><img src=""images/choice_trial_8.png"" style=""width: 408px; height: 417px; margin-right: 200px;""><img src=""images/choice_trial_10.png"" style=""width: 408px; height: 417px;""></div></div>",j,delaylearn,learning,trial,Dd1Qntnp65NxPkjCVvdqvkk9TSn1,Dd1Qntnp65NxPkjCVvdqvkk9TSn1,5.0,images/choice_trial_8.png,images/choice_trial_10.png,images/pattern_7.png,j,f,750.0,8.0,10.0,6.0,0.0,19.0,0.0,1.0,10.0,130.0,,,,,,655509818aa2ed735957565c,18:45:47,27/03/2024
html-keyboard-response,102,192744,0.0-44.0-1.0,,"<div style=""display: flex; flex-direction: column; align-items: center; margin-top: -40px;""><img src=""images/pattern_7.png"" style=""width: 234px; height: 230px; margin-top: -50px;""><div style=""display: flex; justify-content: space-between; margin-top: 33px;""><img src=""images/choice_trial_10.png"" style=""width: 408px; height: 417px; margin-left:608px;""></div></div>",,delaylearn,learning,display_response,Dd1Qntnp65NxPkjCVvdqvkk9TSn1,Dd1Qntnp65NxPkjCVvdqvkk9TSn1,,,,,,,,,,,,,,,,,chosen stimuli: images/choice_trial_10.png,,,,,655509818aa2ed735957565c,18:45:47,27/03/2024
html-keyboard-response,103,193497,0.0-44.0-2.0,,,,delaylearn,learning,feedback_duration_window,Dd1Qntnp65NxPkjCVvdqvkk9TSn1,Dd1Qntnp65NxPkjCVvdqvkk9TSn1,,,,,,,,,,,,,,,,,,750.0,,,,655509818aa2ed735957565c,18:45:47,27/03/2024
html-keyboard-response,104,194999,0.0-44.0-3.0,,<div style='margin:auto;width: auto; font-size: 150%'><span style='font-weight: bold; font-size: 100px; color: green;'>+10 points!</span><br><br></div>,,delaylearn,learning,feedback_image_window,Dd1Qntnp65NxPkjCVvdqvkk9TSn1,Dd1Qntnp65NxPkjCVvdqvkk9TSn1,,,,,,,,,,,,,,,,,,,,,,655509818aa2ed735957565c,18:45:47,27/03/2024
html-keyboard-response,105,196877,0.0-45.0,,"<div style=""font-size:100px;"">+</div>",,delaylearn,learning,ITI,Dd1Qntnp65NxPkjCVvdqvkk9TSn1,Dd1Qntnp65NxPkjCVvdqvkk9TSn1,,,,,,,,,,,,,,,,,,,1875.0,,,655509818aa2ed735957565c,18:45:47,27/03/2024
html-keyboard-response,106,198248,0.0-46.0-0.0,1366.7999999988824,"<div style=""display: flex; flex-direction: column; align-items: center; margin-top: -40px;""><img src=""images/pattern_1.png"" style=""width: 234px; height: 230px; margin-top: -50px;""><div style=""display: flex; justify-content: space-between; margin-top: 33px;""><img src=""images/choice_trial_6.png"" style=""width: 408px; height: 417px; margin-right: 200px;""><img src=""images/choice_trial_15.png"" style=""width: 408px; height: 417px;""></div></div>",f,delaylearn,learning,trial,Dd1Qntnp65NxPkjCVvdqvkk9TSn1,Dd1Qntnp65NxPkjCVvdqvkk9TSn1,5.0,images/choice_trial_6.png,images/choice_trial_15.png,images/pattern_1.png,f,f,7000.0,6.0,15.0,1.0,0.0,20.0,1.0,1.0,6.0,140.0,,,,,,655509818aa2ed735957565c,18:45:47,27/03/2024
html-keyboard-response,107,199253,0.0-46.0-1.0,,"<div style=""display: flex; flex-direction: column; align-items: center; margin-top: -40px;""><img src=""images/pattern_1.png"" style=""width: 234px; height: 230px; margin-top: -50px;""><div style=""display: flex; justify-content: space-between; margin-top: 33px;""><img src=""images/choice_trial_6.png"" style=""width: 408px; height: 417px; margin-right: 608px;""></div></div>",,delaylearn,learning,display_response,Dd1Qntnp65NxPkjCVvdqvkk9TSn1,Dd1Qntnp65NxPkjCVvdqvkk9TSn1,,,,,,,,,,,,,,,,,chosen stimuli: images/choice_trial_6.png,,,,,655509818aa2ed735957565c,18:45:47,27/03/2024
html-keyboard-response,108,206256,0.0-46.0-2.0,,,,delaylearn,learning,feedback_duration_window,Dd1Qntnp65NxPkjCVvdqvkk9TSn1,Dd1Qntnp65NxPkjCVvdqvkk9TSn1,,,,,,,,,,,,,,,,,,7000.0,,,,655509818aa2ed735957565c,18:45:47,27/03/2024
html-keyboard-response,109,207759,0.0-46.0-3.0,,<div style='margin:auto;width: auto; font-size: 150%'><span style='font-weight: bold; font-size: 100px; color: green;'>+10 points!</span><br><br></div>,,delaylearn,learning,feedback_image_window,Dd1Qntnp65NxPkjCVvdqvkk9TSn1,Dd1Qntnp65NxPkjCVvdqvkk9TSn1,,,,,,,,,,,,,,,,,,,,,,655509818aa2ed735957565c,18:45:47,27/03/2024
html-keyboard-response,110,209882,0.0-47.0,,"<div style=""font-size:100px;"">+</div>",,delaylearn,learning,ITI,Dd1Qntnp65NxPkjCVvdqvkk9TSn1,Dd1Qntnp65NxPkjCVvdqvkk9TSn1,,,,,,,,,,,,,,,,,,,2119.0,,,655509818aa2ed735957565c,18:45:47,27/03/2024
html-keyboard-response,111,210922,0.0-48.0-0.0,1032.5,"<div style=""display: flex; flex-direction: column; align-items: center; margin-top: -40px;""><img src=""images/pattern_6.png"" style=""width: 234px; height: 230px; margin-top: -50px;""><div style=""display: flex; justify-content: space-between; margin-top: 33px;""><img src=""images/choice_trial_9.png"" style=""width: 408px; height: 417px; margin-right: 200px;""><img src=""images/choice_trial_14.png"" style=""width: 408px; height: 417px;""></div></div>",f,delaylearn,learning,trial,Dd1Qntnp65NxPkjCVvdqvkk9TSn1,Dd1Qntnp65NxPkjCVvdqvkk9TSn1,5.0,images/choice_trial_9.png,images/choice_trial_14.png,images/pattern_6.png,j,j,750.0,9.0,14.0,5.0,1.0,21.0,0.0,0.0,9.0,140.0,,,,,,655509818aa2ed735957565c,18:45:47,27/03/2024
html-keyboard-response,112,211926,0.0-48.0-1.0,,"<div style=""display: flex; flex-direction: column; align-items: center; margin-top: -40px;""><img src=""images/pattern_6.png"" style=""width: 234px; height: 230px; margin-top: -50px;""><div style=""display: flex; justify-content: space-between; margin-top: 33px;""><img src=""images/choice_trial_9.png"" style=""width: 408px; height: 417px; margin-right: 608px;""></div></div>",,delaylearn,learning,display_response,Dd1Qntnp65NxPkjCVvdqvkk9TSn1,Dd1Qntnp65NxPkjCVvdqvkk9TSn1,,,,,,,,,,,,,,,,,chosen stimuli: images/choice_trial_9.png,,,,,655509818aa2ed735957565c,18:45:47,27/03/2024
html-keyboard-response,113,212679,0.0-48.0-2.0,,,,delaylearn,learning,feedback_duration_window,Dd1Qntnp65NxPkjCVvdqvkk9TSn1,Dd1Qntnp65NxPkjCVvdqvkk9TSn1,,,,,,,,,,,,,,,,,,750.0,,,,655509818aa2ed735957565c,18:45:47,27/03/2024
html-keyboard-response,114,214182,0.0-48.0-3.0,,<div style='margin:auto;width: auto; font-size: 150%'><span style='font-weight: bold; font-size: 100px; color: red;'>0 points!</span><br><br></div>,,delaylearn,learning,feedback_image_window,Dd1Qntnp65NxPkjCVvdqvkk9TSn1,Dd1Qntnp65NxPkjCVvdqvkk9TSn1,,,,,,,,,,,,,,,,,,,,,,655509818aa2ed735957565c,18:45:47,27/03/2024
html-keyboard-response,115,216204,0.0-49.0,,"<div style=""font-size:100px;"">+</div>",,delaylearn,learning,ITI,Dd1Qntnp65NxPkjCVvdqvkk9TSn1,Dd1Qntnp65NxPkjCVvdqvkk9TSn1,,,,,,,,,,,,,,,,,,,2018.0,,,655509818aa2ed735957565c,18:45:47,27/03/2024
html-keyboard-response,116,216781,0.0-50.0-0.0,571.1999999992549,"<div style=""display: flex; flex-direction: column; align-items: center; margin-top: -40px;""><img src=""images/pattern_4.png"" style=""width: 234px; height: 230px; margin-top: -50px;""><div style=""display: flex; justify-content: space-between; margin-top: 33px;""><img src=""images/choice_trial_11.png"" style=""width: 408px; height: 417px; margin-right: 200px;""><img src=""images/choice_trial_4.png"" style=""width: 408px; height: 417px;""></div></div>",j,delaylearn,learning,trial,Dd1Qntnp65NxPkjCVvdqvkk9TSn1,Dd1Qntnp65NxPkjCVvdqvkk9TSn1,5.0,images/choice_trial_11.png,images/choice_trial_4.png,images/pattern_4.png,f,f,7000.0,11.0,4.0,3.0,0.0,22.0,0.0,0.0,4.0,140.0,,,,,,655509818aa2ed735957565c,18:45:47,27/03/2024
html-keyboard-response,117,217784,0.0-50.0-1.0,,"<div style=""display: flex; flex-direction: column; align-items: center; margin-top: -40px;""><img src=""images/pattern_4.png"" style=""width: 234px; height: 230px; margin-top: -50px;""><div style=""display: flex; justify-content: space-between; margin-top: 33px;""><img src=""images/choice_trial_4.png"" style=""width: 408px; height: 417px; margin-left:608px;""></div></div>",,delaylearn,learning,display_response,Dd1Qntnp65NxPkjCVvdqvkk9TSn1,Dd1Qntnp65NxPkjCVvdqvkk9TSn1,,,,,,,,,,,,,,,,,chosen stimuli: images/choice_trial_4.png,,,,,655509818aa2ed735957565c,18:45:47,27/03/2024
html-keyboard-response,118,224786,0.0-50.0-2.0,,,,delaylearn,learning,feedback_duration_window,Dd1Qntnp65NxPkjCVvdqvkk9TSn1,Dd1Qntnp65NxPkjCVvdqvkk9TSn1,,,,,,,,,,,,,,,,,,7000.0,,,,655509818aa2ed735957565c,18:45:47,27/03/2024
html-keyboard-response,119,226289,0.0-50.0-3.0,,<div style='margin:auto;width: auto; font-size: 150%'><span style='font-weight: bold; font-size: 100px; color: red;'>0 points!</span><br><br></div>,,delaylearn,learning,feedback_image_window,Dd1Qntnp65NxPkjCVvdqvkk9TSn1,Dd1Qntnp65NxPkjCVvdqvkk9TSn1,,,,,,,,,,,,,,,,,,,,,,655509818aa2ed735957565c,18:45:47,27/03/2024
html-keyboard-response,120,226791,0.0-51.0-0.0,,,,,,mood_trial_fixation,Dd1Qntnp65NxPkjCVvdqvkk9TSn1,,,,,,,,,,,,,,,,,,,,,,,655509818aa2ed735957565c,18:45:47,27/03/2024
lmdlab-html-vas-response,121,231643,0.0-51.0-1.0,3843.0,How happy are you right now?,0.5021871079312332,delaylearn,learning,mood_trial,Dd1Qntnp65NxPkjCVvdqvkk9TSn1,Dd1Qntnp65NxPkjCVvdqvkk9TSn1,,,,,,,,,,,,,,,,,,,,"['Very unhappy', 'Very happy']",,655509818aa2ed735957565c,18:45:47,27/03/2024
html-keyboard-response,122,233802,0.0-52.0,,"<div style=""font-size:100px;"">+</div>",,delaylearn,learning,ITI,Dd1Qntnp65NxPkjCVvdqvkk9TSn1,Dd1Qntnp65NxPkjCVvdqvkk9TSn1,,,,,,,,,,,,,,,,,,,2156.0,,,655509818aa2ed735957565c,18:45:47,27/03/2024
html-keyboard-response,123,234461,0.0-53.0-0.0,650.9000000003725,"<div style=""display: flex; flex-direction: column; align-items: center; margin-top: -40px;""><img src=""images/pattern_7.png"" style=""width: 234px; height: 230px; margin-top: -50px;""><div style=""display: flex; justify-content: space-between; margin-top: 33px;""><img src=""images/choice_trial_10.png"" style=""width: 408px; height: 417px; margin-right: 200px;""><img src=""images/choice_trial_8.png"" style=""width: 408px; height: 417px;""></div></div>",j,delaylearn,learning,trial,Dd1Qntnp65NxPkjCVvdqvkk9TSn1,Dd1Qntnp65NxPkjCVvdqvkk9TSn1,5.0,images/choice_trial_10.png,images/choice_trial_8.png,images/pattern_7.png,j,j,750.0,10.0,8.0,6.0,1.0,23.0,1.0,1.0,8.0,150.0,,,,,,655509818aa2ed735957565c,18:45:47,27/03/2024
html-keyboard-response,124,235464,0.0-53.0-1.0,,"<div style=""display: flex; flex-direction: column; align-items: center; margin-top: -40px;""><img src=""images/pattern_7.png"" style=""width: 234px; height: 230px; margin-top: -50px;""><div style=""display: flex; justify-content: space-between; margin-top: 33px;""><img src=""images/choice_trial_8.png"" style=""width: 408px; height: 417px; margin-left:608px;""></div></div>",,delaylearn,learning,display_response,Dd1Qntnp65NxPkjCVvdqvkk9TSn1,Dd1Qntnp65NxPkjCVvdqvkk9TSn1,,,,,,,,,,,,,,,,,chosen stimuli: images/choice_trial_8.png,,,,,655509818aa2ed735957565c,18:45:47,27/03/2024
html-keyboard-response,125,236218,0.0-53.0-2.0,,,,delaylearn,learning,feedback_duration_window,Dd1Qntnp65NxPkjCVvdqvkk9TSn1,Dd1Qntnp65NxPkjCVvdqvkk9TSn1,,,,,,,,,,,,,,,,,,750.0,,,,655509818aa2ed735957565c,18:45:47,27/03/2024
html-keyboard-response,126,237723,0.0-53.0-3.0,,<div style='margin:auto;width: auto; font-size: 150%'><span style='font-weight: bold; font-size: 100px; color: green;'>+10 points!</span><br><br></div>,,delaylearn,learning,feedback_image_window,Dd1Qntnp65NxPkjCVvdqvkk9TSn1,Dd1Qntnp65NxPkjCVvdqvkk9TSn1,,,,,,,,,,,,,,,,,,,,,,655509818aa2ed735957565c,18:45:47,27/03/2024
html-keyboard-response,127,239265,0.0-54.0,,"<div style=""font-size:100px;"">+</div>",,delaylearn,learning,ITI,Dd1Qntnp65NxPkjCVvdqvkk9TSn1,Dd1Qntnp65NxPkjCVvdqvkk9TSn1,,,,,,,,,,,,,,,,,,,1540.0,,,655509818aa2ed735957565c,18:45:47,27/03/2024
html-keyboard-response,128,240259,0.0-55.0-0.0,989.1000000014901,"<div style=""display: flex; flex-direction: column; align-items: center; margin-top: -40px;""><img src=""images/pattern_1.png"" style=""width: 234px; height: 230px; margin-top: -50px;""><div style=""display: flex; justify-content: space-between; margin-top: 33px;""><img src=""images/choice_trial_15.png"" style=""width: 408px; height: 417px; margin-right: 200px;""><img src=""images/choice_trial_6.png"" style=""width: 408px; height: 417px;""></div></div>",f,delaylearn,learning,trial,Dd1Qntnp65NxPkjCVvdqvkk9TSn1,Dd1Qntnp65NxPkjCVvdqvkk9TSn1,5.0,images/choice_trial_15.png,images/choice_trial_6.png,images/pattern_1.png,f,j,7000.0,15.0,6.0,1.0,1.0,24.0,0.0,1.0,15.0,160.0,,,,,,655509818aa2ed735957565c,18:45:47,27/03/2024
html-keyboard-response,129,241263,0.0-55.0-1.0,,"<div style=""display: flex; flex-direction: column; align-items: center; margin-top: -40px;""><img src=""images/pattern_1.png"" style=""width: 234px; height: 230px; margin-top: -50px;""><div style=""display: flex; justify-content: space-between; margin-top: 33px;""><img src=""images/choice_trial_15.png"" style=""width: 408px; height: 417px; margin-right: 608px;""></div></div>",,delaylearn,learning,display_response,Dd1Qntnp65NxPkjCVvdqvkk9TSn1,Dd1Qntnp65NxPkjCVvdqvkk9TSn1,,,,,,,,,,,,,,,,,chosen stimuli: images/choice_trial_15.png,,,,,655509818aa2ed735957565c,18:45:47,27/03/2024
html-keyboard-response,130,248267,0.0-55.0-2.0,,,,delaylearn,learning,feedback_duration_window,Dd1Qntnp65NxPkjCVvdqvkk9TSn1,Dd1Qntnp65NxPkjCVvdqvkk9TSn1,,,,,,,,,,,,,,,,,,7000.0,,,,655509818aa2ed735957565c,18:45:47,27/03/2024
html-keyboard-response,131,249771,0.0-55.0-3.0,,<div style='margin:auto;width: auto; font-size: 150%'><span style='font-weight: bold; font-size: 100px; color: green;'>+10 points!</span><br><br></div>,,delaylearn,learning,feedback_image_window,Dd1Qntnp65NxPkjCVvdqvkk9TSn1,Dd1Qntnp65NxPkjCVvdqvkk9TSn1,,,,,,,,,,,,,,,,,,,,,,655509818aa2ed735957565c,18:45:47,27/03/2024
html-keyboard-response,132,251307,0.0-56.0,,"<div style=""font-size:100px;"">+</div>",,delaylearn,learning,ITI,Dd1Qntnp65NxPkjCVvdqvkk9TSn1,Dd1Qntnp65NxPkjCVvdqvkk9TSn1,,,,,,,,,,,,,,,,,,,1534.0,,,655509818aa2ed735957565c,18:45:47,27/03/2024
html-keyboard-response,133,252219,0.0-57.0-0.0,905.3000000007451,"<div style=""display: flex; flex-direction: column; align-items: center; margin-top: -40px;""><img src=""images/pattern_5.png"" style=""width: 234px; height: 230px; margin-top: -50px;""><div style=""display: flex; justify-content: space-between; margin-top: 33px;""><img src=""images/choice_trial_13.png"" style=""width: 408px; height: 417px; margin-right: 200px;""><img src=""images/choice_trial_7.png"" style=""width: 408px; height: 417px;""></div></div>",j,delaylearn,learning,trial,Dd1Qntnp65NxPkjCVvdqvkk9TSn1,Dd1Qntnp65NxPkjCVvdqvkk9TSn1,5.0,images/choice_trial_13.png,images/choice_trial_7.png,images/pattern_5.png,j,j,750.0,13.0,7.0,4.0,1.0,25.0,1.0,1.0,7.0,170.0,,,,,,655509818aa2ed735957565c,18:45:47,27/03/2024
html-keyboard-response,134,253223,0.0-57.0-1.0,,"<div style=""display: flex; flex-direction: column; align-items: center; margin-top: -40px;""><img src=""images/pattern_5.png"" style=""width: 234px; height: 230px; margin-top: -50px;""><div style=""display: flex; justify-content: space-between; margin-top: 33px;""><img src=""images/choice_trial_7.png"" style=""width: 408px; height: 417px; margin-left:608px;""></div></div>",,delaylearn,learning,display_response,Dd1Qntnp65NxPkjCVvdqvkk9TSn1,Dd1Qntnp65NxPkjCVvdqvkk9TSn1,,,,,,,,,,,,,,,,,chosen stimuli: images/choice_trial_7.png,,,,,655509818aa2ed735957565c,18:45:47,27/03/2024
html-keyboard-response,135,253977,0.0-57.0-2.0,,,,delaylearn,learning,feedback_duration_window,Dd1Qntnp65NxPkjCVvdqvkk9TSn1,Dd1Qntnp65NxPkjCVvdqvkk9TSn1,,,,,,,,,,,,,,,,,,750.0,,,,655509818aa2ed735957565c,18:45:47,27/03/2024
html-keyboard-response,136,255482,0.0-57.0-3.0,,<div style='margin:auto;width: auto; font-size: 150%'><span style='font-weight: bold; font-size: 100px; color: green;'>+10 points!</span><br><br></div>,,delaylearn,learning,feedback_image_window,Dd1Qntnp65NxPkjCVvdqvkk9TSn1,Dd1Qntnp65NxPkjCVvdqvkk9TSn1,,,,,,,,,,,,,,,,,,,,,,655509818aa2ed735957565c,18:45:47,27/03/2024
html-keyboard-response,137,257635,0.0-58.0,,"<div style=""font-size:100px;"">+</div>",,delaylearn,learning,ITI,Dd1Qntnp65NxPkjCVvdqvkk9TSn1,Dd1Qntnp65NxPkjCVvdqvkk9TSn1,,,,,,,,,,,,,,,,,,,2150.0,,,655509818aa2ed735957565c,18:45:47,27/03/2024
html-keyboard-response,138,258249,0.0-59.0-0.0,608.5,"<div style=""display: flex; flex-direction: column; align-items: center; margin-top: -40px;""><img src=""images/pattern_3.png"" style=""width: 234px; height: 230px; margin-top: -50px;""><div style=""display: flex; justify-content: space-between; margin-top: 33px;""><img src=""images/choice_trial_2.png"" style=""width: 408px; height: 417px; margin-right: 200px;""><img src=""images/choice_trial_16.png"" style=""width: 408px; height: 417px;""></div></div>",f,delaylearn,learning,trial,Dd1Qntnp65NxPkjCVvdqvkk9TSn1,Dd1Qntnp65NxPkjCVvdqvkk9TSn1,5.0,images/choice_trial_2.png,images/choice_trial_16.png,images/pattern_3.png,j,j,7000.0,2.0,16.0,2.0,1.0,26.0,0.0,0.0,2.0,170.0,,,,,,655509818aa2ed735957565c,18:45:47,27/03/2024
html-keyboard-response,139,259252,0.0-59.0-1.0,,"<div style=""display: flex; flex-direction: column; align-items: center; margin-top: -40px;""><img src=""images/pattern_3.png"" style=""width: 234px; height: 230px; margin-top: -50px;""><div style=""display: flex; justify-content: space-between; margin-top: 33px;""><img src=""images/choice_trial_2.png"" style=""width: 408px; height: 417px; margin-right: 608px;""></div></div>",,delaylearn,learning,display_response,Dd1Qntnp65NxPkjCVvdqvkk9TSn1,Dd1Qntnp65NxPkjCVvdqvkk9TSn1,,,,,,,,,,,,,,,,,chosen stimuli: images/choice_trial_2.png,,,,,655509818aa2ed735957565c,18:45:47,27/03/2024
html-keyboard-response,140,266255,0.0-59.0-2.0,,,,delaylearn,learning,feedback_duration_window,Dd1Qntnp65NxPkjCVvdqvkk9TSn1,Dd1Qntnp65NxPkjCVvdqvkk9TSn1,,,,,,,,,,,,,,,,,,7000.0,,,,655509818aa2ed735957565c,18:45:47,27/03/2024
html-keyboard-response,141,267760,0.0-59.0-3.0,,<div style='margin:auto;width: auto; font-size: 150%'><span style='font-weight: bold; font-size: 100px; color: red;'>0 points!</span><br><br></div>,,delaylearn,learning,feedback_image_window,Dd1Qntnp65NxPkjCVvdqvkk9TSn1,Dd1Qntnp65NxPkjCVvdqvkk9TSn1,,,,,,,,,,,,,,,,,,,,,,655509818aa2ed735957565c,18:45:47,27/03/2024
lmdlab-html-vas-response,142,274591,0.0-60.0-0.0,5318.0,*How <b><u>confident</u></b> are you feeling about your answers at this moment?*,0.5759723305415212,rewlearn,rate_confidence,,Dd1Qntnp65NxPkjCVvdqvkk9TSn1,Dd1Qntnp65NxPkjCVvdqvkk9TSn1,,,,,,,,,,,,,,,,,,,,"['No confidence', 'Complete confidence']",,655509818aa2ed735957565c,18:45:47,27/03/2024
lmdlab-rest-trial-limit,143,283479,0.0-60.0-1.0,7379.60000000149,"<div style=""font-size:40px;""><b>Please take a break!</b><br><br><br><br><p>Great work: you earned 170 points.<br><br><br><p>You have completed part(s) 1 of 5.<br><br><br><br>When you are ready to continue<br><br><br>please click the button.</p><br><br>",0,delaylearn,learning,break,Dd1Qntnp65NxPkjCVvdqvkk9TSn1,Dd1Qntnp65NxPkjCVvdqvkk9TSn1,,,,,,,,,,,,,,,,,,,,,0.0,655509818aa2ed735957565c,18:45:47,27/03/2024
html-keyboard-response,144,286482,0.0-60.0-2.0,,"<div style=""font-size:100px;"">+</div>",,delaylearn,learning,pre_fixation,Dd1Qntnp65NxPkjCVvdqvkk9TSn1,,,,,,,,,,,,,,,,,,,,,,,655509818aa2ed735957565c,18:45:47,27/03/2024
lmdlab-html-vas-response,145,292407,0.0-60.0-3.0-0.0,4916.0,How happy are you right now?,0.6454172459394392,delaylearn,learning,mood_baseline,Dd1Qntnp65NxPkjCVvdqvkk9TSn1,Dd1Qntnp65NxPkjCVvdqvkk9TSn1,,,,,,,,,,,,,,,,,,,,"['Very unhappy', 'Very happy']",,655509818aa2ed735957565c,18:45:47,27/03/2024
html-keyboard-response,146,293910,0.0-60.0-3.0-1.0,,,,,,mood_baseline_fixation,Dd1Qntnp65NxPkjCVvdqvkk9TSn1,,,,,,,,,,,,,,,,,,,,,,,655509818aa2ed735957565c,18:45:47,27/03/2024
html-keyboard-response,147,295455,0.0-61.0,,"<div style=""font-size:100px;"">+</div>",,delaylearn,learning,ITI,Dd1Qntnp65NxPkjCVvdqvkk9TSn1,Dd1Qntnp65NxPkjCVvdqvkk9TSn1,,,,,,,,,,,,,,,,,,,1542.0,,,655509818aa2ed735957565c,18:45:47,27/03/2024
html-keyboard-response,148,296221,0.0-62.0-0.0,757.7999999988824,"<div style=""display: flex; flex-direction: column; align-items: center; margin-top: -40px;""><img src=""images/pattern_7.png"" style=""width: 234px; height: 230px; margin-top: -50px;""><div style=""display: flex; justify-content: space-between; margin-top: 33px;""><img src=""images/choice_trial_10.png"" style=""width: 408px; height: 417px; margin-right: 200px;""><img src=""images/choice_trial_8.png"" style=""width: 408px; height: 417px;""></div></div>",j,delaylearn,learning,trial,Dd1Qntnp65NxPkjCVvdqvkk9TSn1,Dd1Qntnp65NxPkjCVvdqvkk9TSn1,5.0,images/choice_trial_10.png,images/choice_trial_8.png,images/pattern_7.png,j,j,750.0,10.0,8.0,6.0,1.0,27.0,1.0,1.0,8.0,180.0,,,,,,655509818aa2ed735957565c,18:45:47,27/03/2024
html-keyboard-response,149,297227,0.0-62.0-1.0,,"<div style=""display: flex; flex-direction: column; align-items: center; margin-top: -40px;""><img src=""images/pattern_7.png"" style=""width: 234px; height: 230px; margin-top: -50px;""><div style=""display: flex; justify-content: space-between; margin-top: 33px;""><img src=""images/choice_trial_8.png"" style=""width: 408px; height: 417px; margin-left:608px;""></div></div>",,delaylearn,learning,display_response,Dd1Qntnp65NxPkjCVvdqvkk9TSn1,Dd1Qntnp65NxPkjCVvdqvkk9TSn1,,,,,,,,,,,,,,,,,chosen stimuli: images/choice_trial_8.png,,,,,655509818aa2ed735957565c,18:45:47,27/03/2024
html-keyboard-response,150,297980,0.0-62.0-2.0,,,,delaylearn,learning,feedback_duration_window,Dd1Qntnp65NxPkjCVvdqvkk9TSn1,Dd1Qntnp65NxPkjCVvdqvkk9TSn1,,,,,,,,,,,,,,,,,,750.0,,,,655509818aa2ed735957565c,18:45:47,27/03/2024
html-keyboard-response,151,299485,0.0-62.0-3.0,,<div style='margin:auto;width: auto; font-size: 150%'><span style='font-weight: bold; font-size: 100px; color: green;'>+10 points!</span><br><br></div>,,delaylearn,learning,feedback_image_window,Dd1Qntnp65NxPkjCVvdqvkk9TSn1,Dd1Qntnp65NxPkjCVvdqvkk9TSn1,,,,,,,,,,,,,,,,,,,,,,655509818aa2ed735957565c,18:45:47,27/03/2024
html-keyboard-response,152,299988,0.0-63.0-0.0,,,,,,mood_trial_fixation,Dd1Qntnp65NxPkjCVvdqvkk9TSn1,,,,,,,,,,,,,,,,,,,,,,,655509818aa2ed735957565c,18:45:47,27/03/2024
lmdlab-html-vas-response,153,304290,0.0-63.0-1.0,3293.0,How happy are you right now?,0.6041843274219253,delaylearn,learning,mood_trial,Dd1Qntnp65NxPkjCVvdqvkk9TSn1,Dd1Qntnp65NxPkjCVvdqvkk9TSn1,,,,,,,,,,,,,,,,,,,,"['Very unhappy', 'Very happy']",,655509818aa2ed735957565c,18:45:47,27/03/2024
html-keyboard-response,154,306465,0.0-64.0,,"<div style=""font-size:100px;"">+</div>",,delaylearn,learning,ITI,Dd1Qntnp65NxPkjCVvdqvkk9TSn1,Dd1Qntnp65NxPkjCVvdqvkk9TSn1,,,,,,,,,,,,,,,,,,,2172.0,,,655509818aa2ed735957565c,18:45:47,27/03/2024
html-keyboard-response,155,307396,0.0-65.0-0.0,921.0999999996275,"<div style=""display: flex; flex-direction: column; align-items: center; margin-top: -40px;""><img src=""images/pattern_1.png"" style=""width: 234px; height: 230px; margin-top: -50px;""><div style=""display: flex; justify-content: space-between; margin-top: 33px;""><img src=""images/choice_trial_6.png"" style=""width: 408px; height: 417px; margin-right: 200px;""><img src=""images/choice_trial_15.png"" style=""width: 408px; height: 417px;""></div></div>",j,delaylearn,learning,trial,Dd1Qntnp65NxPkjCVvdqvkk9TSn1,Dd1Qntnp65NxPkjCVvdqvkk9TSn1,5.0,images/choice_trial_6.png,images/choice_trial_15.png,images/pattern_1.png,f,f,7000.0,6.0,15.0,1.0,0.0,28.0,0.0,0.0,15.0,180.0,,,,,,655509818aa2ed735957565c,18:45:47,27/03/2024
html-keyboard-response,156,308401,0.0-65.0-1.0,,"<div style=""display: flex; flex-direction: column; align-items: center; margin-top: -40px;""><img src=""images/pattern_1.png"" style=""width: 234px; height: 230px; margin-top: -50px;""><div style=""display: flex; justify-content: space-between; margin-top: 33px;""><img src=""images/choice_trial_15.png"" style=""width: 408px; height: 417px; margin-left:608px;""></div></div>",,delaylearn,learning,display_response,Dd1Qntnp65NxPkjCVvdqvkk9TSn1,Dd1Qntnp65NxPkjCVvdqvkk9TSn1,,,,,,,,,,,,,,,,,chosen stimuli: images/choice_trial_15.png,,,,,655509818aa2ed735957565c,18:45:47,27/03/2024
html-keyboard-response,157,315405,0.0-65.0-2.0,,,,delaylearn,learning,feedback_duration_window,Dd1Qntnp65NxPkjCVvdqvkk9TSn1,Dd1Qntnp65NxPkjCVvdqvkk9TSn1,,,,,,,,,,,,,,,,,,7000.0,,,,655509818aa2ed735957565c,18:45:47,27/03/2024
html-keyboard-response,158,316910,0.0-65.0-3.0,,<div style='margin:auto;width: auto; font-size: 150%'><span style='font-weight: bold; font-size: 100px; color: red;'>0 points!</span><br><br></div>,,delaylearn,learning,feedback_image_window,Dd1Qntnp65NxPkjCVvdqvkk9TSn1,Dd1Qntnp65NxPkjCVvdqvkk9TSn1,,,,,,,,,,,,,,,,,,,,,,655509818aa2ed735957565c,18:45:47,27/03/2024
html-keyboard-response,159,318788,0.0-66.0,,"<div style=""font-size:100px;"">+</div>",,delaylearn,learning,ITI,Dd1Qntnp65NxPkjCVvdqvkk9TSn1,Dd1Qntnp65NxPkjCVvdqvkk9TSn1,,,,,,,,,,,,,,,,,,,1875.0,,,655509818aa2ed735957565c,18:45:47,27/03/2024
html-keyboard-response,160,319562,0.0-67.0-0.0,770.4000000003725,"<div style=""display: flex; flex-direction: column; align-items: center; margin-top: -40px;""><img src=""images/pattern_5.png"" style=""width: 234px; height: 230px; margin-top: -50px;""><div style=""display: flex; justify-content: space-between; margin-top: 33px;""><img src=""images/choice_trial_7.png"" style=""width: 408px; height: 417px; margin-right: 200px;""><img src=""images/choice_trial_13.png"" style=""width: 408px; height: 417px;""></div></div>",f,delaylearn,learning,trial,Dd1Qntnp65NxPkjCVvdqvkk9TSn1,Dd1Qntnp65NxPkjCVvdqvkk9TSn1,5.0,images/choice_trial_7.png,images/choice_trial_13.png,images/pattern_5.png,f,f,750.0,7.0,13.0,4.0,0.0,29.0,1.0,1.0,7.0,190.0,,,,,,655509818aa2ed735957565c,18:45:47,27/03/2024
html-keyboard-response,161,320566,0.0-67.0-1.0,,"<div style=""display: flex; flex-direction: column; align-items: center; margin-top: -40px;""><img src=""images/pattern_5.png"" style=""width: 234px; height: 230px; margin-top: -50px;""><div style=""display: flex; justify-content: space-between; margin-top: 33px;""><img src=""images/choice_trial_7.png"" style=""width: 408px; height: 417px; margin-right: 608px;""></div></div>",,delaylearn,learning,display_response,Dd1Qntnp65NxPkjCVvdqvkk9TSn1,Dd1Qntnp65NxPkjCVvdqvkk9TSn1,,,,,,,,,,,,,,,,,chosen stimuli: images/choice_trial_7.png,,,,,655509818aa2ed735957565c,18:45:47,27/03/2024
html-keyboard-response,162,321319,0.0-67.0-2.0,,,,delaylearn,learning,feedback_duration_window,Dd1Qntnp65NxPkjCVvdqvkk9TSn1,Dd1Qntnp65NxPkjCVvdqvkk9TSn1,,,,,,,,,,,,,,,,,,750.0,,,,655509818aa2ed735957565c,18:45:47,27/03/2024
html-keyboard-response,163,322824,0.0-67.0-3.0,,<div style='margin:auto;width: auto; font-size: 150%'><span style='font-weight: bold; font-size: 100px; color: green;'>+10 points!</span><br><br></div>,,delaylearn,learning,feedback_image_window,Dd1Qntnp65NxPkjCVvdqvkk9TSn1,Dd1Qntnp65NxPkjCVvdqvkk9TSn1,,,,,,,,,,,,,,,,,,,,,,655509818aa2ed735957565c,18:45:47,27/03/2024
html-keyboard-response,164,325215,0.0-68.0,,"<div style=""font-size:100px;"">+</div>",,delaylearn,learning,ITI,Dd1Qntnp65NxPkjCVvdqvkk9TSn1,Dd1Qntnp65NxPkjCVvdqvkk9TSn1,,,,,,,,,,,,,,,,,,,2388.0,,,655509818aa2ed735957565c,18:45:47,27/03/2024
html-keyboard-response,165,326169,0.0-69.0-0.0,950.2000000011176,"<div style=""display: flex; flex-direction: column; align-items: center; margin-top: -40px;""><img src=""images/pattern_6.png"" style=""width: 234px; height: 230px; margin-top: -50px;""><div style=""display: flex; justify-content: space-between; margin-top: 33px;""><img src=""images/choice_trial_9.png"" style=""width: 408px; height: 417px; margin-right: 200px;""><img src=""images/choice_trial_14.png"" style=""width: 408px; height: 417px;""></div></div>",f,delaylearn,learning,trial,Dd1Qntnp65NxPkjCVvdqvkk9TSn1,Dd1Qntnp65NxPkjCVvdqvkk9TSn1,5.0,images/choice_trial_9.png,images/choice_trial_14.png,images/pattern_6.png,j,j,750.0,9.0,14.0,5.0,1.0,30.0,0.0,0.0,9.0,190.0,,,,,,655509818aa2ed735957565c,18:45:47,27/03/2024
html-keyboard-response,166,327174,0.0-69.0-1.0,,"<div style=""display: flex; flex-direction: column; align-items: center; margin-top: -40px;""><img src=""images/pattern_6.png"" style=""width: 234px; height: 230px; margin-top: -50px;""><div style=""display: flex; justify-content: space-between; margin-top: 33px;""><img src=""images/choice_trial_9.png"" style=""width: 408px; height: 417px; margin-right: 608px;""></div></div>",,delaylearn,learning,display_response,Dd1Qntnp65NxPkjCVvdqvkk9TSn1,Dd1Qntnp65NxPkjCVvdqvkk9TSn1,,,,,,,,,,,,,,,,,chosen stimuli: images/choice_trial_9.png,,,,,655509818aa2ed735957565c,18:45:47,27/03/2024
html-keyboard-response,167,327927,0.0-69.0-2.0,,,,delaylearn,learning,feedback_duration_window,Dd1Qntnp65NxPkjCVvdqvkk9TSn1,Dd1Qntnp65NxPkjCVvdqvkk9TSn1,,,,,,,,,,,,,,,,,,750.0,,,,655509818aa2ed735957565c,18:45:47,27/03/2024
html-keyboard-response,168,329432,0.0-69.0-3.0,,<div style='margin:auto;width: auto; font-size: 150%'><span style='font-weight: bold; font-size: 100px; color: red;'>0 points!</span><br><br></div>,,delaylearn,learning,feedback_image_window,Dd1Qntnp65NxPkjCVvdqvkk9TSn1,Dd1Qntnp65NxPkjCVvdqvkk9TSn1,,,,,,,,,,,,,,,,,,,,,,655509818aa2ed735957565c,18:45:47,27/03/2024
html-keyboard-response,169,329935,0.0-70.0-0.0,,,,,,mood_trial_fixation,Dd1Qntnp65NxPkjCVvdqvkk9TSn1,,,,,,,,,,,,,,,,,,,,,,,655509818aa2ed735957565c,18:45:47,27/03/2024
lmdlab-html-vas-response,170,333990,0.0-70.0-1.0,3047.0,How happy are you right now?,0.3763181987725069,delaylearn,learning,mood_trial,Dd1Qntnp65NxPkjCVvdqvkk9TSn1,Dd1Qntnp65NxPkjCVvdqvkk9TSn1,,,,,,,,,,,,,,,,,,,,"['Very unhappy', 'Very happy']",,655509818aa2ed735957565c,18:45:47,27/03/2024
html-keyboard-response,171,336099,0.0-71.0,,"<div style=""font-size:100px;"">+</div>",,delaylearn,learning,ITI,Dd1Qntnp65NxPkjCVvdqvkk9TSn1,Dd1Qntnp65NxPkjCVvdqvkk9TSn1,,,,,,,,,,,,,,,,,,,2104.0,,,655509818aa2ed735957565c,18:45:47,27/03/2024
html-keyboard-response,172,336900,0.0-72.0-0.0,793.2000000011176,"<div style=""display: flex; flex-direction: column; align-items: center; margin-top: -40px;""><img src=""images/pattern_4.png"" style=""width: 234px; height: 230px; margin-top: -50px;""><div style=""display: flex; justify-content: space-between; margin-top: 33px;""><img src=""images/choice_trial_4.png"" style=""width: 408px; height: 417px; margin-right: 200px;""><img src=""images/choice_trial_11.png"" style=""width: 408px; height: 417px;""></div></div>",j,delaylearn,learning,trial,Dd1Qntnp65NxPkjCVvdqvkk9TSn1,Dd1Qntnp65NxPkjCVvdqvkk9TSn1,5.0,images/choice_trial_4.png,images/choice_trial_11.png,images/pattern_4.png,j,j,7000.0,4.0,11.0,3.0,1.0,31.0,1.0,1.0,11.0,200.0,,,,,,655509818aa2ed735957565c,18:45:47,27/03/2024
html-keyboard-response,173,337903,0.0-72.0-1.0,,"<div style=""display: flex; flex-direction: column; align-items: center; margin-top: -40px;""><img src=""images/pattern_4.png"" style=""width: 234px; height: 230px; margin-top: -50px;""><div style=""display: flex; justify-content: space-between; margin-top: 33px;""><img src=""images/choice_trial_11.png"" style=""width: 408px; height: 417px; margin-left:608px;""></div></div>",,delaylearn,learning,display_response,Dd1Qntnp65NxPkjCVvdqvkk9TSn1,Dd1Qntnp65NxPkjCVvdqvkk9TSn1,,,,,,,,,,,,,,,,,chosen stimuli: images/choice_trial_11.png,,,,,655509818aa2ed735957565c,18:45:47,27/03/2024
html-keyboard-response,174,344906,0.0-72.0-2.0,,,,delaylearn,learning,feedback_duration_window,Dd1Qntnp65NxPkjCVvdqvkk9TSn1,Dd1Qntnp65NxPkjCVvdqvkk9TSn1,,,,,,,,,,,,,,,,,,7000.0,,,,655509818aa2ed735957565c,18:45:47,27/03/2024
html-keyboard-response,175,346411,0.0-72.0-3.0,,<div style='margin:auto;width: auto; font-size: 150%'><span style='font-weight: bold; font-size: 100px; color: green;'>+10 points!</span><br><br></div>,,delaylearn,learning,feedback_image_window,Dd1Qntnp65NxPkjCVvdqvkk9TSn1,Dd1Qntnp65NxPkjCVvdqvkk9TSn1,,,,,,,,,,,,,,,,,,,,,,655509818aa2ed735957565c,18:45:47,27/03/2024
html-keyboard-response,176,348045,0.0-73.0,,"<div style=""font-size:100px;"">+</div>",,delaylearn,learning,ITI,Dd1Qntnp65NxPkjCVvdqvkk9TSn1,Dd1Qntnp65NxPkjCVvdqvkk9TSn1,,,,,,,,,,,,,,,,,,,1631.0,,,655509818aa2ed735957565c,18:45:47,27/03/2024
html-keyboard-response,177,349024,0.0-74.0-0.0,972.9000000003725,"<div style=""display: flex; flex-direction: column; align-items: center; margin-top: -40px;""><img src=""images/pattern_3.png"" style=""width: 234px; height: 230px; margin-top: -50px;""><div style=""display: flex; justify-content: space-between; margin-top: 33px;""><img src=""images/choice_trial_2.png"" style=""width: 408px; height: 417px; margin-right: 200px;""><img src=""images/choice_trial_16.png"" style=""width: 408px; height: 417px;""></div></div>",f,delaylearn,learning,trial,Dd1Qntnp65NxPkjCVvdqvkk9TSn1,Dd1Qntnp65NxPkjCVvdqvkk9TSn1,5.0,images/choice_trial_2.png,images/choice_trial_16.png,images/pattern_3.png,j,j,7000.0,2.0,16.0,2.0,1.0,32.0,0.0,0.0,2.0,200.0,,,,,,655509818aa2ed735957565c,18:45:47,27/03/2024
html-keyboard-response,178,350028,0.0-74.0-1.0,,"<div style=""display: flex; flex-direction: column; align-items: center; margin-top: -40px;""><img src=""images/pattern_3.png"" style=""width: 234px; height: 230px; margin-top: -50px;""><div style=""display: flex; justify-content: space-between; margin-top: 33px;""><img src=""images/choice_trial_2.png"" style=""width: 408px; height: 417px; margin-right: 608px;""></div></div>",,delaylearn,learning,display_response,Dd1Qntnp65NxPkjCVvdqvkk9TSn1,Dd1Qntnp65NxPkjCVvdqvkk9TSn1,,,,,,,,,,,,,,,,,chosen stimuli: images/choice_trial_2.png,,,,,655509818aa2ed735957565c,18:45:47,27/03/2024
html-keyboard-response,179,357033,0.0-74.0-2.0,,,,delaylearn,learning,feedback_duration_window,Dd1Qntnp65NxPkjCVvdqvkk9TSn1,Dd1Qntnp65NxPkjCVvdqvkk9TSn1,,,,,,,,,,,,,,,,,,7000.0,,,,655509818aa2ed735957565c,18:45:47,27/03/2024
html-keyboard-response,180,358537,0.0-74.0-3.0,,<div style='margin:auto;width: auto; font-size: 150%'><span style='font-weight: bold; font-size: 100px; color: red;'>0 points!</span><br><br></div>,,delaylearn,learning,feedback_image_window,Dd1Qntnp65NxPkjCVvdqvkk9TSn1,Dd1Qntnp65NxPkjCVvdqvkk9TSn1,,,,,,,,,,,,,,,,,,,,,,655509818aa2ed735957565c,18:45:47,27/03/2024
html-keyboard-response,181,360777,0.0-75.0,,"<div style=""font-size:100px;"">+</div>",,delaylearn,learning,ITI,Dd1Qntnp65NxPkjCVvdqvkk9TSn1,Dd1Qntnp65NxPkjCVvdqvkk9TSn1,,,,,,,,,,,,,,,,,,,2237.0,,,655509818aa2ed735957565c,18:45:47,27/03/2024
html-keyboard-response,182,361616,0.0-76.0-0.0,832.0,"<div style=""display: flex; flex-direction: column; align-items: center; margin-top: -40px;""><img src=""images/pattern_5.png"" style=""width: 234px; height: 230px; margin-top: -50px;""><div style=""display: flex; justify-content: space-between; margin-top: 33px;""><img src=""images/choice_trial_7.png"" style=""width: 408px; height: 417px; margin-right: 200px;""><img src=""images/choice_trial_13.png"" style=""width: 408px; height: 417px;""></div></div>",f,delaylearn,learning,trial,Dd1Qntnp65NxPkjCVvdqvkk9TSn1,Dd1Qntnp65NxPkjCVvdqvkk9TSn1,5.0,images/choice_trial_7.png,images/choice_trial_13.png,images/pattern_5.png,j,f,750.0,7.0,13.0,4.0,0.0,33.0,1.0,0.0,7.0,200.0,,,,,,655509818aa2ed735957565c,18:45:47,27/03/2024
html-keyboard-response,183,362619,0.0-76.0-1.0,,"<div style=""display: flex; flex-direction: column; align-items: center; margin-top: -40px;""><img src=""images/pattern_5.png"" style=""width: 234px; height: 230px; margin-top: -50px;""><div style=""display: flex; justify-content: space-between; margin-top: 33px;""><img src=""images/choice_trial_7.png"" style=""width: 408px; height: 417px; margin-right: 608px;""></div></div>",,delaylearn,learning,display_response,Dd1Qntnp65NxPkjCVvdqvkk9TSn1,Dd1Qntnp65NxPkjCVvdqvkk9TSn1,,,,,,,,,,,,,,,,,chosen stimuli: images/choice_trial_7.png,,,,,655509818aa2ed735957565c,18:45:47,27/03/2024
html-keyboard-response,184,363371,0.0-76.0-2.0,,,,delaylearn,learning,feedback_duration_window,Dd1Qntnp65NxPkjCVvdqvkk9TSn1,Dd1Qntnp65NxPkjCVvdqvkk9TSn1,,,,,,,,,,,,,,,,,,750.0,,,,655509818aa2ed735957565c,18:45:47,27/03/2024
html-keyboard-response,185,364875,0.0-76.0-3.0,,<div style='margin:auto;width: auto; font-size: 150%'><span style='font-weight: bold; font-size: 100px; color: red;'>0 points!</span><br><br></div>,,delaylearn,learning,feedback_image_window,Dd1Qntnp65NxPkjCVvdqvkk9TSn1,Dd1Qntnp65NxPkjCVvdqvkk9TSn1,,,,,,,,,,,,,,,,,,,,,,655509818aa2ed735957565c,18:45:47,27/03/2024
html-keyboard-response,186,367083,0.0-77.0,,"<div style=""font-size:100px;"">+</div>",,delaylearn,learning,ITI,Dd1Qntnp65NxPkjCVvdqvkk9TSn1,Dd1Qntnp65NxPkjCVvdqvkk9TSn1,,,,,,,,,,,,,,,,,,,2205.0,,,655509818aa2ed735957565c,18:45:47,27/03/2024
html-keyboard-response,187,367900,0.0-78.0-0.0,811.6999999992549,"<div style=""display: flex; flex-direction: column; align-items: center; margin-top: -40px;""><img src=""images/pattern_1.png"" style=""width: 234px; height: 230px; margin-top: -50px;""><div style=""display: flex; justify-content: space-between; margin-top: 33px;""><img src=""images/choice_trial_6.png"" style=""width: 408px; height: 417px; margin-right: 200px;""><img src=""images/choice_trial_15.png"" style=""width: 408px; height: 417px;""></div></div>",j,delaylearn,learning,trial,Dd1Qntnp65NxPkjCVvdqvkk9TSn1,Dd1Qntnp65NxPkjCVvdqvkk9TSn1,5.0,images/choice_trial_6.png,images/choice_trial_15.png,images/pattern_1.png,f,f,7000.0,6.0,15.0,1.0,0.0,34.0,0.0,0.0,15.0,200.0,,,,,,655509818aa2ed735957565c,18:45:47,27/03/2024
html-keyboard-response,188,368903,0.0-78.0-1.0,,"<div style=""display: flex; flex-direction: column; align-items: center; margin-top: -40px;""><img src=""images/pattern_1.png"" style=""width: 234px; height: 230px; margin-top: -50px;""><div style=""display: flex; justify-content: space-between; margin-top: 33px;""><img src=""images/choice_trial_15.png"" style=""width: 408px; height: 417px; margin-left:608px;""></div></div>",,delaylearn,learning,display_response,Dd1Qntnp65NxPkjCVvdqvkk9TSn1,Dd1Qntnp65NxPkjCVvdqvkk9TSn1,,,,,,,,,,,,,,,,,chosen stimuli: images/choice_trial_15.png,,,,,655509818aa2ed735957565c,18:45:47,27/03/2024
html-keyboard-response,189,375907,0.0-78.0-2.0,,,,delaylearn,learning,feedback_duration_window,Dd1Qntnp65NxPkjCVvdqvkk9TSn1,Dd1Qntnp65NxPkjCVvdqvkk9TSn1,,,,,,,,,,,,,,,,,,7000.0,,,,655509818aa2ed735957565c,18:45:47,27/03/2024
html-keyboard-response,190,377411,0.0-78.0-3.0,,<div style='margin:auto;width: auto; font-size: 150%'><span style='font-weight: bold; font-size: 100px; color: red;'>0 points!</span><br><br></div>,,delaylearn,learning,feedback_image_window,Dd1Qntnp65NxPkjCVvdqvkk9TSn1,Dd1Qntnp65NxPkjCVvdqvkk9TSn1,,,,,,,,,,,,,,,,,,,,,,655509818aa2ed735957565c,18:45:47,27/03/2024
html-keyboard-response,191,377914,0.0-79.0-0.0,,,,,,mood_trial_fixation,Dd1Qntnp65NxPkjCVvdqvkk9TSn1,,,,,,,,,,,,,,,,,,,,,,,655509818aa2ed735957565c,18:45:47,27/03/2024
lmdlab-html-vas-response,192,383488,0.0-79.0-1.0,4564.0,How happy are you right now?,0.6540978603641789,delaylearn,learning,mood_trial,Dd1Qntnp65NxPkjCVvdqvkk9TSn1,Dd1Qntnp65NxPkjCVvdqvkk9TSn1,,,,,,,,,,,,,,,,,,,,"['Very unhappy', 'Very happy']",,655509818aa2ed735957565c,18:45:47,27/03/2024
html-keyboard-response,193,385576,0.0-80.0,,"<div style=""font-size:100px;"">+</div>",,delaylearn,learning,ITI,Dd1Qntnp65NxPkjCVvdqvkk9TSn1,Dd1Qntnp65NxPkjCVvdqvkk9TSn1,,,,,,,,,,,,,,,,,,,2084.0,,,655509818aa2ed735957565c,18:45:47,27/03/2024
html-keyboard-response,194,386246,0.0-81.0-0.0,660.4000000003725,"<div style=""display: flex; flex-direction: column; align-items: center; margin-top: -40px;""><img src=""images/pattern_6.png"" style=""width: 234px; height: 230px; margin-top: -50px;""><div style=""display: flex; justify-content: space-between; margin-top: 33px;""><img src=""images/choice_trial_14.png"" style=""width: 408px; height: 417px; margin-right: 200px;""><img src=""images/choice_trial_9.png"" style=""width: 408px; height: 417px;""></div></div>",j,delaylearn,learning,trial,Dd1Qntnp65NxPkjCVvdqvkk9TSn1,Dd1Qntnp65NxPkjCVvdqvkk9TSn1,5.0,images/choice_trial_14.png,images/choice_trial_9.png,images/pattern_6.png,j,f,750.0,14.0,9.0,5.0,0.0,35.0,0.0,1.0,9.0,210.0,,,,,,655509818aa2ed735957565c,18:45:47,27/03/2024
html-keyboard-response,195,387250,0.0-81.0-1.0,,"<div style=""display: flex; flex-direction: column; align-items: center; margin-top: -40px;""><img src=""images/pattern_6.png"" style=""width: 234px; height: 230px; margin-top: -50px;""><div style=""display: flex; justify-content: space-between; margin-top: 33px;""><img src=""images/choice_trial_9.png"" style=""width: 408px; height: 417px; margin-left:608px;""></div></div>",,delaylearn,learning,display_response,Dd1Qntnp65NxPkjCVvdqvkk9TSn1,Dd1Qntnp65NxPkjCVvdqvkk9TSn1,,,,,,,,,,,,,,,,,chosen stimuli: images/choice_trial_9.png,,,,,655509818aa2ed735957565c,18:45:47,27/03/2024
html-keyboard-response,196,388003,0.0-81.0-2.0,,,,delaylearn,learning,feedback_duration_window,Dd1Qntnp65NxPkjCVvdqvkk9TSn1,Dd1Qntnp65NxPkjCVvdqvkk9TSn1,,,,,,,,,,,,,,,,,,750.0,,,,655509818aa2ed735957565c,18:45:47,27/03/2024
html-keyboard-response,197,389507,0.0-81.0-3.0,,<div style='margin:auto;width: auto; font-size: 150%'><span style='font-weight: bold; font-size: 100px; color: green;'>+10 points!</span><br><br></div>,,delaylearn,learning,feedback_image_window,Dd1Qntnp65NxPkjCVvdqvkk9TSn1,Dd1Qntnp65NxPkjCVvdqvkk9TSn1,,,,,,,,,,,,,,,,,,,,,,655509818aa2ed735957565c,18:45:47,27/03/2024
html-keyboard-response,198,391139,0.0-82.0,,"<div style=""font-size:100px;"">+</div>",,delaylearn,learning,ITI,Dd1Qntnp65NxPkjCVvdqvkk9TSn1,Dd1Qntnp65NxPkjCVvdqvkk9TSn1,,,,,,,,,,,,,,,,,,,1629.0,,,655509818aa2ed735957565c,18:45:47,27/03/2024
html-keyboard-response,199,392179,0.0-83.0-0.0,1033.0,"<div style=""display: flex; flex-direction: column; align-items: center; margin-top: -40px;""><img src=""images/pattern_3.png"" style=""width: 234px; height: 230px; margin-top: -50px;""><div style=""display: flex; justify-content: space-between; margin-top: 33px;""><img src=""images/choice_trial_2.png"" style=""width: 408px; height: 417px; margin-right: 200px;""><img src=""images/choice_trial_16.png"" style=""width: 408px; height: 417px;""></div></div>",f,delaylearn,learning,trial,Dd1Qntnp65NxPkjCVvdqvkk9TSn1,Dd1Qntnp65NxPkjCVvdqvkk9TSn1,5.0,images/choice_trial_2.png,images/choice_trial_16.png,images/pattern_3.png,j,j,7000.0,2.0,16.0,2.0,1.0,36.0,0.0,0.0,2.0,210.0,,,,,,655509818aa2ed735957565c,18:45:47,27/03/2024
html-keyboard-response,200,393183,0.0-83.0-1.0,,"<div style=""display: flex; flex-direction: column; align-items: center; margin-top: -40px;""><img src=""images/pattern_3.png"" style=""width: 234px; height: 230px; margin-top: -50px;""><div style=""display: flex; justify-content: space-between; margin-top: 33px;""><img src=""images/choice_trial_2.png"" style=""width: 408px; height: 417px; margin-right: 608px;""></div></div>",,delaylearn,learning,display_response,Dd1Qntnp65NxPkjCVvdqvkk9TSn1,Dd1Qntnp65NxPkjCVvdqvkk9TSn1,,,,,,,,,,,,,,,,,chosen stimuli: images/choice_trial_2.png,,,,,655509818aa2ed735957565c,18:45:47,27/03/2024
html-keyboard-response,201,400187,0.0-83.0-2.0,,,,delaylearn,learning,feedback_duration_window,Dd1Qntnp65NxPkjCVvdqvkk9TSn1,Dd1Qntnp65NxPkjCVvdqvkk9TSn1,,,,,,,,,,,,,,,,,,7000.0,,,,655509818aa2ed735957565c,18:45:47,27/03/2024
html-keyboard-response,202,401692,0.0-83.0-3.0,,<div style='margin:auto;width: auto; font-size: 150%'><span style='font-weight: bold; font-size: 100px; color: red;'>0 points!</span><br><br></div>,,delaylearn,learning,feedback_image_window,Dd1Qntnp65NxPkjCVvdqvkk9TSn1,Dd1Qntnp65NxPkjCVvdqvkk9TSn1,,,,,,,,,,,,,,,,,,,,,,655509818aa2ed735957565c,18:45:47,27/03/2024
html-keyboard-response,203,403339,0.0-84.0,,"<div style=""font-size:100px;"">+</div>",,delaylearn,learning,ITI,Dd1Qntnp65NxPkjCVvdqvkk9TSn1,Dd1Qntnp65NxPkjCVvdqvkk9TSn1,,,,,,,,,,,,,,,,,,,1645.0,,,655509818aa2ed735957565c,18:45:47,27/03/2024
html-keyboard-response,204,404245,0.0-85.0-0.0,900.9000000003725,"<div style=""display: flex; flex-direction: column; align-items: center; margin-top: -40px;""><img src=""images/pattern_4.png"" style=""width: 234px; height: 230px; margin-top: -50px;""><div style=""display: flex; justify-content: space-between; margin-top: 33px;""><img src=""images/choice_trial_4.png"" style=""width: 408px; height: 417px; margin-right: 200px;""><img src=""images/choice_trial_11.png"" style=""width: 408px; height: 417px;""></div></div>",f,delaylearn,learning,trial,Dd1Qntnp65NxPkjCVvdqvkk9TSn1,Dd1Qntnp65NxPkjCVvdqvkk9TSn1,5.0,images/choice_trial_4.png,images/choice_trial_11.png,images/pattern_4.png,f,j,7000.0,4.0,11.0,3.0,1.0,37.0,0.0,1.0,4.0,220.0,,,,,,655509818aa2ed735957565c,18:45:47,27/03/2024
html-keyboard-response,205,405250,0.0-85.0-1.0,,"<div style=""display: flex; flex-direction: column; align-items: center; margin-top: -40px;""><img src=""images/pattern_4.png"" style=""width: 234px; height: 230px; margin-top: -50px;""><div style=""display: flex; justify-content: space-between; margin-top: 33px;""><img src=""images/choice_trial_4.png"" style=""width: 408px; height: 417px; margin-right: 608px;""></div></div>",,delaylearn,learning,display_response,Dd1Qntnp65NxPkjCVvdqvkk9TSn1,Dd1Qntnp65NxPkjCVvdqvkk9TSn1,,,,,,,,,,,,,,,,,chosen stimuli: images/choice_trial_4.png,,,,,655509818aa2ed735957565c,18:45:47,27/03/2024
html-keyboard-response,206,412253,0.0-85.0-2.0,,,,delaylearn,learning,feedback_duration_window,Dd1Qntnp65NxPkjCVvdqvkk9TSn1,Dd1Qntnp65NxPkjCVvdqvkk9TSn1,,,,,,,,,,,,,,,,,,7000.0,,,,655509818aa2ed735957565c,18:45:47,27/03/2024
html-keyboard-response,207,413757,0.0-85.0-3.0,,<div style='margin:auto;width: auto; font-size: 150%'><span style='font-weight: bold; font-size: 100px; color: green;'>+10 points!</span><br><br></div>,,delaylearn,learning,feedback_image_window,Dd1Qntnp65NxPkjCVvdqvkk9TSn1,Dd1Qntnp65NxPkjCVvdqvkk9TSn1,,,,,,,,,,,,,,,,,,,,,,655509818aa2ed735957565c,18:45:47,27/03/2024
html-keyboard-response,208,415748,0.0-86.0,,"<div style=""font-size:100px;"">+</div>",,delaylearn,learning,ITI,Dd1Qntnp65NxPkjCVvdqvkk9TSn1,Dd1Qntnp65NxPkjCVvdqvkk9TSn1,,,,,,,,,,,,,,,,,,,1988.0,,,655509818aa2ed735957565c,18:45:47,27/03/2024
html-keyboard-response,209,416701,0.0-87.0-0.0,946.1000000014901,"<div style=""display: flex; flex-direction: column; align-items: center; margin-top: -40px;""><img src=""images/pattern_7.png"" style=""width: 234px; height: 230px; margin-top: -50px;""><div style=""display: flex; justify-content: space-between; margin-top: 33px;""><img src=""images/choice_trial_8.png"" style=""width: 408px; height: 417px; margin-right: 200px;""><img src=""images/choice_trial_10.png"" style=""width: 408px; height: 417px;""></div></div>",f,delaylearn,learning,trial,Dd1Qntnp65NxPkjCVvdqvkk9TSn1,Dd1Qntnp65NxPkjCVvdqvkk9TSn1,5.0,images/choice_trial_8.png,images/choice_trial_10.png,images/pattern_7.png,f,f,750.0,8.0,10.0,6.0,0.0,38.0,1.0,1.0,8.0,230.0,,,,,,655509818aa2ed735957565c,18:45:47,27/03/2024
html-keyboard-response,210,417704,0.0-87.0-1.0,,"<div style=""display: flex; flex-direction: column; align-items: center; margin-top: -40px;""><img src=""images/pattern_7.png"" style=""width: 234px; height: 230px; margin-top: -50px;""><div style=""display: flex; justify-content: space-between; margin-top: 33px;""><img src=""images/choice_trial_8.png"" style=""width: 408px; height: 417px; margin-right: 608px;""></div></div>",,delaylearn,learning,display_response,Dd1Qntnp65NxPkjCVvdqvkk9TSn1,Dd1Qntnp65NxPkjCVvdqvkk9TSn1,,,,,,,,,,,,,,,,,chosen stimuli: images/choice_trial_8.png,,,,,655509818aa2ed735957565c,18:45:47,27/03/2024
html-keyboard-response,211,418458,0.0-87.0-2.0,,,,delaylearn,learning,feedback_duration_window,Dd1Qntnp65NxPkjCVvdqvkk9TSn1,Dd1Qntnp65NxPkjCVvdqvkk9TSn1,,,,,,,,,,,,,,,,,,750.0,,,,655509818aa2ed735957565c,18:45:47,27/03/2024
html-keyboard-response,212,419962,0.0-87.0-3.0,,<div style='margin:auto;width: auto; font-size: 150%'><span style='font-weight: bold; font-size: 100px; color: green;'>+10 points!</span><br><br></div>,,delaylearn,learning,feedback_image_window,Dd1Qntnp65NxPkjCVvdqvkk9TSn1,Dd1Qntnp65NxPkjCVvdqvkk9TSn1,,,,,,,,,,,,,,,,,,,,,,655509818aa2ed735957565c,18:45:47,27/03/2024
html-keyboard-response,213,422462,0.0-88.0,,"<div style=""font-size:100px;"">+</div>",,delaylearn,learning,ITI,Dd1Qntnp65NxPkjCVvdqvkk9TSn1,Dd1Qntnp65NxPkjCVvdqvkk9TSn1,,,,,,,,,,,,,,,,,,,2497.0,,,655509818aa2ed735957565c,18:45:47,27/03/2024
html-keyboard-response,214,423001,0.0-89.0-0.0,529.0,"<div style=""display: flex; flex-direction: column; align-items: center; margin-top: -40px;""><img src=""images/pattern_1.png"" style=""width: 234px; height: 230px; margin-top: -50px;""><div style=""display: flex; justify-content: space-between; margin-top: 33px;""><img src=""images/choice_trial_6.png"" style=""width: 408px; height: 417px; margin-right: 200px;""><img src=""images/choice_trial_15.png"" style=""width: 408px; height: 417px;""></div></div>",j,delaylearn,learning,trial,Dd1Qntnp65NxPkjCVvdqvkk9TSn1,Dd1Qntnp65NxPkjCVvdqvkk9TSn1,5.0,images/choice_trial_6.png,images/choice_trial_15.png,images/pattern_1.png,f,f,7000.0,6.0,15.0,1.0,0.0,39.0,0.0,0.0,15.0,230.0,,,,,,655509818aa2ed735957565c,18:45:47,27/03/2024
html-keyboard-response,215,424004,0.0-89.0-1.0,,"<div style=""display: flex; flex-direction: column; align-items: center; margin-top: -40px;""><img src=""images/pattern_1.png"" style=""width: 234px; height: 230px; margin-top: -50px;""><div style=""display: flex; justify-content: space-between; margin-top: 33px;""><img src=""images/choice_trial_15.png"" style=""width: 408px; height: 417px; margin-left:608px;""></div></div>",,delaylearn,learning,display_response,Dd1Qntnp65NxPkjCVvdqvkk9TSn1,Dd1Qntnp65NxPkjCVvdqvkk9TSn1,,,,,,,,,,,,,,,,,chosen stimuli: images/choice_trial_15.png,,,,,655509818aa2ed735957565c,18:45:47,27/03/2024
html-keyboard-response,216,431007,0.0-89.0-2.0,,,,delaylearn,learning,feedback_duration_window,Dd1Qntnp65NxPkjCVvdqvkk9TSn1,Dd1Qntnp65NxPkjCVvdqvkk9TSn1,,,,,,,,,,,,,,,,,,7000.0,,,,655509818aa2ed735957565c,18:45:47,27/03/2024
html-keyboard-response,217,432511,0.0-89.0-3.0,,<div style='margin:auto;width: auto; font-size: 150%'><span style='font-weight: bold; font-size: 100px; color: red;'>0 points!</span><br><br></div>,,delaylearn,learning,feedback_image_window,Dd1Qntnp65NxPkjCVvdqvkk9TSn1,Dd1Qntnp65NxPkjCVvdqvkk9TSn1,,,,,,,,,,,,,,,,,,,,,,655509818aa2ed735957565c,18:45:47,27/03/2024
html-keyboard-response,218,433015,0.0-90.0-0.0,,,,,,mood_trial_fixation,Dd1Qntnp65NxPkjCVvdqvkk9TSn1,,,,,,,,,,,,,,,,,,,,,,,655509818aa2ed735957565c,18:45:47,27/03/2024
lmdlab-html-vas-response,219,438255,0.0-90.0-1.0,4230.0,How happy are you right now?,0.6193754026652198,delaylearn,learning,mood_trial,Dd1Qntnp65NxPkjCVvdqvkk9TSn1,Dd1Qntnp65NxPkjCVvdqvkk9TSn1,,,,,,,,,,,,,,,,,,,,"['Very unhappy', 'Very happy']",,655509818aa2ed735957565c,18:45:47,27/03/2024
html-keyboard-response,220,440102,0.0-91.0,,"<div style=""font-size:100px;"">+</div>",,delaylearn,learning,ITI,Dd1Qntnp65NxPkjCVvdqvkk9TSn1,Dd1Qntnp65NxPkjCVvdqvkk9TSn1,,,,,,,,,,,,,,,,,,,1844.0,,,655509818aa2ed735957565c,18:45:47,27/03/2024
html-keyboard-response,221,440681,0.0-92.0-0.0,568.6000000014901,"<div style=""display: flex; flex-direction: column; align-items: center; margin-top: -40px;""><img src=""images/pattern_3.png"" style=""width: 234px; height: 230px; margin-top: -50px;""><div style=""display: flex; justify-content: space-between; margin-top: 33px;""><img src=""images/choice_trial_16.png"" style=""width: 408px; height: 417px; margin-right: 200px;""><img src=""images/choice_trial_2.png"" style=""width: 408px; height: 417px;""></div></div>",j,delaylearn,learning,trial,Dd1Qntnp65NxPkjCVvdqvkk9TSn1,Dd1Qntnp65NxPkjCVvdqvkk9TSn1,5.0,images/choice_trial_16.png,images/choice_trial_2.png,images/pattern_3.png,j,f,7000.0,16.0,2.0,2.0,0.0,40.0,0.0,1.0,2.0,240.0,,,,,,655509818aa2ed735957565c,18:45:47,27/03/2024
html-keyboard-response,222,441686,0.0-92.0-1.0,,"<div style=""display: flex; flex-direction: column; align-items: center; margin-top: -40px;""><img src=""images/pattern_3.png"" style=""width: 234px; height: 230px; margin-top: -50px;""><div style=""display: flex; justify-content: space-between; margin-top: 33px;""><img src=""images/choice_trial_2.png"" style=""width: 408px; height: 417px; margin-left:608px;""></div></div>",,delaylearn,learning,display_response,Dd1Qntnp65NxPkjCVvdqvkk9TSn1,Dd1Qntnp65NxPkjCVvdqvkk9TSn1,,,,,,,,,,,,,,,,,chosen stimuli: images/choice_trial_2.png,,,,,655509818aa2ed735957565c,18:45:47,27/03/2024
html-keyboard-response,223,448689,0.0-92.0-2.0,,,,delaylearn,learning,feedback_duration_window,Dd1Qntnp65NxPkjCVvdqvkk9TSn1,Dd1Qntnp65NxPkjCVvdqvkk9TSn1,,,,,,,,,,,,,,,,,,7000.0,,,,655509818aa2ed735957565c,18:45:47,27/03/2024
html-keyboard-response,224,450195,0.0-92.0-3.0,,<div style='margin:auto;width: auto; font-size: 150%'><span style='font-weight: bold; font-size: 100px; color: green;'>+10 points!</span><br><br></div>,,delaylearn,learning,feedback_image_window,Dd1Qntnp65NxPkjCVvdqvkk9TSn1,Dd1Qntnp65NxPkjCVvdqvkk9TSn1,,,,,,,,,,,,,,,,,,,,,,655509818aa2ed735957565c,18:45:47,27/03/2024
html-keyboard-response,225,452682,0.0-93.0,,"<div style=""font-size:100px;"">+</div>",,delaylearn,learning,ITI,Dd1Qntnp65NxPkjCVvdqvkk9TSn1,Dd1Qntnp65NxPkjCVvdqvkk9TSn1,,,,,,,,,,,,,,,,,,,2483.0,,,655509818aa2ed735957565c,18:45:47,27/03/2024
html-keyboard-response,226,453570,0.0-94.0-0.0,879.0,"<div style=""display: flex; flex-direction: column; align-items: center; margin-top: -40px;""><img src=""images/pattern_7.png"" style=""width: 234px; height: 230px; margin-top: -50px;""><div style=""display: flex; justify-content: space-between; margin-top: 33px;""><img src=""images/choice_trial_10.png"" style=""width: 408px; height: 417px; margin-right: 200px;""><img src=""images/choice_trial_8.png"" style=""width: 408px; height: 417px;""></div></div>",f,delaylearn,learning,trial,Dd1Qntnp65NxPkjCVvdqvkk9TSn1,Dd1Qntnp65NxPkjCVvdqvkk9TSn1,5.0,images/choice_trial_10.png,images/choice_trial_8.png,images/pattern_7.png,j,j,750.0,10.0,8.0,6.0,1.0,41.0,0.0,0.0,10.0,240.0,,,,,,655509818aa2ed735957565c,18:45:47,27/03/2024
html-keyboard-response,227,454574,0.0-94.0-1.0,,"<div style=""display: flex; flex-direction: column; align-items: center; margin-top: -40px;""><img src=""images/pattern_7.png"" style=""width: 234px; height: 230px; margin-top: -50px;""><div style=""display: flex; justify-content: space-between; margin-top: 33px;""><img src=""images/choice_trial_10.png"" style=""width: 408px; height: 417px; margin-right: 608px;""></div></div>",,delaylearn,learning,display_response,Dd1Qntnp65NxPkjCVvdqvkk9TSn1,Dd1Qntnp65NxPkjCVvdqvkk9TSn1,,,,,,,,,,,,,,,,,chosen stimuli: images/choice_trial_10.png,,,,,655509818aa2ed735957565c,18:45:47,27/03/2024
html-keyboard-response,228,455327,0.0-94.0-2.0,,,,delaylearn,learning,feedback_duration_window,Dd1Qntnp65NxPkjCVvdqvkk9TSn1,Dd1Qntnp65NxPkjCVvdqvkk9TSn1,,,,,,,,,,,,,,,,,,750.0,,,,655509818aa2ed735957565c,18:45:47,27/03/2024
html-keyboard-response,229,456830,0.0-94.0-3.0,,<div style='margin:auto;width: auto; font-size: 150%'><span style='font-weight: bold; font-size: 100px; color: red;'>0 points!</span><br><br></div>,,delaylearn,learning,feedback_image_window,Dd1Qntnp65NxPkjCVvdqvkk9TSn1,Dd1Qntnp65NxPkjCVvdqvkk9TSn1,,,,,,,,,,,,,,,,,,,,,,655509818aa2ed735957565c,18:45:47,27/03/2024
html-keyboard-response,230,458734,0.0-95.0,,"<div style=""font-size:100px;"">+</div>",,delaylearn,learning,ITI,Dd1Qntnp65NxPkjCVvdqvkk9TSn1,Dd1Qntnp65NxPkjCVvdqvkk9TSn1,,,,,,,,,,,,,,,,,,,1901.0,,,655509818aa2ed735957565c,18:45:47,27/03/2024
