trial_type,trial_index,time_elapsed,internal_node_id,rt,stimulus,response,exp_name,exp_stage,test_part,subjectID,databaseID,counterbal,choice_stimuli_1,choice_stimuli_2,pattern_stimuli,rewarded_answer,correct_answer,feedback_duration_times,stim_left,stim_right,pair,leftright_counter,trial,response_correct,response_rewarded,chosen_stim,counter,displayed_choice,feedback_durations,ITI_duration,labels,rest_warning,prolificID,start_time,date
pavlovia,0,648,0.0-0.0,,,,,,,TV7i4jU8UfgMqWswG9MOFUaBrNa2,,,,,,,,,,,,,,,,,,,,,,,5d4ada2fed2dfc0016a22af5,16:56:12,27/03/2024
html-keyboard-response,1,3651,0.0-1.0,,"<div style=""font-size:100px;"">+</div>",,delaylearn,learning,pre_fixation,TV7i4jU8UfgMqWswG9MOFUaBrNa2,,,,,,,,,,,,,,,,,,,,,,,5d4ada2fed2dfc0016a22af5,16:56:12,27/03/2024
html-keyboard-response,2,5535,0.0-2.0-0.0,1879.199999988079,"<div style=""display: flex; flex-direction: column; align-items: center; margin-top: -40px;""><img src=""images/demo_images/pattern_1.png"" style=""width: 234px; height: 230px; margin-top: -50px;""><div style=""display: flex; justify-content: space-between; margin-top: 33px;""><img src=""images/demo_images/choice_trial_2.png"" style=""width: 408px; height: 417px; margin-right: 200px;""><img src=""images/demo_images/choice_trial_1.png"" style=""width: 408px; height: 417px;""></div></div>",f,delaylearn,learning,trial,TV7i4jU8UfgMqWswG9MOFUaBrNa2,TV7i4jU8UfgMqWswG9MOFUaBrNa2,4.0,images/demo_images/choice_trial_2.png,images/demo_images/choice_trial_1.png,images/demo_images/pattern_1.png,j,j,3000.0,2.0,1.0,20.0,1.0,1.0,0.0,0.0,2.0,0.0,,,,,,5d4ada2fed2dfc0016a22af5,16:56:12,27/03/2024
html-keyboard-response,3,6543,0.0-2.0-1.0,,"<div style=""display: flex; flex-direction: column; align-items: center; margin-top: -40px;""><img src=""images/demo_images/pattern_1.png"" style=""width: 234px; height: 230px; margin-top: -50px;""><div style=""display: flex; justify-content: space-between; margin-top: 33px;""><img src=""images/demo_images/choice_trial_2.png"" style=""width: 408px; height: 417px; margin-right: 608px;""></div></div>",,delaylearn,learning,display_response,TV7i4jU8UfgMqWswG9MOFUaBrNa2,TV7i4jU8UfgMqWswG9MOFUaBrNa2,,,,,,,,,,,,,,,,,chosen stimuli: images/demo_images/choice_trial_2.png,,,,,5d4ada2fed2dfc0016a22af5,16:56:12,27/03/2024
html-keyboard-response,4,9557,0.0-2.0-2.0,,,,delaylearn,learning,feedback_duration_window,TV7i4jU8UfgMqWswG9MOFUaBrNa2,TV7i4jU8UfgMqWswG9MOFUaBrNa2,,,,,,,,,,,,,,,,,,3000.0,,,,5d4ada2fed2dfc0016a22af5,16:56:12,27/03/2024
html-keyboard-response,5,11096,0.0-2.0-3.0,,<div style='margin:auto;width: auto; font-size: 150%'><span style='font-weight: bold; font-size: 100px; color: red;'>0 points!</span><br><br></div>,,delaylearn,learning,feedback_image_window,TV7i4jU8UfgMqWswG9MOFUaBrNa2,TV7i4jU8UfgMqWswG9MOFUaBrNa2,,,,,,,,,,,,,,,,,,,,,,5d4ada2fed2dfc0016a22af5,16:56:12,27/03/2024
html-keyboard-response,6,13242,0.0-3.0,,"<div style=""font-size:100px;"">+</div>",,delaylearn,learning,ITI,TV7i4jU8UfgMqWswG9MOFUaBrNa2,TV7i4jU8UfgMqWswG9MOFUaBrNa2,,,,,,,,,,,,,,,,,,,2116.0,,,5d4ada2fed2dfc0016a22af5,16:56:12,27/03/2024
html-keyboard-response,7,15181,0.0-4.0-0.0,1935.0,"<div style=""display: flex; flex-direction: column; align-items: center; margin-top: -40px;""><img src=""images/demo_images/pattern_1.png"" style=""width: 234px; height: 230px; margin-top: -50px;""><div style=""display: flex; justify-content: space-between; margin-top: 33px;""><img src=""images/demo_images/choice_trial_2.png"" style=""width: 408px; height: 417px; margin-right: 200px;""><img src=""images/demo_images/choice_trial_1.png"" style=""width: 408px; height: 417px;""></div></div>",j,delaylearn,learning,trial,TV7i4jU8UfgMqWswG9MOFUaBrNa2,TV7i4jU8UfgMqWswG9MOFUaBrNa2,4.0,images/demo_images/choice_trial_2.png,images/demo_images/choice_trial_1.png,images/demo_images/pattern_1.png,j,j,3000.0,2.0,1.0,20.0,1.0,2.0,1.0,1.0,1.0,10.0,,,,,,5d4ada2fed2dfc0016a22af5,16:56:12,27/03/2024
html-keyboard-response,8,16195,0.0-4.0-1.0,,"<div style=""display: flex; flex-direction: column; align-items: center; margin-top: -40px;""><img src=""images/demo_images/pattern_1.png"" style=""width: 234px; height: 230px; margin-top: -50px;""><div style=""display: flex; justify-content: space-between; margin-top: 33px;""><img src=""images/demo_images/choice_trial_1.png"" style=""width: 408px; height: 417px; margin-left:608px;""></div></div>",,delaylearn,learning,display_response,TV7i4jU8UfgMqWswG9MOFUaBrNa2,TV7i4jU8UfgMqWswG9MOFUaBrNa2,,,,,,,,,,,,,,,,,chosen stimuli: images/demo_images/choice_trial_1.png,,,,,5d4ada2fed2dfc0016a22af5,16:56:12,27/03/2024
html-keyboard-response,9,19211,0.0-4.0-2.0,,,,delaylearn,learning,feedback_duration_window,TV7i4jU8UfgMqWswG9MOFUaBrNa2,TV7i4jU8UfgMqWswG9MOFUaBrNa2,,,,,,,,,,,,,,,,,,3000.0,,,,5d4ada2fed2dfc0016a22af5,16:56:12,27/03/2024
html-keyboard-response,10,20751,0.0-4.0-3.0,,<div style='margin:auto;width: auto; font-size: 150%'><span style='font-weight: bold; font-size: 100px; color: green;'>+10 points!</span><br><br></div>,,delaylearn,learning,feedback_image_window,TV7i4jU8UfgMqWswG9MOFUaBrNa2,TV7i4jU8UfgMqWswG9MOFUaBrNa2,,,,,,,,,,,,,,,,,,,,,,5d4ada2fed2dfc0016a22af5,16:56:12,27/03/2024
html-keyboard-response,11,23238,0.0-5.0,,"<div style=""font-size:100px;"">+</div>",,delaylearn,learning,ITI,TV7i4jU8UfgMqWswG9MOFUaBrNa2,TV7i4jU8UfgMqWswG9MOFUaBrNa2,,,,,,,,,,,,,,,,,,,2477.0,,,5d4ada2fed2dfc0016a22af5,16:56:12,27/03/2024
html-keyboard-response,12,24176,0.0-6.0-0.0,935.0999999940395,"<div style=""display: flex; flex-direction: column; align-items: center; margin-top: -40px;""><img src=""images/demo_images/pattern_1.png"" style=""width: 234px; height: 230px; margin-top: -50px;""><div style=""display: flex; justify-content: space-between; margin-top: 33px;""><img src=""images/demo_images/choice_trial_1.png"" style=""width: 408px; height: 417px; margin-right: 200px;""><img src=""images/demo_images/choice_trial_2.png"" style=""width: 408px; height: 417px;""></div></div>",f,delaylearn,learning,trial,TV7i4jU8UfgMqWswG9MOFUaBrNa2,TV7i4jU8UfgMqWswG9MOFUaBrNa2,4.0,images/demo_images/choice_trial_1.png,images/demo_images/choice_trial_2.png,images/demo_images/pattern_1.png,j,f,3000.0,1.0,2.0,20.0,0.0,3.0,1.0,0.0,1.0,10.0,,,,,,5d4ada2fed2dfc0016a22af5,16:56:12,27/03/2024
html-keyboard-response,13,25182,0.0-6.0-1.0,,"<div style=""display: flex; flex-direction: column; align-items: center; margin-top: -40px;""><img src=""images/demo_images/pattern_1.png"" style=""width: 234px; height: 230px; margin-top: -50px;""><div style=""display: flex; justify-content: space-between; margin-top: 33px;""><img src=""images/demo_images/choice_trial_1.png"" style=""width: 408px; height: 417px; margin-right: 608px;""></div></div>",,delaylearn,learning,display_response,TV7i4jU8UfgMqWswG9MOFUaBrNa2,TV7i4jU8UfgMqWswG9MOFUaBrNa2,,,,,,,,,,,,,,,,,chosen stimuli: images/demo_images/choice_trial_1.png,,,,,5d4ada2fed2dfc0016a22af5,16:56:12,27/03/2024
html-keyboard-response,14,28197,0.0-6.0-2.0,,,,delaylearn,learning,feedback_duration_window,TV7i4jU8UfgMqWswG9MOFUaBrNa2,TV7i4jU8UfgMqWswG9MOFUaBrNa2,,,,,,,,,,,,,,,,,,3000.0,,,,5d4ada2fed2dfc0016a22af5,16:56:12,27/03/2024
html-keyboard-response,15,29722,0.0-6.0-3.0,,<div style='margin:auto;width: auto; font-size: 150%'><span style='font-weight: bold; font-size: 100px; color: red;'>0 points!</span><br><br></div>,,delaylearn,learning,feedback_image_window,TV7i4jU8UfgMqWswG9MOFUaBrNa2,TV7i4jU8UfgMqWswG9MOFUaBrNa2,,,,,,,,,,,,,,,,,,,,,,5d4ada2fed2dfc0016a22af5,16:56:12,27/03/2024
html-keyboard-response,16,31943,0.0-7.0,,"<div style=""font-size:100px;"">+</div>",,delaylearn,learning,ITI,TV7i4jU8UfgMqWswG9MOFUaBrNa2,TV7i4jU8UfgMqWswG9MOFUaBrNa2,,,,,,,,,,,,,,,,,,,2189.0,,,5d4ada2fed2dfc0016a22af5,16:56:12,27/03/2024
html-keyboard-response,17,33643,0.0-8.0-0.0,1698.0,"<div style=""display: flex; flex-direction: column; align-items: center; margin-top: -40px;""><img src=""images/demo_images/pattern_1.png"" style=""width: 234px; height: 230px; margin-top: -50px;""><div style=""display: flex; justify-content: space-between; margin-top: 33px;""><img src=""images/demo_images/choice_trial_1.png"" style=""width: 408px; height: 417px; margin-right: 200px;""><img src=""images/demo_images/choice_trial_2.png"" style=""width: 408px; height: 417px;""></div></div>",f,delaylearn,learning,trial,TV7i4jU8UfgMqWswG9MOFUaBrNa2,TV7i4jU8UfgMqWswG9MOFUaBrNa2,4.0,images/demo_images/choice_trial_1.png,images/demo_images/choice_trial_2.png,images/demo_images/pattern_1.png,f,f,3000.0,1.0,2.0,20.0,0.0,4.0,1.0,1.0,1.0,20.0,,,,,,5d4ada2fed2dfc0016a22af5,16:56:12,27/03/2024
html-keyboard-response,18,34649,0.0-8.0-1.0,,"<div style=""display: flex; flex-direction: column; align-items: center; margin-top: -40px;""><img src=""images/demo_images/pattern_1.png"" style=""width: 234px; height: 230px; margin-top: -50px;""><div style=""display: flex; justify-content: space-between; margin-top: 33px;""><img src=""images/demo_images/choice_trial_1.png"" style=""width: 408px; height: 417px; margin-right: 608px;""></div></div>",,delaylearn,learning,display_response,TV7i4jU8UfgMqWswG9MOFUaBrNa2,TV7i4jU8UfgMqWswG9MOFUaBrNa2,,,,,,,,,,,,,,,,,chosen stimuli: images/demo_images/choice_trial_1.png,,,,,5d4ada2fed2dfc0016a22af5,16:56:12,27/03/2024
html-keyboard-response,19,37664,0.0-8.0-2.0,,,,delaylearn,learning,feedback_duration_window,TV7i4jU8UfgMqWswG9MOFUaBrNa2,TV7i4jU8UfgMqWswG9MOFUaBrNa2,,,,,,,,,,,,,,,,,,3000.0,,,,5d4ada2fed2dfc0016a22af5,16:56:12,27/03/2024
html-keyboard-response,20,39204,0.0-8.0-3.0,,<div style='margin:auto;width: auto; font-size: 150%'><span style='font-weight: bold; font-size: 100px; color: green;'>+10 points!</span><br><br></div>,,delaylearn,learning,feedback_image_window,TV7i4jU8UfgMqWswG9MOFUaBrNa2,TV7i4jU8UfgMqWswG9MOFUaBrNa2,,,,,,,,,,,,,,,,,,,,,,5d4ada2fed2dfc0016a22af5,16:56:12,27/03/2024
html-keyboard-response,21,39733,0.0-9.0-0.0,,,,,,mood_trial_fixation,TV7i4jU8UfgMqWswG9MOFUaBrNa2,,,,,,,,,,,,,,,,,,,,,,,5d4ada2fed2dfc0016a22af5,16:56:12,27/03/2024
lmdlab-html-vas-response,22,45690,0.0-9.0-1.0,4917.0,How happy are you right now?,0.4513888888888889,delaylearn,learning,mood_trial,TV7i4jU8UfgMqWswG9MOFUaBrNa2,TV7i4jU8UfgMqWswG9MOFUaBrNa2,,,,,,,,,,,,,,,,,,,,"['Very unhappy', 'Very happy']",,5d4ada2fed2dfc0016a22af5,16:56:12,27/03/2024
html-keyboard-response,23,47734,0.0-10.0,,"<div style=""font-size:100px;"">+</div>",,delaylearn,learning,ITI,TV7i4jU8UfgMqWswG9MOFUaBrNa2,TV7i4jU8UfgMqWswG9MOFUaBrNa2,,,,,,,,,,,,,,,,,,,2038.0,,,5d4ada2fed2dfc0016a22af5,16:56:12,27/03/2024
html-keyboard-response,24,48809,0.0-11.0-0.0,1072.0,"<div style=""display: flex; flex-direction: column; align-items: center; margin-top: -40px;""><img src=""images/demo_images/pattern_1.png"" style=""width: 234px; height: 230px; margin-top: -50px;""><div style=""display: flex; justify-content: space-between; margin-top: 33px;""><img src=""images/demo_images/choice_trial_2.png"" style=""width: 408px; height: 417px; margin-right: 200px;""><img src=""images/demo_images/choice_trial_1.png"" style=""width: 408px; height: 417px;""></div></div>",j,delaylearn,learning,trial,TV7i4jU8UfgMqWswG9MOFUaBrNa2,TV7i4jU8UfgMqWswG9MOFUaBrNa2,4.0,images/demo_images/choice_trial_2.png,images/demo_images/choice_trial_1.png,images/demo_images/pattern_1.png,j,j,3000.0,2.0,1.0,20.0,1.0,5.0,1.0,1.0,1.0,30.0,,,,,,5d4ada2fed2dfc0016a22af5,16:56:12,27/03/2024
html-keyboard-response,25,49815,0.0-11.0-1.0,,"<div style=""display: flex; flex-direction: column; align-items: center; margin-top: -40px;""><img src=""images/demo_images/pattern_1.png"" style=""width: 234px; height: 230px; margin-top: -50px;""><div style=""display: flex; justify-content: space-between; margin-top: 33px;""><img src=""images/demo_images/choice_trial_1.png"" style=""width: 408px; height: 417px; margin-left:608px;""></div></div>",,delaylearn,learning,display_response,TV7i4jU8UfgMqWswG9MOFUaBrNa2,TV7i4jU8UfgMqWswG9MOFUaBrNa2,,,,,,,,,,,,,,,,,chosen stimuli: images/demo_images/choice_trial_1.png,,,,,5d4ada2fed2dfc0016a22af5,16:56:12,27/03/2024
html-keyboard-response,26,52827,0.0-11.0-2.0,,,,delaylearn,learning,feedback_duration_window,TV7i4jU8UfgMqWswG9MOFUaBrNa2,TV7i4jU8UfgMqWswG9MOFUaBrNa2,,,,,,,,,,,,,,,,,,3000.0,,,,5d4ada2fed2dfc0016a22af5,16:56:12,27/03/2024
html-keyboard-response,27,54351,0.0-11.0-3.0,,<div style='margin:auto;width: auto; font-size: 150%'><span style='font-weight: bold; font-size: 100px; color: green;'>+10 points!</span><br><br></div>,,delaylearn,learning,feedback_image_window,TV7i4jU8UfgMqWswG9MOFUaBrNa2,TV7i4jU8UfgMqWswG9MOFUaBrNa2,,,,,,,,,,,,,,,,,,,,,,5d4ada2fed2dfc0016a22af5,16:56:12,27/03/2024
html-keyboard-response,28,56714,0.0-12.0,,"<div style=""font-size:100px;"">+</div>",,delaylearn,learning,ITI,TV7i4jU8UfgMqWswG9MOFUaBrNa2,TV7i4jU8UfgMqWswG9MOFUaBrNa2,,,,,,,,,,,,,,,,,,,2347.0,,,5d4ada2fed2dfc0016a22af5,16:56:12,27/03/2024
html-keyboard-response,29,58271,0.0-13.0-0.0,1553.4000000059605,"<div style=""display: flex; flex-direction: column; align-items: center; margin-top: -40px;""><img src=""images/demo_images/pattern_1.png"" style=""width: 234px; height: 230px; margin-top: -50px;""><div style=""display: flex; justify-content: space-between; margin-top: 33px;""><img src=""images/demo_images/choice_trial_1.png"" style=""width: 408px; height: 417px; margin-right: 200px;""><img src=""images/demo_images/choice_trial_2.png"" style=""width: 408px; height: 417px;""></div></div>",f,delaylearn,learning,trial,TV7i4jU8UfgMqWswG9MOFUaBrNa2,TV7i4jU8UfgMqWswG9MOFUaBrNa2,4.0,images/demo_images/choice_trial_1.png,images/demo_images/choice_trial_2.png,images/demo_images/pattern_1.png,f,f,3000.0,1.0,2.0,20.0,0.0,6.0,1.0,1.0,1.0,40.0,,,,,,5d4ada2fed2dfc0016a22af5,16:56:12,27/03/2024
html-keyboard-response,30,59288,0.0-13.0-1.0,,"<div style=""display: flex; flex-direction: column; align-items: center; margin-top: -40px;""><img src=""images/demo_images/pattern_1.png"" style=""width: 234px; height: 230px; margin-top: -50px;""><div style=""display: flex; justify-content: space-between; margin-top: 33px;""><img src=""images/demo_images/choice_trial_1.png"" style=""width: 408px; height: 417px; margin-right: 608px;""></div></div>",,delaylearn,learning,display_response,TV7i4jU8UfgMqWswG9MOFUaBrNa2,TV7i4jU8UfgMqWswG9MOFUaBrNa2,,,,,,,,,,,,,,,,,chosen stimuli: images/demo_images/choice_trial_1.png,,,,,5d4ada2fed2dfc0016a22af5,16:56:12,27/03/2024
html-keyboard-response,31,62297,0.0-13.0-2.0,,,,delaylearn,learning,feedback_duration_window,TV7i4jU8UfgMqWswG9MOFUaBrNa2,TV7i4jU8UfgMqWswG9MOFUaBrNa2,,,,,,,,,,,,,,,,,,3000.0,,,,5d4ada2fed2dfc0016a22af5,16:56:12,27/03/2024
html-keyboard-response,32,63826,0.0-13.0-3.0,,<div style='margin:auto;width: auto; font-size: 150%'><span style='font-weight: bold; font-size: 100px; color: green;'>+10 points!</span><br><br></div>,,delaylearn,learning,feedback_image_window,TV7i4jU8UfgMqWswG9MOFUaBrNa2,TV7i4jU8UfgMqWswG9MOFUaBrNa2,,,,,,,,,,,,,,,,,,,,,,5d4ada2fed2dfc0016a22af5,16:56:12,27/03/2024
html-keyboard-response,33,66027,0.0-14.0,,"<div style=""font-size:100px;"">+</div>",,delaylearn,learning,ITI,TV7i4jU8UfgMqWswG9MOFUaBrNa2,TV7i4jU8UfgMqWswG9MOFUaBrNa2,,,,,,,,,,,,,,,,,,,2163.0,,,5d4ada2fed2dfc0016a22af5,16:56:12,27/03/2024
html-keyboard-response,34,67024,0.0-15.0-0.0,993.5999999940395,"<div style=""display: flex; flex-direction: column; align-items: center; margin-top: -40px;""><img src=""images/demo_images/pattern_1.png"" style=""width: 234px; height: 230px; margin-top: -50px;""><div style=""display: flex; justify-content: space-between; margin-top: 33px;""><img src=""images/demo_images/choice_trial_2.png"" style=""width: 408px; height: 417px; margin-right: 200px;""><img src=""images/demo_images/choice_trial_1.png"" style=""width: 408px; height: 417px;""></div></div>",j,delaylearn,learning,trial,TV7i4jU8UfgMqWswG9MOFUaBrNa2,TV7i4jU8UfgMqWswG9MOFUaBrNa2,4.0,images/demo_images/choice_trial_2.png,images/demo_images/choice_trial_1.png,images/demo_images/pattern_1.png,j,j,3000.0,2.0,1.0,20.0,1.0,7.0,1.0,1.0,1.0,50.0,,,,,,5d4ada2fed2dfc0016a22af5,16:56:12,27/03/2024
html-keyboard-response,35,68034,0.0-15.0-1.0,,"<div style=""display: flex; flex-direction: column; align-items: center; margin-top: -40px;""><img src=""images/demo_images/pattern_1.png"" style=""width: 234px; height: 230px; margin-top: -50px;""><div style=""display: flex; justify-content: space-between; margin-top: 33px;""><img src=""images/demo_images/choice_trial_1.png"" style=""width: 408px; height: 417px; margin-left:608px;""></div></div>",,delaylearn,learning,display_response,TV7i4jU8UfgMqWswG9MOFUaBrNa2,TV7i4jU8UfgMqWswG9MOFUaBrNa2,,,,,,,,,,,,,,,,,chosen stimuli: images/demo_images/choice_trial_1.png,,,,,5d4ada2fed2dfc0016a22af5,16:56:12,27/03/2024
html-keyboard-response,36,71045,0.0-15.0-2.0,,,,delaylearn,learning,feedback_duration_window,TV7i4jU8UfgMqWswG9MOFUaBrNa2,TV7i4jU8UfgMqWswG9MOFUaBrNa2,,,,,,,,,,,,,,,,,,3000.0,,,,5d4ada2fed2dfc0016a22af5,16:56:12,27/03/2024
html-keyboard-response,37,72564,0.0-15.0-3.0,,<div style='margin:auto;width: auto; font-size: 150%'><span style='font-weight: bold; font-size: 100px; color: green;'>+10 points!</span><br><br></div>,,delaylearn,learning,feedback_image_window,TV7i4jU8UfgMqWswG9MOFUaBrNa2,TV7i4jU8UfgMqWswG9MOFUaBrNa2,,,,,,,,,,,,,,,,,,,,,,5d4ada2fed2dfc0016a22af5,16:56:12,27/03/2024
html-keyboard-response,38,74754,0.0-16.0,,"<div style=""font-size:100px;"">+</div>",,delaylearn,learning,ITI,TV7i4jU8UfgMqWswG9MOFUaBrNa2,TV7i4jU8UfgMqWswG9MOFUaBrNa2,,,,,,,,,,,,,,,,,,,2176.0,,,5d4ada2fed2dfc0016a22af5,16:56:12,27/03/2024
html-keyboard-response,39,75771,0.0-17.0-0.0,1013.8000000119209,"<div style=""display: flex; flex-direction: column; align-items: center; margin-top: -40px;""><img src=""images/demo_images/pattern_1.png"" style=""width: 234px; height: 230px; margin-top: -50px;""><div style=""display: flex; justify-content: space-between; margin-top: 33px;""><img src=""images/demo_images/choice_trial_1.png"" style=""width: 408px; height: 417px; margin-right: 200px;""><img src=""images/demo_images/choice_trial_2.png"" style=""width: 408px; height: 417px;""></div></div>",f,delaylearn,learning,trial,TV7i4jU8UfgMqWswG9MOFUaBrNa2,TV7i4jU8UfgMqWswG9MOFUaBrNa2,4.0,images/demo_images/choice_trial_1.png,images/demo_images/choice_trial_2.png,images/demo_images/pattern_1.png,f,f,3000.0,1.0,2.0,20.0,0.0,8.0,1.0,1.0,1.0,60.0,,,,,,5d4ada2fed2dfc0016a22af5,16:56:12,27/03/2024
html-keyboard-response,40,76778,0.0-17.0-1.0,,"<div style=""display: flex; flex-direction: column; align-items: center; margin-top: -40px;""><img src=""images/demo_images/pattern_1.png"" style=""width: 234px; height: 230px; margin-top: -50px;""><div style=""display: flex; justify-content: space-between; margin-top: 33px;""><img src=""images/demo_images/choice_trial_1.png"" style=""width: 408px; height: 417px; margin-right: 608px;""></div></div>",,delaylearn,learning,display_response,TV7i4jU8UfgMqWswG9MOFUaBrNa2,TV7i4jU8UfgMqWswG9MOFUaBrNa2,,,,,,,,,,,,,,,,,chosen stimuli: images/demo_images/choice_trial_1.png,,,,,5d4ada2fed2dfc0016a22af5,16:56:12,27/03/2024
html-keyboard-response,41,79808,0.0-17.0-2.0,,,,delaylearn,learning,feedback_duration_window,TV7i4jU8UfgMqWswG9MOFUaBrNa2,TV7i4jU8UfgMqWswG9MOFUaBrNa2,,,,,,,,,,,,,,,,,,3000.0,,,,5d4ada2fed2dfc0016a22af5,16:56:12,27/03/2024
html-keyboard-response,42,81321,0.0-17.0-3.0,,<div style='margin:auto;width: auto; font-size: 150%'><span style='font-weight: bold; font-size: 100px; color: green;'>+10 points!</span><br><br></div>,,delaylearn,learning,feedback_image_window,TV7i4jU8UfgMqWswG9MOFUaBrNa2,TV7i4jU8UfgMqWswG9MOFUaBrNa2,,,,,,,,,,,,,,,,,,,,,,5d4ada2fed2dfc0016a22af5,16:56:12,27/03/2024
html-button-response,43,83936,0.0-18.0,2612.600000023842,"
  <div style=""display: flex; align-items: center; justify-content: center; height: 80vh;"">
  <div>
          <img src=""images/inst_demo_finish.png"" style=""width: 80vw; height:auto;"">
          <br><br>
      </div>
      <br><br>
  </div>",0,,,,TV7i4jU8UfgMqWswG9MOFUaBrNa2,,,,,,,,,,,,,,,,,,,,,,,5d4ada2fed2dfc0016a22af5,16:56:12,27/03/2024
html-keyboard-response,44,87486,0.0-19.0,3550.0,"
  <div style=""display: flex; align-items: center; justify-content: center; height: 80vh;"">
  <div>
          <img src=""images/inst_6.png"" style=""width: 80vw; height:auto;"">
          <br><br>
      </div>
      <br><br>
  </div>",j,,,,TV7i4jU8UfgMqWswG9MOFUaBrNa2,,,,,,,,,,,,,,,,,,,,,,,5d4ada2fed2dfc0016a22af5,16:56:12,27/03/2024
html-keyboard-response,45,90501,0.0-20.0,,"<div style=""font-size:100px;"">+</div>",,delaylearn,learning,pre_fixation,TV7i4jU8UfgMqWswG9MOFUaBrNa2,,,,,,,,,,,,,,,,,,,,,,,5d4ada2fed2dfc0016a22af5,16:56:12,27/03/2024
html-keyboard-response,46,92487,0.0-21.0,,"<div style=""font-size:100px;"">+</div>",,delaylearn,learning,ITI,TV7i4jU8UfgMqWswG9MOFUaBrNa2,TV7i4jU8UfgMqWswG9MOFUaBrNa2,,,,,,,,,,,,,,,,,,,1967.0,,,5d4ada2fed2dfc0016a22af5,16:56:12,27/03/2024
html-keyboard-response,47,93752,0.0-22.0-0.0,1261.800000011921,"<div style=""display: flex; flex-direction: column; align-items: center; margin-top: -40px;""><img src=""images/pattern_3.png"" style=""width: 234px; height: 230px; margin-top: -50px;""><div style=""display: flex; justify-content: space-between; margin-top: 33px;""><img src=""images/choice_trial_16.png"" style=""width: 408px; height: 417px; margin-right: 200px;""><img src=""images/choice_trial_6.png"" style=""width: 408px; height: 417px;""></div></div>",f,delaylearn,learning,trial,TV7i4jU8UfgMqWswG9MOFUaBrNa2,TV7i4jU8UfgMqWswG9MOFUaBrNa2,4.0,images/choice_trial_16.png,images/choice_trial_6.png,images/pattern_3.png,f,f,7000.0,16.0,6.0,2.0,0.0,9.0,1.0,1.0,16.0,70.0,,,,,,5d4ada2fed2dfc0016a22af5,16:56:12,27/03/2024
html-keyboard-response,48,94767,0.0-22.0-1.0,,"<div style=""display: flex; flex-direction: column; align-items: center; margin-top: -40px;""><img src=""images/pattern_3.png"" style=""width: 234px; height: 230px; margin-top: -50px;""><div style=""display: flex; justify-content: space-between; margin-top: 33px;""><img src=""images/choice_trial_16.png"" style=""width: 408px; height: 417px; margin-right: 608px;""></div></div>",,delaylearn,learning,display_response,TV7i4jU8UfgMqWswG9MOFUaBrNa2,TV7i4jU8UfgMqWswG9MOFUaBrNa2,,,,,,,,,,,,,,,,,chosen stimuli: images/choice_trial_16.png,,,,,5d4ada2fed2dfc0016a22af5,16:56:12,27/03/2024
html-keyboard-response,49,101784,0.0-22.0-2.0,,,,delaylearn,learning,feedback_duration_window,TV7i4jU8UfgMqWswG9MOFUaBrNa2,TV7i4jU8UfgMqWswG9MOFUaBrNa2,,,,,,,,,,,,,,,,,,7000.0,,,,5d4ada2fed2dfc0016a22af5,16:56:12,27/03/2024
html-keyboard-response,50,103307,0.0-22.0-3.0,,<div style='margin:auto;width: auto; font-size: 150%'><span style='font-weight: bold; font-size: 100px; color: green;'>+10 points!</span><br><br></div>,,delaylearn,learning,feedback_image_window,TV7i4jU8UfgMqWswG9MOFUaBrNa2,TV7i4jU8UfgMqWswG9MOFUaBrNa2,,,,,,,,,,,,,,,,,,,,,,5d4ada2fed2dfc0016a22af5,16:56:12,27/03/2024
html-keyboard-response,51,105204,0.0-23.0,,"<div style=""font-size:100px;"">+</div>",,delaylearn,learning,ITI,TV7i4jU8UfgMqWswG9MOFUaBrNa2,TV7i4jU8UfgMqWswG9MOFUaBrNa2,,,,,,,,,,,,,,,,,,,1859.0,,,5d4ada2fed2dfc0016a22af5,16:56:12,27/03/2024
html-keyboard-response,52,106991,0.0-24.0-0.0,1783.5999999940395,"<div style=""display: flex; flex-direction: column; align-items: center; margin-top: -40px;""><img src=""images/pattern_7.png"" style=""width: 234px; height: 230px; margin-top: -50px;""><div style=""display: flex; justify-content: space-between; margin-top: 33px;""><img src=""images/choice_trial_4.png"" style=""width: 408px; height: 417px; margin-right: 200px;""><img src=""images/choice_trial_13.png"" style=""width: 408px; height: 417px;""></div></div>",j,delaylearn,learning,trial,TV7i4jU8UfgMqWswG9MOFUaBrNa2,TV7i4jU8UfgMqWswG9MOFUaBrNa2,4.0,images/choice_trial_4.png,images/choice_trial_13.png,images/pattern_7.png,j,j,750.0,4.0,13.0,6.0,1.0,10.0,1.0,1.0,13.0,80.0,,,,,,5d4ada2fed2dfc0016a22af5,16:56:12,27/03/2024
html-keyboard-response,53,108000,0.0-24.0-1.0,,"<div style=""display: flex; flex-direction: column; align-items: center; margin-top: -40px;""><img src=""images/pattern_7.png"" style=""width: 234px; height: 230px; margin-top: -50px;""><div style=""display: flex; justify-content: space-between; margin-top: 33px;""><img src=""images/choice_trial_13.png"" style=""width: 408px; height: 417px; margin-left:608px;""></div></div>",,delaylearn,learning,display_response,TV7i4jU8UfgMqWswG9MOFUaBrNa2,TV7i4jU8UfgMqWswG9MOFUaBrNa2,,,,,,,,,,,,,,,,,chosen stimuli: images/choice_trial_13.png,,,,,5d4ada2fed2dfc0016a22af5,16:56:12,27/03/2024
html-keyboard-response,54,108753,0.0-24.0-2.0,,,,delaylearn,learning,feedback_duration_window,TV7i4jU8UfgMqWswG9MOFUaBrNa2,TV7i4jU8UfgMqWswG9MOFUaBrNa2,,,,,,,,,,,,,,,,,,750.0,,,,5d4ada2fed2dfc0016a22af5,16:56:12,27/03/2024
html-keyboard-response,55,110259,0.0-24.0-3.0,,<div style='margin:auto;width: auto; font-size: 150%'><span style='font-weight: bold; font-size: 100px; color: green;'>+10 points!</span><br><br></div>,,delaylearn,learning,feedback_image_window,TV7i4jU8UfgMqWswG9MOFUaBrNa2,TV7i4jU8UfgMqWswG9MOFUaBrNa2,,,,,,,,,,,,,,,,,,,,,,5d4ada2fed2dfc0016a22af5,16:56:12,27/03/2024
html-keyboard-response,56,112338,0.0-25.0,,"<div style=""font-size:100px;"">+</div>",,delaylearn,learning,ITI,TV7i4jU8UfgMqWswG9MOFUaBrNa2,TV7i4jU8UfgMqWswG9MOFUaBrNa2,,,,,,,,,,,,,,,,,,,2059.0,,,5d4ada2fed2dfc0016a22af5,16:56:12,27/03/2024
html-keyboard-response,57,114554,0.0-26.0-0.0,2214.5,"<div style=""display: flex; flex-direction: column; align-items: center; margin-top: -40px;""><img src=""images/pattern_4.png"" style=""width: 234px; height: 230px; margin-top: -50px;""><div style=""display: flex; justify-content: space-between; margin-top: 33px;""><img src=""images/choice_trial_8.png"" style=""width: 408px; height: 417px; margin-right: 200px;""><img src=""images/choice_trial_7.png"" style=""width: 408px; height: 417px;""></div></div>",j,delaylearn,learning,trial,TV7i4jU8UfgMqWswG9MOFUaBrNa2,TV7i4jU8UfgMqWswG9MOFUaBrNa2,4.0,images/choice_trial_8.png,images/choice_trial_7.png,images/pattern_4.png,f,f,7000.0,8.0,7.0,3.0,0.0,11.0,0.0,0.0,7.0,80.0,,,,,,5d4ada2fed2dfc0016a22af5,16:56:12,27/03/2024
html-keyboard-response,58,115561,0.0-26.0-1.0,,"<div style=""display: flex; flex-direction: column; align-items: center; margin-top: -40px;""><img src=""images/pattern_4.png"" style=""width: 234px; height: 230px; margin-top: -50px;""><div style=""display: flex; justify-content: space-between; margin-top: 33px;""><img src=""images/choice_trial_7.png"" style=""width: 408px; height: 417px; margin-left:608px;""></div></div>",,delaylearn,learning,display_response,TV7i4jU8UfgMqWswG9MOFUaBrNa2,TV7i4jU8UfgMqWswG9MOFUaBrNa2,,,,,,,,,,,,,,,,,chosen stimuli: images/choice_trial_7.png,,,,,5d4ada2fed2dfc0016a22af5,16:56:12,27/03/2024
html-keyboard-response,59,122594,0.0-26.0-2.0,,,,delaylearn,learning,feedback_duration_window,TV7i4jU8UfgMqWswG9MOFUaBrNa2,TV7i4jU8UfgMqWswG9MOFUaBrNa2,,,,,,,,,,,,,,,,,,7000.0,,,,5d4ada2fed2dfc0016a22af5,16:56:12,27/03/2024
html-keyboard-response,60,124129,0.0-26.0-3.0,,<div style='margin:auto;width: auto; font-size: 150%'><span style='font-weight: bold; font-size: 100px; color: red;'>0 points!</span><br><br></div>,,delaylearn,learning,feedback_image_window,TV7i4jU8UfgMqWswG9MOFUaBrNa2,TV7i4jU8UfgMqWswG9MOFUaBrNa2,,,,,,,,,,,,,,,,,,,,,,5d4ada2fed2dfc0016a22af5,16:56:12,27/03/2024
html-keyboard-response,61,126348,0.0-27.0,,"<div style=""font-size:100px;"">+</div>",,delaylearn,learning,ITI,TV7i4jU8UfgMqWswG9MOFUaBrNa2,TV7i4jU8UfgMqWswG9MOFUaBrNa2,,,,,,,,,,,,,,,,,,,2195.0,,,5d4ada2fed2dfc0016a22af5,16:56:12,27/03/2024
html-keyboard-response,62,129191,0.0-28.0-0.0,2839.300000011921,"<div style=""display: flex; flex-direction: column; align-items: center; margin-top: -40px;""><img src=""images/pattern_5.png"" style=""width: 234px; height: 230px; margin-top: -50px;""><div style=""display: flex; justify-content: space-between; margin-top: 33px;""><img src=""images/choice_trial_15.png"" style=""width: 408px; height: 417px; margin-right: 200px;""><img src=""images/choice_trial_5.png"" style=""width: 408px; height: 417px;""></div></div>",j,delaylearn,learning,trial,TV7i4jU8UfgMqWswG9MOFUaBrNa2,TV7i4jU8UfgMqWswG9MOFUaBrNa2,4.0,images/choice_trial_15.png,images/choice_trial_5.png,images/pattern_5.png,j,j,750.0,15.0,5.0,4.0,1.0,12.0,1.0,1.0,5.0,90.0,,,,,,5d4ada2fed2dfc0016a22af5,16:56:12,27/03/2024
html-keyboard-response,63,130205,0.0-28.0-1.0,,"<div style=""display: flex; flex-direction: column; align-items: center; margin-top: -40px;""><img src=""images/pattern_5.png"" style=""width: 234px; height: 230px; margin-top: -50px;""><div style=""display: flex; justify-content: space-between; margin-top: 33px;""><img src=""images/choice_trial_5.png"" style=""width: 408px; height: 417px; margin-left:608px;""></div></div>",,delaylearn,learning,display_response,TV7i4jU8UfgMqWswG9MOFUaBrNa2,TV7i4jU8UfgMqWswG9MOFUaBrNa2,,,,,,,,,,,,,,,,,chosen stimuli: images/choice_trial_5.png,,,,,5d4ada2fed2dfc0016a22af5,16:56:12,27/03/2024
html-keyboard-response,64,130970,0.0-28.0-2.0,,,,delaylearn,learning,feedback_duration_window,TV7i4jU8UfgMqWswG9MOFUaBrNa2,TV7i4jU8UfgMqWswG9MOFUaBrNa2,,,,,,,,,,,,,,,,,,750.0,,,,5d4ada2fed2dfc0016a22af5,16:56:12,27/03/2024
html-keyboard-response,65,132476,0.0-28.0-3.0,,<div style='margin:auto;width: auto; font-size: 150%'><span style='font-weight: bold; font-size: 100px; color: green;'>+10 points!</span><br><br></div>,,delaylearn,learning,feedback_image_window,TV7i4jU8UfgMqWswG9MOFUaBrNa2,TV7i4jU8UfgMqWswG9MOFUaBrNa2,,,,,,,,,,,,,,,,,,,,,,5d4ada2fed2dfc0016a22af5,16:56:12,27/03/2024
html-keyboard-response,66,134116,0.0-29.0,,"<div style=""font-size:100px;"">+</div>",,delaylearn,learning,ITI,TV7i4jU8UfgMqWswG9MOFUaBrNa2,TV7i4jU8UfgMqWswG9MOFUaBrNa2,,,,,,,,,,,,,,,,,,,1628.0,,,5d4ada2fed2dfc0016a22af5,16:56:12,27/03/2024
html-keyboard-response,67,135684,0.0-30.0-0.0,1565.2000000178814,"<div style=""display: flex; flex-direction: column; align-items: center; margin-top: -40px;""><img src=""images/pattern_6.png"" style=""width: 234px; height: 230px; margin-top: -50px;""><div style=""display: flex; justify-content: space-between; margin-top: 33px;""><img src=""images/choice_trial_10.png"" style=""width: 408px; height: 417px; margin-right: 200px;""><img src=""images/choice_trial_3.png"" style=""width: 408px; height: 417px;""></div></div>",f,delaylearn,learning,trial,TV7i4jU8UfgMqWswG9MOFUaBrNa2,TV7i4jU8UfgMqWswG9MOFUaBrNa2,4.0,images/choice_trial_10.png,images/choice_trial_3.png,images/pattern_6.png,j,f,750.0,10.0,3.0,5.0,0.0,13.0,1.0,0.0,10.0,90.0,,,,,,5d4ada2fed2dfc0016a22af5,16:56:12,27/03/2024
html-keyboard-response,68,136698,0.0-30.0-1.0,,"<div style=""display: flex; flex-direction: column; align-items: center; margin-top: -40px;""><img src=""images/pattern_6.png"" style=""width: 234px; height: 230px; margin-top: -50px;""><div style=""display: flex; justify-content: space-between; margin-top: 33px;""><img src=""images/choice_trial_10.png"" style=""width: 408px; height: 417px; margin-right: 608px;""></div></div>",,delaylearn,learning,display_response,TV7i4jU8UfgMqWswG9MOFUaBrNa2,TV7i4jU8UfgMqWswG9MOFUaBrNa2,,,,,,,,,,,,,,,,,chosen stimuli: images/choice_trial_10.png,,,,,5d4ada2fed2dfc0016a22af5,16:56:12,27/03/2024
html-keyboard-response,69,137456,0.0-30.0-2.0,,,,delaylearn,learning,feedback_duration_window,TV7i4jU8UfgMqWswG9MOFUaBrNa2,TV7i4jU8UfgMqWswG9MOFUaBrNa2,,,,,,,,,,,,,,,,,,750.0,,,,5d4ada2fed2dfc0016a22af5,16:56:12,27/03/2024
html-keyboard-response,70,138964,0.0-30.0-3.0,,<div style='margin:auto;width: auto; font-size: 150%'><span style='font-weight: bold; font-size: 100px; color: red;'>0 points!</span><br><br></div>,,delaylearn,learning,feedback_image_window,TV7i4jU8UfgMqWswG9MOFUaBrNa2,TV7i4jU8UfgMqWswG9MOFUaBrNa2,,,,,,,,,,,,,,,,,,,,,,5d4ada2fed2dfc0016a22af5,16:56:12,27/03/2024
html-keyboard-response,71,139473,0.0-31.0-0.0,,,,,,mood_trial_fixation,TV7i4jU8UfgMqWswG9MOFUaBrNa2,,,,,,,,,,,,,,,,,,,,,,,5d4ada2fed2dfc0016a22af5,16:56:12,27/03/2024
lmdlab-html-vas-response,72,144428,0.0-31.0-1.0,3950.0,How happy are you right now?,0.5138888888888888,delaylearn,learning,mood_trial,TV7i4jU8UfgMqWswG9MOFUaBrNa2,TV7i4jU8UfgMqWswG9MOFUaBrNa2,,,,,,,,,,,,,,,,,,,,"['Very unhappy', 'Very happy']",,5d4ada2fed2dfc0016a22af5,16:56:12,27/03/2024
html-keyboard-response,73,146798,0.0-32.0,,"<div style=""font-size:100px;"">+</div>",,delaylearn,learning,ITI,TV7i4jU8UfgMqWswG9MOFUaBrNa2,TV7i4jU8UfgMqWswG9MOFUaBrNa2,,,,,,,,,,,,,,,,,,,2356.0,,,5d4ada2fed2dfc0016a22af5,16:56:12,27/03/2024
html-keyboard-response,74,149018,0.0-33.0-0.0,2216.7000000178814,"<div style=""display: flex; flex-direction: column; align-items: center; margin-top: -40px;""><img src=""images/pattern_1.png"" style=""width: 234px; height: 230px; margin-top: -50px;""><div style=""display: flex; justify-content: space-between; margin-top: 33px;""><img src=""images/choice_trial_9.png"" style=""width: 408px; height: 417px; margin-right: 200px;""><img src=""images/choice_trial_1.png"" style=""width: 408px; height: 417px;""></div></div>",f,delaylearn,learning,trial,TV7i4jU8UfgMqWswG9MOFUaBrNa2,TV7i4jU8UfgMqWswG9MOFUaBrNa2,4.0,images/choice_trial_9.png,images/choice_trial_1.png,images/pattern_1.png,j,j,7000.0,9.0,1.0,1.0,1.0,14.0,0.0,0.0,9.0,90.0,,,,,,5d4ada2fed2dfc0016a22af5,16:56:12,27/03/2024
html-keyboard-response,75,150021,0.0-33.0-1.0,,"<div style=""display: flex; flex-direction: column; align-items: center; margin-top: -40px;""><img src=""images/pattern_1.png"" style=""width: 234px; height: 230px; margin-top: -50px;""><div style=""display: flex; justify-content: space-between; margin-top: 33px;""><img src=""images/choice_trial_9.png"" style=""width: 408px; height: 417px; margin-right: 608px;""></div></div>",,delaylearn,learning,display_response,TV7i4jU8UfgMqWswG9MOFUaBrNa2,TV7i4jU8UfgMqWswG9MOFUaBrNa2,,,,,,,,,,,,,,,,,chosen stimuli: images/choice_trial_9.png,,,,,5d4ada2fed2dfc0016a22af5,16:56:12,27/03/2024
html-keyboard-response,76,157048,0.0-33.0-2.0,,,,delaylearn,learning,feedback_duration_window,TV7i4jU8UfgMqWswG9MOFUaBrNa2,TV7i4jU8UfgMqWswG9MOFUaBrNa2,,,,,,,,,,,,,,,,,,7000.0,,,,5d4ada2fed2dfc0016a22af5,16:56:12,27/03/2024
html-keyboard-response,77,158570,0.0-33.0-3.0,,<div style='margin:auto;width: auto; font-size: 150%'><span style='font-weight: bold; font-size: 100px; color: red;'>0 points!</span><br><br></div>,,delaylearn,learning,feedback_image_window,TV7i4jU8UfgMqWswG9MOFUaBrNa2,TV7i4jU8UfgMqWswG9MOFUaBrNa2,,,,,,,,,,,,,,,,,,,,,,5d4ada2fed2dfc0016a22af5,16:56:12,27/03/2024
html-keyboard-response,78,160825,0.0-34.0,,"<div style=""font-size:100px;"">+</div>",,delaylearn,learning,ITI,TV7i4jU8UfgMqWswG9MOFUaBrNa2,TV7i4jU8UfgMqWswG9MOFUaBrNa2,,,,,,,,,,,,,,,,,,,2230.0,,,5d4ada2fed2dfc0016a22af5,16:56:12,27/03/2024
html-keyboard-response,79,162150,0.0-35.0-0.0,1322.199999988079,"<div style=""display: flex; flex-direction: column; align-items: center; margin-top: -40px;""><img src=""images/pattern_3.png"" style=""width: 234px; height: 230px; margin-top: -50px;""><div style=""display: flex; justify-content: space-between; margin-top: 33px;""><img src=""images/choice_trial_6.png"" style=""width: 408px; height: 417px; margin-right: 200px;""><img src=""images/choice_trial_16.png"" style=""width: 408px; height: 417px;""></div></div>",j,delaylearn,learning,trial,TV7i4jU8UfgMqWswG9MOFUaBrNa2,TV7i4jU8UfgMqWswG9MOFUaBrNa2,4.0,images/choice_trial_6.png,images/choice_trial_16.png,images/pattern_3.png,f,j,7000.0,6.0,16.0,2.0,1.0,15.0,1.0,0.0,16.0,90.0,,,,,,5d4ada2fed2dfc0016a22af5,16:56:12,27/03/2024
html-keyboard-response,80,163157,0.0-35.0-1.0,,"<div style=""display: flex; flex-direction: column; align-items: center; margin-top: -40px;""><img src=""images/pattern_3.png"" style=""width: 234px; height: 230px; margin-top: -50px;""><div style=""display: flex; justify-content: space-between; margin-top: 33px;""><img src=""images/choice_trial_16.png"" style=""width: 408px; height: 417px; margin-left:608px;""></div></div>",,delaylearn,learning,display_response,TV7i4jU8UfgMqWswG9MOFUaBrNa2,TV7i4jU8UfgMqWswG9MOFUaBrNa2,,,,,,,,,,,,,,,,,chosen stimuli: images/choice_trial_16.png,,,,,5d4ada2fed2dfc0016a22af5,16:56:12,27/03/2024
html-keyboard-response,81,170172,0.0-35.0-2.0,,,,delaylearn,learning,feedback_duration_window,TV7i4jU8UfgMqWswG9MOFUaBrNa2,TV7i4jU8UfgMqWswG9MOFUaBrNa2,,,,,,,,,,,,,,,,,,7000.0,,,,5d4ada2fed2dfc0016a22af5,16:56:12,27/03/2024
html-keyboard-response,82,171706,0.0-35.0-3.0,,<div style='margin:auto;width: auto; font-size: 150%'><span style='font-weight: bold; font-size: 100px; color: red;'>0 points!</span><br><br></div>,,delaylearn,learning,feedback_image_window,TV7i4jU8UfgMqWswG9MOFUaBrNa2,TV7i4jU8UfgMqWswG9MOFUaBrNa2,,,,,,,,,,,,,,,,,,,,,,5d4ada2fed2dfc0016a22af5,16:56:12,27/03/2024
html-keyboard-response,83,173307,0.0-36.0,,"<div style=""font-size:100px;"">+</div>",,delaylearn,learning,ITI,TV7i4jU8UfgMqWswG9MOFUaBrNa2,TV7i4jU8UfgMqWswG9MOFUaBrNa2,,,,,,,,,,,,,,,,,,,1583.0,,,5d4ada2fed2dfc0016a22af5,16:56:12,27/03/2024
html-keyboard-response,84,176324,0.0-37.0-0.0,,"<div style=""display: flex; flex-direction: column; align-items: center; margin-top: -40px;""><img src=""images/pattern_5.png"" style=""width: 234px; height: 230px; margin-top: -50px;""><div style=""display: flex; justify-content: space-between; margin-top: 33px;""><img src=""images/choice_trial_5.png"" style=""width: 408px; height: 417px; margin-right: 200px;""><img src=""images/choice_trial_15.png"" style=""width: 408px; height: 417px;""></div></div>",,delaylearn,learning,trial,TV7i4jU8UfgMqWswG9MOFUaBrNa2,TV7i4jU8UfgMqWswG9MOFUaBrNa2,4.0,images/choice_trial_5.png,images/choice_trial_15.png,images/pattern_5.png,f,f,750.0,5.0,15.0,4.0,0.0,16.0,0.0,0.0,0.0,90.0,,,,,,5d4ada2fed2dfc0016a22af5,16:56:12,27/03/2024
html-keyboard-response,85,177332,0.0-37.0-1.0,,<div style='font-weight: bold; font-size: 75px; color: red;'>Missed Trial <br><br><br><br> Please respond faster</div>,,delaylearn,learning,display_response,TV7i4jU8UfgMqWswG9MOFUaBrNa2,TV7i4jU8UfgMqWswG9MOFUaBrNa2,,,,,,,,,,,,,,,,,Missed trial,,,,,5d4ada2fed2dfc0016a22af5,16:56:12,27/03/2024
html-keyboard-response,86,177339,0.0-37.0-2.0,,,,delaylearn,learning,feedback_duration_window,TV7i4jU8UfgMqWswG9MOFUaBrNa2,TV7i4jU8UfgMqWswG9MOFUaBrNa2,,,,,,,,,,,,,,,,,,0.0,,,,5d4ada2fed2dfc0016a22af5,16:56:12,27/03/2024
html-keyboard-response,87,177348,0.0-37.0-3.0,,,,delaylearn,learning,feedback_image_window,TV7i4jU8UfgMqWswG9MOFUaBrNa2,TV7i4jU8UfgMqWswG9MOFUaBrNa2,,,,,,,,,,,,,,,,,,,,,,5d4ada2fed2dfc0016a22af5,16:56:12,27/03/2024
html-keyboard-response,88,177861,0.0-38.0-0.0,,,,,,mood_trial_fixation,TV7i4jU8UfgMqWswG9MOFUaBrNa2,,,,,,,,,,,,,,,,,,,,,,,5d4ada2fed2dfc0016a22af5,16:56:12,27/03/2024
lmdlab-html-vas-response,89,182382,0.0-38.0-1.0,3506.0,How happy are you right now?,0.3194444444444444,delaylearn,learning,mood_trial,TV7i4jU8UfgMqWswG9MOFUaBrNa2,TV7i4jU8UfgMqWswG9MOFUaBrNa2,,,,,,,,,,,,,,,,,,,,"['Very unhappy', 'Very happy']",,5d4ada2fed2dfc0016a22af5,16:56:12,27/03/2024
html-keyboard-response,90,184267,0.0-39.0,,"<div style=""font-size:100px;"">+</div>",,delaylearn,learning,ITI,TV7i4jU8UfgMqWswG9MOFUaBrNa2,TV7i4jU8UfgMqWswG9MOFUaBrNa2,,,,,,,,,,,,,,,,,,,1874.0,,,5d4ada2fed2dfc0016a22af5,16:56:12,27/03/2024
html-keyboard-response,91,185648,0.0-40.0-0.0,1377.4000000059605,"<div style=""display: flex; flex-direction: column; align-items: center; margin-top: -40px;""><img src=""images/pattern_6.png"" style=""width: 234px; height: 230px; margin-top: -50px;""><div style=""display: flex; justify-content: space-between; margin-top: 33px;""><img src=""images/choice_trial_10.png"" style=""width: 408px; height: 417px; margin-right: 200px;""><img src=""images/choice_trial_3.png"" style=""width: 408px; height: 417px;""></div></div>",j,delaylearn,learning,trial,TV7i4jU8UfgMqWswG9MOFUaBrNa2,TV7i4jU8UfgMqWswG9MOFUaBrNa2,4.0,images/choice_trial_10.png,images/choice_trial_3.png,images/pattern_6.png,f,f,750.0,10.0,3.0,5.0,0.0,17.0,0.0,0.0,3.0,90.0,,,,,,5d4ada2fed2dfc0016a22af5,16:56:12,27/03/2024
html-keyboard-response,92,186654,0.0-40.0-1.0,,"<div style=""display: flex; flex-direction: column; align-items: center; margin-top: -40px;""><img src=""images/pattern_6.png"" style=""width: 234px; height: 230px; margin-top: -50px;""><div style=""display: flex; justify-content: space-between; margin-top: 33px;""><img src=""images/choice_trial_3.png"" style=""width: 408px; height: 417px; margin-left:608px;""></div></div>",,delaylearn,learning,display_response,TV7i4jU8UfgMqWswG9MOFUaBrNa2,TV7i4jU8UfgMqWswG9MOFUaBrNa2,,,,,,,,,,,,,,,,,chosen stimuli: images/choice_trial_3.png,,,,,5d4ada2fed2dfc0016a22af5,16:56:12,27/03/2024
html-keyboard-response,93,187430,0.0-40.0-2.0,,,,delaylearn,learning,feedback_duration_window,TV7i4jU8UfgMqWswG9MOFUaBrNa2,TV7i4jU8UfgMqWswG9MOFUaBrNa2,,,,,,,,,,,,,,,,,,750.0,,,,5d4ada2fed2dfc0016a22af5,16:56:12,27/03/2024
html-keyboard-response,94,188954,0.0-40.0-3.0,,<div style='margin:auto;width: auto; font-size: 150%'><span style='font-weight: bold; font-size: 100px; color: red;'>0 points!</span><br><br></div>,,delaylearn,learning,feedback_image_window,TV7i4jU8UfgMqWswG9MOFUaBrNa2,TV7i4jU8UfgMqWswG9MOFUaBrNa2,,,,,,,,,,,,,,,,,,,,,,5d4ada2fed2dfc0016a22af5,16:56:12,27/03/2024
html-keyboard-response,95,190530,0.0-41.0,,"<div style=""font-size:100px;"">+</div>",,delaylearn,learning,ITI,TV7i4jU8UfgMqWswG9MOFUaBrNa2,TV7i4jU8UfgMqWswG9MOFUaBrNa2,,,,,,,,,,,,,,,,,,,1549.0,,,5d4ada2fed2dfc0016a22af5,16:56:12,27/03/2024
html-keyboard-response,96,191695,0.0-42.0-0.0,1161.199999988079,"<div style=""display: flex; flex-direction: column; align-items: center; margin-top: -40px;""><img src=""images/pattern_4.png"" style=""width: 234px; height: 230px; margin-top: -50px;""><div style=""display: flex; justify-content: space-between; margin-top: 33px;""><img src=""images/choice_trial_7.png"" style=""width: 408px; height: 417px; margin-right: 200px;""><img src=""images/choice_trial_8.png"" style=""width: 408px; height: 417px;""></div></div>",j,delaylearn,learning,trial,TV7i4jU8UfgMqWswG9MOFUaBrNa2,TV7i4jU8UfgMqWswG9MOFUaBrNa2,4.0,images/choice_trial_7.png,images/choice_trial_8.png,images/pattern_4.png,j,j,7000.0,7.0,8.0,3.0,1.0,18.0,1.0,1.0,8.0,100.0,,,,,,5d4ada2fed2dfc0016a22af5,16:56:12,27/03/2024
html-keyboard-response,97,192709,0.0-42.0-1.0,,"<div style=""display: flex; flex-direction: column; align-items: center; margin-top: -40px;""><img src=""images/pattern_4.png"" style=""width: 234px; height: 230px; margin-top: -50px;""><div style=""display: flex; justify-content: space-between; margin-top: 33px;""><img src=""images/choice_trial_8.png"" style=""width: 408px; height: 417px; margin-left:608px;""></div></div>",,delaylearn,learning,display_response,TV7i4jU8UfgMqWswG9MOFUaBrNa2,TV7i4jU8UfgMqWswG9MOFUaBrNa2,,,,,,,,,,,,,,,,,chosen stimuli: images/choice_trial_8.png,,,,,5d4ada2fed2dfc0016a22af5,16:56:12,27/03/2024
html-keyboard-response,98,199736,0.0-42.0-2.0,,,,delaylearn,learning,feedback_duration_window,TV7i4jU8UfgMqWswG9MOFUaBrNa2,TV7i4jU8UfgMqWswG9MOFUaBrNa2,,,,,,,,,,,,,,,,,,7000.0,,,,5d4ada2fed2dfc0016a22af5,16:56:12,27/03/2024
html-keyboard-response,99,201254,0.0-42.0-3.0,,<div style='margin:auto;width: auto; font-size: 150%'><span style='font-weight: bold; font-size: 100px; color: green;'>+10 points!</span><br><br></div>,,delaylearn,learning,feedback_image_window,TV7i4jU8UfgMqWswG9MOFUaBrNa2,TV7i4jU8UfgMqWswG9MOFUaBrNa2,,,,,,,,,,,,,,,,,,,,,,5d4ada2fed2dfc0016a22af5,16:56:12,27/03/2024
html-keyboard-response,100,203392,0.0-43.0,,"<div style=""font-size:100px;"">+</div>",,delaylearn,learning,ITI,TV7i4jU8UfgMqWswG9MOFUaBrNa2,TV7i4jU8UfgMqWswG9MOFUaBrNa2,,,,,,,,,,,,,,,,,,,2114.0,,,5d4ada2fed2dfc0016a22af5,16:56:12,27/03/2024
html-keyboard-response,101,206400,0.0-44.0-0.0,,"<div style=""display: flex; flex-direction: column; align-items: center; margin-top: -40px;""><img src=""images/pattern_7.png"" style=""width: 234px; height: 230px; margin-top: -50px;""><div style=""display: flex; justify-content: space-between; margin-top: 33px;""><img src=""images/choice_trial_13.png"" style=""width: 408px; height: 417px; margin-right: 200px;""><img src=""images/choice_trial_4.png"" style=""width: 408px; height: 417px;""></div></div>",,delaylearn,learning,trial,TV7i4jU8UfgMqWswG9MOFUaBrNa2,TV7i4jU8UfgMqWswG9MOFUaBrNa2,4.0,images/choice_trial_13.png,images/choice_trial_4.png,images/pattern_7.png,j,f,750.0,13.0,4.0,6.0,0.0,19.0,0.0,0.0,0.0,100.0,,,,,,5d4ada2fed2dfc0016a22af5,16:56:12,27/03/2024
html-keyboard-response,102,207416,0.0-44.0-1.0,,<div style='font-weight: bold; font-size: 75px; color: red;'>Missed Trial <br><br><br><br> Please respond faster</div>,,delaylearn,learning,display_response,TV7i4jU8UfgMqWswG9MOFUaBrNa2,TV7i4jU8UfgMqWswG9MOFUaBrNa2,,,,,,,,,,,,,,,,,Missed trial,,,,,5d4ada2fed2dfc0016a22af5,16:56:12,27/03/2024
html-keyboard-response,103,207423,0.0-44.0-2.0,,,,delaylearn,learning,feedback_duration_window,TV7i4jU8UfgMqWswG9MOFUaBrNa2,TV7i4jU8UfgMqWswG9MOFUaBrNa2,,,,,,,,,,,,,,,,,,0.0,,,,5d4ada2fed2dfc0016a22af5,16:56:12,27/03/2024
html-keyboard-response,104,207432,0.0-44.0-3.0,,,,delaylearn,learning,feedback_image_window,TV7i4jU8UfgMqWswG9MOFUaBrNa2,TV7i4jU8UfgMqWswG9MOFUaBrNa2,,,,,,,,,,,,,,,,,,,,,,5d4ada2fed2dfc0016a22af5,16:56:12,27/03/2024
html-keyboard-response,105,209162,0.0-45.0,,"<div style=""font-size:100px;"">+</div>",,delaylearn,learning,ITI,TV7i4jU8UfgMqWswG9MOFUaBrNa2,TV7i4jU8UfgMqWswG9MOFUaBrNa2,,,,,,,,,,,,,,,,,,,1714.0,,,5d4ada2fed2dfc0016a22af5,16:56:12,27/03/2024
html-keyboard-response,106,210598,0.0-46.0-0.0,1432.5999999940395,"<div style=""display: flex; flex-direction: column; align-items: center; margin-top: -40px;""><img src=""images/pattern_1.png"" style=""width: 234px; height: 230px; margin-top: -50px;""><div style=""display: flex; justify-content: space-between; margin-top: 33px;""><img src=""images/choice_trial_1.png"" style=""width: 408px; height: 417px; margin-right: 200px;""><img src=""images/choice_trial_9.png"" style=""width: 408px; height: 417px;""></div></div>",j,delaylearn,learning,trial,TV7i4jU8UfgMqWswG9MOFUaBrNa2,TV7i4jU8UfgMqWswG9MOFUaBrNa2,4.0,images/choice_trial_1.png,images/choice_trial_9.png,images/pattern_1.png,f,f,7000.0,1.0,9.0,1.0,0.0,20.0,0.0,0.0,9.0,100.0,,,,,,5d4ada2fed2dfc0016a22af5,16:56:12,27/03/2024
html-keyboard-response,107,211610,0.0-46.0-1.0,,"<div style=""display: flex; flex-direction: column; align-items: center; margin-top: -40px;""><img src=""images/pattern_1.png"" style=""width: 234px; height: 230px; margin-top: -50px;""><div style=""display: flex; justify-content: space-between; margin-top: 33px;""><img src=""images/choice_trial_9.png"" style=""width: 408px; height: 417px; margin-left:608px;""></div></div>",,delaylearn,learning,display_response,TV7i4jU8UfgMqWswG9MOFUaBrNa2,TV7i4jU8UfgMqWswG9MOFUaBrNa2,,,,,,,,,,,,,,,,,chosen stimuli: images/choice_trial_9.png,,,,,5d4ada2fed2dfc0016a22af5,16:56:12,27/03/2024
html-keyboard-response,108,218639,0.0-46.0-2.0,,,,delaylearn,learning,feedback_duration_window,TV7i4jU8UfgMqWswG9MOFUaBrNa2,TV7i4jU8UfgMqWswG9MOFUaBrNa2,,,,,,,,,,,,,,,,,,7000.0,,,,5d4ada2fed2dfc0016a22af5,16:56:12,27/03/2024
html-keyboard-response,109,220155,0.0-46.0-3.0,,<div style='margin:auto;width: auto; font-size: 150%'><span style='font-weight: bold; font-size: 100px; color: red;'>0 points!</span><br><br></div>,,delaylearn,learning,feedback_image_window,TV7i4jU8UfgMqWswG9MOFUaBrNa2,TV7i4jU8UfgMqWswG9MOFUaBrNa2,,,,,,,,,,,,,,,,,,,,,,5d4ada2fed2dfc0016a22af5,16:56:12,27/03/2024
html-keyboard-response,110,222051,0.0-47.0,,"<div style=""font-size:100px;"">+</div>",,delaylearn,learning,ITI,TV7i4jU8UfgMqWswG9MOFUaBrNa2,TV7i4jU8UfgMqWswG9MOFUaBrNa2,,,,,,,,,,,,,,,,,,,1859.0,,,5d4ada2fed2dfc0016a22af5,16:56:12,27/03/2024
html-keyboard-response,111,223082,0.0-48.0-0.0,1027.7999999821186,"<div style=""display: flex; flex-direction: column; align-items: center; margin-top: -40px;""><img src=""images/pattern_6.png"" style=""width: 234px; height: 230px; margin-top: -50px;""><div style=""display: flex; justify-content: space-between; margin-top: 33px;""><img src=""images/choice_trial_3.png"" style=""width: 408px; height: 417px; margin-right: 200px;""><img src=""images/choice_trial_10.png"" style=""width: 408px; height: 417px;""></div></div>",j,delaylearn,learning,trial,TV7i4jU8UfgMqWswG9MOFUaBrNa2,TV7i4jU8UfgMqWswG9MOFUaBrNa2,4.0,images/choice_trial_3.png,images/choice_trial_10.png,images/pattern_6.png,j,j,750.0,3.0,10.0,5.0,1.0,21.0,1.0,1.0,10.0,110.0,,,,,,5d4ada2fed2dfc0016a22af5,16:56:12,27/03/2024
html-keyboard-response,112,224088,0.0-48.0-1.0,,"<div style=""display: flex; flex-direction: column; align-items: center; margin-top: -40px;""><img src=""images/pattern_6.png"" style=""width: 234px; height: 230px; margin-top: -50px;""><div style=""display: flex; justify-content: space-between; margin-top: 33px;""><img src=""images/choice_trial_10.png"" style=""width: 408px; height: 417px; margin-left:608px;""></div></div>",,delaylearn,learning,display_response,TV7i4jU8UfgMqWswG9MOFUaBrNa2,TV7i4jU8UfgMqWswG9MOFUaBrNa2,,,,,,,,,,,,,,,,,chosen stimuli: images/choice_trial_10.png,,,,,5d4ada2fed2dfc0016a22af5,16:56:12,27/03/2024
html-keyboard-response,113,224847,0.0-48.0-2.0,,,,delaylearn,learning,feedback_duration_window,TV7i4jU8UfgMqWswG9MOFUaBrNa2,TV7i4jU8UfgMqWswG9MOFUaBrNa2,,,,,,,,,,,,,,,,,,750.0,,,,5d4ada2fed2dfc0016a22af5,16:56:12,27/03/2024
html-keyboard-response,114,226353,0.0-48.0-3.0,,<div style='margin:auto;width: auto; font-size: 150%'><span style='font-weight: bold; font-size: 100px; color: green;'>+10 points!</span><br><br></div>,,delaylearn,learning,feedback_image_window,TV7i4jU8UfgMqWswG9MOFUaBrNa2,TV7i4jU8UfgMqWswG9MOFUaBrNa2,,,,,,,,,,,,,,,,,,,,,,5d4ada2fed2dfc0016a22af5,16:56:12,27/03/2024
html-keyboard-response,115,228109,0.0-49.0,,"<div style=""font-size:100px;"">+</div>",,delaylearn,learning,ITI,TV7i4jU8UfgMqWswG9MOFUaBrNa2,TV7i4jU8UfgMqWswG9MOFUaBrNa2,,,,,,,,,,,,,,,,,,,1741.0,,,5d4ada2fed2dfc0016a22af5,16:56:12,27/03/2024
html-keyboard-response,116,229484,0.0-50.0-0.0,1371.9000000059605,"<div style=""display: flex; flex-direction: column; align-items: center; margin-top: -40px;""><img src=""images/pattern_4.png"" style=""width: 234px; height: 230px; margin-top: -50px;""><div style=""display: flex; justify-content: space-between; margin-top: 33px;""><img src=""images/choice_trial_8.png"" style=""width: 408px; height: 417px; margin-right: 200px;""><img src=""images/choice_trial_7.png"" style=""width: 408px; height: 417px;""></div></div>",j,delaylearn,learning,trial,TV7i4jU8UfgMqWswG9MOFUaBrNa2,TV7i4jU8UfgMqWswG9MOFUaBrNa2,4.0,images/choice_trial_8.png,images/choice_trial_7.png,images/pattern_4.png,f,f,7000.0,8.0,7.0,3.0,0.0,22.0,0.0,0.0,7.0,110.0,,,,,,5d4ada2fed2dfc0016a22af5,16:56:12,27/03/2024
html-keyboard-response,117,230504,0.0-50.0-1.0,,"<div style=""display: flex; flex-direction: column; align-items: center; margin-top: -40px;""><img src=""images/pattern_4.png"" style=""width: 234px; height: 230px; margin-top: -50px;""><div style=""display: flex; justify-content: space-between; margin-top: 33px;""><img src=""images/choice_trial_7.png"" style=""width: 408px; height: 417px; margin-left:608px;""></div></div>",,delaylearn,learning,display_response,TV7i4jU8UfgMqWswG9MOFUaBrNa2,TV7i4jU8UfgMqWswG9MOFUaBrNa2,,,,,,,,,,,,,,,,,chosen stimuli: images/choice_trial_7.png,,,,,5d4ada2fed2dfc0016a22af5,16:56:12,27/03/2024
html-keyboard-response,118,237530,0.0-50.0-2.0,,,,delaylearn,learning,feedback_duration_window,TV7i4jU8UfgMqWswG9MOFUaBrNa2,TV7i4jU8UfgMqWswG9MOFUaBrNa2,,,,,,,,,,,,,,,,,,7000.0,,,,5d4ada2fed2dfc0016a22af5,16:56:12,27/03/2024
html-keyboard-response,119,239052,0.0-50.0-3.0,,<div style='margin:auto;width: auto; font-size: 150%'><span style='font-weight: bold; font-size: 100px; color: red;'>0 points!</span><br><br></div>,,delaylearn,learning,feedback_image_window,TV7i4jU8UfgMqWswG9MOFUaBrNa2,TV7i4jU8UfgMqWswG9MOFUaBrNa2,,,,,,,,,,,,,,,,,,,,,,5d4ada2fed2dfc0016a22af5,16:56:12,27/03/2024
html-keyboard-response,120,239574,0.0-51.0-0.0,,,,,,mood_trial_fixation,TV7i4jU8UfgMqWswG9MOFUaBrNa2,,,,,,,,,,,,,,,,,,,,,,,5d4ada2fed2dfc0016a22af5,16:56:12,27/03/2024
lmdlab-html-vas-response,121,244977,0.0-51.0-1.0,4370.0,How happy are you right now?,0.4375,delaylearn,learning,mood_trial,TV7i4jU8UfgMqWswG9MOFUaBrNa2,TV7i4jU8UfgMqWswG9MOFUaBrNa2,,,,,,,,,,,,,,,,,,,,"['Very unhappy', 'Very happy']",,5d4ada2fed2dfc0016a22af5,16:56:12,27/03/2024
html-keyboard-response,122,247420,0.0-52.0,,"<div style=""font-size:100px;"">+</div>",,delaylearn,learning,ITI,TV7i4jU8UfgMqWswG9MOFUaBrNa2,TV7i4jU8UfgMqWswG9MOFUaBrNa2,,,,,,,,,,,,,,,,,,,2430.0,,,5d4ada2fed2dfc0016a22af5,16:56:12,27/03/2024
html-keyboard-response,123,248520,0.0-53.0-0.0,1098.4000000059605,"<div style=""display: flex; flex-direction: column; align-items: center; margin-top: -40px;""><img src=""images/pattern_7.png"" style=""width: 234px; height: 230px; margin-top: -50px;""><div style=""display: flex; justify-content: space-between; margin-top: 33px;""><img src=""images/choice_trial_4.png"" style=""width: 408px; height: 417px; margin-right: 200px;""><img src=""images/choice_trial_13.png"" style=""width: 408px; height: 417px;""></div></div>",j,delaylearn,learning,trial,TV7i4jU8UfgMqWswG9MOFUaBrNa2,TV7i4jU8UfgMqWswG9MOFUaBrNa2,4.0,images/choice_trial_4.png,images/choice_trial_13.png,images/pattern_7.png,j,j,750.0,4.0,13.0,6.0,1.0,23.0,1.0,1.0,13.0,120.0,,,,,,5d4ada2fed2dfc0016a22af5,16:56:12,27/03/2024
html-keyboard-response,124,249526,0.0-53.0-1.0,,"<div style=""display: flex; flex-direction: column; align-items: center; margin-top: -40px;""><img src=""images/pattern_7.png"" style=""width: 234px; height: 230px; margin-top: -50px;""><div style=""display: flex; justify-content: space-between; margin-top: 33px;""><img src=""images/choice_trial_13.png"" style=""width: 408px; height: 417px; margin-left:608px;""></div></div>",,delaylearn,learning,display_response,TV7i4jU8UfgMqWswG9MOFUaBrNa2,TV7i4jU8UfgMqWswG9MOFUaBrNa2,,,,,,,,,,,,,,,,,chosen stimuli: images/choice_trial_13.png,,,,,5d4ada2fed2dfc0016a22af5,16:56:12,27/03/2024
html-keyboard-response,125,250290,0.0-53.0-2.0,,,,delaylearn,learning,feedback_duration_window,TV7i4jU8UfgMqWswG9MOFUaBrNa2,TV7i4jU8UfgMqWswG9MOFUaBrNa2,,,,,,,,,,,,,,,,,,750.0,,,,5d4ada2fed2dfc0016a22af5,16:56:12,27/03/2024
html-keyboard-response,126,251796,0.0-53.0-3.0,,<div style='margin:auto;width: auto; font-size: 150%'><span style='font-weight: bold; font-size: 100px; color: green;'>+10 points!</span><br><br></div>,,delaylearn,learning,feedback_image_window,TV7i4jU8UfgMqWswG9MOFUaBrNa2,TV7i4jU8UfgMqWswG9MOFUaBrNa2,,,,,,,,,,,,,,,,,,,,,,5d4ada2fed2dfc0016a22af5,16:56:12,27/03/2024
html-keyboard-response,127,253705,0.0-54.0,,"<div style=""font-size:100px;"">+</div>",,delaylearn,learning,ITI,TV7i4jU8UfgMqWswG9MOFUaBrNa2,TV7i4jU8UfgMqWswG9MOFUaBrNa2,,,,,,,,,,,,,,,,,,,1885.0,,,5d4ada2fed2dfc0016a22af5,16:56:12,27/03/2024
html-keyboard-response,128,255719,0.0-55.0-0.0,2011.0999999940395,"<div style=""display: flex; flex-direction: column; align-items: center; margin-top: -40px;""><img src=""images/pattern_1.png"" style=""width: 234px; height: 230px; margin-top: -50px;""><div style=""display: flex; justify-content: space-between; margin-top: 33px;""><img src=""images/choice_trial_9.png"" style=""width: 408px; height: 417px; margin-right: 200px;""><img src=""images/choice_trial_1.png"" style=""width: 408px; height: 417px;""></div></div>",j,delaylearn,learning,trial,TV7i4jU8UfgMqWswG9MOFUaBrNa2,TV7i4jU8UfgMqWswG9MOFUaBrNa2,4.0,images/choice_trial_9.png,images/choice_trial_1.png,images/pattern_1.png,f,j,7000.0,9.0,1.0,1.0,1.0,24.0,1.0,0.0,1.0,120.0,,,,,,5d4ada2fed2dfc0016a22af5,16:56:12,27/03/2024
html-keyboard-response,129,256726,0.0-55.0-1.0,,"<div style=""display: flex; flex-direction: column; align-items: center; margin-top: -40px;""><img src=""images/pattern_1.png"" style=""width: 234px; height: 230px; margin-top: -50px;""><div style=""display: flex; justify-content: space-between; margin-top: 33px;""><img src=""images/choice_trial_1.png"" style=""width: 408px; height: 417px; margin-left:608px;""></div></div>",,delaylearn,learning,display_response,TV7i4jU8UfgMqWswG9MOFUaBrNa2,TV7i4jU8UfgMqWswG9MOFUaBrNa2,,,,,,,,,,,,,,,,,chosen stimuli: images/choice_trial_1.png,,,,,5d4ada2fed2dfc0016a22af5,16:56:12,27/03/2024
html-keyboard-response,130,263746,0.0-55.0-2.0,,,,delaylearn,learning,feedback_duration_window,TV7i4jU8UfgMqWswG9MOFUaBrNa2,TV7i4jU8UfgMqWswG9MOFUaBrNa2,,,,,,,,,,,,,,,,,,7000.0,,,,5d4ada2fed2dfc0016a22af5,16:56:12,27/03/2024
html-keyboard-response,131,265281,0.0-55.0-3.0,,<div style='margin:auto;width: auto; font-size: 150%'><span style='font-weight: bold; font-size: 100px; color: red;'>0 points!</span><br><br></div>,,delaylearn,learning,feedback_image_window,TV7i4jU8UfgMqWswG9MOFUaBrNa2,TV7i4jU8UfgMqWswG9MOFUaBrNa2,,,,,,,,,,,,,,,,,,,,,,5d4ada2fed2dfc0016a22af5,16:56:12,27/03/2024
html-keyboard-response,132,267296,0.0-56.0,,"<div style=""font-size:100px;"">+</div>",,delaylearn,learning,ITI,TV7i4jU8UfgMqWswG9MOFUaBrNa2,TV7i4jU8UfgMqWswG9MOFUaBrNa2,,,,,,,,,,,,,,,,,,,1977.0,,,5d4ada2fed2dfc0016a22af5,16:56:12,27/03/2024
html-keyboard-response,133,269018,0.0-57.0-0.0,1719.0999999940395,"<div style=""display: flex; flex-direction: column; align-items: center; margin-top: -40px;""><img src=""images/pattern_5.png"" style=""width: 234px; height: 230px; margin-top: -50px;""><div style=""display: flex; justify-content: space-between; margin-top: 33px;""><img src=""images/choice_trial_15.png"" style=""width: 408px; height: 417px; margin-right: 200px;""><img src=""images/choice_trial_5.png"" style=""width: 408px; height: 417px;""></div></div>",f,delaylearn,learning,trial,TV7i4jU8UfgMqWswG9MOFUaBrNa2,TV7i4jU8UfgMqWswG9MOFUaBrNa2,4.0,images/choice_trial_15.png,images/choice_trial_5.png,images/pattern_5.png,j,j,750.0,15.0,5.0,4.0,1.0,25.0,0.0,0.0,15.0,120.0,,,,,,5d4ada2fed2dfc0016a22af5,16:56:12,27/03/2024
html-keyboard-response,134,270029,0.0-57.0-1.0,,"<div style=""display: flex; flex-direction: column; align-items: center; margin-top: -40px;""><img src=""images/pattern_5.png"" style=""width: 234px; height: 230px; margin-top: -50px;""><div style=""display: flex; justify-content: space-between; margin-top: 33px;""><img src=""images/choice_trial_15.png"" style=""width: 408px; height: 417px; margin-right: 608px;""></div></div>",,delaylearn,learning,display_response,TV7i4jU8UfgMqWswG9MOFUaBrNa2,TV7i4jU8UfgMqWswG9MOFUaBrNa2,,,,,,,,,,,,,,,,,chosen stimuli: images/choice_trial_15.png,,,,,5d4ada2fed2dfc0016a22af5,16:56:12,27/03/2024
html-keyboard-response,135,270795,0.0-57.0-2.0,,,,delaylearn,learning,feedback_duration_window,TV7i4jU8UfgMqWswG9MOFUaBrNa2,TV7i4jU8UfgMqWswG9MOFUaBrNa2,,,,,,,,,,,,,,,,,,750.0,,,,5d4ada2fed2dfc0016a22af5,16:56:12,27/03/2024
html-keyboard-response,136,272315,0.0-57.0-3.0,,<div style='margin:auto;width: auto; font-size: 150%'><span style='font-weight: bold; font-size: 100px; color: red;'>0 points!</span><br><br></div>,,delaylearn,learning,feedback_image_window,TV7i4jU8UfgMqWswG9MOFUaBrNa2,TV7i4jU8UfgMqWswG9MOFUaBrNa2,,,,,,,,,,,,,,,,,,,,,,5d4ada2fed2dfc0016a22af5,16:56:12,27/03/2024
html-keyboard-response,137,274251,0.0-58.0,,"<div style=""font-size:100px;"">+</div>",,delaylearn,learning,ITI,TV7i4jU8UfgMqWswG9MOFUaBrNa2,TV7i4jU8UfgMqWswG9MOFUaBrNa2,,,,,,,,,,,,,,,,,,,1904.0,,,5d4ada2fed2dfc0016a22af5,16:56:12,27/03/2024
html-keyboard-response,138,275373,0.0-59.0-0.0,1118.2000000178814,"<div style=""display: flex; flex-direction: column; align-items: center; margin-top: -40px;""><img src=""images/pattern_3.png"" style=""width: 234px; height: 230px; margin-top: -50px;""><div style=""display: flex; justify-content: space-between; margin-top: 33px;""><img src=""images/choice_trial_6.png"" style=""width: 408px; height: 417px; margin-right: 200px;""><img src=""images/choice_trial_16.png"" style=""width: 408px; height: 417px;""></div></div>",j,delaylearn,learning,trial,TV7i4jU8UfgMqWswG9MOFUaBrNa2,TV7i4jU8UfgMqWswG9MOFUaBrNa2,4.0,images/choice_trial_6.png,images/choice_trial_16.png,images/pattern_3.png,j,j,7000.0,6.0,16.0,2.0,1.0,26.0,1.0,1.0,16.0,130.0,,,,,,5d4ada2fed2dfc0016a22af5,16:56:12,27/03/2024
html-keyboard-response,139,276391,0.0-59.0-1.0,,"<div style=""display: flex; flex-direction: column; align-items: center; margin-top: -40px;""><img src=""images/pattern_3.png"" style=""width: 234px; height: 230px; margin-top: -50px;""><div style=""display: flex; justify-content: space-between; margin-top: 33px;""><img src=""images/choice_trial_16.png"" style=""width: 408px; height: 417px; margin-left:608px;""></div></div>",,delaylearn,learning,display_response,TV7i4jU8UfgMqWswG9MOFUaBrNa2,TV7i4jU8UfgMqWswG9MOFUaBrNa2,,,,,,,,,,,,,,,,,chosen stimuli: images/choice_trial_16.png,,,,,5d4ada2fed2dfc0016a22af5,16:56:12,27/03/2024
html-keyboard-response,140,283398,0.0-59.0-2.0,,,,delaylearn,learning,feedback_duration_window,TV7i4jU8UfgMqWswG9MOFUaBrNa2,TV7i4jU8UfgMqWswG9MOFUaBrNa2,,,,,,,,,,,,,,,,,,7000.0,,,,5d4ada2fed2dfc0016a22af5,16:56:12,27/03/2024
html-keyboard-response,141,284936,0.0-59.0-3.0,,<div style='margin:auto;width: auto; font-size: 150%'><span style='font-weight: bold; font-size: 100px; color: green;'>+10 points!</span><br><br></div>,,delaylearn,learning,feedback_image_window,TV7i4jU8UfgMqWswG9MOFUaBrNa2,TV7i4jU8UfgMqWswG9MOFUaBrNa2,,,,,,,,,,,,,,,,,,,,,,5d4ada2fed2dfc0016a22af5,16:56:12,27/03/2024
lmdlab-html-vas-response,142,291141,0.0-60.0-0.0,4687.0,*How <b><u>confident</u></b> are you feeling about your answers at this moment?*,0.4722222222222222,rewlearn,rate_confidence,,TV7i4jU8UfgMqWswG9MOFUaBrNa2,TV7i4jU8UfgMqWswG9MOFUaBrNa2,,,,,,,,,,,,,,,,,,,,"['No confidence', 'Complete confidence']",,5d4ada2fed2dfc0016a22af5,16:56:12,27/03/2024
lmdlab-rest-trial-limit,143,297919,0.0-60.0-1.0,5268.200000017881,"<div style=""font-size:40px;""><b>Please take a break!</b><br><br><br><br><p>Great work: you earned 130 points.<br><br><br><p>You have completed part(s) 1 of 5.<br><br><br><br>When you are ready to continue<br><br><br>please click the button.</p><br><br>",0,delaylearn,learning,break,TV7i4jU8UfgMqWswG9MOFUaBrNa2,TV7i4jU8UfgMqWswG9MOFUaBrNa2,,,,,,,,,,,,,,,,,,,,,0.0,5d4ada2fed2dfc0016a22af5,16:56:12,27/03/2024
html-keyboard-response,144,300933,0.0-60.0-2.0,,"<div style=""font-size:100px;"">+</div>",,delaylearn,learning,pre_fixation,TV7i4jU8UfgMqWswG9MOFUaBrNa2,,,,,,,,,,,,,,,,,,,,,,,5d4ada2fed2dfc0016a22af5,16:56:12,27/03/2024
lmdlab-html-vas-response,145,307671,0.0-60.0-3.0-0.0,5691.0,How happy are you right now?,0.3958333333333333,delaylearn,learning,mood_baseline,TV7i4jU8UfgMqWswG9MOFUaBrNa2,TV7i4jU8UfgMqWswG9MOFUaBrNa2,,,,,,,,,,,,,,,,,,,,"['Very unhappy', 'Very happy']",,5d4ada2fed2dfc0016a22af5,16:56:12,27/03/2024
html-keyboard-response,146,309174,0.0-60.0-3.0-1.0,,,,,,mood_baseline_fixation,TV7i4jU8UfgMqWswG9MOFUaBrNa2,,,,,,,,,,,,,,,,,,,,,,,5d4ada2fed2dfc0016a22af5,16:56:12,27/03/2024
html-keyboard-response,147,311665,0.0-61.0,,"<div style=""font-size:100px;"">+</div>",,delaylearn,learning,ITI,TV7i4jU8UfgMqWswG9MOFUaBrNa2,TV7i4jU8UfgMqWswG9MOFUaBrNa2,,,,,,,,,,,,,,,,,,,2469.0,,,5d4ada2fed2dfc0016a22af5,16:56:12,27/03/2024
html-keyboard-response,148,312690,0.0-62.0-0.0,1020.8000000119209,"<div style=""display: flex; flex-direction: column; align-items: center; margin-top: -40px;""><img src=""images/pattern_7.png"" style=""width: 234px; height: 230px; margin-top: -50px;""><div style=""display: flex; justify-content: space-between; margin-top: 33px;""><img src=""images/choice_trial_4.png"" style=""width: 408px; height: 417px; margin-right: 200px;""><img src=""images/choice_trial_13.png"" style=""width: 408px; height: 417px;""></div></div>",j,delaylearn,learning,trial,TV7i4jU8UfgMqWswG9MOFUaBrNa2,TV7i4jU8UfgMqWswG9MOFUaBrNa2,4.0,images/choice_trial_4.png,images/choice_trial_13.png,images/pattern_7.png,j,j,750.0,4.0,13.0,6.0,1.0,27.0,1.0,1.0,13.0,140.0,,,,,,5d4ada2fed2dfc0016a22af5,16:56:12,27/03/2024
html-keyboard-response,149,313698,0.0-62.0-1.0,,"<div style=""display: flex; flex-direction: column; align-items: center; margin-top: -40px;""><img src=""images/pattern_7.png"" style=""width: 234px; height: 230px; margin-top: -50px;""><div style=""display: flex; justify-content: space-between; margin-top: 33px;""><img src=""images/choice_trial_13.png"" style=""width: 408px; height: 417px; margin-left:608px;""></div></div>",,delaylearn,learning,display_response,TV7i4jU8UfgMqWswG9MOFUaBrNa2,TV7i4jU8UfgMqWswG9MOFUaBrNa2,,,,,,,,,,,,,,,,,chosen stimuli: images/choice_trial_13.png,,,,,5d4ada2fed2dfc0016a22af5,16:56:12,27/03/2024
html-keyboard-response,150,314461,0.0-62.0-2.0,,,,delaylearn,learning,feedback_duration_window,TV7i4jU8UfgMqWswG9MOFUaBrNa2,TV7i4jU8UfgMqWswG9MOFUaBrNa2,,,,,,,,,,,,,,,,,,750.0,,,,5d4ada2fed2dfc0016a22af5,16:56:12,27/03/2024
html-keyboard-response,151,315966,0.0-62.0-3.0,,<div style='margin:auto;width: auto; font-size: 150%'><span style='font-weight: bold; font-size: 100px; color: green;'>+10 points!</span><br><br></div>,,delaylearn,learning,feedback_image_window,TV7i4jU8UfgMqWswG9MOFUaBrNa2,TV7i4jU8UfgMqWswG9MOFUaBrNa2,,,,,,,,,,,,,,,,,,,,,,5d4ada2fed2dfc0016a22af5,16:56:12,27/03/2024
html-keyboard-response,152,316481,0.0-63.0-0.0,,,,,,mood_trial_fixation,TV7i4jU8UfgMqWswG9MOFUaBrNa2,,,,,,,,,,,,,,,,,,,,,,,5d4ada2fed2dfc0016a22af5,16:56:12,27/03/2024
lmdlab-html-vas-response,153,323606,0.0-63.0-1.0,6111.0,How happy are you right now?,0.5277777777777778,delaylearn,learning,mood_trial,TV7i4jU8UfgMqWswG9MOFUaBrNa2,TV7i4jU8UfgMqWswG9MOFUaBrNa2,,,,,,,,,,,,,,,,,,,,"['Very unhappy', 'Very happy']",,5d4ada2fed2dfc0016a22af5,16:56:12,27/03/2024
html-keyboard-response,154,326091,0.0-64.0,,"<div style=""font-size:100px;"">+</div>",,delaylearn,learning,ITI,TV7i4jU8UfgMqWswG9MOFUaBrNa2,TV7i4jU8UfgMqWswG9MOFUaBrNa2,,,,,,,,,,,,,,,,,,,2471.0,,,5d4ada2fed2dfc0016a22af5,16:56:12,27/03/2024
html-keyboard-response,155,327254,0.0-65.0-0.0,1159.4000000059605,"<div style=""display: flex; flex-direction: column; align-items: center; margin-top: -40px;""><img src=""images/pattern_1.png"" style=""width: 234px; height: 230px; margin-top: -50px;""><div style=""display: flex; justify-content: space-between; margin-top: 33px;""><img src=""images/choice_trial_1.png"" style=""width: 408px; height: 417px; margin-right: 200px;""><img src=""images/choice_trial_9.png"" style=""width: 408px; height: 417px;""></div></div>",j,delaylearn,learning,trial,TV7i4jU8UfgMqWswG9MOFUaBrNa2,TV7i4jU8UfgMqWswG9MOFUaBrNa2,4.0,images/choice_trial_1.png,images/choice_trial_9.png,images/pattern_1.png,f,f,7000.0,1.0,9.0,1.0,0.0,28.0,0.0,0.0,9.0,140.0,,,,,,5d4ada2fed2dfc0016a22af5,16:56:12,27/03/2024
html-keyboard-response,156,328266,0.0-65.0-1.0,,"<div style=""display: flex; flex-direction: column; align-items: center; margin-top: -40px;""><img src=""images/pattern_1.png"" style=""width: 234px; height: 230px; margin-top: -50px;""><div style=""display: flex; justify-content: space-between; margin-top: 33px;""><img src=""images/choice_trial_9.png"" style=""width: 408px; height: 417px; margin-left:608px;""></div></div>",,delaylearn,learning,display_response,TV7i4jU8UfgMqWswG9MOFUaBrNa2,TV7i4jU8UfgMqWswG9MOFUaBrNa2,,,,,,,,,,,,,,,,,chosen stimuli: images/choice_trial_9.png,,,,,5d4ada2fed2dfc0016a22af5,16:56:12,27/03/2024
html-keyboard-response,157,335295,0.0-65.0-2.0,,,,delaylearn,learning,feedback_duration_window,TV7i4jU8UfgMqWswG9MOFUaBrNa2,TV7i4jU8UfgMqWswG9MOFUaBrNa2,,,,,,,,,,,,,,,,,,7000.0,,,,5d4ada2fed2dfc0016a22af5,16:56:12,27/03/2024
html-keyboard-response,158,336835,0.0-65.0-3.0,,<div style='margin:auto;width: auto; font-size: 150%'><span style='font-weight: bold; font-size: 100px; color: red;'>0 points!</span><br><br></div>,,delaylearn,learning,feedback_image_window,TV7i4jU8UfgMqWswG9MOFUaBrNa2,TV7i4jU8UfgMqWswG9MOFUaBrNa2,,,,,,,,,,,,,,,,,,,,,,5d4ada2fed2dfc0016a22af5,16:56:12,27/03/2024
html-keyboard-response,159,338654,0.0-66.0,,"<div style=""font-size:100px;"">+</div>",,delaylearn,learning,ITI,TV7i4jU8UfgMqWswG9MOFUaBrNa2,TV7i4jU8UfgMqWswG9MOFUaBrNa2,,,,,,,,,,,,,,,,,,,1810.0,,,5d4ada2fed2dfc0016a22af5,16:56:12,27/03/2024
html-keyboard-response,160,340793,0.0-67.0-0.0,2135.9000000059605,"<div style=""display: flex; flex-direction: column; align-items: center; margin-top: -40px;""><img src=""images/pattern_5.png"" style=""width: 234px; height: 230px; margin-top: -50px;""><div style=""display: flex; justify-content: space-between; margin-top: 33px;""><img src=""images/choice_trial_5.png"" style=""width: 408px; height: 417px; margin-right: 200px;""><img src=""images/choice_trial_15.png"" style=""width: 408px; height: 417px;""></div></div>",f,delaylearn,learning,trial,TV7i4jU8UfgMqWswG9MOFUaBrNa2,TV7i4jU8UfgMqWswG9MOFUaBrNa2,4.0,images/choice_trial_5.png,images/choice_trial_15.png,images/pattern_5.png,f,f,750.0,5.0,15.0,4.0,0.0,29.0,1.0,1.0,5.0,150.0,,,,,,5d4ada2fed2dfc0016a22af5,16:56:12,27/03/2024
html-keyboard-response,161,341808,0.0-67.0-1.0,,"<div style=""display: flex; flex-direction: column; align-items: center; margin-top: -40px;""><img src=""images/pattern_5.png"" style=""width: 234px; height: 230px; margin-top: -50px;""><div style=""display: flex; justify-content: space-between; margin-top: 33px;""><img src=""images/choice_trial_5.png"" style=""width: 408px; height: 417px; margin-right: 608px;""></div></div>",,delaylearn,learning,display_response,TV7i4jU8UfgMqWswG9MOFUaBrNa2,TV7i4jU8UfgMqWswG9MOFUaBrNa2,,,,,,,,,,,,,,,,,chosen stimuli: images/choice_trial_5.png,,,,,5d4ada2fed2dfc0016a22af5,16:56:12,27/03/2024
html-keyboard-response,162,342570,0.0-67.0-2.0,,,,delaylearn,learning,feedback_duration_window,TV7i4jU8UfgMqWswG9MOFUaBrNa2,TV7i4jU8UfgMqWswG9MOFUaBrNa2,,,,,,,,,,,,,,,,,,750.0,,,,5d4ada2fed2dfc0016a22af5,16:56:12,27/03/2024
html-keyboard-response,163,344079,0.0-67.0-3.0,,<div style='margin:auto;width: auto; font-size: 150%'><span style='font-weight: bold; font-size: 100px; color: green;'>+10 points!</span><br><br></div>,,delaylearn,learning,feedback_image_window,TV7i4jU8UfgMqWswG9MOFUaBrNa2,TV7i4jU8UfgMqWswG9MOFUaBrNa2,,,,,,,,,,,,,,,,,,,,,,5d4ada2fed2dfc0016a22af5,16:56:12,27/03/2024
html-keyboard-response,164,346038,0.0-68.0,,"<div style=""font-size:100px;"">+</div>",,delaylearn,learning,ITI,TV7i4jU8UfgMqWswG9MOFUaBrNa2,TV7i4jU8UfgMqWswG9MOFUaBrNa2,,,,,,,,,,,,,,,,,,,1931.0,,,5d4ada2fed2dfc0016a22af5,16:56:12,27/03/2024
html-keyboard-response,165,347063,0.0-69.0-0.0,1021.0999999940395,"<div style=""display: flex; flex-direction: column; align-items: center; margin-top: -40px;""><img src=""images/pattern_6.png"" style=""width: 234px; height: 230px; margin-top: -50px;""><div style=""display: flex; justify-content: space-between; margin-top: 33px;""><img src=""images/choice_trial_3.png"" style=""width: 408px; height: 417px; margin-right: 200px;""><img src=""images/choice_trial_10.png"" style=""width: 408px; height: 417px;""></div></div>",j,delaylearn,learning,trial,TV7i4jU8UfgMqWswG9MOFUaBrNa2,TV7i4jU8UfgMqWswG9MOFUaBrNa2,4.0,images/choice_trial_3.png,images/choice_trial_10.png,images/pattern_6.png,j,j,750.0,3.0,10.0,5.0,1.0,30.0,1.0,1.0,10.0,160.0,,,,,,5d4ada2fed2dfc0016a22af5,16:56:12,27/03/2024
html-keyboard-response,166,348074,0.0-69.0-1.0,,"<div style=""display: flex; flex-direction: column; align-items: center; margin-top: -40px;""><img src=""images/pattern_6.png"" style=""width: 234px; height: 230px; margin-top: -50px;""><div style=""display: flex; justify-content: space-between; margin-top: 33px;""><img src=""images/choice_trial_10.png"" style=""width: 408px; height: 417px; margin-left:608px;""></div></div>",,delaylearn,learning,display_response,TV7i4jU8UfgMqWswG9MOFUaBrNa2,TV7i4jU8UfgMqWswG9MOFUaBrNa2,,,,,,,,,,,,,,,,,chosen stimuli: images/choice_trial_10.png,,,,,5d4ada2fed2dfc0016a22af5,16:56:12,27/03/2024
html-keyboard-response,167,348829,0.0-69.0-2.0,,,,delaylearn,learning,feedback_duration_window,TV7i4jU8UfgMqWswG9MOFUaBrNa2,TV7i4jU8UfgMqWswG9MOFUaBrNa2,,,,,,,,,,,,,,,,,,750.0,,,,5d4ada2fed2dfc0016a22af5,16:56:12,27/03/2024
html-keyboard-response,168,350343,0.0-69.0-3.0,,<div style='margin:auto;width: auto; font-size: 150%'><span style='font-weight: bold; font-size: 100px; color: green;'>+10 points!</span><br><br></div>,,delaylearn,learning,feedback_image_window,TV7i4jU8UfgMqWswG9MOFUaBrNa2,TV7i4jU8UfgMqWswG9MOFUaBrNa2,,,,,,,,,,,,,,,,,,,,,,5d4ada2fed2dfc0016a22af5,16:56:12,27/03/2024
html-keyboard-response,169,350856,0.0-70.0-0.0,,,,,,mood_trial_fixation,TV7i4jU8UfgMqWswG9MOFUaBrNa2,,,,,,,,,,,,,,,,,,,,,,,5d4ada2fed2dfc0016a22af5,16:56:12,27/03/2024
lmdlab-html-vas-response,170,355430,0.0-70.0-1.0,3560.0,How happy are you right now?,0.5023148148148148,delaylearn,learning,mood_trial,TV7i4jU8UfgMqWswG9MOFUaBrNa2,TV7i4jU8UfgMqWswG9MOFUaBrNa2,,,,,,,,,,,,,,,,,,,,"['Very unhappy', 'Very happy']",,5d4ada2fed2dfc0016a22af5,16:56:12,27/03/2024
html-keyboard-response,171,357014,0.0-71.0,,"<div style=""font-size:100px;"">+</div>",,delaylearn,learning,ITI,TV7i4jU8UfgMqWswG9MOFUaBrNa2,TV7i4jU8UfgMqWswG9MOFUaBrNa2,,,,,,,,,,,,,,,,,,,1575.0,,,5d4ada2fed2dfc0016a22af5,16:56:12,27/03/2024
html-keyboard-response,172,358205,0.0-72.0-0.0,1189.2000000178814,"<div style=""display: flex; flex-direction: column; align-items: center; margin-top: -40px;""><img src=""images/pattern_4.png"" style=""width: 234px; height: 230px; margin-top: -50px;""><div style=""display: flex; justify-content: space-between; margin-top: 33px;""><img src=""images/choice_trial_7.png"" style=""width: 408px; height: 417px; margin-right: 200px;""><img src=""images/choice_trial_8.png"" style=""width: 408px; height: 417px;""></div></div>",j,delaylearn,learning,trial,TV7i4jU8UfgMqWswG9MOFUaBrNa2,TV7i4jU8UfgMqWswG9MOFUaBrNa2,4.0,images/choice_trial_7.png,images/choice_trial_8.png,images/pattern_4.png,j,j,7000.0,7.0,8.0,3.0,1.0,31.0,1.0,1.0,8.0,170.0,,,,,,5d4ada2fed2dfc0016a22af5,16:56:12,27/03/2024
html-keyboard-response,173,359236,0.0-72.0-1.0,,"<div style=""display: flex; flex-direction: column; align-items: center; margin-top: -40px;""><img src=""images/pattern_4.png"" style=""width: 234px; height: 230px; margin-top: -50px;""><div style=""display: flex; justify-content: space-between; margin-top: 33px;""><img src=""images/choice_trial_8.png"" style=""width: 408px; height: 417px; margin-left:608px;""></div></div>",,delaylearn,learning,display_response,TV7i4jU8UfgMqWswG9MOFUaBrNa2,TV7i4jU8UfgMqWswG9MOFUaBrNa2,,,,,,,,,,,,,,,,,chosen stimuli: images/choice_trial_8.png,,,,,5d4ada2fed2dfc0016a22af5,16:56:12,27/03/2024
html-keyboard-response,174,366262,0.0-72.0-2.0,,,,delaylearn,learning,feedback_duration_window,TV7i4jU8UfgMqWswG9MOFUaBrNa2,TV7i4jU8UfgMqWswG9MOFUaBrNa2,,,,,,,,,,,,,,,,,,7000.0,,,,5d4ada2fed2dfc0016a22af5,16:56:12,27/03/2024
html-keyboard-response,175,367785,0.0-72.0-3.0,,<div style='margin:auto;width: auto; font-size: 150%'><span style='font-weight: bold; font-size: 100px; color: green;'>+10 points!</span><br><br></div>,,delaylearn,learning,feedback_image_window,TV7i4jU8UfgMqWswG9MOFUaBrNa2,TV7i4jU8UfgMqWswG9MOFUaBrNa2,,,,,,,,,,,,,,,,,,,,,,5d4ada2fed2dfc0016a22af5,16:56:12,27/03/2024
html-keyboard-response,176,369823,0.0-73.0,,"<div style=""font-size:100px;"">+</div>",,delaylearn,learning,ITI,TV7i4jU8UfgMqWswG9MOFUaBrNa2,TV7i4jU8UfgMqWswG9MOFUaBrNa2,,,,,,,,,,,,,,,,,,,2019.0,,,5d4ada2fed2dfc0016a22af5,16:56:12,27/03/2024
html-keyboard-response,177,370942,0.0-74.0-0.0,1115.5,"<div style=""display: flex; flex-direction: column; align-items: center; margin-top: -40px;""><img src=""images/pattern_3.png"" style=""width: 234px; height: 230px; margin-top: -50px;""><div style=""display: flex; justify-content: space-between; margin-top: 33px;""><img src=""images/choice_trial_6.png"" style=""width: 408px; height: 417px; margin-right: 200px;""><img src=""images/choice_trial_16.png"" style=""width: 408px; height: 417px;""></div></div>",j,delaylearn,learning,trial,TV7i4jU8UfgMqWswG9MOFUaBrNa2,TV7i4jU8UfgMqWswG9MOFUaBrNa2,4.0,images/choice_trial_6.png,images/choice_trial_16.png,images/pattern_3.png,j,j,7000.0,6.0,16.0,2.0,1.0,32.0,1.0,1.0,16.0,180.0,,,,,,5d4ada2fed2dfc0016a22af5,16:56:12,27/03/2024
html-keyboard-response,178,371954,0.0-74.0-1.0,,"<div style=""display: flex; flex-direction: column; align-items: center; margin-top: -40px;""><img src=""images/pattern_3.png"" style=""width: 234px; height: 230px; margin-top: -50px;""><div style=""display: flex; justify-content: space-between; margin-top: 33px;""><img src=""images/choice_trial_16.png"" style=""width: 408px; height: 417px; margin-left:608px;""></div></div>",,delaylearn,learning,display_response,TV7i4jU8UfgMqWswG9MOFUaBrNa2,TV7i4jU8UfgMqWswG9MOFUaBrNa2,,,,,,,,,,,,,,,,,chosen stimuli: images/choice_trial_16.png,,,,,5d4ada2fed2dfc0016a22af5,16:56:12,27/03/2024
html-keyboard-response,179,378981,0.0-74.0-2.0,,,,delaylearn,learning,feedback_duration_window,TV7i4jU8UfgMqWswG9MOFUaBrNa2,TV7i4jU8UfgMqWswG9MOFUaBrNa2,,,,,,,,,,,,,,,,,,7000.0,,,,5d4ada2fed2dfc0016a22af5,16:56:12,27/03/2024
html-keyboard-response,180,380518,0.0-74.0-3.0,,<div style='margin:auto;width: auto; font-size: 150%'><span style='font-weight: bold; font-size: 100px; color: green;'>+10 points!</span><br><br></div>,,delaylearn,learning,feedback_image_window,TV7i4jU8UfgMqWswG9MOFUaBrNa2,TV7i4jU8UfgMqWswG9MOFUaBrNa2,,,,,,,,,,,,,,,,,,,,,,5d4ada2fed2dfc0016a22af5,16:56:12,27/03/2024
html-keyboard-response,181,382182,0.0-75.0,,"<div style=""font-size:100px;"">+</div>",,delaylearn,learning,ITI,TV7i4jU8UfgMqWswG9MOFUaBrNa2,TV7i4jU8UfgMqWswG9MOFUaBrNa2,,,,,,,,,,,,,,,,,,,1644.0,,,5d4ada2fed2dfc0016a22af5,16:56:12,27/03/2024
html-keyboard-response,182,383566,0.0-76.0-0.0,1379.7999999821186,"<div style=""display: flex; flex-direction: column; align-items: center; margin-top: -40px;""><img src=""images/pattern_5.png"" style=""width: 234px; height: 230px; margin-top: -50px;""><div style=""display: flex; justify-content: space-between; margin-top: 33px;""><img src=""images/choice_trial_5.png"" style=""width: 408px; height: 417px; margin-right: 200px;""><img src=""images/choice_trial_15.png"" style=""width: 408px; height: 417px;""></div></div>",f,delaylearn,learning,trial,TV7i4jU8UfgMqWswG9MOFUaBrNa2,TV7i4jU8UfgMqWswG9MOFUaBrNa2,4.0,images/choice_trial_5.png,images/choice_trial_15.png,images/pattern_5.png,j,f,750.0,5.0,15.0,4.0,0.0,33.0,1.0,0.0,5.0,180.0,,,,,,5d4ada2fed2dfc0016a22af5,16:56:12,27/03/2024
html-keyboard-response,183,384578,0.0-76.0-1.0,,"<div style=""display: flex; flex-direction: column; align-items: center; margin-top: -40px;""><img src=""images/pattern_5.png"" style=""width: 234px; height: 230px; margin-top: -50px;""><div style=""display: flex; justify-content: space-between; margin-top: 33px;""><img src=""images/choice_trial_5.png"" style=""width: 408px; height: 417px; margin-right: 608px;""></div></div>",,delaylearn,learning,display_response,TV7i4jU8UfgMqWswG9MOFUaBrNa2,TV7i4jU8UfgMqWswG9MOFUaBrNa2,,,,,,,,,,,,,,,,,chosen stimuli: images/choice_trial_5.png,,,,,5d4ada2fed2dfc0016a22af5,16:56:12,27/03/2024
html-keyboard-response,184,385338,0.0-76.0-2.0,,,,delaylearn,learning,feedback_duration_window,TV7i4jU8UfgMqWswG9MOFUaBrNa2,TV7i4jU8UfgMqWswG9MOFUaBrNa2,,,,,,,,,,,,,,,,,,750.0,,,,5d4ada2fed2dfc0016a22af5,16:56:12,27/03/2024
html-keyboard-response,185,386849,0.0-76.0-3.0,,<div style='margin:auto;width: auto; font-size: 150%'><span style='font-weight: bold; font-size: 100px; color: red;'>0 points!</span><br><br></div>,,delaylearn,learning,feedback_image_window,TV7i4jU8UfgMqWswG9MOFUaBrNa2,TV7i4jU8UfgMqWswG9MOFUaBrNa2,,,,,,,,,,,,,,,,,,,,,,5d4ada2fed2dfc0016a22af5,16:56:12,27/03/2024
html-keyboard-response,186,388637,0.0-77.0,,"<div style=""font-size:100px;"">+</div>",,delaylearn,learning,ITI,TV7i4jU8UfgMqWswG9MOFUaBrNa2,TV7i4jU8UfgMqWswG9MOFUaBrNa2,,,,,,,,,,,,,,,,,,,1757.0,,,5d4ada2fed2dfc0016a22af5,16:56:12,27/03/2024
html-keyboard-response,187,390644,0.0-78.0-0.0,2002.800000011921,"<div style=""display: flex; flex-direction: column; align-items: center; margin-top: -40px;""><img src=""images/pattern_1.png"" style=""width: 234px; height: 230px; margin-top: -50px;""><div style=""display: flex; justify-content: space-between; margin-top: 33px;""><img src=""images/choice_trial_1.png"" style=""width: 408px; height: 417px; margin-right: 200px;""><img src=""images/choice_trial_9.png"" style=""width: 408px; height: 417px;""></div></div>",j,delaylearn,learning,trial,TV7i4jU8UfgMqWswG9MOFUaBrNa2,TV7i4jU8UfgMqWswG9MOFUaBrNa2,4.0,images/choice_trial_1.png,images/choice_trial_9.png,images/pattern_1.png,f,f,7000.0,1.0,9.0,1.0,0.0,34.0,0.0,0.0,9.0,180.0,,,,,,5d4ada2fed2dfc0016a22af5,16:56:12,27/03/2024
html-keyboard-response,188,391652,0.0-78.0-1.0,,"<div style=""display: flex; flex-direction: column; align-items: center; margin-top: -40px;""><img src=""images/pattern_1.png"" style=""width: 234px; height: 230px; margin-top: -50px;""><div style=""display: flex; justify-content: space-between; margin-top: 33px;""><img src=""images/choice_trial_9.png"" style=""width: 408px; height: 417px; margin-left:608px;""></div></div>",,delaylearn,learning,display_response,TV7i4jU8UfgMqWswG9MOFUaBrNa2,TV7i4jU8UfgMqWswG9MOFUaBrNa2,,,,,,,,,,,,,,,,,chosen stimuli: images/choice_trial_9.png,,,,,5d4ada2fed2dfc0016a22af5,16:56:12,27/03/2024
html-keyboard-response,189,398694,0.0-78.0-2.0,,,,delaylearn,learning,feedback_duration_window,TV7i4jU8UfgMqWswG9MOFUaBrNa2,TV7i4jU8UfgMqWswG9MOFUaBrNa2,,,,,,,,,,,,,,,,,,7000.0,,,,5d4ada2fed2dfc0016a22af5,16:56:12,27/03/2024
html-keyboard-response,190,400235,0.0-78.0-3.0,,<div style='margin:auto;width: auto; font-size: 150%'><span style='font-weight: bold; font-size: 100px; color: red;'>0 points!</span><br><br></div>,,delaylearn,learning,feedback_image_window,TV7i4jU8UfgMqWswG9MOFUaBrNa2,TV7i4jU8UfgMqWswG9MOFUaBrNa2,,,,,,,,,,,,,,,,,,,,,,5d4ada2fed2dfc0016a22af5,16:56:12,27/03/2024
html-keyboard-response,191,400764,0.0-79.0-0.0,,,,,,mood_trial_fixation,TV7i4jU8UfgMqWswG9MOFUaBrNa2,,,,,,,,,,,,,,,,,,,,,,,5d4ada2fed2dfc0016a22af5,16:56:12,27/03/2024
lmdlab-html-vas-response,192,405709,0.0-79.0-1.0,3932.0,How happy are you right now?,0.2638888888888889,delaylearn,learning,mood_trial,TV7i4jU8UfgMqWswG9MOFUaBrNa2,TV7i4jU8UfgMqWswG9MOFUaBrNa2,,,,,,,,,,,,,,,,,,,,"['Very unhappy', 'Very happy']",,5d4ada2fed2dfc0016a22af5,16:56:12,27/03/2024
html-keyboard-response,193,407773,0.0-80.0,,"<div style=""font-size:100px;"">+</div>",,delaylearn,learning,ITI,TV7i4jU8UfgMqWswG9MOFUaBrNa2,TV7i4jU8UfgMqWswG9MOFUaBrNa2,,,,,,,,,,,,,,,,,,,2052.0,,,5d4ada2fed2dfc0016a22af5,16:56:12,27/03/2024
html-keyboard-response,194,408663,0.0-81.0-0.0,884.8000000119209,"<div style=""display: flex; flex-direction: column; align-items: center; margin-top: -40px;""><img src=""images/pattern_6.png"" style=""width: 234px; height: 230px; margin-top: -50px;""><div style=""display: flex; justify-content: space-between; margin-top: 33px;""><img src=""images/choice_trial_10.png"" style=""width: 408px; height: 417px; margin-right: 200px;""><img src=""images/choice_trial_3.png"" style=""width: 408px; height: 417px;""></div></div>",f,delaylearn,learning,trial,TV7i4jU8UfgMqWswG9MOFUaBrNa2,TV7i4jU8UfgMqWswG9MOFUaBrNa2,4.0,images/choice_trial_10.png,images/choice_trial_3.png,images/pattern_6.png,j,f,750.0,10.0,3.0,5.0,0.0,35.0,1.0,0.0,10.0,180.0,,,,,,5d4ada2fed2dfc0016a22af5,16:56:12,27/03/2024
html-keyboard-response,195,409702,0.0-81.0-1.0,,"<div style=""display: flex; flex-direction: column; align-items: center; margin-top: -40px;""><img src=""images/pattern_6.png"" style=""width: 234px; height: 230px; margin-top: -50px;""><div style=""display: flex; justify-content: space-between; margin-top: 33px;""><img src=""images/choice_trial_10.png"" style=""width: 408px; height: 417px; margin-right: 608px;""></div></div>",,delaylearn,learning,display_response,TV7i4jU8UfgMqWswG9MOFUaBrNa2,TV7i4jU8UfgMqWswG9MOFUaBrNa2,,,,,,,,,,,,,,,,,chosen stimuli: images/choice_trial_10.png,,,,,5d4ada2fed2dfc0016a22af5,16:56:12,27/03/2024
html-keyboard-response,196,410479,0.0-81.0-2.0,,,,delaylearn,learning,feedback_duration_window,TV7i4jU8UfgMqWswG9MOFUaBrNa2,TV7i4jU8UfgMqWswG9MOFUaBrNa2,,,,,,,,,,,,,,,,,,750.0,,,,5d4ada2fed2dfc0016a22af5,16:56:12,27/03/2024
html-keyboard-response,197,412003,0.0-81.0-3.0,,<div style='margin:auto;width: auto; font-size: 150%'><span style='font-weight: bold; font-size: 100px; color: red;'>0 points!</span><br><br></div>,,delaylearn,learning,feedback_image_window,TV7i4jU8UfgMqWswG9MOFUaBrNa2,TV7i4jU8UfgMqWswG9MOFUaBrNa2,,,,,,,,,,,,,,,,,,,,,,5d4ada2fed2dfc0016a22af5,16:56:12,27/03/2024
html-keyboard-response,198,414039,0.0-82.0,,"<div style=""font-size:100px;"">+</div>",,delaylearn,learning,ITI,TV7i4jU8UfgMqWswG9MOFUaBrNa2,TV7i4jU8UfgMqWswG9MOFUaBrNa2,,,,,,,,,,,,,,,,,,,1991.0,,,5d4ada2fed2dfc0016a22af5,16:56:12,27/03/2024
html-keyboard-response,199,415660,0.0-83.0-0.0,1616.0,"<div style=""display: flex; flex-direction: column; align-items: center; margin-top: -40px;""><img src=""images/pattern_3.png"" style=""width: 234px; height: 230px; margin-top: -50px;""><div style=""display: flex; justify-content: space-between; margin-top: 33px;""><img src=""images/choice_trial_6.png"" style=""width: 408px; height: 417px; margin-right: 200px;""><img src=""images/choice_trial_16.png"" style=""width: 408px; height: 417px;""></div></div>",j,delaylearn,learning,trial,TV7i4jU8UfgMqWswG9MOFUaBrNa2,TV7i4jU8UfgMqWswG9MOFUaBrNa2,4.0,images/choice_trial_6.png,images/choice_trial_16.png,images/pattern_3.png,j,j,7000.0,6.0,16.0,2.0,1.0,36.0,1.0,1.0,16.0,190.0,,,,,,5d4ada2fed2dfc0016a22af5,16:56:12,27/03/2024
html-keyboard-response,200,416668,0.0-83.0-1.0,,"<div style=""display: flex; flex-direction: column; align-items: center; margin-top: -40px;""><img src=""images/pattern_3.png"" style=""width: 234px; height: 230px; margin-top: -50px;""><div style=""display: flex; justify-content: space-between; margin-top: 33px;""><img src=""images/choice_trial_16.png"" style=""width: 408px; height: 417px; margin-left:608px;""></div></div>",,delaylearn,learning,display_response,TV7i4jU8UfgMqWswG9MOFUaBrNa2,TV7i4jU8UfgMqWswG9MOFUaBrNa2,,,,,,,,,,,,,,,,,chosen stimuli: images/choice_trial_16.png,,,,,5d4ada2fed2dfc0016a22af5,16:56:12,27/03/2024
html-keyboard-response,201,423686,0.0-83.0-2.0,,,,delaylearn,learning,feedback_duration_window,TV7i4jU8UfgMqWswG9MOFUaBrNa2,TV7i4jU8UfgMqWswG9MOFUaBrNa2,,,,,,,,,,,,,,,,,,7000.0,,,,5d4ada2fed2dfc0016a22af5,16:56:12,27/03/2024
html-keyboard-response,202,425205,0.0-83.0-3.0,,<div style='margin:auto;width: auto; font-size: 150%'><span style='font-weight: bold; font-size: 100px; color: green;'>+10 points!</span><br><br></div>,,delaylearn,learning,feedback_image_window,TV7i4jU8UfgMqWswG9MOFUaBrNa2,TV7i4jU8UfgMqWswG9MOFUaBrNa2,,,,,,,,,,,,,,,,,,,,,,5d4ada2fed2dfc0016a22af5,16:56:12,27/03/2024
html-keyboard-response,203,427552,0.0-84.0,,"<div style=""font-size:100px;"">+</div>",,delaylearn,learning,ITI,TV7i4jU8UfgMqWswG9MOFUaBrNa2,TV7i4jU8UfgMqWswG9MOFUaBrNa2,,,,,,,,,,,,,,,,,,,2309.0,,,5d4ada2fed2dfc0016a22af5,16:56:12,27/03/2024
html-keyboard-response,204,428671,0.0-85.0-0.0,1113.5999999940395,"<div style=""display: flex; flex-direction: column; align-items: center; margin-top: -40px;""><img src=""images/pattern_4.png"" style=""width: 234px; height: 230px; margin-top: -50px;""><div style=""display: flex; justify-content: space-between; margin-top: 33px;""><img src=""images/choice_trial_7.png"" style=""width: 408px; height: 417px; margin-right: 200px;""><img src=""images/choice_trial_8.png"" style=""width: 408px; height: 417px;""></div></div>",j,delaylearn,learning,trial,TV7i4jU8UfgMqWswG9MOFUaBrNa2,TV7i4jU8UfgMqWswG9MOFUaBrNa2,4.0,images/choice_trial_7.png,images/choice_trial_8.png,images/pattern_4.png,f,j,7000.0,7.0,8.0,3.0,1.0,37.0,1.0,0.0,8.0,190.0,,,,,,5d4ada2fed2dfc0016a22af5,16:56:12,27/03/2024
html-keyboard-response,205,429682,0.0-85.0-1.0,,"<div style=""display: flex; flex-direction: column; align-items: center; margin-top: -40px;""><img src=""images/pattern_4.png"" style=""width: 234px; height: 230px; margin-top: -50px;""><div style=""display: flex; justify-content: space-between; margin-top: 33px;""><img src=""images/choice_trial_8.png"" style=""width: 408px; height: 417px; margin-left:608px;""></div></div>",,delaylearn,learning,display_response,TV7i4jU8UfgMqWswG9MOFUaBrNa2,TV7i4jU8UfgMqWswG9MOFUaBrNa2,,,,,,,,,,,,,,,,,chosen stimuli: images/choice_trial_8.png,,,,,5d4ada2fed2dfc0016a22af5,16:56:12,27/03/2024
html-keyboard-response,206,436704,0.0-85.0-2.0,,,,delaylearn,learning,feedback_duration_window,TV7i4jU8UfgMqWswG9MOFUaBrNa2,TV7i4jU8UfgMqWswG9MOFUaBrNa2,,,,,,,,,,,,,,,,,,7000.0,,,,5d4ada2fed2dfc0016a22af5,16:56:12,27/03/2024
html-keyboard-response,207,438223,0.0-85.0-3.0,,<div style='margin:auto;width: auto; font-size: 150%'><span style='font-weight: bold; font-size: 100px; color: red;'>0 points!</span><br><br></div>,,delaylearn,learning,feedback_image_window,TV7i4jU8UfgMqWswG9MOFUaBrNa2,TV7i4jU8UfgMqWswG9MOFUaBrNa2,,,,,,,,,,,,,,,,,,,,,,5d4ada2fed2dfc0016a22af5,16:56:12,27/03/2024
html-keyboard-response,208,439878,0.0-86.0,,"<div style=""font-size:100px;"">+</div>",,delaylearn,learning,ITI,TV7i4jU8UfgMqWswG9MOFUaBrNa2,TV7i4jU8UfgMqWswG9MOFUaBrNa2,,,,,,,,,,,,,,,,,,,1624.0,,,5d4ada2fed2dfc0016a22af5,16:56:12,27/03/2024
html-keyboard-response,209,440767,0.0-87.0-0.0,883.0,"<div style=""display: flex; flex-direction: column; align-items: center; margin-top: -40px;""><img src=""images/pattern_7.png"" style=""width: 234px; height: 230px; margin-top: -50px;""><div style=""display: flex; justify-content: space-between; margin-top: 33px;""><img src=""images/choice_trial_13.png"" style=""width: 408px; height: 417px; margin-right: 200px;""><img src=""images/choice_trial_4.png"" style=""width: 408px; height: 417px;""></div></div>",f,delaylearn,learning,trial,TV7i4jU8UfgMqWswG9MOFUaBrNa2,TV7i4jU8UfgMqWswG9MOFUaBrNa2,4.0,images/choice_trial_13.png,images/choice_trial_4.png,images/pattern_7.png,f,f,750.0,13.0,4.0,6.0,0.0,38.0,1.0,1.0,13.0,200.0,,,,,,5d4ada2fed2dfc0016a22af5,16:56:12,27/03/2024
html-keyboard-response,210,441787,0.0-87.0-1.0,,"<div style=""display: flex; flex-direction: column; align-items: center; margin-top: -40px;""><img src=""images/pattern_7.png"" style=""width: 234px; height: 230px; margin-top: -50px;""><div style=""display: flex; justify-content: space-between; margin-top: 33px;""><img src=""images/choice_trial_13.png"" style=""width: 408px; height: 417px; margin-right: 608px;""></div></div>",,delaylearn,learning,display_response,TV7i4jU8UfgMqWswG9MOFUaBrNa2,TV7i4jU8UfgMqWswG9MOFUaBrNa2,,,,,,,,,,,,,,,,,chosen stimuli: images/choice_trial_13.png,,,,,5d4ada2fed2dfc0016a22af5,16:56:12,27/03/2024
html-keyboard-response,211,442553,0.0-87.0-2.0,,,,delaylearn,learning,feedback_duration_window,TV7i4jU8UfgMqWswG9MOFUaBrNa2,TV7i4jU8UfgMqWswG9MOFUaBrNa2,,,,,,,,,,,,,,,,,,750.0,,,,5d4ada2fed2dfc0016a22af5,16:56:12,27/03/2024
html-keyboard-response,212,444067,0.0-87.0-3.0,,<div style='margin:auto;width: auto; font-size: 150%'><span style='font-weight: bold; font-size: 100px; color: green;'>+10 points!</span><br><br></div>,,delaylearn,learning,feedback_image_window,TV7i4jU8UfgMqWswG9MOFUaBrNa2,TV7i4jU8UfgMqWswG9MOFUaBrNa2,,,,,,,,,,,,,,,,,,,,,,5d4ada2fed2dfc0016a22af5,16:56:12,27/03/2024
html-keyboard-response,213,445963,0.0-88.0,,"<div style=""font-size:100px;"">+</div>",,delaylearn,learning,ITI,TV7i4jU8UfgMqWswG9MOFUaBrNa2,TV7i4jU8UfgMqWswG9MOFUaBrNa2,,,,,,,,,,,,,,,,,,,1889.0,,,5d4ada2fed2dfc0016a22af5,16:56:12,27/03/2024
html-keyboard-response,214,447361,0.0-89.0-0.0,1393.4000000059605,"<div style=""display: flex; flex-direction: column; align-items: center; margin-top: -40px;""><img src=""images/pattern_1.png"" style=""width: 234px; height: 230px; margin-top: -50px;""><div style=""display: flex; justify-content: space-between; margin-top: 33px;""><img src=""images/choice_trial_1.png"" style=""width: 408px; height: 417px; margin-right: 200px;""><img src=""images/choice_trial_9.png"" style=""width: 408px; height: 417px;""></div></div>",j,delaylearn,learning,trial,TV7i4jU8UfgMqWswG9MOFUaBrNa2,TV7i4jU8UfgMqWswG9MOFUaBrNa2,4.0,images/choice_trial_1.png,images/choice_trial_9.png,images/pattern_1.png,f,f,7000.0,1.0,9.0,1.0,0.0,39.0,0.0,0.0,9.0,200.0,,,,,,5d4ada2fed2dfc0016a22af5,16:56:12,27/03/2024
html-keyboard-response,215,448368,0.0-89.0-1.0,,"<div style=""display: flex; flex-direction: column; align-items: center; margin-top: -40px;""><img src=""images/pattern_1.png"" style=""width: 234px; height: 230px; margin-top: -50px;""><div style=""display: flex; justify-content: space-between; margin-top: 33px;""><img src=""images/choice_trial_9.png"" style=""width: 408px; height: 417px; margin-left:608px;""></div></div>",,delaylearn,learning,display_response,TV7i4jU8UfgMqWswG9MOFUaBrNa2,TV7i4jU8UfgMqWswG9MOFUaBrNa2,,,,,,,,,,,,,,,,,chosen stimuli: images/choice_trial_9.png,,,,,5d4ada2fed2dfc0016a22af5,16:56:12,27/03/2024
html-keyboard-response,216,455396,0.0-89.0-2.0,,,,delaylearn,learning,feedback_duration_window,TV7i4jU8UfgMqWswG9MOFUaBrNa2,TV7i4jU8UfgMqWswG9MOFUaBrNa2,,,,,,,,,,,,,,,,,,7000.0,,,,5d4ada2fed2dfc0016a22af5,16:56:12,27/03/2024
html-keyboard-response,217,456922,0.0-89.0-3.0,,<div style='margin:auto;width: auto; font-size: 150%'><span style='font-weight: bold; font-size: 100px; color: red;'>0 points!</span><br><br></div>,,delaylearn,learning,feedback_image_window,TV7i4jU8UfgMqWswG9MOFUaBrNa2,TV7i4jU8UfgMqWswG9MOFUaBrNa2,,,,,,,,,,,,,,,,,,,,,,5d4ada2fed2dfc0016a22af5,16:56:12,27/03/2024
html-keyboard-response,218,457462,0.0-90.0-0.0,,,,,,mood_trial_fixation,TV7i4jU8UfgMqWswG9MOFUaBrNa2,,,,,,,,,,,,,,,,,,,,,,,5d4ada2fed2dfc0016a22af5,16:56:12,27/03/2024
lmdlab-html-vas-response,219,462191,0.0-90.0-1.0,3711.0,How happy are you right now?,0.18055555555555555,delaylearn,learning,mood_trial,TV7i4jU8UfgMqWswG9MOFUaBrNa2,TV7i4jU8UfgMqWswG9MOFUaBrNa2,,,,,,,,,,,,,,,,,,,,"['Very unhappy', 'Very happy']",,5d4ada2fed2dfc0016a22af5,16:56:12,27/03/2024
html-keyboard-response,220,464359,0.0-91.0,,"<div style=""font-size:100px;"">+</div>",,delaylearn,learning,ITI,TV7i4jU8UfgMqWswG9MOFUaBrNa2,TV7i4jU8UfgMqWswG9MOFUaBrNa2,,,,,,,,,,,,,,,,,,,2150.0,,,5d4ada2fed2dfc0016a22af5,16:56:12,27/03/2024
html-keyboard-response,221,466169,0.0-92.0-0.0,1806.8999999761581,"<div style=""display: flex; flex-direction: column; align-items: center; margin-top: -40px;""><img src=""images/pattern_3.png"" style=""width: 234px; height: 230px; margin-top: -50px;""><div style=""display: flex; justify-content: space-between; margin-top: 33px;""><img src=""images/choice_trial_16.png"" style=""width: 408px; height: 417px; margin-right: 200px;""><img src=""images/choice_trial_6.png"" style=""width: 408px; height: 417px;""></div></div>",f,delaylearn,learning,trial,TV7i4jU8UfgMqWswG9MOFUaBrNa2,TV7i4jU8UfgMqWswG9MOFUaBrNa2,4.0,images/choice_trial_16.png,images/choice_trial_6.png,images/pattern_3.png,j,f,7000.0,16.0,6.0,2.0,0.0,40.0,1.0,0.0,16.0,200.0,,,,,,5d4ada2fed2dfc0016a22af5,16:56:12,27/03/2024
html-keyboard-response,222,467183,0.0-92.0-1.0,,"<div style=""display: flex; flex-direction: column; align-items: center; margin-top: -40px;""><img src=""images/pattern_3.png"" style=""width: 234px; height: 230px; margin-top: -50px;""><div style=""display: flex; justify-content: space-between; margin-top: 33px;""><img src=""images/choice_trial_16.png"" style=""width: 408px; height: 417px; margin-right: 608px;""></div></div>",,delaylearn,learning,display_response,TV7i4jU8UfgMqWswG9MOFUaBrNa2,TV7i4jU8UfgMqWswG9MOFUaBrNa2,,,,,,,,,,,,,,,,,chosen stimuli: images/choice_trial_16.png,,,,,5d4ada2fed2dfc0016a22af5,16:56:12,27/03/2024
html-keyboard-response,223,474205,0.0-92.0-2.0,,,,delaylearn,learning,feedback_duration_window,TV7i4jU8UfgMqWswG9MOFUaBrNa2,TV7i4jU8UfgMqWswG9MOFUaBrNa2,,,,,,,,,,,,,,,,,,7000.0,,,,5d4ada2fed2dfc0016a22af5,16:56:12,27/03/2024
html-keyboard-response,224,475736,0.0-92.0-3.0,,<div style='margin:auto;width: auto; font-size: 150%'><span style='font-weight: bold; font-size: 100px; color: red;'>0 points!</span><br><br></div>,,delaylearn,learning,feedback_image_window,TV7i4jU8UfgMqWswG9MOFUaBrNa2,TV7i4jU8UfgMqWswG9MOFUaBrNa2,,,,,,,,,,,,,,,,,,,,,,5d4ada2fed2dfc0016a22af5,16:56:12,27/03/2024
html-keyboard-response,225,478007,0.0-93.0,,"<div style=""font-size:100px;"">+</div>",,delaylearn,learning,ITI,TV7i4jU8UfgMqWswG9MOFUaBrNa2,TV7i4jU8UfgMqWswG9MOFUaBrNa2,,,,,,,,,,,,,,,,,,,2246.0,,,5d4ada2fed2dfc0016a22af5,16:56:12,27/03/2024
html-keyboard-response,226,479469,0.0-94.0-0.0,1456.4000000059605,"<div style=""display: flex; flex-direction: column; align-items: center; margin-top: -40px;""><img src=""images/pattern_7.png"" style=""width: 234px; height: 230px; margin-top: -50px;""><div style=""display: flex; justify-content: space-between; margin-top: 33px;""><img src=""images/choice_trial_4.png"" style=""width: 408px; height: 417px; margin-right: 200px;""><img src=""images/choice_trial_13.png"" style=""width: 408px; height: 417px;""></div></div>",f,delaylearn,learning,trial,TV7i4jU8UfgMqWswG9MOFUaBrNa2,TV7i4jU8UfgMqWswG9MOFUaBrNa2,4.0,images/choice_trial_4.png,images/choice_trial_13.png,images/pattern_7.png,j,j,750.0,4.0,13.0,6.0,1.0,41.0,0.0,0.0,4.0,200.0,,,,,,5d4ada2fed2dfc0016a22af5,16:56:12,27/03/2024
html-keyboard-response,227,480487,0.0-94.0-1.0,,"<div style=""display: flex; flex-direction: column; align-items: center; margin-top: -40px;""><img src=""images/pattern_7.png"" style=""width: 234px; height: 230px; margin-top: -50px;""><div style=""display: flex; justify-content: space-between; margin-top: 33px;""><img src=""images/choice_trial_4.png"" style=""width: 408px; height: 417px; margin-right: 608px;""></div></div>",,delaylearn,learning,display_response,TV7i4jU8UfgMqWswG9MOFUaBrNa2,TV7i4jU8UfgMqWswG9MOFUaBrNa2,,,,,,,,,,,,,,,,,chosen stimuli: images/choice_trial_4.png,,,,,5d4ada2fed2dfc0016a22af5,16:56:12,27/03/2024
html-keyboard-response,228,481247,0.0-94.0-2.0,,,,delaylearn,learning,feedback_duration_window,TV7i4jU8UfgMqWswG9MOFUaBrNa2,TV7i4jU8UfgMqWswG9MOFUaBrNa2,,,,,,,,,,,,,,,,,,750.0,,,,5d4ada2fed2dfc0016a22af5,16:56:12,27/03/2024
html-keyboard-response,229,482756,0.0-94.0-3.0,,<div style='margin:auto;width: auto; font-size: 150%'><span style='font-weight: bold; font-size: 100px; color: red;'>0 points!</span><br><br></div>,,delaylearn,learning,feedback_image_window,TV7i4jU8UfgMqWswG9MOFUaBrNa2,TV7i4jU8UfgMqWswG9MOFUaBrNa2,,,,,,,,,,,,,,,,,,,,,,5d4ada2fed2dfc0016a22af5,16:56:12,27/03/2024
html-keyboard-response,230,484636,0.0-95.0,,"<div style=""font-size:100px;"">+</div>",,delaylearn,learning,ITI,TV7i4jU8UfgMqWswG9MOFUaBrNa2,TV7i4jU8UfgMqWswG9MOFUaBrNa2,,,,,,,,,,,,,,,,,,,1861.0,,,5d4ada2fed2dfc0016a22af5,16:56:12,27/03/2024
html-keyboard-response,231,486565,0.0-96.0-0.0,1924.0,"<div style=""display: flex; flex-direction: column; align-items: center; margin-top: -40px;""><img src=""images/pattern_5.png"" style=""width: 234px; height: 230px; margin-top: -50px;""><div style=""display: flex; justify-content: space-between; margin-top: 33px;""><img src=""images/choice_trial_15.png"" style=""width: 408px; height: 417px; margin-right: 200px;""><img src=""images/choice_trial_5.png"" style=""width: 408px; height: 417px;""></div></div>",j,delaylearn,learning,trial,TV7i4jU8UfgMqWswG9MOFUaBrNa2,TV7i4jU8UfgMqWswG9MOFUaBrNa2,4.0,images/choice_trial_15.png,images/choice_trial_5.png,images/pattern_5.png,j,j,750.0,15.0,5.0,4.0,1.0,42.0,1.0,1.0,5.0,210.0,,,,,,5d4ada2fed2dfc0016a22af5,16:56:12,27/03/2024
