trial_type,trial_index,time_elapsed,internal_node_id,rt,stimulus,response,exp_name,exp_stage,test_part,subjectID,databaseID,counterbal,choice_stimuli_1,choice_stimuli_2,pattern_stimuli,rewarded_answer,correct_answer,feedback_duration_times,stim_left,stim_right,pair,leftright_counter,trial,response_correct,response_rewarded,chosen_stim,counter,displayed_choice,feedback_durations,ITI_duration,labels,rest_warning,prolificID,start_time,date
pavlovia,0,3014,0.0-0.0,,,,,,,41hWcgihi1bNV7dKFLA00W7hVL43,,,,,,,,,,,,,,,,,,,,,,,65a53ce092b4798f1b1ff5bb,09:07:04,27/02/2024
html-keyboard-response,1,6019,0.0-1.0,,"<div style=""font-size:100px;"">+</div>",,delaylearn,learning,pre_fixation,41hWcgihi1bNV7dKFLA00W7hVL43,,,,,,,,,,,,,,,,,,,,,,,65a53ce092b4798f1b1ff5bb,09:07:04,27/02/2024
html-keyboard-response,2,7790,0.0-2.0-0.0,1767.3000000715256,"<div style=""display: flex; flex-direction: column; align-items: center; margin-top: -40px;""><img src=""images/demo_images/pattern_1.png"" style=""width: 234px; height: 230px; margin-top: -50px;""><div style=""display: flex; justify-content: space-between; margin-top: 33px;""><img src=""images/demo_images/choice_trial_2.png"" style=""width: 408px; height: 417px; margin-right: 200px;""><img src=""images/demo_images/choice_trial_1.png"" style=""width: 408px; height: 417px;""></div></div>",f,delaylearn,learning,trial,41hWcgihi1bNV7dKFLA00W7hVL43,41hWcgihi1bNV7dKFLA00W7hVL43,4.0,images/demo_images/choice_trial_2.png,images/demo_images/choice_trial_1.png,images/demo_images/pattern_1.png,j,j,3000.0,2.0,1.0,20.0,1.0,1.0,0.0,0.0,2.0,0.0,,,,,,65a53ce092b4798f1b1ff5bb,09:07:04,27/02/2024
html-keyboard-response,3,8805,0.0-2.0-1.0,,"<div style=""display: flex; flex-direction: column; align-items: center; margin-top: -40px;""><img src=""images/demo_images/pattern_1.png"" style=""width: 234px; height: 230px; margin-top: -50px;""><div style=""display: flex; justify-content: space-between; margin-top: 33px;""><img src=""images/demo_images/choice_trial_2.png"" style=""width: 408px; height: 417px; margin-right: 608px;""></div></div>",,delaylearn,learning,display_response,41hWcgihi1bNV7dKFLA00W7hVL43,41hWcgihi1bNV7dKFLA00W7hVL43,,,,,,,,,,,,,,,,,chosen stimuli: images/demo_images/choice_trial_2.png,,,,,65a53ce092b4798f1b1ff5bb,09:07:04,27/02/2024
html-keyboard-response,4,11808,0.0-2.0-2.0,,,,delaylearn,learning,feedback_duration_window,41hWcgihi1bNV7dKFLA00W7hVL43,41hWcgihi1bNV7dKFLA00W7hVL43,,,,,,,,,,,,,,,,,,3000.0,,,,65a53ce092b4798f1b1ff5bb,09:07:04,27/02/2024
html-keyboard-response,5,13313,0.0-2.0-3.0,,<div style='margin:auto;width: auto; font-size: 150%'><span style='font-weight: bold; font-size: 100px; color: red;'>0 points!</span><br><br></div>,,delaylearn,learning,feedback_image_window,41hWcgihi1bNV7dKFLA00W7hVL43,41hWcgihi1bNV7dKFLA00W7hVL43,,,,,,,,,,,,,,,,,,,,,,65a53ce092b4798f1b1ff5bb,09:07:04,27/02/2024
html-keyboard-response,6,15178,0.0-3.0,,"<div style=""font-size:100px;"">+</div>",,delaylearn,learning,ITI,41hWcgihi1bNV7dKFLA00W7hVL43,41hWcgihi1bNV7dKFLA00W7hVL43,,,,,,,,,,,,,,,,,,,1857.0,,,65a53ce092b4798f1b1ff5bb,09:07:04,27/02/2024
html-keyboard-response,7,15586,0.0-4.0-0.0,406.0,"<div style=""display: flex; flex-direction: column; align-items: center; margin-top: -40px;""><img src=""images/demo_images/pattern_1.png"" style=""width: 234px; height: 230px; margin-top: -50px;""><div style=""display: flex; justify-content: space-between; margin-top: 33px;""><img src=""images/demo_images/choice_trial_2.png"" style=""width: 408px; height: 417px; margin-right: 200px;""><img src=""images/demo_images/choice_trial_1.png"" style=""width: 408px; height: 417px;""></div></div>",j,delaylearn,learning,trial,41hWcgihi1bNV7dKFLA00W7hVL43,41hWcgihi1bNV7dKFLA00W7hVL43,4.0,images/demo_images/choice_trial_2.png,images/demo_images/choice_trial_1.png,images/demo_images/pattern_1.png,j,j,3000.0,2.0,1.0,20.0,1.0,2.0,1.0,1.0,1.0,10.0,,,,,,65a53ce092b4798f1b1ff5bb,09:07:04,27/02/2024
html-keyboard-response,8,16590,0.0-4.0-1.0,,"<div style=""display: flex; flex-direction: column; align-items: center; margin-top: -40px;""><img src=""images/demo_images/pattern_1.png"" style=""width: 234px; height: 230px; margin-top: -50px;""><div style=""display: flex; justify-content: space-between; margin-top: 33px;""><img src=""images/demo_images/choice_trial_1.png"" style=""width: 408px; height: 417px; margin-left:608px;""></div></div>",,delaylearn,learning,display_response,41hWcgihi1bNV7dKFLA00W7hVL43,41hWcgihi1bNV7dKFLA00W7hVL43,,,,,,,,,,,,,,,,,chosen stimuli: images/demo_images/choice_trial_1.png,,,,,65a53ce092b4798f1b1ff5bb,09:07:04,27/02/2024
html-keyboard-response,9,19603,0.0-4.0-2.0,,,,delaylearn,learning,feedback_duration_window,41hWcgihi1bNV7dKFLA00W7hVL43,41hWcgihi1bNV7dKFLA00W7hVL43,,,,,,,,,,,,,,,,,,3000.0,,,,65a53ce092b4798f1b1ff5bb,09:07:04,27/02/2024
html-keyboard-response,10,21119,0.0-4.0-3.0,,<div style='margin:auto;width: auto; font-size: 150%'><span style='font-weight: bold; font-size: 100px; color: green;'>+10 points!</span><br><br></div>,,delaylearn,learning,feedback_image_window,41hWcgihi1bNV7dKFLA00W7hVL43,41hWcgihi1bNV7dKFLA00W7hVL43,,,,,,,,,,,,,,,,,,,,,,65a53ce092b4798f1b1ff5bb,09:07:04,27/02/2024
html-keyboard-response,11,22884,0.0-5.0,,"<div style=""font-size:100px;"">+</div>",,delaylearn,learning,ITI,41hWcgihi1bNV7dKFLA00W7hVL43,41hWcgihi1bNV7dKFLA00W7hVL43,,,,,,,,,,,,,,,,,,,1758.0,,,65a53ce092b4798f1b1ff5bb,09:07:04,27/02/2024
html-keyboard-response,12,23339,0.0-6.0-0.0,452.7999999523163,"<div style=""display: flex; flex-direction: column; align-items: center; margin-top: -40px;""><img src=""images/demo_images/pattern_1.png"" style=""width: 234px; height: 230px; margin-top: -50px;""><div style=""display: flex; justify-content: space-between; margin-top: 33px;""><img src=""images/demo_images/choice_trial_1.png"" style=""width: 408px; height: 417px; margin-right: 200px;""><img src=""images/demo_images/choice_trial_2.png"" style=""width: 408px; height: 417px;""></div></div>",f,delaylearn,learning,trial,41hWcgihi1bNV7dKFLA00W7hVL43,41hWcgihi1bNV7dKFLA00W7hVL43,4.0,images/demo_images/choice_trial_1.png,images/demo_images/choice_trial_2.png,images/demo_images/pattern_1.png,j,f,3000.0,1.0,2.0,20.0,0.0,3.0,1.0,0.0,1.0,10.0,,,,,,65a53ce092b4798f1b1ff5bb,09:07:04,27/02/2024
html-keyboard-response,13,24352,0.0-6.0-1.0,,"<div style=""display: flex; flex-direction: column; align-items: center; margin-top: -40px;""><img src=""images/demo_images/pattern_1.png"" style=""width: 234px; height: 230px; margin-top: -50px;""><div style=""display: flex; justify-content: space-between; margin-top: 33px;""><img src=""images/demo_images/choice_trial_1.png"" style=""width: 408px; height: 417px; margin-right: 608px;""></div></div>",,delaylearn,learning,display_response,41hWcgihi1bNV7dKFLA00W7hVL43,41hWcgihi1bNV7dKFLA00W7hVL43,,,,,,,,,,,,,,,,,chosen stimuli: images/demo_images/choice_trial_1.png,,,,,65a53ce092b4798f1b1ff5bb,09:07:04,27/02/2024
html-keyboard-response,14,27358,0.0-6.0-2.0,,,,delaylearn,learning,feedback_duration_window,41hWcgihi1bNV7dKFLA00W7hVL43,41hWcgihi1bNV7dKFLA00W7hVL43,,,,,,,,,,,,,,,,,,3000.0,,,,65a53ce092b4798f1b1ff5bb,09:07:04,27/02/2024
html-keyboard-response,15,28870,0.0-6.0-3.0,,<div style='margin:auto;width: auto; font-size: 150%'><span style='font-weight: bold; font-size: 100px; color: red;'>0 points!</span><br><br></div>,,delaylearn,learning,feedback_image_window,41hWcgihi1bNV7dKFLA00W7hVL43,41hWcgihi1bNV7dKFLA00W7hVL43,,,,,,,,,,,,,,,,,,,,,,65a53ce092b4798f1b1ff5bb,09:07:04,27/02/2024
html-keyboard-response,16,31247,0.0-7.0,,"<div style=""font-size:100px;"">+</div>",,delaylearn,learning,ITI,41hWcgihi1bNV7dKFLA00W7hVL43,41hWcgihi1bNV7dKFLA00W7hVL43,,,,,,,,,,,,,,,,,,,2375.0,,,65a53ce092b4798f1b1ff5bb,09:07:04,27/02/2024
html-keyboard-response,17,31676,0.0-8.0-0.0,425.8000000715256,"<div style=""display: flex; flex-direction: column; align-items: center; margin-top: -40px;""><img src=""images/demo_images/pattern_1.png"" style=""width: 234px; height: 230px; margin-top: -50px;""><div style=""display: flex; justify-content: space-between; margin-top: 33px;""><img src=""images/demo_images/choice_trial_1.png"" style=""width: 408px; height: 417px; margin-right: 200px;""><img src=""images/demo_images/choice_trial_2.png"" style=""width: 408px; height: 417px;""></div></div>",j,delaylearn,learning,trial,41hWcgihi1bNV7dKFLA00W7hVL43,41hWcgihi1bNV7dKFLA00W7hVL43,4.0,images/demo_images/choice_trial_1.png,images/demo_images/choice_trial_2.png,images/demo_images/pattern_1.png,f,f,3000.0,1.0,2.0,20.0,0.0,4.0,0.0,0.0,2.0,10.0,,,,,,65a53ce092b4798f1b1ff5bb,09:07:04,27/02/2024
html-keyboard-response,18,32691,0.0-8.0-1.0,,"<div style=""display: flex; flex-direction: column; align-items: center; margin-top: -40px;""><img src=""images/demo_images/pattern_1.png"" style=""width: 234px; height: 230px; margin-top: -50px;""><div style=""display: flex; justify-content: space-between; margin-top: 33px;""><img src=""images/demo_images/choice_trial_2.png"" style=""width: 408px; height: 417px; margin-left:608px;""></div></div>",,delaylearn,learning,display_response,41hWcgihi1bNV7dKFLA00W7hVL43,41hWcgihi1bNV7dKFLA00W7hVL43,,,,,,,,,,,,,,,,,chosen stimuli: images/demo_images/choice_trial_2.png,,,,,65a53ce092b4798f1b1ff5bb,09:07:04,27/02/2024
html-keyboard-response,19,35700,0.0-8.0-2.0,,,,delaylearn,learning,feedback_duration_window,41hWcgihi1bNV7dKFLA00W7hVL43,41hWcgihi1bNV7dKFLA00W7hVL43,,,,,,,,,,,,,,,,,,3000.0,,,,65a53ce092b4798f1b1ff5bb,09:07:04,27/02/2024
html-keyboard-response,20,37203,0.0-8.0-3.0,,<div style='margin:auto;width: auto; font-size: 150%'><span style='font-weight: bold; font-size: 100px; color: red;'>0 points!</span><br><br></div>,,delaylearn,learning,feedback_image_window,41hWcgihi1bNV7dKFLA00W7hVL43,41hWcgihi1bNV7dKFLA00W7hVL43,,,,,,,,,,,,,,,,,,,,,,65a53ce092b4798f1b1ff5bb,09:07:04,27/02/2024
html-keyboard-response,21,37716,0.0-9.0-0.0,,,,,,mood_trial_fixation,41hWcgihi1bNV7dKFLA00W7hVL43,,,,,,,,,,,,,,,,,,,,,,,65a53ce092b4798f1b1ff5bb,09:07:04,27/02/2024
lmdlab-html-vas-response,22,42171,0.0-9.0-1.0,3434.0,How happy are you right now?,0.12191358024691358,delaylearn,learning,mood_trial,41hWcgihi1bNV7dKFLA00W7hVL43,41hWcgihi1bNV7dKFLA00W7hVL43,,,,,,,,,,,,,,,,,,,,"['Very unhappy', 'Very happy']",,65a53ce092b4798f1b1ff5bb,09:07:04,27/02/2024
html-keyboard-response,23,43938,0.0-10.0,,"<div style=""font-size:100px;"">+</div>",,delaylearn,learning,ITI,41hWcgihi1bNV7dKFLA00W7hVL43,41hWcgihi1bNV7dKFLA00W7hVL43,,,,,,,,,,,,,,,,,,,1758.0,,,65a53ce092b4798f1b1ff5bb,09:07:04,27/02/2024
html-keyboard-response,24,45197,0.0-11.0-0.0,1258.1999999284744,"<div style=""display: flex; flex-direction: column; align-items: center; margin-top: -40px;""><img src=""images/demo_images/pattern_1.png"" style=""width: 234px; height: 230px; margin-top: -50px;""><div style=""display: flex; justify-content: space-between; margin-top: 33px;""><img src=""images/demo_images/choice_trial_2.png"" style=""width: 408px; height: 417px; margin-right: 200px;""><img src=""images/demo_images/choice_trial_1.png"" style=""width: 408px; height: 417px;""></div></div>",f,delaylearn,learning,trial,41hWcgihi1bNV7dKFLA00W7hVL43,41hWcgihi1bNV7dKFLA00W7hVL43,4.0,images/demo_images/choice_trial_2.png,images/demo_images/choice_trial_1.png,images/demo_images/pattern_1.png,j,j,3000.0,2.0,1.0,20.0,1.0,5.0,0.0,0.0,2.0,10.0,,,,,,65a53ce092b4798f1b1ff5bb,09:07:04,27/02/2024
html-keyboard-response,25,46205,0.0-11.0-1.0,,"<div style=""display: flex; flex-direction: column; align-items: center; margin-top: -40px;""><img src=""images/demo_images/pattern_1.png"" style=""width: 234px; height: 230px; margin-top: -50px;""><div style=""display: flex; justify-content: space-between; margin-top: 33px;""><img src=""images/demo_images/choice_trial_2.png"" style=""width: 408px; height: 417px; margin-right: 608px;""></div></div>",,delaylearn,learning,display_response,41hWcgihi1bNV7dKFLA00W7hVL43,41hWcgihi1bNV7dKFLA00W7hVL43,,,,,,,,,,,,,,,,,chosen stimuli: images/demo_images/choice_trial_2.png,,,,,65a53ce092b4798f1b1ff5bb,09:07:04,27/02/2024
html-keyboard-response,26,49220,0.0-11.0-2.0,,,,delaylearn,learning,feedback_duration_window,41hWcgihi1bNV7dKFLA00W7hVL43,41hWcgihi1bNV7dKFLA00W7hVL43,,,,,,,,,,,,,,,,,,3000.0,,,,65a53ce092b4798f1b1ff5bb,09:07:04,27/02/2024
html-keyboard-response,27,50737,0.0-11.0-3.0,,<div style='margin:auto;width: auto; font-size: 150%'><span style='font-weight: bold; font-size: 100px; color: red;'>0 points!</span><br><br></div>,,delaylearn,learning,feedback_image_window,41hWcgihi1bNV7dKFLA00W7hVL43,41hWcgihi1bNV7dKFLA00W7hVL43,,,,,,,,,,,,,,,,,,,,,,65a53ce092b4798f1b1ff5bb,09:07:04,27/02/2024
html-keyboard-response,28,52575,0.0-12.0,,"<div style=""font-size:100px;"">+</div>",,delaylearn,learning,ITI,41hWcgihi1bNV7dKFLA00W7hVL43,41hWcgihi1bNV7dKFLA00W7hVL43,,,,,,,,,,,,,,,,,,,1835.0,,,65a53ce092b4798f1b1ff5bb,09:07:04,27/02/2024
html-keyboard-response,29,53295,0.0-13.0-0.0,719.0,"<div style=""display: flex; flex-direction: column; align-items: center; margin-top: -40px;""><img src=""images/demo_images/pattern_1.png"" style=""width: 234px; height: 230px; margin-top: -50px;""><div style=""display: flex; justify-content: space-between; margin-top: 33px;""><img src=""images/demo_images/choice_trial_1.png"" style=""width: 408px; height: 417px; margin-right: 200px;""><img src=""images/demo_images/choice_trial_2.png"" style=""width: 408px; height: 417px;""></div></div>",f,delaylearn,learning,trial,41hWcgihi1bNV7dKFLA00W7hVL43,41hWcgihi1bNV7dKFLA00W7hVL43,4.0,images/demo_images/choice_trial_1.png,images/demo_images/choice_trial_2.png,images/demo_images/pattern_1.png,f,f,3000.0,1.0,2.0,20.0,0.0,6.0,1.0,1.0,1.0,20.0,,,,,,65a53ce092b4798f1b1ff5bb,09:07:04,27/02/2024
html-keyboard-response,30,54302,0.0-13.0-1.0,,"<div style=""display: flex; flex-direction: column; align-items: center; margin-top: -40px;""><img src=""images/demo_images/pattern_1.png"" style=""width: 234px; height: 230px; margin-top: -50px;""><div style=""display: flex; justify-content: space-between; margin-top: 33px;""><img src=""images/demo_images/choice_trial_1.png"" style=""width: 408px; height: 417px; margin-right: 608px;""></div></div>",,delaylearn,learning,display_response,41hWcgihi1bNV7dKFLA00W7hVL43,41hWcgihi1bNV7dKFLA00W7hVL43,,,,,,,,,,,,,,,,,chosen stimuli: images/demo_images/choice_trial_1.png,,,,,65a53ce092b4798f1b1ff5bb,09:07:04,27/02/2024
html-keyboard-response,31,57309,0.0-13.0-2.0,,,,delaylearn,learning,feedback_duration_window,41hWcgihi1bNV7dKFLA00W7hVL43,41hWcgihi1bNV7dKFLA00W7hVL43,,,,,,,,,,,,,,,,,,3000.0,,,,65a53ce092b4798f1b1ff5bb,09:07:04,27/02/2024
html-keyboard-response,32,58824,0.0-13.0-3.0,,<div style='margin:auto;width: auto; font-size: 150%'><span style='font-weight: bold; font-size: 100px; color: green;'>+10 points!</span><br><br></div>,,delaylearn,learning,feedback_image_window,41hWcgihi1bNV7dKFLA00W7hVL43,41hWcgihi1bNV7dKFLA00W7hVL43,,,,,,,,,,,,,,,,,,,,,,65a53ce092b4798f1b1ff5bb,09:07:04,27/02/2024
html-button-response,33,61946,0.0-14.0,3120.7999999523163,"
  <div style=""display: flex; align-items: center; justify-content: center; height: 80vh;"">
  <div>
          <img src=""images/inst_demo_finish.png"" style=""width: 80vw; height:auto;"">
          <br><br>
      </div>
      <br><br>
  </div>",0,,,,41hWcgihi1bNV7dKFLA00W7hVL43,,,,,,,,,,,,,,,,,,,,,,,65a53ce092b4798f1b1ff5bb,09:07:04,27/02/2024
html-keyboard-response,34,69591,0.0-15.0,7643.899999976158,"
  <div style=""display: flex; align-items: center; justify-content: center; height: 80vh;"">
  <div>
          <img src=""images/inst_6.png"" style=""width: 80vw; height:auto;"">
          <br><br>
      </div>
      <br><br>
  </div>",f,,,,41hWcgihi1bNV7dKFLA00W7hVL43,,,,,,,,,,,,,,,,,,,,,,,65a53ce092b4798f1b1ff5bb,09:07:04,27/02/2024
html-keyboard-response,35,72607,0.0-16.0,,"<div style=""font-size:100px;"">+</div>",,delaylearn,learning,pre_fixation,41hWcgihi1bNV7dKFLA00W7hVL43,,,,,,,,,,,,,,,,,,,,,,,65a53ce092b4798f1b1ff5bb,09:07:04,27/02/2024
html-keyboard-response,36,74370,0.0-17.0,,"<div style=""font-size:100px;"">+</div>",,delaylearn,learning,ITI,41hWcgihi1bNV7dKFLA00W7hVL43,41hWcgihi1bNV7dKFLA00W7hVL43,,,,,,,,,,,,,,,,,,,1753.0,,,65a53ce092b4798f1b1ff5bb,09:07:04,27/02/2024
html-keyboard-response,37,75227,0.0-18.0-0.0,855.7999999523163,"<div style=""display: flex; flex-direction: column; align-items: center; margin-top: -40px;""><img src=""images/pattern_3.png"" style=""width: 234px; height: 230px; margin-top: -50px;""><div style=""display: flex; justify-content: space-between; margin-top: 33px;""><img src=""images/choice_trial_16.png"" style=""width: 408px; height: 417px; margin-right: 200px;""><img src=""images/choice_trial_6.png"" style=""width: 408px; height: 417px;""></div></div>",f,delaylearn,learning,trial,41hWcgihi1bNV7dKFLA00W7hVL43,41hWcgihi1bNV7dKFLA00W7hVL43,4.0,images/choice_trial_16.png,images/choice_trial_6.png,images/pattern_3.png,f,f,7000.0,16.0,6.0,2.0,0.0,7.0,1.0,1.0,16.0,30.0,,,,,,65a53ce092b4798f1b1ff5bb,09:07:04,27/02/2024
html-keyboard-response,38,76245,0.0-18.0-1.0,,"<div style=""display: flex; flex-direction: column; align-items: center; margin-top: -40px;""><img src=""images/pattern_3.png"" style=""width: 234px; height: 230px; margin-top: -50px;""><div style=""display: flex; justify-content: space-between; margin-top: 33px;""><img src=""images/choice_trial_16.png"" style=""width: 408px; height: 417px; margin-right: 608px;""></div></div>",,delaylearn,learning,display_response,41hWcgihi1bNV7dKFLA00W7hVL43,41hWcgihi1bNV7dKFLA00W7hVL43,,,,,,,,,,,,,,,,,chosen stimuli: images/choice_trial_16.png,,,,,65a53ce092b4798f1b1ff5bb,09:07:04,27/02/2024
html-keyboard-response,39,83248,0.0-18.0-2.0,,,,delaylearn,learning,feedback_duration_window,41hWcgihi1bNV7dKFLA00W7hVL43,41hWcgihi1bNV7dKFLA00W7hVL43,,,,,,,,,,,,,,,,,,7000.0,,,,65a53ce092b4798f1b1ff5bb,09:07:04,27/02/2024
html-keyboard-response,40,84751,0.0-18.0-3.0,,<div style='margin:auto;width: auto; font-size: 150%'><span style='font-weight: bold; font-size: 100px; color: green;'>+10 points!</span><br><br></div>,,delaylearn,learning,feedback_image_window,41hWcgihi1bNV7dKFLA00W7hVL43,41hWcgihi1bNV7dKFLA00W7hVL43,,,,,,,,,,,,,,,,,,,,,,65a53ce092b4798f1b1ff5bb,09:07:04,27/02/2024
html-keyboard-response,41,86976,0.0-19.0,,"<div style=""font-size:100px;"">+</div>",,delaylearn,learning,ITI,41hWcgihi1bNV7dKFLA00W7hVL43,41hWcgihi1bNV7dKFLA00W7hVL43,,,,,,,,,,,,,,,,,,,2224.0,,,65a53ce092b4798f1b1ff5bb,09:07:04,27/02/2024
html-keyboard-response,42,88895,0.0-20.0-0.0,1917.5,"<div style=""display: flex; flex-direction: column; align-items: center; margin-top: -40px;""><img src=""images/pattern_7.png"" style=""width: 234px; height: 230px; margin-top: -50px;""><div style=""display: flex; justify-content: space-between; margin-top: 33px;""><img src=""images/choice_trial_4.png"" style=""width: 408px; height: 417px; margin-right: 200px;""><img src=""images/choice_trial_13.png"" style=""width: 408px; height: 417px;""></div></div>",f,delaylearn,learning,trial,41hWcgihi1bNV7dKFLA00W7hVL43,41hWcgihi1bNV7dKFLA00W7hVL43,4.0,images/choice_trial_4.png,images/choice_trial_13.png,images/pattern_7.png,j,j,750.0,4.0,13.0,6.0,1.0,8.0,0.0,0.0,4.0,30.0,,,,,,65a53ce092b4798f1b1ff5bb,09:07:04,27/02/2024
html-keyboard-response,43,89905,0.0-20.0-1.0,,"<div style=""display: flex; flex-direction: column; align-items: center; margin-top: -40px;""><img src=""images/pattern_7.png"" style=""width: 234px; height: 230px; margin-top: -50px;""><div style=""display: flex; justify-content: space-between; margin-top: 33px;""><img src=""images/choice_trial_4.png"" style=""width: 408px; height: 417px; margin-right: 608px;""></div></div>",,delaylearn,learning,display_response,41hWcgihi1bNV7dKFLA00W7hVL43,41hWcgihi1bNV7dKFLA00W7hVL43,,,,,,,,,,,,,,,,,chosen stimuli: images/choice_trial_4.png,,,,,65a53ce092b4798f1b1ff5bb,09:07:04,27/02/2024
html-keyboard-response,44,90660,0.0-20.0-2.0,,,,delaylearn,learning,feedback_duration_window,41hWcgihi1bNV7dKFLA00W7hVL43,41hWcgihi1bNV7dKFLA00W7hVL43,,,,,,,,,,,,,,,,,,750.0,,,,65a53ce092b4798f1b1ff5bb,09:07:04,27/02/2024
html-keyboard-response,45,92162,0.0-20.0-3.0,,<div style='margin:auto;width: auto; font-size: 150%'><span style='font-weight: bold; font-size: 100px; color: red;'>0 points!</span><br><br></div>,,delaylearn,learning,feedback_image_window,41hWcgihi1bNV7dKFLA00W7hVL43,41hWcgihi1bNV7dKFLA00W7hVL43,,,,,,,,,,,,,,,,,,,,,,65a53ce092b4798f1b1ff5bb,09:07:04,27/02/2024
html-keyboard-response,46,93921,0.0-21.0,,"<div style=""font-size:100px;"">+</div>",,delaylearn,learning,ITI,41hWcgihi1bNV7dKFLA00W7hVL43,41hWcgihi1bNV7dKFLA00W7hVL43,,,,,,,,,,,,,,,,,,,1749.0,,,65a53ce092b4798f1b1ff5bb,09:07:04,27/02/2024
html-keyboard-response,47,95687,0.0-22.0-0.0,1764.8999999761581,"<div style=""display: flex; flex-direction: column; align-items: center; margin-top: -40px;""><img src=""images/pattern_4.png"" style=""width: 234px; height: 230px; margin-top: -50px;""><div style=""display: flex; justify-content: space-between; margin-top: 33px;""><img src=""images/choice_trial_8.png"" style=""width: 408px; height: 417px; margin-right: 200px;""><img src=""images/choice_trial_7.png"" style=""width: 408px; height: 417px;""></div></div>",j,delaylearn,learning,trial,41hWcgihi1bNV7dKFLA00W7hVL43,41hWcgihi1bNV7dKFLA00W7hVL43,4.0,images/choice_trial_8.png,images/choice_trial_7.png,images/pattern_4.png,f,f,7000.0,8.0,7.0,3.0,0.0,9.0,0.0,0.0,7.0,30.0,,,,,,65a53ce092b4798f1b1ff5bb,09:07:04,27/02/2024
html-keyboard-response,48,96701,0.0-22.0-1.0,,"<div style=""display: flex; flex-direction: column; align-items: center; margin-top: -40px;""><img src=""images/pattern_4.png"" style=""width: 234px; height: 230px; margin-top: -50px;""><div style=""display: flex; justify-content: space-between; margin-top: 33px;""><img src=""images/choice_trial_7.png"" style=""width: 408px; height: 417px; margin-left:608px;""></div></div>",,delaylearn,learning,display_response,41hWcgihi1bNV7dKFLA00W7hVL43,41hWcgihi1bNV7dKFLA00W7hVL43,,,,,,,,,,,,,,,,,chosen stimuli: images/choice_trial_7.png,,,,,65a53ce092b4798f1b1ff5bb,09:07:04,27/02/2024
html-keyboard-response,49,103710,0.0-22.0-2.0,,,,delaylearn,learning,feedback_duration_window,41hWcgihi1bNV7dKFLA00W7hVL43,41hWcgihi1bNV7dKFLA00W7hVL43,,,,,,,,,,,,,,,,,,7000.0,,,,65a53ce092b4798f1b1ff5bb,09:07:04,27/02/2024
html-keyboard-response,50,105218,0.0-22.0-3.0,,<div style='margin:auto;width: auto; font-size: 150%'><span style='font-weight: bold; font-size: 100px; color: red;'>0 points!</span><br><br></div>,,delaylearn,learning,feedback_image_window,41hWcgihi1bNV7dKFLA00W7hVL43,41hWcgihi1bNV7dKFLA00W7hVL43,,,,,,,,,,,,,,,,,,,,,,65a53ce092b4798f1b1ff5bb,09:07:04,27/02/2024
html-keyboard-response,51,107050,0.0-23.0,,"<div style=""font-size:100px;"">+</div>",,delaylearn,learning,ITI,41hWcgihi1bNV7dKFLA00W7hVL43,41hWcgihi1bNV7dKFLA00W7hVL43,,,,,,,,,,,,,,,,,,,1816.0,,,65a53ce092b4798f1b1ff5bb,09:07:04,27/02/2024
html-keyboard-response,52,108375,0.0-24.0-0.0,1323.8999999761581,"<div style=""display: flex; flex-direction: column; align-items: center; margin-top: -40px;""><img src=""images/pattern_5.png"" style=""width: 234px; height: 230px; margin-top: -50px;""><div style=""display: flex; justify-content: space-between; margin-top: 33px;""><img src=""images/choice_trial_15.png"" style=""width: 408px; height: 417px; margin-right: 200px;""><img src=""images/choice_trial_5.png"" style=""width: 408px; height: 417px;""></div></div>",j,delaylearn,learning,trial,41hWcgihi1bNV7dKFLA00W7hVL43,41hWcgihi1bNV7dKFLA00W7hVL43,4.0,images/choice_trial_15.png,images/choice_trial_5.png,images/pattern_5.png,j,j,750.0,15.0,5.0,4.0,1.0,10.0,1.0,1.0,5.0,40.0,,,,,,65a53ce092b4798f1b1ff5bb,09:07:04,27/02/2024
html-keyboard-response,53,109387,0.0-24.0-1.0,,"<div style=""display: flex; flex-direction: column; align-items: center; margin-top: -40px;""><img src=""images/pattern_5.png"" style=""width: 234px; height: 230px; margin-top: -50px;""><div style=""display: flex; justify-content: space-between; margin-top: 33px;""><img src=""images/choice_trial_5.png"" style=""width: 408px; height: 417px; margin-left:608px;""></div></div>",,delaylearn,learning,display_response,41hWcgihi1bNV7dKFLA00W7hVL43,41hWcgihi1bNV7dKFLA00W7hVL43,,,,,,,,,,,,,,,,,chosen stimuli: images/choice_trial_5.png,,,,,65a53ce092b4798f1b1ff5bb,09:07:04,27/02/2024
html-keyboard-response,54,110148,0.0-24.0-2.0,,,,delaylearn,learning,feedback_duration_window,41hWcgihi1bNV7dKFLA00W7hVL43,41hWcgihi1bNV7dKFLA00W7hVL43,,,,,,,,,,,,,,,,,,750.0,,,,65a53ce092b4798f1b1ff5bb,09:07:04,27/02/2024
html-keyboard-response,55,111651,0.0-24.0-3.0,,<div style='margin:auto;width: auto; font-size: 150%'><span style='font-weight: bold; font-size: 100px; color: green;'>+10 points!</span><br><br></div>,,delaylearn,learning,feedback_image_window,41hWcgihi1bNV7dKFLA00W7hVL43,41hWcgihi1bNV7dKFLA00W7hVL43,,,,,,,,,,,,,,,,,,,,,,65a53ce092b4798f1b1ff5bb,09:07:04,27/02/2024
html-keyboard-response,56,113201,0.0-25.0,,"<div style=""font-size:100px;"">+</div>",,delaylearn,learning,ITI,41hWcgihi1bNV7dKFLA00W7hVL43,41hWcgihi1bNV7dKFLA00W7hVL43,,,,,,,,,,,,,,,,,,,1544.0,,,65a53ce092b4798f1b1ff5bb,09:07:04,27/02/2024
html-keyboard-response,57,114710,0.0-26.0-0.0,1507.9000000953674,"<div style=""display: flex; flex-direction: column; align-items: center; margin-top: -40px;""><img src=""images/pattern_6.png"" style=""width: 234px; height: 230px; margin-top: -50px;""><div style=""display: flex; justify-content: space-between; margin-top: 33px;""><img src=""images/choice_trial_10.png"" style=""width: 408px; height: 417px; margin-right: 200px;""><img src=""images/choice_trial_3.png"" style=""width: 408px; height: 417px;""></div></div>",f,delaylearn,learning,trial,41hWcgihi1bNV7dKFLA00W7hVL43,41hWcgihi1bNV7dKFLA00W7hVL43,4.0,images/choice_trial_10.png,images/choice_trial_3.png,images/pattern_6.png,j,f,750.0,10.0,3.0,5.0,0.0,11.0,1.0,0.0,10.0,40.0,,,,,,65a53ce092b4798f1b1ff5bb,09:07:04,27/02/2024
html-keyboard-response,58,115721,0.0-26.0-1.0,,"<div style=""display: flex; flex-direction: column; align-items: center; margin-top: -40px;""><img src=""images/pattern_6.png"" style=""width: 234px; height: 230px; margin-top: -50px;""><div style=""display: flex; justify-content: space-between; margin-top: 33px;""><img src=""images/choice_trial_10.png"" style=""width: 408px; height: 417px; margin-right: 608px;""></div></div>",,delaylearn,learning,display_response,41hWcgihi1bNV7dKFLA00W7hVL43,41hWcgihi1bNV7dKFLA00W7hVL43,,,,,,,,,,,,,,,,,chosen stimuli: images/choice_trial_10.png,,,,,65a53ce092b4798f1b1ff5bb,09:07:04,27/02/2024
html-keyboard-response,59,116480,0.0-26.0-2.0,,,,delaylearn,learning,feedback_duration_window,41hWcgihi1bNV7dKFLA00W7hVL43,41hWcgihi1bNV7dKFLA00W7hVL43,,,,,,,,,,,,,,,,,,750.0,,,,65a53ce092b4798f1b1ff5bb,09:07:04,27/02/2024
html-keyboard-response,60,117988,0.0-26.0-3.0,,<div style='margin:auto;width: auto; font-size: 150%'><span style='font-weight: bold; font-size: 100px; color: red;'>0 points!</span><br><br></div>,,delaylearn,learning,feedback_image_window,41hWcgihi1bNV7dKFLA00W7hVL43,41hWcgihi1bNV7dKFLA00W7hVL43,,,,,,,,,,,,,,,,,,,,,,65a53ce092b4798f1b1ff5bb,09:07:04,27/02/2024
html-keyboard-response,61,118492,0.0-27.0-0.0,,,,,,mood_trial_fixation,41hWcgihi1bNV7dKFLA00W7hVL43,,,,,,,,,,,,,,,,,,,,,,,65a53ce092b4798f1b1ff5bb,09:07:04,27/02/2024
lmdlab-html-vas-response,62,123991,0.0-27.0-1.0,4486.0,How happy are you right now?,0.5462962962962963,delaylearn,learning,mood_trial,41hWcgihi1bNV7dKFLA00W7hVL43,41hWcgihi1bNV7dKFLA00W7hVL43,,,,,,,,,,,,,,,,,,,,"['Very unhappy', 'Very happy']",,65a53ce092b4798f1b1ff5bb,09:07:04,27/02/2024
html-keyboard-response,63,125520,0.0-28.0,,"<div style=""font-size:100px;"">+</div>",,delaylearn,learning,ITI,41hWcgihi1bNV7dKFLA00W7hVL43,41hWcgihi1bNV7dKFLA00W7hVL43,,,,,,,,,,,,,,,,,,,1524.0,,,65a53ce092b4798f1b1ff5bb,09:07:04,27/02/2024
html-keyboard-response,64,126610,0.0-29.0-0.0,1088.3000000715256,"<div style=""display: flex; flex-direction: column; align-items: center; margin-top: -40px;""><img src=""images/pattern_1.png"" style=""width: 234px; height: 230px; margin-top: -50px;""><div style=""display: flex; justify-content: space-between; margin-top: 33px;""><img src=""images/choice_trial_9.png"" style=""width: 408px; height: 417px; margin-right: 200px;""><img src=""images/choice_trial_1.png"" style=""width: 408px; height: 417px;""></div></div>",f,delaylearn,learning,trial,41hWcgihi1bNV7dKFLA00W7hVL43,41hWcgihi1bNV7dKFLA00W7hVL43,4.0,images/choice_trial_9.png,images/choice_trial_1.png,images/pattern_1.png,j,j,7000.0,9.0,1.0,1.0,1.0,12.0,0.0,0.0,9.0,40.0,,,,,,65a53ce092b4798f1b1ff5bb,09:07:04,27/02/2024
html-keyboard-response,65,127624,0.0-29.0-1.0,,"<div style=""display: flex; flex-direction: column; align-items: center; margin-top: -40px;""><img src=""images/pattern_1.png"" style=""width: 234px; height: 230px; margin-top: -50px;""><div style=""display: flex; justify-content: space-between; margin-top: 33px;""><img src=""images/choice_trial_9.png"" style=""width: 408px; height: 417px; margin-right: 608px;""></div></div>",,delaylearn,learning,display_response,41hWcgihi1bNV7dKFLA00W7hVL43,41hWcgihi1bNV7dKFLA00W7hVL43,,,,,,,,,,,,,,,,,chosen stimuli: images/choice_trial_9.png,,,,,65a53ce092b4798f1b1ff5bb,09:07:04,27/02/2024
html-keyboard-response,66,134630,0.0-29.0-2.0,,,,delaylearn,learning,feedback_duration_window,41hWcgihi1bNV7dKFLA00W7hVL43,41hWcgihi1bNV7dKFLA00W7hVL43,,,,,,,,,,,,,,,,,,7000.0,,,,65a53ce092b4798f1b1ff5bb,09:07:04,27/02/2024
html-keyboard-response,67,136142,0.0-29.0-3.0,,<div style='margin:auto;width: auto; font-size: 150%'><span style='font-weight: bold; font-size: 100px; color: red;'>0 points!</span><br><br></div>,,delaylearn,learning,feedback_image_window,41hWcgihi1bNV7dKFLA00W7hVL43,41hWcgihi1bNV7dKFLA00W7hVL43,,,,,,,,,,,,,,,,,,,,,,65a53ce092b4798f1b1ff5bb,09:07:04,27/02/2024
html-keyboard-response,68,138167,0.0-30.0,,"<div style=""font-size:100px;"">+</div>",,delaylearn,learning,ITI,41hWcgihi1bNV7dKFLA00W7hVL43,41hWcgihi1bNV7dKFLA00W7hVL43,,,,,,,,,,,,,,,,,,,2010.0,,,65a53ce092b4798f1b1ff5bb,09:07:04,27/02/2024
html-keyboard-response,69,138747,0.0-31.0-0.0,577.7999999523163,"<div style=""display: flex; flex-direction: column; align-items: center; margin-top: -40px;""><img src=""images/pattern_3.png"" style=""width: 234px; height: 230px; margin-top: -50px;""><div style=""display: flex; justify-content: space-between; margin-top: 33px;""><img src=""images/choice_trial_6.png"" style=""width: 408px; height: 417px; margin-right: 200px;""><img src=""images/choice_trial_16.png"" style=""width: 408px; height: 417px;""></div></div>",j,delaylearn,learning,trial,41hWcgihi1bNV7dKFLA00W7hVL43,41hWcgihi1bNV7dKFLA00W7hVL43,4.0,images/choice_trial_6.png,images/choice_trial_16.png,images/pattern_3.png,f,j,7000.0,6.0,16.0,2.0,1.0,13.0,1.0,0.0,16.0,40.0,,,,,,65a53ce092b4798f1b1ff5bb,09:07:04,27/02/2024
html-keyboard-response,70,139749,0.0-31.0-1.0,,"<div style=""display: flex; flex-direction: column; align-items: center; margin-top: -40px;""><img src=""images/pattern_3.png"" style=""width: 234px; height: 230px; margin-top: -50px;""><div style=""display: flex; justify-content: space-between; margin-top: 33px;""><img src=""images/choice_trial_16.png"" style=""width: 408px; height: 417px; margin-left:608px;""></div></div>",,delaylearn,learning,display_response,41hWcgihi1bNV7dKFLA00W7hVL43,41hWcgihi1bNV7dKFLA00W7hVL43,,,,,,,,,,,,,,,,,chosen stimuli: images/choice_trial_16.png,,,,,65a53ce092b4798f1b1ff5bb,09:07:04,27/02/2024
html-keyboard-response,71,146762,0.0-31.0-2.0,,,,delaylearn,learning,feedback_duration_window,41hWcgihi1bNV7dKFLA00W7hVL43,41hWcgihi1bNV7dKFLA00W7hVL43,,,,,,,,,,,,,,,,,,7000.0,,,,65a53ce092b4798f1b1ff5bb,09:07:04,27/02/2024
html-keyboard-response,72,148278,0.0-31.0-3.0,,<div style='margin:auto;width: auto; font-size: 150%'><span style='font-weight: bold; font-size: 100px; color: red;'>0 points!</span><br><br></div>,,delaylearn,learning,feedback_image_window,41hWcgihi1bNV7dKFLA00W7hVL43,41hWcgihi1bNV7dKFLA00W7hVL43,,,,,,,,,,,,,,,,,,,,,,65a53ce092b4798f1b1ff5bb,09:07:04,27/02/2024
html-keyboard-response,73,149899,0.0-32.0,,"<div style=""font-size:100px;"">+</div>",,delaylearn,learning,ITI,41hWcgihi1bNV7dKFLA00W7hVL43,41hWcgihi1bNV7dKFLA00W7hVL43,,,,,,,,,,,,,,,,,,,1609.0,,,65a53ce092b4798f1b1ff5bb,09:07:04,27/02/2024
html-keyboard-response,74,152580,0.0-33.0-0.0,2680.0,"<div style=""display: flex; flex-direction: column; align-items: center; margin-top: -40px;""><img src=""images/pattern_5.png"" style=""width: 234px; height: 230px; margin-top: -50px;""><div style=""display: flex; justify-content: space-between; margin-top: 33px;""><img src=""images/choice_trial_5.png"" style=""width: 408px; height: 417px; margin-right: 200px;""><img src=""images/choice_trial_15.png"" style=""width: 408px; height: 417px;""></div></div>",j,delaylearn,learning,trial,41hWcgihi1bNV7dKFLA00W7hVL43,41hWcgihi1bNV7dKFLA00W7hVL43,4.0,images/choice_trial_5.png,images/choice_trial_15.png,images/pattern_5.png,f,f,750.0,5.0,15.0,4.0,0.0,14.0,0.0,0.0,15.0,40.0,,,,,,65a53ce092b4798f1b1ff5bb,09:07:04,27/02/2024
html-keyboard-response,75,153585,0.0-33.0-1.0,,"<div style=""display: flex; flex-direction: column; align-items: center; margin-top: -40px;""><img src=""images/pattern_5.png"" style=""width: 234px; height: 230px; margin-top: -50px;""><div style=""display: flex; justify-content: space-between; margin-top: 33px;""><img src=""images/choice_trial_15.png"" style=""width: 408px; height: 417px; margin-left:608px;""></div></div>",,delaylearn,learning,display_response,41hWcgihi1bNV7dKFLA00W7hVL43,41hWcgihi1bNV7dKFLA00W7hVL43,,,,,,,,,,,,,,,,,chosen stimuli: images/choice_trial_15.png,,,,,65a53ce092b4798f1b1ff5bb,09:07:04,27/02/2024
html-keyboard-response,76,154345,0.0-33.0-2.0,,,,delaylearn,learning,feedback_duration_window,41hWcgihi1bNV7dKFLA00W7hVL43,41hWcgihi1bNV7dKFLA00W7hVL43,,,,,,,,,,,,,,,,,,750.0,,,,65a53ce092b4798f1b1ff5bb,09:07:04,27/02/2024
html-keyboard-response,77,155848,0.0-33.0-3.0,,<div style='margin:auto;width: auto; font-size: 150%'><span style='font-weight: bold; font-size: 100px; color: red;'>0 points!</span><br><br></div>,,delaylearn,learning,feedback_image_window,41hWcgihi1bNV7dKFLA00W7hVL43,41hWcgihi1bNV7dKFLA00W7hVL43,,,,,,,,,,,,,,,,,,,,,,65a53ce092b4798f1b1ff5bb,09:07:04,27/02/2024
html-keyboard-response,78,156362,0.0-34.0-0.0,,,,,,mood_trial_fixation,41hWcgihi1bNV7dKFLA00W7hVL43,,,,,,,,,,,,,,,,,,,,,,,65a53ce092b4798f1b1ff5bb,09:07:04,27/02/2024
lmdlab-html-vas-response,79,161831,0.0-34.0-1.0,4451.0,How happy are you right now?,0.08179012345679013,delaylearn,learning,mood_trial,41hWcgihi1bNV7dKFLA00W7hVL43,41hWcgihi1bNV7dKFLA00W7hVL43,,,,,,,,,,,,,,,,,,,,"['Very unhappy', 'Very happy']",,65a53ce092b4798f1b1ff5bb,09:07:04,27/02/2024
html-keyboard-response,80,163719,0.0-35.0,,"<div style=""font-size:100px;"">+</div>",,delaylearn,learning,ITI,41hWcgihi1bNV7dKFLA00W7hVL43,41hWcgihi1bNV7dKFLA00W7hVL43,,,,,,,,,,,,,,,,,,,1876.0,,,65a53ce092b4798f1b1ff5bb,09:07:04,27/02/2024
html-keyboard-response,81,165162,0.0-36.0-0.0,1442.1999999284744,"<div style=""display: flex; flex-direction: column; align-items: center; margin-top: -40px;""><img src=""images/pattern_6.png"" style=""width: 234px; height: 230px; margin-top: -50px;""><div style=""display: flex; justify-content: space-between; margin-top: 33px;""><img src=""images/choice_trial_10.png"" style=""width: 408px; height: 417px; margin-right: 200px;""><img src=""images/choice_trial_3.png"" style=""width: 408px; height: 417px;""></div></div>",j,delaylearn,learning,trial,41hWcgihi1bNV7dKFLA00W7hVL43,41hWcgihi1bNV7dKFLA00W7hVL43,4.0,images/choice_trial_10.png,images/choice_trial_3.png,images/pattern_6.png,f,f,750.0,10.0,3.0,5.0,0.0,15.0,0.0,0.0,3.0,40.0,,,,,,65a53ce092b4798f1b1ff5bb,09:07:04,27/02/2024
html-keyboard-response,82,166168,0.0-36.0-1.0,,"<div style=""display: flex; flex-direction: column; align-items: center; margin-top: -40px;""><img src=""images/pattern_6.png"" style=""width: 234px; height: 230px; margin-top: -50px;""><div style=""display: flex; justify-content: space-between; margin-top: 33px;""><img src=""images/choice_trial_3.png"" style=""width: 408px; height: 417px; margin-left:608px;""></div></div>",,delaylearn,learning,display_response,41hWcgihi1bNV7dKFLA00W7hVL43,41hWcgihi1bNV7dKFLA00W7hVL43,,,,,,,,,,,,,,,,,chosen stimuli: images/choice_trial_3.png,,,,,65a53ce092b4798f1b1ff5bb,09:07:04,27/02/2024
html-keyboard-response,83,166928,0.0-36.0-2.0,,,,delaylearn,learning,feedback_duration_window,41hWcgihi1bNV7dKFLA00W7hVL43,41hWcgihi1bNV7dKFLA00W7hVL43,,,,,,,,,,,,,,,,,,750.0,,,,65a53ce092b4798f1b1ff5bb,09:07:04,27/02/2024
html-keyboard-response,84,168434,0.0-36.0-3.0,,<div style='margin:auto;width: auto; font-size: 150%'><span style='font-weight: bold; font-size: 100px; color: red;'>0 points!</span><br><br></div>,,delaylearn,learning,feedback_image_window,41hWcgihi1bNV7dKFLA00W7hVL43,41hWcgihi1bNV7dKFLA00W7hVL43,,,,,,,,,,,,,,,,,,,,,,65a53ce092b4798f1b1ff5bb,09:07:04,27/02/2024
html-keyboard-response,85,170417,0.0-37.0,,"<div style=""font-size:100px;"">+</div>",,delaylearn,learning,ITI,41hWcgihi1bNV7dKFLA00W7hVL43,41hWcgihi1bNV7dKFLA00W7hVL43,,,,,,,,,,,,,,,,,,,1978.0,,,65a53ce092b4798f1b1ff5bb,09:07:04,27/02/2024
html-keyboard-response,86,171359,0.0-38.0-0.0,941.0,"<div style=""display: flex; flex-direction: column; align-items: center; margin-top: -40px;""><img src=""images/pattern_4.png"" style=""width: 234px; height: 230px; margin-top: -50px;""><div style=""display: flex; justify-content: space-between; margin-top: 33px;""><img src=""images/choice_trial_7.png"" style=""width: 408px; height: 417px; margin-right: 200px;""><img src=""images/choice_trial_8.png"" style=""width: 408px; height: 417px;""></div></div>",j,delaylearn,learning,trial,41hWcgihi1bNV7dKFLA00W7hVL43,41hWcgihi1bNV7dKFLA00W7hVL43,4.0,images/choice_trial_7.png,images/choice_trial_8.png,images/pattern_4.png,j,j,7000.0,7.0,8.0,3.0,1.0,16.0,1.0,1.0,8.0,50.0,,,,,,65a53ce092b4798f1b1ff5bb,09:07:04,27/02/2024
html-keyboard-response,87,172371,0.0-38.0-1.0,,"<div style=""display: flex; flex-direction: column; align-items: center; margin-top: -40px;""><img src=""images/pattern_4.png"" style=""width: 234px; height: 230px; margin-top: -50px;""><div style=""display: flex; justify-content: space-between; margin-top: 33px;""><img src=""images/choice_trial_8.png"" style=""width: 408px; height: 417px; margin-left:608px;""></div></div>",,delaylearn,learning,display_response,41hWcgihi1bNV7dKFLA00W7hVL43,41hWcgihi1bNV7dKFLA00W7hVL43,,,,,,,,,,,,,,,,,chosen stimuli: images/choice_trial_8.png,,,,,65a53ce092b4798f1b1ff5bb,09:07:04,27/02/2024
html-keyboard-response,88,179387,0.0-38.0-2.0,,,,delaylearn,learning,feedback_duration_window,41hWcgihi1bNV7dKFLA00W7hVL43,41hWcgihi1bNV7dKFLA00W7hVL43,,,,,,,,,,,,,,,,,,7000.0,,,,65a53ce092b4798f1b1ff5bb,09:07:04,27/02/2024
html-keyboard-response,89,180892,0.0-38.0-3.0,,<div style='margin:auto;width: auto; font-size: 150%'><span style='font-weight: bold; font-size: 100px; color: green;'>+10 points!</span><br><br></div>,,delaylearn,learning,feedback_image_window,41hWcgihi1bNV7dKFLA00W7hVL43,41hWcgihi1bNV7dKFLA00W7hVL43,,,,,,,,,,,,,,,,,,,,,,65a53ce092b4798f1b1ff5bb,09:07:04,27/02/2024
html-keyboard-response,90,182483,0.0-39.0,,"<div style=""font-size:100px;"">+</div>",,delaylearn,learning,ITI,41hWcgihi1bNV7dKFLA00W7hVL43,41hWcgihi1bNV7dKFLA00W7hVL43,,,,,,,,,,,,,,,,,,,1591.0,,,65a53ce092b4798f1b1ff5bb,09:07:04,27/02/2024
html-keyboard-response,91,185487,0.0-40.0-0.0,,"<div style=""display: flex; flex-direction: column; align-items: center; margin-top: -40px;""><img src=""images/pattern_7.png"" style=""width: 234px; height: 230px; margin-top: -50px;""><div style=""display: flex; justify-content: space-between; margin-top: 33px;""><img src=""images/choice_trial_13.png"" style=""width: 408px; height: 417px; margin-right: 200px;""><img src=""images/choice_trial_4.png"" style=""width: 408px; height: 417px;""></div></div>",,delaylearn,learning,trial,41hWcgihi1bNV7dKFLA00W7hVL43,41hWcgihi1bNV7dKFLA00W7hVL43,4.0,images/choice_trial_13.png,images/choice_trial_4.png,images/pattern_7.png,j,f,750.0,13.0,4.0,6.0,0.0,17.0,0.0,0.0,0.0,50.0,,,,,,65a53ce092b4798f1b1ff5bb,09:07:04,27/02/2024
html-keyboard-response,92,186495,0.0-40.0-1.0,,<div style='font-weight: bold; font-size: 75px; color: red;'>Missed Trial <br><br><br><br> Please respond faster</div>,,delaylearn,learning,display_response,41hWcgihi1bNV7dKFLA00W7hVL43,41hWcgihi1bNV7dKFLA00W7hVL43,,,,,,,,,,,,,,,,,Missed trial,,,,,65a53ce092b4798f1b1ff5bb,09:07:04,27/02/2024
html-keyboard-response,93,186501,0.0-40.0-2.0,,,,delaylearn,learning,feedback_duration_window,41hWcgihi1bNV7dKFLA00W7hVL43,41hWcgihi1bNV7dKFLA00W7hVL43,,,,,,,,,,,,,,,,,,0.0,,,,65a53ce092b4798f1b1ff5bb,09:07:04,27/02/2024
html-keyboard-response,94,186506,0.0-40.0-3.0,,,,delaylearn,learning,feedback_image_window,41hWcgihi1bNV7dKFLA00W7hVL43,41hWcgihi1bNV7dKFLA00W7hVL43,,,,,,,,,,,,,,,,,,,,,,65a53ce092b4798f1b1ff5bb,09:07:04,27/02/2024
html-keyboard-response,95,188617,0.0-41.0,,"<div style=""font-size:100px;"">+</div>",,delaylearn,learning,ITI,41hWcgihi1bNV7dKFLA00W7hVL43,41hWcgihi1bNV7dKFLA00W7hVL43,,,,,,,,,,,,,,,,,,,2098.0,,,65a53ce092b4798f1b1ff5bb,09:07:04,27/02/2024
html-keyboard-response,96,189336,0.0-42.0-0.0,717.3999999761581,"<div style=""display: flex; flex-direction: column; align-items: center; margin-top: -40px;""><img src=""images/pattern_1.png"" style=""width: 234px; height: 230px; margin-top: -50px;""><div style=""display: flex; justify-content: space-between; margin-top: 33px;""><img src=""images/choice_trial_1.png"" style=""width: 408px; height: 417px; margin-right: 200px;""><img src=""images/choice_trial_9.png"" style=""width: 408px; height: 417px;""></div></div>",j,delaylearn,learning,trial,41hWcgihi1bNV7dKFLA00W7hVL43,41hWcgihi1bNV7dKFLA00W7hVL43,4.0,images/choice_trial_1.png,images/choice_trial_9.png,images/pattern_1.png,f,f,7000.0,1.0,9.0,1.0,0.0,18.0,0.0,0.0,9.0,50.0,,,,,,65a53ce092b4798f1b1ff5bb,09:07:04,27/02/2024
html-keyboard-response,97,190338,0.0-42.0-1.0,,"<div style=""display: flex; flex-direction: column; align-items: center; margin-top: -40px;""><img src=""images/pattern_1.png"" style=""width: 234px; height: 230px; margin-top: -50px;""><div style=""display: flex; justify-content: space-between; margin-top: 33px;""><img src=""images/choice_trial_9.png"" style=""width: 408px; height: 417px; margin-left:608px;""></div></div>",,delaylearn,learning,display_response,41hWcgihi1bNV7dKFLA00W7hVL43,41hWcgihi1bNV7dKFLA00W7hVL43,,,,,,,,,,,,,,,,,chosen stimuli: images/choice_trial_9.png,,,,,65a53ce092b4798f1b1ff5bb,09:07:04,27/02/2024
html-keyboard-response,98,197347,0.0-42.0-2.0,,,,delaylearn,learning,feedback_duration_window,41hWcgihi1bNV7dKFLA00W7hVL43,41hWcgihi1bNV7dKFLA00W7hVL43,,,,,,,,,,,,,,,,,,7000.0,,,,65a53ce092b4798f1b1ff5bb,09:07:04,27/02/2024
html-keyboard-response,99,198852,0.0-42.0-3.0,,<div style='margin:auto;width: auto; font-size: 150%'><span style='font-weight: bold; font-size: 100px; color: red;'>0 points!</span><br><br></div>,,delaylearn,learning,feedback_image_window,41hWcgihi1bNV7dKFLA00W7hVL43,41hWcgihi1bNV7dKFLA00W7hVL43,,,,,,,,,,,,,,,,,,,,,,65a53ce092b4798f1b1ff5bb,09:07:04,27/02/2024
html-keyboard-response,100,201102,0.0-43.0,,"<div style=""font-size:100px;"">+</div>",,delaylearn,learning,ITI,41hWcgihi1bNV7dKFLA00W7hVL43,41hWcgihi1bNV7dKFLA00W7hVL43,,,,,,,,,,,,,,,,,,,2246.0,,,65a53ce092b4798f1b1ff5bb,09:07:04,27/02/2024
html-keyboard-response,101,203209,0.0-44.0-0.0,2105.5,"<div style=""display: flex; flex-direction: column; align-items: center; margin-top: -40px;""><img src=""images/pattern_6.png"" style=""width: 234px; height: 230px; margin-top: -50px;""><div style=""display: flex; justify-content: space-between; margin-top: 33px;""><img src=""images/choice_trial_3.png"" style=""width: 408px; height: 417px; margin-right: 200px;""><img src=""images/choice_trial_10.png"" style=""width: 408px; height: 417px;""></div></div>",j,delaylearn,learning,trial,41hWcgihi1bNV7dKFLA00W7hVL43,41hWcgihi1bNV7dKFLA00W7hVL43,4.0,images/choice_trial_3.png,images/choice_trial_10.png,images/pattern_6.png,j,j,750.0,3.0,10.0,5.0,1.0,19.0,1.0,1.0,10.0,60.0,,,,,,65a53ce092b4798f1b1ff5bb,09:07:04,27/02/2024
html-keyboard-response,102,204222,0.0-44.0-1.0,,"<div style=""display: flex; flex-direction: column; align-items: center; margin-top: -40px;""><img src=""images/pattern_6.png"" style=""width: 234px; height: 230px; margin-top: -50px;""><div style=""display: flex; justify-content: space-between; margin-top: 33px;""><img src=""images/choice_trial_10.png"" style=""width: 408px; height: 417px; margin-left:608px;""></div></div>",,delaylearn,learning,display_response,41hWcgihi1bNV7dKFLA00W7hVL43,41hWcgihi1bNV7dKFLA00W7hVL43,,,,,,,,,,,,,,,,,chosen stimuli: images/choice_trial_10.png,,,,,65a53ce092b4798f1b1ff5bb,09:07:04,27/02/2024
html-keyboard-response,103,204988,0.0-44.0-2.0,,,,delaylearn,learning,feedback_duration_window,41hWcgihi1bNV7dKFLA00W7hVL43,41hWcgihi1bNV7dKFLA00W7hVL43,,,,,,,,,,,,,,,,,,750.0,,,,65a53ce092b4798f1b1ff5bb,09:07:04,27/02/2024
html-keyboard-response,104,206492,0.0-44.0-3.0,,<div style='margin:auto;width: auto; font-size: 150%'><span style='font-weight: bold; font-size: 100px; color: green;'>+10 points!</span><br><br></div>,,delaylearn,learning,feedback_image_window,41hWcgihi1bNV7dKFLA00W7hVL43,41hWcgihi1bNV7dKFLA00W7hVL43,,,,,,,,,,,,,,,,,,,,,,65a53ce092b4798f1b1ff5bb,09:07:04,27/02/2024
html-keyboard-response,105,208948,0.0-45.0,,"<div style=""font-size:100px;"">+</div>",,delaylearn,learning,ITI,41hWcgihi1bNV7dKFLA00W7hVL43,41hWcgihi1bNV7dKFLA00W7hVL43,,,,,,,,,,,,,,,,,,,2451.0,,,65a53ce092b4798f1b1ff5bb,09:07:04,27/02/2024
html-keyboard-response,106,209777,0.0-46.0-0.0,826.8000000715256,"<div style=""display: flex; flex-direction: column; align-items: center; margin-top: -40px;""><img src=""images/pattern_4.png"" style=""width: 234px; height: 230px; margin-top: -50px;""><div style=""display: flex; justify-content: space-between; margin-top: 33px;""><img src=""images/choice_trial_8.png"" style=""width: 408px; height: 417px; margin-right: 200px;""><img src=""images/choice_trial_7.png"" style=""width: 408px; height: 417px;""></div></div>",j,delaylearn,learning,trial,41hWcgihi1bNV7dKFLA00W7hVL43,41hWcgihi1bNV7dKFLA00W7hVL43,4.0,images/choice_trial_8.png,images/choice_trial_7.png,images/pattern_4.png,f,f,7000.0,8.0,7.0,3.0,0.0,20.0,0.0,0.0,7.0,60.0,,,,,,65a53ce092b4798f1b1ff5bb,09:07:04,27/02/2024
html-keyboard-response,107,210779,0.0-46.0-1.0,,"<div style=""display: flex; flex-direction: column; align-items: center; margin-top: -40px;""><img src=""images/pattern_4.png"" style=""width: 234px; height: 230px; margin-top: -50px;""><div style=""display: flex; justify-content: space-between; margin-top: 33px;""><img src=""images/choice_trial_7.png"" style=""width: 408px; height: 417px; margin-left:608px;""></div></div>",,delaylearn,learning,display_response,41hWcgihi1bNV7dKFLA00W7hVL43,41hWcgihi1bNV7dKFLA00W7hVL43,,,,,,,,,,,,,,,,,chosen stimuli: images/choice_trial_7.png,,,,,65a53ce092b4798f1b1ff5bb,09:07:04,27/02/2024
html-keyboard-response,108,217793,0.0-46.0-2.0,,,,delaylearn,learning,feedback_duration_window,41hWcgihi1bNV7dKFLA00W7hVL43,41hWcgihi1bNV7dKFLA00W7hVL43,,,,,,,,,,,,,,,,,,7000.0,,,,65a53ce092b4798f1b1ff5bb,09:07:04,27/02/2024
html-keyboard-response,109,219296,0.0-46.0-3.0,,<div style='margin:auto;width: auto; font-size: 150%'><span style='font-weight: bold; font-size: 100px; color: red;'>0 points!</span><br><br></div>,,delaylearn,learning,feedback_image_window,41hWcgihi1bNV7dKFLA00W7hVL43,41hWcgihi1bNV7dKFLA00W7hVL43,,,,,,,,,,,,,,,,,,,,,,65a53ce092b4798f1b1ff5bb,09:07:04,27/02/2024
html-keyboard-response,110,219812,0.0-47.0-0.0,,,,,,mood_trial_fixation,41hWcgihi1bNV7dKFLA00W7hVL43,,,,,,,,,,,,,,,,,,,,,,,65a53ce092b4798f1b1ff5bb,09:07:04,27/02/2024
lmdlab-html-vas-response,111,224203,0.0-47.0-1.0,3382.0,How happy are you right now?,0.3333333333333333,delaylearn,learning,mood_trial,41hWcgihi1bNV7dKFLA00W7hVL43,41hWcgihi1bNV7dKFLA00W7hVL43,,,,,,,,,,,,,,,,,,,,"['Very unhappy', 'Very happy']",,65a53ce092b4798f1b1ff5bb,09:07:04,27/02/2024
html-keyboard-response,112,226564,0.0-48.0,,"<div style=""font-size:100px;"">+</div>",,delaylearn,learning,ITI,41hWcgihi1bNV7dKFLA00W7hVL43,41hWcgihi1bNV7dKFLA00W7hVL43,,,,,,,,,,,,,,,,,,,2359.0,,,65a53ce092b4798f1b1ff5bb,09:07:04,27/02/2024
html-keyboard-response,113,227888,0.0-49.0-0.0,1322.3999999761581,"<div style=""display: flex; flex-direction: column; align-items: center; margin-top: -40px;""><img src=""images/pattern_7.png"" style=""width: 234px; height: 230px; margin-top: -50px;""><div style=""display: flex; justify-content: space-between; margin-top: 33px;""><img src=""images/choice_trial_4.png"" style=""width: 408px; height: 417px; margin-right: 200px;""><img src=""images/choice_trial_13.png"" style=""width: 408px; height: 417px;""></div></div>",f,delaylearn,learning,trial,41hWcgihi1bNV7dKFLA00W7hVL43,41hWcgihi1bNV7dKFLA00W7hVL43,4.0,images/choice_trial_4.png,images/choice_trial_13.png,images/pattern_7.png,j,j,750.0,4.0,13.0,6.0,1.0,21.0,0.0,0.0,4.0,60.0,,,,,,65a53ce092b4798f1b1ff5bb,09:07:04,27/02/2024
html-keyboard-response,114,228897,0.0-49.0-1.0,,"<div style=""display: flex; flex-direction: column; align-items: center; margin-top: -40px;""><img src=""images/pattern_7.png"" style=""width: 234px; height: 230px; margin-top: -50px;""><div style=""display: flex; justify-content: space-between; margin-top: 33px;""><img src=""images/choice_trial_4.png"" style=""width: 408px; height: 417px; margin-right: 608px;""></div></div>",,delaylearn,learning,display_response,41hWcgihi1bNV7dKFLA00W7hVL43,41hWcgihi1bNV7dKFLA00W7hVL43,,,,,,,,,,,,,,,,,chosen stimuli: images/choice_trial_4.png,,,,,65a53ce092b4798f1b1ff5bb,09:07:04,27/02/2024
html-keyboard-response,115,229660,0.0-49.0-2.0,,,,delaylearn,learning,feedback_duration_window,41hWcgihi1bNV7dKFLA00W7hVL43,41hWcgihi1bNV7dKFLA00W7hVL43,,,,,,,,,,,,,,,,,,750.0,,,,65a53ce092b4798f1b1ff5bb,09:07:04,27/02/2024
html-keyboard-response,116,231174,0.0-49.0-3.0,,<div style='margin:auto;width: auto; font-size: 150%'><span style='font-weight: bold; font-size: 100px; color: red;'>0 points!</span><br><br></div>,,delaylearn,learning,feedback_image_window,41hWcgihi1bNV7dKFLA00W7hVL43,41hWcgihi1bNV7dKFLA00W7hVL43,,,,,,,,,,,,,,,,,,,,,,65a53ce092b4798f1b1ff5bb,09:07:04,27/02/2024
html-keyboard-response,117,233424,0.0-50.0,,"<div style=""font-size:100px;"">+</div>",,delaylearn,learning,ITI,41hWcgihi1bNV7dKFLA00W7hVL43,41hWcgihi1bNV7dKFLA00W7hVL43,,,,,,,,,,,,,,,,,,,2247.0,,,65a53ce092b4798f1b1ff5bb,09:07:04,27/02/2024
html-keyboard-response,118,234238,0.0-51.0-0.0,813.0,"<div style=""display: flex; flex-direction: column; align-items: center; margin-top: -40px;""><img src=""images/pattern_1.png"" style=""width: 234px; height: 230px; margin-top: -50px;""><div style=""display: flex; justify-content: space-between; margin-top: 33px;""><img src=""images/choice_trial_9.png"" style=""width: 408px; height: 417px; margin-right: 200px;""><img src=""images/choice_trial_1.png"" style=""width: 408px; height: 417px;""></div></div>",j,delaylearn,learning,trial,41hWcgihi1bNV7dKFLA00W7hVL43,41hWcgihi1bNV7dKFLA00W7hVL43,4.0,images/choice_trial_9.png,images/choice_trial_1.png,images/pattern_1.png,f,j,7000.0,9.0,1.0,1.0,1.0,22.0,1.0,0.0,1.0,60.0,,,,,,65a53ce092b4798f1b1ff5bb,09:07:04,27/02/2024
html-keyboard-response,119,235241,0.0-51.0-1.0,,"<div style=""display: flex; flex-direction: column; align-items: center; margin-top: -40px;""><img src=""images/pattern_1.png"" style=""width: 234px; height: 230px; margin-top: -50px;""><div style=""display: flex; justify-content: space-between; margin-top: 33px;""><img src=""images/choice_trial_1.png"" style=""width: 408px; height: 417px; margin-left:608px;""></div></div>",,delaylearn,learning,display_response,41hWcgihi1bNV7dKFLA00W7hVL43,41hWcgihi1bNV7dKFLA00W7hVL43,,,,,,,,,,,,,,,,,chosen stimuli: images/choice_trial_1.png,,,,,65a53ce092b4798f1b1ff5bb,09:07:04,27/02/2024
html-keyboard-response,120,242248,0.0-51.0-2.0,,,,delaylearn,learning,feedback_duration_window,41hWcgihi1bNV7dKFLA00W7hVL43,41hWcgihi1bNV7dKFLA00W7hVL43,,,,,,,,,,,,,,,,,,7000.0,,,,65a53ce092b4798f1b1ff5bb,09:07:04,27/02/2024
html-keyboard-response,121,243761,0.0-51.0-3.0,,<div style='margin:auto;width: auto; font-size: 150%'><span style='font-weight: bold; font-size: 100px; color: red;'>0 points!</span><br><br></div>,,delaylearn,learning,feedback_image_window,41hWcgihi1bNV7dKFLA00W7hVL43,41hWcgihi1bNV7dKFLA00W7hVL43,,,,,,,,,,,,,,,,,,,,,,65a53ce092b4798f1b1ff5bb,09:07:04,27/02/2024
html-keyboard-response,122,245440,0.0-52.0,,"<div style=""font-size:100px;"">+</div>",,delaylearn,learning,ITI,41hWcgihi1bNV7dKFLA00W7hVL43,41hWcgihi1bNV7dKFLA00W7hVL43,,,,,,,,,,,,,,,,,,,1677.0,,,65a53ce092b4798f1b1ff5bb,09:07:04,27/02/2024
html-keyboard-response,123,246317,0.0-53.0-0.0,875.1000000238419,"<div style=""display: flex; flex-direction: column; align-items: center; margin-top: -40px;""><img src=""images/pattern_5.png"" style=""width: 234px; height: 230px; margin-top: -50px;""><div style=""display: flex; justify-content: space-between; margin-top: 33px;""><img src=""images/choice_trial_15.png"" style=""width: 408px; height: 417px; margin-right: 200px;""><img src=""images/choice_trial_5.png"" style=""width: 408px; height: 417px;""></div></div>",j,delaylearn,learning,trial,41hWcgihi1bNV7dKFLA00W7hVL43,41hWcgihi1bNV7dKFLA00W7hVL43,4.0,images/choice_trial_15.png,images/choice_trial_5.png,images/pattern_5.png,j,j,750.0,15.0,5.0,4.0,1.0,23.0,1.0,1.0,5.0,70.0,,,,,,65a53ce092b4798f1b1ff5bb,09:07:04,27/02/2024
html-keyboard-response,124,247323,0.0-53.0-1.0,,"<div style=""display: flex; flex-direction: column; align-items: center; margin-top: -40px;""><img src=""images/pattern_5.png"" style=""width: 234px; height: 230px; margin-top: -50px;""><div style=""display: flex; justify-content: space-between; margin-top: 33px;""><img src=""images/choice_trial_5.png"" style=""width: 408px; height: 417px; margin-left:608px;""></div></div>",,delaylearn,learning,display_response,41hWcgihi1bNV7dKFLA00W7hVL43,41hWcgihi1bNV7dKFLA00W7hVL43,,,,,,,,,,,,,,,,,chosen stimuli: images/choice_trial_5.png,,,,,65a53ce092b4798f1b1ff5bb,09:07:04,27/02/2024
html-keyboard-response,125,248077,0.0-53.0-2.0,,,,delaylearn,learning,feedback_duration_window,41hWcgihi1bNV7dKFLA00W7hVL43,41hWcgihi1bNV7dKFLA00W7hVL43,,,,,,,,,,,,,,,,,,750.0,,,,65a53ce092b4798f1b1ff5bb,09:07:04,27/02/2024
html-keyboard-response,126,249587,0.0-53.0-3.0,,<div style='margin:auto;width: auto; font-size: 150%'><span style='font-weight: bold; font-size: 100px; color: green;'>+10 points!</span><br><br></div>,,delaylearn,learning,feedback_image_window,41hWcgihi1bNV7dKFLA00W7hVL43,41hWcgihi1bNV7dKFLA00W7hVL43,,,,,,,,,,,,,,,,,,,,,,65a53ce092b4798f1b1ff5bb,09:07:04,27/02/2024
html-keyboard-response,127,251832,0.0-54.0,,"<div style=""font-size:100px;"">+</div>",,delaylearn,learning,ITI,41hWcgihi1bNV7dKFLA00W7hVL43,41hWcgihi1bNV7dKFLA00W7hVL43,,,,,,,,,,,,,,,,,,,2234.0,,,65a53ce092b4798f1b1ff5bb,09:07:04,27/02/2024
html-keyboard-response,128,253011,0.0-55.0-0.0,1177.4000000953674,"<div style=""display: flex; flex-direction: column; align-items: center; margin-top: -40px;""><img src=""images/pattern_3.png"" style=""width: 234px; height: 230px; margin-top: -50px;""><div style=""display: flex; justify-content: space-between; margin-top: 33px;""><img src=""images/choice_trial_6.png"" style=""width: 408px; height: 417px; margin-right: 200px;""><img src=""images/choice_trial_16.png"" style=""width: 408px; height: 417px;""></div></div>",f,delaylearn,learning,trial,41hWcgihi1bNV7dKFLA00W7hVL43,41hWcgihi1bNV7dKFLA00W7hVL43,4.0,images/choice_trial_6.png,images/choice_trial_16.png,images/pattern_3.png,j,j,7000.0,6.0,16.0,2.0,1.0,24.0,0.0,0.0,6.0,70.0,,,,,,65a53ce092b4798f1b1ff5bb,09:07:04,27/02/2024
html-keyboard-response,129,254025,0.0-55.0-1.0,,"<div style=""display: flex; flex-direction: column; align-items: center; margin-top: -40px;""><img src=""images/pattern_3.png"" style=""width: 234px; height: 230px; margin-top: -50px;""><div style=""display: flex; justify-content: space-between; margin-top: 33px;""><img src=""images/choice_trial_6.png"" style=""width: 408px; height: 417px; margin-right: 608px;""></div></div>",,delaylearn,learning,display_response,41hWcgihi1bNV7dKFLA00W7hVL43,41hWcgihi1bNV7dKFLA00W7hVL43,,,,,,,,,,,,,,,,,chosen stimuli: images/choice_trial_6.png,,,,,65a53ce092b4798f1b1ff5bb,09:07:04,27/02/2024
html-keyboard-response,130,261031,0.0-55.0-2.0,,,,delaylearn,learning,feedback_duration_window,41hWcgihi1bNV7dKFLA00W7hVL43,41hWcgihi1bNV7dKFLA00W7hVL43,,,,,,,,,,,,,,,,,,7000.0,,,,65a53ce092b4798f1b1ff5bb,09:07:04,27/02/2024
html-keyboard-response,131,262547,0.0-55.0-3.0,,<div style='margin:auto;width: auto; font-size: 150%'><span style='font-weight: bold; font-size: 100px; color: red;'>0 points!</span><br><br></div>,,delaylearn,learning,feedback_image_window,41hWcgihi1bNV7dKFLA00W7hVL43,41hWcgihi1bNV7dKFLA00W7hVL43,,,,,,,,,,,,,,,,,,,,,,65a53ce092b4798f1b1ff5bb,09:07:04,27/02/2024
lmdlab-html-vas-response,132,267988,0.0-56.0-0.0,3931.0,*How <b><u>confident</u></b> are you feeling about your answers at this moment?*,0.05246913580246913,rewlearn,rate_confidence,,41hWcgihi1bNV7dKFLA00W7hVL43,41hWcgihi1bNV7dKFLA00W7hVL43,,,,,,,,,,,,,,,,,,,,"['No confidence', 'Complete confidence']",,65a53ce092b4798f1b1ff5bb,09:07:04,27/02/2024
lmdlab-rest-trial-limit,133,274524,0.0-56.0-1.0,5031.199999928474,"<div style=""font-size:40px;""><b>Please take a break!</b><br><br><br><br><p>Great work: you earned undefined points.<br><br><br><p>You have completed part(s) 1 of 6.<br><br><br><br>When you are ready to continue<br><br><br>please click the button.</p><br><br>",0,delaylearn,learning,break,41hWcgihi1bNV7dKFLA00W7hVL43,41hWcgihi1bNV7dKFLA00W7hVL43,,,,,,,,,,,,,,,,,,,,,0.0,65a53ce092b4798f1b1ff5bb,09:07:04,27/02/2024
html-keyboard-response,134,277540,0.0-56.0-2.0,,"<div style=""font-size:100px;"">+</div>",,delaylearn,learning,pre_fixation,41hWcgihi1bNV7dKFLA00W7hVL43,,,,,,,,,,,,,,,,,,,,,,,65a53ce092b4798f1b1ff5bb,09:07:04,27/02/2024
lmdlab-html-vas-response,135,281578,0.0-56.0-3.0-0.0,3027.0,How happy are you right now?,0.3888888888888889,delaylearn,learning,mood_baseline,41hWcgihi1bNV7dKFLA00W7hVL43,41hWcgihi1bNV7dKFLA00W7hVL43,,,,,,,,,,,,,,,,,,,,"['Very unhappy', 'Very happy']",,65a53ce092b4798f1b1ff5bb,09:07:04,27/02/2024
html-keyboard-response,136,283085,0.0-56.0-3.0-1.0,,,,,,mood_baseline_fixation,41hWcgihi1bNV7dKFLA00W7hVL43,,,,,,,,,,,,,,,,,,,,,,,65a53ce092b4798f1b1ff5bb,09:07:04,27/02/2024
html-keyboard-response,137,284740,0.0-57.0,,"<div style=""font-size:100px;"">+</div>",,delaylearn,learning,ITI,41hWcgihi1bNV7dKFLA00W7hVL43,41hWcgihi1bNV7dKFLA00W7hVL43,,,,,,,,,,,,,,,,,,,1651.0,,,65a53ce092b4798f1b1ff5bb,09:07:04,27/02/2024
html-keyboard-response,138,285588,0.0-58.0-0.0,846.5,"<div style=""display: flex; flex-direction: column; align-items: center; margin-top: -40px;""><img src=""images/pattern_7.png"" style=""width: 234px; height: 230px; margin-top: -50px;""><div style=""display: flex; justify-content: space-between; margin-top: 33px;""><img src=""images/choice_trial_4.png"" style=""width: 408px; height: 417px; margin-right: 200px;""><img src=""images/choice_trial_13.png"" style=""width: 408px; height: 417px;""></div></div>",j,delaylearn,learning,trial,41hWcgihi1bNV7dKFLA00W7hVL43,41hWcgihi1bNV7dKFLA00W7hVL43,4.0,images/choice_trial_4.png,images/choice_trial_13.png,images/pattern_7.png,j,j,750.0,4.0,13.0,6.0,1.0,25.0,1.0,1.0,13.0,80.0,,,,,,65a53ce092b4798f1b1ff5bb,09:07:04,27/02/2024
html-keyboard-response,139,286593,0.0-58.0-1.0,,"<div style=""display: flex; flex-direction: column; align-items: center; margin-top: -40px;""><img src=""images/pattern_7.png"" style=""width: 234px; height: 230px; margin-top: -50px;""><div style=""display: flex; justify-content: space-between; margin-top: 33px;""><img src=""images/choice_trial_13.png"" style=""width: 408px; height: 417px; margin-left:608px;""></div></div>",,delaylearn,learning,display_response,41hWcgihi1bNV7dKFLA00W7hVL43,41hWcgihi1bNV7dKFLA00W7hVL43,,,,,,,,,,,,,,,,,chosen stimuli: images/choice_trial_13.png,,,,,65a53ce092b4798f1b1ff5bb,09:07:04,27/02/2024
html-keyboard-response,140,287354,0.0-58.0-2.0,,,,delaylearn,learning,feedback_duration_window,41hWcgihi1bNV7dKFLA00W7hVL43,41hWcgihi1bNV7dKFLA00W7hVL43,,,,,,,,,,,,,,,,,,750.0,,,,65a53ce092b4798f1b1ff5bb,09:07:04,27/02/2024
html-keyboard-response,141,288870,0.0-58.0-3.0,,<div style='margin:auto;width: auto; font-size: 150%'><span style='font-weight: bold; font-size: 100px; color: green;'>+10 points!</span><br><br></div>,,delaylearn,learning,feedback_image_window,41hWcgihi1bNV7dKFLA00W7hVL43,41hWcgihi1bNV7dKFLA00W7hVL43,,,,,,,,,,,,,,,,,,,,,,65a53ce092b4798f1b1ff5bb,09:07:04,27/02/2024
html-keyboard-response,142,289371,0.0-59.0-0.0,,,,,,mood_trial_fixation,41hWcgihi1bNV7dKFLA00W7hVL43,,,,,,,,,,,,,,,,,,,,,,,65a53ce092b4798f1b1ff5bb,09:07:04,27/02/2024
lmdlab-html-vas-response,143,294348,0.0-59.0-1.0,3963.0,How happy are you right now?,0.5185185185185185,delaylearn,learning,mood_trial,41hWcgihi1bNV7dKFLA00W7hVL43,41hWcgihi1bNV7dKFLA00W7hVL43,,,,,,,,,,,,,,,,,,,,"['Very unhappy', 'Very happy']",,65a53ce092b4798f1b1ff5bb,09:07:04,27/02/2024
html-keyboard-response,144,295901,0.0-60.0,,"<div style=""font-size:100px;"">+</div>",,delaylearn,learning,ITI,41hWcgihi1bNV7dKFLA00W7hVL43,41hWcgihi1bNV7dKFLA00W7hVL43,,,,,,,,,,,,,,,,,,,1537.0,,,65a53ce092b4798f1b1ff5bb,09:07:04,27/02/2024
html-keyboard-response,145,297032,0.0-61.0-0.0,1128.7000000476837,"<div style=""display: flex; flex-direction: column; align-items: center; margin-top: -40px;""><img src=""images/pattern_1.png"" style=""width: 234px; height: 230px; margin-top: -50px;""><div style=""display: flex; justify-content: space-between; margin-top: 33px;""><img src=""images/choice_trial_1.png"" style=""width: 408px; height: 417px; margin-right: 200px;""><img src=""images/choice_trial_9.png"" style=""width: 408px; height: 417px;""></div></div>",f,delaylearn,learning,trial,41hWcgihi1bNV7dKFLA00W7hVL43,41hWcgihi1bNV7dKFLA00W7hVL43,4.0,images/choice_trial_1.png,images/choice_trial_9.png,images/pattern_1.png,f,f,7000.0,1.0,9.0,1.0,0.0,26.0,1.0,1.0,1.0,90.0,,,,,,65a53ce092b4798f1b1ff5bb,09:07:04,27/02/2024
html-keyboard-response,146,298041,0.0-61.0-1.0,,"<div style=""display: flex; flex-direction: column; align-items: center; margin-top: -40px;""><img src=""images/pattern_1.png"" style=""width: 234px; height: 230px; margin-top: -50px;""><div style=""display: flex; justify-content: space-between; margin-top: 33px;""><img src=""images/choice_trial_1.png"" style=""width: 408px; height: 417px; margin-right: 608px;""></div></div>",,delaylearn,learning,display_response,41hWcgihi1bNV7dKFLA00W7hVL43,41hWcgihi1bNV7dKFLA00W7hVL43,,,,,,,,,,,,,,,,,chosen stimuli: images/choice_trial_1.png,,,,,65a53ce092b4798f1b1ff5bb,09:07:04,27/02/2024
html-keyboard-response,147,305050,0.0-61.0-2.0,,,,delaylearn,learning,feedback_duration_window,41hWcgihi1bNV7dKFLA00W7hVL43,41hWcgihi1bNV7dKFLA00W7hVL43,,,,,,,,,,,,,,,,,,7000.0,,,,65a53ce092b4798f1b1ff5bb,09:07:04,27/02/2024
html-keyboard-response,148,306560,0.0-61.0-3.0,,<div style='margin:auto;width: auto; font-size: 150%'><span style='font-weight: bold; font-size: 100px; color: green;'>+10 points!</span><br><br></div>,,delaylearn,learning,feedback_image_window,41hWcgihi1bNV7dKFLA00W7hVL43,41hWcgihi1bNV7dKFLA00W7hVL43,,,,,,,,,,,,,,,,,,,,,,65a53ce092b4798f1b1ff5bb,09:07:04,27/02/2024
html-keyboard-response,149,308935,0.0-62.0,,"<div style=""font-size:100px;"">+</div>",,delaylearn,learning,ITI,41hWcgihi1bNV7dKFLA00W7hVL43,41hWcgihi1bNV7dKFLA00W7hVL43,,,,,,,,,,,,,,,,,,,2370.0,,,65a53ce092b4798f1b1ff5bb,09:07:04,27/02/2024
html-keyboard-response,150,309891,0.0-63.0-0.0,954.2000000476837,"<div style=""display: flex; flex-direction: column; align-items: center; margin-top: -40px;""><img src=""images/pattern_5.png"" style=""width: 234px; height: 230px; margin-top: -50px;""><div style=""display: flex; justify-content: space-between; margin-top: 33px;""><img src=""images/choice_trial_5.png"" style=""width: 408px; height: 417px; margin-right: 200px;""><img src=""images/choice_trial_15.png"" style=""width: 408px; height: 417px;""></div></div>",j,delaylearn,learning,trial,41hWcgihi1bNV7dKFLA00W7hVL43,41hWcgihi1bNV7dKFLA00W7hVL43,4.0,images/choice_trial_5.png,images/choice_trial_15.png,images/pattern_5.png,f,f,750.0,5.0,15.0,4.0,0.0,27.0,0.0,0.0,15.0,90.0,,,,,,65a53ce092b4798f1b1ff5bb,09:07:04,27/02/2024
html-keyboard-response,151,310907,0.0-63.0-1.0,,"<div style=""display: flex; flex-direction: column; align-items: center; margin-top: -40px;""><img src=""images/pattern_5.png"" style=""width: 234px; height: 230px; margin-top: -50px;""><div style=""display: flex; justify-content: space-between; margin-top: 33px;""><img src=""images/choice_trial_15.png"" style=""width: 408px; height: 417px; margin-left:608px;""></div></div>",,delaylearn,learning,display_response,41hWcgihi1bNV7dKFLA00W7hVL43,41hWcgihi1bNV7dKFLA00W7hVL43,,,,,,,,,,,,,,,,,chosen stimuli: images/choice_trial_15.png,,,,,65a53ce092b4798f1b1ff5bb,09:07:04,27/02/2024
html-keyboard-response,152,311668,0.0-63.0-2.0,,,,delaylearn,learning,feedback_duration_window,41hWcgihi1bNV7dKFLA00W7hVL43,41hWcgihi1bNV7dKFLA00W7hVL43,,,,,,,,,,,,,,,,,,750.0,,,,65a53ce092b4798f1b1ff5bb,09:07:04,27/02/2024
html-keyboard-response,153,313183,0.0-63.0-3.0,,<div style='margin:auto;width: auto; font-size: 150%'><span style='font-weight: bold; font-size: 100px; color: red;'>0 points!</span><br><br></div>,,delaylearn,learning,feedback_image_window,41hWcgihi1bNV7dKFLA00W7hVL43,41hWcgihi1bNV7dKFLA00W7hVL43,,,,,,,,,,,,,,,,,,,,,,65a53ce092b4798f1b1ff5bb,09:07:04,27/02/2024
html-keyboard-response,154,315428,0.0-64.0,,"<div style=""font-size:100px;"">+</div>",,delaylearn,learning,ITI,41hWcgihi1bNV7dKFLA00W7hVL43,41hWcgihi1bNV7dKFLA00W7hVL43,,,,,,,,,,,,,,,,,,,2241.0,,,65a53ce092b4798f1b1ff5bb,09:07:04,27/02/2024
html-keyboard-response,155,316898,0.0-65.0-0.0,1468.5,"<div style=""display: flex; flex-direction: column; align-items: center; margin-top: -40px;""><img src=""images/pattern_6.png"" style=""width: 234px; height: 230px; margin-top: -50px;""><div style=""display: flex; justify-content: space-between; margin-top: 33px;""><img src=""images/choice_trial_3.png"" style=""width: 408px; height: 417px; margin-right: 200px;""><img src=""images/choice_trial_10.png"" style=""width: 408px; height: 417px;""></div></div>",f,delaylearn,learning,trial,41hWcgihi1bNV7dKFLA00W7hVL43,41hWcgihi1bNV7dKFLA00W7hVL43,4.0,images/choice_trial_3.png,images/choice_trial_10.png,images/pattern_6.png,j,j,750.0,3.0,10.0,5.0,1.0,28.0,0.0,0.0,3.0,90.0,,,,,,65a53ce092b4798f1b1ff5bb,09:07:04,27/02/2024
html-keyboard-response,156,317900,0.0-65.0-1.0,,"<div style=""display: flex; flex-direction: column; align-items: center; margin-top: -40px;""><img src=""images/pattern_6.png"" style=""width: 234px; height: 230px; margin-top: -50px;""><div style=""display: flex; justify-content: space-between; margin-top: 33px;""><img src=""images/choice_trial_3.png"" style=""width: 408px; height: 417px; margin-right: 608px;""></div></div>",,delaylearn,learning,display_response,41hWcgihi1bNV7dKFLA00W7hVL43,41hWcgihi1bNV7dKFLA00W7hVL43,,,,,,,,,,,,,,,,,chosen stimuli: images/choice_trial_3.png,,,,,65a53ce092b4798f1b1ff5bb,09:07:04,27/02/2024
html-keyboard-response,157,318660,0.0-65.0-2.0,,,,delaylearn,learning,feedback_duration_window,41hWcgihi1bNV7dKFLA00W7hVL43,41hWcgihi1bNV7dKFLA00W7hVL43,,,,,,,,,,,,,,,,,,750.0,,,,65a53ce092b4798f1b1ff5bb,09:07:04,27/02/2024
html-keyboard-response,158,320168,0.0-65.0-3.0,,<div style='margin:auto;width: auto; font-size: 150%'><span style='font-weight: bold; font-size: 100px; color: red;'>0 points!</span><br><br></div>,,delaylearn,learning,feedback_image_window,41hWcgihi1bNV7dKFLA00W7hVL43,41hWcgihi1bNV7dKFLA00W7hVL43,,,,,,,,,,,,,,,,,,,,,,65a53ce092b4798f1b1ff5bb,09:07:04,27/02/2024
html-keyboard-response,159,320678,0.0-66.0-0.0,,,,,,mood_trial_fixation,41hWcgihi1bNV7dKFLA00W7hVL43,,,,,,,,,,,,,,,,,,,,,,,65a53ce092b4798f1b1ff5bb,09:07:04,27/02/2024
lmdlab-html-vas-response,160,326765,0.0-66.0-1.0,5083.0,How happy are you right now?,0.4876543209876543,delaylearn,learning,mood_trial,41hWcgihi1bNV7dKFLA00W7hVL43,41hWcgihi1bNV7dKFLA00W7hVL43,,,,,,,,,,,,,,,,,,,,"['Very unhappy', 'Very happy']",,65a53ce092b4798f1b1ff5bb,09:07:04,27/02/2024
html-keyboard-response,161,328755,0.0-67.0,,"<div style=""font-size:100px;"">+</div>",,delaylearn,learning,ITI,41hWcgihi1bNV7dKFLA00W7hVL43,41hWcgihi1bNV7dKFLA00W7hVL43,,,,,,,,,,,,,,,,,,,1987.0,,,65a53ce092b4798f1b1ff5bb,09:07:04,27/02/2024
html-keyboard-response,162,331026,0.0-68.0-0.0,2269.0,"<div style=""display: flex; flex-direction: column; align-items: center; margin-top: -40px;""><img src=""images/pattern_4.png"" style=""width: 234px; height: 230px; margin-top: -50px;""><div style=""display: flex; justify-content: space-between; margin-top: 33px;""><img src=""images/choice_trial_7.png"" style=""width: 408px; height: 417px; margin-right: 200px;""><img src=""images/choice_trial_8.png"" style=""width: 408px; height: 417px;""></div></div>",j,delaylearn,learning,trial,41hWcgihi1bNV7dKFLA00W7hVL43,41hWcgihi1bNV7dKFLA00W7hVL43,4.0,images/choice_trial_7.png,images/choice_trial_8.png,images/pattern_4.png,j,j,7000.0,7.0,8.0,3.0,1.0,29.0,1.0,1.0,8.0,100.0,,,,,,65a53ce092b4798f1b1ff5bb,09:07:04,27/02/2024
html-keyboard-response,163,332034,0.0-68.0-1.0,,"<div style=""display: flex; flex-direction: column; align-items: center; margin-top: -40px;""><img src=""images/pattern_4.png"" style=""width: 234px; height: 230px; margin-top: -50px;""><div style=""display: flex; justify-content: space-between; margin-top: 33px;""><img src=""images/choice_trial_8.png"" style=""width: 408px; height: 417px; margin-left:608px;""></div></div>",,delaylearn,learning,display_response,41hWcgihi1bNV7dKFLA00W7hVL43,41hWcgihi1bNV7dKFLA00W7hVL43,,,,,,,,,,,,,,,,,chosen stimuli: images/choice_trial_8.png,,,,,65a53ce092b4798f1b1ff5bb,09:07:04,27/02/2024
html-keyboard-response,164,339040,0.0-68.0-2.0,,,,delaylearn,learning,feedback_duration_window,41hWcgihi1bNV7dKFLA00W7hVL43,41hWcgihi1bNV7dKFLA00W7hVL43,,,,,,,,,,,,,,,,,,7000.0,,,,65a53ce092b4798f1b1ff5bb,09:07:04,27/02/2024
html-keyboard-response,165,340543,0.0-68.0-3.0,,<div style='margin:auto;width: auto; font-size: 150%'><span style='font-weight: bold; font-size: 100px; color: green;'>+10 points!</span><br><br></div>,,delaylearn,learning,feedback_image_window,41hWcgihi1bNV7dKFLA00W7hVL43,41hWcgihi1bNV7dKFLA00W7hVL43,,,,,,,,,,,,,,,,,,,,,,65a53ce092b4798f1b1ff5bb,09:07:04,27/02/2024
html-keyboard-response,166,342864,0.0-69.0,,"<div style=""font-size:100px;"">+</div>",,delaylearn,learning,ITI,41hWcgihi1bNV7dKFLA00W7hVL43,41hWcgihi1bNV7dKFLA00W7hVL43,,,,,,,,,,,,,,,,,,,2319.0,,,65a53ce092b4798f1b1ff5bb,09:07:04,27/02/2024
html-keyboard-response,167,344399,0.0-70.0-0.0,1533.2999999523163,"<div style=""display: flex; flex-direction: column; align-items: center; margin-top: -40px;""><img src=""images/pattern_3.png"" style=""width: 234px; height: 230px; margin-top: -50px;""><div style=""display: flex; justify-content: space-between; margin-top: 33px;""><img src=""images/choice_trial_6.png"" style=""width: 408px; height: 417px; margin-right: 200px;""><img src=""images/choice_trial_16.png"" style=""width: 408px; height: 417px;""></div></div>",j,delaylearn,learning,trial,41hWcgihi1bNV7dKFLA00W7hVL43,41hWcgihi1bNV7dKFLA00W7hVL43,4.0,images/choice_trial_6.png,images/choice_trial_16.png,images/pattern_3.png,j,j,7000.0,6.0,16.0,2.0,1.0,30.0,1.0,1.0,16.0,110.0,,,,,,65a53ce092b4798f1b1ff5bb,09:07:04,27/02/2024
html-keyboard-response,168,345403,0.0-70.0-1.0,,"<div style=""display: flex; flex-direction: column; align-items: center; margin-top: -40px;""><img src=""images/pattern_3.png"" style=""width: 234px; height: 230px; margin-top: -50px;""><div style=""display: flex; justify-content: space-between; margin-top: 33px;""><img src=""images/choice_trial_16.png"" style=""width: 408px; height: 417px; margin-left:608px;""></div></div>",,delaylearn,learning,display_response,41hWcgihi1bNV7dKFLA00W7hVL43,41hWcgihi1bNV7dKFLA00W7hVL43,,,,,,,,,,,,,,,,,chosen stimuli: images/choice_trial_16.png,,,,,65a53ce092b4798f1b1ff5bb,09:07:04,27/02/2024
html-keyboard-response,169,352415,0.0-70.0-2.0,,,,delaylearn,learning,feedback_duration_window,41hWcgihi1bNV7dKFLA00W7hVL43,41hWcgihi1bNV7dKFLA00W7hVL43,,,,,,,,,,,,,,,,,,7000.0,,,,65a53ce092b4798f1b1ff5bb,09:07:04,27/02/2024
html-keyboard-response,170,353918,0.0-70.0-3.0,,<div style='margin:auto;width: auto; font-size: 150%'><span style='font-weight: bold; font-size: 100px; color: green;'>+10 points!</span><br><br></div>,,delaylearn,learning,feedback_image_window,41hWcgihi1bNV7dKFLA00W7hVL43,41hWcgihi1bNV7dKFLA00W7hVL43,,,,,,,,,,,,,,,,,,,,,,65a53ce092b4798f1b1ff5bb,09:07:04,27/02/2024
html-keyboard-response,171,356313,0.0-71.0,,"<div style=""font-size:100px;"">+</div>",,delaylearn,learning,ITI,41hWcgihi1bNV7dKFLA00W7hVL43,41hWcgihi1bNV7dKFLA00W7hVL43,,,,,,,,,,,,,,,,,,,2384.0,,,65a53ce092b4798f1b1ff5bb,09:07:04,27/02/2024
html-keyboard-response,172,357917,0.0-72.0-0.0,1601.6000000238419,"<div style=""display: flex; flex-direction: column; align-items: center; margin-top: -40px;""><img src=""images/pattern_5.png"" style=""width: 234px; height: 230px; margin-top: -50px;""><div style=""display: flex; justify-content: space-between; margin-top: 33px;""><img src=""images/choice_trial_5.png"" style=""width: 408px; height: 417px; margin-right: 200px;""><img src=""images/choice_trial_15.png"" style=""width: 408px; height: 417px;""></div></div>",f,delaylearn,learning,trial,41hWcgihi1bNV7dKFLA00W7hVL43,41hWcgihi1bNV7dKFLA00W7hVL43,4.0,images/choice_trial_5.png,images/choice_trial_15.png,images/pattern_5.png,j,f,750.0,5.0,15.0,4.0,0.0,31.0,1.0,0.0,5.0,110.0,,,,,,65a53ce092b4798f1b1ff5bb,09:07:04,27/02/2024
html-keyboard-response,173,358918,0.0-72.0-1.0,,"<div style=""display: flex; flex-direction: column; align-items: center; margin-top: -40px;""><img src=""images/pattern_5.png"" style=""width: 234px; height: 230px; margin-top: -50px;""><div style=""display: flex; justify-content: space-between; margin-top: 33px;""><img src=""images/choice_trial_5.png"" style=""width: 408px; height: 417px; margin-right: 608px;""></div></div>",,delaylearn,learning,display_response,41hWcgihi1bNV7dKFLA00W7hVL43,41hWcgihi1bNV7dKFLA00W7hVL43,,,,,,,,,,,,,,,,,chosen stimuli: images/choice_trial_5.png,,,,,65a53ce092b4798f1b1ff5bb,09:07:04,27/02/2024
html-keyboard-response,174,359676,0.0-72.0-2.0,,,,delaylearn,learning,feedback_duration_window,41hWcgihi1bNV7dKFLA00W7hVL43,41hWcgihi1bNV7dKFLA00W7hVL43,,,,,,,,,,,,,,,,,,750.0,,,,65a53ce092b4798f1b1ff5bb,09:07:04,27/02/2024
html-keyboard-response,175,361180,0.0-72.0-3.0,,<div style='margin:auto;width: auto; font-size: 150%'><span style='font-weight: bold; font-size: 100px; color: red;'>0 points!</span><br><br></div>,,delaylearn,learning,feedback_image_window,41hWcgihi1bNV7dKFLA00W7hVL43,41hWcgihi1bNV7dKFLA00W7hVL43,,,,,,,,,,,,,,,,,,,,,,65a53ce092b4798f1b1ff5bb,09:07:04,27/02/2024
html-keyboard-response,176,363483,0.0-73.0,,"<div style=""font-size:100px;"">+</div>",,delaylearn,learning,ITI,41hWcgihi1bNV7dKFLA00W7hVL43,41hWcgihi1bNV7dKFLA00W7hVL43,,,,,,,,,,,,,,,,,,,2293.0,,,65a53ce092b4798f1b1ff5bb,09:07:04,27/02/2024
html-keyboard-response,177,364958,0.0-74.0-0.0,1473.1000000238419,"<div style=""display: flex; flex-direction: column; align-items: center; margin-top: -40px;""><img src=""images/pattern_1.png"" style=""width: 234px; height: 230px; margin-top: -50px;""><div style=""display: flex; justify-content: space-between; margin-top: 33px;""><img src=""images/choice_trial_1.png"" style=""width: 408px; height: 417px; margin-right: 200px;""><img src=""images/choice_trial_9.png"" style=""width: 408px; height: 417px;""></div></div>",f,delaylearn,learning,trial,41hWcgihi1bNV7dKFLA00W7hVL43,41hWcgihi1bNV7dKFLA00W7hVL43,4.0,images/choice_trial_1.png,images/choice_trial_9.png,images/pattern_1.png,f,f,7000.0,1.0,9.0,1.0,0.0,32.0,1.0,1.0,1.0,120.0,,,,,,65a53ce092b4798f1b1ff5bb,09:07:04,27/02/2024
html-keyboard-response,178,365968,0.0-74.0-1.0,,"<div style=""display: flex; flex-direction: column; align-items: center; margin-top: -40px;""><img src=""images/pattern_1.png"" style=""width: 234px; height: 230px; margin-top: -50px;""><div style=""display: flex; justify-content: space-between; margin-top: 33px;""><img src=""images/choice_trial_1.png"" style=""width: 408px; height: 417px; margin-right: 608px;""></div></div>",,delaylearn,learning,display_response,41hWcgihi1bNV7dKFLA00W7hVL43,41hWcgihi1bNV7dKFLA00W7hVL43,,,,,,,,,,,,,,,,,chosen stimuli: images/choice_trial_1.png,,,,,65a53ce092b4798f1b1ff5bb,09:07:04,27/02/2024
html-keyboard-response,179,372979,0.0-74.0-2.0,,,,delaylearn,learning,feedback_duration_window,41hWcgihi1bNV7dKFLA00W7hVL43,41hWcgihi1bNV7dKFLA00W7hVL43,,,,,,,,,,,,,,,,,,7000.0,,,,65a53ce092b4798f1b1ff5bb,09:07:04,27/02/2024
html-keyboard-response,180,374484,0.0-74.0-3.0,,<div style='margin:auto;width: auto; font-size: 150%'><span style='font-weight: bold; font-size: 100px; color: green;'>+10 points!</span><br><br></div>,,delaylearn,learning,feedback_image_window,41hWcgihi1bNV7dKFLA00W7hVL43,41hWcgihi1bNV7dKFLA00W7hVL43,,,,,,,,,,,,,,,,,,,,,,65a53ce092b4798f1b1ff5bb,09:07:04,27/02/2024
html-keyboard-response,181,374994,0.0-75.0-0.0,,,,,,mood_trial_fixation,41hWcgihi1bNV7dKFLA00W7hVL43,,,,,,,,,,,,,,,,,,,,,,,65a53ce092b4798f1b1ff5bb,09:07:04,27/02/2024
lmdlab-html-vas-response,182,379455,0.0-75.0-1.0,3449.0,How happy are you right now?,0.5339506172839507,delaylearn,learning,mood_trial,41hWcgihi1bNV7dKFLA00W7hVL43,41hWcgihi1bNV7dKFLA00W7hVL43,,,,,,,,,,,,,,,,,,,,"['Very unhappy', 'Very happy']",,65a53ce092b4798f1b1ff5bb,09:07:04,27/02/2024
html-keyboard-response,183,381096,0.0-76.0,,"<div style=""font-size:100px;"">+</div>",,delaylearn,learning,ITI,41hWcgihi1bNV7dKFLA00W7hVL43,41hWcgihi1bNV7dKFLA00W7hVL43,,,,,,,,,,,,,,,,,,,1629.0,,,65a53ce092b4798f1b1ff5bb,09:07:04,27/02/2024
html-keyboard-response,184,382421,0.0-77.0-0.0,1323.3999999761581,"<div style=""display: flex; flex-direction: column; align-items: center; margin-top: -40px;""><img src=""images/pattern_6.png"" style=""width: 234px; height: 230px; margin-top: -50px;""><div style=""display: flex; justify-content: space-between; margin-top: 33px;""><img src=""images/choice_trial_10.png"" style=""width: 408px; height: 417px; margin-right: 200px;""><img src=""images/choice_trial_3.png"" style=""width: 408px; height: 417px;""></div></div>",j,delaylearn,learning,trial,41hWcgihi1bNV7dKFLA00W7hVL43,41hWcgihi1bNV7dKFLA00W7hVL43,4.0,images/choice_trial_10.png,images/choice_trial_3.png,images/pattern_6.png,j,f,750.0,10.0,3.0,5.0,0.0,33.0,0.0,1.0,3.0,130.0,,,,,,65a53ce092b4798f1b1ff5bb,09:07:04,27/02/2024
html-keyboard-response,185,383432,0.0-77.0-1.0,,"<div style=""display: flex; flex-direction: column; align-items: center; margin-top: -40px;""><img src=""images/pattern_6.png"" style=""width: 234px; height: 230px; margin-top: -50px;""><div style=""display: flex; justify-content: space-between; margin-top: 33px;""><img src=""images/choice_trial_3.png"" style=""width: 408px; height: 417px; margin-left:608px;""></div></div>",,delaylearn,learning,display_response,41hWcgihi1bNV7dKFLA00W7hVL43,41hWcgihi1bNV7dKFLA00W7hVL43,,,,,,,,,,,,,,,,,chosen stimuli: images/choice_trial_3.png,,,,,65a53ce092b4798f1b1ff5bb,09:07:04,27/02/2024
html-keyboard-response,186,384194,0.0-77.0-2.0,,,,delaylearn,learning,feedback_duration_window,41hWcgihi1bNV7dKFLA00W7hVL43,41hWcgihi1bNV7dKFLA00W7hVL43,,,,,,,,,,,,,,,,,,750.0,,,,65a53ce092b4798f1b1ff5bb,09:07:04,27/02/2024
html-keyboard-response,187,385696,0.0-77.0-3.0,,<div style='margin:auto;width: auto; font-size: 150%'><span style='font-weight: bold; font-size: 100px; color: green;'>+10 points!</span><br><br></div>,,delaylearn,learning,feedback_image_window,41hWcgihi1bNV7dKFLA00W7hVL43,41hWcgihi1bNV7dKFLA00W7hVL43,,,,,,,,,,,,,,,,,,,,,,65a53ce092b4798f1b1ff5bb,09:07:04,27/02/2024
html-keyboard-response,188,387243,0.0-78.0,,"<div style=""font-size:100px;"">+</div>",,delaylearn,learning,ITI,41hWcgihi1bNV7dKFLA00W7hVL43,41hWcgihi1bNV7dKFLA00W7hVL43,,,,,,,,,,,,,,,,,,,1539.0,,,65a53ce092b4798f1b1ff5bb,09:07:04,27/02/2024
html-keyboard-response,189,388395,0.0-79.0-0.0,1150.0,"<div style=""display: flex; flex-direction: column; align-items: center; margin-top: -40px;""><img src=""images/pattern_3.png"" style=""width: 234px; height: 230px; margin-top: -50px;""><div style=""display: flex; justify-content: space-between; margin-top: 33px;""><img src=""images/choice_trial_6.png"" style=""width: 408px; height: 417px; margin-right: 200px;""><img src=""images/choice_trial_16.png"" style=""width: 408px; height: 417px;""></div></div>",j,delaylearn,learning,trial,41hWcgihi1bNV7dKFLA00W7hVL43,41hWcgihi1bNV7dKFLA00W7hVL43,4.0,images/choice_trial_6.png,images/choice_trial_16.png,images/pattern_3.png,j,j,7000.0,6.0,16.0,2.0,1.0,34.0,1.0,1.0,16.0,140.0,,,,,,65a53ce092b4798f1b1ff5bb,09:07:04,27/02/2024
html-keyboard-response,190,389399,0.0-79.0-1.0,,"<div style=""display: flex; flex-direction: column; align-items: center; margin-top: -40px;""><img src=""images/pattern_3.png"" style=""width: 234px; height: 230px; margin-top: -50px;""><div style=""display: flex; justify-content: space-between; margin-top: 33px;""><img src=""images/choice_trial_16.png"" style=""width: 408px; height: 417px; margin-left:608px;""></div></div>",,delaylearn,learning,display_response,41hWcgihi1bNV7dKFLA00W7hVL43,41hWcgihi1bNV7dKFLA00W7hVL43,,,,,,,,,,,,,,,,,chosen stimuli: images/choice_trial_16.png,,,,,65a53ce092b4798f1b1ff5bb,09:07:04,27/02/2024
html-keyboard-response,191,396412,0.0-79.0-2.0,,,,delaylearn,learning,feedback_duration_window,41hWcgihi1bNV7dKFLA00W7hVL43,41hWcgihi1bNV7dKFLA00W7hVL43,,,,,,,,,,,,,,,,,,7000.0,,,,65a53ce092b4798f1b1ff5bb,09:07:04,27/02/2024
html-keyboard-response,192,397925,0.0-79.0-3.0,,<div style='margin:auto;width: auto; font-size: 150%'><span style='font-weight: bold; font-size: 100px; color: green;'>+10 points!</span><br><br></div>,,delaylearn,learning,feedback_image_window,41hWcgihi1bNV7dKFLA00W7hVL43,41hWcgihi1bNV7dKFLA00W7hVL43,,,,,,,,,,,,,,,,,,,,,,65a53ce092b4798f1b1ff5bb,09:07:04,27/02/2024
html-keyboard-response,193,400254,0.0-80.0,,"<div style=""font-size:100px;"">+</div>",,delaylearn,learning,ITI,41hWcgihi1bNV7dKFLA00W7hVL43,41hWcgihi1bNV7dKFLA00W7hVL43,,,,,,,,,,,,,,,,,,,2320.0,,,65a53ce092b4798f1b1ff5bb,09:07:04,27/02/2024
html-keyboard-response,194,402511,0.0-81.0-0.0,2255.2000000476837,"<div style=""display: flex; flex-direction: column; align-items: center; margin-top: -40px;""><img src=""images/pattern_4.png"" style=""width: 234px; height: 230px; margin-top: -50px;""><div style=""display: flex; justify-content: space-between; margin-top: 33px;""><img src=""images/choice_trial_7.png"" style=""width: 408px; height: 417px; margin-right: 200px;""><img src=""images/choice_trial_8.png"" style=""width: 408px; height: 417px;""></div></div>",j,delaylearn,learning,trial,41hWcgihi1bNV7dKFLA00W7hVL43,41hWcgihi1bNV7dKFLA00W7hVL43,4.0,images/choice_trial_7.png,images/choice_trial_8.png,images/pattern_4.png,f,j,7000.0,7.0,8.0,3.0,1.0,35.0,1.0,0.0,8.0,140.0,,,,,,65a53ce092b4798f1b1ff5bb,09:07:04,27/02/2024
html-keyboard-response,195,403513,0.0-81.0-1.0,,"<div style=""display: flex; flex-direction: column; align-items: center; margin-top: -40px;""><img src=""images/pattern_4.png"" style=""width: 234px; height: 230px; margin-top: -50px;""><div style=""display: flex; justify-content: space-between; margin-top: 33px;""><img src=""images/choice_trial_8.png"" style=""width: 408px; height: 417px; margin-left:608px;""></div></div>",,delaylearn,learning,display_response,41hWcgihi1bNV7dKFLA00W7hVL43,41hWcgihi1bNV7dKFLA00W7hVL43,,,,,,,,,,,,,,,,,chosen stimuli: images/choice_trial_8.png,,,,,65a53ce092b4798f1b1ff5bb,09:07:04,27/02/2024
html-keyboard-response,196,410519,0.0-81.0-2.0,,,,delaylearn,learning,feedback_duration_window,41hWcgihi1bNV7dKFLA00W7hVL43,41hWcgihi1bNV7dKFLA00W7hVL43,,,,,,,,,,,,,,,,,,7000.0,,,,65a53ce092b4798f1b1ff5bb,09:07:04,27/02/2024
html-keyboard-response,197,412022,0.0-81.0-3.0,,<div style='margin:auto;width: auto; font-size: 150%'><span style='font-weight: bold; font-size: 100px; color: red;'>0 points!</span><br><br></div>,,delaylearn,learning,feedback_image_window,41hWcgihi1bNV7dKFLA00W7hVL43,41hWcgihi1bNV7dKFLA00W7hVL43,,,,,,,,,,,,,,,,,,,,,,65a53ce092b4798f1b1ff5bb,09:07:04,27/02/2024
html-keyboard-response,198,413737,0.0-82.0,,"<div style=""font-size:100px;"">+</div>",,delaylearn,learning,ITI,41hWcgihi1bNV7dKFLA00W7hVL43,41hWcgihi1bNV7dKFLA00W7hVL43,,,,,,,,,,,,,,,,,,,1710.0,,,65a53ce092b4798f1b1ff5bb,09:07:04,27/02/2024
html-keyboard-response,199,415157,0.0-83.0-0.0,1418.0,"<div style=""display: flex; flex-direction: column; align-items: center; margin-top: -40px;""><img src=""images/pattern_7.png"" style=""width: 234px; height: 230px; margin-top: -50px;""><div style=""display: flex; justify-content: space-between; margin-top: 33px;""><img src=""images/choice_trial_13.png"" style=""width: 408px; height: 417px; margin-right: 200px;""><img src=""images/choice_trial_4.png"" style=""width: 408px; height: 417px;""></div></div>",f,delaylearn,learning,trial,41hWcgihi1bNV7dKFLA00W7hVL43,41hWcgihi1bNV7dKFLA00W7hVL43,4.0,images/choice_trial_13.png,images/choice_trial_4.png,images/pattern_7.png,f,f,750.0,13.0,4.0,6.0,0.0,36.0,1.0,1.0,13.0,150.0,,,,,,65a53ce092b4798f1b1ff5bb,09:07:04,27/02/2024
html-keyboard-response,200,416170,0.0-83.0-1.0,,"<div style=""display: flex; flex-direction: column; align-items: center; margin-top: -40px;""><img src=""images/pattern_7.png"" style=""width: 234px; height: 230px; margin-top: -50px;""><div style=""display: flex; justify-content: space-between; margin-top: 33px;""><img src=""images/choice_trial_13.png"" style=""width: 408px; height: 417px; margin-right: 608px;""></div></div>",,delaylearn,learning,display_response,41hWcgihi1bNV7dKFLA00W7hVL43,41hWcgihi1bNV7dKFLA00W7hVL43,,,,,,,,,,,,,,,,,chosen stimuli: images/choice_trial_13.png,,,,,65a53ce092b4798f1b1ff5bb,09:07:04,27/02/2024
html-keyboard-response,201,416927,0.0-83.0-2.0,,,,delaylearn,learning,feedback_duration_window,41hWcgihi1bNV7dKFLA00W7hVL43,41hWcgihi1bNV7dKFLA00W7hVL43,,,,,,,,,,,,,,,,,,750.0,,,,65a53ce092b4798f1b1ff5bb,09:07:04,27/02/2024
html-keyboard-response,202,418433,0.0-83.0-3.0,,<div style='margin:auto;width: auto; font-size: 150%'><span style='font-weight: bold; font-size: 100px; color: green;'>+10 points!</span><br><br></div>,,delaylearn,learning,feedback_image_window,41hWcgihi1bNV7dKFLA00W7hVL43,41hWcgihi1bNV7dKFLA00W7hVL43,,,,,,,,,,,,,,,,,,,,,,65a53ce092b4798f1b1ff5bb,09:07:04,27/02/2024
html-keyboard-response,203,420480,0.0-84.0,,"<div style=""font-size:100px;"">+</div>",,delaylearn,learning,ITI,41hWcgihi1bNV7dKFLA00W7hVL43,41hWcgihi1bNV7dKFLA00W7hVL43,,,,,,,,,,,,,,,,,,,2031.0,,,65a53ce092b4798f1b1ff5bb,09:07:04,27/02/2024
html-keyboard-response,204,422130,0.0-85.0-0.0,1648.6000000238419,"<div style=""display: flex; flex-direction: column; align-items: center; margin-top: -40px;""><img src=""images/pattern_1.png"" style=""width: 234px; height: 230px; margin-top: -50px;""><div style=""display: flex; justify-content: space-between; margin-top: 33px;""><img src=""images/choice_trial_1.png"" style=""width: 408px; height: 417px; margin-right: 200px;""><img src=""images/choice_trial_9.png"" style=""width: 408px; height: 417px;""></div></div>",j,delaylearn,learning,trial,41hWcgihi1bNV7dKFLA00W7hVL43,41hWcgihi1bNV7dKFLA00W7hVL43,4.0,images/choice_trial_1.png,images/choice_trial_9.png,images/pattern_1.png,f,f,7000.0,1.0,9.0,1.0,0.0,37.0,0.0,0.0,9.0,150.0,,,,,,65a53ce092b4798f1b1ff5bb,09:07:04,27/02/2024
html-keyboard-response,205,423142,0.0-85.0-1.0,,"<div style=""display: flex; flex-direction: column; align-items: center; margin-top: -40px;""><img src=""images/pattern_1.png"" style=""width: 234px; height: 230px; margin-top: -50px;""><div style=""display: flex; justify-content: space-between; margin-top: 33px;""><img src=""images/choice_trial_9.png"" style=""width: 408px; height: 417px; margin-left:608px;""></div></div>",,delaylearn,learning,display_response,41hWcgihi1bNV7dKFLA00W7hVL43,41hWcgihi1bNV7dKFLA00W7hVL43,,,,,,,,,,,,,,,,,chosen stimuli: images/choice_trial_9.png,,,,,65a53ce092b4798f1b1ff5bb,09:07:04,27/02/2024
html-keyboard-response,206,430149,0.0-85.0-2.0,,,,delaylearn,learning,feedback_duration_window,41hWcgihi1bNV7dKFLA00W7hVL43,41hWcgihi1bNV7dKFLA00W7hVL43,,,,,,,,,,,,,,,,,,7000.0,,,,65a53ce092b4798f1b1ff5bb,09:07:04,27/02/2024
html-keyboard-response,207,431660,0.0-85.0-3.0,,<div style='margin:auto;width: auto; font-size: 150%'><span style='font-weight: bold; font-size: 100px; color: red;'>0 points!</span><br><br></div>,,delaylearn,learning,feedback_image_window,41hWcgihi1bNV7dKFLA00W7hVL43,41hWcgihi1bNV7dKFLA00W7hVL43,,,,,,,,,,,,,,,,,,,,,,65a53ce092b4798f1b1ff5bb,09:07:04,27/02/2024
html-keyboard-response,208,432175,0.0-86.0-0.0,,,,,,mood_trial_fixation,41hWcgihi1bNV7dKFLA00W7hVL43,,,,,,,,,,,,,,,,,,,,,,,65a53ce092b4798f1b1ff5bb,09:07:04,27/02/2024
lmdlab-html-vas-response,209,436822,0.0-86.0-1.0,3631.0,How happy are you right now?,0.4583333333333333,delaylearn,learning,mood_trial,41hWcgihi1bNV7dKFLA00W7hVL43,41hWcgihi1bNV7dKFLA00W7hVL43,,,,,,,,,,,,,,,,,,,,"['Very unhappy', 'Very happy']",,65a53ce092b4798f1b1ff5bb,09:07:04,27/02/2024
html-keyboard-response,210,438959,0.0-87.0,,"<div style=""font-size:100px;"">+</div>",,delaylearn,learning,ITI,41hWcgihi1bNV7dKFLA00W7hVL43,41hWcgihi1bNV7dKFLA00W7hVL43,,,,,,,,,,,,,,,,,,,2132.0,,,65a53ce092b4798f1b1ff5bb,09:07:04,27/02/2024
html-keyboard-response,211,440707,0.0-88.0-0.0,1746.8999999761581,"<div style=""display: flex; flex-direction: column; align-items: center; margin-top: -40px;""><img src=""images/pattern_3.png"" style=""width: 234px; height: 230px; margin-top: -50px;""><div style=""display: flex; justify-content: space-between; margin-top: 33px;""><img src=""images/choice_trial_16.png"" style=""width: 408px; height: 417px; margin-right: 200px;""><img src=""images/choice_trial_6.png"" style=""width: 408px; height: 417px;""></div></div>",f,delaylearn,learning,trial,41hWcgihi1bNV7dKFLA00W7hVL43,41hWcgihi1bNV7dKFLA00W7hVL43,4.0,images/choice_trial_16.png,images/choice_trial_6.png,images/pattern_3.png,j,f,7000.0,16.0,6.0,2.0,0.0,38.0,1.0,0.0,16.0,150.0,,,,,,65a53ce092b4798f1b1ff5bb,09:07:04,27/02/2024
html-keyboard-response,212,441712,0.0-88.0-1.0,,"<div style=""display: flex; flex-direction: column; align-items: center; margin-top: -40px;""><img src=""images/pattern_3.png"" style=""width: 234px; height: 230px; margin-top: -50px;""><div style=""display: flex; justify-content: space-between; margin-top: 33px;""><img src=""images/choice_trial_16.png"" style=""width: 408px; height: 417px; margin-right: 608px;""></div></div>",,delaylearn,learning,display_response,41hWcgihi1bNV7dKFLA00W7hVL43,41hWcgihi1bNV7dKFLA00W7hVL43,,,,,,,,,,,,,,,,,chosen stimuli: images/choice_trial_16.png,,,,,65a53ce092b4798f1b1ff5bb,09:07:04,27/02/2024
html-keyboard-response,213,448722,0.0-88.0-2.0,,,,delaylearn,learning,feedback_duration_window,41hWcgihi1bNV7dKFLA00W7hVL43,41hWcgihi1bNV7dKFLA00W7hVL43,,,,,,,,,,,,,,,,,,7000.0,,,,65a53ce092b4798f1b1ff5bb,09:07:04,27/02/2024
html-keyboard-response,214,450227,0.0-88.0-3.0,,<div style='margin:auto;width: auto; font-size: 150%'><span style='font-weight: bold; font-size: 100px; color: red;'>0 points!</span><br><br></div>,,delaylearn,learning,feedback_image_window,41hWcgihi1bNV7dKFLA00W7hVL43,41hWcgihi1bNV7dKFLA00W7hVL43,,,,,,,,,,,,,,,,,,,,,,65a53ce092b4798f1b1ff5bb,09:07:04,27/02/2024
html-keyboard-response,215,452335,0.0-89.0,,"<div style=""font-size:100px;"">+</div>",,delaylearn,learning,ITI,41hWcgihi1bNV7dKFLA00W7hVL43,41hWcgihi1bNV7dKFLA00W7hVL43,,,,,,,,,,,,,,,,,,,2099.0,,,65a53ce092b4798f1b1ff5bb,09:07:04,27/02/2024
html-keyboard-response,216,453623,0.0-90.0-0.0,1284.5,"<div style=""display: flex; flex-direction: column; align-items: center; margin-top: -40px;""><img src=""images/pattern_7.png"" style=""width: 234px; height: 230px; margin-top: -50px;""><div style=""display: flex; justify-content: space-between; margin-top: 33px;""><img src=""images/choice_trial_4.png"" style=""width: 408px; height: 417px; margin-right: 200px;""><img src=""images/choice_trial_13.png"" style=""width: 408px; height: 417px;""></div></div>",j,delaylearn,learning,trial,41hWcgihi1bNV7dKFLA00W7hVL43,41hWcgihi1bNV7dKFLA00W7hVL43,4.0,images/choice_trial_4.png,images/choice_trial_13.png,images/pattern_7.png,j,j,750.0,4.0,13.0,6.0,1.0,39.0,1.0,1.0,13.0,160.0,,,,,,65a53ce092b4798f1b1ff5bb,09:07:04,27/02/2024
html-keyboard-response,217,454627,0.0-90.0-1.0,,"<div style=""display: flex; flex-direction: column; align-items: center; margin-top: -40px;""><img src=""images/pattern_7.png"" style=""width: 234px; height: 230px; margin-top: -50px;""><div style=""display: flex; justify-content: space-between; margin-top: 33px;""><img src=""images/choice_trial_13.png"" style=""width: 408px; height: 417px; margin-left:608px;""></div></div>",,delaylearn,learning,display_response,41hWcgihi1bNV7dKFLA00W7hVL43,41hWcgihi1bNV7dKFLA00W7hVL43,,,,,,,,,,,,,,,,,chosen stimuli: images/choice_trial_13.png,,,,,65a53ce092b4798f1b1ff5bb,09:07:04,27/02/2024
html-keyboard-response,218,455382,0.0-90.0-2.0,,,,delaylearn,learning,feedback_duration_window,41hWcgihi1bNV7dKFLA00W7hVL43,41hWcgihi1bNV7dKFLA00W7hVL43,,,,,,,,,,,,,,,,,,750.0,,,,65a53ce092b4798f1b1ff5bb,09:07:04,27/02/2024
html-keyboard-response,219,456896,0.0-90.0-3.0,,<div style='margin:auto;width: auto; font-size: 150%'><span style='font-weight: bold; font-size: 100px; color: green;'>+10 points!</span><br><br></div>,,delaylearn,learning,feedback_image_window,41hWcgihi1bNV7dKFLA00W7hVL43,41hWcgihi1bNV7dKFLA00W7hVL43,,,,,,,,,,,,,,,,,,,,,,65a53ce092b4798f1b1ff5bb,09:07:04,27/02/2024
html-keyboard-response,220,458421,0.0-91.0,,"<div style=""font-size:100px;"">+</div>",,delaylearn,learning,ITI,41hWcgihi1bNV7dKFLA00W7hVL43,41hWcgihi1bNV7dKFLA00W7hVL43,,,,,,,,,,,,,,,,,,,1519.0,,,65a53ce092b4798f1b1ff5bb,09:07:04,27/02/2024
