trial_type,trial_index,time_elapsed,internal_node_id,rt,stimulus,response,exp_name,exp_stage,test_part,subjectID,databaseID,counterbal,choice_stimuli_1,choice_stimuli_2,pattern_stimuli,rewarded_answer,correct_answer,feedback_duration_times,stim_left,stim_right,pair,leftright_counter,trial,response_correct,response_rewarded,chosen_stim,counter,displayed_choice,feedback_durations,ITI_duration,labels,rest_warning,prolificID,start_time,date
pavlovia,0,631,0.0-0.0,,,,,,,5daadfWtCygfG1fq7ZpLQY7Iir73,,,,,,,,,,,,,,,,,,,,,,,60650e72f3359295eb889c0f,15:53:07,26/03/2024
html-keyboard-response,1,3633,0.0-1.0,,"<div style=""font-size:100px;"">+</div>",,delaylearn,learning,pre_fixation,5daadfWtCygfG1fq7ZpLQY7Iir73,,,,,,,,,,,,,,,,,,,,,,,60650e72f3359295eb889c0f,15:53:07,26/03/2024
html-keyboard-response,2,4678,0.0-2.0-0.0,1042.9000000953674,"<div style=""display: flex; flex-direction: column; align-items: center; margin-top: -40px;""><img src=""images/demo_images/pattern_1.png"" style=""width: 234px; height: 230px; margin-top: -50px;""><div style=""display: flex; justify-content: space-between; margin-top: 33px;""><img src=""images/demo_images/choice_trial_2.png"" style=""width: 408px; height: 417px; margin-right: 200px;""><img src=""images/demo_images/choice_trial_1.png"" style=""width: 408px; height: 417px;""></div></div>",f,delaylearn,learning,trial,5daadfWtCygfG1fq7ZpLQY7Iir73,5daadfWtCygfG1fq7ZpLQY7Iir73,3.0,images/demo_images/choice_trial_2.png,images/demo_images/choice_trial_1.png,images/demo_images/pattern_1.png,j,j,3000.0,2.0,1.0,20.0,1.0,1.0,0.0,0.0,2.0,0.0,,,,,,60650e72f3359295eb889c0f,15:53:07,26/03/2024
html-keyboard-response,3,5694,0.0-2.0-1.0,,"<div style=""display: flex; flex-direction: column; align-items: center; margin-top: -40px;""><img src=""images/demo_images/pattern_1.png"" style=""width: 234px; height: 230px; margin-top: -50px;""><div style=""display: flex; justify-content: space-between; margin-top: 33px;""><img src=""images/demo_images/choice_trial_2.png"" style=""width: 408px; height: 417px; margin-right: 608px;""></div></div>",,delaylearn,learning,display_response,5daadfWtCygfG1fq7ZpLQY7Iir73,5daadfWtCygfG1fq7ZpLQY7Iir73,,,,,,,,,,,,,,,,,chosen stimuli: images/demo_images/choice_trial_2.png,,,,,60650e72f3359295eb889c0f,15:53:07,26/03/2024
html-keyboard-response,4,8707,0.0-2.0-2.0,,,,delaylearn,learning,feedback_duration_window,5daadfWtCygfG1fq7ZpLQY7Iir73,5daadfWtCygfG1fq7ZpLQY7Iir73,,,,,,,,,,,,,,,,,,3000.0,,,,60650e72f3359295eb889c0f,15:53:07,26/03/2024
html-keyboard-response,5,10220,0.0-2.0-3.0,,<div style='margin:auto;width: auto; font-size: 150%'><span style='font-weight: bold; font-size: 100px; color: red;'>0 points!</span><br><br></div>,,delaylearn,learning,feedback_image_window,5daadfWtCygfG1fq7ZpLQY7Iir73,5daadfWtCygfG1fq7ZpLQY7Iir73,,,,,,,,,,,,,,,,,,,,,,60650e72f3359295eb889c0f,15:53:07,26/03/2024
html-keyboard-response,6,12059,0.0-3.0,,"<div style=""font-size:100px;"">+</div>",,delaylearn,learning,ITI,5daadfWtCygfG1fq7ZpLQY7Iir73,5daadfWtCygfG1fq7ZpLQY7Iir73,,,,,,,,,,,,,,,,,,,1829.0,,,60650e72f3359295eb889c0f,15:53:07,26/03/2024
html-keyboard-response,7,12588,0.0-4.0-0.0,526.7999999523163,"<div style=""display: flex; flex-direction: column; align-items: center; margin-top: -40px;""><img src=""images/demo_images/pattern_1.png"" style=""width: 234px; height: 230px; margin-top: -50px;""><div style=""display: flex; justify-content: space-between; margin-top: 33px;""><img src=""images/demo_images/choice_trial_2.png"" style=""width: 408px; height: 417px; margin-right: 200px;""><img src=""images/demo_images/choice_trial_1.png"" style=""width: 408px; height: 417px;""></div></div>",j,delaylearn,learning,trial,5daadfWtCygfG1fq7ZpLQY7Iir73,5daadfWtCygfG1fq7ZpLQY7Iir73,3.0,images/demo_images/choice_trial_2.png,images/demo_images/choice_trial_1.png,images/demo_images/pattern_1.png,j,j,3000.0,2.0,1.0,20.0,1.0,2.0,1.0,1.0,1.0,10.0,,,,,,60650e72f3359295eb889c0f,15:53:07,26/03/2024
html-keyboard-response,8,13604,0.0-4.0-1.0,,"<div style=""display: flex; flex-direction: column; align-items: center; margin-top: -40px;""><img src=""images/demo_images/pattern_1.png"" style=""width: 234px; height: 230px; margin-top: -50px;""><div style=""display: flex; justify-content: space-between; margin-top: 33px;""><img src=""images/demo_images/choice_trial_1.png"" style=""width: 408px; height: 417px; margin-left:608px;""></div></div>",,delaylearn,learning,display_response,5daadfWtCygfG1fq7ZpLQY7Iir73,5daadfWtCygfG1fq7ZpLQY7Iir73,,,,,,,,,,,,,,,,,chosen stimuli: images/demo_images/choice_trial_1.png,,,,,60650e72f3359295eb889c0f,15:53:07,26/03/2024
html-keyboard-response,9,16612,0.0-4.0-2.0,,,,delaylearn,learning,feedback_duration_window,5daadfWtCygfG1fq7ZpLQY7Iir73,5daadfWtCygfG1fq7ZpLQY7Iir73,,,,,,,,,,,,,,,,,,3000.0,,,,60650e72f3359295eb889c0f,15:53:07,26/03/2024
html-keyboard-response,10,18119,0.0-4.0-3.0,,<div style='margin:auto;width: auto; font-size: 150%'><span style='font-weight: bold; font-size: 100px; color: green;'>+10 points!</span><br><br></div>,,delaylearn,learning,feedback_image_window,5daadfWtCygfG1fq7ZpLQY7Iir73,5daadfWtCygfG1fq7ZpLQY7Iir73,,,,,,,,,,,,,,,,,,,,,,60650e72f3359295eb889c0f,15:53:07,26/03/2024
html-keyboard-response,11,20361,0.0-5.0,,"<div style=""font-size:100px;"">+</div>",,delaylearn,learning,ITI,5daadfWtCygfG1fq7ZpLQY7Iir73,5daadfWtCygfG1fq7ZpLQY7Iir73,,,,,,,,,,,,,,,,,,,2233.0,,,60650e72f3359295eb889c0f,15:53:07,26/03/2024
html-keyboard-response,12,21375,0.0-6.0-0.0,1012.7999999523163,"<div style=""display: flex; flex-direction: column; align-items: center; margin-top: -40px;""><img src=""images/demo_images/pattern_1.png"" style=""width: 234px; height: 230px; margin-top: -50px;""><div style=""display: flex; justify-content: space-between; margin-top: 33px;""><img src=""images/demo_images/choice_trial_1.png"" style=""width: 408px; height: 417px; margin-right: 200px;""><img src=""images/demo_images/choice_trial_2.png"" style=""width: 408px; height: 417px;""></div></div>",f,delaylearn,learning,trial,5daadfWtCygfG1fq7ZpLQY7Iir73,5daadfWtCygfG1fq7ZpLQY7Iir73,3.0,images/demo_images/choice_trial_1.png,images/demo_images/choice_trial_2.png,images/demo_images/pattern_1.png,j,f,3000.0,1.0,2.0,20.0,0.0,3.0,1.0,0.0,1.0,10.0,,,,,,60650e72f3359295eb889c0f,15:53:07,26/03/2024
html-keyboard-response,13,22379,0.0-6.0-1.0,,"<div style=""display: flex; flex-direction: column; align-items: center; margin-top: -40px;""><img src=""images/demo_images/pattern_1.png"" style=""width: 234px; height: 230px; margin-top: -50px;""><div style=""display: flex; justify-content: space-between; margin-top: 33px;""><img src=""images/demo_images/choice_trial_1.png"" style=""width: 408px; height: 417px; margin-right: 608px;""></div></div>",,delaylearn,learning,display_response,5daadfWtCygfG1fq7ZpLQY7Iir73,5daadfWtCygfG1fq7ZpLQY7Iir73,,,,,,,,,,,,,,,,,chosen stimuli: images/demo_images/choice_trial_1.png,,,,,60650e72f3359295eb889c0f,15:53:07,26/03/2024
html-keyboard-response,14,25380,0.0-6.0-2.0,,,,delaylearn,learning,feedback_duration_window,5daadfWtCygfG1fq7ZpLQY7Iir73,5daadfWtCygfG1fq7ZpLQY7Iir73,,,,,,,,,,,,,,,,,,3000.0,,,,60650e72f3359295eb889c0f,15:53:07,26/03/2024
html-keyboard-response,15,26894,0.0-6.0-3.0,,<div style='margin:auto;width: auto; font-size: 150%'><span style='font-weight: bold; font-size: 100px; color: red;'>0 points!</span><br><br></div>,,delaylearn,learning,feedback_image_window,5daadfWtCygfG1fq7ZpLQY7Iir73,5daadfWtCygfG1fq7ZpLQY7Iir73,,,,,,,,,,,,,,,,,,,,,,60650e72f3359295eb889c0f,15:53:07,26/03/2024
html-keyboard-response,16,29052,0.0-7.0,,"<div style=""font-size:100px;"">+</div>",,delaylearn,learning,ITI,5daadfWtCygfG1fq7ZpLQY7Iir73,5daadfWtCygfG1fq7ZpLQY7Iir73,,,,,,,,,,,,,,,,,,,2152.0,,,60650e72f3359295eb889c0f,15:53:07,26/03/2024
html-keyboard-response,17,30024,0.0-8.0-0.0,970.1999999284744,"<div style=""display: flex; flex-direction: column; align-items: center; margin-top: -40px;""><img src=""images/demo_images/pattern_1.png"" style=""width: 234px; height: 230px; margin-top: -50px;""><div style=""display: flex; justify-content: space-between; margin-top: 33px;""><img src=""images/demo_images/choice_trial_1.png"" style=""width: 408px; height: 417px; margin-right: 200px;""><img src=""images/demo_images/choice_trial_2.png"" style=""width: 408px; height: 417px;""></div></div>",f,delaylearn,learning,trial,5daadfWtCygfG1fq7ZpLQY7Iir73,5daadfWtCygfG1fq7ZpLQY7Iir73,3.0,images/demo_images/choice_trial_1.png,images/demo_images/choice_trial_2.png,images/demo_images/pattern_1.png,f,f,3000.0,1.0,2.0,20.0,0.0,4.0,1.0,1.0,1.0,20.0,,,,,,60650e72f3359295eb889c0f,15:53:07,26/03/2024
html-keyboard-response,18,31026,0.0-8.0-1.0,,"<div style=""display: flex; flex-direction: column; align-items: center; margin-top: -40px;""><img src=""images/demo_images/pattern_1.png"" style=""width: 234px; height: 230px; margin-top: -50px;""><div style=""display: flex; justify-content: space-between; margin-top: 33px;""><img src=""images/demo_images/choice_trial_1.png"" style=""width: 408px; height: 417px; margin-right: 608px;""></div></div>",,delaylearn,learning,display_response,5daadfWtCygfG1fq7ZpLQY7Iir73,5daadfWtCygfG1fq7ZpLQY7Iir73,,,,,,,,,,,,,,,,,chosen stimuli: images/demo_images/choice_trial_1.png,,,,,60650e72f3359295eb889c0f,15:53:07,26/03/2024
html-keyboard-response,19,34032,0.0-8.0-2.0,,,,delaylearn,learning,feedback_duration_window,5daadfWtCygfG1fq7ZpLQY7Iir73,5daadfWtCygfG1fq7ZpLQY7Iir73,,,,,,,,,,,,,,,,,,3000.0,,,,60650e72f3359295eb889c0f,15:53:07,26/03/2024
html-keyboard-response,20,35545,0.0-8.0-3.0,,<div style='margin:auto;width: auto; font-size: 150%'><span style='font-weight: bold; font-size: 100px; color: green;'>+10 points!</span><br><br></div>,,delaylearn,learning,feedback_image_window,5daadfWtCygfG1fq7ZpLQY7Iir73,5daadfWtCygfG1fq7ZpLQY7Iir73,,,,,,,,,,,,,,,,,,,,,,60650e72f3359295eb889c0f,15:53:07,26/03/2024
html-keyboard-response,21,36047,0.0-9.0-0.0,,,,,,mood_trial_fixation,5daadfWtCygfG1fq7ZpLQY7Iir73,,,,,,,,,,,,,,,,,,,,,,,60650e72f3359295eb889c0f,15:53:07,26/03/2024
lmdlab-html-vas-response,22,41383,0.0-9.0-1.0,4314.0,How happy are you right now?,0.8117283950617284,delaylearn,learning,mood_trial,5daadfWtCygfG1fq7ZpLQY7Iir73,5daadfWtCygfG1fq7ZpLQY7Iir73,,,,,,,,,,,,,,,,,,,,"['Very unhappy', 'Very happy']",,60650e72f3359295eb889c0f,15:53:07,26/03/2024
html-keyboard-response,23,43508,0.0-10.0,,"<div style=""font-size:100px;"">+</div>",,delaylearn,learning,ITI,5daadfWtCygfG1fq7ZpLQY7Iir73,5daadfWtCygfG1fq7ZpLQY7Iir73,,,,,,,,,,,,,,,,,,,2122.0,,,60650e72f3359295eb889c0f,15:53:07,26/03/2024
html-keyboard-response,24,44524,0.0-11.0-0.0,1014.1000000238419,"<div style=""display: flex; flex-direction: column; align-items: center; margin-top: -40px;""><img src=""images/demo_images/pattern_1.png"" style=""width: 234px; height: 230px; margin-top: -50px;""><div style=""display: flex; justify-content: space-between; margin-top: 33px;""><img src=""images/demo_images/choice_trial_2.png"" style=""width: 408px; height: 417px; margin-right: 200px;""><img src=""images/demo_images/choice_trial_1.png"" style=""width: 408px; height: 417px;""></div></div>",j,delaylearn,learning,trial,5daadfWtCygfG1fq7ZpLQY7Iir73,5daadfWtCygfG1fq7ZpLQY7Iir73,3.0,images/demo_images/choice_trial_2.png,images/demo_images/choice_trial_1.png,images/demo_images/pattern_1.png,j,j,3000.0,2.0,1.0,20.0,1.0,5.0,1.0,1.0,1.0,30.0,,,,,,60650e72f3359295eb889c0f,15:53:07,26/03/2024
html-keyboard-response,25,45532,0.0-11.0-1.0,,"<div style=""display: flex; flex-direction: column; align-items: center; margin-top: -40px;""><img src=""images/demo_images/pattern_1.png"" style=""width: 234px; height: 230px; margin-top: -50px;""><div style=""display: flex; justify-content: space-between; margin-top: 33px;""><img src=""images/demo_images/choice_trial_1.png"" style=""width: 408px; height: 417px; margin-left:608px;""></div></div>",,delaylearn,learning,display_response,5daadfWtCygfG1fq7ZpLQY7Iir73,5daadfWtCygfG1fq7ZpLQY7Iir73,,,,,,,,,,,,,,,,,chosen stimuli: images/demo_images/choice_trial_1.png,,,,,60650e72f3359295eb889c0f,15:53:07,26/03/2024
html-keyboard-response,26,48536,0.0-11.0-2.0,,,,delaylearn,learning,feedback_duration_window,5daadfWtCygfG1fq7ZpLQY7Iir73,5daadfWtCygfG1fq7ZpLQY7Iir73,,,,,,,,,,,,,,,,,,3000.0,,,,60650e72f3359295eb889c0f,15:53:07,26/03/2024
html-keyboard-response,27,50043,0.0-11.0-3.0,,<div style='margin:auto;width: auto; font-size: 150%'><span style='font-weight: bold; font-size: 100px; color: green;'>+10 points!</span><br><br></div>,,delaylearn,learning,feedback_image_window,5daadfWtCygfG1fq7ZpLQY7Iir73,5daadfWtCygfG1fq7ZpLQY7Iir73,,,,,,,,,,,,,,,,,,,,,,60650e72f3359295eb889c0f,15:53:07,26/03/2024
html-keyboard-response,28,52225,0.0-12.0,,"<div style=""font-size:100px;"">+</div>",,delaylearn,learning,ITI,5daadfWtCygfG1fq7ZpLQY7Iir73,5daadfWtCygfG1fq7ZpLQY7Iir73,,,,,,,,,,,,,,,,,,,2176.0,,,60650e72f3359295eb889c0f,15:53:07,26/03/2024
html-keyboard-response,29,52980,0.0-13.0-0.0,752.0,"<div style=""display: flex; flex-direction: column; align-items: center; margin-top: -40px;""><img src=""images/demo_images/pattern_1.png"" style=""width: 234px; height: 230px; margin-top: -50px;""><div style=""display: flex; justify-content: space-between; margin-top: 33px;""><img src=""images/demo_images/choice_trial_1.png"" style=""width: 408px; height: 417px; margin-right: 200px;""><img src=""images/demo_images/choice_trial_2.png"" style=""width: 408px; height: 417px;""></div></div>",f,delaylearn,learning,trial,5daadfWtCygfG1fq7ZpLQY7Iir73,5daadfWtCygfG1fq7ZpLQY7Iir73,3.0,images/demo_images/choice_trial_1.png,images/demo_images/choice_trial_2.png,images/demo_images/pattern_1.png,f,f,3000.0,1.0,2.0,20.0,0.0,6.0,1.0,1.0,1.0,40.0,,,,,,60650e72f3359295eb889c0f,15:53:07,26/03/2024
html-keyboard-response,30,53990,0.0-13.0-1.0,,"<div style=""display: flex; flex-direction: column; align-items: center; margin-top: -40px;""><img src=""images/demo_images/pattern_1.png"" style=""width: 234px; height: 230px; margin-top: -50px;""><div style=""display: flex; justify-content: space-between; margin-top: 33px;""><img src=""images/demo_images/choice_trial_1.png"" style=""width: 408px; height: 417px; margin-right: 608px;""></div></div>",,delaylearn,learning,display_response,5daadfWtCygfG1fq7ZpLQY7Iir73,5daadfWtCygfG1fq7ZpLQY7Iir73,,,,,,,,,,,,,,,,,chosen stimuli: images/demo_images/choice_trial_1.png,,,,,60650e72f3359295eb889c0f,15:53:07,26/03/2024
html-keyboard-response,31,56996,0.0-13.0-2.0,,,,delaylearn,learning,feedback_duration_window,5daadfWtCygfG1fq7ZpLQY7Iir73,5daadfWtCygfG1fq7ZpLQY7Iir73,,,,,,,,,,,,,,,,,,3000.0,,,,60650e72f3359295eb889c0f,15:53:07,26/03/2024
html-keyboard-response,32,58506,0.0-13.0-3.0,,<div style='margin:auto;width: auto; font-size: 150%'><span style='font-weight: bold; font-size: 100px; color: green;'>+10 points!</span><br><br></div>,,delaylearn,learning,feedback_image_window,5daadfWtCygfG1fq7ZpLQY7Iir73,5daadfWtCygfG1fq7ZpLQY7Iir73,,,,,,,,,,,,,,,,,,,,,,60650e72f3359295eb889c0f,15:53:07,26/03/2024
html-keyboard-response,33,60189,0.0-14.0,,"<div style=""font-size:100px;"">+</div>",,delaylearn,learning,ITI,5daadfWtCygfG1fq7ZpLQY7Iir73,5daadfWtCygfG1fq7ZpLQY7Iir73,,,,,,,,,,,,,,,,,,,1680.0,,,60650e72f3359295eb889c0f,15:53:07,26/03/2024
html-keyboard-response,34,62104,0.0-15.0-0.0,1911.6000000238419,"<div style=""display: flex; flex-direction: column; align-items: center; margin-top: -40px;""><img src=""images/demo_images/pattern_1.png"" style=""width: 234px; height: 230px; margin-top: -50px;""><div style=""display: flex; justify-content: space-between; margin-top: 33px;""><img src=""images/demo_images/choice_trial_2.png"" style=""width: 408px; height: 417px; margin-right: 200px;""><img src=""images/demo_images/choice_trial_1.png"" style=""width: 408px; height: 417px;""></div></div>",j,delaylearn,learning,trial,5daadfWtCygfG1fq7ZpLQY7Iir73,5daadfWtCygfG1fq7ZpLQY7Iir73,3.0,images/demo_images/choice_trial_2.png,images/demo_images/choice_trial_1.png,images/demo_images/pattern_1.png,j,j,3000.0,2.0,1.0,20.0,1.0,7.0,1.0,1.0,1.0,50.0,,,,,,60650e72f3359295eb889c0f,15:53:07,26/03/2024
html-keyboard-response,35,63106,0.0-15.0-1.0,,"<div style=""display: flex; flex-direction: column; align-items: center; margin-top: -40px;""><img src=""images/demo_images/pattern_1.png"" style=""width: 234px; height: 230px; margin-top: -50px;""><div style=""display: flex; justify-content: space-between; margin-top: 33px;""><img src=""images/demo_images/choice_trial_1.png"" style=""width: 408px; height: 417px; margin-left:608px;""></div></div>",,delaylearn,learning,display_response,5daadfWtCygfG1fq7ZpLQY7Iir73,5daadfWtCygfG1fq7ZpLQY7Iir73,,,,,,,,,,,,,,,,,chosen stimuli: images/demo_images/choice_trial_1.png,,,,,60650e72f3359295eb889c0f,15:53:07,26/03/2024
html-keyboard-response,36,66113,0.0-15.0-2.0,,,,delaylearn,learning,feedback_duration_window,5daadfWtCygfG1fq7ZpLQY7Iir73,5daadfWtCygfG1fq7ZpLQY7Iir73,,,,,,,,,,,,,,,,,,3000.0,,,,60650e72f3359295eb889c0f,15:53:07,26/03/2024
html-keyboard-response,37,67627,0.0-15.0-3.0,,<div style='margin:auto;width: auto; font-size: 150%'><span style='font-weight: bold; font-size: 100px; color: green;'>+10 points!</span><br><br></div>,,delaylearn,learning,feedback_image_window,5daadfWtCygfG1fq7ZpLQY7Iir73,5daadfWtCygfG1fq7ZpLQY7Iir73,,,,,,,,,,,,,,,,,,,,,,60650e72f3359295eb889c0f,15:53:07,26/03/2024
html-keyboard-response,38,69616,0.0-16.0,,"<div style=""font-size:100px;"">+</div>",,delaylearn,learning,ITI,5daadfWtCygfG1fq7ZpLQY7Iir73,5daadfWtCygfG1fq7ZpLQY7Iir73,,,,,,,,,,,,,,,,,,,1981.0,,,60650e72f3359295eb889c0f,15:53:07,26/03/2024
html-keyboard-response,39,71145,0.0-17.0-0.0,1526.7999999523163,"<div style=""display: flex; flex-direction: column; align-items: center; margin-top: -40px;""><img src=""images/demo_images/pattern_1.png"" style=""width: 234px; height: 230px; margin-top: -50px;""><div style=""display: flex; justify-content: space-between; margin-top: 33px;""><img src=""images/demo_images/choice_trial_1.png"" style=""width: 408px; height: 417px; margin-right: 200px;""><img src=""images/demo_images/choice_trial_2.png"" style=""width: 408px; height: 417px;""></div></div>",f,delaylearn,learning,trial,5daadfWtCygfG1fq7ZpLQY7Iir73,5daadfWtCygfG1fq7ZpLQY7Iir73,3.0,images/demo_images/choice_trial_1.png,images/demo_images/choice_trial_2.png,images/demo_images/pattern_1.png,f,f,3000.0,1.0,2.0,20.0,0.0,8.0,1.0,1.0,1.0,60.0,,,,,,60650e72f3359295eb889c0f,15:53:07,26/03/2024
html-keyboard-response,40,72155,0.0-17.0-1.0,,"<div style=""display: flex; flex-direction: column; align-items: center; margin-top: -40px;""><img src=""images/demo_images/pattern_1.png"" style=""width: 234px; height: 230px; margin-top: -50px;""><div style=""display: flex; justify-content: space-between; margin-top: 33px;""><img src=""images/demo_images/choice_trial_1.png"" style=""width: 408px; height: 417px; margin-right: 608px;""></div></div>",,delaylearn,learning,display_response,5daadfWtCygfG1fq7ZpLQY7Iir73,5daadfWtCygfG1fq7ZpLQY7Iir73,,,,,,,,,,,,,,,,,chosen stimuli: images/demo_images/choice_trial_1.png,,,,,60650e72f3359295eb889c0f,15:53:07,26/03/2024
html-keyboard-response,41,75158,0.0-17.0-2.0,,,,delaylearn,learning,feedback_duration_window,5daadfWtCygfG1fq7ZpLQY7Iir73,5daadfWtCygfG1fq7ZpLQY7Iir73,,,,,,,,,,,,,,,,,,3000.0,,,,60650e72f3359295eb889c0f,15:53:07,26/03/2024
html-keyboard-response,42,76669,0.0-17.0-3.0,,<div style='margin:auto;width: auto; font-size: 150%'><span style='font-weight: bold; font-size: 100px; color: green;'>+10 points!</span><br><br></div>,,delaylearn,learning,feedback_image_window,5daadfWtCygfG1fq7ZpLQY7Iir73,5daadfWtCygfG1fq7ZpLQY7Iir73,,,,,,,,,,,,,,,,,,,,,,60650e72f3359295eb889c0f,15:53:07,26/03/2024
html-button-response,43,78867,0.0-18.0,2196.600000023842,"
  <div style=""display: flex; align-items: center; justify-content: center; height: 80vh;"">
  <div>
          <img src=""images/inst_demo_finish.png"" style=""width: 80vw; height:auto;"">
          <br><br>
      </div>
      <br><br>
  </div>",0,,,,5daadfWtCygfG1fq7ZpLQY7Iir73,,,,,,,,,,,,,,,,,,,,,,,60650e72f3359295eb889c0f,15:53:07,26/03/2024
html-keyboard-response,44,124604,0.0-19.0,45735.0,"
  <div style=""display: flex; align-items: center; justify-content: center; height: 80vh;"">
  <div>
          <img src=""images/inst_6.png"" style=""width: 80vw; height:auto;"">
          <br><br>
      </div>
      <br><br>
  </div>",f,,,,5daadfWtCygfG1fq7ZpLQY7Iir73,,,,,,,,,,,,,,,,,,,,,,,60650e72f3359295eb889c0f,15:53:07,26/03/2024
html-keyboard-response,45,127618,0.0-20.0,,"<div style=""font-size:100px;"">+</div>",,delaylearn,learning,pre_fixation,5daadfWtCygfG1fq7ZpLQY7Iir73,,,,,,,,,,,,,,,,,,,,,,,60650e72f3359295eb889c0f,15:53:07,26/03/2024
html-keyboard-response,46,129442,0.0-21.0,,"<div style=""font-size:100px;"">+</div>",,delaylearn,learning,ITI,5daadfWtCygfG1fq7ZpLQY7Iir73,5daadfWtCygfG1fq7ZpLQY7Iir73,,,,,,,,,,,,,,,,,,,1809.0,,,60650e72f3359295eb889c0f,15:53:07,26/03/2024
html-keyboard-response,47,130501,0.0-22.0-0.0,1055.5,"<div style=""display: flex; flex-direction: column; align-items: center; margin-top: -40px;""><img src=""images/pattern_3.png"" style=""width: 234px; height: 230px; margin-top: -50px;""><div style=""display: flex; justify-content: space-between; margin-top: 33px;""><img src=""images/choice_trial_13.png"" style=""width: 408px; height: 417px; margin-right: 200px;""><img src=""images/choice_trial_10.png"" style=""width: 408px; height: 417px;""></div></div>",j,delaylearn,learning,trial,5daadfWtCygfG1fq7ZpLQY7Iir73,5daadfWtCygfG1fq7ZpLQY7Iir73,3.0,images/choice_trial_13.png,images/choice_trial_10.png,images/pattern_3.png,f,f,7000.0,13.0,10.0,2.0,0.0,9.0,0.0,0.0,10.0,60.0,,,,,,60650e72f3359295eb889c0f,15:53:07,26/03/2024
html-keyboard-response,48,131511,0.0-22.0-1.0,,"<div style=""display: flex; flex-direction: column; align-items: center; margin-top: -40px;""><img src=""images/pattern_3.png"" style=""width: 234px; height: 230px; margin-top: -50px;""><div style=""display: flex; justify-content: space-between; margin-top: 33px;""><img src=""images/choice_trial_10.png"" style=""width: 408px; height: 417px; margin-left:608px;""></div></div>",,delaylearn,learning,display_response,5daadfWtCygfG1fq7ZpLQY7Iir73,5daadfWtCygfG1fq7ZpLQY7Iir73,,,,,,,,,,,,,,,,,chosen stimuli: images/choice_trial_10.png,,,,,60650e72f3359295eb889c0f,15:53:07,26/03/2024
html-keyboard-response,49,138515,0.0-22.0-2.0,,,,delaylearn,learning,feedback_duration_window,5daadfWtCygfG1fq7ZpLQY7Iir73,5daadfWtCygfG1fq7ZpLQY7Iir73,,,,,,,,,,,,,,,,,,7000.0,,,,60650e72f3359295eb889c0f,15:53:07,26/03/2024
html-keyboard-response,50,140016,0.0-22.0-3.0,,<div style='margin:auto;width: auto; font-size: 150%'><span style='font-weight: bold; font-size: 100px; color: red;'>0 points!</span><br><br></div>,,delaylearn,learning,feedback_image_window,5daadfWtCygfG1fq7ZpLQY7Iir73,5daadfWtCygfG1fq7ZpLQY7Iir73,,,,,,,,,,,,,,,,,,,,,,60650e72f3359295eb889c0f,15:53:07,26/03/2024
html-keyboard-response,51,142521,0.0-23.0,,"<div style=""font-size:100px;"">+</div>",,delaylearn,learning,ITI,5daadfWtCygfG1fq7ZpLQY7Iir73,5daadfWtCygfG1fq7ZpLQY7Iir73,,,,,,,,,,,,,,,,,,,2488.0,,,60650e72f3359295eb889c0f,15:53:07,26/03/2024
html-keyboard-response,52,143386,0.0-24.0-0.0,862.7999999523163,"<div style=""display: flex; flex-direction: column; align-items: center; margin-top: -40px;""><img src=""images/pattern_7.png"" style=""width: 234px; height: 230px; margin-top: -50px;""><div style=""display: flex; justify-content: space-between; margin-top: 33px;""><img src=""images/choice_trial_12.png"" style=""width: 408px; height: 417px; margin-right: 200px;""><img src=""images/choice_trial_6.png"" style=""width: 408px; height: 417px;""></div></div>",f,delaylearn,learning,trial,5daadfWtCygfG1fq7ZpLQY7Iir73,5daadfWtCygfG1fq7ZpLQY7Iir73,3.0,images/choice_trial_12.png,images/choice_trial_6.png,images/pattern_7.png,j,j,750.0,12.0,6.0,6.0,1.0,10.0,0.0,0.0,12.0,60.0,,,,,,60650e72f3359295eb889c0f,15:53:07,26/03/2024
html-keyboard-response,53,144394,0.0-24.0-1.0,,"<div style=""display: flex; flex-direction: column; align-items: center; margin-top: -40px;""><img src=""images/pattern_7.png"" style=""width: 234px; height: 230px; margin-top: -50px;""><div style=""display: flex; justify-content: space-between; margin-top: 33px;""><img src=""images/choice_trial_12.png"" style=""width: 408px; height: 417px; margin-right: 608px;""></div></div>",,delaylearn,learning,display_response,5daadfWtCygfG1fq7ZpLQY7Iir73,5daadfWtCygfG1fq7ZpLQY7Iir73,,,,,,,,,,,,,,,,,chosen stimuli: images/choice_trial_12.png,,,,,60650e72f3359295eb889c0f,15:53:07,26/03/2024
html-keyboard-response,54,145159,0.0-24.0-2.0,,,,delaylearn,learning,feedback_duration_window,5daadfWtCygfG1fq7ZpLQY7Iir73,5daadfWtCygfG1fq7ZpLQY7Iir73,,,,,,,,,,,,,,,,,,750.0,,,,60650e72f3359295eb889c0f,15:53:07,26/03/2024
html-keyboard-response,55,146662,0.0-24.0-3.0,,<div style='margin:auto;width: auto; font-size: 150%'><span style='font-weight: bold; font-size: 100px; color: red;'>0 points!</span><br><br></div>,,delaylearn,learning,feedback_image_window,5daadfWtCygfG1fq7ZpLQY7Iir73,5daadfWtCygfG1fq7ZpLQY7Iir73,,,,,,,,,,,,,,,,,,,,,,60650e72f3359295eb889c0f,15:53:07,26/03/2024
html-keyboard-response,56,149035,0.0-25.0,,"<div style=""font-size:100px;"">+</div>",,delaylearn,learning,ITI,5daadfWtCygfG1fq7ZpLQY7Iir73,5daadfWtCygfG1fq7ZpLQY7Iir73,,,,,,,,,,,,,,,,,,,2371.0,,,60650e72f3359295eb889c0f,15:53:07,26/03/2024
html-keyboard-response,57,150010,0.0-26.0-0.0,972.8999999761581,"<div style=""display: flex; flex-direction: column; align-items: center; margin-top: -40px;""><img src=""images/pattern_4.png"" style=""width: 234px; height: 230px; margin-top: -50px;""><div style=""display: flex; justify-content: space-between; margin-top: 33px;""><img src=""images/choice_trial_15.png"" style=""width: 408px; height: 417px; margin-right: 200px;""><img src=""images/choice_trial_9.png"" style=""width: 408px; height: 417px;""></div></div>",j,delaylearn,learning,trial,5daadfWtCygfG1fq7ZpLQY7Iir73,5daadfWtCygfG1fq7ZpLQY7Iir73,3.0,images/choice_trial_15.png,images/choice_trial_9.png,images/pattern_4.png,f,f,7000.0,15.0,9.0,3.0,0.0,11.0,0.0,0.0,9.0,60.0,,,,,,60650e72f3359295eb889c0f,15:53:07,26/03/2024
html-keyboard-response,58,151015,0.0-26.0-1.0,,"<div style=""display: flex; flex-direction: column; align-items: center; margin-top: -40px;""><img src=""images/pattern_4.png"" style=""width: 234px; height: 230px; margin-top: -50px;""><div style=""display: flex; justify-content: space-between; margin-top: 33px;""><img src=""images/choice_trial_9.png"" style=""width: 408px; height: 417px; margin-left:608px;""></div></div>",,delaylearn,learning,display_response,5daadfWtCygfG1fq7ZpLQY7Iir73,5daadfWtCygfG1fq7ZpLQY7Iir73,,,,,,,,,,,,,,,,,chosen stimuli: images/choice_trial_9.png,,,,,60650e72f3359295eb889c0f,15:53:07,26/03/2024
html-keyboard-response,59,158028,0.0-26.0-2.0,,,,delaylearn,learning,feedback_duration_window,5daadfWtCygfG1fq7ZpLQY7Iir73,5daadfWtCygfG1fq7ZpLQY7Iir73,,,,,,,,,,,,,,,,,,7000.0,,,,60650e72f3359295eb889c0f,15:53:07,26/03/2024
html-keyboard-response,60,159542,0.0-26.0-3.0,,<div style='margin:auto;width: auto; font-size: 150%'><span style='font-weight: bold; font-size: 100px; color: red;'>0 points!</span><br><br></div>,,delaylearn,learning,feedback_image_window,5daadfWtCygfG1fq7ZpLQY7Iir73,5daadfWtCygfG1fq7ZpLQY7Iir73,,,,,,,,,,,,,,,,,,,,,,60650e72f3359295eb889c0f,15:53:07,26/03/2024
html-keyboard-response,61,161890,0.0-27.0,,"<div style=""font-size:100px;"">+</div>",,delaylearn,learning,ITI,5daadfWtCygfG1fq7ZpLQY7Iir73,5daadfWtCygfG1fq7ZpLQY7Iir73,,,,,,,,,,,,,,,,,,,2333.0,,,60650e72f3359295eb889c0f,15:53:07,26/03/2024
html-keyboard-response,62,162878,0.0-28.0-0.0,985.5,"<div style=""display: flex; flex-direction: column; align-items: center; margin-top: -40px;""><img src=""images/pattern_5.png"" style=""width: 234px; height: 230px; margin-top: -50px;""><div style=""display: flex; justify-content: space-between; margin-top: 33px;""><img src=""images/choice_trial_2.png"" style=""width: 408px; height: 417px; margin-right: 200px;""><img src=""images/choice_trial_11.png"" style=""width: 408px; height: 417px;""></div></div>",f,delaylearn,learning,trial,5daadfWtCygfG1fq7ZpLQY7Iir73,5daadfWtCygfG1fq7ZpLQY7Iir73,3.0,images/choice_trial_2.png,images/choice_trial_11.png,images/pattern_5.png,j,j,750.0,2.0,11.0,4.0,1.0,12.0,0.0,0.0,2.0,60.0,,,,,,60650e72f3359295eb889c0f,15:53:07,26/03/2024
html-keyboard-response,63,163881,0.0-28.0-1.0,,"<div style=""display: flex; flex-direction: column; align-items: center; margin-top: -40px;""><img src=""images/pattern_5.png"" style=""width: 234px; height: 230px; margin-top: -50px;""><div style=""display: flex; justify-content: space-between; margin-top: 33px;""><img src=""images/choice_trial_2.png"" style=""width: 408px; height: 417px; margin-right: 608px;""></div></div>",,delaylearn,learning,display_response,5daadfWtCygfG1fq7ZpLQY7Iir73,5daadfWtCygfG1fq7ZpLQY7Iir73,,,,,,,,,,,,,,,,,chosen stimuli: images/choice_trial_2.png,,,,,60650e72f3359295eb889c0f,15:53:07,26/03/2024
html-keyboard-response,64,164648,0.0-28.0-2.0,,,,delaylearn,learning,feedback_duration_window,5daadfWtCygfG1fq7ZpLQY7Iir73,5daadfWtCygfG1fq7ZpLQY7Iir73,,,,,,,,,,,,,,,,,,750.0,,,,60650e72f3359295eb889c0f,15:53:07,26/03/2024
html-keyboard-response,65,166160,0.0-28.0-3.0,,<div style='margin:auto;width: auto; font-size: 150%'><span style='font-weight: bold; font-size: 100px; color: red;'>0 points!</span><br><br></div>,,delaylearn,learning,feedback_image_window,5daadfWtCygfG1fq7ZpLQY7Iir73,5daadfWtCygfG1fq7ZpLQY7Iir73,,,,,,,,,,,,,,,,,,,,,,60650e72f3359295eb889c0f,15:53:07,26/03/2024
html-keyboard-response,66,167866,0.0-29.0,,"<div style=""font-size:100px;"">+</div>",,delaylearn,learning,ITI,5daadfWtCygfG1fq7ZpLQY7Iir73,5daadfWtCygfG1fq7ZpLQY7Iir73,,,,,,,,,,,,,,,,,,,1704.0,,,60650e72f3359295eb889c0f,15:53:07,26/03/2024
html-keyboard-response,67,168732,0.0-30.0-0.0,863.7999999523163,"<div style=""display: flex; flex-direction: column; align-items: center; margin-top: -40px;""><img src=""images/pattern_6.png"" style=""width: 234px; height: 230px; margin-top: -50px;""><div style=""display: flex; justify-content: space-between; margin-top: 33px;""><img src=""images/choice_trial_16.png"" style=""width: 408px; height: 417px; margin-right: 200px;""><img src=""images/choice_trial_3.png"" style=""width: 408px; height: 417px;""></div></div>",j,delaylearn,learning,trial,5daadfWtCygfG1fq7ZpLQY7Iir73,5daadfWtCygfG1fq7ZpLQY7Iir73,3.0,images/choice_trial_16.png,images/choice_trial_3.png,images/pattern_6.png,j,f,750.0,16.0,3.0,5.0,0.0,13.0,0.0,1.0,3.0,70.0,,,,,,60650e72f3359295eb889c0f,15:53:07,26/03/2024
html-keyboard-response,68,169737,0.0-30.0-1.0,,"<div style=""display: flex; flex-direction: column; align-items: center; margin-top: -40px;""><img src=""images/pattern_6.png"" style=""width: 234px; height: 230px; margin-top: -50px;""><div style=""display: flex; justify-content: space-between; margin-top: 33px;""><img src=""images/choice_trial_3.png"" style=""width: 408px; height: 417px; margin-left:608px;""></div></div>",,delaylearn,learning,display_response,5daadfWtCygfG1fq7ZpLQY7Iir73,5daadfWtCygfG1fq7ZpLQY7Iir73,,,,,,,,,,,,,,,,,chosen stimuli: images/choice_trial_3.png,,,,,60650e72f3359295eb889c0f,15:53:07,26/03/2024
html-keyboard-response,69,170502,0.0-30.0-2.0,,,,delaylearn,learning,feedback_duration_window,5daadfWtCygfG1fq7ZpLQY7Iir73,5daadfWtCygfG1fq7ZpLQY7Iir73,,,,,,,,,,,,,,,,,,750.0,,,,60650e72f3359295eb889c0f,15:53:07,26/03/2024
html-keyboard-response,70,172016,0.0-30.0-3.0,,<div style='margin:auto;width: auto; font-size: 150%'><span style='font-weight: bold; font-size: 100px; color: green;'>+10 points!</span><br><br></div>,,delaylearn,learning,feedback_image_window,5daadfWtCygfG1fq7ZpLQY7Iir73,5daadfWtCygfG1fq7ZpLQY7Iir73,,,,,,,,,,,,,,,,,,,,,,60650e72f3359295eb889c0f,15:53:07,26/03/2024
html-keyboard-response,71,172517,0.0-31.0-0.0,,,,,,mood_trial_fixation,5daadfWtCygfG1fq7ZpLQY7Iir73,,,,,,,,,,,,,,,,,,,,,,,60650e72f3359295eb889c0f,15:53:07,26/03/2024
lmdlab-html-vas-response,72,176304,0.0-31.0-1.0,2769.0,How happy are you right now?,0.37808641975308643,delaylearn,learning,mood_trial,5daadfWtCygfG1fq7ZpLQY7Iir73,5daadfWtCygfG1fq7ZpLQY7Iir73,,,,,,,,,,,,,,,,,,,,"['Very unhappy', 'Very happy']",,60650e72f3359295eb889c0f,15:53:07,26/03/2024
html-keyboard-response,73,178627,0.0-32.0,,"<div style=""font-size:100px;"">+</div>",,delaylearn,learning,ITI,5daadfWtCygfG1fq7ZpLQY7Iir73,5daadfWtCygfG1fq7ZpLQY7Iir73,,,,,,,,,,,,,,,,,,,2309.0,,,60650e72f3359295eb889c0f,15:53:07,26/03/2024
html-keyboard-response,74,180459,0.0-33.0-0.0,1830.3000000715256,"<div style=""display: flex; flex-direction: column; align-items: center; margin-top: -40px;""><img src=""images/pattern_1.png"" style=""width: 234px; height: 230px; margin-top: -50px;""><div style=""display: flex; justify-content: space-between; margin-top: 33px;""><img src=""images/choice_trial_8.png"" style=""width: 408px; height: 417px; margin-right: 200px;""><img src=""images/choice_trial_14.png"" style=""width: 408px; height: 417px;""></div></div>",f,delaylearn,learning,trial,5daadfWtCygfG1fq7ZpLQY7Iir73,5daadfWtCygfG1fq7ZpLQY7Iir73,3.0,images/choice_trial_8.png,images/choice_trial_14.png,images/pattern_1.png,j,j,7000.0,8.0,14.0,1.0,1.0,14.0,0.0,0.0,8.0,70.0,,,,,,60650e72f3359295eb889c0f,15:53:07,26/03/2024
html-keyboard-response,75,181471,0.0-33.0-1.0,,"<div style=""display: flex; flex-direction: column; align-items: center; margin-top: -40px;""><img src=""images/pattern_1.png"" style=""width: 234px; height: 230px; margin-top: -50px;""><div style=""display: flex; justify-content: space-between; margin-top: 33px;""><img src=""images/choice_trial_8.png"" style=""width: 408px; height: 417px; margin-right: 608px;""></div></div>",,delaylearn,learning,display_response,5daadfWtCygfG1fq7ZpLQY7Iir73,5daadfWtCygfG1fq7ZpLQY7Iir73,,,,,,,,,,,,,,,,,chosen stimuli: images/choice_trial_8.png,,,,,60650e72f3359295eb889c0f,15:53:07,26/03/2024
html-keyboard-response,76,188472,0.0-33.0-2.0,,,,delaylearn,learning,feedback_duration_window,5daadfWtCygfG1fq7ZpLQY7Iir73,5daadfWtCygfG1fq7ZpLQY7Iir73,,,,,,,,,,,,,,,,,,7000.0,,,,60650e72f3359295eb889c0f,15:53:07,26/03/2024
html-keyboard-response,77,189988,0.0-33.0-3.0,,<div style='margin:auto;width: auto; font-size: 150%'><span style='font-weight: bold; font-size: 100px; color: red;'>0 points!</span><br><br></div>,,delaylearn,learning,feedback_image_window,5daadfWtCygfG1fq7ZpLQY7Iir73,5daadfWtCygfG1fq7ZpLQY7Iir73,,,,,,,,,,,,,,,,,,,,,,60650e72f3359295eb889c0f,15:53:07,26/03/2024
html-keyboard-response,78,191697,0.0-34.0,,"<div style=""font-size:100px;"">+</div>",,delaylearn,learning,ITI,5daadfWtCygfG1fq7ZpLQY7Iir73,5daadfWtCygfG1fq7ZpLQY7Iir73,,,,,,,,,,,,,,,,,,,1677.0,,,60650e72f3359295eb889c0f,15:53:07,26/03/2024
html-keyboard-response,79,192445,0.0-35.0-0.0,746.0,"<div style=""display: flex; flex-direction: column; align-items: center; margin-top: -40px;""><img src=""images/pattern_3.png"" style=""width: 234px; height: 230px; margin-top: -50px;""><div style=""display: flex; justify-content: space-between; margin-top: 33px;""><img src=""images/choice_trial_10.png"" style=""width: 408px; height: 417px; margin-right: 200px;""><img src=""images/choice_trial_13.png"" style=""width: 408px; height: 417px;""></div></div>",j,delaylearn,learning,trial,5daadfWtCygfG1fq7ZpLQY7Iir73,5daadfWtCygfG1fq7ZpLQY7Iir73,3.0,images/choice_trial_10.png,images/choice_trial_13.png,images/pattern_3.png,f,j,7000.0,10.0,13.0,2.0,1.0,15.0,1.0,0.0,13.0,70.0,,,,,,60650e72f3359295eb889c0f,15:53:07,26/03/2024
html-keyboard-response,80,193451,0.0-35.0-1.0,,"<div style=""display: flex; flex-direction: column; align-items: center; margin-top: -40px;""><img src=""images/pattern_3.png"" style=""width: 234px; height: 230px; margin-top: -50px;""><div style=""display: flex; justify-content: space-between; margin-top: 33px;""><img src=""images/choice_trial_13.png"" style=""width: 408px; height: 417px; margin-left:608px;""></div></div>",,delaylearn,learning,display_response,5daadfWtCygfG1fq7ZpLQY7Iir73,5daadfWtCygfG1fq7ZpLQY7Iir73,,,,,,,,,,,,,,,,,chosen stimuli: images/choice_trial_13.png,,,,,60650e72f3359295eb889c0f,15:53:07,26/03/2024
html-keyboard-response,81,200453,0.0-35.0-2.0,,,,delaylearn,learning,feedback_duration_window,5daadfWtCygfG1fq7ZpLQY7Iir73,5daadfWtCygfG1fq7ZpLQY7Iir73,,,,,,,,,,,,,,,,,,7000.0,,,,60650e72f3359295eb889c0f,15:53:07,26/03/2024
html-keyboard-response,82,201957,0.0-35.0-3.0,,<div style='margin:auto;width: auto; font-size: 150%'><span style='font-weight: bold; font-size: 100px; color: red;'>0 points!</span><br><br></div>,,delaylearn,learning,feedback_image_window,5daadfWtCygfG1fq7ZpLQY7Iir73,5daadfWtCygfG1fq7ZpLQY7Iir73,,,,,,,,,,,,,,,,,,,,,,60650e72f3359295eb889c0f,15:53:07,26/03/2024
html-keyboard-response,83,204133,0.0-36.0,,"<div style=""font-size:100px;"">+</div>",,delaylearn,learning,ITI,5daadfWtCygfG1fq7ZpLQY7Iir73,5daadfWtCygfG1fq7ZpLQY7Iir73,,,,,,,,,,,,,,,,,,,2175.0,,,60650e72f3359295eb889c0f,15:53:07,26/03/2024
html-keyboard-response,84,205486,0.0-37.0-0.0,1352.0,"<div style=""display: flex; flex-direction: column; align-items: center; margin-top: -40px;""><img src=""images/pattern_5.png"" style=""width: 234px; height: 230px; margin-top: -50px;""><div style=""display: flex; justify-content: space-between; margin-top: 33px;""><img src=""images/choice_trial_11.png"" style=""width: 408px; height: 417px; margin-right: 200px;""><img src=""images/choice_trial_2.png"" style=""width: 408px; height: 417px;""></div></div>",f,delaylearn,learning,trial,5daadfWtCygfG1fq7ZpLQY7Iir73,5daadfWtCygfG1fq7ZpLQY7Iir73,3.0,images/choice_trial_11.png,images/choice_trial_2.png,images/pattern_5.png,f,f,750.0,11.0,2.0,4.0,0.0,16.0,1.0,1.0,11.0,80.0,,,,,,60650e72f3359295eb889c0f,15:53:07,26/03/2024
html-keyboard-response,85,206503,0.0-37.0-1.0,,"<div style=""display: flex; flex-direction: column; align-items: center; margin-top: -40px;""><img src=""images/pattern_5.png"" style=""width: 234px; height: 230px; margin-top: -50px;""><div style=""display: flex; justify-content: space-between; margin-top: 33px;""><img src=""images/choice_trial_11.png"" style=""width: 408px; height: 417px; margin-right: 608px;""></div></div>",,delaylearn,learning,display_response,5daadfWtCygfG1fq7ZpLQY7Iir73,5daadfWtCygfG1fq7ZpLQY7Iir73,,,,,,,,,,,,,,,,,chosen stimuli: images/choice_trial_11.png,,,,,60650e72f3359295eb889c0f,15:53:07,26/03/2024
html-keyboard-response,86,207265,0.0-37.0-2.0,,,,delaylearn,learning,feedback_duration_window,5daadfWtCygfG1fq7ZpLQY7Iir73,5daadfWtCygfG1fq7ZpLQY7Iir73,,,,,,,,,,,,,,,,,,750.0,,,,60650e72f3359295eb889c0f,15:53:07,26/03/2024
html-keyboard-response,87,208769,0.0-37.0-3.0,,<div style='margin:auto;width: auto; font-size: 150%'><span style='font-weight: bold; font-size: 100px; color: green;'>+10 points!</span><br><br></div>,,delaylearn,learning,feedback_image_window,5daadfWtCygfG1fq7ZpLQY7Iir73,5daadfWtCygfG1fq7ZpLQY7Iir73,,,,,,,,,,,,,,,,,,,,,,60650e72f3359295eb889c0f,15:53:07,26/03/2024
html-keyboard-response,88,209274,0.0-38.0-0.0,,,,,,mood_trial_fixation,5daadfWtCygfG1fq7ZpLQY7Iir73,,,,,,,,,,,,,,,,,,,,,,,60650e72f3359295eb889c0f,15:53:07,26/03/2024
lmdlab-html-vas-response,89,213971,0.0-38.0-1.0,3682.0,How happy are you right now?,0.5246913580246914,delaylearn,learning,mood_trial,5daadfWtCygfG1fq7ZpLQY7Iir73,5daadfWtCygfG1fq7ZpLQY7Iir73,,,,,,,,,,,,,,,,,,,,"['Very unhappy', 'Very happy']",,60650e72f3359295eb889c0f,15:53:07,26/03/2024
html-keyboard-response,90,216420,0.0-39.0,,"<div style=""font-size:100px;"">+</div>",,delaylearn,learning,ITI,5daadfWtCygfG1fq7ZpLQY7Iir73,5daadfWtCygfG1fq7ZpLQY7Iir73,,,,,,,,,,,,,,,,,,,2442.0,,,60650e72f3359295eb889c0f,15:53:07,26/03/2024
html-keyboard-response,91,217591,0.0-40.0-0.0,1167.6999999284744,"<div style=""display: flex; flex-direction: column; align-items: center; margin-top: -40px;""><img src=""images/pattern_6.png"" style=""width: 234px; height: 230px; margin-top: -50px;""><div style=""display: flex; justify-content: space-between; margin-top: 33px;""><img src=""images/choice_trial_16.png"" style=""width: 408px; height: 417px; margin-right: 200px;""><img src=""images/choice_trial_3.png"" style=""width: 408px; height: 417px;""></div></div>",j,delaylearn,learning,trial,5daadfWtCygfG1fq7ZpLQY7Iir73,5daadfWtCygfG1fq7ZpLQY7Iir73,3.0,images/choice_trial_16.png,images/choice_trial_3.png,images/pattern_6.png,f,f,750.0,16.0,3.0,5.0,0.0,17.0,0.0,0.0,3.0,80.0,,,,,,60650e72f3359295eb889c0f,15:53:07,26/03/2024
html-keyboard-response,92,218601,0.0-40.0-1.0,,"<div style=""display: flex; flex-direction: column; align-items: center; margin-top: -40px;""><img src=""images/pattern_6.png"" style=""width: 234px; height: 230px; margin-top: -50px;""><div style=""display: flex; justify-content: space-between; margin-top: 33px;""><img src=""images/choice_trial_3.png"" style=""width: 408px; height: 417px; margin-left:608px;""></div></div>",,delaylearn,learning,display_response,5daadfWtCygfG1fq7ZpLQY7Iir73,5daadfWtCygfG1fq7ZpLQY7Iir73,,,,,,,,,,,,,,,,,chosen stimuli: images/choice_trial_3.png,,,,,60650e72f3359295eb889c0f,15:53:07,26/03/2024
html-keyboard-response,93,219364,0.0-40.0-2.0,,,,delaylearn,learning,feedback_duration_window,5daadfWtCygfG1fq7ZpLQY7Iir73,5daadfWtCygfG1fq7ZpLQY7Iir73,,,,,,,,,,,,,,,,,,750.0,,,,60650e72f3359295eb889c0f,15:53:07,26/03/2024
html-keyboard-response,94,220875,0.0-40.0-3.0,,<div style='margin:auto;width: auto; font-size: 150%'><span style='font-weight: bold; font-size: 100px; color: red;'>0 points!</span><br><br></div>,,delaylearn,learning,feedback_image_window,5daadfWtCygfG1fq7ZpLQY7Iir73,5daadfWtCygfG1fq7ZpLQY7Iir73,,,,,,,,,,,,,,,,,,,,,,60650e72f3359295eb889c0f,15:53:07,26/03/2024
html-keyboard-response,95,223103,0.0-41.0,,"<div style=""font-size:100px;"">+</div>",,delaylearn,learning,ITI,5daadfWtCygfG1fq7ZpLQY7Iir73,5daadfWtCygfG1fq7ZpLQY7Iir73,,,,,,,,,,,,,,,,,,,2225.0,,,60650e72f3359295eb889c0f,15:53:07,26/03/2024
html-keyboard-response,96,224791,0.0-42.0-0.0,1685.3999999761581,"<div style=""display: flex; flex-direction: column; align-items: center; margin-top: -40px;""><img src=""images/pattern_4.png"" style=""width: 234px; height: 230px; margin-top: -50px;""><div style=""display: flex; justify-content: space-between; margin-top: 33px;""><img src=""images/choice_trial_9.png"" style=""width: 408px; height: 417px; margin-right: 200px;""><img src=""images/choice_trial_15.png"" style=""width: 408px; height: 417px;""></div></div>",f,delaylearn,learning,trial,5daadfWtCygfG1fq7ZpLQY7Iir73,5daadfWtCygfG1fq7ZpLQY7Iir73,3.0,images/choice_trial_9.png,images/choice_trial_15.png,images/pattern_4.png,j,j,7000.0,9.0,15.0,3.0,1.0,18.0,0.0,0.0,9.0,80.0,,,,,,60650e72f3359295eb889c0f,15:53:07,26/03/2024
html-keyboard-response,97,225805,0.0-42.0-1.0,,"<div style=""display: flex; flex-direction: column; align-items: center; margin-top: -40px;""><img src=""images/pattern_4.png"" style=""width: 234px; height: 230px; margin-top: -50px;""><div style=""display: flex; justify-content: space-between; margin-top: 33px;""><img src=""images/choice_trial_9.png"" style=""width: 408px; height: 417px; margin-right: 608px;""></div></div>",,delaylearn,learning,display_response,5daadfWtCygfG1fq7ZpLQY7Iir73,5daadfWtCygfG1fq7ZpLQY7Iir73,,,,,,,,,,,,,,,,,chosen stimuli: images/choice_trial_9.png,,,,,60650e72f3359295eb889c0f,15:53:07,26/03/2024
html-keyboard-response,98,232817,0.0-42.0-2.0,,,,delaylearn,learning,feedback_duration_window,5daadfWtCygfG1fq7ZpLQY7Iir73,5daadfWtCygfG1fq7ZpLQY7Iir73,,,,,,,,,,,,,,,,,,7000.0,,,,60650e72f3359295eb889c0f,15:53:07,26/03/2024
html-keyboard-response,99,234333,0.0-42.0-3.0,,<div style='margin:auto;width: auto; font-size: 150%'><span style='font-weight: bold; font-size: 100px; color: red;'>0 points!</span><br><br></div>,,delaylearn,learning,feedback_image_window,5daadfWtCygfG1fq7ZpLQY7Iir73,5daadfWtCygfG1fq7ZpLQY7Iir73,,,,,,,,,,,,,,,,,,,,,,60650e72f3359295eb889c0f,15:53:07,26/03/2024
html-keyboard-response,100,236619,0.0-43.0,,"<div style=""font-size:100px;"">+</div>",,delaylearn,learning,ITI,5daadfWtCygfG1fq7ZpLQY7Iir73,5daadfWtCygfG1fq7ZpLQY7Iir73,,,,,,,,,,,,,,,,,,,2283.0,,,60650e72f3359295eb889c0f,15:53:07,26/03/2024
html-keyboard-response,101,238363,0.0-44.0-0.0,1742.2999999523163,"<div style=""display: flex; flex-direction: column; align-items: center; margin-top: -40px;""><img src=""images/pattern_7.png"" style=""width: 234px; height: 230px; margin-top: -50px;""><div style=""display: flex; justify-content: space-between; margin-top: 33px;""><img src=""images/choice_trial_6.png"" style=""width: 408px; height: 417px; margin-right: 200px;""><img src=""images/choice_trial_12.png"" style=""width: 408px; height: 417px;""></div></div>",j,delaylearn,learning,trial,5daadfWtCygfG1fq7ZpLQY7Iir73,5daadfWtCygfG1fq7ZpLQY7Iir73,3.0,images/choice_trial_6.png,images/choice_trial_12.png,images/pattern_7.png,j,f,750.0,6.0,12.0,6.0,0.0,19.0,0.0,1.0,12.0,90.0,,,,,,60650e72f3359295eb889c0f,15:53:07,26/03/2024
html-keyboard-response,102,239378,0.0-44.0-1.0,,"<div style=""display: flex; flex-direction: column; align-items: center; margin-top: -40px;""><img src=""images/pattern_7.png"" style=""width: 234px; height: 230px; margin-top: -50px;""><div style=""display: flex; justify-content: space-between; margin-top: 33px;""><img src=""images/choice_trial_12.png"" style=""width: 408px; height: 417px; margin-left:608px;""></div></div>",,delaylearn,learning,display_response,5daadfWtCygfG1fq7ZpLQY7Iir73,5daadfWtCygfG1fq7ZpLQY7Iir73,,,,,,,,,,,,,,,,,chosen stimuli: images/choice_trial_12.png,,,,,60650e72f3359295eb889c0f,15:53:07,26/03/2024
html-keyboard-response,103,240143,0.0-44.0-2.0,,,,delaylearn,learning,feedback_duration_window,5daadfWtCygfG1fq7ZpLQY7Iir73,5daadfWtCygfG1fq7ZpLQY7Iir73,,,,,,,,,,,,,,,,,,750.0,,,,60650e72f3359295eb889c0f,15:53:07,26/03/2024
html-keyboard-response,104,241658,0.0-44.0-3.0,,<div style='margin:auto;width: auto; font-size: 150%'><span style='font-weight: bold; font-size: 100px; color: green;'>+10 points!</span><br><br></div>,,delaylearn,learning,feedback_image_window,5daadfWtCygfG1fq7ZpLQY7Iir73,5daadfWtCygfG1fq7ZpLQY7Iir73,,,,,,,,,,,,,,,,,,,,,,60650e72f3359295eb889c0f,15:53:07,26/03/2024
html-keyboard-response,105,244115,0.0-45.0,,"<div style=""font-size:100px;"">+</div>",,delaylearn,learning,ITI,5daadfWtCygfG1fq7ZpLQY7Iir73,5daadfWtCygfG1fq7ZpLQY7Iir73,,,,,,,,,,,,,,,,,,,2443.0,,,60650e72f3359295eb889c0f,15:53:07,26/03/2024
html-keyboard-response,106,245396,0.0-46.0-0.0,1277.6999999284744,"<div style=""display: flex; flex-direction: column; align-items: center; margin-top: -40px;""><img src=""images/pattern_1.png"" style=""width: 234px; height: 230px; margin-top: -50px;""><div style=""display: flex; justify-content: space-between; margin-top: 33px;""><img src=""images/choice_trial_14.png"" style=""width: 408px; height: 417px; margin-right: 200px;""><img src=""images/choice_trial_8.png"" style=""width: 408px; height: 417px;""></div></div>",j,delaylearn,learning,trial,5daadfWtCygfG1fq7ZpLQY7Iir73,5daadfWtCygfG1fq7ZpLQY7Iir73,3.0,images/choice_trial_14.png,images/choice_trial_8.png,images/pattern_1.png,f,f,7000.0,14.0,8.0,1.0,0.0,20.0,0.0,0.0,8.0,90.0,,,,,,60650e72f3359295eb889c0f,15:53:07,26/03/2024
html-keyboard-response,107,246411,0.0-46.0-1.0,,"<div style=""display: flex; flex-direction: column; align-items: center; margin-top: -40px;""><img src=""images/pattern_1.png"" style=""width: 234px; height: 230px; margin-top: -50px;""><div style=""display: flex; justify-content: space-between; margin-top: 33px;""><img src=""images/choice_trial_8.png"" style=""width: 408px; height: 417px; margin-left:608px;""></div></div>",,delaylearn,learning,display_response,5daadfWtCygfG1fq7ZpLQY7Iir73,5daadfWtCygfG1fq7ZpLQY7Iir73,,,,,,,,,,,,,,,,,chosen stimuli: images/choice_trial_8.png,,,,,60650e72f3359295eb889c0f,15:53:07,26/03/2024
html-keyboard-response,108,253427,0.0-46.0-2.0,,,,delaylearn,learning,feedback_duration_window,5daadfWtCygfG1fq7ZpLQY7Iir73,5daadfWtCygfG1fq7ZpLQY7Iir73,,,,,,,,,,,,,,,,,,7000.0,,,,60650e72f3359295eb889c0f,15:53:07,26/03/2024
html-keyboard-response,109,254944,0.0-46.0-3.0,,<div style='margin:auto;width: auto; font-size: 150%'><span style='font-weight: bold; font-size: 100px; color: red;'>0 points!</span><br><br></div>,,delaylearn,learning,feedback_image_window,5daadfWtCygfG1fq7ZpLQY7Iir73,5daadfWtCygfG1fq7ZpLQY7Iir73,,,,,,,,,,,,,,,,,,,,,,60650e72f3359295eb889c0f,15:53:07,26/03/2024
html-keyboard-response,110,256456,0.0-47.0,,"<div style=""font-size:100px;"">+</div>",,delaylearn,learning,ITI,5daadfWtCygfG1fq7ZpLQY7Iir73,5daadfWtCygfG1fq7ZpLQY7Iir73,,,,,,,,,,,,,,,,,,,1502.0,,,60650e72f3359295eb889c0f,15:53:07,26/03/2024
html-keyboard-response,111,257656,0.0-48.0-0.0,1185.8999999761581,"<div style=""display: flex; flex-direction: column; align-items: center; margin-top: -40px;""><img src=""images/pattern_6.png"" style=""width: 234px; height: 230px; margin-top: -50px;""><div style=""display: flex; justify-content: space-between; margin-top: 33px;""><img src=""images/choice_trial_3.png"" style=""width: 408px; height: 417px; margin-right: 200px;""><img src=""images/choice_trial_16.png"" style=""width: 408px; height: 417px;""></div></div>",f,delaylearn,learning,trial,5daadfWtCygfG1fq7ZpLQY7Iir73,5daadfWtCygfG1fq7ZpLQY7Iir73,3.0,images/choice_trial_3.png,images/choice_trial_16.png,images/pattern_6.png,j,j,750.0,3.0,16.0,5.0,1.0,21.0,0.0,0.0,3.0,90.0,,,,,,60650e72f3359295eb889c0f,15:53:07,26/03/2024
html-keyboard-response,112,258661,0.0-48.0-1.0,,"<div style=""display: flex; flex-direction: column; align-items: center; margin-top: -40px;""><img src=""images/pattern_6.png"" style=""width: 234px; height: 230px; margin-top: -50px;""><div style=""display: flex; justify-content: space-between; margin-top: 33px;""><img src=""images/choice_trial_3.png"" style=""width: 408px; height: 417px; margin-right: 608px;""></div></div>",,delaylearn,learning,display_response,5daadfWtCygfG1fq7ZpLQY7Iir73,5daadfWtCygfG1fq7ZpLQY7Iir73,,,,,,,,,,,,,,,,,chosen stimuli: images/choice_trial_3.png,,,,,60650e72f3359295eb889c0f,15:53:07,26/03/2024
html-keyboard-response,113,259425,0.0-48.0-2.0,,,,delaylearn,learning,feedback_duration_window,5daadfWtCygfG1fq7ZpLQY7Iir73,5daadfWtCygfG1fq7ZpLQY7Iir73,,,,,,,,,,,,,,,,,,750.0,,,,60650e72f3359295eb889c0f,15:53:07,26/03/2024
html-keyboard-response,114,260939,0.0-48.0-3.0,,<div style='margin:auto;width: auto; font-size: 150%'><span style='font-weight: bold; font-size: 100px; color: red;'>0 points!</span><br><br></div>,,delaylearn,learning,feedback_image_window,5daadfWtCygfG1fq7ZpLQY7Iir73,5daadfWtCygfG1fq7ZpLQY7Iir73,,,,,,,,,,,,,,,,,,,,,,60650e72f3359295eb889c0f,15:53:07,26/03/2024
html-keyboard-response,115,262544,0.0-49.0,,"<div style=""font-size:100px;"">+</div>",,delaylearn,learning,ITI,5daadfWtCygfG1fq7ZpLQY7Iir73,5daadfWtCygfG1fq7ZpLQY7Iir73,,,,,,,,,,,,,,,,,,,1598.0,,,60650e72f3359295eb889c0f,15:53:07,26/03/2024
html-keyboard-response,116,263680,0.0-50.0-0.0,1133.0999999046326,"<div style=""display: flex; flex-direction: column; align-items: center; margin-top: -40px;""><img src=""images/pattern_4.png"" style=""width: 234px; height: 230px; margin-top: -50px;""><div style=""display: flex; justify-content: space-between; margin-top: 33px;""><img src=""images/choice_trial_15.png"" style=""width: 408px; height: 417px; margin-right: 200px;""><img src=""images/choice_trial_9.png"" style=""width: 408px; height: 417px;""></div></div>",j,delaylearn,learning,trial,5daadfWtCygfG1fq7ZpLQY7Iir73,5daadfWtCygfG1fq7ZpLQY7Iir73,3.0,images/choice_trial_15.png,images/choice_trial_9.png,images/pattern_4.png,f,f,7000.0,15.0,9.0,3.0,0.0,22.0,0.0,0.0,9.0,90.0,,,,,,60650e72f3359295eb889c0f,15:53:07,26/03/2024
html-keyboard-response,117,264696,0.0-50.0-1.0,,"<div style=""display: flex; flex-direction: column; align-items: center; margin-top: -40px;""><img src=""images/pattern_4.png"" style=""width: 234px; height: 230px; margin-top: -50px;""><div style=""display: flex; justify-content: space-between; margin-top: 33px;""><img src=""images/choice_trial_9.png"" style=""width: 408px; height: 417px; margin-left:608px;""></div></div>",,delaylearn,learning,display_response,5daadfWtCygfG1fq7ZpLQY7Iir73,5daadfWtCygfG1fq7ZpLQY7Iir73,,,,,,,,,,,,,,,,,chosen stimuli: images/choice_trial_9.png,,,,,60650e72f3359295eb889c0f,15:53:07,26/03/2024
html-keyboard-response,118,271708,0.0-50.0-2.0,,,,delaylearn,learning,feedback_duration_window,5daadfWtCygfG1fq7ZpLQY7Iir73,5daadfWtCygfG1fq7ZpLQY7Iir73,,,,,,,,,,,,,,,,,,7000.0,,,,60650e72f3359295eb889c0f,15:53:07,26/03/2024
html-keyboard-response,119,273216,0.0-50.0-3.0,,<div style='margin:auto;width: auto; font-size: 150%'><span style='font-weight: bold; font-size: 100px; color: red;'>0 points!</span><br><br></div>,,delaylearn,learning,feedback_image_window,5daadfWtCygfG1fq7ZpLQY7Iir73,5daadfWtCygfG1fq7ZpLQY7Iir73,,,,,,,,,,,,,,,,,,,,,,60650e72f3359295eb889c0f,15:53:07,26/03/2024
html-keyboard-response,120,273729,0.0-51.0-0.0,,,,,,mood_trial_fixation,5daadfWtCygfG1fq7ZpLQY7Iir73,,,,,,,,,,,,,,,,,,,,,,,60650e72f3359295eb889c0f,15:53:07,26/03/2024
lmdlab-html-vas-response,121,278318,0.0-51.0-1.0,3571.0,How happy are you right now?,0.3117283950617284,delaylearn,learning,mood_trial,5daadfWtCygfG1fq7ZpLQY7Iir73,5daadfWtCygfG1fq7ZpLQY7Iir73,,,,,,,,,,,,,,,,,,,,"['Very unhappy', 'Very happy']",,60650e72f3359295eb889c0f,15:53:07,26/03/2024
html-keyboard-response,122,280035,0.0-52.0,,"<div style=""font-size:100px;"">+</div>",,delaylearn,learning,ITI,5daadfWtCygfG1fq7ZpLQY7Iir73,5daadfWtCygfG1fq7ZpLQY7Iir73,,,,,,,,,,,,,,,,,,,1703.0,,,60650e72f3359295eb889c0f,15:53:07,26/03/2024
html-keyboard-response,123,281015,0.0-53.0-0.0,976.7000000476837,"<div style=""display: flex; flex-direction: column; align-items: center; margin-top: -40px;""><img src=""images/pattern_7.png"" style=""width: 234px; height: 230px; margin-top: -50px;""><div style=""display: flex; justify-content: space-between; margin-top: 33px;""><img src=""images/choice_trial_12.png"" style=""width: 408px; height: 417px; margin-right: 200px;""><img src=""images/choice_trial_6.png"" style=""width: 408px; height: 417px;""></div></div>",j,delaylearn,learning,trial,5daadfWtCygfG1fq7ZpLQY7Iir73,5daadfWtCygfG1fq7ZpLQY7Iir73,3.0,images/choice_trial_12.png,images/choice_trial_6.png,images/pattern_7.png,j,j,750.0,12.0,6.0,6.0,1.0,23.0,1.0,1.0,6.0,100.0,,,,,,60650e72f3359295eb889c0f,15:53:07,26/03/2024
html-keyboard-response,124,282022,0.0-53.0-1.0,,"<div style=""display: flex; flex-direction: column; align-items: center; margin-top: -40px;""><img src=""images/pattern_7.png"" style=""width: 234px; height: 230px; margin-top: -50px;""><div style=""display: flex; justify-content: space-between; margin-top: 33px;""><img src=""images/choice_trial_6.png"" style=""width: 408px; height: 417px; margin-left:608px;""></div></div>",,delaylearn,learning,display_response,5daadfWtCygfG1fq7ZpLQY7Iir73,5daadfWtCygfG1fq7ZpLQY7Iir73,,,,,,,,,,,,,,,,,chosen stimuli: images/choice_trial_6.png,,,,,60650e72f3359295eb889c0f,15:53:07,26/03/2024
html-keyboard-response,125,282776,0.0-53.0-2.0,,,,delaylearn,learning,feedback_duration_window,5daadfWtCygfG1fq7ZpLQY7Iir73,5daadfWtCygfG1fq7ZpLQY7Iir73,,,,,,,,,,,,,,,,,,750.0,,,,60650e72f3359295eb889c0f,15:53:07,26/03/2024
html-keyboard-response,126,284288,0.0-53.0-3.0,,<div style='margin:auto;width: auto; font-size: 150%'><span style='font-weight: bold; font-size: 100px; color: green;'>+10 points!</span><br><br></div>,,delaylearn,learning,feedback_image_window,5daadfWtCygfG1fq7ZpLQY7Iir73,5daadfWtCygfG1fq7ZpLQY7Iir73,,,,,,,,,,,,,,,,,,,,,,60650e72f3359295eb889c0f,15:53:07,26/03/2024
html-keyboard-response,127,285896,0.0-54.0,,"<div style=""font-size:100px;"">+</div>",,delaylearn,learning,ITI,5daadfWtCygfG1fq7ZpLQY7Iir73,5daadfWtCygfG1fq7ZpLQY7Iir73,,,,,,,,,,,,,,,,,,,1598.0,,,60650e72f3359295eb889c0f,15:53:07,26/03/2024
html-keyboard-response,128,287016,0.0-55.0-0.0,1117.8999999761581,"<div style=""display: flex; flex-direction: column; align-items: center; margin-top: -40px;""><img src=""images/pattern_1.png"" style=""width: 234px; height: 230px; margin-top: -50px;""><div style=""display: flex; justify-content: space-between; margin-top: 33px;""><img src=""images/choice_trial_8.png"" style=""width: 408px; height: 417px; margin-right: 200px;""><img src=""images/choice_trial_14.png"" style=""width: 408px; height: 417px;""></div></div>",j,delaylearn,learning,trial,5daadfWtCygfG1fq7ZpLQY7Iir73,5daadfWtCygfG1fq7ZpLQY7Iir73,3.0,images/choice_trial_8.png,images/choice_trial_14.png,images/pattern_1.png,f,j,7000.0,8.0,14.0,1.0,1.0,24.0,1.0,0.0,14.0,100.0,,,,,,60650e72f3359295eb889c0f,15:53:07,26/03/2024
html-keyboard-response,129,288021,0.0-55.0-1.0,,"<div style=""display: flex; flex-direction: column; align-items: center; margin-top: -40px;""><img src=""images/pattern_1.png"" style=""width: 234px; height: 230px; margin-top: -50px;""><div style=""display: flex; justify-content: space-between; margin-top: 33px;""><img src=""images/choice_trial_14.png"" style=""width: 408px; height: 417px; margin-left:608px;""></div></div>",,delaylearn,learning,display_response,5daadfWtCygfG1fq7ZpLQY7Iir73,5daadfWtCygfG1fq7ZpLQY7Iir73,,,,,,,,,,,,,,,,,chosen stimuli: images/choice_trial_14.png,,,,,60650e72f3359295eb889c0f,15:53:07,26/03/2024
html-keyboard-response,130,295025,0.0-55.0-2.0,,,,delaylearn,learning,feedback_duration_window,5daadfWtCygfG1fq7ZpLQY7Iir73,5daadfWtCygfG1fq7ZpLQY7Iir73,,,,,,,,,,,,,,,,,,7000.0,,,,60650e72f3359295eb889c0f,15:53:07,26/03/2024
html-keyboard-response,131,296541,0.0-55.0-3.0,,<div style='margin:auto;width: auto; font-size: 150%'><span style='font-weight: bold; font-size: 100px; color: red;'>0 points!</span><br><br></div>,,delaylearn,learning,feedback_image_window,5daadfWtCygfG1fq7ZpLQY7Iir73,5daadfWtCygfG1fq7ZpLQY7Iir73,,,,,,,,,,,,,,,,,,,,,,60650e72f3359295eb889c0f,15:53:07,26/03/2024
html-keyboard-response,132,298444,0.0-56.0,,"<div style=""font-size:100px;"">+</div>",,delaylearn,learning,ITI,5daadfWtCygfG1fq7ZpLQY7Iir73,5daadfWtCygfG1fq7ZpLQY7Iir73,,,,,,,,,,,,,,,,,,,1888.0,,,60650e72f3359295eb889c0f,15:53:07,26/03/2024
html-keyboard-response,133,300135,0.0-57.0-0.0,1689.2999999523163,"<div style=""display: flex; flex-direction: column; align-items: center; margin-top: -40px;""><img src=""images/pattern_5.png"" style=""width: 234px; height: 230px; margin-top: -50px;""><div style=""display: flex; justify-content: space-between; margin-top: 33px;""><img src=""images/choice_trial_2.png"" style=""width: 408px; height: 417px; margin-right: 200px;""><img src=""images/choice_trial_11.png"" style=""width: 408px; height: 417px;""></div></div>",f,delaylearn,learning,trial,5daadfWtCygfG1fq7ZpLQY7Iir73,5daadfWtCygfG1fq7ZpLQY7Iir73,3.0,images/choice_trial_2.png,images/choice_trial_11.png,images/pattern_5.png,j,j,750.0,2.0,11.0,4.0,1.0,25.0,0.0,0.0,2.0,100.0,,,,,,60650e72f3359295eb889c0f,15:53:07,26/03/2024
html-keyboard-response,134,301145,0.0-57.0-1.0,,"<div style=""display: flex; flex-direction: column; align-items: center; margin-top: -40px;""><img src=""images/pattern_5.png"" style=""width: 234px; height: 230px; margin-top: -50px;""><div style=""display: flex; justify-content: space-between; margin-top: 33px;""><img src=""images/choice_trial_2.png"" style=""width: 408px; height: 417px; margin-right: 608px;""></div></div>",,delaylearn,learning,display_response,5daadfWtCygfG1fq7ZpLQY7Iir73,5daadfWtCygfG1fq7ZpLQY7Iir73,,,,,,,,,,,,,,,,,chosen stimuli: images/choice_trial_2.png,,,,,60650e72f3359295eb889c0f,15:53:07,26/03/2024
html-keyboard-response,135,301899,0.0-57.0-2.0,,,,delaylearn,learning,feedback_duration_window,5daadfWtCygfG1fq7ZpLQY7Iir73,5daadfWtCygfG1fq7ZpLQY7Iir73,,,,,,,,,,,,,,,,,,750.0,,,,60650e72f3359295eb889c0f,15:53:07,26/03/2024
html-keyboard-response,136,303412,0.0-57.0-3.0,,<div style='margin:auto;width: auto; font-size: 150%'><span style='font-weight: bold; font-size: 100px; color: red;'>0 points!</span><br><br></div>,,delaylearn,learning,feedback_image_window,5daadfWtCygfG1fq7ZpLQY7Iir73,5daadfWtCygfG1fq7ZpLQY7Iir73,,,,,,,,,,,,,,,,,,,,,,60650e72f3359295eb889c0f,15:53:07,26/03/2024
html-keyboard-response,137,305652,0.0-58.0,,"<div style=""font-size:100px;"">+</div>",,delaylearn,learning,ITI,5daadfWtCygfG1fq7ZpLQY7Iir73,5daadfWtCygfG1fq7ZpLQY7Iir73,,,,,,,,,,,,,,,,,,,2238.0,,,60650e72f3359295eb889c0f,15:53:07,26/03/2024
html-keyboard-response,138,306949,0.0-59.0-0.0,1293.8999999761581,"<div style=""display: flex; flex-direction: column; align-items: center; margin-top: -40px;""><img src=""images/pattern_3.png"" style=""width: 234px; height: 230px; margin-top: -50px;""><div style=""display: flex; justify-content: space-between; margin-top: 33px;""><img src=""images/choice_trial_10.png"" style=""width: 408px; height: 417px; margin-right: 200px;""><img src=""images/choice_trial_13.png"" style=""width: 408px; height: 417px;""></div></div>",j,delaylearn,learning,trial,5daadfWtCygfG1fq7ZpLQY7Iir73,5daadfWtCygfG1fq7ZpLQY7Iir73,3.0,images/choice_trial_10.png,images/choice_trial_13.png,images/pattern_3.png,j,j,7000.0,10.0,13.0,2.0,1.0,26.0,1.0,1.0,13.0,110.0,,,,,,60650e72f3359295eb889c0f,15:53:07,26/03/2024
html-keyboard-response,139,307961,0.0-59.0-1.0,,"<div style=""display: flex; flex-direction: column; align-items: center; margin-top: -40px;""><img src=""images/pattern_3.png"" style=""width: 234px; height: 230px; margin-top: -50px;""><div style=""display: flex; justify-content: space-between; margin-top: 33px;""><img src=""images/choice_trial_13.png"" style=""width: 408px; height: 417px; margin-left:608px;""></div></div>",,delaylearn,learning,display_response,5daadfWtCygfG1fq7ZpLQY7Iir73,5daadfWtCygfG1fq7ZpLQY7Iir73,,,,,,,,,,,,,,,,,chosen stimuli: images/choice_trial_13.png,,,,,60650e72f3359295eb889c0f,15:53:07,26/03/2024
html-keyboard-response,140,314965,0.0-59.0-2.0,,,,delaylearn,learning,feedback_duration_window,5daadfWtCygfG1fq7ZpLQY7Iir73,5daadfWtCygfG1fq7ZpLQY7Iir73,,,,,,,,,,,,,,,,,,7000.0,,,,60650e72f3359295eb889c0f,15:53:07,26/03/2024
html-keyboard-response,141,316479,0.0-59.0-3.0,,<div style='margin:auto;width: auto; font-size: 150%'><span style='font-weight: bold; font-size: 100px; color: green;'>+10 points!</span><br><br></div>,,delaylearn,learning,feedback_image_window,5daadfWtCygfG1fq7ZpLQY7Iir73,5daadfWtCygfG1fq7ZpLQY7Iir73,,,,,,,,,,,,,,,,,,,,,,60650e72f3359295eb889c0f,15:53:07,26/03/2024
lmdlab-html-vas-response,142,321695,0.0-60.0-0.0,3691.0,*How <b><u>confident</u></b> are you feeling about your answers at this moment?*,0.17901234567901234,rewlearn,rate_confidence,,5daadfWtCygfG1fq7ZpLQY7Iir73,5daadfWtCygfG1fq7ZpLQY7Iir73,,,,,,,,,,,,,,,,,,,,"['No confidence', 'Complete confidence']",,60650e72f3359295eb889c0f,15:53:07,26/03/2024
lmdlab-rest-trial-limit,143,425925,0.0-60.0-1.0,102710.10000002384,"<div style=""font-size:40px;""><b>Please take a break!</b><br><br><br><br><p>Great work: you earned 110 points.<br><br><br><p>You have completed part(s) 1 of 5.<br><br><br><br>When you are ready to continue<br><br><br>please click the button.</p><br><br>",0,delaylearn,learning,break,5daadfWtCygfG1fq7ZpLQY7Iir73,5daadfWtCygfG1fq7ZpLQY7Iir73,,,,,,,,,,,,,,,,,,,,,0.0,60650e72f3359295eb889c0f,15:53:07,26/03/2024
html-keyboard-response,144,428931,0.0-60.0-2.0,,"<div style=""font-size:100px;"">+</div>",,delaylearn,learning,pre_fixation,5daadfWtCygfG1fq7ZpLQY7Iir73,,,,,,,,,,,,,,,,,,,,,,,60650e72f3359295eb889c0f,15:53:07,26/03/2024
lmdlab-html-vas-response,145,434029,0.0-60.0-3.0-0.0,4084.0,How happy are you right now?,0.625,delaylearn,learning,mood_baseline,5daadfWtCygfG1fq7ZpLQY7Iir73,5daadfWtCygfG1fq7ZpLQY7Iir73,,,,,,,,,,,,,,,,,,,,"['Very unhappy', 'Very happy']",,60650e72f3359295eb889c0f,15:53:07,26/03/2024
html-keyboard-response,146,435545,0.0-60.0-3.0-1.0,,,,,,mood_baseline_fixation,5daadfWtCygfG1fq7ZpLQY7Iir73,,,,,,,,,,,,,,,,,,,,,,,60650e72f3359295eb889c0f,15:53:07,26/03/2024
html-keyboard-response,147,437471,0.0-61.0,,"<div style=""font-size:100px;"">+</div>",,delaylearn,learning,ITI,5daadfWtCygfG1fq7ZpLQY7Iir73,5daadfWtCygfG1fq7ZpLQY7Iir73,,,,,,,,,,,,,,,,,,,1917.0,,,60650e72f3359295eb889c0f,15:53:07,26/03/2024
html-keyboard-response,148,438413,0.0-62.0-0.0,939.3999999761581,"<div style=""display: flex; flex-direction: column; align-items: center; margin-top: -40px;""><img src=""images/pattern_7.png"" style=""width: 234px; height: 230px; margin-top: -50px;""><div style=""display: flex; justify-content: space-between; margin-top: 33px;""><img src=""images/choice_trial_12.png"" style=""width: 408px; height: 417px; margin-right: 200px;""><img src=""images/choice_trial_6.png"" style=""width: 408px; height: 417px;""></div></div>",j,delaylearn,learning,trial,5daadfWtCygfG1fq7ZpLQY7Iir73,5daadfWtCygfG1fq7ZpLQY7Iir73,3.0,images/choice_trial_12.png,images/choice_trial_6.png,images/pattern_7.png,j,j,750.0,12.0,6.0,6.0,1.0,27.0,1.0,1.0,6.0,120.0,,,,,,60650e72f3359295eb889c0f,15:53:07,26/03/2024
html-keyboard-response,149,439418,0.0-62.0-1.0,,"<div style=""display: flex; flex-direction: column; align-items: center; margin-top: -40px;""><img src=""images/pattern_7.png"" style=""width: 234px; height: 230px; margin-top: -50px;""><div style=""display: flex; justify-content: space-between; margin-top: 33px;""><img src=""images/choice_trial_6.png"" style=""width: 408px; height: 417px; margin-left:608px;""></div></div>",,delaylearn,learning,display_response,5daadfWtCygfG1fq7ZpLQY7Iir73,5daadfWtCygfG1fq7ZpLQY7Iir73,,,,,,,,,,,,,,,,,chosen stimuli: images/choice_trial_6.png,,,,,60650e72f3359295eb889c0f,15:53:07,26/03/2024
html-keyboard-response,150,440183,0.0-62.0-2.0,,,,delaylearn,learning,feedback_duration_window,5daadfWtCygfG1fq7ZpLQY7Iir73,5daadfWtCygfG1fq7ZpLQY7Iir73,,,,,,,,,,,,,,,,,,750.0,,,,60650e72f3359295eb889c0f,15:53:07,26/03/2024
html-keyboard-response,151,441695,0.0-62.0-3.0,,<div style='margin:auto;width: auto; font-size: 150%'><span style='font-weight: bold; font-size: 100px; color: green;'>+10 points!</span><br><br></div>,,delaylearn,learning,feedback_image_window,5daadfWtCygfG1fq7ZpLQY7Iir73,5daadfWtCygfG1fq7ZpLQY7Iir73,,,,,,,,,,,,,,,,,,,,,,60650e72f3359295eb889c0f,15:53:07,26/03/2024
html-keyboard-response,152,442211,0.0-63.0-0.0,,,,,,mood_trial_fixation,5daadfWtCygfG1fq7ZpLQY7Iir73,,,,,,,,,,,,,,,,,,,,,,,60650e72f3359295eb889c0f,15:53:07,26/03/2024
lmdlab-html-vas-response,153,446506,0.0-63.0-1.0,3278.0,How happy are you right now?,0.7222222222222222,delaylearn,learning,mood_trial,5daadfWtCygfG1fq7ZpLQY7Iir73,5daadfWtCygfG1fq7ZpLQY7Iir73,,,,,,,,,,,,,,,,,,,,"['Very unhappy', 'Very happy']",,60650e72f3359295eb889c0f,15:53:07,26/03/2024
html-keyboard-response,154,448793,0.0-64.0,,"<div style=""font-size:100px;"">+</div>",,delaylearn,learning,ITI,5daadfWtCygfG1fq7ZpLQY7Iir73,5daadfWtCygfG1fq7ZpLQY7Iir73,,,,,,,,,,,,,,,,,,,2284.0,,,60650e72f3359295eb889c0f,15:53:07,26/03/2024
html-keyboard-response,155,449863,0.0-65.0-0.0,1067.0,"<div style=""display: flex; flex-direction: column; align-items: center; margin-top: -40px;""><img src=""images/pattern_1.png"" style=""width: 234px; height: 230px; margin-top: -50px;""><div style=""display: flex; justify-content: space-between; margin-top: 33px;""><img src=""images/choice_trial_14.png"" style=""width: 408px; height: 417px; margin-right: 200px;""><img src=""images/choice_trial_8.png"" style=""width: 408px; height: 417px;""></div></div>",j,delaylearn,learning,trial,5daadfWtCygfG1fq7ZpLQY7Iir73,5daadfWtCygfG1fq7ZpLQY7Iir73,3.0,images/choice_trial_14.png,images/choice_trial_8.png,images/pattern_1.png,f,f,7000.0,14.0,8.0,1.0,0.0,28.0,0.0,0.0,8.0,120.0,,,,,,60650e72f3359295eb889c0f,15:53:07,26/03/2024
html-keyboard-response,156,450869,0.0-65.0-1.0,,"<div style=""display: flex; flex-direction: column; align-items: center; margin-top: -40px;""><img src=""images/pattern_1.png"" style=""width: 234px; height: 230px; margin-top: -50px;""><div style=""display: flex; justify-content: space-between; margin-top: 33px;""><img src=""images/choice_trial_8.png"" style=""width: 408px; height: 417px; margin-left:608px;""></div></div>",,delaylearn,learning,display_response,5daadfWtCygfG1fq7ZpLQY7Iir73,5daadfWtCygfG1fq7ZpLQY7Iir73,,,,,,,,,,,,,,,,,chosen stimuli: images/choice_trial_8.png,,,,,60650e72f3359295eb889c0f,15:53:07,26/03/2024
html-keyboard-response,157,457880,0.0-65.0-2.0,,,,delaylearn,learning,feedback_duration_window,5daadfWtCygfG1fq7ZpLQY7Iir73,5daadfWtCygfG1fq7ZpLQY7Iir73,,,,,,,,,,,,,,,,,,7000.0,,,,60650e72f3359295eb889c0f,15:53:07,26/03/2024
html-keyboard-response,158,459390,0.0-65.0-3.0,,<div style='margin:auto;width: auto; font-size: 150%'><span style='font-weight: bold; font-size: 100px; color: red;'>0 points!</span><br><br></div>,,delaylearn,learning,feedback_image_window,5daadfWtCygfG1fq7ZpLQY7Iir73,5daadfWtCygfG1fq7ZpLQY7Iir73,,,,,,,,,,,,,,,,,,,,,,60650e72f3359295eb889c0f,15:53:07,26/03/2024
html-keyboard-response,159,461281,0.0-66.0,,"<div style=""font-size:100px;"">+</div>",,delaylearn,learning,ITI,5daadfWtCygfG1fq7ZpLQY7Iir73,5daadfWtCygfG1fq7ZpLQY7Iir73,,,,,,,,,,,,,,,,,,,1880.0,,,60650e72f3359295eb889c0f,15:53:07,26/03/2024
html-keyboard-response,160,462245,0.0-67.0-0.0,960.6000000238419,"<div style=""display: flex; flex-direction: column; align-items: center; margin-top: -40px;""><img src=""images/pattern_5.png"" style=""width: 234px; height: 230px; margin-top: -50px;""><div style=""display: flex; justify-content: space-between; margin-top: 33px;""><img src=""images/choice_trial_11.png"" style=""width: 408px; height: 417px; margin-right: 200px;""><img src=""images/choice_trial_2.png"" style=""width: 408px; height: 417px;""></div></div>",j,delaylearn,learning,trial,5daadfWtCygfG1fq7ZpLQY7Iir73,5daadfWtCygfG1fq7ZpLQY7Iir73,3.0,images/choice_trial_11.png,images/choice_trial_2.png,images/pattern_5.png,f,f,750.0,11.0,2.0,4.0,0.0,29.0,0.0,0.0,2.0,120.0,,,,,,60650e72f3359295eb889c0f,15:53:07,26/03/2024
html-keyboard-response,161,463259,0.0-67.0-1.0,,"<div style=""display: flex; flex-direction: column; align-items: center; margin-top: -40px;""><img src=""images/pattern_5.png"" style=""width: 234px; height: 230px; margin-top: -50px;""><div style=""display: flex; justify-content: space-between; margin-top: 33px;""><img src=""images/choice_trial_2.png"" style=""width: 408px; height: 417px; margin-left:608px;""></div></div>",,delaylearn,learning,display_response,5daadfWtCygfG1fq7ZpLQY7Iir73,5daadfWtCygfG1fq7ZpLQY7Iir73,,,,,,,,,,,,,,,,,chosen stimuli: images/choice_trial_2.png,,,,,60650e72f3359295eb889c0f,15:53:07,26/03/2024
html-keyboard-response,162,464026,0.0-67.0-2.0,,,,delaylearn,learning,feedback_duration_window,5daadfWtCygfG1fq7ZpLQY7Iir73,5daadfWtCygfG1fq7ZpLQY7Iir73,,,,,,,,,,,,,,,,,,750.0,,,,60650e72f3359295eb889c0f,15:53:07,26/03/2024
html-keyboard-response,163,465538,0.0-67.0-3.0,,<div style='margin:auto;width: auto; font-size: 150%'><span style='font-weight: bold; font-size: 100px; color: red;'>0 points!</span><br><br></div>,,delaylearn,learning,feedback_image_window,5daadfWtCygfG1fq7ZpLQY7Iir73,5daadfWtCygfG1fq7ZpLQY7Iir73,,,,,,,,,,,,,,,,,,,,,,60650e72f3359295eb889c0f,15:53:07,26/03/2024
html-keyboard-response,164,467442,0.0-68.0,,"<div style=""font-size:100px;"">+</div>",,delaylearn,learning,ITI,5daadfWtCygfG1fq7ZpLQY7Iir73,5daadfWtCygfG1fq7ZpLQY7Iir73,,,,,,,,,,,,,,,,,,,1891.0,,,60650e72f3359295eb889c0f,15:53:07,26/03/2024
html-keyboard-response,165,468439,0.0-69.0-0.0,994.2000000476837,"<div style=""display: flex; flex-direction: column; align-items: center; margin-top: -40px;""><img src=""images/pattern_6.png"" style=""width: 234px; height: 230px; margin-top: -50px;""><div style=""display: flex; justify-content: space-between; margin-top: 33px;""><img src=""images/choice_trial_3.png"" style=""width: 408px; height: 417px; margin-right: 200px;""><img src=""images/choice_trial_16.png"" style=""width: 408px; height: 417px;""></div></div>",j,delaylearn,learning,trial,5daadfWtCygfG1fq7ZpLQY7Iir73,5daadfWtCygfG1fq7ZpLQY7Iir73,3.0,images/choice_trial_3.png,images/choice_trial_16.png,images/pattern_6.png,j,j,750.0,3.0,16.0,5.0,1.0,30.0,1.0,1.0,16.0,130.0,,,,,,60650e72f3359295eb889c0f,15:53:07,26/03/2024
html-keyboard-response,166,469457,0.0-69.0-1.0,,"<div style=""display: flex; flex-direction: column; align-items: center; margin-top: -40px;""><img src=""images/pattern_6.png"" style=""width: 234px; height: 230px; margin-top: -50px;""><div style=""display: flex; justify-content: space-between; margin-top: 33px;""><img src=""images/choice_trial_16.png"" style=""width: 408px; height: 417px; margin-left:608px;""></div></div>",,delaylearn,learning,display_response,5daadfWtCygfG1fq7ZpLQY7Iir73,5daadfWtCygfG1fq7ZpLQY7Iir73,,,,,,,,,,,,,,,,,chosen stimuli: images/choice_trial_16.png,,,,,60650e72f3359295eb889c0f,15:53:07,26/03/2024
html-keyboard-response,167,470221,0.0-69.0-2.0,,,,delaylearn,learning,feedback_duration_window,5daadfWtCygfG1fq7ZpLQY7Iir73,5daadfWtCygfG1fq7ZpLQY7Iir73,,,,,,,,,,,,,,,,,,750.0,,,,60650e72f3359295eb889c0f,15:53:07,26/03/2024
html-keyboard-response,168,471734,0.0-69.0-3.0,,<div style='margin:auto;width: auto; font-size: 150%'><span style='font-weight: bold; font-size: 100px; color: green;'>+10 points!</span><br><br></div>,,delaylearn,learning,feedback_image_window,5daadfWtCygfG1fq7ZpLQY7Iir73,5daadfWtCygfG1fq7ZpLQY7Iir73,,,,,,,,,,,,,,,,,,,,,,60650e72f3359295eb889c0f,15:53:07,26/03/2024
html-keyboard-response,169,472251,0.0-70.0-0.0,,,,,,mood_trial_fixation,5daadfWtCygfG1fq7ZpLQY7Iir73,,,,,,,,,,,,,,,,,,,,,,,60650e72f3359295eb889c0f,15:53:07,26/03/2024
lmdlab-html-vas-response,170,476055,0.0-70.0-1.0,2788.0,How happy are you right now?,0.5216049382716049,delaylearn,learning,mood_trial,5daadfWtCygfG1fq7ZpLQY7Iir73,5daadfWtCygfG1fq7ZpLQY7Iir73,,,,,,,,,,,,,,,,,,,,"['Very unhappy', 'Very happy']",,60650e72f3359295eb889c0f,15:53:07,26/03/2024
html-keyboard-response,171,478305,0.0-71.0,,"<div style=""font-size:100px;"">+</div>",,delaylearn,learning,ITI,5daadfWtCygfG1fq7ZpLQY7Iir73,5daadfWtCygfG1fq7ZpLQY7Iir73,,,,,,,,,,,,,,,,,,,2242.0,,,60650e72f3359295eb889c0f,15:53:07,26/03/2024
html-keyboard-response,172,479874,0.0-72.0-0.0,1565.5,"<div style=""display: flex; flex-direction: column; align-items: center; margin-top: -40px;""><img src=""images/pattern_4.png"" style=""width: 234px; height: 230px; margin-top: -50px;""><div style=""display: flex; justify-content: space-between; margin-top: 33px;""><img src=""images/choice_trial_9.png"" style=""width: 408px; height: 417px; margin-right: 200px;""><img src=""images/choice_trial_15.png"" style=""width: 408px; height: 417px;""></div></div>",j,delaylearn,learning,trial,5daadfWtCygfG1fq7ZpLQY7Iir73,5daadfWtCygfG1fq7ZpLQY7Iir73,3.0,images/choice_trial_9.png,images/choice_trial_15.png,images/pattern_4.png,j,j,7000.0,9.0,15.0,3.0,1.0,31.0,1.0,1.0,15.0,140.0,,,,,,60650e72f3359295eb889c0f,15:53:07,26/03/2024
html-keyboard-response,173,480884,0.0-72.0-1.0,,"<div style=""display: flex; flex-direction: column; align-items: center; margin-top: -40px;""><img src=""images/pattern_4.png"" style=""width: 234px; height: 230px; margin-top: -50px;""><div style=""display: flex; justify-content: space-between; margin-top: 33px;""><img src=""images/choice_trial_15.png"" style=""width: 408px; height: 417px; margin-left:608px;""></div></div>",,delaylearn,learning,display_response,5daadfWtCygfG1fq7ZpLQY7Iir73,5daadfWtCygfG1fq7ZpLQY7Iir73,,,,,,,,,,,,,,,,,chosen stimuli: images/choice_trial_15.png,,,,,60650e72f3359295eb889c0f,15:53:07,26/03/2024
html-keyboard-response,174,487894,0.0-72.0-2.0,,,,delaylearn,learning,feedback_duration_window,5daadfWtCygfG1fq7ZpLQY7Iir73,5daadfWtCygfG1fq7ZpLQY7Iir73,,,,,,,,,,,,,,,,,,7000.0,,,,60650e72f3359295eb889c0f,15:53:07,26/03/2024
html-keyboard-response,175,489401,0.0-72.0-3.0,,<div style='margin:auto;width: auto; font-size: 150%'><span style='font-weight: bold; font-size: 100px; color: green;'>+10 points!</span><br><br></div>,,delaylearn,learning,feedback_image_window,5daadfWtCygfG1fq7ZpLQY7Iir73,5daadfWtCygfG1fq7ZpLQY7Iir73,,,,,,,,,,,,,,,,,,,,,,60650e72f3359295eb889c0f,15:53:07,26/03/2024
html-keyboard-response,176,490977,0.0-73.0,,"<div style=""font-size:100px;"">+</div>",,delaylearn,learning,ITI,5daadfWtCygfG1fq7ZpLQY7Iir73,5daadfWtCygfG1fq7ZpLQY7Iir73,,,,,,,,,,,,,,,,,,,1571.0,,,60650e72f3359295eb889c0f,15:53:07,26/03/2024
html-keyboard-response,177,492320,0.0-74.0-0.0,1339.7999999523163,"<div style=""display: flex; flex-direction: column; align-items: center; margin-top: -40px;""><img src=""images/pattern_3.png"" style=""width: 234px; height: 230px; margin-top: -50px;""><div style=""display: flex; justify-content: space-between; margin-top: 33px;""><img src=""images/choice_trial_10.png"" style=""width: 408px; height: 417px; margin-right: 200px;""><img src=""images/choice_trial_13.png"" style=""width: 408px; height: 417px;""></div></div>",f,delaylearn,learning,trial,5daadfWtCygfG1fq7ZpLQY7Iir73,5daadfWtCygfG1fq7ZpLQY7Iir73,3.0,images/choice_trial_10.png,images/choice_trial_13.png,images/pattern_3.png,j,j,7000.0,10.0,13.0,2.0,1.0,32.0,0.0,0.0,10.0,140.0,,,,,,60650e72f3359295eb889c0f,15:53:07,26/03/2024
html-keyboard-response,178,493325,0.0-74.0-1.0,,"<div style=""display: flex; flex-direction: column; align-items: center; margin-top: -40px;""><img src=""images/pattern_3.png"" style=""width: 234px; height: 230px; margin-top: -50px;""><div style=""display: flex; justify-content: space-between; margin-top: 33px;""><img src=""images/choice_trial_10.png"" style=""width: 408px; height: 417px; margin-right: 608px;""></div></div>",,delaylearn,learning,display_response,5daadfWtCygfG1fq7ZpLQY7Iir73,5daadfWtCygfG1fq7ZpLQY7Iir73,,,,,,,,,,,,,,,,,chosen stimuli: images/choice_trial_10.png,,,,,60650e72f3359295eb889c0f,15:53:07,26/03/2024
html-keyboard-response,179,500334,0.0-74.0-2.0,,,,delaylearn,learning,feedback_duration_window,5daadfWtCygfG1fq7ZpLQY7Iir73,5daadfWtCygfG1fq7ZpLQY7Iir73,,,,,,,,,,,,,,,,,,7000.0,,,,60650e72f3359295eb889c0f,15:53:07,26/03/2024
html-keyboard-response,180,501849,0.0-74.0-3.0,,<div style='margin:auto;width: auto; font-size: 150%'><span style='font-weight: bold; font-size: 100px; color: red;'>0 points!</span><br><br></div>,,delaylearn,learning,feedback_image_window,5daadfWtCygfG1fq7ZpLQY7Iir73,5daadfWtCygfG1fq7ZpLQY7Iir73,,,,,,,,,,,,,,,,,,,,,,60650e72f3359295eb889c0f,15:53:07,26/03/2024
html-keyboard-response,181,503384,0.0-75.0,,"<div style=""font-size:100px;"">+</div>",,delaylearn,learning,ITI,5daadfWtCygfG1fq7ZpLQY7Iir73,5daadfWtCygfG1fq7ZpLQY7Iir73,,,,,,,,,,,,,,,,,,,1525.0,,,60650e72f3359295eb889c0f,15:53:07,26/03/2024
html-keyboard-response,182,505024,0.0-76.0-0.0,1638.0,"<div style=""display: flex; flex-direction: column; align-items: center; margin-top: -40px;""><img src=""images/pattern_5.png"" style=""width: 234px; height: 230px; margin-top: -50px;""><div style=""display: flex; justify-content: space-between; margin-top: 33px;""><img src=""images/choice_trial_11.png"" style=""width: 408px; height: 417px; margin-right: 200px;""><img src=""images/choice_trial_2.png"" style=""width: 408px; height: 417px;""></div></div>",j,delaylearn,learning,trial,5daadfWtCygfG1fq7ZpLQY7Iir73,5daadfWtCygfG1fq7ZpLQY7Iir73,3.0,images/choice_trial_11.png,images/choice_trial_2.png,images/pattern_5.png,j,f,750.0,11.0,2.0,4.0,0.0,33.0,0.0,1.0,2.0,150.0,,,,,,60650e72f3359295eb889c0f,15:53:07,26/03/2024
html-keyboard-response,183,506032,0.0-76.0-1.0,,"<div style=""display: flex; flex-direction: column; align-items: center; margin-top: -40px;""><img src=""images/pattern_5.png"" style=""width: 234px; height: 230px; margin-top: -50px;""><div style=""display: flex; justify-content: space-between; margin-top: 33px;""><img src=""images/choice_trial_2.png"" style=""width: 408px; height: 417px; margin-left:608px;""></div></div>",,delaylearn,learning,display_response,5daadfWtCygfG1fq7ZpLQY7Iir73,5daadfWtCygfG1fq7ZpLQY7Iir73,,,,,,,,,,,,,,,,,chosen stimuli: images/choice_trial_2.png,,,,,60650e72f3359295eb889c0f,15:53:07,26/03/2024
html-keyboard-response,184,506796,0.0-76.0-2.0,,,,delaylearn,learning,feedback_duration_window,5daadfWtCygfG1fq7ZpLQY7Iir73,5daadfWtCygfG1fq7ZpLQY7Iir73,,,,,,,,,,,,,,,,,,750.0,,,,60650e72f3359295eb889c0f,15:53:07,26/03/2024
html-keyboard-response,185,508305,0.0-76.0-3.0,,<div style='margin:auto;width: auto; font-size: 150%'><span style='font-weight: bold; font-size: 100px; color: green;'>+10 points!</span><br><br></div>,,delaylearn,learning,feedback_image_window,5daadfWtCygfG1fq7ZpLQY7Iir73,5daadfWtCygfG1fq7ZpLQY7Iir73,,,,,,,,,,,,,,,,,,,,,,60650e72f3359295eb889c0f,15:53:07,26/03/2024
html-keyboard-response,186,510659,0.0-77.0,,"<div style=""font-size:100px;"">+</div>",,delaylearn,learning,ITI,5daadfWtCygfG1fq7ZpLQY7Iir73,5daadfWtCygfG1fq7ZpLQY7Iir73,,,,,,,,,,,,,,,,,,,2352.0,,,60650e72f3359295eb889c0f,15:53:07,26/03/2024
html-keyboard-response,187,513564,0.0-78.0-0.0,2902.3000000715256,"<div style=""display: flex; flex-direction: column; align-items: center; margin-top: -40px;""><img src=""images/pattern_1.png"" style=""width: 234px; height: 230px; margin-top: -50px;""><div style=""display: flex; justify-content: space-between; margin-top: 33px;""><img src=""images/choice_trial_14.png"" style=""width: 408px; height: 417px; margin-right: 200px;""><img src=""images/choice_trial_8.png"" style=""width: 408px; height: 417px;""></div></div>",f,delaylearn,learning,trial,5daadfWtCygfG1fq7ZpLQY7Iir73,5daadfWtCygfG1fq7ZpLQY7Iir73,3.0,images/choice_trial_14.png,images/choice_trial_8.png,images/pattern_1.png,f,f,7000.0,14.0,8.0,1.0,0.0,34.0,1.0,1.0,14.0,160.0,,,,,,60650e72f3359295eb889c0f,15:53:07,26/03/2024
html-keyboard-response,188,514578,0.0-78.0-1.0,,"<div style=""display: flex; flex-direction: column; align-items: center; margin-top: -40px;""><img src=""images/pattern_1.png"" style=""width: 234px; height: 230px; margin-top: -50px;""><div style=""display: flex; justify-content: space-between; margin-top: 33px;""><img src=""images/choice_trial_14.png"" style=""width: 408px; height: 417px; margin-right: 608px;""></div></div>",,delaylearn,learning,display_response,5daadfWtCygfG1fq7ZpLQY7Iir73,5daadfWtCygfG1fq7ZpLQY7Iir73,,,,,,,,,,,,,,,,,chosen stimuli: images/choice_trial_14.png,,,,,60650e72f3359295eb889c0f,15:53:07,26/03/2024
html-keyboard-response,189,521590,0.0-78.0-2.0,,,,delaylearn,learning,feedback_duration_window,5daadfWtCygfG1fq7ZpLQY7Iir73,5daadfWtCygfG1fq7ZpLQY7Iir73,,,,,,,,,,,,,,,,,,7000.0,,,,60650e72f3359295eb889c0f,15:53:07,26/03/2024
html-keyboard-response,190,523091,0.0-78.0-3.0,,<div style='margin:auto;width: auto; font-size: 150%'><span style='font-weight: bold; font-size: 100px; color: green;'>+10 points!</span><br><br></div>,,delaylearn,learning,feedback_image_window,5daadfWtCygfG1fq7ZpLQY7Iir73,5daadfWtCygfG1fq7ZpLQY7Iir73,,,,,,,,,,,,,,,,,,,,,,60650e72f3359295eb889c0f,15:53:07,26/03/2024
html-keyboard-response,191,523595,0.0-79.0-0.0,,,,,,mood_trial_fixation,5daadfWtCygfG1fq7ZpLQY7Iir73,,,,,,,,,,,,,,,,,,,,,,,60650e72f3359295eb889c0f,15:53:07,26/03/2024
lmdlab-html-vas-response,192,527413,0.0-79.0-1.0,2802.0,How happy are you right now?,0.75,delaylearn,learning,mood_trial,5daadfWtCygfG1fq7ZpLQY7Iir73,5daadfWtCygfG1fq7ZpLQY7Iir73,,,,,,,,,,,,,,,,,,,,"['Very unhappy', 'Very happy']",,60650e72f3359295eb889c0f,15:53:07,26/03/2024
html-keyboard-response,193,529276,0.0-80.0,,"<div style=""font-size:100px;"">+</div>",,delaylearn,learning,ITI,5daadfWtCygfG1fq7ZpLQY7Iir73,5daadfWtCygfG1fq7ZpLQY7Iir73,,,,,,,,,,,,,,,,,,,1861.0,,,60650e72f3359295eb889c0f,15:53:07,26/03/2024
html-keyboard-response,194,530233,0.0-81.0-0.0,953.6000000238419,"<div style=""display: flex; flex-direction: column; align-items: center; margin-top: -40px;""><img src=""images/pattern_6.png"" style=""width: 234px; height: 230px; margin-top: -50px;""><div style=""display: flex; justify-content: space-between; margin-top: 33px;""><img src=""images/choice_trial_16.png"" style=""width: 408px; height: 417px; margin-right: 200px;""><img src=""images/choice_trial_3.png"" style=""width: 408px; height: 417px;""></div></div>",f,delaylearn,learning,trial,5daadfWtCygfG1fq7ZpLQY7Iir73,5daadfWtCygfG1fq7ZpLQY7Iir73,3.0,images/choice_trial_16.png,images/choice_trial_3.png,images/pattern_6.png,j,f,750.0,16.0,3.0,5.0,0.0,35.0,1.0,0.0,16.0,160.0,,,,,,60650e72f3359295eb889c0f,15:53:07,26/03/2024
html-keyboard-response,195,531242,0.0-81.0-1.0,,"<div style=""display: flex; flex-direction: column; align-items: center; margin-top: -40px;""><img src=""images/pattern_6.png"" style=""width: 234px; height: 230px; margin-top: -50px;""><div style=""display: flex; justify-content: space-between; margin-top: 33px;""><img src=""images/choice_trial_16.png"" style=""width: 408px; height: 417px; margin-right: 608px;""></div></div>",,delaylearn,learning,display_response,5daadfWtCygfG1fq7ZpLQY7Iir73,5daadfWtCygfG1fq7ZpLQY7Iir73,,,,,,,,,,,,,,,,,chosen stimuli: images/choice_trial_16.png,,,,,60650e72f3359295eb889c0f,15:53:07,26/03/2024
html-keyboard-response,196,532009,0.0-81.0-2.0,,,,delaylearn,learning,feedback_duration_window,5daadfWtCygfG1fq7ZpLQY7Iir73,5daadfWtCygfG1fq7ZpLQY7Iir73,,,,,,,,,,,,,,,,,,750.0,,,,60650e72f3359295eb889c0f,15:53:07,26/03/2024
html-keyboard-response,197,533519,0.0-81.0-3.0,,<div style='margin:auto;width: auto; font-size: 150%'><span style='font-weight: bold; font-size: 100px; color: red;'>0 points!</span><br><br></div>,,delaylearn,learning,feedback_image_window,5daadfWtCygfG1fq7ZpLQY7Iir73,5daadfWtCygfG1fq7ZpLQY7Iir73,,,,,,,,,,,,,,,,,,,,,,60650e72f3359295eb889c0f,15:53:07,26/03/2024
html-keyboard-response,198,535064,0.0-82.0,,"<div style=""font-size:100px;"">+</div>",,delaylearn,learning,ITI,5daadfWtCygfG1fq7ZpLQY7Iir73,5daadfWtCygfG1fq7ZpLQY7Iir73,,,,,,,,,,,,,,,,,,,1529.0,,,60650e72f3359295eb889c0f,15:53:07,26/03/2024
html-keyboard-response,199,537131,0.0-83.0-0.0,2065.8000000715256,"<div style=""display: flex; flex-direction: column; align-items: center; margin-top: -40px;""><img src=""images/pattern_3.png"" style=""width: 234px; height: 230px; margin-top: -50px;""><div style=""display: flex; justify-content: space-between; margin-top: 33px;""><img src=""images/choice_trial_10.png"" style=""width: 408px; height: 417px; margin-right: 200px;""><img src=""images/choice_trial_13.png"" style=""width: 408px; height: 417px;""></div></div>",f,delaylearn,learning,trial,5daadfWtCygfG1fq7ZpLQY7Iir73,5daadfWtCygfG1fq7ZpLQY7Iir73,3.0,images/choice_trial_10.png,images/choice_trial_13.png,images/pattern_3.png,j,j,7000.0,10.0,13.0,2.0,1.0,36.0,0.0,0.0,10.0,160.0,,,,,,60650e72f3359295eb889c0f,15:53:07,26/03/2024
html-keyboard-response,200,538145,0.0-83.0-1.0,,"<div style=""display: flex; flex-direction: column; align-items: center; margin-top: -40px;""><img src=""images/pattern_3.png"" style=""width: 234px; height: 230px; margin-top: -50px;""><div style=""display: flex; justify-content: space-between; margin-top: 33px;""><img src=""images/choice_trial_10.png"" style=""width: 408px; height: 417px; margin-right: 608px;""></div></div>",,delaylearn,learning,display_response,5daadfWtCygfG1fq7ZpLQY7Iir73,5daadfWtCygfG1fq7ZpLQY7Iir73,,,,,,,,,,,,,,,,,chosen stimuli: images/choice_trial_10.png,,,,,60650e72f3359295eb889c0f,15:53:07,26/03/2024
html-keyboard-response,201,545147,0.0-83.0-2.0,,,,delaylearn,learning,feedback_duration_window,5daadfWtCygfG1fq7ZpLQY7Iir73,5daadfWtCygfG1fq7ZpLQY7Iir73,,,,,,,,,,,,,,,,,,7000.0,,,,60650e72f3359295eb889c0f,15:53:07,26/03/2024
html-keyboard-response,202,546664,0.0-83.0-3.0,,<div style='margin:auto;width: auto; font-size: 150%'><span style='font-weight: bold; font-size: 100px; color: red;'>0 points!</span><br><br></div>,,delaylearn,learning,feedback_image_window,5daadfWtCygfG1fq7ZpLQY7Iir73,5daadfWtCygfG1fq7ZpLQY7Iir73,,,,,,,,,,,,,,,,,,,,,,60650e72f3359295eb889c0f,15:53:07,26/03/2024
html-keyboard-response,203,549023,0.0-84.0,,"<div style=""font-size:100px;"">+</div>",,delaylearn,learning,ITI,5daadfWtCygfG1fq7ZpLQY7Iir73,5daadfWtCygfG1fq7ZpLQY7Iir73,,,,,,,,,,,,,,,,,,,2357.0,,,60650e72f3359295eb889c0f,15:53:07,26/03/2024
html-keyboard-response,204,550634,0.0-85.0-0.0,1609.1999999284744,"<div style=""display: flex; flex-direction: column; align-items: center; margin-top: -40px;""><img src=""images/pattern_4.png"" style=""width: 234px; height: 230px; margin-top: -50px;""><div style=""display: flex; justify-content: space-between; margin-top: 33px;""><img src=""images/choice_trial_9.png"" style=""width: 408px; height: 417px; margin-right: 200px;""><img src=""images/choice_trial_15.png"" style=""width: 408px; height: 417px;""></div></div>",f,delaylearn,learning,trial,5daadfWtCygfG1fq7ZpLQY7Iir73,5daadfWtCygfG1fq7ZpLQY7Iir73,3.0,images/choice_trial_9.png,images/choice_trial_15.png,images/pattern_4.png,f,j,7000.0,9.0,15.0,3.0,1.0,37.0,0.0,1.0,9.0,170.0,,,,,,60650e72f3359295eb889c0f,15:53:07,26/03/2024
html-keyboard-response,205,551644,0.0-85.0-1.0,,"<div style=""display: flex; flex-direction: column; align-items: center; margin-top: -40px;""><img src=""images/pattern_4.png"" style=""width: 234px; height: 230px; margin-top: -50px;""><div style=""display: flex; justify-content: space-between; margin-top: 33px;""><img src=""images/choice_trial_9.png"" style=""width: 408px; height: 417px; margin-right: 608px;""></div></div>",,delaylearn,learning,display_response,5daadfWtCygfG1fq7ZpLQY7Iir73,5daadfWtCygfG1fq7ZpLQY7Iir73,,,,,,,,,,,,,,,,,chosen stimuli: images/choice_trial_9.png,,,,,60650e72f3359295eb889c0f,15:53:07,26/03/2024
html-keyboard-response,206,558657,0.0-85.0-2.0,,,,delaylearn,learning,feedback_duration_window,5daadfWtCygfG1fq7ZpLQY7Iir73,5daadfWtCygfG1fq7ZpLQY7Iir73,,,,,,,,,,,,,,,,,,7000.0,,,,60650e72f3359295eb889c0f,15:53:07,26/03/2024
html-keyboard-response,207,560172,0.0-85.0-3.0,,<div style='margin:auto;width: auto; font-size: 150%'><span style='font-weight: bold; font-size: 100px; color: green;'>+10 points!</span><br><br></div>,,delaylearn,learning,feedback_image_window,5daadfWtCygfG1fq7ZpLQY7Iir73,5daadfWtCygfG1fq7ZpLQY7Iir73,,,,,,,,,,,,,,,,,,,,,,60650e72f3359295eb889c0f,15:53:07,26/03/2024
html-keyboard-response,208,562628,0.0-86.0,,"<div style=""font-size:100px;"">+</div>",,delaylearn,learning,ITI,5daadfWtCygfG1fq7ZpLQY7Iir73,5daadfWtCygfG1fq7ZpLQY7Iir73,,,,,,,,,,,,,,,,,,,2446.0,,,60650e72f3359295eb889c0f,15:53:07,26/03/2024
html-keyboard-response,209,565643,0.0-87.0-0.0,,"<div style=""display: flex; flex-direction: column; align-items: center; margin-top: -40px;""><img src=""images/pattern_7.png"" style=""width: 234px; height: 230px; margin-top: -50px;""><div style=""display: flex; justify-content: space-between; margin-top: 33px;""><img src=""images/choice_trial_6.png"" style=""width: 408px; height: 417px; margin-right: 200px;""><img src=""images/choice_trial_12.png"" style=""width: 408px; height: 417px;""></div></div>",,delaylearn,learning,trial,5daadfWtCygfG1fq7ZpLQY7Iir73,5daadfWtCygfG1fq7ZpLQY7Iir73,3.0,images/choice_trial_6.png,images/choice_trial_12.png,images/pattern_7.png,f,f,750.0,6.0,12.0,6.0,0.0,38.0,0.0,0.0,0.0,170.0,,,,,,60650e72f3359295eb889c0f,15:53:07,26/03/2024
html-keyboard-response,210,566649,0.0-87.0-1.0,,<div style='font-weight: bold; font-size: 75px; color: red;'>Missed Trial <br><br><br><br> Please respond faster</div>,,delaylearn,learning,display_response,5daadfWtCygfG1fq7ZpLQY7Iir73,5daadfWtCygfG1fq7ZpLQY7Iir73,,,,,,,,,,,,,,,,,Missed trial,,,,,60650e72f3359295eb889c0f,15:53:07,26/03/2024
html-keyboard-response,211,566654,0.0-87.0-2.0,,,,delaylearn,learning,feedback_duration_window,5daadfWtCygfG1fq7ZpLQY7Iir73,5daadfWtCygfG1fq7ZpLQY7Iir73,,,,,,,,,,,,,,,,,,0.0,,,,60650e72f3359295eb889c0f,15:53:07,26/03/2024
html-keyboard-response,212,566660,0.0-87.0-3.0,,,,delaylearn,learning,feedback_image_window,5daadfWtCygfG1fq7ZpLQY7Iir73,5daadfWtCygfG1fq7ZpLQY7Iir73,,,,,,,,,,,,,,,,,,,,,,60650e72f3359295eb889c0f,15:53:07,26/03/2024
html-keyboard-response,213,568187,0.0-88.0,,"<div style=""font-size:100px;"">+</div>",,delaylearn,learning,ITI,5daadfWtCygfG1fq7ZpLQY7Iir73,5daadfWtCygfG1fq7ZpLQY7Iir73,,,,,,,,,,,,,,,,,,,1510.0,,,60650e72f3359295eb889c0f,15:53:07,26/03/2024
html-keyboard-response,214,569156,0.0-89.0-0.0,965.7999999523163,"<div style=""display: flex; flex-direction: column; align-items: center; margin-top: -40px;""><img src=""images/pattern_1.png"" style=""width: 234px; height: 230px; margin-top: -50px;""><div style=""display: flex; justify-content: space-between; margin-top: 33px;""><img src=""images/choice_trial_14.png"" style=""width: 408px; height: 417px; margin-right: 200px;""><img src=""images/choice_trial_8.png"" style=""width: 408px; height: 417px;""></div></div>",j,delaylearn,learning,trial,5daadfWtCygfG1fq7ZpLQY7Iir73,5daadfWtCygfG1fq7ZpLQY7Iir73,3.0,images/choice_trial_14.png,images/choice_trial_8.png,images/pattern_1.png,f,f,7000.0,14.0,8.0,1.0,0.0,39.0,0.0,0.0,8.0,170.0,,,,,,60650e72f3359295eb889c0f,15:53:07,26/03/2024
html-keyboard-response,215,570165,0.0-89.0-1.0,,"<div style=""display: flex; flex-direction: column; align-items: center; margin-top: -40px;""><img src=""images/pattern_1.png"" style=""width: 234px; height: 230px; margin-top: -50px;""><div style=""display: flex; justify-content: space-between; margin-top: 33px;""><img src=""images/choice_trial_8.png"" style=""width: 408px; height: 417px; margin-left:608px;""></div></div>",,delaylearn,learning,display_response,5daadfWtCygfG1fq7ZpLQY7Iir73,5daadfWtCygfG1fq7ZpLQY7Iir73,,,,,,,,,,,,,,,,,chosen stimuli: images/choice_trial_8.png,,,,,60650e72f3359295eb889c0f,15:53:07,26/03/2024
html-keyboard-response,216,577178,0.0-89.0-2.0,,,,delaylearn,learning,feedback_duration_window,5daadfWtCygfG1fq7ZpLQY7Iir73,5daadfWtCygfG1fq7ZpLQY7Iir73,,,,,,,,,,,,,,,,,,7000.0,,,,60650e72f3359295eb889c0f,15:53:07,26/03/2024
html-keyboard-response,217,578693,0.0-89.0-3.0,,<div style='margin:auto;width: auto; font-size: 150%'><span style='font-weight: bold; font-size: 100px; color: red;'>0 points!</span><br><br></div>,,delaylearn,learning,feedback_image_window,5daadfWtCygfG1fq7ZpLQY7Iir73,5daadfWtCygfG1fq7ZpLQY7Iir73,,,,,,,,,,,,,,,,,,,,,,60650e72f3359295eb889c0f,15:53:07,26/03/2024
html-keyboard-response,218,579203,0.0-90.0-0.0,,,,,,mood_trial_fixation,5daadfWtCygfG1fq7ZpLQY7Iir73,,,,,,,,,,,,,,,,,,,,,,,60650e72f3359295eb889c0f,15:53:07,26/03/2024
lmdlab-html-vas-response,219,583568,0.0-90.0-1.0,3356.0,How happy are you right now?,0.41203703703703703,delaylearn,learning,mood_trial,5daadfWtCygfG1fq7ZpLQY7Iir73,5daadfWtCygfG1fq7ZpLQY7Iir73,,,,,,,,,,,,,,,,,,,,"['Very unhappy', 'Very happy']",,60650e72f3359295eb889c0f,15:53:07,26/03/2024
html-keyboard-response,220,585636,0.0-91.0,,"<div style=""font-size:100px;"">+</div>",,delaylearn,learning,ITI,5daadfWtCygfG1fq7ZpLQY7Iir73,5daadfWtCygfG1fq7ZpLQY7Iir73,,,,,,,,,,,,,,,,,,,2060.0,,,60650e72f3359295eb889c0f,15:53:07,26/03/2024
html-keyboard-response,221,586381,0.0-92.0-0.0,743.0999999046326,"<div style=""display: flex; flex-direction: column; align-items: center; margin-top: -40px;""><img src=""images/pattern_3.png"" style=""width: 234px; height: 230px; margin-top: -50px;""><div style=""display: flex; justify-content: space-between; margin-top: 33px;""><img src=""images/choice_trial_13.png"" style=""width: 408px; height: 417px; margin-right: 200px;""><img src=""images/choice_trial_10.png"" style=""width: 408px; height: 417px;""></div></div>",f,delaylearn,learning,trial,5daadfWtCygfG1fq7ZpLQY7Iir73,5daadfWtCygfG1fq7ZpLQY7Iir73,3.0,images/choice_trial_13.png,images/choice_trial_10.png,images/pattern_3.png,j,f,7000.0,13.0,10.0,2.0,0.0,40.0,1.0,0.0,13.0,170.0,,,,,,60650e72f3359295eb889c0f,15:53:07,26/03/2024
html-keyboard-response,222,587389,0.0-92.0-1.0,,"<div style=""display: flex; flex-direction: column; align-items: center; margin-top: -40px;""><img src=""images/pattern_3.png"" style=""width: 234px; height: 230px; margin-top: -50px;""><div style=""display: flex; justify-content: space-between; margin-top: 33px;""><img src=""images/choice_trial_13.png"" style=""width: 408px; height: 417px; margin-right: 608px;""></div></div>",,delaylearn,learning,display_response,5daadfWtCygfG1fq7ZpLQY7Iir73,5daadfWtCygfG1fq7ZpLQY7Iir73,,,,,,,,,,,,,,,,,chosen stimuli: images/choice_trial_13.png,,,,,60650e72f3359295eb889c0f,15:53:07,26/03/2024
html-keyboard-response,223,594399,0.0-92.0-2.0,,,,delaylearn,learning,feedback_duration_window,5daadfWtCygfG1fq7ZpLQY7Iir73,5daadfWtCygfG1fq7ZpLQY7Iir73,,,,,,,,,,,,,,,,,,7000.0,,,,60650e72f3359295eb889c0f,15:53:07,26/03/2024
html-keyboard-response,224,595907,0.0-92.0-3.0,,<div style='margin:auto;width: auto; font-size: 150%'><span style='font-weight: bold; font-size: 100px; color: red;'>0 points!</span><br><br></div>,,delaylearn,learning,feedback_image_window,5daadfWtCygfG1fq7ZpLQY7Iir73,5daadfWtCygfG1fq7ZpLQY7Iir73,,,,,,,,,,,,,,,,,,,,,,60650e72f3359295eb889c0f,15:53:07,26/03/2024
html-keyboard-response,225,597687,0.0-93.0,,"<div style=""font-size:100px;"">+</div>",,delaylearn,learning,ITI,5daadfWtCygfG1fq7ZpLQY7Iir73,5daadfWtCygfG1fq7ZpLQY7Iir73,,,,,,,,,,,,,,,,,,,1768.0,,,60650e72f3359295eb889c0f,15:53:07,26/03/2024
html-keyboard-response,226,598618,0.0-94.0-0.0,930.3000000715256,"<div style=""display: flex; flex-direction: column; align-items: center; margin-top: -40px;""><img src=""images/pattern_7.png"" style=""width: 234px; height: 230px; margin-top: -50px;""><div style=""display: flex; justify-content: space-between; margin-top: 33px;""><img src=""images/choice_trial_12.png"" style=""width: 408px; height: 417px; margin-right: 200px;""><img src=""images/choice_trial_6.png"" style=""width: 408px; height: 417px;""></div></div>",j,delaylearn,learning,trial,5daadfWtCygfG1fq7ZpLQY7Iir73,5daadfWtCygfG1fq7ZpLQY7Iir73,3.0,images/choice_trial_12.png,images/choice_trial_6.png,images/pattern_7.png,j,j,750.0,12.0,6.0,6.0,1.0,41.0,1.0,1.0,6.0,180.0,,,,,,60650e72f3359295eb889c0f,15:53:07,26/03/2024
html-keyboard-response,227,599634,0.0-94.0-1.0,,"<div style=""display: flex; flex-direction: column; align-items: center; margin-top: -40px;""><img src=""images/pattern_7.png"" style=""width: 234px; height: 230px; margin-top: -50px;""><div style=""display: flex; justify-content: space-between; margin-top: 33px;""><img src=""images/choice_trial_6.png"" style=""width: 408px; height: 417px; margin-left:608px;""></div></div>",,delaylearn,learning,display_response,5daadfWtCygfG1fq7ZpLQY7Iir73,5daadfWtCygfG1fq7ZpLQY7Iir73,,,,,,,,,,,,,,,,,chosen stimuli: images/choice_trial_6.png,,,,,60650e72f3359295eb889c0f,15:53:07,26/03/2024
html-keyboard-response,228,600387,0.0-94.0-2.0,,,,delaylearn,learning,feedback_duration_window,5daadfWtCygfG1fq7ZpLQY7Iir73,5daadfWtCygfG1fq7ZpLQY7Iir73,,,,,,,,,,,,,,,,,,750.0,,,,60650e72f3359295eb889c0f,15:53:07,26/03/2024
html-keyboard-response,229,601900,0.0-94.0-3.0,,<div style='margin:auto;width: auto; font-size: 150%'><span style='font-weight: bold; font-size: 100px; color: green;'>+10 points!</span><br><br></div>,,delaylearn,learning,feedback_image_window,5daadfWtCygfG1fq7ZpLQY7Iir73,5daadfWtCygfG1fq7ZpLQY7Iir73,,,,,,,,,,,,,,,,,,,,,,60650e72f3359295eb889c0f,15:53:07,26/03/2024
html-keyboard-response,230,603678,0.0-95.0,,"<div style=""font-size:100px;"">+</div>",,delaylearn,learning,ITI,5daadfWtCygfG1fq7ZpLQY7Iir73,5daadfWtCygfG1fq7ZpLQY7Iir73,,,,,,,,,,,,,,,,,,,1759.0,,,60650e72f3359295eb889c0f,15:53:07,26/03/2024
