trial_type,trial_index,time_elapsed,internal_node_id,rt,stimulus,response,exp_name,exp_stage,test_part,subjectID,databaseID,counterbal,choice_stimuli_1,choice_stimuli_2,pattern_stimuli,rewarded_answer,correct_answer,feedback_duration_times,stim_left,stim_right,pair,leftright_counter,trial,response_correct,response_rewarded,chosen_stim,counter,displayed_choice,feedback_durations,ITI_duration,labels,rest_warning,prolificID,start_time,date
pavlovia,0,479,0.0-0.0,,,,,,,q4XuhzhMCAYi2P6nzNVGoXi6crA2,,,,,,,,,,,,,,,,,,,,,,,5ed8162f9883863100f36190,17:21:33,27/03/2024
html-keyboard-response,1,3495,0.0-1.0,,"<div style=""font-size:100px;"">+</div>",,delaylearn,learning,pre_fixation,q4XuhzhMCAYi2P6nzNVGoXi6crA2,,,,,,,,,,,,,,,,,,,,,,,5ed8162f9883863100f36190,17:21:33,27/03/2024
html-keyboard-response,2,4793,0.0-2.0-0.0,1297.0999999940395,"<div style=""display: flex; flex-direction: column; align-items: center; margin-top: -40px;""><img src=""images/demo_images/pattern_1.png"" style=""width: 234px; height: 230px; margin-top: -50px;""><div style=""display: flex; justify-content: space-between; margin-top: 33px;""><img src=""images/demo_images/choice_trial_2.png"" style=""width: 408px; height: 417px; margin-right: 200px;""><img src=""images/demo_images/choice_trial_1.png"" style=""width: 408px; height: 417px;""></div></div>",j,delaylearn,learning,trial,q4XuhzhMCAYi2P6nzNVGoXi6crA2,q4XuhzhMCAYi2P6nzNVGoXi6crA2,4.0,images/demo_images/choice_trial_2.png,images/demo_images/choice_trial_1.png,images/demo_images/pattern_1.png,j,j,3000.0,2.0,1.0,20.0,1.0,1.0,1.0,1.0,1.0,10.0,,,,,,5ed8162f9883863100f36190,17:21:33,27/03/2024
html-keyboard-response,3,5799,0.0-2.0-1.0,,"<div style=""display: flex; flex-direction: column; align-items: center; margin-top: -40px;""><img src=""images/demo_images/pattern_1.png"" style=""width: 234px; height: 230px; margin-top: -50px;""><div style=""display: flex; justify-content: space-between; margin-top: 33px;""><img src=""images/demo_images/choice_trial_1.png"" style=""width: 408px; height: 417px; margin-left:608px;""></div></div>",,delaylearn,learning,display_response,q4XuhzhMCAYi2P6nzNVGoXi6crA2,q4XuhzhMCAYi2P6nzNVGoXi6crA2,,,,,,,,,,,,,,,,,chosen stimuli: images/demo_images/choice_trial_1.png,,,,,5ed8162f9883863100f36190,17:21:33,27/03/2024
html-keyboard-response,4,8803,0.0-2.0-2.0,,,,delaylearn,learning,feedback_duration_window,q4XuhzhMCAYi2P6nzNVGoXi6crA2,q4XuhzhMCAYi2P6nzNVGoXi6crA2,,,,,,,,,,,,,,,,,,3000.0,,,,5ed8162f9883863100f36190,17:21:33,27/03/2024
html-keyboard-response,5,10312,0.0-2.0-3.0,,<div style='margin:auto;width: auto; font-size: 150%'><span style='font-weight: bold; font-size: 100px; color: green;'>+10 points!</span><br><br></div>,,delaylearn,learning,feedback_image_window,q4XuhzhMCAYi2P6nzNVGoXi6crA2,q4XuhzhMCAYi2P6nzNVGoXi6crA2,,,,,,,,,,,,,,,,,,,,,,5ed8162f9883863100f36190,17:21:33,27/03/2024
html-keyboard-response,6,12247,0.0-3.0,,"<div style=""font-size:100px;"">+</div>",,delaylearn,learning,ITI,q4XuhzhMCAYi2P6nzNVGoXi6crA2,q4XuhzhMCAYi2P6nzNVGoXi6crA2,,,,,,,,,,,,,,,,,,,1934.0,,,5ed8162f9883863100f36190,17:21:33,27/03/2024
html-keyboard-response,7,13022,0.0-4.0-0.0,773.5,"<div style=""display: flex; flex-direction: column; align-items: center; margin-top: -40px;""><img src=""images/demo_images/pattern_1.png"" style=""width: 234px; height: 230px; margin-top: -50px;""><div style=""display: flex; justify-content: space-between; margin-top: 33px;""><img src=""images/demo_images/choice_trial_2.png"" style=""width: 408px; height: 417px; margin-right: 200px;""><img src=""images/demo_images/choice_trial_1.png"" style=""width: 408px; height: 417px;""></div></div>",j,delaylearn,learning,trial,q4XuhzhMCAYi2P6nzNVGoXi6crA2,q4XuhzhMCAYi2P6nzNVGoXi6crA2,4.0,images/demo_images/choice_trial_2.png,images/demo_images/choice_trial_1.png,images/demo_images/pattern_1.png,j,j,3000.0,2.0,1.0,20.0,1.0,2.0,1.0,1.0,1.0,20.0,,,,,,5ed8162f9883863100f36190,17:21:33,27/03/2024
html-keyboard-response,8,14034,0.0-4.0-1.0,,"<div style=""display: flex; flex-direction: column; align-items: center; margin-top: -40px;""><img src=""images/demo_images/pattern_1.png"" style=""width: 234px; height: 230px; margin-top: -50px;""><div style=""display: flex; justify-content: space-between; margin-top: 33px;""><img src=""images/demo_images/choice_trial_1.png"" style=""width: 408px; height: 417px; margin-left:608px;""></div></div>",,delaylearn,learning,display_response,q4XuhzhMCAYi2P6nzNVGoXi6crA2,q4XuhzhMCAYi2P6nzNVGoXi6crA2,,,,,,,,,,,,,,,,,chosen stimuli: images/demo_images/choice_trial_1.png,,,,,5ed8162f9883863100f36190,17:21:33,27/03/2024
html-keyboard-response,9,17048,0.0-4.0-2.0,,,,delaylearn,learning,feedback_duration_window,q4XuhzhMCAYi2P6nzNVGoXi6crA2,q4XuhzhMCAYi2P6nzNVGoXi6crA2,,,,,,,,,,,,,,,,,,3000.0,,,,5ed8162f9883863100f36190,17:21:33,27/03/2024
html-keyboard-response,10,18561,0.0-4.0-3.0,,<div style='margin:auto;width: auto; font-size: 150%'><span style='font-weight: bold; font-size: 100px; color: green;'>+10 points!</span><br><br></div>,,delaylearn,learning,feedback_image_window,q4XuhzhMCAYi2P6nzNVGoXi6crA2,q4XuhzhMCAYi2P6nzNVGoXi6crA2,,,,,,,,,,,,,,,,,,,,,,5ed8162f9883863100f36190,17:21:33,27/03/2024
html-keyboard-response,11,20915,0.0-5.0,,"<div style=""font-size:100px;"">+</div>",,delaylearn,learning,ITI,q4XuhzhMCAYi2P6nzNVGoXi6crA2,q4XuhzhMCAYi2P6nzNVGoXi6crA2,,,,,,,,,,,,,,,,,,,2349.0,,,5ed8162f9883863100f36190,17:21:33,27/03/2024
html-keyboard-response,12,21603,0.0-6.0-0.0,686.0999999940395,"<div style=""display: flex; flex-direction: column; align-items: center; margin-top: -40px;""><img src=""images/demo_images/pattern_1.png"" style=""width: 234px; height: 230px; margin-top: -50px;""><div style=""display: flex; justify-content: space-between; margin-top: 33px;""><img src=""images/demo_images/choice_trial_1.png"" style=""width: 408px; height: 417px; margin-right: 200px;""><img src=""images/demo_images/choice_trial_2.png"" style=""width: 408px; height: 417px;""></div></div>",f,delaylearn,learning,trial,q4XuhzhMCAYi2P6nzNVGoXi6crA2,q4XuhzhMCAYi2P6nzNVGoXi6crA2,4.0,images/demo_images/choice_trial_1.png,images/demo_images/choice_trial_2.png,images/demo_images/pattern_1.png,j,f,3000.0,1.0,2.0,20.0,0.0,3.0,1.0,0.0,1.0,20.0,,,,,,5ed8162f9883863100f36190,17:21:33,27/03/2024
html-keyboard-response,13,22617,0.0-6.0-1.0,,"<div style=""display: flex; flex-direction: column; align-items: center; margin-top: -40px;""><img src=""images/demo_images/pattern_1.png"" style=""width: 234px; height: 230px; margin-top: -50px;""><div style=""display: flex; justify-content: space-between; margin-top: 33px;""><img src=""images/demo_images/choice_trial_1.png"" style=""width: 408px; height: 417px; margin-right: 608px;""></div></div>",,delaylearn,learning,display_response,q4XuhzhMCAYi2P6nzNVGoXi6crA2,q4XuhzhMCAYi2P6nzNVGoXi6crA2,,,,,,,,,,,,,,,,,chosen stimuli: images/demo_images/choice_trial_1.png,,,,,5ed8162f9883863100f36190,17:21:33,27/03/2024
html-keyboard-response,14,25631,0.0-6.0-2.0,,,,delaylearn,learning,feedback_duration_window,q4XuhzhMCAYi2P6nzNVGoXi6crA2,q4XuhzhMCAYi2P6nzNVGoXi6crA2,,,,,,,,,,,,,,,,,,3000.0,,,,5ed8162f9883863100f36190,17:21:33,27/03/2024
html-keyboard-response,15,27144,0.0-6.0-3.0,,<div style='margin:auto;width: auto; font-size: 150%'><span style='font-weight: bold; font-size: 100px; color: red;'>0 points!</span><br><br></div>,,delaylearn,learning,feedback_image_window,q4XuhzhMCAYi2P6nzNVGoXi6crA2,q4XuhzhMCAYi2P6nzNVGoXi6crA2,,,,,,,,,,,,,,,,,,,,,,5ed8162f9883863100f36190,17:21:33,27/03/2024
html-keyboard-response,16,29127,0.0-7.0,,"<div style=""font-size:100px;"">+</div>",,delaylearn,learning,ITI,q4XuhzhMCAYi2P6nzNVGoXi6crA2,q4XuhzhMCAYi2P6nzNVGoXi6crA2,,,,,,,,,,,,,,,,,,,1976.0,,,5ed8162f9883863100f36190,17:21:33,27/03/2024
html-keyboard-response,17,29942,0.0-8.0-0.0,813.6999999880791,"<div style=""display: flex; flex-direction: column; align-items: center; margin-top: -40px;""><img src=""images/demo_images/pattern_1.png"" style=""width: 234px; height: 230px; margin-top: -50px;""><div style=""display: flex; justify-content: space-between; margin-top: 33px;""><img src=""images/demo_images/choice_trial_1.png"" style=""width: 408px; height: 417px; margin-right: 200px;""><img src=""images/demo_images/choice_trial_2.png"" style=""width: 408px; height: 417px;""></div></div>",f,delaylearn,learning,trial,q4XuhzhMCAYi2P6nzNVGoXi6crA2,q4XuhzhMCAYi2P6nzNVGoXi6crA2,4.0,images/demo_images/choice_trial_1.png,images/demo_images/choice_trial_2.png,images/demo_images/pattern_1.png,f,f,3000.0,1.0,2.0,20.0,0.0,4.0,1.0,1.0,1.0,30.0,,,,,,5ed8162f9883863100f36190,17:21:33,27/03/2024
html-keyboard-response,18,30950,0.0-8.0-1.0,,"<div style=""display: flex; flex-direction: column; align-items: center; margin-top: -40px;""><img src=""images/demo_images/pattern_1.png"" style=""width: 234px; height: 230px; margin-top: -50px;""><div style=""display: flex; justify-content: space-between; margin-top: 33px;""><img src=""images/demo_images/choice_trial_1.png"" style=""width: 408px; height: 417px; margin-right: 608px;""></div></div>",,delaylearn,learning,display_response,q4XuhzhMCAYi2P6nzNVGoXi6crA2,q4XuhzhMCAYi2P6nzNVGoXi6crA2,,,,,,,,,,,,,,,,,chosen stimuli: images/demo_images/choice_trial_1.png,,,,,5ed8162f9883863100f36190,17:21:33,27/03/2024
html-keyboard-response,19,33962,0.0-8.0-2.0,,,,delaylearn,learning,feedback_duration_window,q4XuhzhMCAYi2P6nzNVGoXi6crA2,q4XuhzhMCAYi2P6nzNVGoXi6crA2,,,,,,,,,,,,,,,,,,3000.0,,,,5ed8162f9883863100f36190,17:21:33,27/03/2024
html-keyboard-response,20,35472,0.0-8.0-3.0,,<div style='margin:auto;width: auto; font-size: 150%'><span style='font-weight: bold; font-size: 100px; color: green;'>+10 points!</span><br><br></div>,,delaylearn,learning,feedback_image_window,q4XuhzhMCAYi2P6nzNVGoXi6crA2,q4XuhzhMCAYi2P6nzNVGoXi6crA2,,,,,,,,,,,,,,,,,,,,,,5ed8162f9883863100f36190,17:21:33,27/03/2024
html-keyboard-response,21,35984,0.0-9.0-0.0,,,,,,mood_trial_fixation,q4XuhzhMCAYi2P6nzNVGoXi6crA2,,,,,,,,,,,,,,,,,,,,,,,5ed8162f9883863100f36190,17:21:33,27/03/2024
lmdlab-html-vas-response,22,41280,0.0-9.0-1.0,4283.0,How happy are you right now?,0.6064814814814815,delaylearn,learning,mood_trial,q4XuhzhMCAYi2P6nzNVGoXi6crA2,q4XuhzhMCAYi2P6nzNVGoXi6crA2,,,,,,,,,,,,,,,,,,,,"['Very unhappy', 'Very happy']",,5ed8162f9883863100f36190,17:21:33,27/03/2024
html-keyboard-response,23,43689,0.0-10.0,,"<div style=""font-size:100px;"">+</div>",,delaylearn,learning,ITI,q4XuhzhMCAYi2P6nzNVGoXi6crA2,q4XuhzhMCAYi2P6nzNVGoXi6crA2,,,,,,,,,,,,,,,,,,,2396.0,,,5ed8162f9883863100f36190,17:21:33,27/03/2024
html-keyboard-response,24,44782,0.0-11.0-0.0,1091.5999999940395,"<div style=""display: flex; flex-direction: column; align-items: center; margin-top: -40px;""><img src=""images/demo_images/pattern_1.png"" style=""width: 234px; height: 230px; margin-top: -50px;""><div style=""display: flex; justify-content: space-between; margin-top: 33px;""><img src=""images/demo_images/choice_trial_2.png"" style=""width: 408px; height: 417px; margin-right: 200px;""><img src=""images/demo_images/choice_trial_1.png"" style=""width: 408px; height: 417px;""></div></div>",j,delaylearn,learning,trial,q4XuhzhMCAYi2P6nzNVGoXi6crA2,q4XuhzhMCAYi2P6nzNVGoXi6crA2,4.0,images/demo_images/choice_trial_2.png,images/demo_images/choice_trial_1.png,images/demo_images/pattern_1.png,j,j,3000.0,2.0,1.0,20.0,1.0,5.0,1.0,1.0,1.0,40.0,,,,,,5ed8162f9883863100f36190,17:21:33,27/03/2024
html-keyboard-response,25,45789,0.0-11.0-1.0,,"<div style=""display: flex; flex-direction: column; align-items: center; margin-top: -40px;""><img src=""images/demo_images/pattern_1.png"" style=""width: 234px; height: 230px; margin-top: -50px;""><div style=""display: flex; justify-content: space-between; margin-top: 33px;""><img src=""images/demo_images/choice_trial_1.png"" style=""width: 408px; height: 417px; margin-left:608px;""></div></div>",,delaylearn,learning,display_response,q4XuhzhMCAYi2P6nzNVGoXi6crA2,q4XuhzhMCAYi2P6nzNVGoXi6crA2,,,,,,,,,,,,,,,,,chosen stimuli: images/demo_images/choice_trial_1.png,,,,,5ed8162f9883863100f36190,17:21:33,27/03/2024
html-keyboard-response,26,48799,0.0-11.0-2.0,,,,delaylearn,learning,feedback_duration_window,q4XuhzhMCAYi2P6nzNVGoXi6crA2,q4XuhzhMCAYi2P6nzNVGoXi6crA2,,,,,,,,,,,,,,,,,,3000.0,,,,5ed8162f9883863100f36190,17:21:33,27/03/2024
html-keyboard-response,27,50310,0.0-11.0-3.0,,<div style='margin:auto;width: auto; font-size: 150%'><span style='font-weight: bold; font-size: 100px; color: green;'>+10 points!</span><br><br></div>,,delaylearn,learning,feedback_image_window,q4XuhzhMCAYi2P6nzNVGoXi6crA2,q4XuhzhMCAYi2P6nzNVGoXi6crA2,,,,,,,,,,,,,,,,,,,,,,5ed8162f9883863100f36190,17:21:33,27/03/2024
html-keyboard-response,28,52136,0.0-12.0,,"<div style=""font-size:100px;"">+</div>",,delaylearn,learning,ITI,q4XuhzhMCAYi2P6nzNVGoXi6crA2,q4XuhzhMCAYi2P6nzNVGoXi6crA2,,,,,,,,,,,,,,,,,,,1817.0,,,5ed8162f9883863100f36190,17:21:33,27/03/2024
html-keyboard-response,29,52722,0.0-13.0-0.0,584.3999999761581,"<div style=""display: flex; flex-direction: column; align-items: center; margin-top: -40px;""><img src=""images/demo_images/pattern_1.png"" style=""width: 234px; height: 230px; margin-top: -50px;""><div style=""display: flex; justify-content: space-between; margin-top: 33px;""><img src=""images/demo_images/choice_trial_1.png"" style=""width: 408px; height: 417px; margin-right: 200px;""><img src=""images/demo_images/choice_trial_2.png"" style=""width: 408px; height: 417px;""></div></div>",f,delaylearn,learning,trial,q4XuhzhMCAYi2P6nzNVGoXi6crA2,q4XuhzhMCAYi2P6nzNVGoXi6crA2,4.0,images/demo_images/choice_trial_1.png,images/demo_images/choice_trial_2.png,images/demo_images/pattern_1.png,f,f,3000.0,1.0,2.0,20.0,0.0,6.0,1.0,1.0,1.0,50.0,,,,,,5ed8162f9883863100f36190,17:21:33,27/03/2024
html-keyboard-response,30,53733,0.0-13.0-1.0,,"<div style=""display: flex; flex-direction: column; align-items: center; margin-top: -40px;""><img src=""images/demo_images/pattern_1.png"" style=""width: 234px; height: 230px; margin-top: -50px;""><div style=""display: flex; justify-content: space-between; margin-top: 33px;""><img src=""images/demo_images/choice_trial_1.png"" style=""width: 408px; height: 417px; margin-right: 608px;""></div></div>",,delaylearn,learning,display_response,q4XuhzhMCAYi2P6nzNVGoXi6crA2,q4XuhzhMCAYi2P6nzNVGoXi6crA2,,,,,,,,,,,,,,,,,chosen stimuli: images/demo_images/choice_trial_1.png,,,,,5ed8162f9883863100f36190,17:21:33,27/03/2024
html-keyboard-response,31,56749,0.0-13.0-2.0,,,,delaylearn,learning,feedback_duration_window,q4XuhzhMCAYi2P6nzNVGoXi6crA2,q4XuhzhMCAYi2P6nzNVGoXi6crA2,,,,,,,,,,,,,,,,,,3000.0,,,,5ed8162f9883863100f36190,17:21:33,27/03/2024
html-keyboard-response,32,58256,0.0-13.0-3.0,,<div style='margin:auto;width: auto; font-size: 150%'><span style='font-weight: bold; font-size: 100px; color: green;'>+10 points!</span><br><br></div>,,delaylearn,learning,feedback_image_window,q4XuhzhMCAYi2P6nzNVGoXi6crA2,q4XuhzhMCAYi2P6nzNVGoXi6crA2,,,,,,,,,,,,,,,,,,,,,,5ed8162f9883863100f36190,17:21:33,27/03/2024
html-keyboard-response,33,60143,0.0-14.0,,"<div style=""font-size:100px;"">+</div>",,delaylearn,learning,ITI,q4XuhzhMCAYi2P6nzNVGoXi6crA2,q4XuhzhMCAYi2P6nzNVGoXi6crA2,,,,,,,,,,,,,,,,,,,1881.0,,,5ed8162f9883863100f36190,17:21:33,27/03/2024
html-keyboard-response,34,61221,0.0-15.0-0.0,1076.5,"<div style=""display: flex; flex-direction: column; align-items: center; margin-top: -40px;""><img src=""images/demo_images/pattern_1.png"" style=""width: 234px; height: 230px; margin-top: -50px;""><div style=""display: flex; justify-content: space-between; margin-top: 33px;""><img src=""images/demo_images/choice_trial_2.png"" style=""width: 408px; height: 417px; margin-right: 200px;""><img src=""images/demo_images/choice_trial_1.png"" style=""width: 408px; height: 417px;""></div></div>",j,delaylearn,learning,trial,q4XuhzhMCAYi2P6nzNVGoXi6crA2,q4XuhzhMCAYi2P6nzNVGoXi6crA2,4.0,images/demo_images/choice_trial_2.png,images/demo_images/choice_trial_1.png,images/demo_images/pattern_1.png,j,j,3000.0,2.0,1.0,20.0,1.0,7.0,1.0,1.0,1.0,60.0,,,,,,5ed8162f9883863100f36190,17:21:33,27/03/2024
html-keyboard-response,35,62233,0.0-15.0-1.0,,"<div style=""display: flex; flex-direction: column; align-items: center; margin-top: -40px;""><img src=""images/demo_images/pattern_1.png"" style=""width: 234px; height: 230px; margin-top: -50px;""><div style=""display: flex; justify-content: space-between; margin-top: 33px;""><img src=""images/demo_images/choice_trial_1.png"" style=""width: 408px; height: 417px; margin-left:608px;""></div></div>",,delaylearn,learning,display_response,q4XuhzhMCAYi2P6nzNVGoXi6crA2,q4XuhzhMCAYi2P6nzNVGoXi6crA2,,,,,,,,,,,,,,,,,chosen stimuli: images/demo_images/choice_trial_1.png,,,,,5ed8162f9883863100f36190,17:21:33,27/03/2024
html-keyboard-response,36,65235,0.0-15.0-2.0,,,,delaylearn,learning,feedback_duration_window,q4XuhzhMCAYi2P6nzNVGoXi6crA2,q4XuhzhMCAYi2P6nzNVGoXi6crA2,,,,,,,,,,,,,,,,,,3000.0,,,,5ed8162f9883863100f36190,17:21:33,27/03/2024
html-keyboard-response,37,66747,0.0-15.0-3.0,,<div style='margin:auto;width: auto; font-size: 150%'><span style='font-weight: bold; font-size: 100px; color: green;'>+10 points!</span><br><br></div>,,delaylearn,learning,feedback_image_window,q4XuhzhMCAYi2P6nzNVGoXi6crA2,q4XuhzhMCAYi2P6nzNVGoXi6crA2,,,,,,,,,,,,,,,,,,,,,,5ed8162f9883863100f36190,17:21:33,27/03/2024
html-keyboard-response,38,69039,0.0-16.0,,"<div style=""font-size:100px;"">+</div>",,delaylearn,learning,ITI,q4XuhzhMCAYi2P6nzNVGoXi6crA2,q4XuhzhMCAYi2P6nzNVGoXi6crA2,,,,,,,,,,,,,,,,,,,2287.0,,,5ed8162f9883863100f36190,17:21:33,27/03/2024
html-keyboard-response,39,69751,0.0-17.0-0.0,710.6000000238419,"<div style=""display: flex; flex-direction: column; align-items: center; margin-top: -40px;""><img src=""images/demo_images/pattern_1.png"" style=""width: 234px; height: 230px; margin-top: -50px;""><div style=""display: flex; justify-content: space-between; margin-top: 33px;""><img src=""images/demo_images/choice_trial_1.png"" style=""width: 408px; height: 417px; margin-right: 200px;""><img src=""images/demo_images/choice_trial_2.png"" style=""width: 408px; height: 417px;""></div></div>",f,delaylearn,learning,trial,q4XuhzhMCAYi2P6nzNVGoXi6crA2,q4XuhzhMCAYi2P6nzNVGoXi6crA2,4.0,images/demo_images/choice_trial_1.png,images/demo_images/choice_trial_2.png,images/demo_images/pattern_1.png,f,f,3000.0,1.0,2.0,20.0,0.0,8.0,1.0,1.0,1.0,70.0,,,,,,5ed8162f9883863100f36190,17:21:33,27/03/2024
html-keyboard-response,40,70761,0.0-17.0-1.0,,"<div style=""display: flex; flex-direction: column; align-items: center; margin-top: -40px;""><img src=""images/demo_images/pattern_1.png"" style=""width: 234px; height: 230px; margin-top: -50px;""><div style=""display: flex; justify-content: space-between; margin-top: 33px;""><img src=""images/demo_images/choice_trial_1.png"" style=""width: 408px; height: 417px; margin-right: 608px;""></div></div>",,delaylearn,learning,display_response,q4XuhzhMCAYi2P6nzNVGoXi6crA2,q4XuhzhMCAYi2P6nzNVGoXi6crA2,,,,,,,,,,,,,,,,,chosen stimuli: images/demo_images/choice_trial_1.png,,,,,5ed8162f9883863100f36190,17:21:33,27/03/2024
html-keyboard-response,41,73763,0.0-17.0-2.0,,,,delaylearn,learning,feedback_duration_window,q4XuhzhMCAYi2P6nzNVGoXi6crA2,q4XuhzhMCAYi2P6nzNVGoXi6crA2,,,,,,,,,,,,,,,,,,3000.0,,,,5ed8162f9883863100f36190,17:21:33,27/03/2024
html-keyboard-response,42,75275,0.0-17.0-3.0,,<div style='margin:auto;width: auto; font-size: 150%'><span style='font-weight: bold; font-size: 100px; color: green;'>+10 points!</span><br><br></div>,,delaylearn,learning,feedback_image_window,q4XuhzhMCAYi2P6nzNVGoXi6crA2,q4XuhzhMCAYi2P6nzNVGoXi6crA2,,,,,,,,,,,,,,,,,,,,,,5ed8162f9883863100f36190,17:21:33,27/03/2024
html-button-response,43,78895,0.0-18.0,3619.5999999940395,"
  <div style=""display: flex; align-items: center; justify-content: center; height: 80vh;"">
  <div>
          <img src=""images/inst_demo_finish.png"" style=""width: 80vw; height:auto;"">
          <br><br>
      </div>
      <br><br>
  </div>",0,,,,q4XuhzhMCAYi2P6nzNVGoXi6crA2,,,,,,,,,,,,,,,,,,,,,,,5ed8162f9883863100f36190,17:21:33,27/03/2024
html-keyboard-response,44,81600,0.0-19.0,2704.2999999821186,"
  <div style=""display: flex; align-items: center; justify-content: center; height: 80vh;"">
  <div>
          <img src=""images/inst_6.png"" style=""width: 80vw; height:auto;"">
          <br><br>
      </div>
      <br><br>
  </div>",f,,,,q4XuhzhMCAYi2P6nzNVGoXi6crA2,,,,,,,,,,,,,,,,,,,,,,,5ed8162f9883863100f36190,17:21:33,27/03/2024
html-keyboard-response,45,84608,0.0-20.0,,"<div style=""font-size:100px;"">+</div>",,delaylearn,learning,pre_fixation,q4XuhzhMCAYi2P6nzNVGoXi6crA2,,,,,,,,,,,,,,,,,,,,,,,5ed8162f9883863100f36190,17:21:33,27/03/2024
html-keyboard-response,46,86997,0.0-21.0,,"<div style=""font-size:100px;"">+</div>",,delaylearn,learning,ITI,q4XuhzhMCAYi2P6nzNVGoXi6crA2,q4XuhzhMCAYi2P6nzNVGoXi6crA2,,,,,,,,,,,,,,,,,,,2383.0,,,5ed8162f9883863100f36190,17:21:33,27/03/2024
html-keyboard-response,47,88070,0.0-22.0-0.0,1071.5,"<div style=""display: flex; flex-direction: column; align-items: center; margin-top: -40px;""><img src=""images/pattern_3.png"" style=""width: 234px; height: 230px; margin-top: -50px;""><div style=""display: flex; justify-content: space-between; margin-top: 33px;""><img src=""images/choice_trial_16.png"" style=""width: 408px; height: 417px; margin-right: 200px;""><img src=""images/choice_trial_6.png"" style=""width: 408px; height: 417px;""></div></div>",j,delaylearn,learning,trial,q4XuhzhMCAYi2P6nzNVGoXi6crA2,q4XuhzhMCAYi2P6nzNVGoXi6crA2,4.0,images/choice_trial_16.png,images/choice_trial_6.png,images/pattern_3.png,f,f,7000.0,16.0,6.0,2.0,0.0,9.0,0.0,0.0,6.0,70.0,,,,,,5ed8162f9883863100f36190,17:21:33,27/03/2024
html-keyboard-response,48,89080,0.0-22.0-1.0,,"<div style=""display: flex; flex-direction: column; align-items: center; margin-top: -40px;""><img src=""images/pattern_3.png"" style=""width: 234px; height: 230px; margin-top: -50px;""><div style=""display: flex; justify-content: space-between; margin-top: 33px;""><img src=""images/choice_trial_6.png"" style=""width: 408px; height: 417px; margin-left:608px;""></div></div>",,delaylearn,learning,display_response,q4XuhzhMCAYi2P6nzNVGoXi6crA2,q4XuhzhMCAYi2P6nzNVGoXi6crA2,,,,,,,,,,,,,,,,,chosen stimuli: images/choice_trial_6.png,,,,,5ed8162f9883863100f36190,17:21:33,27/03/2024
html-keyboard-response,49,96085,0.0-22.0-2.0,,,,delaylearn,learning,feedback_duration_window,q4XuhzhMCAYi2P6nzNVGoXi6crA2,q4XuhzhMCAYi2P6nzNVGoXi6crA2,,,,,,,,,,,,,,,,,,7000.0,,,,5ed8162f9883863100f36190,17:21:33,27/03/2024
html-keyboard-response,50,97594,0.0-22.0-3.0,,<div style='margin:auto;width: auto; font-size: 150%'><span style='font-weight: bold; font-size: 100px; color: red;'>0 points!</span><br><br></div>,,delaylearn,learning,feedback_image_window,q4XuhzhMCAYi2P6nzNVGoXi6crA2,q4XuhzhMCAYi2P6nzNVGoXi6crA2,,,,,,,,,,,,,,,,,,,,,,5ed8162f9883863100f36190,17:21:33,27/03/2024
html-keyboard-response,51,100088,0.0-23.0,,"<div style=""font-size:100px;"">+</div>",,delaylearn,learning,ITI,q4XuhzhMCAYi2P6nzNVGoXi6crA2,q4XuhzhMCAYi2P6nzNVGoXi6crA2,,,,,,,,,,,,,,,,,,,2491.0,,,5ed8162f9883863100f36190,17:21:33,27/03/2024
html-keyboard-response,52,101750,0.0-24.0-0.0,1661.5,"<div style=""display: flex; flex-direction: column; align-items: center; margin-top: -40px;""><img src=""images/pattern_7.png"" style=""width: 234px; height: 230px; margin-top: -50px;""><div style=""display: flex; justify-content: space-between; margin-top: 33px;""><img src=""images/choice_trial_4.png"" style=""width: 408px; height: 417px; margin-right: 200px;""><img src=""images/choice_trial_13.png"" style=""width: 408px; height: 417px;""></div></div>",f,delaylearn,learning,trial,q4XuhzhMCAYi2P6nzNVGoXi6crA2,q4XuhzhMCAYi2P6nzNVGoXi6crA2,4.0,images/choice_trial_4.png,images/choice_trial_13.png,images/pattern_7.png,j,j,750.0,4.0,13.0,6.0,1.0,10.0,0.0,0.0,4.0,70.0,,,,,,5ed8162f9883863100f36190,17:21:33,27/03/2024
html-keyboard-response,53,102760,0.0-24.0-1.0,,"<div style=""display: flex; flex-direction: column; align-items: center; margin-top: -40px;""><img src=""images/pattern_7.png"" style=""width: 234px; height: 230px; margin-top: -50px;""><div style=""display: flex; justify-content: space-between; margin-top: 33px;""><img src=""images/choice_trial_4.png"" style=""width: 408px; height: 417px; margin-right: 608px;""></div></div>",,delaylearn,learning,display_response,q4XuhzhMCAYi2P6nzNVGoXi6crA2,q4XuhzhMCAYi2P6nzNVGoXi6crA2,,,,,,,,,,,,,,,,,chosen stimuli: images/choice_trial_4.png,,,,,5ed8162f9883863100f36190,17:21:33,27/03/2024
html-keyboard-response,54,103524,0.0-24.0-2.0,,,,delaylearn,learning,feedback_duration_window,q4XuhzhMCAYi2P6nzNVGoXi6crA2,q4XuhzhMCAYi2P6nzNVGoXi6crA2,,,,,,,,,,,,,,,,,,750.0,,,,5ed8162f9883863100f36190,17:21:33,27/03/2024
html-keyboard-response,55,105037,0.0-24.0-3.0,,<div style='margin:auto;width: auto; font-size: 150%'><span style='font-weight: bold; font-size: 100px; color: red;'>0 points!</span><br><br></div>,,delaylearn,learning,feedback_image_window,q4XuhzhMCAYi2P6nzNVGoXi6crA2,q4XuhzhMCAYi2P6nzNVGoXi6crA2,,,,,,,,,,,,,,,,,,,,,,5ed8162f9883863100f36190,17:21:33,27/03/2024
html-keyboard-response,56,107258,0.0-25.0,,"<div style=""font-size:100px;"">+</div>",,delaylearn,learning,ITI,q4XuhzhMCAYi2P6nzNVGoXi6crA2,q4XuhzhMCAYi2P6nzNVGoXi6crA2,,,,,,,,,,,,,,,,,,,2210.0,,,5ed8162f9883863100f36190,17:21:33,27/03/2024
html-keyboard-response,57,109129,0.0-26.0-0.0,1870.0,"<div style=""display: flex; flex-direction: column; align-items: center; margin-top: -40px;""><img src=""images/pattern_4.png"" style=""width: 234px; height: 230px; margin-top: -50px;""><div style=""display: flex; justify-content: space-between; margin-top: 33px;""><img src=""images/choice_trial_8.png"" style=""width: 408px; height: 417px; margin-right: 200px;""><img src=""images/choice_trial_7.png"" style=""width: 408px; height: 417px;""></div></div>",f,delaylearn,learning,trial,q4XuhzhMCAYi2P6nzNVGoXi6crA2,q4XuhzhMCAYi2P6nzNVGoXi6crA2,4.0,images/choice_trial_8.png,images/choice_trial_7.png,images/pattern_4.png,f,f,7000.0,8.0,7.0,3.0,0.0,11.0,1.0,1.0,8.0,80.0,,,,,,5ed8162f9883863100f36190,17:21:33,27/03/2024
html-keyboard-response,58,110142,0.0-26.0-1.0,,"<div style=""display: flex; flex-direction: column; align-items: center; margin-top: -40px;""><img src=""images/pattern_4.png"" style=""width: 234px; height: 230px; margin-top: -50px;""><div style=""display: flex; justify-content: space-between; margin-top: 33px;""><img src=""images/choice_trial_8.png"" style=""width: 408px; height: 417px; margin-right: 608px;""></div></div>",,delaylearn,learning,display_response,q4XuhzhMCAYi2P6nzNVGoXi6crA2,q4XuhzhMCAYi2P6nzNVGoXi6crA2,,,,,,,,,,,,,,,,,chosen stimuli: images/choice_trial_8.png,,,,,5ed8162f9883863100f36190,17:21:33,27/03/2024
html-keyboard-response,59,117154,0.0-26.0-2.0,,,,delaylearn,learning,feedback_duration_window,q4XuhzhMCAYi2P6nzNVGoXi6crA2,q4XuhzhMCAYi2P6nzNVGoXi6crA2,,,,,,,,,,,,,,,,,,7000.0,,,,5ed8162f9883863100f36190,17:21:33,27/03/2024
html-keyboard-response,60,118663,0.0-26.0-3.0,,<div style='margin:auto;width: auto; font-size: 150%'><span style='font-weight: bold; font-size: 100px; color: green;'>+10 points!</span><br><br></div>,,delaylearn,learning,feedback_image_window,q4XuhzhMCAYi2P6nzNVGoXi6crA2,q4XuhzhMCAYi2P6nzNVGoXi6crA2,,,,,,,,,,,,,,,,,,,,,,5ed8162f9883863100f36190,17:21:33,27/03/2024
html-keyboard-response,61,120723,0.0-27.0,,"<div style=""font-size:100px;"">+</div>",,delaylearn,learning,ITI,q4XuhzhMCAYi2P6nzNVGoXi6crA2,q4XuhzhMCAYi2P6nzNVGoXi6crA2,,,,,,,,,,,,,,,,,,,2048.0,,,5ed8162f9883863100f36190,17:21:33,27/03/2024
html-keyboard-response,62,123189,0.0-28.0-0.0,2464.5999999940395,"<div style=""display: flex; flex-direction: column; align-items: center; margin-top: -40px;""><img src=""images/pattern_5.png"" style=""width: 234px; height: 230px; margin-top: -50px;""><div style=""display: flex; justify-content: space-between; margin-top: 33px;""><img src=""images/choice_trial_15.png"" style=""width: 408px; height: 417px; margin-right: 200px;""><img src=""images/choice_trial_5.png"" style=""width: 408px; height: 417px;""></div></div>",f,delaylearn,learning,trial,q4XuhzhMCAYi2P6nzNVGoXi6crA2,q4XuhzhMCAYi2P6nzNVGoXi6crA2,4.0,images/choice_trial_15.png,images/choice_trial_5.png,images/pattern_5.png,j,j,750.0,15.0,5.0,4.0,1.0,12.0,0.0,0.0,15.0,80.0,,,,,,5ed8162f9883863100f36190,17:21:33,27/03/2024
html-keyboard-response,63,124197,0.0-28.0-1.0,,"<div style=""display: flex; flex-direction: column; align-items: center; margin-top: -40px;""><img src=""images/pattern_5.png"" style=""width: 234px; height: 230px; margin-top: -50px;""><div style=""display: flex; justify-content: space-between; margin-top: 33px;""><img src=""images/choice_trial_15.png"" style=""width: 408px; height: 417px; margin-right: 608px;""></div></div>",,delaylearn,learning,display_response,q4XuhzhMCAYi2P6nzNVGoXi6crA2,q4XuhzhMCAYi2P6nzNVGoXi6crA2,,,,,,,,,,,,,,,,,chosen stimuli: images/choice_trial_15.png,,,,,5ed8162f9883863100f36190,17:21:33,27/03/2024
html-keyboard-response,64,124957,0.0-28.0-2.0,,,,delaylearn,learning,feedback_duration_window,q4XuhzhMCAYi2P6nzNVGoXi6crA2,q4XuhzhMCAYi2P6nzNVGoXi6crA2,,,,,,,,,,,,,,,,,,750.0,,,,5ed8162f9883863100f36190,17:21:33,27/03/2024
html-keyboard-response,65,126468,0.0-28.0-3.0,,<div style='margin:auto;width: auto; font-size: 150%'><span style='font-weight: bold; font-size: 100px; color: red;'>0 points!</span><br><br></div>,,delaylearn,learning,feedback_image_window,q4XuhzhMCAYi2P6nzNVGoXi6crA2,q4XuhzhMCAYi2P6nzNVGoXi6crA2,,,,,,,,,,,,,,,,,,,,,,5ed8162f9883863100f36190,17:21:33,27/03/2024
html-keyboard-response,66,128808,0.0-29.0,,"<div style=""font-size:100px;"">+</div>",,delaylearn,learning,ITI,q4XuhzhMCAYi2P6nzNVGoXi6crA2,q4XuhzhMCAYi2P6nzNVGoXi6crA2,,,,,,,,,,,,,,,,,,,2326.0,,,5ed8162f9883863100f36190,17:21:33,27/03/2024
html-keyboard-response,67,130449,0.0-30.0-0.0,1639.6000000238419,"<div style=""display: flex; flex-direction: column; align-items: center; margin-top: -40px;""><img src=""images/pattern_6.png"" style=""width: 234px; height: 230px; margin-top: -50px;""><div style=""display: flex; justify-content: space-between; margin-top: 33px;""><img src=""images/choice_trial_10.png"" style=""width: 408px; height: 417px; margin-right: 200px;""><img src=""images/choice_trial_3.png"" style=""width: 408px; height: 417px;""></div></div>",j,delaylearn,learning,trial,q4XuhzhMCAYi2P6nzNVGoXi6crA2,q4XuhzhMCAYi2P6nzNVGoXi6crA2,4.0,images/choice_trial_10.png,images/choice_trial_3.png,images/pattern_6.png,j,f,750.0,10.0,3.0,5.0,0.0,13.0,0.0,1.0,3.0,90.0,,,,,,5ed8162f9883863100f36190,17:21:33,27/03/2024
html-keyboard-response,68,131460,0.0-30.0-1.0,,"<div style=""display: flex; flex-direction: column; align-items: center; margin-top: -40px;""><img src=""images/pattern_6.png"" style=""width: 234px; height: 230px; margin-top: -50px;""><div style=""display: flex; justify-content: space-between; margin-top: 33px;""><img src=""images/choice_trial_3.png"" style=""width: 408px; height: 417px; margin-left:608px;""></div></div>",,delaylearn,learning,display_response,q4XuhzhMCAYi2P6nzNVGoXi6crA2,q4XuhzhMCAYi2P6nzNVGoXi6crA2,,,,,,,,,,,,,,,,,chosen stimuli: images/choice_trial_3.png,,,,,5ed8162f9883863100f36190,17:21:33,27/03/2024
html-keyboard-response,69,132217,0.0-30.0-2.0,,,,delaylearn,learning,feedback_duration_window,q4XuhzhMCAYi2P6nzNVGoXi6crA2,q4XuhzhMCAYi2P6nzNVGoXi6crA2,,,,,,,,,,,,,,,,,,750.0,,,,5ed8162f9883863100f36190,17:21:33,27/03/2024
html-keyboard-response,70,133731,0.0-30.0-3.0,,<div style='margin:auto;width: auto; font-size: 150%'><span style='font-weight: bold; font-size: 100px; color: green;'>+10 points!</span><br><br></div>,,delaylearn,learning,feedback_image_window,q4XuhzhMCAYi2P6nzNVGoXi6crA2,q4XuhzhMCAYi2P6nzNVGoXi6crA2,,,,,,,,,,,,,,,,,,,,,,5ed8162f9883863100f36190,17:21:33,27/03/2024
html-keyboard-response,71,134240,0.0-31.0-0.0,,,,,,mood_trial_fixation,q4XuhzhMCAYi2P6nzNVGoXi6crA2,,,,,,,,,,,,,,,,,,,,,,,5ed8162f9883863100f36190,17:21:33,27/03/2024
lmdlab-html-vas-response,72,138148,0.0-31.0-1.0,2902.0,How happy are you right now?,0.49382716049382713,delaylearn,learning,mood_trial,q4XuhzhMCAYi2P6nzNVGoXi6crA2,q4XuhzhMCAYi2P6nzNVGoXi6crA2,,,,,,,,,,,,,,,,,,,,"['Very unhappy', 'Very happy']",,5ed8162f9883863100f36190,17:21:33,27/03/2024
html-keyboard-response,73,140483,0.0-32.0,,"<div style=""font-size:100px;"">+</div>",,delaylearn,learning,ITI,q4XuhzhMCAYi2P6nzNVGoXi6crA2,q4XuhzhMCAYi2P6nzNVGoXi6crA2,,,,,,,,,,,,,,,,,,,2320.0,,,5ed8162f9883863100f36190,17:21:33,27/03/2024
html-keyboard-response,74,142178,0.0-33.0-0.0,1693.2000000178814,"<div style=""display: flex; flex-direction: column; align-items: center; margin-top: -40px;""><img src=""images/pattern_1.png"" style=""width: 234px; height: 230px; margin-top: -50px;""><div style=""display: flex; justify-content: space-between; margin-top: 33px;""><img src=""images/choice_trial_9.png"" style=""width: 408px; height: 417px; margin-right: 200px;""><img src=""images/choice_trial_1.png"" style=""width: 408px; height: 417px;""></div></div>",f,delaylearn,learning,trial,q4XuhzhMCAYi2P6nzNVGoXi6crA2,q4XuhzhMCAYi2P6nzNVGoXi6crA2,4.0,images/choice_trial_9.png,images/choice_trial_1.png,images/pattern_1.png,j,j,7000.0,9.0,1.0,1.0,1.0,14.0,0.0,0.0,9.0,90.0,,,,,,5ed8162f9883863100f36190,17:21:33,27/03/2024
html-keyboard-response,75,143189,0.0-33.0-1.0,,"<div style=""display: flex; flex-direction: column; align-items: center; margin-top: -40px;""><img src=""images/pattern_1.png"" style=""width: 234px; height: 230px; margin-top: -50px;""><div style=""display: flex; justify-content: space-between; margin-top: 33px;""><img src=""images/choice_trial_9.png"" style=""width: 408px; height: 417px; margin-right: 608px;""></div></div>",,delaylearn,learning,display_response,q4XuhzhMCAYi2P6nzNVGoXi6crA2,q4XuhzhMCAYi2P6nzNVGoXi6crA2,,,,,,,,,,,,,,,,,chosen stimuli: images/choice_trial_9.png,,,,,5ed8162f9883863100f36190,17:21:33,27/03/2024
html-keyboard-response,76,150197,0.0-33.0-2.0,,,,delaylearn,learning,feedback_duration_window,q4XuhzhMCAYi2P6nzNVGoXi6crA2,q4XuhzhMCAYi2P6nzNVGoXi6crA2,,,,,,,,,,,,,,,,,,7000.0,,,,5ed8162f9883863100f36190,17:21:33,27/03/2024
html-keyboard-response,77,151706,0.0-33.0-3.0,,<div style='margin:auto;width: auto; font-size: 150%'><span style='font-weight: bold; font-size: 100px; color: red;'>0 points!</span><br><br></div>,,delaylearn,learning,feedback_image_window,q4XuhzhMCAYi2P6nzNVGoXi6crA2,q4XuhzhMCAYi2P6nzNVGoXi6crA2,,,,,,,,,,,,,,,,,,,,,,5ed8162f9883863100f36190,17:21:33,27/03/2024
html-keyboard-response,78,153859,0.0-34.0,,"<div style=""font-size:100px;"">+</div>",,delaylearn,learning,ITI,q4XuhzhMCAYi2P6nzNVGoXi6crA2,q4XuhzhMCAYi2P6nzNVGoXi6crA2,,,,,,,,,,,,,,,,,,,2151.0,,,5ed8162f9883863100f36190,17:21:33,27/03/2024
html-keyboard-response,79,154918,0.0-35.0-0.0,1057.4000000059605,"<div style=""display: flex; flex-direction: column; align-items: center; margin-top: -40px;""><img src=""images/pattern_3.png"" style=""width: 234px; height: 230px; margin-top: -50px;""><div style=""display: flex; justify-content: space-between; margin-top: 33px;""><img src=""images/choice_trial_6.png"" style=""width: 408px; height: 417px; margin-right: 200px;""><img src=""images/choice_trial_16.png"" style=""width: 408px; height: 417px;""></div></div>",f,delaylearn,learning,trial,q4XuhzhMCAYi2P6nzNVGoXi6crA2,q4XuhzhMCAYi2P6nzNVGoXi6crA2,4.0,images/choice_trial_6.png,images/choice_trial_16.png,images/pattern_3.png,f,j,7000.0,6.0,16.0,2.0,1.0,15.0,0.0,1.0,6.0,100.0,,,,,,5ed8162f9883863100f36190,17:21:33,27/03/2024
html-keyboard-response,80,155932,0.0-35.0-1.0,,"<div style=""display: flex; flex-direction: column; align-items: center; margin-top: -40px;""><img src=""images/pattern_3.png"" style=""width: 234px; height: 230px; margin-top: -50px;""><div style=""display: flex; justify-content: space-between; margin-top: 33px;""><img src=""images/choice_trial_6.png"" style=""width: 408px; height: 417px; margin-right: 608px;""></div></div>",,delaylearn,learning,display_response,q4XuhzhMCAYi2P6nzNVGoXi6crA2,q4XuhzhMCAYi2P6nzNVGoXi6crA2,,,,,,,,,,,,,,,,,chosen stimuli: images/choice_trial_6.png,,,,,5ed8162f9883863100f36190,17:21:33,27/03/2024
html-keyboard-response,81,162947,0.0-35.0-2.0,,,,delaylearn,learning,feedback_duration_window,q4XuhzhMCAYi2P6nzNVGoXi6crA2,q4XuhzhMCAYi2P6nzNVGoXi6crA2,,,,,,,,,,,,,,,,,,7000.0,,,,5ed8162f9883863100f36190,17:21:33,27/03/2024
html-keyboard-response,82,164459,0.0-35.0-3.0,,<div style='margin:auto;width: auto; font-size: 150%'><span style='font-weight: bold; font-size: 100px; color: green;'>+10 points!</span><br><br></div>,,delaylearn,learning,feedback_image_window,q4XuhzhMCAYi2P6nzNVGoXi6crA2,q4XuhzhMCAYi2P6nzNVGoXi6crA2,,,,,,,,,,,,,,,,,,,,,,5ed8162f9883863100f36190,17:21:33,27/03/2024
html-keyboard-response,83,166607,0.0-36.0,,"<div style=""font-size:100px;"">+</div>",,delaylearn,learning,ITI,q4XuhzhMCAYi2P6nzNVGoXi6crA2,q4XuhzhMCAYi2P6nzNVGoXi6crA2,,,,,,,,,,,,,,,,,,,2144.0,,,5ed8162f9883863100f36190,17:21:33,27/03/2024
html-keyboard-response,84,168058,0.0-37.0-0.0,1449.9000000059605,"<div style=""display: flex; flex-direction: column; align-items: center; margin-top: -40px;""><img src=""images/pattern_5.png"" style=""width: 234px; height: 230px; margin-top: -50px;""><div style=""display: flex; justify-content: space-between; margin-top: 33px;""><img src=""images/choice_trial_5.png"" style=""width: 408px; height: 417px; margin-right: 200px;""><img src=""images/choice_trial_15.png"" style=""width: 408px; height: 417px;""></div></div>",j,delaylearn,learning,trial,q4XuhzhMCAYi2P6nzNVGoXi6crA2,q4XuhzhMCAYi2P6nzNVGoXi6crA2,4.0,images/choice_trial_5.png,images/choice_trial_15.png,images/pattern_5.png,f,f,750.0,5.0,15.0,4.0,0.0,16.0,0.0,0.0,15.0,100.0,,,,,,5ed8162f9883863100f36190,17:21:33,27/03/2024
html-keyboard-response,85,169072,0.0-37.0-1.0,,"<div style=""display: flex; flex-direction: column; align-items: center; margin-top: -40px;""><img src=""images/pattern_5.png"" style=""width: 234px; height: 230px; margin-top: -50px;""><div style=""display: flex; justify-content: space-between; margin-top: 33px;""><img src=""images/choice_trial_15.png"" style=""width: 408px; height: 417px; margin-left:608px;""></div></div>",,delaylearn,learning,display_response,q4XuhzhMCAYi2P6nzNVGoXi6crA2,q4XuhzhMCAYi2P6nzNVGoXi6crA2,,,,,,,,,,,,,,,,,chosen stimuli: images/choice_trial_15.png,,,,,5ed8162f9883863100f36190,17:21:33,27/03/2024
html-keyboard-response,86,169834,0.0-37.0-2.0,,,,delaylearn,learning,feedback_duration_window,q4XuhzhMCAYi2P6nzNVGoXi6crA2,q4XuhzhMCAYi2P6nzNVGoXi6crA2,,,,,,,,,,,,,,,,,,750.0,,,,5ed8162f9883863100f36190,17:21:33,27/03/2024
html-keyboard-response,87,171348,0.0-37.0-3.0,,<div style='margin:auto;width: auto; font-size: 150%'><span style='font-weight: bold; font-size: 100px; color: red;'>0 points!</span><br><br></div>,,delaylearn,learning,feedback_image_window,q4XuhzhMCAYi2P6nzNVGoXi6crA2,q4XuhzhMCAYi2P6nzNVGoXi6crA2,,,,,,,,,,,,,,,,,,,,,,5ed8162f9883863100f36190,17:21:33,27/03/2024
html-keyboard-response,88,171855,0.0-38.0-0.0,,,,,,mood_trial_fixation,q4XuhzhMCAYi2P6nzNVGoXi6crA2,,,,,,,,,,,,,,,,,,,,,,,5ed8162f9883863100f36190,17:21:33,27/03/2024
lmdlab-html-vas-response,89,175754,0.0-38.0-1.0,2891.0,How happy are you right now?,0.4675925925925926,delaylearn,learning,mood_trial,q4XuhzhMCAYi2P6nzNVGoXi6crA2,q4XuhzhMCAYi2P6nzNVGoXi6crA2,,,,,,,,,,,,,,,,,,,,"['Very unhappy', 'Very happy']",,5ed8162f9883863100f36190,17:21:33,27/03/2024
html-keyboard-response,90,177365,0.0-39.0,,"<div style=""font-size:100px;"">+</div>",,delaylearn,learning,ITI,q4XuhzhMCAYi2P6nzNVGoXi6crA2,q4XuhzhMCAYi2P6nzNVGoXi6crA2,,,,,,,,,,,,,,,,,,,1600.0,,,5ed8162f9883863100f36190,17:21:33,27/03/2024
html-keyboard-response,91,179188,0.0-40.0-0.0,1821.5,"<div style=""display: flex; flex-direction: column; align-items: center; margin-top: -40px;""><img src=""images/pattern_6.png"" style=""width: 234px; height: 230px; margin-top: -50px;""><div style=""display: flex; justify-content: space-between; margin-top: 33px;""><img src=""images/choice_trial_10.png"" style=""width: 408px; height: 417px; margin-right: 200px;""><img src=""images/choice_trial_3.png"" style=""width: 408px; height: 417px;""></div></div>",f,delaylearn,learning,trial,q4XuhzhMCAYi2P6nzNVGoXi6crA2,q4XuhzhMCAYi2P6nzNVGoXi6crA2,4.0,images/choice_trial_10.png,images/choice_trial_3.png,images/pattern_6.png,f,f,750.0,10.0,3.0,5.0,0.0,17.0,1.0,1.0,10.0,110.0,,,,,,5ed8162f9883863100f36190,17:21:33,27/03/2024
html-keyboard-response,92,180195,0.0-40.0-1.0,,"<div style=""display: flex; flex-direction: column; align-items: center; margin-top: -40px;""><img src=""images/pattern_6.png"" style=""width: 234px; height: 230px; margin-top: -50px;""><div style=""display: flex; justify-content: space-between; margin-top: 33px;""><img src=""images/choice_trial_10.png"" style=""width: 408px; height: 417px; margin-right: 608px;""></div></div>",,delaylearn,learning,display_response,q4XuhzhMCAYi2P6nzNVGoXi6crA2,q4XuhzhMCAYi2P6nzNVGoXi6crA2,,,,,,,,,,,,,,,,,chosen stimuli: images/choice_trial_10.png,,,,,5ed8162f9883863100f36190,17:21:33,27/03/2024
html-keyboard-response,93,180959,0.0-40.0-2.0,,,,delaylearn,learning,feedback_duration_window,q4XuhzhMCAYi2P6nzNVGoXi6crA2,q4XuhzhMCAYi2P6nzNVGoXi6crA2,,,,,,,,,,,,,,,,,,750.0,,,,5ed8162f9883863100f36190,17:21:33,27/03/2024
html-keyboard-response,94,182467,0.0-40.0-3.0,,<div style='margin:auto;width: auto; font-size: 150%'><span style='font-weight: bold; font-size: 100px; color: green;'>+10 points!</span><br><br></div>,,delaylearn,learning,feedback_image_window,q4XuhzhMCAYi2P6nzNVGoXi6crA2,q4XuhzhMCAYi2P6nzNVGoXi6crA2,,,,,,,,,,,,,,,,,,,,,,5ed8162f9883863100f36190,17:21:33,27/03/2024
html-keyboard-response,95,184339,0.0-41.0,,"<div style=""font-size:100px;"">+</div>",,delaylearn,learning,ITI,q4XuhzhMCAYi2P6nzNVGoXi6crA2,q4XuhzhMCAYi2P6nzNVGoXi6crA2,,,,,,,,,,,,,,,,,,,1867.0,,,5ed8162f9883863100f36190,17:21:33,27/03/2024
html-keyboard-response,96,186407,0.0-42.0-0.0,2066.5999999940395,"<div style=""display: flex; flex-direction: column; align-items: center; margin-top: -40px;""><img src=""images/pattern_4.png"" style=""width: 234px; height: 230px; margin-top: -50px;""><div style=""display: flex; justify-content: space-between; margin-top: 33px;""><img src=""images/choice_trial_7.png"" style=""width: 408px; height: 417px; margin-right: 200px;""><img src=""images/choice_trial_8.png"" style=""width: 408px; height: 417px;""></div></div>",j,delaylearn,learning,trial,q4XuhzhMCAYi2P6nzNVGoXi6crA2,q4XuhzhMCAYi2P6nzNVGoXi6crA2,4.0,images/choice_trial_7.png,images/choice_trial_8.png,images/pattern_4.png,j,j,7000.0,7.0,8.0,3.0,1.0,18.0,1.0,1.0,8.0,120.0,,,,,,5ed8162f9883863100f36190,17:21:33,27/03/2024
html-keyboard-response,97,187417,0.0-42.0-1.0,,"<div style=""display: flex; flex-direction: column; align-items: center; margin-top: -40px;""><img src=""images/pattern_4.png"" style=""width: 234px; height: 230px; margin-top: -50px;""><div style=""display: flex; justify-content: space-between; margin-top: 33px;""><img src=""images/choice_trial_8.png"" style=""width: 408px; height: 417px; margin-left:608px;""></div></div>",,delaylearn,learning,display_response,q4XuhzhMCAYi2P6nzNVGoXi6crA2,q4XuhzhMCAYi2P6nzNVGoXi6crA2,,,,,,,,,,,,,,,,,chosen stimuli: images/choice_trial_8.png,,,,,5ed8162f9883863100f36190,17:21:33,27/03/2024
html-keyboard-response,98,194425,0.0-42.0-2.0,,,,delaylearn,learning,feedback_duration_window,q4XuhzhMCAYi2P6nzNVGoXi6crA2,q4XuhzhMCAYi2P6nzNVGoXi6crA2,,,,,,,,,,,,,,,,,,7000.0,,,,5ed8162f9883863100f36190,17:21:33,27/03/2024
html-keyboard-response,99,195932,0.0-42.0-3.0,,<div style='margin:auto;width: auto; font-size: 150%'><span style='font-weight: bold; font-size: 100px; color: green;'>+10 points!</span><br><br></div>,,delaylearn,learning,feedback_image_window,q4XuhzhMCAYi2P6nzNVGoXi6crA2,q4XuhzhMCAYi2P6nzNVGoXi6crA2,,,,,,,,,,,,,,,,,,,,,,5ed8162f9883863100f36190,17:21:33,27/03/2024
html-keyboard-response,100,198039,0.0-43.0,,"<div style=""font-size:100px;"">+</div>",,delaylearn,learning,ITI,q4XuhzhMCAYi2P6nzNVGoXi6crA2,q4XuhzhMCAYi2P6nzNVGoXi6crA2,,,,,,,,,,,,,,,,,,,2097.0,,,5ed8162f9883863100f36190,17:21:33,27/03/2024
html-keyboard-response,101,200136,0.0-44.0-0.0,2096.2000000178814,"<div style=""display: flex; flex-direction: column; align-items: center; margin-top: -40px;""><img src=""images/pattern_7.png"" style=""width: 234px; height: 230px; margin-top: -50px;""><div style=""display: flex; justify-content: space-between; margin-top: 33px;""><img src=""images/choice_trial_13.png"" style=""width: 408px; height: 417px; margin-right: 200px;""><img src=""images/choice_trial_4.png"" style=""width: 408px; height: 417px;""></div></div>",f,delaylearn,learning,trial,q4XuhzhMCAYi2P6nzNVGoXi6crA2,q4XuhzhMCAYi2P6nzNVGoXi6crA2,4.0,images/choice_trial_13.png,images/choice_trial_4.png,images/pattern_7.png,j,f,750.0,13.0,4.0,6.0,0.0,19.0,1.0,0.0,13.0,120.0,,,,,,5ed8162f9883863100f36190,17:21:33,27/03/2024
html-keyboard-response,102,201146,0.0-44.0-1.0,,"<div style=""display: flex; flex-direction: column; align-items: center; margin-top: -40px;""><img src=""images/pattern_7.png"" style=""width: 234px; height: 230px; margin-top: -50px;""><div style=""display: flex; justify-content: space-between; margin-top: 33px;""><img src=""images/choice_trial_13.png"" style=""width: 408px; height: 417px; margin-right: 608px;""></div></div>",,delaylearn,learning,display_response,q4XuhzhMCAYi2P6nzNVGoXi6crA2,q4XuhzhMCAYi2P6nzNVGoXi6crA2,,,,,,,,,,,,,,,,,chosen stimuli: images/choice_trial_13.png,,,,,5ed8162f9883863100f36190,17:21:33,27/03/2024
html-keyboard-response,103,201903,0.0-44.0-2.0,,,,delaylearn,learning,feedback_duration_window,q4XuhzhMCAYi2P6nzNVGoXi6crA2,q4XuhzhMCAYi2P6nzNVGoXi6crA2,,,,,,,,,,,,,,,,,,750.0,,,,5ed8162f9883863100f36190,17:21:33,27/03/2024
html-keyboard-response,104,203417,0.0-44.0-3.0,,<div style='margin:auto;width: auto; font-size: 150%'><span style='font-weight: bold; font-size: 100px; color: red;'>0 points!</span><br><br></div>,,delaylearn,learning,feedback_image_window,q4XuhzhMCAYi2P6nzNVGoXi6crA2,q4XuhzhMCAYi2P6nzNVGoXi6crA2,,,,,,,,,,,,,,,,,,,,,,5ed8162f9883863100f36190,17:21:33,27/03/2024
html-keyboard-response,105,205399,0.0-45.0,,"<div style=""font-size:100px;"">+</div>",,delaylearn,learning,ITI,q4XuhzhMCAYi2P6nzNVGoXi6crA2,q4XuhzhMCAYi2P6nzNVGoXi6crA2,,,,,,,,,,,,,,,,,,,1973.0,,,5ed8162f9883863100f36190,17:21:33,27/03/2024
html-keyboard-response,106,207646,0.0-46.0-0.0,2245.300000011921,"<div style=""display: flex; flex-direction: column; align-items: center; margin-top: -40px;""><img src=""images/pattern_1.png"" style=""width: 234px; height: 230px; margin-top: -50px;""><div style=""display: flex; justify-content: space-between; margin-top: 33px;""><img src=""images/choice_trial_1.png"" style=""width: 408px; height: 417px; margin-right: 200px;""><img src=""images/choice_trial_9.png"" style=""width: 408px; height: 417px;""></div></div>",f,delaylearn,learning,trial,q4XuhzhMCAYi2P6nzNVGoXi6crA2,q4XuhzhMCAYi2P6nzNVGoXi6crA2,4.0,images/choice_trial_1.png,images/choice_trial_9.png,images/pattern_1.png,f,f,7000.0,1.0,9.0,1.0,0.0,20.0,1.0,1.0,1.0,130.0,,,,,,5ed8162f9883863100f36190,17:21:33,27/03/2024
html-keyboard-response,107,208660,0.0-46.0-1.0,,"<div style=""display: flex; flex-direction: column; align-items: center; margin-top: -40px;""><img src=""images/pattern_1.png"" style=""width: 234px; height: 230px; margin-top: -50px;""><div style=""display: flex; justify-content: space-between; margin-top: 33px;""><img src=""images/choice_trial_1.png"" style=""width: 408px; height: 417px; margin-right: 608px;""></div></div>",,delaylearn,learning,display_response,q4XuhzhMCAYi2P6nzNVGoXi6crA2,q4XuhzhMCAYi2P6nzNVGoXi6crA2,,,,,,,,,,,,,,,,,chosen stimuli: images/choice_trial_1.png,,,,,5ed8162f9883863100f36190,17:21:33,27/03/2024
html-keyboard-response,108,215672,0.0-46.0-2.0,,,,delaylearn,learning,feedback_duration_window,q4XuhzhMCAYi2P6nzNVGoXi6crA2,q4XuhzhMCAYi2P6nzNVGoXi6crA2,,,,,,,,,,,,,,,,,,7000.0,,,,5ed8162f9883863100f36190,17:21:33,27/03/2024
html-keyboard-response,109,217186,0.0-46.0-3.0,,<div style='margin:auto;width: auto; font-size: 150%'><span style='font-weight: bold; font-size: 100px; color: green;'>+10 points!</span><br><br></div>,,delaylearn,learning,feedback_image_window,q4XuhzhMCAYi2P6nzNVGoXi6crA2,q4XuhzhMCAYi2P6nzNVGoXi6crA2,,,,,,,,,,,,,,,,,,,,,,5ed8162f9883863100f36190,17:21:33,27/03/2024
html-keyboard-response,110,219601,0.0-47.0,,"<div style=""font-size:100px;"">+</div>",,delaylearn,learning,ITI,q4XuhzhMCAYi2P6nzNVGoXi6crA2,q4XuhzhMCAYi2P6nzNVGoXi6crA2,,,,,,,,,,,,,,,,,,,2398.0,,,5ed8162f9883863100f36190,17:21:33,27/03/2024
html-keyboard-response,111,221296,0.0-48.0-0.0,1693.5,"<div style=""display: flex; flex-direction: column; align-items: center; margin-top: -40px;""><img src=""images/pattern_6.png"" style=""width: 234px; height: 230px; margin-top: -50px;""><div style=""display: flex; justify-content: space-between; margin-top: 33px;""><img src=""images/choice_trial_3.png"" style=""width: 408px; height: 417px; margin-right: 200px;""><img src=""images/choice_trial_10.png"" style=""width: 408px; height: 417px;""></div></div>",j,delaylearn,learning,trial,q4XuhzhMCAYi2P6nzNVGoXi6crA2,q4XuhzhMCAYi2P6nzNVGoXi6crA2,4.0,images/choice_trial_3.png,images/choice_trial_10.png,images/pattern_6.png,j,j,750.0,3.0,10.0,5.0,1.0,21.0,1.0,1.0,10.0,140.0,,,,,,5ed8162f9883863100f36190,17:21:33,27/03/2024
html-keyboard-response,112,222305,0.0-48.0-1.0,,"<div style=""display: flex; flex-direction: column; align-items: center; margin-top: -40px;""><img src=""images/pattern_6.png"" style=""width: 234px; height: 230px; margin-top: -50px;""><div style=""display: flex; justify-content: space-between; margin-top: 33px;""><img src=""images/choice_trial_10.png"" style=""width: 408px; height: 417px; margin-left:608px;""></div></div>",,delaylearn,learning,display_response,q4XuhzhMCAYi2P6nzNVGoXi6crA2,q4XuhzhMCAYi2P6nzNVGoXi6crA2,,,,,,,,,,,,,,,,,chosen stimuli: images/choice_trial_10.png,,,,,5ed8162f9883863100f36190,17:21:33,27/03/2024
html-keyboard-response,113,223069,0.0-48.0-2.0,,,,delaylearn,learning,feedback_duration_window,q4XuhzhMCAYi2P6nzNVGoXi6crA2,q4XuhzhMCAYi2P6nzNVGoXi6crA2,,,,,,,,,,,,,,,,,,750.0,,,,5ed8162f9883863100f36190,17:21:33,27/03/2024
html-keyboard-response,114,224583,0.0-48.0-3.0,,<div style='margin:auto;width: auto; font-size: 150%'><span style='font-weight: bold; font-size: 100px; color: green;'>+10 points!</span><br><br></div>,,delaylearn,learning,feedback_image_window,q4XuhzhMCAYi2P6nzNVGoXi6crA2,q4XuhzhMCAYi2P6nzNVGoXi6crA2,,,,,,,,,,,,,,,,,,,,,,5ed8162f9883863100f36190,17:21:33,27/03/2024
html-keyboard-response,115,226990,0.0-49.0,,"<div style=""font-size:100px;"">+</div>",,delaylearn,learning,ITI,q4XuhzhMCAYi2P6nzNVGoXi6crA2,q4XuhzhMCAYi2P6nzNVGoXi6crA2,,,,,,,,,,,,,,,,,,,2400.0,,,5ed8162f9883863100f36190,17:21:33,27/03/2024
html-keyboard-response,116,228685,0.0-50.0-0.0,1693.800000011921,"<div style=""display: flex; flex-direction: column; align-items: center; margin-top: -40px;""><img src=""images/pattern_4.png"" style=""width: 234px; height: 230px; margin-top: -50px;""><div style=""display: flex; justify-content: space-between; margin-top: 33px;""><img src=""images/choice_trial_8.png"" style=""width: 408px; height: 417px; margin-right: 200px;""><img src=""images/choice_trial_7.png"" style=""width: 408px; height: 417px;""></div></div>",f,delaylearn,learning,trial,q4XuhzhMCAYi2P6nzNVGoXi6crA2,q4XuhzhMCAYi2P6nzNVGoXi6crA2,4.0,images/choice_trial_8.png,images/choice_trial_7.png,images/pattern_4.png,f,f,7000.0,8.0,7.0,3.0,0.0,22.0,1.0,1.0,8.0,150.0,,,,,,5ed8162f9883863100f36190,17:21:33,27/03/2024
html-keyboard-response,117,229693,0.0-50.0-1.0,,"<div style=""display: flex; flex-direction: column; align-items: center; margin-top: -40px;""><img src=""images/pattern_4.png"" style=""width: 234px; height: 230px; margin-top: -50px;""><div style=""display: flex; justify-content: space-between; margin-top: 33px;""><img src=""images/choice_trial_8.png"" style=""width: 408px; height: 417px; margin-right: 608px;""></div></div>",,delaylearn,learning,display_response,q4XuhzhMCAYi2P6nzNVGoXi6crA2,q4XuhzhMCAYi2P6nzNVGoXi6crA2,,,,,,,,,,,,,,,,,chosen stimuli: images/choice_trial_8.png,,,,,5ed8162f9883863100f36190,17:21:33,27/03/2024
html-keyboard-response,118,236702,0.0-50.0-2.0,,,,delaylearn,learning,feedback_duration_window,q4XuhzhMCAYi2P6nzNVGoXi6crA2,q4XuhzhMCAYi2P6nzNVGoXi6crA2,,,,,,,,,,,,,,,,,,7000.0,,,,5ed8162f9883863100f36190,17:21:33,27/03/2024
html-keyboard-response,119,238214,0.0-50.0-3.0,,<div style='margin:auto;width: auto; font-size: 150%'><span style='font-weight: bold; font-size: 100px; color: green;'>+10 points!</span><br><br></div>,,delaylearn,learning,feedback_image_window,q4XuhzhMCAYi2P6nzNVGoXi6crA2,q4XuhzhMCAYi2P6nzNVGoXi6crA2,,,,,,,,,,,,,,,,,,,,,,5ed8162f9883863100f36190,17:21:33,27/03/2024
html-keyboard-response,120,238723,0.0-51.0-0.0,,,,,,mood_trial_fixation,q4XuhzhMCAYi2P6nzNVGoXi6crA2,,,,,,,,,,,,,,,,,,,,,,,5ed8162f9883863100f36190,17:21:33,27/03/2024
lmdlab-html-vas-response,121,245400,0.0-51.0-1.0,5671.0,How happy are you right now?,0.5308641975308642,delaylearn,learning,mood_trial,q4XuhzhMCAYi2P6nzNVGoXi6crA2,q4XuhzhMCAYi2P6nzNVGoXi6crA2,,,,,,,,,,,,,,,,,,,,"['Very unhappy', 'Very happy']",,5ed8162f9883863100f36190,17:21:33,27/03/2024
html-keyboard-response,122,247856,0.0-52.0,,"<div style=""font-size:100px;"">+</div>",,delaylearn,learning,ITI,q4XuhzhMCAYi2P6nzNVGoXi6crA2,q4XuhzhMCAYi2P6nzNVGoXi6crA2,,,,,,,,,,,,,,,,,,,2441.0,,,5ed8162f9883863100f36190,17:21:33,27/03/2024
html-keyboard-response,123,250867,0.0-53.0-0.0,,"<div style=""display: flex; flex-direction: column; align-items: center; margin-top: -40px;""><img src=""images/pattern_7.png"" style=""width: 234px; height: 230px; margin-top: -50px;""><div style=""display: flex; justify-content: space-between; margin-top: 33px;""><img src=""images/choice_trial_4.png"" style=""width: 408px; height: 417px; margin-right: 200px;""><img src=""images/choice_trial_13.png"" style=""width: 408px; height: 417px;""></div></div>",,delaylearn,learning,trial,q4XuhzhMCAYi2P6nzNVGoXi6crA2,q4XuhzhMCAYi2P6nzNVGoXi6crA2,4.0,images/choice_trial_4.png,images/choice_trial_13.png,images/pattern_7.png,j,j,750.0,4.0,13.0,6.0,1.0,23.0,0.0,0.0,0.0,150.0,,,,,,5ed8162f9883863100f36190,17:21:33,27/03/2024
html-keyboard-response,124,251873,0.0-53.0-1.0,,<div style='font-weight: bold; font-size: 75px; color: red;'>Missed Trial <br><br><br><br> Please respond faster</div>,,delaylearn,learning,display_response,q4XuhzhMCAYi2P6nzNVGoXi6crA2,q4XuhzhMCAYi2P6nzNVGoXi6crA2,,,,,,,,,,,,,,,,,Missed trial,,,,,5ed8162f9883863100f36190,17:21:33,27/03/2024
html-keyboard-response,125,251878,0.0-53.0-2.0,,,,delaylearn,learning,feedback_duration_window,q4XuhzhMCAYi2P6nzNVGoXi6crA2,q4XuhzhMCAYi2P6nzNVGoXi6crA2,,,,,,,,,,,,,,,,,,0.0,,,,5ed8162f9883863100f36190,17:21:33,27/03/2024
html-keyboard-response,126,251883,0.0-53.0-3.0,,,,delaylearn,learning,feedback_image_window,q4XuhzhMCAYi2P6nzNVGoXi6crA2,q4XuhzhMCAYi2P6nzNVGoXi6crA2,,,,,,,,,,,,,,,,,,,,,,5ed8162f9883863100f36190,17:21:33,27/03/2024
html-keyboard-response,127,254113,0.0-54.0,,"<div style=""font-size:100px;"">+</div>",,delaylearn,learning,ITI,q4XuhzhMCAYi2P6nzNVGoXi6crA2,q4XuhzhMCAYi2P6nzNVGoXi6crA2,,,,,,,,,,,,,,,,,,,2222.0,,,5ed8162f9883863100f36190,17:21:33,27/03/2024
html-keyboard-response,128,256225,0.0-55.0-0.0,2110.100000023842,"<div style=""display: flex; flex-direction: column; align-items: center; margin-top: -40px;""><img src=""images/pattern_1.png"" style=""width: 234px; height: 230px; margin-top: -50px;""><div style=""display: flex; justify-content: space-between; margin-top: 33px;""><img src=""images/choice_trial_9.png"" style=""width: 408px; height: 417px; margin-right: 200px;""><img src=""images/choice_trial_1.png"" style=""width: 408px; height: 417px;""></div></div>",j,delaylearn,learning,trial,q4XuhzhMCAYi2P6nzNVGoXi6crA2,q4XuhzhMCAYi2P6nzNVGoXi6crA2,4.0,images/choice_trial_9.png,images/choice_trial_1.png,images/pattern_1.png,f,j,7000.0,9.0,1.0,1.0,1.0,24.0,1.0,0.0,1.0,150.0,,,,,,5ed8162f9883863100f36190,17:21:33,27/03/2024
html-keyboard-response,129,257234,0.0-55.0-1.0,,"<div style=""display: flex; flex-direction: column; align-items: center; margin-top: -40px;""><img src=""images/pattern_1.png"" style=""width: 234px; height: 230px; margin-top: -50px;""><div style=""display: flex; justify-content: space-between; margin-top: 33px;""><img src=""images/choice_trial_1.png"" style=""width: 408px; height: 417px; margin-left:608px;""></div></div>",,delaylearn,learning,display_response,q4XuhzhMCAYi2P6nzNVGoXi6crA2,q4XuhzhMCAYi2P6nzNVGoXi6crA2,,,,,,,,,,,,,,,,,chosen stimuli: images/choice_trial_1.png,,,,,5ed8162f9883863100f36190,17:21:33,27/03/2024
html-keyboard-response,130,264242,0.0-55.0-2.0,,,,delaylearn,learning,feedback_duration_window,q4XuhzhMCAYi2P6nzNVGoXi6crA2,q4XuhzhMCAYi2P6nzNVGoXi6crA2,,,,,,,,,,,,,,,,,,7000.0,,,,5ed8162f9883863100f36190,17:21:33,27/03/2024
html-keyboard-response,131,265755,0.0-55.0-3.0,,<div style='margin:auto;width: auto; font-size: 150%'><span style='font-weight: bold; font-size: 100px; color: red;'>0 points!</span><br><br></div>,,delaylearn,learning,feedback_image_window,q4XuhzhMCAYi2P6nzNVGoXi6crA2,q4XuhzhMCAYi2P6nzNVGoXi6crA2,,,,,,,,,,,,,,,,,,,,,,5ed8162f9883863100f36190,17:21:33,27/03/2024
html-keyboard-response,132,268200,0.0-56.0,,"<div style=""font-size:100px;"">+</div>",,delaylearn,learning,ITI,q4XuhzhMCAYi2P6nzNVGoXi6crA2,q4XuhzhMCAYi2P6nzNVGoXi6crA2,,,,,,,,,,,,,,,,,,,2434.0,,,5ed8162f9883863100f36190,17:21:33,27/03/2024
html-keyboard-response,133,269554,0.0-57.0-0.0,1352.5999999940395,"<div style=""display: flex; flex-direction: column; align-items: center; margin-top: -40px;""><img src=""images/pattern_5.png"" style=""width: 234px; height: 230px; margin-top: -50px;""><div style=""display: flex; justify-content: space-between; margin-top: 33px;""><img src=""images/choice_trial_15.png"" style=""width: 408px; height: 417px; margin-right: 200px;""><img src=""images/choice_trial_5.png"" style=""width: 408px; height: 417px;""></div></div>",f,delaylearn,learning,trial,q4XuhzhMCAYi2P6nzNVGoXi6crA2,q4XuhzhMCAYi2P6nzNVGoXi6crA2,4.0,images/choice_trial_15.png,images/choice_trial_5.png,images/pattern_5.png,j,j,750.0,15.0,5.0,4.0,1.0,25.0,0.0,0.0,15.0,150.0,,,,,,5ed8162f9883863100f36190,17:21:33,27/03/2024
html-keyboard-response,134,270567,0.0-57.0-1.0,,"<div style=""display: flex; flex-direction: column; align-items: center; margin-top: -40px;""><img src=""images/pattern_5.png"" style=""width: 234px; height: 230px; margin-top: -50px;""><div style=""display: flex; justify-content: space-between; margin-top: 33px;""><img src=""images/choice_trial_15.png"" style=""width: 408px; height: 417px; margin-right: 608px;""></div></div>",,delaylearn,learning,display_response,q4XuhzhMCAYi2P6nzNVGoXi6crA2,q4XuhzhMCAYi2P6nzNVGoXi6crA2,,,,,,,,,,,,,,,,,chosen stimuli: images/choice_trial_15.png,,,,,5ed8162f9883863100f36190,17:21:33,27/03/2024
html-keyboard-response,135,271331,0.0-57.0-2.0,,,,delaylearn,learning,feedback_duration_window,q4XuhzhMCAYi2P6nzNVGoXi6crA2,q4XuhzhMCAYi2P6nzNVGoXi6crA2,,,,,,,,,,,,,,,,,,750.0,,,,5ed8162f9883863100f36190,17:21:33,27/03/2024
html-keyboard-response,136,272845,0.0-57.0-3.0,,<div style='margin:auto;width: auto; font-size: 150%'><span style='font-weight: bold; font-size: 100px; color: red;'>0 points!</span><br><br></div>,,delaylearn,learning,feedback_image_window,q4XuhzhMCAYi2P6nzNVGoXi6crA2,q4XuhzhMCAYi2P6nzNVGoXi6crA2,,,,,,,,,,,,,,,,,,,,,,5ed8162f9883863100f36190,17:21:33,27/03/2024
html-keyboard-response,137,274899,0.0-58.0,,"<div style=""font-size:100px;"">+</div>",,delaylearn,learning,ITI,q4XuhzhMCAYi2P6nzNVGoXi6crA2,q4XuhzhMCAYi2P6nzNVGoXi6crA2,,,,,,,,,,,,,,,,,,,2040.0,,,5ed8162f9883863100f36190,17:21:33,27/03/2024
html-keyboard-response,138,276844,0.0-59.0-0.0,1943.5,"<div style=""display: flex; flex-direction: column; align-items: center; margin-top: -40px;""><img src=""images/pattern_3.png"" style=""width: 234px; height: 230px; margin-top: -50px;""><div style=""display: flex; justify-content: space-between; margin-top: 33px;""><img src=""images/choice_trial_6.png"" style=""width: 408px; height: 417px; margin-right: 200px;""><img src=""images/choice_trial_16.png"" style=""width: 408px; height: 417px;""></div></div>",j,delaylearn,learning,trial,q4XuhzhMCAYi2P6nzNVGoXi6crA2,q4XuhzhMCAYi2P6nzNVGoXi6crA2,4.0,images/choice_trial_6.png,images/choice_trial_16.png,images/pattern_3.png,j,j,7000.0,6.0,16.0,2.0,1.0,26.0,1.0,1.0,16.0,160.0,,,,,,5ed8162f9883863100f36190,17:21:33,27/03/2024
html-keyboard-response,139,277852,0.0-59.0-1.0,,"<div style=""display: flex; flex-direction: column; align-items: center; margin-top: -40px;""><img src=""images/pattern_3.png"" style=""width: 234px; height: 230px; margin-top: -50px;""><div style=""display: flex; justify-content: space-between; margin-top: 33px;""><img src=""images/choice_trial_16.png"" style=""width: 408px; height: 417px; margin-left:608px;""></div></div>",,delaylearn,learning,display_response,q4XuhzhMCAYi2P6nzNVGoXi6crA2,q4XuhzhMCAYi2P6nzNVGoXi6crA2,,,,,,,,,,,,,,,,,chosen stimuli: images/choice_trial_16.png,,,,,5ed8162f9883863100f36190,17:21:33,27/03/2024
html-keyboard-response,140,284860,0.0-59.0-2.0,,,,delaylearn,learning,feedback_duration_window,q4XuhzhMCAYi2P6nzNVGoXi6crA2,q4XuhzhMCAYi2P6nzNVGoXi6crA2,,,,,,,,,,,,,,,,,,7000.0,,,,5ed8162f9883863100f36190,17:21:33,27/03/2024
html-keyboard-response,141,286372,0.0-59.0-3.0,,<div style='margin:auto;width: auto; font-size: 150%'><span style='font-weight: bold; font-size: 100px; color: green;'>+10 points!</span><br><br></div>,,delaylearn,learning,feedback_image_window,q4XuhzhMCAYi2P6nzNVGoXi6crA2,q4XuhzhMCAYi2P6nzNVGoXi6crA2,,,,,,,,,,,,,,,,,,,,,,5ed8162f9883863100f36190,17:21:33,27/03/2024
lmdlab-html-vas-response,142,291059,0.0-60.0-0.0,3173.0,*How <b><u>confident</u></b> are you feeling about your answers at this moment?*,0.3950617283950617,rewlearn,rate_confidence,,q4XuhzhMCAYi2P6nzNVGoXi6crA2,q4XuhzhMCAYi2P6nzNVGoXi6crA2,,,,,,,,,,,,,,,,,,,,"['No confidence', 'Complete confidence']",,5ed8162f9883863100f36190,17:21:33,27/03/2024
lmdlab-rest-trial-limit,143,300865,0.0-60.0-1.0,8303.799999982119,"<div style=""font-size:40px;""><b>Please take a break!</b><br><br><br><br><p>Great work: you earned 160 points.<br><br><br><p>You have completed part(s) 1 of 5.<br><br><br><br>When you are ready to continue<br><br><br>please click the button.</p><br><br>",0,delaylearn,learning,break,q4XuhzhMCAYi2P6nzNVGoXi6crA2,q4XuhzhMCAYi2P6nzNVGoXi6crA2,,,,,,,,,,,,,,,,,,,,,0.0,5ed8162f9883863100f36190,17:21:33,27/03/2024
html-keyboard-response,144,303879,0.0-60.0-2.0,,"<div style=""font-size:100px;"">+</div>",,delaylearn,learning,pre_fixation,q4XuhzhMCAYi2P6nzNVGoXi6crA2,,,,,,,,,,,,,,,,,,,,,,,5ed8162f9883863100f36190,17:21:33,27/03/2024
lmdlab-html-vas-response,145,309063,0.0-60.0-3.0-0.0,4179.0,How happy are you right now?,0.5493827160493827,delaylearn,learning,mood_baseline,q4XuhzhMCAYi2P6nzNVGoXi6crA2,q4XuhzhMCAYi2P6nzNVGoXi6crA2,,,,,,,,,,,,,,,,,,,,"['Very unhappy', 'Very happy']",,5ed8162f9883863100f36190,17:21:33,27/03/2024
html-keyboard-response,146,310574,0.0-60.0-3.0-1.0,,,,,,mood_baseline_fixation,q4XuhzhMCAYi2P6nzNVGoXi6crA2,,,,,,,,,,,,,,,,,,,,,,,5ed8162f9883863100f36190,17:21:33,27/03/2024
html-keyboard-response,147,312699,0.0-61.0,,"<div style=""font-size:100px;"">+</div>",,delaylearn,learning,ITI,q4XuhzhMCAYi2P6nzNVGoXi6crA2,q4XuhzhMCAYi2P6nzNVGoXi6crA2,,,,,,,,,,,,,,,,,,,2121.0,,,5ed8162f9883863100f36190,17:21:33,27/03/2024
html-keyboard-response,148,314463,0.0-62.0-0.0,1763.0,"<div style=""display: flex; flex-direction: column; align-items: center; margin-top: -40px;""><img src=""images/pattern_7.png"" style=""width: 234px; height: 230px; margin-top: -50px;""><div style=""display: flex; justify-content: space-between; margin-top: 33px;""><img src=""images/choice_trial_4.png"" style=""width: 408px; height: 417px; margin-right: 200px;""><img src=""images/choice_trial_13.png"" style=""width: 408px; height: 417px;""></div></div>",j,delaylearn,learning,trial,q4XuhzhMCAYi2P6nzNVGoXi6crA2,q4XuhzhMCAYi2P6nzNVGoXi6crA2,4.0,images/choice_trial_4.png,images/choice_trial_13.png,images/pattern_7.png,j,j,750.0,4.0,13.0,6.0,1.0,27.0,1.0,1.0,13.0,170.0,,,,,,5ed8162f9883863100f36190,17:21:33,27/03/2024
html-keyboard-response,149,315476,0.0-62.0-1.0,,"<div style=""display: flex; flex-direction: column; align-items: center; margin-top: -40px;""><img src=""images/pattern_7.png"" style=""width: 234px; height: 230px; margin-top: -50px;""><div style=""display: flex; justify-content: space-between; margin-top: 33px;""><img src=""images/choice_trial_13.png"" style=""width: 408px; height: 417px; margin-left:608px;""></div></div>",,delaylearn,learning,display_response,q4XuhzhMCAYi2P6nzNVGoXi6crA2,q4XuhzhMCAYi2P6nzNVGoXi6crA2,,,,,,,,,,,,,,,,,chosen stimuli: images/choice_trial_13.png,,,,,5ed8162f9883863100f36190,17:21:33,27/03/2024
html-keyboard-response,150,316240,0.0-62.0-2.0,,,,delaylearn,learning,feedback_duration_window,q4XuhzhMCAYi2P6nzNVGoXi6crA2,q4XuhzhMCAYi2P6nzNVGoXi6crA2,,,,,,,,,,,,,,,,,,750.0,,,,5ed8162f9883863100f36190,17:21:33,27/03/2024
html-keyboard-response,151,317754,0.0-62.0-3.0,,<div style='margin:auto;width: auto; font-size: 150%'><span style='font-weight: bold; font-size: 100px; color: green;'>+10 points!</span><br><br></div>,,delaylearn,learning,feedback_image_window,q4XuhzhMCAYi2P6nzNVGoXi6crA2,q4XuhzhMCAYi2P6nzNVGoXi6crA2,,,,,,,,,,,,,,,,,,,,,,5ed8162f9883863100f36190,17:21:33,27/03/2024
html-keyboard-response,152,318267,0.0-63.0-0.0,,,,,,mood_trial_fixation,q4XuhzhMCAYi2P6nzNVGoXi6crA2,,,,,,,,,,,,,,,,,,,,,,,5ed8162f9883863100f36190,17:21:33,27/03/2024
lmdlab-html-vas-response,153,322962,0.0-63.0-1.0,3678.0,How happy are you right now?,0.5740740740740741,delaylearn,learning,mood_trial,q4XuhzhMCAYi2P6nzNVGoXi6crA2,q4XuhzhMCAYi2P6nzNVGoXi6crA2,,,,,,,,,,,,,,,,,,,,"['Very unhappy', 'Very happy']",,5ed8162f9883863100f36190,17:21:33,27/03/2024
html-keyboard-response,154,325295,0.0-64.0,,"<div style=""font-size:100px;"">+</div>",,delaylearn,learning,ITI,q4XuhzhMCAYi2P6nzNVGoXi6crA2,q4XuhzhMCAYi2P6nzNVGoXi6crA2,,,,,,,,,,,,,,,,,,,2329.0,,,5ed8162f9883863100f36190,17:21:33,27/03/2024
html-keyboard-response,155,327153,0.0-65.0-0.0,1856.699999988079,"<div style=""display: flex; flex-direction: column; align-items: center; margin-top: -40px;""><img src=""images/pattern_1.png"" style=""width: 234px; height: 230px; margin-top: -50px;""><div style=""display: flex; justify-content: space-between; margin-top: 33px;""><img src=""images/choice_trial_1.png"" style=""width: 408px; height: 417px; margin-right: 200px;""><img src=""images/choice_trial_9.png"" style=""width: 408px; height: 417px;""></div></div>",f,delaylearn,learning,trial,q4XuhzhMCAYi2P6nzNVGoXi6crA2,q4XuhzhMCAYi2P6nzNVGoXi6crA2,4.0,images/choice_trial_1.png,images/choice_trial_9.png,images/pattern_1.png,f,f,7000.0,1.0,9.0,1.0,0.0,28.0,1.0,1.0,1.0,180.0,,,,,,5ed8162f9883863100f36190,17:21:33,27/03/2024
html-keyboard-response,156,328164,0.0-65.0-1.0,,"<div style=""display: flex; flex-direction: column; align-items: center; margin-top: -40px;""><img src=""images/pattern_1.png"" style=""width: 234px; height: 230px; margin-top: -50px;""><div style=""display: flex; justify-content: space-between; margin-top: 33px;""><img src=""images/choice_trial_1.png"" style=""width: 408px; height: 417px; margin-right: 608px;""></div></div>",,delaylearn,learning,display_response,q4XuhzhMCAYi2P6nzNVGoXi6crA2,q4XuhzhMCAYi2P6nzNVGoXi6crA2,,,,,,,,,,,,,,,,,chosen stimuli: images/choice_trial_1.png,,,,,5ed8162f9883863100f36190,17:21:33,27/03/2024
html-keyboard-response,157,335178,0.0-65.0-2.0,,,,delaylearn,learning,feedback_duration_window,q4XuhzhMCAYi2P6nzNVGoXi6crA2,q4XuhzhMCAYi2P6nzNVGoXi6crA2,,,,,,,,,,,,,,,,,,7000.0,,,,5ed8162f9883863100f36190,17:21:33,27/03/2024
html-keyboard-response,158,336685,0.0-65.0-3.0,,<div style='margin:auto;width: auto; font-size: 150%'><span style='font-weight: bold; font-size: 100px; color: green;'>+10 points!</span><br><br></div>,,delaylearn,learning,feedback_image_window,q4XuhzhMCAYi2P6nzNVGoXi6crA2,q4XuhzhMCAYi2P6nzNVGoXi6crA2,,,,,,,,,,,,,,,,,,,,,,5ed8162f9883863100f36190,17:21:33,27/03/2024
html-keyboard-response,159,338732,0.0-66.0,,"<div style=""font-size:100px;"">+</div>",,delaylearn,learning,ITI,q4XuhzhMCAYi2P6nzNVGoXi6crA2,q4XuhzhMCAYi2P6nzNVGoXi6crA2,,,,,,,,,,,,,,,,,,,2037.0,,,5ed8162f9883863100f36190,17:21:33,27/03/2024
html-keyboard-response,160,340652,0.0-67.0-0.0,1918.5,"<div style=""display: flex; flex-direction: column; align-items: center; margin-top: -40px;""><img src=""images/pattern_5.png"" style=""width: 234px; height: 230px; margin-top: -50px;""><div style=""display: flex; justify-content: space-between; margin-top: 33px;""><img src=""images/choice_trial_5.png"" style=""width: 408px; height: 417px; margin-right: 200px;""><img src=""images/choice_trial_15.png"" style=""width: 408px; height: 417px;""></div></div>",j,delaylearn,learning,trial,q4XuhzhMCAYi2P6nzNVGoXi6crA2,q4XuhzhMCAYi2P6nzNVGoXi6crA2,4.0,images/choice_trial_5.png,images/choice_trial_15.png,images/pattern_5.png,f,f,750.0,5.0,15.0,4.0,0.0,29.0,0.0,0.0,15.0,180.0,,,,,,5ed8162f9883863100f36190,17:21:33,27/03/2024
html-keyboard-response,161,341662,0.0-67.0-1.0,,"<div style=""display: flex; flex-direction: column; align-items: center; margin-top: -40px;""><img src=""images/pattern_5.png"" style=""width: 234px; height: 230px; margin-top: -50px;""><div style=""display: flex; justify-content: space-between; margin-top: 33px;""><img src=""images/choice_trial_15.png"" style=""width: 408px; height: 417px; margin-left:608px;""></div></div>",,delaylearn,learning,display_response,q4XuhzhMCAYi2P6nzNVGoXi6crA2,q4XuhzhMCAYi2P6nzNVGoXi6crA2,,,,,,,,,,,,,,,,,chosen stimuli: images/choice_trial_15.png,,,,,5ed8162f9883863100f36190,17:21:33,27/03/2024
html-keyboard-response,162,342420,0.0-67.0-2.0,,,,delaylearn,learning,feedback_duration_window,q4XuhzhMCAYi2P6nzNVGoXi6crA2,q4XuhzhMCAYi2P6nzNVGoXi6crA2,,,,,,,,,,,,,,,,,,750.0,,,,5ed8162f9883863100f36190,17:21:33,27/03/2024
html-keyboard-response,163,343933,0.0-67.0-3.0,,<div style='margin:auto;width: auto; font-size: 150%'><span style='font-weight: bold; font-size: 100px; color: red;'>0 points!</span><br><br></div>,,delaylearn,learning,feedback_image_window,q4XuhzhMCAYi2P6nzNVGoXi6crA2,q4XuhzhMCAYi2P6nzNVGoXi6crA2,,,,,,,,,,,,,,,,,,,,,,5ed8162f9883863100f36190,17:21:33,27/03/2024
html-keyboard-response,164,346138,0.0-68.0,,"<div style=""font-size:100px;"">+</div>",,delaylearn,learning,ITI,q4XuhzhMCAYi2P6nzNVGoXi6crA2,q4XuhzhMCAYi2P6nzNVGoXi6crA2,,,,,,,,,,,,,,,,,,,2191.0,,,5ed8162f9883863100f36190,17:21:33,27/03/2024
html-keyboard-response,165,347771,0.0-69.0-0.0,1632.0,"<div style=""display: flex; flex-direction: column; align-items: center; margin-top: -40px;""><img src=""images/pattern_6.png"" style=""width: 234px; height: 230px; margin-top: -50px;""><div style=""display: flex; justify-content: space-between; margin-top: 33px;""><img src=""images/choice_trial_3.png"" style=""width: 408px; height: 417px; margin-right: 200px;""><img src=""images/choice_trial_10.png"" style=""width: 408px; height: 417px;""></div></div>",j,delaylearn,learning,trial,q4XuhzhMCAYi2P6nzNVGoXi6crA2,q4XuhzhMCAYi2P6nzNVGoXi6crA2,4.0,images/choice_trial_3.png,images/choice_trial_10.png,images/pattern_6.png,j,j,750.0,3.0,10.0,5.0,1.0,30.0,1.0,1.0,10.0,190.0,,,,,,5ed8162f9883863100f36190,17:21:33,27/03/2024
html-keyboard-response,166,348787,0.0-69.0-1.0,,"<div style=""display: flex; flex-direction: column; align-items: center; margin-top: -40px;""><img src=""images/pattern_6.png"" style=""width: 234px; height: 230px; margin-top: -50px;""><div style=""display: flex; justify-content: space-between; margin-top: 33px;""><img src=""images/choice_trial_10.png"" style=""width: 408px; height: 417px; margin-left:608px;""></div></div>",,delaylearn,learning,display_response,q4XuhzhMCAYi2P6nzNVGoXi6crA2,q4XuhzhMCAYi2P6nzNVGoXi6crA2,,,,,,,,,,,,,,,,,chosen stimuli: images/choice_trial_10.png,,,,,5ed8162f9883863100f36190,17:21:33,27/03/2024
html-keyboard-response,167,349551,0.0-69.0-2.0,,,,delaylearn,learning,feedback_duration_window,q4XuhzhMCAYi2P6nzNVGoXi6crA2,q4XuhzhMCAYi2P6nzNVGoXi6crA2,,,,,,,,,,,,,,,,,,750.0,,,,5ed8162f9883863100f36190,17:21:33,27/03/2024
html-keyboard-response,168,351065,0.0-69.0-3.0,,<div style='margin:auto;width: auto; font-size: 150%'><span style='font-weight: bold; font-size: 100px; color: green;'>+10 points!</span><br><br></div>,,delaylearn,learning,feedback_image_window,q4XuhzhMCAYi2P6nzNVGoXi6crA2,q4XuhzhMCAYi2P6nzNVGoXi6crA2,,,,,,,,,,,,,,,,,,,,,,5ed8162f9883863100f36190,17:21:33,27/03/2024
html-keyboard-response,169,351579,0.0-70.0-0.0,,,,,,mood_trial_fixation,q4XuhzhMCAYi2P6nzNVGoXi6crA2,,,,,,,,,,,,,,,,,,,,,,,5ed8162f9883863100f36190,17:21:33,27/03/2024
lmdlab-html-vas-response,170,356118,0.0-70.0-1.0,3524.0,How happy are you right now?,0.5802469135802469,delaylearn,learning,mood_trial,q4XuhzhMCAYi2P6nzNVGoXi6crA2,q4XuhzhMCAYi2P6nzNVGoXi6crA2,,,,,,,,,,,,,,,,,,,,"['Very unhappy', 'Very happy']",,5ed8162f9883863100f36190,17:21:33,27/03/2024
html-keyboard-response,171,357843,0.0-71.0,,"<div style=""font-size:100px;"">+</div>",,delaylearn,learning,ITI,q4XuhzhMCAYi2P6nzNVGoXi6crA2,q4XuhzhMCAYi2P6nzNVGoXi6crA2,,,,,,,,,,,,,,,,,,,1723.0,,,5ed8162f9883863100f36190,17:21:33,27/03/2024
html-keyboard-response,172,359781,0.0-72.0-0.0,1936.5999999940395,"<div style=""display: flex; flex-direction: column; align-items: center; margin-top: -40px;""><img src=""images/pattern_4.png"" style=""width: 234px; height: 230px; margin-top: -50px;""><div style=""display: flex; justify-content: space-between; margin-top: 33px;""><img src=""images/choice_trial_7.png"" style=""width: 408px; height: 417px; margin-right: 200px;""><img src=""images/choice_trial_8.png"" style=""width: 408px; height: 417px;""></div></div>",j,delaylearn,learning,trial,q4XuhzhMCAYi2P6nzNVGoXi6crA2,q4XuhzhMCAYi2P6nzNVGoXi6crA2,4.0,images/choice_trial_7.png,images/choice_trial_8.png,images/pattern_4.png,j,j,7000.0,7.0,8.0,3.0,1.0,31.0,1.0,1.0,8.0,200.0,,,,,,5ed8162f9883863100f36190,17:21:33,27/03/2024
html-keyboard-response,173,360794,0.0-72.0-1.0,,"<div style=""display: flex; flex-direction: column; align-items: center; margin-top: -40px;""><img src=""images/pattern_4.png"" style=""width: 234px; height: 230px; margin-top: -50px;""><div style=""display: flex; justify-content: space-between; margin-top: 33px;""><img src=""images/choice_trial_8.png"" style=""width: 408px; height: 417px; margin-left:608px;""></div></div>",,delaylearn,learning,display_response,q4XuhzhMCAYi2P6nzNVGoXi6crA2,q4XuhzhMCAYi2P6nzNVGoXi6crA2,,,,,,,,,,,,,,,,,chosen stimuli: images/choice_trial_8.png,,,,,5ed8162f9883863100f36190,17:21:33,27/03/2024
html-keyboard-response,174,367808,0.0-72.0-2.0,,,,delaylearn,learning,feedback_duration_window,q4XuhzhMCAYi2P6nzNVGoXi6crA2,q4XuhzhMCAYi2P6nzNVGoXi6crA2,,,,,,,,,,,,,,,,,,7000.0,,,,5ed8162f9883863100f36190,17:21:33,27/03/2024
html-keyboard-response,175,369318,0.0-72.0-3.0,,<div style='margin:auto;width: auto; font-size: 150%'><span style='font-weight: bold; font-size: 100px; color: green;'>+10 points!</span><br><br></div>,,delaylearn,learning,feedback_image_window,q4XuhzhMCAYi2P6nzNVGoXi6crA2,q4XuhzhMCAYi2P6nzNVGoXi6crA2,,,,,,,,,,,,,,,,,,,,,,5ed8162f9883863100f36190,17:21:33,27/03/2024
html-keyboard-response,176,371719,0.0-73.0,,"<div style=""font-size:100px;"">+</div>",,delaylearn,learning,ITI,q4XuhzhMCAYi2P6nzNVGoXi6crA2,q4XuhzhMCAYi2P6nzNVGoXi6crA2,,,,,,,,,,,,,,,,,,,2395.0,,,5ed8162f9883863100f36190,17:21:33,27/03/2024
html-keyboard-response,177,373512,0.0-74.0-0.0,1791.9000000059605,"<div style=""display: flex; flex-direction: column; align-items: center; margin-top: -40px;""><img src=""images/pattern_3.png"" style=""width: 234px; height: 230px; margin-top: -50px;""><div style=""display: flex; justify-content: space-between; margin-top: 33px;""><img src=""images/choice_trial_6.png"" style=""width: 408px; height: 417px; margin-right: 200px;""><img src=""images/choice_trial_16.png"" style=""width: 408px; height: 417px;""></div></div>",j,delaylearn,learning,trial,q4XuhzhMCAYi2P6nzNVGoXi6crA2,q4XuhzhMCAYi2P6nzNVGoXi6crA2,4.0,images/choice_trial_6.png,images/choice_trial_16.png,images/pattern_3.png,j,j,7000.0,6.0,16.0,2.0,1.0,32.0,1.0,1.0,16.0,210.0,,,,,,5ed8162f9883863100f36190,17:21:33,27/03/2024
html-keyboard-response,178,374523,0.0-74.0-1.0,,"<div style=""display: flex; flex-direction: column; align-items: center; margin-top: -40px;""><img src=""images/pattern_3.png"" style=""width: 234px; height: 230px; margin-top: -50px;""><div style=""display: flex; justify-content: space-between; margin-top: 33px;""><img src=""images/choice_trial_16.png"" style=""width: 408px; height: 417px; margin-left:608px;""></div></div>",,delaylearn,learning,display_response,q4XuhzhMCAYi2P6nzNVGoXi6crA2,q4XuhzhMCAYi2P6nzNVGoXi6crA2,,,,,,,,,,,,,,,,,chosen stimuli: images/choice_trial_16.png,,,,,5ed8162f9883863100f36190,17:21:33,27/03/2024
html-keyboard-response,179,381528,0.0-74.0-2.0,,,,delaylearn,learning,feedback_duration_window,q4XuhzhMCAYi2P6nzNVGoXi6crA2,q4XuhzhMCAYi2P6nzNVGoXi6crA2,,,,,,,,,,,,,,,,,,7000.0,,,,5ed8162f9883863100f36190,17:21:33,27/03/2024
html-keyboard-response,180,383036,0.0-74.0-3.0,,<div style='margin:auto;width: auto; font-size: 150%'><span style='font-weight: bold; font-size: 100px; color: green;'>+10 points!</span><br><br></div>,,delaylearn,learning,feedback_image_window,q4XuhzhMCAYi2P6nzNVGoXi6crA2,q4XuhzhMCAYi2P6nzNVGoXi6crA2,,,,,,,,,,,,,,,,,,,,,,5ed8162f9883863100f36190,17:21:33,27/03/2024
html-keyboard-response,181,385496,0.0-75.0,,"<div style=""font-size:100px;"">+</div>",,delaylearn,learning,ITI,q4XuhzhMCAYi2P6nzNVGoXi6crA2,q4XuhzhMCAYi2P6nzNVGoXi6crA2,,,,,,,,,,,,,,,,,,,2455.0,,,5ed8162f9883863100f36190,17:21:33,27/03/2024
html-keyboard-response,182,387451,0.0-76.0-0.0,1953.2999999821186,"<div style=""display: flex; flex-direction: column; align-items: center; margin-top: -40px;""><img src=""images/pattern_5.png"" style=""width: 234px; height: 230px; margin-top: -50px;""><div style=""display: flex; justify-content: space-between; margin-top: 33px;""><img src=""images/choice_trial_5.png"" style=""width: 408px; height: 417px; margin-right: 200px;""><img src=""images/choice_trial_15.png"" style=""width: 408px; height: 417px;""></div></div>",f,delaylearn,learning,trial,q4XuhzhMCAYi2P6nzNVGoXi6crA2,q4XuhzhMCAYi2P6nzNVGoXi6crA2,4.0,images/choice_trial_5.png,images/choice_trial_15.png,images/pattern_5.png,j,f,750.0,5.0,15.0,4.0,0.0,33.0,1.0,0.0,5.0,210.0,,,,,,5ed8162f9883863100f36190,17:21:33,27/03/2024
html-keyboard-response,183,388460,0.0-76.0-1.0,,"<div style=""display: flex; flex-direction: column; align-items: center; margin-top: -40px;""><img src=""images/pattern_5.png"" style=""width: 234px; height: 230px; margin-top: -50px;""><div style=""display: flex; justify-content: space-between; margin-top: 33px;""><img src=""images/choice_trial_5.png"" style=""width: 408px; height: 417px; margin-right: 608px;""></div></div>",,delaylearn,learning,display_response,q4XuhzhMCAYi2P6nzNVGoXi6crA2,q4XuhzhMCAYi2P6nzNVGoXi6crA2,,,,,,,,,,,,,,,,,chosen stimuli: images/choice_trial_5.png,,,,,5ed8162f9883863100f36190,17:21:33,27/03/2024
html-keyboard-response,184,389223,0.0-76.0-2.0,,,,delaylearn,learning,feedback_duration_window,q4XuhzhMCAYi2P6nzNVGoXi6crA2,q4XuhzhMCAYi2P6nzNVGoXi6crA2,,,,,,,,,,,,,,,,,,750.0,,,,5ed8162f9883863100f36190,17:21:33,27/03/2024
html-keyboard-response,185,390737,0.0-76.0-3.0,,<div style='margin:auto;width: auto; font-size: 150%'><span style='font-weight: bold; font-size: 100px; color: red;'>0 points!</span><br><br></div>,,delaylearn,learning,feedback_image_window,q4XuhzhMCAYi2P6nzNVGoXi6crA2,q4XuhzhMCAYi2P6nzNVGoXi6crA2,,,,,,,,,,,,,,,,,,,,,,5ed8162f9883863100f36190,17:21:33,27/03/2024
html-keyboard-response,186,392845,0.0-77.0,,"<div style=""font-size:100px;"">+</div>",,delaylearn,learning,ITI,q4XuhzhMCAYi2P6nzNVGoXi6crA2,q4XuhzhMCAYi2P6nzNVGoXi6crA2,,,,,,,,,,,,,,,,,,,2099.0,,,5ed8162f9883863100f36190,17:21:33,27/03/2024
html-keyboard-response,187,395450,0.0-78.0-0.0,2603.7000000178814,"<div style=""display: flex; flex-direction: column; align-items: center; margin-top: -40px;""><img src=""images/pattern_1.png"" style=""width: 234px; height: 230px; margin-top: -50px;""><div style=""display: flex; justify-content: space-between; margin-top: 33px;""><img src=""images/choice_trial_1.png"" style=""width: 408px; height: 417px; margin-right: 200px;""><img src=""images/choice_trial_9.png"" style=""width: 408px; height: 417px;""></div></div>",f,delaylearn,learning,trial,q4XuhzhMCAYi2P6nzNVGoXi6crA2,q4XuhzhMCAYi2P6nzNVGoXi6crA2,4.0,images/choice_trial_1.png,images/choice_trial_9.png,images/pattern_1.png,f,f,7000.0,1.0,9.0,1.0,0.0,34.0,1.0,1.0,1.0,220.0,,,,,,5ed8162f9883863100f36190,17:21:33,27/03/2024
html-keyboard-response,188,396459,0.0-78.0-1.0,,"<div style=""display: flex; flex-direction: column; align-items: center; margin-top: -40px;""><img src=""images/pattern_1.png"" style=""width: 234px; height: 230px; margin-top: -50px;""><div style=""display: flex; justify-content: space-between; margin-top: 33px;""><img src=""images/choice_trial_1.png"" style=""width: 408px; height: 417px; margin-right: 608px;""></div></div>",,delaylearn,learning,display_response,q4XuhzhMCAYi2P6nzNVGoXi6crA2,q4XuhzhMCAYi2P6nzNVGoXi6crA2,,,,,,,,,,,,,,,,,chosen stimuli: images/choice_trial_1.png,,,,,5ed8162f9883863100f36190,17:21:33,27/03/2024
html-keyboard-response,189,403465,0.0-78.0-2.0,,,,delaylearn,learning,feedback_duration_window,q4XuhzhMCAYi2P6nzNVGoXi6crA2,q4XuhzhMCAYi2P6nzNVGoXi6crA2,,,,,,,,,,,,,,,,,,7000.0,,,,5ed8162f9883863100f36190,17:21:33,27/03/2024
html-keyboard-response,190,404980,0.0-78.0-3.0,,<div style='margin:auto;width: auto; font-size: 150%'><span style='font-weight: bold; font-size: 100px; color: green;'>+10 points!</span><br><br></div>,,delaylearn,learning,feedback_image_window,q4XuhzhMCAYi2P6nzNVGoXi6crA2,q4XuhzhMCAYi2P6nzNVGoXi6crA2,,,,,,,,,,,,,,,,,,,,,,5ed8162f9883863100f36190,17:21:33,27/03/2024
html-keyboard-response,191,405494,0.0-79.0-0.0,,,,,,mood_trial_fixation,q4XuhzhMCAYi2P6nzNVGoXi6crA2,,,,,,,,,,,,,,,,,,,,,,,5ed8162f9883863100f36190,17:21:33,27/03/2024
lmdlab-html-vas-response,192,410304,0.0-79.0-1.0,3802.0,How happy are you right now?,0.5787037037037037,delaylearn,learning,mood_trial,q4XuhzhMCAYi2P6nzNVGoXi6crA2,q4XuhzhMCAYi2P6nzNVGoXi6crA2,,,,,,,,,,,,,,,,,,,,"['Very unhappy', 'Very happy']",,5ed8162f9883863100f36190,17:21:33,27/03/2024
html-keyboard-response,193,412087,0.0-80.0,,"<div style=""font-size:100px;"">+</div>",,delaylearn,learning,ITI,q4XuhzhMCAYi2P6nzNVGoXi6crA2,q4XuhzhMCAYi2P6nzNVGoXi6crA2,,,,,,,,,,,,,,,,,,,1781.0,,,5ed8162f9883863100f36190,17:21:33,27/03/2024
html-keyboard-response,194,413230,0.0-81.0-0.0,1141.7000000178814,"<div style=""display: flex; flex-direction: column; align-items: center; margin-top: -40px;""><img src=""images/pattern_6.png"" style=""width: 234px; height: 230px; margin-top: -50px;""><div style=""display: flex; justify-content: space-between; margin-top: 33px;""><img src=""images/choice_trial_10.png"" style=""width: 408px; height: 417px; margin-right: 200px;""><img src=""images/choice_trial_3.png"" style=""width: 408px; height: 417px;""></div></div>",f,delaylearn,learning,trial,q4XuhzhMCAYi2P6nzNVGoXi6crA2,q4XuhzhMCAYi2P6nzNVGoXi6crA2,4.0,images/choice_trial_10.png,images/choice_trial_3.png,images/pattern_6.png,j,f,750.0,10.0,3.0,5.0,0.0,35.0,1.0,0.0,10.0,220.0,,,,,,5ed8162f9883863100f36190,17:21:33,27/03/2024
html-keyboard-response,195,414243,0.0-81.0-1.0,,"<div style=""display: flex; flex-direction: column; align-items: center; margin-top: -40px;""><img src=""images/pattern_6.png"" style=""width: 234px; height: 230px; margin-top: -50px;""><div style=""display: flex; justify-content: space-between; margin-top: 33px;""><img src=""images/choice_trial_10.png"" style=""width: 408px; height: 417px; margin-right: 608px;""></div></div>",,delaylearn,learning,display_response,q4XuhzhMCAYi2P6nzNVGoXi6crA2,q4XuhzhMCAYi2P6nzNVGoXi6crA2,,,,,,,,,,,,,,,,,chosen stimuli: images/choice_trial_10.png,,,,,5ed8162f9883863100f36190,17:21:33,27/03/2024
html-keyboard-response,196,415001,0.0-81.0-2.0,,,,delaylearn,learning,feedback_duration_window,q4XuhzhMCAYi2P6nzNVGoXi6crA2,q4XuhzhMCAYi2P6nzNVGoXi6crA2,,,,,,,,,,,,,,,,,,750.0,,,,5ed8162f9883863100f36190,17:21:33,27/03/2024
html-keyboard-response,197,416514,0.0-81.0-3.0,,<div style='margin:auto;width: auto; font-size: 150%'><span style='font-weight: bold; font-size: 100px; color: red;'>0 points!</span><br><br></div>,,delaylearn,learning,feedback_image_window,q4XuhzhMCAYi2P6nzNVGoXi6crA2,q4XuhzhMCAYi2P6nzNVGoXi6crA2,,,,,,,,,,,,,,,,,,,,,,5ed8162f9883863100f36190,17:21:33,27/03/2024
html-keyboard-response,198,418996,0.0-82.0,,"<div style=""font-size:100px;"">+</div>",,delaylearn,learning,ITI,q4XuhzhMCAYi2P6nzNVGoXi6crA2,q4XuhzhMCAYi2P6nzNVGoXi6crA2,,,,,,,,,,,,,,,,,,,2481.0,,,5ed8162f9883863100f36190,17:21:33,27/03/2024
html-keyboard-response,199,420660,0.0-83.0-0.0,1662.4000000059605,"<div style=""display: flex; flex-direction: column; align-items: center; margin-top: -40px;""><img src=""images/pattern_3.png"" style=""width: 234px; height: 230px; margin-top: -50px;""><div style=""display: flex; justify-content: space-between; margin-top: 33px;""><img src=""images/choice_trial_6.png"" style=""width: 408px; height: 417px; margin-right: 200px;""><img src=""images/choice_trial_16.png"" style=""width: 408px; height: 417px;""></div></div>",j,delaylearn,learning,trial,q4XuhzhMCAYi2P6nzNVGoXi6crA2,q4XuhzhMCAYi2P6nzNVGoXi6crA2,4.0,images/choice_trial_6.png,images/choice_trial_16.png,images/pattern_3.png,j,j,7000.0,6.0,16.0,2.0,1.0,36.0,1.0,1.0,16.0,230.0,,,,,,5ed8162f9883863100f36190,17:21:33,27/03/2024
html-keyboard-response,200,421674,0.0-83.0-1.0,,"<div style=""display: flex; flex-direction: column; align-items: center; margin-top: -40px;""><img src=""images/pattern_3.png"" style=""width: 234px; height: 230px; margin-top: -50px;""><div style=""display: flex; justify-content: space-between; margin-top: 33px;""><img src=""images/choice_trial_16.png"" style=""width: 408px; height: 417px; margin-left:608px;""></div></div>",,delaylearn,learning,display_response,q4XuhzhMCAYi2P6nzNVGoXi6crA2,q4XuhzhMCAYi2P6nzNVGoXi6crA2,,,,,,,,,,,,,,,,,chosen stimuli: images/choice_trial_16.png,,,,,5ed8162f9883863100f36190,17:21:33,27/03/2024
html-keyboard-response,201,428690,0.0-83.0-2.0,,,,delaylearn,learning,feedback_duration_window,q4XuhzhMCAYi2P6nzNVGoXi6crA2,q4XuhzhMCAYi2P6nzNVGoXi6crA2,,,,,,,,,,,,,,,,,,7000.0,,,,5ed8162f9883863100f36190,17:21:33,27/03/2024
html-keyboard-response,202,430201,0.0-83.0-3.0,,<div style='margin:auto;width: auto; font-size: 150%'><span style='font-weight: bold; font-size: 100px; color: green;'>+10 points!</span><br><br></div>,,delaylearn,learning,feedback_image_window,q4XuhzhMCAYi2P6nzNVGoXi6crA2,q4XuhzhMCAYi2P6nzNVGoXi6crA2,,,,,,,,,,,,,,,,,,,,,,5ed8162f9883863100f36190,17:21:33,27/03/2024
html-keyboard-response,203,432153,0.0-84.0,,"<div style=""font-size:100px;"">+</div>",,delaylearn,learning,ITI,q4XuhzhMCAYi2P6nzNVGoXi6crA2,q4XuhzhMCAYi2P6nzNVGoXi6crA2,,,,,,,,,,,,,,,,,,,1948.0,,,5ed8162f9883863100f36190,17:21:33,27/03/2024
html-keyboard-response,204,433539,0.0-85.0-0.0,1385.0,"<div style=""display: flex; flex-direction: column; align-items: center; margin-top: -40px;""><img src=""images/pattern_4.png"" style=""width: 234px; height: 230px; margin-top: -50px;""><div style=""display: flex; justify-content: space-between; margin-top: 33px;""><img src=""images/choice_trial_7.png"" style=""width: 408px; height: 417px; margin-right: 200px;""><img src=""images/choice_trial_8.png"" style=""width: 408px; height: 417px;""></div></div>",j,delaylearn,learning,trial,q4XuhzhMCAYi2P6nzNVGoXi6crA2,q4XuhzhMCAYi2P6nzNVGoXi6crA2,4.0,images/choice_trial_7.png,images/choice_trial_8.png,images/pattern_4.png,f,j,7000.0,7.0,8.0,3.0,1.0,37.0,1.0,0.0,8.0,230.0,,,,,,5ed8162f9883863100f36190,17:21:33,27/03/2024
html-keyboard-response,205,434548,0.0-85.0-1.0,,"<div style=""display: flex; flex-direction: column; align-items: center; margin-top: -40px;""><img src=""images/pattern_4.png"" style=""width: 234px; height: 230px; margin-top: -50px;""><div style=""display: flex; justify-content: space-between; margin-top: 33px;""><img src=""images/choice_trial_8.png"" style=""width: 408px; height: 417px; margin-left:608px;""></div></div>",,delaylearn,learning,display_response,q4XuhzhMCAYi2P6nzNVGoXi6crA2,q4XuhzhMCAYi2P6nzNVGoXi6crA2,,,,,,,,,,,,,,,,,chosen stimuli: images/choice_trial_8.png,,,,,5ed8162f9883863100f36190,17:21:33,27/03/2024
html-keyboard-response,206,441557,0.0-85.0-2.0,,,,delaylearn,learning,feedback_duration_window,q4XuhzhMCAYi2P6nzNVGoXi6crA2,q4XuhzhMCAYi2P6nzNVGoXi6crA2,,,,,,,,,,,,,,,,,,7000.0,,,,5ed8162f9883863100f36190,17:21:33,27/03/2024
html-keyboard-response,207,443069,0.0-85.0-3.0,,<div style='margin:auto;width: auto; font-size: 150%'><span style='font-weight: bold; font-size: 100px; color: red;'>0 points!</span><br><br></div>,,delaylearn,learning,feedback_image_window,q4XuhzhMCAYi2P6nzNVGoXi6crA2,q4XuhzhMCAYi2P6nzNVGoXi6crA2,,,,,,,,,,,,,,,,,,,,,,5ed8162f9883863100f36190,17:21:33,27/03/2024
html-keyboard-response,208,445232,0.0-86.0,,"<div style=""font-size:100px;"">+</div>",,delaylearn,learning,ITI,q4XuhzhMCAYi2P6nzNVGoXi6crA2,q4XuhzhMCAYi2P6nzNVGoXi6crA2,,,,,,,,,,,,,,,,,,,2148.0,,,5ed8162f9883863100f36190,17:21:33,27/03/2024
html-keyboard-response,209,446498,0.0-87.0-0.0,1264.4000000059605,"<div style=""display: flex; flex-direction: column; align-items: center; margin-top: -40px;""><img src=""images/pattern_7.png"" style=""width: 234px; height: 230px; margin-top: -50px;""><div style=""display: flex; justify-content: space-between; margin-top: 33px;""><img src=""images/choice_trial_13.png"" style=""width: 408px; height: 417px; margin-right: 200px;""><img src=""images/choice_trial_4.png"" style=""width: 408px; height: 417px;""></div></div>",f,delaylearn,learning,trial,q4XuhzhMCAYi2P6nzNVGoXi6crA2,q4XuhzhMCAYi2P6nzNVGoXi6crA2,4.0,images/choice_trial_13.png,images/choice_trial_4.png,images/pattern_7.png,f,f,750.0,13.0,4.0,6.0,0.0,38.0,1.0,1.0,13.0,240.0,,,,,,5ed8162f9883863100f36190,17:21:33,27/03/2024
html-keyboard-response,210,447506,0.0-87.0-1.0,,"<div style=""display: flex; flex-direction: column; align-items: center; margin-top: -40px;""><img src=""images/pattern_7.png"" style=""width: 234px; height: 230px; margin-top: -50px;""><div style=""display: flex; justify-content: space-between; margin-top: 33px;""><img src=""images/choice_trial_13.png"" style=""width: 408px; height: 417px; margin-right: 608px;""></div></div>",,delaylearn,learning,display_response,q4XuhzhMCAYi2P6nzNVGoXi6crA2,q4XuhzhMCAYi2P6nzNVGoXi6crA2,,,,,,,,,,,,,,,,,chosen stimuli: images/choice_trial_13.png,,,,,5ed8162f9883863100f36190,17:21:33,27/03/2024
html-keyboard-response,211,448270,0.0-87.0-2.0,,,,delaylearn,learning,feedback_duration_window,q4XuhzhMCAYi2P6nzNVGoXi6crA2,q4XuhzhMCAYi2P6nzNVGoXi6crA2,,,,,,,,,,,,,,,,,,750.0,,,,5ed8162f9883863100f36190,17:21:33,27/03/2024
html-keyboard-response,212,449784,0.0-87.0-3.0,,<div style='margin:auto;width: auto; font-size: 150%'><span style='font-weight: bold; font-size: 100px; color: green;'>+10 points!</span><br><br></div>,,delaylearn,learning,feedback_image_window,q4XuhzhMCAYi2P6nzNVGoXi6crA2,q4XuhzhMCAYi2P6nzNVGoXi6crA2,,,,,,,,,,,,,,,,,,,,,,5ed8162f9883863100f36190,17:21:33,27/03/2024
html-keyboard-response,213,451573,0.0-88.0,,"<div style=""font-size:100px;"">+</div>",,delaylearn,learning,ITI,q4XuhzhMCAYi2P6nzNVGoXi6crA2,q4XuhzhMCAYi2P6nzNVGoXi6crA2,,,,,,,,,,,,,,,,,,,1782.0,,,5ed8162f9883863100f36190,17:21:33,27/03/2024
html-keyboard-response,214,454583,0.0-89.0-0.0,,"<div style=""display: flex; flex-direction: column; align-items: center; margin-top: -40px;""><img src=""images/pattern_1.png"" style=""width: 234px; height: 230px; margin-top: -50px;""><div style=""display: flex; justify-content: space-between; margin-top: 33px;""><img src=""images/choice_trial_1.png"" style=""width: 408px; height: 417px; margin-right: 200px;""><img src=""images/choice_trial_9.png"" style=""width: 408px; height: 417px;""></div></div>",,delaylearn,learning,trial,q4XuhzhMCAYi2P6nzNVGoXi6crA2,q4XuhzhMCAYi2P6nzNVGoXi6crA2,4.0,images/choice_trial_1.png,images/choice_trial_9.png,images/pattern_1.png,f,f,7000.0,1.0,9.0,1.0,0.0,39.0,0.0,0.0,0.0,240.0,,,,,,5ed8162f9883863100f36190,17:21:33,27/03/2024
html-keyboard-response,215,455596,0.0-89.0-1.0,,<div style='font-weight: bold; font-size: 75px; color: red;'>Missed Trial <br><br><br><br> Please respond faster</div>,,delaylearn,learning,display_response,q4XuhzhMCAYi2P6nzNVGoXi6crA2,q4XuhzhMCAYi2P6nzNVGoXi6crA2,,,,,,,,,,,,,,,,,Missed trial,,,,,5ed8162f9883863100f36190,17:21:33,27/03/2024
html-keyboard-response,216,455601,0.0-89.0-2.0,,,,delaylearn,learning,feedback_duration_window,q4XuhzhMCAYi2P6nzNVGoXi6crA2,q4XuhzhMCAYi2P6nzNVGoXi6crA2,,,,,,,,,,,,,,,,,,0.0,,,,5ed8162f9883863100f36190,17:21:33,27/03/2024
html-keyboard-response,217,455606,0.0-89.0-3.0,,,,delaylearn,learning,feedback_image_window,q4XuhzhMCAYi2P6nzNVGoXi6crA2,q4XuhzhMCAYi2P6nzNVGoXi6crA2,,,,,,,,,,,,,,,,,,,,,,5ed8162f9883863100f36190,17:21:33,27/03/2024
html-keyboard-response,218,456117,0.0-90.0-0.0,,,,,,mood_trial_fixation,q4XuhzhMCAYi2P6nzNVGoXi6crA2,,,,,,,,,,,,,,,,,,,,,,,5ed8162f9883863100f36190,17:21:33,27/03/2024
lmdlab-html-vas-response,219,460115,0.0-90.0-1.0,2990.0,How happy are you right now?,0.3626543209876543,delaylearn,learning,mood_trial,q4XuhzhMCAYi2P6nzNVGoXi6crA2,q4XuhzhMCAYi2P6nzNVGoXi6crA2,,,,,,,,,,,,,,,,,,,,"['Very unhappy', 'Very happy']",,5ed8162f9883863100f36190,17:21:33,27/03/2024
html-keyboard-response,220,462291,0.0-91.0,,"<div style=""font-size:100px;"">+</div>",,delaylearn,learning,ITI,q4XuhzhMCAYi2P6nzNVGoXi6crA2,q4XuhzhMCAYi2P6nzNVGoXi6crA2,,,,,,,,,,,,,,,,,,,2168.0,,,5ed8162f9883863100f36190,17:21:33,27/03/2024
html-keyboard-response,221,463488,0.0-92.0-0.0,1195.5999999940395,"<div style=""display: flex; flex-direction: column; align-items: center; margin-top: -40px;""><img src=""images/pattern_3.png"" style=""width: 234px; height: 230px; margin-top: -50px;""><div style=""display: flex; justify-content: space-between; margin-top: 33px;""><img src=""images/choice_trial_16.png"" style=""width: 408px; height: 417px; margin-right: 200px;""><img src=""images/choice_trial_6.png"" style=""width: 408px; height: 417px;""></div></div>",f,delaylearn,learning,trial,q4XuhzhMCAYi2P6nzNVGoXi6crA2,q4XuhzhMCAYi2P6nzNVGoXi6crA2,4.0,images/choice_trial_16.png,images/choice_trial_6.png,images/pattern_3.png,j,f,7000.0,16.0,6.0,2.0,0.0,40.0,1.0,0.0,16.0,240.0,,,,,,5ed8162f9883863100f36190,17:21:33,27/03/2024
html-keyboard-response,222,464499,0.0-92.0-1.0,,"<div style=""display: flex; flex-direction: column; align-items: center; margin-top: -40px;""><img src=""images/pattern_3.png"" style=""width: 234px; height: 230px; margin-top: -50px;""><div style=""display: flex; justify-content: space-between; margin-top: 33px;""><img src=""images/choice_trial_16.png"" style=""width: 408px; height: 417px; margin-right: 608px;""></div></div>",,delaylearn,learning,display_response,q4XuhzhMCAYi2P6nzNVGoXi6crA2,q4XuhzhMCAYi2P6nzNVGoXi6crA2,,,,,,,,,,,,,,,,,chosen stimuli: images/choice_trial_16.png,,,,,5ed8162f9883863100f36190,17:21:33,27/03/2024
html-keyboard-response,223,471504,0.0-92.0-2.0,,,,delaylearn,learning,feedback_duration_window,q4XuhzhMCAYi2P6nzNVGoXi6crA2,q4XuhzhMCAYi2P6nzNVGoXi6crA2,,,,,,,,,,,,,,,,,,7000.0,,,,5ed8162f9883863100f36190,17:21:33,27/03/2024
html-keyboard-response,224,473012,0.0-92.0-3.0,,<div style='margin:auto;width: auto; font-size: 150%'><span style='font-weight: bold; font-size: 100px; color: red;'>0 points!</span><br><br></div>,,delaylearn,learning,feedback_image_window,q4XuhzhMCAYi2P6nzNVGoXi6crA2,q4XuhzhMCAYi2P6nzNVGoXi6crA2,,,,,,,,,,,,,,,,,,,,,,5ed8162f9883863100f36190,17:21:33,27/03/2024
html-keyboard-response,225,474739,0.0-93.0,,"<div style=""font-size:100px;"">+</div>",,delaylearn,learning,ITI,q4XuhzhMCAYi2P6nzNVGoXi6crA2,q4XuhzhMCAYi2P6nzNVGoXi6crA2,,,,,,,,,,,,,,,,,,,1720.0,,,5ed8162f9883863100f36190,17:21:33,27/03/2024
html-keyboard-response,226,475608,0.0-94.0-0.0,868.5,"<div style=""display: flex; flex-direction: column; align-items: center; margin-top: -40px;""><img src=""images/pattern_7.png"" style=""width: 234px; height: 230px; margin-top: -50px;""><div style=""display: flex; justify-content: space-between; margin-top: 33px;""><img src=""images/choice_trial_4.png"" style=""width: 408px; height: 417px; margin-right: 200px;""><img src=""images/choice_trial_13.png"" style=""width: 408px; height: 417px;""></div></div>",j,delaylearn,learning,trial,q4XuhzhMCAYi2P6nzNVGoXi6crA2,q4XuhzhMCAYi2P6nzNVGoXi6crA2,4.0,images/choice_trial_4.png,images/choice_trial_13.png,images/pattern_7.png,j,j,750.0,4.0,13.0,6.0,1.0,41.0,1.0,1.0,13.0,250.0,,,,,,5ed8162f9883863100f36190,17:21:33,27/03/2024
html-keyboard-response,227,476617,0.0-94.0-1.0,,"<div style=""display: flex; flex-direction: column; align-items: center; margin-top: -40px;""><img src=""images/pattern_7.png"" style=""width: 234px; height: 230px; margin-top: -50px;""><div style=""display: flex; justify-content: space-between; margin-top: 33px;""><img src=""images/choice_trial_13.png"" style=""width: 408px; height: 417px; margin-left:608px;""></div></div>",,delaylearn,learning,display_response,q4XuhzhMCAYi2P6nzNVGoXi6crA2,q4XuhzhMCAYi2P6nzNVGoXi6crA2,,,,,,,,,,,,,,,,,chosen stimuli: images/choice_trial_13.png,,,,,5ed8162f9883863100f36190,17:21:33,27/03/2024
html-keyboard-response,228,477382,0.0-94.0-2.0,,,,delaylearn,learning,feedback_duration_window,q4XuhzhMCAYi2P6nzNVGoXi6crA2,q4XuhzhMCAYi2P6nzNVGoXi6crA2,,,,,,,,,,,,,,,,,,750.0,,,,5ed8162f9883863100f36190,17:21:33,27/03/2024
html-keyboard-response,229,478884,0.0-94.0-3.0,,<div style='margin:auto;width: auto; font-size: 150%'><span style='font-weight: bold; font-size: 100px; color: green;'>+10 points!</span><br><br></div>,,delaylearn,learning,feedback_image_window,q4XuhzhMCAYi2P6nzNVGoXi6crA2,q4XuhzhMCAYi2P6nzNVGoXi6crA2,,,,,,,,,,,,,,,,,,,,,,5ed8162f9883863100f36190,17:21:33,27/03/2024
html-keyboard-response,230,480560,0.0-95.0,,"<div style=""font-size:100px;"">+</div>",,delaylearn,learning,ITI,q4XuhzhMCAYi2P6nzNVGoXi6crA2,q4XuhzhMCAYi2P6nzNVGoXi6crA2,,,,,,,,,,,,,,,,,,,1660.0,,,5ed8162f9883863100f36190,17:21:33,27/03/2024
html-keyboard-response,231,481987,0.0-96.0-0.0,1426.300000011921,"<div style=""display: flex; flex-direction: column; align-items: center; margin-top: -40px;""><img src=""images/pattern_5.png"" style=""width: 234px; height: 230px; margin-top: -50px;""><div style=""display: flex; justify-content: space-between; margin-top: 33px;""><img src=""images/choice_trial_15.png"" style=""width: 408px; height: 417px; margin-right: 200px;""><img src=""images/choice_trial_5.png"" style=""width: 408px; height: 417px;""></div></div>",j,delaylearn,learning,trial,q4XuhzhMCAYi2P6nzNVGoXi6crA2,q4XuhzhMCAYi2P6nzNVGoXi6crA2,4.0,images/choice_trial_15.png,images/choice_trial_5.png,images/pattern_5.png,j,j,750.0,15.0,5.0,4.0,1.0,42.0,1.0,1.0,5.0,260.0,,,,,,5ed8162f9883863100f36190,17:21:33,27/03/2024
