trial_type,trial_index,time_elapsed,internal_node_id,rt,stimulus,response,exp_name,exp_stage,test_part,subjectID,databaseID,counterbal,choice_stimuli_1,choice_stimuli_2,pattern_stimuli,rewarded_answer,correct_answer,feedback_duration_times,stim_left,stim_right,pair,leftright_counter,trial,response_correct,response_rewarded,chosen_stim,counter,displayed_choice,feedback_durations,ITI_duration,labels,rest_warning,prolificID,start_time,date
pavlovia,0,603,0.0-0.0,,,,,,,Lo02yB6aHZhShy9mRPf3EEYP8VC3,,,,,,,,,,,,,,,,,,,,,,,5bbd045428989b00019107be,16:58:02,27/03/2024
html-keyboard-response,1,3606,0.0-1.0,,"<div style=""font-size:100px;"">+</div>",,delaylearn,learning,pre_fixation,Lo02yB6aHZhShy9mRPf3EEYP8VC3,,,,,,,,,,,,,,,,,,,,,,,5bbd045428989b00019107be,16:58:02,27/03/2024
html-keyboard-response,2,5362,0.0-2.0-0.0,1752.7999999998137,"<div style=""display: flex; flex-direction: column; align-items: center; margin-top: -40px;""><img src=""images/demo_images/pattern_1.png"" style=""width: 234px; height: 230px; margin-top: -50px;""><div style=""display: flex; justify-content: space-between; margin-top: 33px;""><img src=""images/demo_images/choice_trial_2.png"" style=""width: 408px; height: 417px; margin-right: 200px;""><img src=""images/demo_images/choice_trial_1.png"" style=""width: 408px; height: 417px;""></div></div>",j,delaylearn,learning,trial,Lo02yB6aHZhShy9mRPf3EEYP8VC3,Lo02yB6aHZhShy9mRPf3EEYP8VC3,2.0,images/demo_images/choice_trial_2.png,images/demo_images/choice_trial_1.png,images/demo_images/pattern_1.png,j,j,3000.0,2.0,1.0,20.0,1.0,1.0,1.0,1.0,1.0,10.0,,,,,,5bbd045428989b00019107be,16:58:02,27/03/2024
html-keyboard-response,3,6366,0.0-2.0-1.0,,"<div style=""display: flex; flex-direction: column; align-items: center; margin-top: -40px;""><img src=""images/demo_images/pattern_1.png"" style=""width: 234px; height: 230px; margin-top: -50px;""><div style=""display: flex; justify-content: space-between; margin-top: 33px;""><img src=""images/demo_images/choice_trial_1.png"" style=""width: 408px; height: 417px; margin-left:608px;""></div></div>",,delaylearn,learning,display_response,Lo02yB6aHZhShy9mRPf3EEYP8VC3,Lo02yB6aHZhShy9mRPf3EEYP8VC3,,,,,,,,,,,,,,,,,chosen stimuli: images/demo_images/choice_trial_1.png,,,,,5bbd045428989b00019107be,16:58:02,27/03/2024
html-keyboard-response,4,9368,0.0-2.0-2.0,,,,delaylearn,learning,feedback_duration_window,Lo02yB6aHZhShy9mRPf3EEYP8VC3,Lo02yB6aHZhShy9mRPf3EEYP8VC3,,,,,,,,,,,,,,,,,,3000.0,,,,5bbd045428989b00019107be,16:58:02,27/03/2024
html-keyboard-response,5,10869,0.0-2.0-3.0,,<div style='margin:auto;width: auto; font-size: 150%'><span style='font-weight: bold; font-size: 100px; color: green;'>+10 points!</span><br><br></div>,,delaylearn,learning,feedback_image_window,Lo02yB6aHZhShy9mRPf3EEYP8VC3,Lo02yB6aHZhShy9mRPf3EEYP8VC3,,,,,,,,,,,,,,,,,,,,,,5bbd045428989b00019107be,16:58:02,27/03/2024
html-keyboard-response,6,12953,0.0-3.0,,"<div style=""font-size:100px;"">+</div>",,delaylearn,learning,ITI,Lo02yB6aHZhShy9mRPf3EEYP8VC3,Lo02yB6aHZhShy9mRPf3EEYP8VC3,,,,,,,,,,,,,,,,,,,2082.0,,,5bbd045428989b00019107be,16:58:02,27/03/2024
html-keyboard-response,7,13751,0.0-4.0-0.0,793.3999999999069,"<div style=""display: flex; flex-direction: column; align-items: center; margin-top: -40px;""><img src=""images/demo_images/pattern_1.png"" style=""width: 234px; height: 230px; margin-top: -50px;""><div style=""display: flex; justify-content: space-between; margin-top: 33px;""><img src=""images/demo_images/choice_trial_2.png"" style=""width: 408px; height: 417px; margin-right: 200px;""><img src=""images/demo_images/choice_trial_1.png"" style=""width: 408px; height: 417px;""></div></div>",j,delaylearn,learning,trial,Lo02yB6aHZhShy9mRPf3EEYP8VC3,Lo02yB6aHZhShy9mRPf3EEYP8VC3,2.0,images/demo_images/choice_trial_2.png,images/demo_images/choice_trial_1.png,images/demo_images/pattern_1.png,j,j,3000.0,2.0,1.0,20.0,1.0,2.0,1.0,1.0,1.0,20.0,,,,,,5bbd045428989b00019107be,16:58:02,27/03/2024
html-keyboard-response,8,14753,0.0-4.0-1.0,,"<div style=""display: flex; flex-direction: column; align-items: center; margin-top: -40px;""><img src=""images/demo_images/pattern_1.png"" style=""width: 234px; height: 230px; margin-top: -50px;""><div style=""display: flex; justify-content: space-between; margin-top: 33px;""><img src=""images/demo_images/choice_trial_1.png"" style=""width: 408px; height: 417px; margin-left:608px;""></div></div>",,delaylearn,learning,display_response,Lo02yB6aHZhShy9mRPf3EEYP8VC3,Lo02yB6aHZhShy9mRPf3EEYP8VC3,,,,,,,,,,,,,,,,,chosen stimuli: images/demo_images/choice_trial_1.png,,,,,5bbd045428989b00019107be,16:58:02,27/03/2024
html-keyboard-response,9,17755,0.0-4.0-2.0,,,,delaylearn,learning,feedback_duration_window,Lo02yB6aHZhShy9mRPf3EEYP8VC3,Lo02yB6aHZhShy9mRPf3EEYP8VC3,,,,,,,,,,,,,,,,,,3000.0,,,,5bbd045428989b00019107be,16:58:02,27/03/2024
html-keyboard-response,10,19257,0.0-4.0-3.0,,<div style='margin:auto;width: auto; font-size: 150%'><span style='font-weight: bold; font-size: 100px; color: green;'>+10 points!</span><br><br></div>,,delaylearn,learning,feedback_image_window,Lo02yB6aHZhShy9mRPf3EEYP8VC3,Lo02yB6aHZhShy9mRPf3EEYP8VC3,,,,,,,,,,,,,,,,,,,,,,5bbd045428989b00019107be,16:58:02,27/03/2024
html-keyboard-response,11,20882,0.0-5.0,,"<div style=""font-size:100px;"">+</div>",,delaylearn,learning,ITI,Lo02yB6aHZhShy9mRPf3EEYP8VC3,Lo02yB6aHZhShy9mRPf3EEYP8VC3,,,,,,,,,,,,,,,,,,,1623.0,,,5bbd045428989b00019107be,16:58:02,27/03/2024
html-keyboard-response,12,21674,0.0-6.0-0.0,789.4000000003725,"<div style=""display: flex; flex-direction: column; align-items: center; margin-top: -40px;""><img src=""images/demo_images/pattern_1.png"" style=""width: 234px; height: 230px; margin-top: -50px;""><div style=""display: flex; justify-content: space-between; margin-top: 33px;""><img src=""images/demo_images/choice_trial_1.png"" style=""width: 408px; height: 417px; margin-right: 200px;""><img src=""images/demo_images/choice_trial_2.png"" style=""width: 408px; height: 417px;""></div></div>",f,delaylearn,learning,trial,Lo02yB6aHZhShy9mRPf3EEYP8VC3,Lo02yB6aHZhShy9mRPf3EEYP8VC3,2.0,images/demo_images/choice_trial_1.png,images/demo_images/choice_trial_2.png,images/demo_images/pattern_1.png,j,f,3000.0,1.0,2.0,20.0,0.0,3.0,1.0,0.0,1.0,20.0,,,,,,5bbd045428989b00019107be,16:58:02,27/03/2024
html-keyboard-response,13,22676,0.0-6.0-1.0,,"<div style=""display: flex; flex-direction: column; align-items: center; margin-top: -40px;""><img src=""images/demo_images/pattern_1.png"" style=""width: 234px; height: 230px; margin-top: -50px;""><div style=""display: flex; justify-content: space-between; margin-top: 33px;""><img src=""images/demo_images/choice_trial_1.png"" style=""width: 408px; height: 417px; margin-right: 608px;""></div></div>",,delaylearn,learning,display_response,Lo02yB6aHZhShy9mRPf3EEYP8VC3,Lo02yB6aHZhShy9mRPf3EEYP8VC3,,,,,,,,,,,,,,,,,chosen stimuli: images/demo_images/choice_trial_1.png,,,,,5bbd045428989b00019107be,16:58:02,27/03/2024
html-keyboard-response,14,25678,0.0-6.0-2.0,,,,delaylearn,learning,feedback_duration_window,Lo02yB6aHZhShy9mRPf3EEYP8VC3,Lo02yB6aHZhShy9mRPf3EEYP8VC3,,,,,,,,,,,,,,,,,,3000.0,,,,5bbd045428989b00019107be,16:58:02,27/03/2024
html-keyboard-response,15,27180,0.0-6.0-3.0,,<div style='margin:auto;width: auto; font-size: 150%'><span style='font-weight: bold; font-size: 100px; color: red;'>0 points!</span><br><br></div>,,delaylearn,learning,feedback_image_window,Lo02yB6aHZhShy9mRPf3EEYP8VC3,Lo02yB6aHZhShy9mRPf3EEYP8VC3,,,,,,,,,,,,,,,,,,,,,,5bbd045428989b00019107be,16:58:02,27/03/2024
html-keyboard-response,16,29378,0.0-7.0,,"<div style=""font-size:100px;"">+</div>",,delaylearn,learning,ITI,Lo02yB6aHZhShy9mRPf3EEYP8VC3,Lo02yB6aHZhShy9mRPf3EEYP8VC3,,,,,,,,,,,,,,,,,,,2197.0,,,5bbd045428989b00019107be,16:58:02,27/03/2024
html-keyboard-response,17,31136,0.0-8.0-0.0,1755.2000000001863,"<div style=""display: flex; flex-direction: column; align-items: center; margin-top: -40px;""><img src=""images/demo_images/pattern_1.png"" style=""width: 234px; height: 230px; margin-top: -50px;""><div style=""display: flex; justify-content: space-between; margin-top: 33px;""><img src=""images/demo_images/choice_trial_1.png"" style=""width: 408px; height: 417px; margin-right: 200px;""><img src=""images/demo_images/choice_trial_2.png"" style=""width: 408px; height: 417px;""></div></div>",f,delaylearn,learning,trial,Lo02yB6aHZhShy9mRPf3EEYP8VC3,Lo02yB6aHZhShy9mRPf3EEYP8VC3,2.0,images/demo_images/choice_trial_1.png,images/demo_images/choice_trial_2.png,images/demo_images/pattern_1.png,f,f,3000.0,1.0,2.0,20.0,0.0,4.0,1.0,1.0,1.0,30.0,,,,,,5bbd045428989b00019107be,16:58:02,27/03/2024
html-keyboard-response,18,32138,0.0-8.0-1.0,,"<div style=""display: flex; flex-direction: column; align-items: center; margin-top: -40px;""><img src=""images/demo_images/pattern_1.png"" style=""width: 234px; height: 230px; margin-top: -50px;""><div style=""display: flex; justify-content: space-between; margin-top: 33px;""><img src=""images/demo_images/choice_trial_1.png"" style=""width: 408px; height: 417px; margin-right: 608px;""></div></div>",,delaylearn,learning,display_response,Lo02yB6aHZhShy9mRPf3EEYP8VC3,Lo02yB6aHZhShy9mRPf3EEYP8VC3,,,,,,,,,,,,,,,,,chosen stimuli: images/demo_images/choice_trial_1.png,,,,,5bbd045428989b00019107be,16:58:02,27/03/2024
html-keyboard-response,19,35139,0.0-8.0-2.0,,,,delaylearn,learning,feedback_duration_window,Lo02yB6aHZhShy9mRPf3EEYP8VC3,Lo02yB6aHZhShy9mRPf3EEYP8VC3,,,,,,,,,,,,,,,,,,3000.0,,,,5bbd045428989b00019107be,16:58:02,27/03/2024
html-keyboard-response,20,36642,0.0-8.0-3.0,,<div style='margin:auto;width: auto; font-size: 150%'><span style='font-weight: bold; font-size: 100px; color: green;'>+10 points!</span><br><br></div>,,delaylearn,learning,feedback_image_window,Lo02yB6aHZhShy9mRPf3EEYP8VC3,Lo02yB6aHZhShy9mRPf3EEYP8VC3,,,,,,,,,,,,,,,,,,,,,,5bbd045428989b00019107be,16:58:02,27/03/2024
html-keyboard-response,21,37143,0.0-9.0-0.0,,,,,,mood_trial_fixation,Lo02yB6aHZhShy9mRPf3EEYP8VC3,,,,,,,,,,,,,,,,,,,,,,,5bbd045428989b00019107be,16:58:02,27/03/2024
lmdlab-html-vas-response,22,42367,0.0-9.0-1.0,4211.0,How happy are you right now?,0.12386668763965147,delaylearn,learning,mood_trial,Lo02yB6aHZhShy9mRPf3EEYP8VC3,Lo02yB6aHZhShy9mRPf3EEYP8VC3,,,,,,,,,,,,,,,,,,,,"['Very unhappy', 'Very happy']",,5bbd045428989b00019107be,16:58:02,27/03/2024
html-keyboard-response,23,44330,0.0-10.0,,"<div style=""font-size:100px;"">+</div>",,delaylearn,learning,ITI,Lo02yB6aHZhShy9mRPf3EEYP8VC3,Lo02yB6aHZhShy9mRPf3EEYP8VC3,,,,,,,,,,,,,,,,,,,1962.0,,,5bbd045428989b00019107be,16:58:02,27/03/2024
html-keyboard-response,24,44466,0.0-11.0-0.0,133.5,"<div style=""display: flex; flex-direction: column; align-items: center; margin-top: -40px;""><img src=""images/demo_images/pattern_1.png"" style=""width: 234px; height: 230px; margin-top: -50px;""><div style=""display: flex; justify-content: space-between; margin-top: 33px;""><img src=""images/demo_images/choice_trial_2.png"" style=""width: 408px; height: 417px; margin-right: 200px;""><img src=""images/demo_images/choice_trial_1.png"" style=""width: 408px; height: 417px;""></div></div>",j,delaylearn,learning,trial,Lo02yB6aHZhShy9mRPf3EEYP8VC3,Lo02yB6aHZhShy9mRPf3EEYP8VC3,2.0,images/demo_images/choice_trial_2.png,images/demo_images/choice_trial_1.png,images/demo_images/pattern_1.png,j,j,3000.0,2.0,1.0,20.0,1.0,5.0,1.0,1.0,1.0,40.0,,,,,,5bbd045428989b00019107be,16:58:02,27/03/2024
html-keyboard-response,25,45469,0.0-11.0-1.0,,"<div style=""display: flex; flex-direction: column; align-items: center; margin-top: -40px;""><img src=""images/demo_images/pattern_1.png"" style=""width: 234px; height: 230px; margin-top: -50px;""><div style=""display: flex; justify-content: space-between; margin-top: 33px;""><img src=""images/demo_images/choice_trial_1.png"" style=""width: 408px; height: 417px; margin-left:608px;""></div></div>",,delaylearn,learning,display_response,Lo02yB6aHZhShy9mRPf3EEYP8VC3,Lo02yB6aHZhShy9mRPf3EEYP8VC3,,,,,,,,,,,,,,,,,chosen stimuli: images/demo_images/choice_trial_1.png,,,,,5bbd045428989b00019107be,16:58:02,27/03/2024
html-keyboard-response,26,48470,0.0-11.0-2.0,,,,delaylearn,learning,feedback_duration_window,Lo02yB6aHZhShy9mRPf3EEYP8VC3,Lo02yB6aHZhShy9mRPf3EEYP8VC3,,,,,,,,,,,,,,,,,,3000.0,,,,5bbd045428989b00019107be,16:58:02,27/03/2024
html-keyboard-response,27,49972,0.0-11.0-3.0,,<div style='margin:auto;width: auto; font-size: 150%'><span style='font-weight: bold; font-size: 100px; color: green;'>+10 points!</span><br><br></div>,,delaylearn,learning,feedback_image_window,Lo02yB6aHZhShy9mRPf3EEYP8VC3,Lo02yB6aHZhShy9mRPf3EEYP8VC3,,,,,,,,,,,,,,,,,,,,,,5bbd045428989b00019107be,16:58:02,27/03/2024
html-keyboard-response,28,52350,0.0-12.0,,"<div style=""font-size:100px;"">+</div>",,delaylearn,learning,ITI,Lo02yB6aHZhShy9mRPf3EEYP8VC3,Lo02yB6aHZhShy9mRPf3EEYP8VC3,,,,,,,,,,,,,,,,,,,2376.0,,,5bbd045428989b00019107be,16:58:02,27/03/2024
html-keyboard-response,29,54236,0.0-13.0-0.0,1882.1999999997206,"<div style=""display: flex; flex-direction: column; align-items: center; margin-top: -40px;""><img src=""images/demo_images/pattern_1.png"" style=""width: 234px; height: 230px; margin-top: -50px;""><div style=""display: flex; justify-content: space-between; margin-top: 33px;""><img src=""images/demo_images/choice_trial_1.png"" style=""width: 408px; height: 417px; margin-right: 200px;""><img src=""images/demo_images/choice_trial_2.png"" style=""width: 408px; height: 417px;""></div></div>",f,delaylearn,learning,trial,Lo02yB6aHZhShy9mRPf3EEYP8VC3,Lo02yB6aHZhShy9mRPf3EEYP8VC3,2.0,images/demo_images/choice_trial_1.png,images/demo_images/choice_trial_2.png,images/demo_images/pattern_1.png,f,f,3000.0,1.0,2.0,20.0,0.0,6.0,1.0,1.0,1.0,50.0,,,,,,5bbd045428989b00019107be,16:58:02,27/03/2024
html-keyboard-response,30,55238,0.0-13.0-1.0,,"<div style=""display: flex; flex-direction: column; align-items: center; margin-top: -40px;""><img src=""images/demo_images/pattern_1.png"" style=""width: 234px; height: 230px; margin-top: -50px;""><div style=""display: flex; justify-content: space-between; margin-top: 33px;""><img src=""images/demo_images/choice_trial_1.png"" style=""width: 408px; height: 417px; margin-right: 608px;""></div></div>",,delaylearn,learning,display_response,Lo02yB6aHZhShy9mRPf3EEYP8VC3,Lo02yB6aHZhShy9mRPf3EEYP8VC3,,,,,,,,,,,,,,,,,chosen stimuli: images/demo_images/choice_trial_1.png,,,,,5bbd045428989b00019107be,16:58:02,27/03/2024
html-keyboard-response,31,58240,0.0-13.0-2.0,,,,delaylearn,learning,feedback_duration_window,Lo02yB6aHZhShy9mRPf3EEYP8VC3,Lo02yB6aHZhShy9mRPf3EEYP8VC3,,,,,,,,,,,,,,,,,,3000.0,,,,5bbd045428989b00019107be,16:58:02,27/03/2024
html-keyboard-response,32,59742,0.0-13.0-3.0,,<div style='margin:auto;width: auto; font-size: 150%'><span style='font-weight: bold; font-size: 100px; color: green;'>+10 points!</span><br><br></div>,,delaylearn,learning,feedback_image_window,Lo02yB6aHZhShy9mRPf3EEYP8VC3,Lo02yB6aHZhShy9mRPf3EEYP8VC3,,,,,,,,,,,,,,,,,,,,,,5bbd045428989b00019107be,16:58:02,27/03/2024
html-keyboard-response,33,62104,0.0-14.0,,"<div style=""font-size:100px;"">+</div>",,delaylearn,learning,ITI,Lo02yB6aHZhShy9mRPf3EEYP8VC3,Lo02yB6aHZhShy9mRPf3EEYP8VC3,,,,,,,,,,,,,,,,,,,2361.0,,,5bbd045428989b00019107be,16:58:02,27/03/2024
html-keyboard-response,34,62686,0.0-15.0-0.0,578.0,"<div style=""display: flex; flex-direction: column; align-items: center; margin-top: -40px;""><img src=""images/demo_images/pattern_1.png"" style=""width: 234px; height: 230px; margin-top: -50px;""><div style=""display: flex; justify-content: space-between; margin-top: 33px;""><img src=""images/demo_images/choice_trial_2.png"" style=""width: 408px; height: 417px; margin-right: 200px;""><img src=""images/demo_images/choice_trial_1.png"" style=""width: 408px; height: 417px;""></div></div>",j,delaylearn,learning,trial,Lo02yB6aHZhShy9mRPf3EEYP8VC3,Lo02yB6aHZhShy9mRPf3EEYP8VC3,2.0,images/demo_images/choice_trial_2.png,images/demo_images/choice_trial_1.png,images/demo_images/pattern_1.png,j,j,3000.0,2.0,1.0,20.0,1.0,7.0,1.0,1.0,1.0,60.0,,,,,,5bbd045428989b00019107be,16:58:02,27/03/2024
html-keyboard-response,35,63688,0.0-15.0-1.0,,"<div style=""display: flex; flex-direction: column; align-items: center; margin-top: -40px;""><img src=""images/demo_images/pattern_1.png"" style=""width: 234px; height: 230px; margin-top: -50px;""><div style=""display: flex; justify-content: space-between; margin-top: 33px;""><img src=""images/demo_images/choice_trial_1.png"" style=""width: 408px; height: 417px; margin-left:608px;""></div></div>",,delaylearn,learning,display_response,Lo02yB6aHZhShy9mRPf3EEYP8VC3,Lo02yB6aHZhShy9mRPf3EEYP8VC3,,,,,,,,,,,,,,,,,chosen stimuli: images/demo_images/choice_trial_1.png,,,,,5bbd045428989b00019107be,16:58:02,27/03/2024
html-keyboard-response,36,66690,0.0-15.0-2.0,,,,delaylearn,learning,feedback_duration_window,Lo02yB6aHZhShy9mRPf3EEYP8VC3,Lo02yB6aHZhShy9mRPf3EEYP8VC3,,,,,,,,,,,,,,,,,,3000.0,,,,5bbd045428989b00019107be,16:58:02,27/03/2024
html-keyboard-response,37,68193,0.0-15.0-3.0,,<div style='margin:auto;width: auto; font-size: 150%'><span style='font-weight: bold; font-size: 100px; color: green;'>+10 points!</span><br><br></div>,,delaylearn,learning,feedback_image_window,Lo02yB6aHZhShy9mRPf3EEYP8VC3,Lo02yB6aHZhShy9mRPf3EEYP8VC3,,,,,,,,,,,,,,,,,,,,,,5bbd045428989b00019107be,16:58:02,27/03/2024
html-keyboard-response,38,70021,0.0-16.0,,"<div style=""font-size:100px;"">+</div>",,delaylearn,learning,ITI,Lo02yB6aHZhShy9mRPf3EEYP8VC3,Lo02yB6aHZhShy9mRPf3EEYP8VC3,,,,,,,,,,,,,,,,,,,1827.0,,,5bbd045428989b00019107be,16:58:02,27/03/2024
html-keyboard-response,39,70684,0.0-17.0-0.0,660.1000000000931,"<div style=""display: flex; flex-direction: column; align-items: center; margin-top: -40px;""><img src=""images/demo_images/pattern_1.png"" style=""width: 234px; height: 230px; margin-top: -50px;""><div style=""display: flex; justify-content: space-between; margin-top: 33px;""><img src=""images/demo_images/choice_trial_1.png"" style=""width: 408px; height: 417px; margin-right: 200px;""><img src=""images/demo_images/choice_trial_2.png"" style=""width: 408px; height: 417px;""></div></div>",f,delaylearn,learning,trial,Lo02yB6aHZhShy9mRPf3EEYP8VC3,Lo02yB6aHZhShy9mRPf3EEYP8VC3,2.0,images/demo_images/choice_trial_1.png,images/demo_images/choice_trial_2.png,images/demo_images/pattern_1.png,f,f,3000.0,1.0,2.0,20.0,0.0,8.0,1.0,1.0,1.0,70.0,,,,,,5bbd045428989b00019107be,16:58:02,27/03/2024
html-keyboard-response,40,71687,0.0-17.0-1.0,,"<div style=""display: flex; flex-direction: column; align-items: center; margin-top: -40px;""><img src=""images/demo_images/pattern_1.png"" style=""width: 234px; height: 230px; margin-top: -50px;""><div style=""display: flex; justify-content: space-between; margin-top: 33px;""><img src=""images/demo_images/choice_trial_1.png"" style=""width: 408px; height: 417px; margin-right: 608px;""></div></div>",,delaylearn,learning,display_response,Lo02yB6aHZhShy9mRPf3EEYP8VC3,Lo02yB6aHZhShy9mRPf3EEYP8VC3,,,,,,,,,,,,,,,,,chosen stimuli: images/demo_images/choice_trial_1.png,,,,,5bbd045428989b00019107be,16:58:02,27/03/2024
html-keyboard-response,41,74689,0.0-17.0-2.0,,,,delaylearn,learning,feedback_duration_window,Lo02yB6aHZhShy9mRPf3EEYP8VC3,Lo02yB6aHZhShy9mRPf3EEYP8VC3,,,,,,,,,,,,,,,,,,3000.0,,,,5bbd045428989b00019107be,16:58:02,27/03/2024
html-keyboard-response,42,76191,0.0-17.0-3.0,,<div style='margin:auto;width: auto; font-size: 150%'><span style='font-weight: bold; font-size: 100px; color: green;'>+10 points!</span><br><br></div>,,delaylearn,learning,feedback_image_window,Lo02yB6aHZhShy9mRPf3EEYP8VC3,Lo02yB6aHZhShy9mRPf3EEYP8VC3,,,,,,,,,,,,,,,,,,,,,,5bbd045428989b00019107be,16:58:02,27/03/2024
html-button-response,43,79680,0.0-18.0,3486.3000000002794,"
  <div style=""display: flex; align-items: center; justify-content: center; height: 80vh;"">
  <div>
          <img src=""images/inst_demo_finish.png"" style=""width: 80vw; height:auto;"">
          <br><br>
      </div>
      <br><br>
  </div>",0,,,,Lo02yB6aHZhShy9mRPf3EEYP8VC3,,,,,,,,,,,,,,,,,,,,,,,5bbd045428989b00019107be,16:58:02,27/03/2024
html-keyboard-response,44,84625,0.0-19.0,4943.9000000003725,"
  <div style=""display: flex; align-items: center; justify-content: center; height: 80vh;"">
  <div>
          <img src=""images/inst_6.png"" style=""width: 80vw; height:auto;"">
          <br><br>
      </div>
      <br><br>
  </div>",j,,,,Lo02yB6aHZhShy9mRPf3EEYP8VC3,,,,,,,,,,,,,,,,,,,,,,,5bbd045428989b00019107be,16:58:02,27/03/2024
html-keyboard-response,45,87627,0.0-20.0,,"<div style=""font-size:100px;"">+</div>",,delaylearn,learning,pre_fixation,Lo02yB6aHZhShy9mRPf3EEYP8VC3,,,,,,,,,,,,,,,,,,,,,,,5bbd045428989b00019107be,16:58:02,27/03/2024
html-keyboard-response,46,89816,0.0-21.0,,"<div style=""font-size:100px;"">+</div>",,delaylearn,learning,ITI,Lo02yB6aHZhShy9mRPf3EEYP8VC3,Lo02yB6aHZhShy9mRPf3EEYP8VC3,,,,,,,,,,,,,,,,,,,2187.0,,,5bbd045428989b00019107be,16:58:02,27/03/2024
html-keyboard-response,47,91612,0.0-22.0-0.0,1792.2999999998137,"<div style=""display: flex; flex-direction: column; align-items: center; margin-top: -40px;""><img src=""images/pattern_3.png"" style=""width: 234px; height: 230px; margin-top: -50px;""><div style=""display: flex; justify-content: space-between; margin-top: 33px;""><img src=""images/choice_trial_12.png"" style=""width: 408px; height: 417px; margin-right: 200px;""><img src=""images/choice_trial_14.png"" style=""width: 408px; height: 417px;""></div></div>",j,delaylearn,learning,trial,Lo02yB6aHZhShy9mRPf3EEYP8VC3,Lo02yB6aHZhShy9mRPf3EEYP8VC3,2.0,images/choice_trial_12.png,images/choice_trial_14.png,images/pattern_3.png,f,f,7000.0,12.0,14.0,2.0,0.0,9.0,0.0,0.0,14.0,70.0,,,,,,5bbd045428989b00019107be,16:58:02,27/03/2024
html-keyboard-response,48,92614,0.0-22.0-1.0,,"<div style=""display: flex; flex-direction: column; align-items: center; margin-top: -40px;""><img src=""images/pattern_3.png"" style=""width: 234px; height: 230px; margin-top: -50px;""><div style=""display: flex; justify-content: space-between; margin-top: 33px;""><img src=""images/choice_trial_14.png"" style=""width: 408px; height: 417px; margin-left:608px;""></div></div>",,delaylearn,learning,display_response,Lo02yB6aHZhShy9mRPf3EEYP8VC3,Lo02yB6aHZhShy9mRPf3EEYP8VC3,,,,,,,,,,,,,,,,,chosen stimuli: images/choice_trial_14.png,,,,,5bbd045428989b00019107be,16:58:02,27/03/2024
html-keyboard-response,49,99615,0.0-22.0-2.0,,,,delaylearn,learning,feedback_duration_window,Lo02yB6aHZhShy9mRPf3EEYP8VC3,Lo02yB6aHZhShy9mRPf3EEYP8VC3,,,,,,,,,,,,,,,,,,7000.0,,,,5bbd045428989b00019107be,16:58:02,27/03/2024
html-keyboard-response,50,101118,0.0-22.0-3.0,,<div style='margin:auto;width: auto; font-size: 150%'><span style='font-weight: bold; font-size: 100px; color: red;'>0 points!</span><br><br></div>,,delaylearn,learning,feedback_image_window,Lo02yB6aHZhShy9mRPf3EEYP8VC3,Lo02yB6aHZhShy9mRPf3EEYP8VC3,,,,,,,,,,,,,,,,,,,,,,5bbd045428989b00019107be,16:58:02,27/03/2024
html-keyboard-response,51,103392,0.0-23.0,,"<div style=""font-size:100px;"">+</div>",,delaylearn,learning,ITI,Lo02yB6aHZhShy9mRPf3EEYP8VC3,Lo02yB6aHZhShy9mRPf3EEYP8VC3,,,,,,,,,,,,,,,,,,,2273.0,,,5bbd045428989b00019107be,16:58:02,27/03/2024
html-keyboard-response,52,104791,0.0-24.0-0.0,1396.2999999998137,"<div style=""display: flex; flex-direction: column; align-items: center; margin-top: -40px;""><img src=""images/pattern_7.png"" style=""width: 234px; height: 230px; margin-top: -50px;""><div style=""display: flex; justify-content: space-between; margin-top: 33px;""><img src=""images/choice_trial_15.png"" style=""width: 408px; height: 417px; margin-right: 200px;""><img src=""images/choice_trial_8.png"" style=""width: 408px; height: 417px;""></div></div>",f,delaylearn,learning,trial,Lo02yB6aHZhShy9mRPf3EEYP8VC3,Lo02yB6aHZhShy9mRPf3EEYP8VC3,2.0,images/choice_trial_15.png,images/choice_trial_8.png,images/pattern_7.png,j,j,750.0,15.0,8.0,6.0,1.0,10.0,0.0,0.0,15.0,70.0,,,,,,5bbd045428989b00019107be,16:58:02,27/03/2024
html-keyboard-response,53,105794,0.0-24.0-1.0,,"<div style=""display: flex; flex-direction: column; align-items: center; margin-top: -40px;""><img src=""images/pattern_7.png"" style=""width: 234px; height: 230px; margin-top: -50px;""><div style=""display: flex; justify-content: space-between; margin-top: 33px;""><img src=""images/choice_trial_15.png"" style=""width: 408px; height: 417px; margin-right: 608px;""></div></div>",,delaylearn,learning,display_response,Lo02yB6aHZhShy9mRPf3EEYP8VC3,Lo02yB6aHZhShy9mRPf3EEYP8VC3,,,,,,,,,,,,,,,,,chosen stimuli: images/choice_trial_15.png,,,,,5bbd045428989b00019107be,16:58:02,27/03/2024
html-keyboard-response,54,106546,0.0-24.0-2.0,,,,delaylearn,learning,feedback_duration_window,Lo02yB6aHZhShy9mRPf3EEYP8VC3,Lo02yB6aHZhShy9mRPf3EEYP8VC3,,,,,,,,,,,,,,,,,,750.0,,,,5bbd045428989b00019107be,16:58:02,27/03/2024
html-keyboard-response,55,108047,0.0-24.0-3.0,,<div style='margin:auto;width: auto; font-size: 150%'><span style='font-weight: bold; font-size: 100px; color: red;'>0 points!</span><br><br></div>,,delaylearn,learning,feedback_image_window,Lo02yB6aHZhShy9mRPf3EEYP8VC3,Lo02yB6aHZhShy9mRPf3EEYP8VC3,,,,,,,,,,,,,,,,,,,,,,5bbd045428989b00019107be,16:58:02,27/03/2024
html-keyboard-response,56,110521,0.0-25.0,,"<div style=""font-size:100px;"">+</div>",,delaylearn,learning,ITI,Lo02yB6aHZhShy9mRPf3EEYP8VC3,Lo02yB6aHZhShy9mRPf3EEYP8VC3,,,,,,,,,,,,,,,,,,,2472.0,,,5bbd045428989b00019107be,16:58:02,27/03/2024
html-keyboard-response,57,111913,0.0-26.0-0.0,1388.6999999997206,"<div style=""display: flex; flex-direction: column; align-items: center; margin-top: -40px;""><img src=""images/pattern_4.png"" style=""width: 234px; height: 230px; margin-top: -50px;""><div style=""display: flex; justify-content: space-between; margin-top: 33px;""><img src=""images/choice_trial_4.png"" style=""width: 408px; height: 417px; margin-right: 200px;""><img src=""images/choice_trial_16.png"" style=""width: 408px; height: 417px;""></div></div>",j,delaylearn,learning,trial,Lo02yB6aHZhShy9mRPf3EEYP8VC3,Lo02yB6aHZhShy9mRPf3EEYP8VC3,2.0,images/choice_trial_4.png,images/choice_trial_16.png,images/pattern_4.png,f,f,7000.0,4.0,16.0,3.0,0.0,11.0,0.0,0.0,16.0,70.0,,,,,,5bbd045428989b00019107be,16:58:02,27/03/2024
html-keyboard-response,58,112915,0.0-26.0-1.0,,"<div style=""display: flex; flex-direction: column; align-items: center; margin-top: -40px;""><img src=""images/pattern_4.png"" style=""width: 234px; height: 230px; margin-top: -50px;""><div style=""display: flex; justify-content: space-between; margin-top: 33px;""><img src=""images/choice_trial_16.png"" style=""width: 408px; height: 417px; margin-left:608px;""></div></div>",,delaylearn,learning,display_response,Lo02yB6aHZhShy9mRPf3EEYP8VC3,Lo02yB6aHZhShy9mRPf3EEYP8VC3,,,,,,,,,,,,,,,,,chosen stimuli: images/choice_trial_16.png,,,,,5bbd045428989b00019107be,16:58:02,27/03/2024
html-keyboard-response,59,119916,0.0-26.0-2.0,,,,delaylearn,learning,feedback_duration_window,Lo02yB6aHZhShy9mRPf3EEYP8VC3,Lo02yB6aHZhShy9mRPf3EEYP8VC3,,,,,,,,,,,,,,,,,,7000.0,,,,5bbd045428989b00019107be,16:58:02,27/03/2024
html-keyboard-response,60,121418,0.0-26.0-3.0,,<div style='margin:auto;width: auto; font-size: 150%'><span style='font-weight: bold; font-size: 100px; color: red;'>0 points!</span><br><br></div>,,delaylearn,learning,feedback_image_window,Lo02yB6aHZhShy9mRPf3EEYP8VC3,Lo02yB6aHZhShy9mRPf3EEYP8VC3,,,,,,,,,,,,,,,,,,,,,,5bbd045428989b00019107be,16:58:02,27/03/2024
html-keyboard-response,61,123184,0.0-27.0,,"<div style=""font-size:100px;"">+</div>",,delaylearn,learning,ITI,Lo02yB6aHZhShy9mRPf3EEYP8VC3,Lo02yB6aHZhShy9mRPf3EEYP8VC3,,,,,,,,,,,,,,,,,,,1764.0,,,5bbd045428989b00019107be,16:58:02,27/03/2024
html-keyboard-response,62,124213,0.0-28.0-0.0,1025.0,"<div style=""display: flex; flex-direction: column; align-items: center; margin-top: -40px;""><img src=""images/pattern_5.png"" style=""width: 234px; height: 230px; margin-top: -50px;""><div style=""display: flex; justify-content: space-between; margin-top: 33px;""><img src=""images/choice_trial_9.png"" style=""width: 408px; height: 417px; margin-right: 200px;""><img src=""images/choice_trial_2.png"" style=""width: 408px; height: 417px;""></div></div>",f,delaylearn,learning,trial,Lo02yB6aHZhShy9mRPf3EEYP8VC3,Lo02yB6aHZhShy9mRPf3EEYP8VC3,2.0,images/choice_trial_9.png,images/choice_trial_2.png,images/pattern_5.png,j,j,750.0,9.0,2.0,4.0,1.0,12.0,0.0,0.0,9.0,70.0,,,,,,5bbd045428989b00019107be,16:58:02,27/03/2024
html-keyboard-response,63,125215,0.0-28.0-1.0,,"<div style=""display: flex; flex-direction: column; align-items: center; margin-top: -40px;""><img src=""images/pattern_5.png"" style=""width: 234px; height: 230px; margin-top: -50px;""><div style=""display: flex; justify-content: space-between; margin-top: 33px;""><img src=""images/choice_trial_9.png"" style=""width: 408px; height: 417px; margin-right: 608px;""></div></div>",,delaylearn,learning,display_response,Lo02yB6aHZhShy9mRPf3EEYP8VC3,Lo02yB6aHZhShy9mRPf3EEYP8VC3,,,,,,,,,,,,,,,,,chosen stimuli: images/choice_trial_9.png,,,,,5bbd045428989b00019107be,16:58:02,27/03/2024
html-keyboard-response,64,125967,0.0-28.0-2.0,,,,delaylearn,learning,feedback_duration_window,Lo02yB6aHZhShy9mRPf3EEYP8VC3,Lo02yB6aHZhShy9mRPf3EEYP8VC3,,,,,,,,,,,,,,,,,,750.0,,,,5bbd045428989b00019107be,16:58:02,27/03/2024
html-keyboard-response,65,127469,0.0-28.0-3.0,,<div style='margin:auto;width: auto; font-size: 150%'><span style='font-weight: bold; font-size: 100px; color: red;'>0 points!</span><br><br></div>,,delaylearn,learning,feedback_image_window,Lo02yB6aHZhShy9mRPf3EEYP8VC3,Lo02yB6aHZhShy9mRPf3EEYP8VC3,,,,,,,,,,,,,,,,,,,,,,5bbd045428989b00019107be,16:58:02,27/03/2024
html-keyboard-response,66,129389,0.0-29.0,,"<div style=""font-size:100px;"">+</div>",,delaylearn,learning,ITI,Lo02yB6aHZhShy9mRPf3EEYP8VC3,Lo02yB6aHZhShy9mRPf3EEYP8VC3,,,,,,,,,,,,,,,,,,,1919.0,,,5bbd045428989b00019107be,16:58:02,27/03/2024
html-keyboard-response,67,130613,0.0-30.0-0.0,1220.8999999999069,"<div style=""display: flex; flex-direction: column; align-items: center; margin-top: -40px;""><img src=""images/pattern_6.png"" style=""width: 234px; height: 230px; margin-top: -50px;""><div style=""display: flex; justify-content: space-between; margin-top: 33px;""><img src=""images/choice_trial_11.png"" style=""width: 408px; height: 417px; margin-right: 200px;""><img src=""images/choice_trial_5.png"" style=""width: 408px; height: 417px;""></div></div>",f,delaylearn,learning,trial,Lo02yB6aHZhShy9mRPf3EEYP8VC3,Lo02yB6aHZhShy9mRPf3EEYP8VC3,2.0,images/choice_trial_11.png,images/choice_trial_5.png,images/pattern_6.png,j,f,750.0,11.0,5.0,5.0,0.0,13.0,1.0,0.0,11.0,70.0,,,,,,5bbd045428989b00019107be,16:58:02,27/03/2024
html-keyboard-response,68,131615,0.0-30.0-1.0,,"<div style=""display: flex; flex-direction: column; align-items: center; margin-top: -40px;""><img src=""images/pattern_6.png"" style=""width: 234px; height: 230px; margin-top: -50px;""><div style=""display: flex; justify-content: space-between; margin-top: 33px;""><img src=""images/choice_trial_11.png"" style=""width: 408px; height: 417px; margin-right: 608px;""></div></div>",,delaylearn,learning,display_response,Lo02yB6aHZhShy9mRPf3EEYP8VC3,Lo02yB6aHZhShy9mRPf3EEYP8VC3,,,,,,,,,,,,,,,,,chosen stimuli: images/choice_trial_11.png,,,,,5bbd045428989b00019107be,16:58:02,27/03/2024
html-keyboard-response,69,132367,0.0-30.0-2.0,,,,delaylearn,learning,feedback_duration_window,Lo02yB6aHZhShy9mRPf3EEYP8VC3,Lo02yB6aHZhShy9mRPf3EEYP8VC3,,,,,,,,,,,,,,,,,,750.0,,,,5bbd045428989b00019107be,16:58:02,27/03/2024
html-keyboard-response,70,133869,0.0-30.0-3.0,,<div style='margin:auto;width: auto; font-size: 150%'><span style='font-weight: bold; font-size: 100px; color: red;'>0 points!</span><br><br></div>,,delaylearn,learning,feedback_image_window,Lo02yB6aHZhShy9mRPf3EEYP8VC3,Lo02yB6aHZhShy9mRPf3EEYP8VC3,,,,,,,,,,,,,,,,,,,,,,5bbd045428989b00019107be,16:58:02,27/03/2024
html-keyboard-response,71,134370,0.0-31.0-0.0,,,,,,mood_trial_fixation,Lo02yB6aHZhShy9mRPf3EEYP8VC3,,,,,,,,,,,,,,,,,,,,,,,5bbd045428989b00019107be,16:58:02,27/03/2024
lmdlab-html-vas-response,72,139527,0.0-31.0-1.0,4151.0,How happy are you right now?,0.10650557734616234,delaylearn,learning,mood_trial,Lo02yB6aHZhShy9mRPf3EEYP8VC3,Lo02yB6aHZhShy9mRPf3EEYP8VC3,,,,,,,,,,,,,,,,,,,,"['Very unhappy', 'Very happy']",,5bbd045428989b00019107be,16:58:02,27/03/2024
html-keyboard-response,73,141049,0.0-32.0,,"<div style=""font-size:100px;"">+</div>",,delaylearn,learning,ITI,Lo02yB6aHZhShy9mRPf3EEYP8VC3,Lo02yB6aHZhShy9mRPf3EEYP8VC3,,,,,,,,,,,,,,,,,,,1520.0,,,5bbd045428989b00019107be,16:58:02,27/03/2024
html-keyboard-response,74,142570,0.0-33.0-0.0,1517.3999999999069,"<div style=""display: flex; flex-direction: column; align-items: center; margin-top: -40px;""><img src=""images/pattern_1.png"" style=""width: 234px; height: 230px; margin-top: -50px;""><div style=""display: flex; justify-content: space-between; margin-top: 33px;""><img src=""images/choice_trial_10.png"" style=""width: 408px; height: 417px; margin-right: 200px;""><img src=""images/choice_trial_3.png"" style=""width: 408px; height: 417px;""></div></div>",j,delaylearn,learning,trial,Lo02yB6aHZhShy9mRPf3EEYP8VC3,Lo02yB6aHZhShy9mRPf3EEYP8VC3,2.0,images/choice_trial_10.png,images/choice_trial_3.png,images/pattern_1.png,j,j,7000.0,10.0,3.0,1.0,1.0,14.0,1.0,1.0,3.0,80.0,,,,,,5bbd045428989b00019107be,16:58:02,27/03/2024
html-keyboard-response,75,143572,0.0-33.0-1.0,,"<div style=""display: flex; flex-direction: column; align-items: center; margin-top: -40px;""><img src=""images/pattern_1.png"" style=""width: 234px; height: 230px; margin-top: -50px;""><div style=""display: flex; justify-content: space-between; margin-top: 33px;""><img src=""images/choice_trial_3.png"" style=""width: 408px; height: 417px; margin-left:608px;""></div></div>",,delaylearn,learning,display_response,Lo02yB6aHZhShy9mRPf3EEYP8VC3,Lo02yB6aHZhShy9mRPf3EEYP8VC3,,,,,,,,,,,,,,,,,chosen stimuli: images/choice_trial_3.png,,,,,5bbd045428989b00019107be,16:58:02,27/03/2024
html-keyboard-response,76,150574,0.0-33.0-2.0,,,,delaylearn,learning,feedback_duration_window,Lo02yB6aHZhShy9mRPf3EEYP8VC3,Lo02yB6aHZhShy9mRPf3EEYP8VC3,,,,,,,,,,,,,,,,,,7000.0,,,,5bbd045428989b00019107be,16:58:02,27/03/2024
html-keyboard-response,77,152076,0.0-33.0-3.0,,<div style='margin:auto;width: auto; font-size: 150%'><span style='font-weight: bold; font-size: 100px; color: green;'>+10 points!</span><br><br></div>,,delaylearn,learning,feedback_image_window,Lo02yB6aHZhShy9mRPf3EEYP8VC3,Lo02yB6aHZhShy9mRPf3EEYP8VC3,,,,,,,,,,,,,,,,,,,,,,5bbd045428989b00019107be,16:58:02,27/03/2024
html-keyboard-response,78,153967,0.0-34.0,,"<div style=""font-size:100px;"">+</div>",,delaylearn,learning,ITI,Lo02yB6aHZhShy9mRPf3EEYP8VC3,Lo02yB6aHZhShy9mRPf3EEYP8VC3,,,,,,,,,,,,,,,,,,,1890.0,,,5bbd045428989b00019107be,16:58:02,27/03/2024
html-keyboard-response,79,155419,0.0-35.0-0.0,1448.5999999996275,"<div style=""display: flex; flex-direction: column; align-items: center; margin-top: -40px;""><img src=""images/pattern_3.png"" style=""width: 234px; height: 230px; margin-top: -50px;""><div style=""display: flex; justify-content: space-between; margin-top: 33px;""><img src=""images/choice_trial_14.png"" style=""width: 408px; height: 417px; margin-right: 200px;""><img src=""images/choice_trial_12.png"" style=""width: 408px; height: 417px;""></div></div>",j,delaylearn,learning,trial,Lo02yB6aHZhShy9mRPf3EEYP8VC3,Lo02yB6aHZhShy9mRPf3EEYP8VC3,2.0,images/choice_trial_14.png,images/choice_trial_12.png,images/pattern_3.png,f,j,7000.0,14.0,12.0,2.0,1.0,15.0,1.0,0.0,12.0,80.0,,,,,,5bbd045428989b00019107be,16:58:02,27/03/2024
html-keyboard-response,80,156422,0.0-35.0-1.0,,"<div style=""display: flex; flex-direction: column; align-items: center; margin-top: -40px;""><img src=""images/pattern_3.png"" style=""width: 234px; height: 230px; margin-top: -50px;""><div style=""display: flex; justify-content: space-between; margin-top: 33px;""><img src=""images/choice_trial_12.png"" style=""width: 408px; height: 417px; margin-left:608px;""></div></div>",,delaylearn,learning,display_response,Lo02yB6aHZhShy9mRPf3EEYP8VC3,Lo02yB6aHZhShy9mRPf3EEYP8VC3,,,,,,,,,,,,,,,,,chosen stimuli: images/choice_trial_12.png,,,,,5bbd045428989b00019107be,16:58:02,27/03/2024
html-keyboard-response,81,163423,0.0-35.0-2.0,,,,delaylearn,learning,feedback_duration_window,Lo02yB6aHZhShy9mRPf3EEYP8VC3,Lo02yB6aHZhShy9mRPf3EEYP8VC3,,,,,,,,,,,,,,,,,,7000.0,,,,5bbd045428989b00019107be,16:58:02,27/03/2024
html-keyboard-response,82,164925,0.0-35.0-3.0,,<div style='margin:auto;width: auto; font-size: 150%'><span style='font-weight: bold; font-size: 100px; color: red;'>0 points!</span><br><br></div>,,delaylearn,learning,feedback_image_window,Lo02yB6aHZhShy9mRPf3EEYP8VC3,Lo02yB6aHZhShy9mRPf3EEYP8VC3,,,,,,,,,,,,,,,,,,,,,,5bbd045428989b00019107be,16:58:02,27/03/2024
html-keyboard-response,83,166652,0.0-36.0,,"<div style=""font-size:100px;"">+</div>",,delaylearn,learning,ITI,Lo02yB6aHZhShy9mRPf3EEYP8VC3,Lo02yB6aHZhShy9mRPf3EEYP8VC3,,,,,,,,,,,,,,,,,,,1725.0,,,5bbd045428989b00019107be,16:58:02,27/03/2024
html-keyboard-response,84,167827,0.0-37.0-0.0,1172.2999999998137,"<div style=""display: flex; flex-direction: column; align-items: center; margin-top: -40px;""><img src=""images/pattern_5.png"" style=""width: 234px; height: 230px; margin-top: -50px;""><div style=""display: flex; justify-content: space-between; margin-top: 33px;""><img src=""images/choice_trial_2.png"" style=""width: 408px; height: 417px; margin-right: 200px;""><img src=""images/choice_trial_9.png"" style=""width: 408px; height: 417px;""></div></div>",j,delaylearn,learning,trial,Lo02yB6aHZhShy9mRPf3EEYP8VC3,Lo02yB6aHZhShy9mRPf3EEYP8VC3,2.0,images/choice_trial_2.png,images/choice_trial_9.png,images/pattern_5.png,f,f,750.0,2.0,9.0,4.0,0.0,16.0,0.0,0.0,9.0,80.0,,,,,,5bbd045428989b00019107be,16:58:02,27/03/2024
html-keyboard-response,85,168829,0.0-37.0-1.0,,"<div style=""display: flex; flex-direction: column; align-items: center; margin-top: -40px;""><img src=""images/pattern_5.png"" style=""width: 234px; height: 230px; margin-top: -50px;""><div style=""display: flex; justify-content: space-between; margin-top: 33px;""><img src=""images/choice_trial_9.png"" style=""width: 408px; height: 417px; margin-left:608px;""></div></div>",,delaylearn,learning,display_response,Lo02yB6aHZhShy9mRPf3EEYP8VC3,Lo02yB6aHZhShy9mRPf3EEYP8VC3,,,,,,,,,,,,,,,,,chosen stimuli: images/choice_trial_9.png,,,,,5bbd045428989b00019107be,16:58:02,27/03/2024
html-keyboard-response,86,169580,0.0-37.0-2.0,,,,delaylearn,learning,feedback_duration_window,Lo02yB6aHZhShy9mRPf3EEYP8VC3,Lo02yB6aHZhShy9mRPf3EEYP8VC3,,,,,,,,,,,,,,,,,,750.0,,,,5bbd045428989b00019107be,16:58:02,27/03/2024
html-keyboard-response,87,171082,0.0-37.0-3.0,,<div style='margin:auto;width: auto; font-size: 150%'><span style='font-weight: bold; font-size: 100px; color: red;'>0 points!</span><br><br></div>,,delaylearn,learning,feedback_image_window,Lo02yB6aHZhShy9mRPf3EEYP8VC3,Lo02yB6aHZhShy9mRPf3EEYP8VC3,,,,,,,,,,,,,,,,,,,,,,5bbd045428989b00019107be,16:58:02,27/03/2024
html-keyboard-response,88,171584,0.0-38.0-0.0,,,,,,mood_trial_fixation,Lo02yB6aHZhShy9mRPf3EEYP8VC3,,,,,,,,,,,,,,,,,,,,,,,5bbd045428989b00019107be,16:58:02,27/03/2024
lmdlab-html-vas-response,89,176590,0.0-38.0-1.0,4001.0,How happy are you right now?,0.08528644254300895,delaylearn,learning,mood_trial,Lo02yB6aHZhShy9mRPf3EEYP8VC3,Lo02yB6aHZhShy9mRPf3EEYP8VC3,,,,,,,,,,,,,,,,,,,,"['Very unhappy', 'Very happy']",,5bbd045428989b00019107be,16:58:02,27/03/2024
html-keyboard-response,90,178180,0.0-39.0,,"<div style=""font-size:100px;"">+</div>",,delaylearn,learning,ITI,Lo02yB6aHZhShy9mRPf3EEYP8VC3,Lo02yB6aHZhShy9mRPf3EEYP8VC3,,,,,,,,,,,,,,,,,,,1588.0,,,5bbd045428989b00019107be,16:58:02,27/03/2024
html-keyboard-response,91,179798,0.0-40.0-0.0,1614.1000000000931,"<div style=""display: flex; flex-direction: column; align-items: center; margin-top: -40px;""><img src=""images/pattern_6.png"" style=""width: 234px; height: 230px; margin-top: -50px;""><div style=""display: flex; justify-content: space-between; margin-top: 33px;""><img src=""images/choice_trial_11.png"" style=""width: 408px; height: 417px; margin-right: 200px;""><img src=""images/choice_trial_5.png"" style=""width: 408px; height: 417px;""></div></div>",f,delaylearn,learning,trial,Lo02yB6aHZhShy9mRPf3EEYP8VC3,Lo02yB6aHZhShy9mRPf3EEYP8VC3,2.0,images/choice_trial_11.png,images/choice_trial_5.png,images/pattern_6.png,f,f,750.0,11.0,5.0,5.0,0.0,17.0,1.0,1.0,11.0,90.0,,,,,,5bbd045428989b00019107be,16:58:02,27/03/2024
html-keyboard-response,92,180800,0.0-40.0-1.0,,"<div style=""display: flex; flex-direction: column; align-items: center; margin-top: -40px;""><img src=""images/pattern_6.png"" style=""width: 234px; height: 230px; margin-top: -50px;""><div style=""display: flex; justify-content: space-between; margin-top: 33px;""><img src=""images/choice_trial_11.png"" style=""width: 408px; height: 417px; margin-right: 608px;""></div></div>",,delaylearn,learning,display_response,Lo02yB6aHZhShy9mRPf3EEYP8VC3,Lo02yB6aHZhShy9mRPf3EEYP8VC3,,,,,,,,,,,,,,,,,chosen stimuli: images/choice_trial_11.png,,,,,5bbd045428989b00019107be,16:58:02,27/03/2024
html-keyboard-response,93,181552,0.0-40.0-2.0,,,,delaylearn,learning,feedback_duration_window,Lo02yB6aHZhShy9mRPf3EEYP8VC3,Lo02yB6aHZhShy9mRPf3EEYP8VC3,,,,,,,,,,,,,,,,,,750.0,,,,5bbd045428989b00019107be,16:58:02,27/03/2024
html-keyboard-response,94,183054,0.0-40.0-3.0,,<div style='margin:auto;width: auto; font-size: 150%'><span style='font-weight: bold; font-size: 100px; color: green;'>+10 points!</span><br><br></div>,,delaylearn,learning,feedback_image_window,Lo02yB6aHZhShy9mRPf3EEYP8VC3,Lo02yB6aHZhShy9mRPf3EEYP8VC3,,,,,,,,,,,,,,,,,,,,,,5bbd045428989b00019107be,16:58:02,27/03/2024
html-keyboard-response,95,184815,0.0-41.0,,"<div style=""font-size:100px;"">+</div>",,delaylearn,learning,ITI,Lo02yB6aHZhShy9mRPf3EEYP8VC3,Lo02yB6aHZhShy9mRPf3EEYP8VC3,,,,,,,,,,,,,,,,,,,1760.0,,,5bbd045428989b00019107be,16:58:02,27/03/2024
html-keyboard-response,96,186045,0.0-42.0-0.0,1227.2000000001863,"<div style=""display: flex; flex-direction: column; align-items: center; margin-top: -40px;""><img src=""images/pattern_4.png"" style=""width: 234px; height: 230px; margin-top: -50px;""><div style=""display: flex; justify-content: space-between; margin-top: 33px;""><img src=""images/choice_trial_16.png"" style=""width: 408px; height: 417px; margin-right: 200px;""><img src=""images/choice_trial_4.png"" style=""width: 408px; height: 417px;""></div></div>",j,delaylearn,learning,trial,Lo02yB6aHZhShy9mRPf3EEYP8VC3,Lo02yB6aHZhShy9mRPf3EEYP8VC3,2.0,images/choice_trial_16.png,images/choice_trial_4.png,images/pattern_4.png,j,j,7000.0,16.0,4.0,3.0,1.0,18.0,1.0,1.0,4.0,100.0,,,,,,5bbd045428989b00019107be,16:58:02,27/03/2024
html-keyboard-response,97,187048,0.0-42.0-1.0,,"<div style=""display: flex; flex-direction: column; align-items: center; margin-top: -40px;""><img src=""images/pattern_4.png"" style=""width: 234px; height: 230px; margin-top: -50px;""><div style=""display: flex; justify-content: space-between; margin-top: 33px;""><img src=""images/choice_trial_4.png"" style=""width: 408px; height: 417px; margin-left:608px;""></div></div>",,delaylearn,learning,display_response,Lo02yB6aHZhShy9mRPf3EEYP8VC3,Lo02yB6aHZhShy9mRPf3EEYP8VC3,,,,,,,,,,,,,,,,,chosen stimuli: images/choice_trial_4.png,,,,,5bbd045428989b00019107be,16:58:02,27/03/2024
html-keyboard-response,98,194049,0.0-42.0-2.0,,,,delaylearn,learning,feedback_duration_window,Lo02yB6aHZhShy9mRPf3EEYP8VC3,Lo02yB6aHZhShy9mRPf3EEYP8VC3,,,,,,,,,,,,,,,,,,7000.0,,,,5bbd045428989b00019107be,16:58:02,27/03/2024
html-keyboard-response,99,195552,0.0-42.0-3.0,,<div style='margin:auto;width: auto; font-size: 150%'><span style='font-weight: bold; font-size: 100px; color: green;'>+10 points!</span><br><br></div>,,delaylearn,learning,feedback_image_window,Lo02yB6aHZhShy9mRPf3EEYP8VC3,Lo02yB6aHZhShy9mRPf3EEYP8VC3,,,,,,,,,,,,,,,,,,,,,,5bbd045428989b00019107be,16:58:02,27/03/2024
html-keyboard-response,100,197530,0.0-43.0,,"<div style=""font-size:100px;"">+</div>",,delaylearn,learning,ITI,Lo02yB6aHZhShy9mRPf3EEYP8VC3,Lo02yB6aHZhShy9mRPf3EEYP8VC3,,,,,,,,,,,,,,,,,,,1977.0,,,5bbd045428989b00019107be,16:58:02,27/03/2024
html-keyboard-response,101,199043,0.0-44.0-0.0,1509.7999999998137,"<div style=""display: flex; flex-direction: column; align-items: center; margin-top: -40px;""><img src=""images/pattern_7.png"" style=""width: 234px; height: 230px; margin-top: -50px;""><div style=""display: flex; justify-content: space-between; margin-top: 33px;""><img src=""images/choice_trial_8.png"" style=""width: 408px; height: 417px; margin-right: 200px;""><img src=""images/choice_trial_15.png"" style=""width: 408px; height: 417px;""></div></div>",f,delaylearn,learning,trial,Lo02yB6aHZhShy9mRPf3EEYP8VC3,Lo02yB6aHZhShy9mRPf3EEYP8VC3,2.0,images/choice_trial_8.png,images/choice_trial_15.png,images/pattern_7.png,j,f,750.0,8.0,15.0,6.0,0.0,19.0,1.0,0.0,8.0,100.0,,,,,,5bbd045428989b00019107be,16:58:02,27/03/2024
html-keyboard-response,102,200046,0.0-44.0-1.0,,"<div style=""display: flex; flex-direction: column; align-items: center; margin-top: -40px;""><img src=""images/pattern_7.png"" style=""width: 234px; height: 230px; margin-top: -50px;""><div style=""display: flex; justify-content: space-between; margin-top: 33px;""><img src=""images/choice_trial_8.png"" style=""width: 408px; height: 417px; margin-right: 608px;""></div></div>",,delaylearn,learning,display_response,Lo02yB6aHZhShy9mRPf3EEYP8VC3,Lo02yB6aHZhShy9mRPf3EEYP8VC3,,,,,,,,,,,,,,,,,chosen stimuli: images/choice_trial_8.png,,,,,5bbd045428989b00019107be,16:58:02,27/03/2024
html-keyboard-response,103,200797,0.0-44.0-2.0,,,,delaylearn,learning,feedback_duration_window,Lo02yB6aHZhShy9mRPf3EEYP8VC3,Lo02yB6aHZhShy9mRPf3EEYP8VC3,,,,,,,,,,,,,,,,,,750.0,,,,5bbd045428989b00019107be,16:58:02,27/03/2024
html-keyboard-response,104,202300,0.0-44.0-3.0,,<div style='margin:auto;width: auto; font-size: 150%'><span style='font-weight: bold; font-size: 100px; color: red;'>0 points!</span><br><br></div>,,delaylearn,learning,feedback_image_window,Lo02yB6aHZhShy9mRPf3EEYP8VC3,Lo02yB6aHZhShy9mRPf3EEYP8VC3,,,,,,,,,,,,,,,,,,,,,,5bbd045428989b00019107be,16:58:02,27/03/2024
html-keyboard-response,105,204411,0.0-45.0,,"<div style=""font-size:100px;"">+</div>",,delaylearn,learning,ITI,Lo02yB6aHZhShy9mRPf3EEYP8VC3,Lo02yB6aHZhShy9mRPf3EEYP8VC3,,,,,,,,,,,,,,,,,,,2110.0,,,5bbd045428989b00019107be,16:58:02,27/03/2024
html-keyboard-response,106,205668,0.0-46.0-0.0,1253.7999999998137,"<div style=""display: flex; flex-direction: column; align-items: center; margin-top: -40px;""><img src=""images/pattern_1.png"" style=""width: 234px; height: 230px; margin-top: -50px;""><div style=""display: flex; justify-content: space-between; margin-top: 33px;""><img src=""images/choice_trial_3.png"" style=""width: 408px; height: 417px; margin-right: 200px;""><img src=""images/choice_trial_10.png"" style=""width: 408px; height: 417px;""></div></div>",j,delaylearn,learning,trial,Lo02yB6aHZhShy9mRPf3EEYP8VC3,Lo02yB6aHZhShy9mRPf3EEYP8VC3,2.0,images/choice_trial_3.png,images/choice_trial_10.png,images/pattern_1.png,f,f,7000.0,3.0,10.0,1.0,0.0,20.0,0.0,0.0,10.0,100.0,,,,,,5bbd045428989b00019107be,16:58:02,27/03/2024
html-keyboard-response,107,206671,0.0-46.0-1.0,,"<div style=""display: flex; flex-direction: column; align-items: center; margin-top: -40px;""><img src=""images/pattern_1.png"" style=""width: 234px; height: 230px; margin-top: -50px;""><div style=""display: flex; justify-content: space-between; margin-top: 33px;""><img src=""images/choice_trial_10.png"" style=""width: 408px; height: 417px; margin-left:608px;""></div></div>",,delaylearn,learning,display_response,Lo02yB6aHZhShy9mRPf3EEYP8VC3,Lo02yB6aHZhShy9mRPf3EEYP8VC3,,,,,,,,,,,,,,,,,chosen stimuli: images/choice_trial_10.png,,,,,5bbd045428989b00019107be,16:58:02,27/03/2024
html-keyboard-response,108,213672,0.0-46.0-2.0,,,,delaylearn,learning,feedback_duration_window,Lo02yB6aHZhShy9mRPf3EEYP8VC3,Lo02yB6aHZhShy9mRPf3EEYP8VC3,,,,,,,,,,,,,,,,,,7000.0,,,,5bbd045428989b00019107be,16:58:02,27/03/2024
html-keyboard-response,109,215174,0.0-46.0-3.0,,<div style='margin:auto;width: auto; font-size: 150%'><span style='font-weight: bold; font-size: 100px; color: red;'>0 points!</span><br><br></div>,,delaylearn,learning,feedback_image_window,Lo02yB6aHZhShy9mRPf3EEYP8VC3,Lo02yB6aHZhShy9mRPf3EEYP8VC3,,,,,,,,,,,,,,,,,,,,,,5bbd045428989b00019107be,16:58:02,27/03/2024
html-keyboard-response,110,217556,0.0-47.0,,"<div style=""font-size:100px;"">+</div>",,delaylearn,learning,ITI,Lo02yB6aHZhShy9mRPf3EEYP8VC3,Lo02yB6aHZhShy9mRPf3EEYP8VC3,,,,,,,,,,,,,,,,,,,2381.0,,,5bbd045428989b00019107be,16:58:02,27/03/2024
html-keyboard-response,111,218534,0.0-48.0-0.0,974.7999999998137,"<div style=""display: flex; flex-direction: column; align-items: center; margin-top: -40px;""><img src=""images/pattern_6.png"" style=""width: 234px; height: 230px; margin-top: -50px;""><div style=""display: flex; justify-content: space-between; margin-top: 33px;""><img src=""images/choice_trial_5.png"" style=""width: 408px; height: 417px; margin-right: 200px;""><img src=""images/choice_trial_11.png"" style=""width: 408px; height: 417px;""></div></div>",f,delaylearn,learning,trial,Lo02yB6aHZhShy9mRPf3EEYP8VC3,Lo02yB6aHZhShy9mRPf3EEYP8VC3,2.0,images/choice_trial_5.png,images/choice_trial_11.png,images/pattern_6.png,j,j,750.0,5.0,11.0,5.0,1.0,21.0,0.0,0.0,5.0,100.0,,,,,,5bbd045428989b00019107be,16:58:02,27/03/2024
html-keyboard-response,112,219536,0.0-48.0-1.0,,"<div style=""display: flex; flex-direction: column; align-items: center; margin-top: -40px;""><img src=""images/pattern_6.png"" style=""width: 234px; height: 230px; margin-top: -50px;""><div style=""display: flex; justify-content: space-between; margin-top: 33px;""><img src=""images/choice_trial_5.png"" style=""width: 408px; height: 417px; margin-right: 608px;""></div></div>",,delaylearn,learning,display_response,Lo02yB6aHZhShy9mRPf3EEYP8VC3,Lo02yB6aHZhShy9mRPf3EEYP8VC3,,,,,,,,,,,,,,,,,chosen stimuli: images/choice_trial_5.png,,,,,5bbd045428989b00019107be,16:58:02,27/03/2024
html-keyboard-response,113,220288,0.0-48.0-2.0,,,,delaylearn,learning,feedback_duration_window,Lo02yB6aHZhShy9mRPf3EEYP8VC3,Lo02yB6aHZhShy9mRPf3EEYP8VC3,,,,,,,,,,,,,,,,,,750.0,,,,5bbd045428989b00019107be,16:58:02,27/03/2024
html-keyboard-response,114,221790,0.0-48.0-3.0,,<div style='margin:auto;width: auto; font-size: 150%'><span style='font-weight: bold; font-size: 100px; color: red;'>0 points!</span><br><br></div>,,delaylearn,learning,feedback_image_window,Lo02yB6aHZhShy9mRPf3EEYP8VC3,Lo02yB6aHZhShy9mRPf3EEYP8VC3,,,,,,,,,,,,,,,,,,,,,,5bbd045428989b00019107be,16:58:02,27/03/2024
html-keyboard-response,115,224079,0.0-49.0,,"<div style=""font-size:100px;"">+</div>",,delaylearn,learning,ITI,Lo02yB6aHZhShy9mRPf3EEYP8VC3,Lo02yB6aHZhShy9mRPf3EEYP8VC3,,,,,,,,,,,,,,,,,,,2288.0,,,5bbd045428989b00019107be,16:58:02,27/03/2024
html-keyboard-response,116,225187,0.0-50.0-0.0,1104.6000000005588,"<div style=""display: flex; flex-direction: column; align-items: center; margin-top: -40px;""><img src=""images/pattern_4.png"" style=""width: 234px; height: 230px; margin-top: -50px;""><div style=""display: flex; justify-content: space-between; margin-top: 33px;""><img src=""images/choice_trial_4.png"" style=""width: 408px; height: 417px; margin-right: 200px;""><img src=""images/choice_trial_16.png"" style=""width: 408px; height: 417px;""></div></div>",j,delaylearn,learning,trial,Lo02yB6aHZhShy9mRPf3EEYP8VC3,Lo02yB6aHZhShy9mRPf3EEYP8VC3,2.0,images/choice_trial_4.png,images/choice_trial_16.png,images/pattern_4.png,f,f,7000.0,4.0,16.0,3.0,0.0,22.0,0.0,0.0,16.0,100.0,,,,,,5bbd045428989b00019107be,16:58:02,27/03/2024
html-keyboard-response,117,226189,0.0-50.0-1.0,,"<div style=""display: flex; flex-direction: column; align-items: center; margin-top: -40px;""><img src=""images/pattern_4.png"" style=""width: 234px; height: 230px; margin-top: -50px;""><div style=""display: flex; justify-content: space-between; margin-top: 33px;""><img src=""images/choice_trial_16.png"" style=""width: 408px; height: 417px; margin-left:608px;""></div></div>",,delaylearn,learning,display_response,Lo02yB6aHZhShy9mRPf3EEYP8VC3,Lo02yB6aHZhShy9mRPf3EEYP8VC3,,,,,,,,,,,,,,,,,chosen stimuli: images/choice_trial_16.png,,,,,5bbd045428989b00019107be,16:58:02,27/03/2024
html-keyboard-response,118,233191,0.0-50.0-2.0,,,,delaylearn,learning,feedback_duration_window,Lo02yB6aHZhShy9mRPf3EEYP8VC3,Lo02yB6aHZhShy9mRPf3EEYP8VC3,,,,,,,,,,,,,,,,,,7000.0,,,,5bbd045428989b00019107be,16:58:02,27/03/2024
html-keyboard-response,119,234693,0.0-50.0-3.0,,<div style='margin:auto;width: auto; font-size: 150%'><span style='font-weight: bold; font-size: 100px; color: red;'>0 points!</span><br><br></div>,,delaylearn,learning,feedback_image_window,Lo02yB6aHZhShy9mRPf3EEYP8VC3,Lo02yB6aHZhShy9mRPf3EEYP8VC3,,,,,,,,,,,,,,,,,,,,,,5bbd045428989b00019107be,16:58:02,27/03/2024
html-keyboard-response,120,235195,0.0-51.0-0.0,,,,,,mood_trial_fixation,Lo02yB6aHZhShy9mRPf3EEYP8VC3,,,,,,,,,,,,,,,,,,,,,,,5bbd045428989b00019107be,16:58:02,27/03/2024
lmdlab-html-vas-response,121,239931,0.0-51.0-1.0,3730.0,How happy are you right now?,0.10650557734616234,delaylearn,learning,mood_trial,Lo02yB6aHZhShy9mRPf3EEYP8VC3,Lo02yB6aHZhShy9mRPf3EEYP8VC3,,,,,,,,,,,,,,,,,,,,"['Very unhappy', 'Very happy']",,5bbd045428989b00019107be,16:58:02,27/03/2024
html-keyboard-response,122,242130,0.0-52.0,,"<div style=""font-size:100px;"">+</div>",,delaylearn,learning,ITI,Lo02yB6aHZhShy9mRPf3EEYP8VC3,Lo02yB6aHZhShy9mRPf3EEYP8VC3,,,,,,,,,,,,,,,,,,,2198.0,,,5bbd045428989b00019107be,16:58:02,27/03/2024
html-keyboard-response,123,244231,0.0-53.0-0.0,2096.4000000003725,"<div style=""display: flex; flex-direction: column; align-items: center; margin-top: -40px;""><img src=""images/pattern_7.png"" style=""width: 234px; height: 230px; margin-top: -50px;""><div style=""display: flex; justify-content: space-between; margin-top: 33px;""><img src=""images/choice_trial_15.png"" style=""width: 408px; height: 417px; margin-right: 200px;""><img src=""images/choice_trial_8.png"" style=""width: 408px; height: 417px;""></div></div>",j,delaylearn,learning,trial,Lo02yB6aHZhShy9mRPf3EEYP8VC3,Lo02yB6aHZhShy9mRPf3EEYP8VC3,2.0,images/choice_trial_15.png,images/choice_trial_8.png,images/pattern_7.png,j,j,750.0,15.0,8.0,6.0,1.0,23.0,1.0,1.0,8.0,110.0,,,,,,5bbd045428989b00019107be,16:58:02,27/03/2024
html-keyboard-response,124,245233,0.0-53.0-1.0,,"<div style=""display: flex; flex-direction: column; align-items: center; margin-top: -40px;""><img src=""images/pattern_7.png"" style=""width: 234px; height: 230px; margin-top: -50px;""><div style=""display: flex; justify-content: space-between; margin-top: 33px;""><img src=""images/choice_trial_8.png"" style=""width: 408px; height: 417px; margin-left:608px;""></div></div>",,delaylearn,learning,display_response,Lo02yB6aHZhShy9mRPf3EEYP8VC3,Lo02yB6aHZhShy9mRPf3EEYP8VC3,,,,,,,,,,,,,,,,,chosen stimuli: images/choice_trial_8.png,,,,,5bbd045428989b00019107be,16:58:02,27/03/2024
html-keyboard-response,125,245985,0.0-53.0-2.0,,,,delaylearn,learning,feedback_duration_window,Lo02yB6aHZhShy9mRPf3EEYP8VC3,Lo02yB6aHZhShy9mRPf3EEYP8VC3,,,,,,,,,,,,,,,,,,750.0,,,,5bbd045428989b00019107be,16:58:02,27/03/2024
html-keyboard-response,126,247487,0.0-53.0-3.0,,<div style='margin:auto;width: auto; font-size: 150%'><span style='font-weight: bold; font-size: 100px; color: green;'>+10 points!</span><br><br></div>,,delaylearn,learning,feedback_image_window,Lo02yB6aHZhShy9mRPf3EEYP8VC3,Lo02yB6aHZhShy9mRPf3EEYP8VC3,,,,,,,,,,,,,,,,,,,,,,5bbd045428989b00019107be,16:58:02,27/03/2024
html-keyboard-response,127,249373,0.0-54.0,,"<div style=""font-size:100px;"">+</div>",,delaylearn,learning,ITI,Lo02yB6aHZhShy9mRPf3EEYP8VC3,Lo02yB6aHZhShy9mRPf3EEYP8VC3,,,,,,,,,,,,,,,,,,,1884.0,,,5bbd045428989b00019107be,16:58:02,27/03/2024
html-keyboard-response,128,250739,0.0-55.0-0.0,1361.8999999994412,"<div style=""display: flex; flex-direction: column; align-items: center; margin-top: -40px;""><img src=""images/pattern_1.png"" style=""width: 234px; height: 230px; margin-top: -50px;""><div style=""display: flex; justify-content: space-between; margin-top: 33px;""><img src=""images/choice_trial_10.png"" style=""width: 408px; height: 417px; margin-right: 200px;""><img src=""images/choice_trial_3.png"" style=""width: 408px; height: 417px;""></div></div>",f,delaylearn,learning,trial,Lo02yB6aHZhShy9mRPf3EEYP8VC3,Lo02yB6aHZhShy9mRPf3EEYP8VC3,2.0,images/choice_trial_10.png,images/choice_trial_3.png,images/pattern_1.png,f,j,7000.0,10.0,3.0,1.0,1.0,24.0,0.0,1.0,10.0,120.0,,,,,,5bbd045428989b00019107be,16:58:02,27/03/2024
html-keyboard-response,129,251741,0.0-55.0-1.0,,"<div style=""display: flex; flex-direction: column; align-items: center; margin-top: -40px;""><img src=""images/pattern_1.png"" style=""width: 234px; height: 230px; margin-top: -50px;""><div style=""display: flex; justify-content: space-between; margin-top: 33px;""><img src=""images/choice_trial_10.png"" style=""width: 408px; height: 417px; margin-right: 608px;""></div></div>",,delaylearn,learning,display_response,Lo02yB6aHZhShy9mRPf3EEYP8VC3,Lo02yB6aHZhShy9mRPf3EEYP8VC3,,,,,,,,,,,,,,,,,chosen stimuli: images/choice_trial_10.png,,,,,5bbd045428989b00019107be,16:58:02,27/03/2024
html-keyboard-response,130,258742,0.0-55.0-2.0,,,,delaylearn,learning,feedback_duration_window,Lo02yB6aHZhShy9mRPf3EEYP8VC3,Lo02yB6aHZhShy9mRPf3EEYP8VC3,,,,,,,,,,,,,,,,,,7000.0,,,,5bbd045428989b00019107be,16:58:02,27/03/2024
html-keyboard-response,131,260244,0.0-55.0-3.0,,<div style='margin:auto;width: auto; font-size: 150%'><span style='font-weight: bold; font-size: 100px; color: green;'>+10 points!</span><br><br></div>,,delaylearn,learning,feedback_image_window,Lo02yB6aHZhShy9mRPf3EEYP8VC3,Lo02yB6aHZhShy9mRPf3EEYP8VC3,,,,,,,,,,,,,,,,,,,,,,5bbd045428989b00019107be,16:58:02,27/03/2024
html-keyboard-response,132,262347,0.0-56.0,,"<div style=""font-size:100px;"">+</div>",,delaylearn,learning,ITI,Lo02yB6aHZhShy9mRPf3EEYP8VC3,Lo02yB6aHZhShy9mRPf3EEYP8VC3,,,,,,,,,,,,,,,,,,,2101.0,,,5bbd045428989b00019107be,16:58:02,27/03/2024
html-keyboard-response,133,263366,0.0-57.0-0.0,1016.0,"<div style=""display: flex; flex-direction: column; align-items: center; margin-top: -40px;""><img src=""images/pattern_5.png"" style=""width: 234px; height: 230px; margin-top: -50px;""><div style=""display: flex; justify-content: space-between; margin-top: 33px;""><img src=""images/choice_trial_9.png"" style=""width: 408px; height: 417px; margin-right: 200px;""><img src=""images/choice_trial_2.png"" style=""width: 408px; height: 417px;""></div></div>",f,delaylearn,learning,trial,Lo02yB6aHZhShy9mRPf3EEYP8VC3,Lo02yB6aHZhShy9mRPf3EEYP8VC3,2.0,images/choice_trial_9.png,images/choice_trial_2.png,images/pattern_5.png,j,j,750.0,9.0,2.0,4.0,1.0,25.0,0.0,0.0,9.0,120.0,,,,,,5bbd045428989b00019107be,16:58:02,27/03/2024
html-keyboard-response,134,264369,0.0-57.0-1.0,,"<div style=""display: flex; flex-direction: column; align-items: center; margin-top: -40px;""><img src=""images/pattern_5.png"" style=""width: 234px; height: 230px; margin-top: -50px;""><div style=""display: flex; justify-content: space-between; margin-top: 33px;""><img src=""images/choice_trial_9.png"" style=""width: 408px; height: 417px; margin-right: 608px;""></div></div>",,delaylearn,learning,display_response,Lo02yB6aHZhShy9mRPf3EEYP8VC3,Lo02yB6aHZhShy9mRPf3EEYP8VC3,,,,,,,,,,,,,,,,,chosen stimuli: images/choice_trial_9.png,,,,,5bbd045428989b00019107be,16:58:02,27/03/2024
html-keyboard-response,135,265120,0.0-57.0-2.0,,,,delaylearn,learning,feedback_duration_window,Lo02yB6aHZhShy9mRPf3EEYP8VC3,Lo02yB6aHZhShy9mRPf3EEYP8VC3,,,,,,,,,,,,,,,,,,750.0,,,,5bbd045428989b00019107be,16:58:02,27/03/2024
html-keyboard-response,136,266622,0.0-57.0-3.0,,<div style='margin:auto;width: auto; font-size: 150%'><span style='font-weight: bold; font-size: 100px; color: red;'>0 points!</span><br><br></div>,,delaylearn,learning,feedback_image_window,Lo02yB6aHZhShy9mRPf3EEYP8VC3,Lo02yB6aHZhShy9mRPf3EEYP8VC3,,,,,,,,,,,,,,,,,,,,,,5bbd045428989b00019107be,16:58:02,27/03/2024
html-keyboard-response,137,268185,0.0-58.0,,"<div style=""font-size:100px;"">+</div>",,delaylearn,learning,ITI,Lo02yB6aHZhShy9mRPf3EEYP8VC3,Lo02yB6aHZhShy9mRPf3EEYP8VC3,,,,,,,,,,,,,,,,,,,1561.0,,,5bbd045428989b00019107be,16:58:02,27/03/2024
html-keyboard-response,138,269596,0.0-59.0-0.0,1407.4000000003725,"<div style=""display: flex; flex-direction: column; align-items: center; margin-top: -40px;""><img src=""images/pattern_3.png"" style=""width: 234px; height: 230px; margin-top: -50px;""><div style=""display: flex; justify-content: space-between; margin-top: 33px;""><img src=""images/choice_trial_14.png"" style=""width: 408px; height: 417px; margin-right: 200px;""><img src=""images/choice_trial_12.png"" style=""width: 408px; height: 417px;""></div></div>",f,delaylearn,learning,trial,Lo02yB6aHZhShy9mRPf3EEYP8VC3,Lo02yB6aHZhShy9mRPf3EEYP8VC3,2.0,images/choice_trial_14.png,images/choice_trial_12.png,images/pattern_3.png,j,j,7000.0,14.0,12.0,2.0,1.0,26.0,0.0,0.0,14.0,120.0,,,,,,5bbd045428989b00019107be,16:58:02,27/03/2024
html-keyboard-response,139,270598,0.0-59.0-1.0,,"<div style=""display: flex; flex-direction: column; align-items: center; margin-top: -40px;""><img src=""images/pattern_3.png"" style=""width: 234px; height: 230px; margin-top: -50px;""><div style=""display: flex; justify-content: space-between; margin-top: 33px;""><img src=""images/choice_trial_14.png"" style=""width: 408px; height: 417px; margin-right: 608px;""></div></div>",,delaylearn,learning,display_response,Lo02yB6aHZhShy9mRPf3EEYP8VC3,Lo02yB6aHZhShy9mRPf3EEYP8VC3,,,,,,,,,,,,,,,,,chosen stimuli: images/choice_trial_14.png,,,,,5bbd045428989b00019107be,16:58:02,27/03/2024
html-keyboard-response,140,277600,0.0-59.0-2.0,,,,delaylearn,learning,feedback_duration_window,Lo02yB6aHZhShy9mRPf3EEYP8VC3,Lo02yB6aHZhShy9mRPf3EEYP8VC3,,,,,,,,,,,,,,,,,,7000.0,,,,5bbd045428989b00019107be,16:58:02,27/03/2024
html-keyboard-response,141,279102,0.0-59.0-3.0,,<div style='margin:auto;width: auto; font-size: 150%'><span style='font-weight: bold; font-size: 100px; color: red;'>0 points!</span><br><br></div>,,delaylearn,learning,feedback_image_window,Lo02yB6aHZhShy9mRPf3EEYP8VC3,Lo02yB6aHZhShy9mRPf3EEYP8VC3,,,,,,,,,,,,,,,,,,,,,,5bbd045428989b00019107be,16:58:02,27/03/2024
lmdlab-html-vas-response,142,289892,0.0-60.0-0.0,9283.0,*How <b><u>confident</u></b> are you feeling about your answers at this moment?*,0.002314779384529237,rewlearn,rate_confidence,,Lo02yB6aHZhShy9mRPf3EEYP8VC3,Lo02yB6aHZhShy9mRPf3EEYP8VC3,,,,,,,,,,,,,,,,,,,,"['No confidence', 'Complete confidence']",,5bbd045428989b00019107be,16:58:02,27/03/2024
lmdlab-rest-trial-limit,143,298369,0.0-60.0-1.0,6972.399999999441,"<div style=""font-size:40px;""><b>Please take a break!</b><br><br><br><br><p>Great work: you earned 120 points.<br><br><br><p>You have completed part(s) 1 of 5.<br><br><br><br>When you are ready to continue<br><br><br>please click the button.</p><br><br>",0,delaylearn,learning,break,Lo02yB6aHZhShy9mRPf3EEYP8VC3,Lo02yB6aHZhShy9mRPf3EEYP8VC3,,,,,,,,,,,,,,,,,,,,,0.0,5bbd045428989b00019107be,16:58:02,27/03/2024
html-keyboard-response,144,301371,0.0-60.0-2.0,,"<div style=""font-size:100px;"">+</div>",,delaylearn,learning,pre_fixation,Lo02yB6aHZhShy9mRPf3EEYP8VC3,,,,,,,,,,,,,,,,,,,,,,,5bbd045428989b00019107be,16:58:02,27/03/2024
lmdlab-html-vas-response,145,308595,0.0-60.0-3.0-0.0,6217.0,How happy are you right now?,0.17402100626528674,delaylearn,learning,mood_baseline,Lo02yB6aHZhShy9mRPf3EEYP8VC3,Lo02yB6aHZhShy9mRPf3EEYP8VC3,,,,,,,,,,,,,,,,,,,,"['Very unhappy', 'Very happy']",,5bbd045428989b00019107be,16:58:02,27/03/2024
html-keyboard-response,146,310097,0.0-60.0-3.0-1.0,,,,,,mood_baseline_fixation,Lo02yB6aHZhShy9mRPf3EEYP8VC3,,,,,,,,,,,,,,,,,,,,,,,5bbd045428989b00019107be,16:58:02,27/03/2024
html-keyboard-response,147,312056,0.0-61.0,,"<div style=""font-size:100px;"">+</div>",,delaylearn,learning,ITI,Lo02yB6aHZhShy9mRPf3EEYP8VC3,Lo02yB6aHZhShy9mRPf3EEYP8VC3,,,,,,,,,,,,,,,,,,,1957.0,,,5bbd045428989b00019107be,16:58:02,27/03/2024
html-keyboard-response,148,313433,0.0-62.0-0.0,1374.0,"<div style=""display: flex; flex-direction: column; align-items: center; margin-top: -40px;""><img src=""images/pattern_7.png"" style=""width: 234px; height: 230px; margin-top: -50px;""><div style=""display: flex; justify-content: space-between; margin-top: 33px;""><img src=""images/choice_trial_15.png"" style=""width: 408px; height: 417px; margin-right: 200px;""><img src=""images/choice_trial_8.png"" style=""width: 408px; height: 417px;""></div></div>",j,delaylearn,learning,trial,Lo02yB6aHZhShy9mRPf3EEYP8VC3,Lo02yB6aHZhShy9mRPf3EEYP8VC3,2.0,images/choice_trial_15.png,images/choice_trial_8.png,images/pattern_7.png,j,j,750.0,15.0,8.0,6.0,1.0,27.0,1.0,1.0,8.0,130.0,,,,,,5bbd045428989b00019107be,16:58:02,27/03/2024
html-keyboard-response,149,314436,0.0-62.0-1.0,,"<div style=""display: flex; flex-direction: column; align-items: center; margin-top: -40px;""><img src=""images/pattern_7.png"" style=""width: 234px; height: 230px; margin-top: -50px;""><div style=""display: flex; justify-content: space-between; margin-top: 33px;""><img src=""images/choice_trial_8.png"" style=""width: 408px; height: 417px; margin-left:608px;""></div></div>",,delaylearn,learning,display_response,Lo02yB6aHZhShy9mRPf3EEYP8VC3,Lo02yB6aHZhShy9mRPf3EEYP8VC3,,,,,,,,,,,,,,,,,chosen stimuli: images/choice_trial_8.png,,,,,5bbd045428989b00019107be,16:58:02,27/03/2024
html-keyboard-response,150,315187,0.0-62.0-2.0,,,,delaylearn,learning,feedback_duration_window,Lo02yB6aHZhShy9mRPf3EEYP8VC3,Lo02yB6aHZhShy9mRPf3EEYP8VC3,,,,,,,,,,,,,,,,,,750.0,,,,5bbd045428989b00019107be,16:58:02,27/03/2024
html-keyboard-response,151,316689,0.0-62.0-3.0,,<div style='margin:auto;width: auto; font-size: 150%'><span style='font-weight: bold; font-size: 100px; color: green;'>+10 points!</span><br><br></div>,,delaylearn,learning,feedback_image_window,Lo02yB6aHZhShy9mRPf3EEYP8VC3,Lo02yB6aHZhShy9mRPf3EEYP8VC3,,,,,,,,,,,,,,,,,,,,,,5bbd045428989b00019107be,16:58:02,27/03/2024
html-keyboard-response,152,317191,0.0-63.0-0.0,,,,,,mood_trial_fixation,Lo02yB6aHZhShy9mRPf3EEYP8VC3,,,,,,,,,,,,,,,,,,,,,,,5bbd045428989b00019107be,16:58:02,27/03/2024
lmdlab-html-vas-response,153,322448,0.0-63.0-1.0,4252.0,How happy are you right now?,0.25503952096823607,delaylearn,learning,mood_trial,Lo02yB6aHZhShy9mRPf3EEYP8VC3,Lo02yB6aHZhShy9mRPf3EEYP8VC3,,,,,,,,,,,,,,,,,,,,"['Very unhappy', 'Very happy']",,5bbd045428989b00019107be,16:58:02,27/03/2024
html-keyboard-response,154,324416,0.0-64.0,,"<div style=""font-size:100px;"">+</div>",,delaylearn,learning,ITI,Lo02yB6aHZhShy9mRPf3EEYP8VC3,Lo02yB6aHZhShy9mRPf3EEYP8VC3,,,,,,,,,,,,,,,,,,,1967.0,,,5bbd045428989b00019107be,16:58:02,27/03/2024
html-keyboard-response,155,326030,0.0-65.0-0.0,1610.0,"<div style=""display: flex; flex-direction: column; align-items: center; margin-top: -40px;""><img src=""images/pattern_1.png"" style=""width: 234px; height: 230px; margin-top: -50px;""><div style=""display: flex; justify-content: space-between; margin-top: 33px;""><img src=""images/choice_trial_3.png"" style=""width: 408px; height: 417px; margin-right: 200px;""><img src=""images/choice_trial_10.png"" style=""width: 408px; height: 417px;""></div></div>",j,delaylearn,learning,trial,Lo02yB6aHZhShy9mRPf3EEYP8VC3,Lo02yB6aHZhShy9mRPf3EEYP8VC3,2.0,images/choice_trial_3.png,images/choice_trial_10.png,images/pattern_1.png,f,f,7000.0,3.0,10.0,1.0,0.0,28.0,0.0,0.0,10.0,130.0,,,,,,5bbd045428989b00019107be,16:58:02,27/03/2024
html-keyboard-response,156,327032,0.0-65.0-1.0,,"<div style=""display: flex; flex-direction: column; align-items: center; margin-top: -40px;""><img src=""images/pattern_1.png"" style=""width: 234px; height: 230px; margin-top: -50px;""><div style=""display: flex; justify-content: space-between; margin-top: 33px;""><img src=""images/choice_trial_10.png"" style=""width: 408px; height: 417px; margin-left:608px;""></div></div>",,delaylearn,learning,display_response,Lo02yB6aHZhShy9mRPf3EEYP8VC3,Lo02yB6aHZhShy9mRPf3EEYP8VC3,,,,,,,,,,,,,,,,,chosen stimuli: images/choice_trial_10.png,,,,,5bbd045428989b00019107be,16:58:02,27/03/2024
html-keyboard-response,157,334034,0.0-65.0-2.0,,,,delaylearn,learning,feedback_duration_window,Lo02yB6aHZhShy9mRPf3EEYP8VC3,Lo02yB6aHZhShy9mRPf3EEYP8VC3,,,,,,,,,,,,,,,,,,7000.0,,,,5bbd045428989b00019107be,16:58:02,27/03/2024
html-keyboard-response,158,335536,0.0-65.0-3.0,,<div style='margin:auto;width: auto; font-size: 150%'><span style='font-weight: bold; font-size: 100px; color: red;'>0 points!</span><br><br></div>,,delaylearn,learning,feedback_image_window,Lo02yB6aHZhShy9mRPf3EEYP8VC3,Lo02yB6aHZhShy9mRPf3EEYP8VC3,,,,,,,,,,,,,,,,,,,,,,5bbd045428989b00019107be,16:58:02,27/03/2024
html-keyboard-response,159,337273,0.0-66.0,,"<div style=""font-size:100px;"">+</div>",,delaylearn,learning,ITI,Lo02yB6aHZhShy9mRPf3EEYP8VC3,Lo02yB6aHZhShy9mRPf3EEYP8VC3,,,,,,,,,,,,,,,,,,,1735.0,,,5bbd045428989b00019107be,16:58:02,27/03/2024
html-keyboard-response,160,338104,0.0-67.0-0.0,828.0999999996275,"<div style=""display: flex; flex-direction: column; align-items: center; margin-top: -40px;""><img src=""images/pattern_5.png"" style=""width: 234px; height: 230px; margin-top: -50px;""><div style=""display: flex; justify-content: space-between; margin-top: 33px;""><img src=""images/choice_trial_2.png"" style=""width: 408px; height: 417px; margin-right: 200px;""><img src=""images/choice_trial_9.png"" style=""width: 408px; height: 417px;""></div></div>",j,delaylearn,learning,trial,Lo02yB6aHZhShy9mRPf3EEYP8VC3,Lo02yB6aHZhShy9mRPf3EEYP8VC3,2.0,images/choice_trial_2.png,images/choice_trial_9.png,images/pattern_5.png,f,f,750.0,2.0,9.0,4.0,0.0,29.0,0.0,0.0,9.0,130.0,,,,,,5bbd045428989b00019107be,16:58:02,27/03/2024
html-keyboard-response,161,339106,0.0-67.0-1.0,,"<div style=""display: flex; flex-direction: column; align-items: center; margin-top: -40px;""><img src=""images/pattern_5.png"" style=""width: 234px; height: 230px; margin-top: -50px;""><div style=""display: flex; justify-content: space-between; margin-top: 33px;""><img src=""images/choice_trial_9.png"" style=""width: 408px; height: 417px; margin-left:608px;""></div></div>",,delaylearn,learning,display_response,Lo02yB6aHZhShy9mRPf3EEYP8VC3,Lo02yB6aHZhShy9mRPf3EEYP8VC3,,,,,,,,,,,,,,,,,chosen stimuli: images/choice_trial_9.png,,,,,5bbd045428989b00019107be,16:58:02,27/03/2024
html-keyboard-response,162,339858,0.0-67.0-2.0,,,,delaylearn,learning,feedback_duration_window,Lo02yB6aHZhShy9mRPf3EEYP8VC3,Lo02yB6aHZhShy9mRPf3EEYP8VC3,,,,,,,,,,,,,,,,,,750.0,,,,5bbd045428989b00019107be,16:58:02,27/03/2024
html-keyboard-response,163,341360,0.0-67.0-3.0,,<div style='margin:auto;width: auto; font-size: 150%'><span style='font-weight: bold; font-size: 100px; color: red;'>0 points!</span><br><br></div>,,delaylearn,learning,feedback_image_window,Lo02yB6aHZhShy9mRPf3EEYP8VC3,Lo02yB6aHZhShy9mRPf3EEYP8VC3,,,,,,,,,,,,,,,,,,,,,,5bbd045428989b00019107be,16:58:02,27/03/2024
html-keyboard-response,164,343117,0.0-68.0,,"<div style=""font-size:100px;"">+</div>",,delaylearn,learning,ITI,Lo02yB6aHZhShy9mRPf3EEYP8VC3,Lo02yB6aHZhShy9mRPf3EEYP8VC3,,,,,,,,,,,,,,,,,,,1756.0,,,5bbd045428989b00019107be,16:58:02,27/03/2024
html-keyboard-response,165,344403,0.0-69.0-0.0,1282.199999999255,"<div style=""display: flex; flex-direction: column; align-items: center; margin-top: -40px;""><img src=""images/pattern_6.png"" style=""width: 234px; height: 230px; margin-top: -50px;""><div style=""display: flex; justify-content: space-between; margin-top: 33px;""><img src=""images/choice_trial_5.png"" style=""width: 408px; height: 417px; margin-right: 200px;""><img src=""images/choice_trial_11.png"" style=""width: 408px; height: 417px;""></div></div>",f,delaylearn,learning,trial,Lo02yB6aHZhShy9mRPf3EEYP8VC3,Lo02yB6aHZhShy9mRPf3EEYP8VC3,2.0,images/choice_trial_5.png,images/choice_trial_11.png,images/pattern_6.png,j,j,750.0,5.0,11.0,5.0,1.0,30.0,0.0,0.0,5.0,130.0,,,,,,5bbd045428989b00019107be,16:58:02,27/03/2024
html-keyboard-response,166,345406,0.0-69.0-1.0,,"<div style=""display: flex; flex-direction: column; align-items: center; margin-top: -40px;""><img src=""images/pattern_6.png"" style=""width: 234px; height: 230px; margin-top: -50px;""><div style=""display: flex; justify-content: space-between; margin-top: 33px;""><img src=""images/choice_trial_5.png"" style=""width: 408px; height: 417px; margin-right: 608px;""></div></div>",,delaylearn,learning,display_response,Lo02yB6aHZhShy9mRPf3EEYP8VC3,Lo02yB6aHZhShy9mRPf3EEYP8VC3,,,,,,,,,,,,,,,,,chosen stimuli: images/choice_trial_5.png,,,,,5bbd045428989b00019107be,16:58:02,27/03/2024
html-keyboard-response,167,346157,0.0-69.0-2.0,,,,delaylearn,learning,feedback_duration_window,Lo02yB6aHZhShy9mRPf3EEYP8VC3,Lo02yB6aHZhShy9mRPf3EEYP8VC3,,,,,,,,,,,,,,,,,,750.0,,,,5bbd045428989b00019107be,16:58:02,27/03/2024
html-keyboard-response,168,347659,0.0-69.0-3.0,,<div style='margin:auto;width: auto; font-size: 150%'><span style='font-weight: bold; font-size: 100px; color: red;'>0 points!</span><br><br></div>,,delaylearn,learning,feedback_image_window,Lo02yB6aHZhShy9mRPf3EEYP8VC3,Lo02yB6aHZhShy9mRPf3EEYP8VC3,,,,,,,,,,,,,,,,,,,,,,5bbd045428989b00019107be,16:58:02,27/03/2024
html-keyboard-response,169,348161,0.0-70.0-0.0,,,,,,mood_trial_fixation,Lo02yB6aHZhShy9mRPf3EEYP8VC3,,,,,,,,,,,,,,,,,,,,,,,5bbd045428989b00019107be,16:58:02,27/03/2024
lmdlab-html-vas-response,170,353421,0.0-70.0-1.0,4254.0,How happy are you right now?,0.2068142145974329,delaylearn,learning,mood_trial,Lo02yB6aHZhShy9mRPf3EEYP8VC3,Lo02yB6aHZhShy9mRPf3EEYP8VC3,,,,,,,,,,,,,,,,,,,,"['Very unhappy', 'Very happy']",,5bbd045428989b00019107be,16:58:02,27/03/2024
html-keyboard-response,171,355673,0.0-71.0,,"<div style=""font-size:100px;"">+</div>",,delaylearn,learning,ITI,Lo02yB6aHZhShy9mRPf3EEYP8VC3,Lo02yB6aHZhShy9mRPf3EEYP8VC3,,,,,,,,,,,,,,,,,,,2250.0,,,5bbd045428989b00019107be,16:58:02,27/03/2024
html-keyboard-response,172,356768,0.0-72.0-0.0,1090.4000000003725,"<div style=""display: flex; flex-direction: column; align-items: center; margin-top: -40px;""><img src=""images/pattern_4.png"" style=""width: 234px; height: 230px; margin-top: -50px;""><div style=""display: flex; justify-content: space-between; margin-top: 33px;""><img src=""images/choice_trial_16.png"" style=""width: 408px; height: 417px; margin-right: 200px;""><img src=""images/choice_trial_4.png"" style=""width: 408px; height: 417px;""></div></div>",f,delaylearn,learning,trial,Lo02yB6aHZhShy9mRPf3EEYP8VC3,Lo02yB6aHZhShy9mRPf3EEYP8VC3,2.0,images/choice_trial_16.png,images/choice_trial_4.png,images/pattern_4.png,j,j,7000.0,16.0,4.0,3.0,1.0,31.0,0.0,0.0,16.0,130.0,,,,,,5bbd045428989b00019107be,16:58:02,27/03/2024
html-keyboard-response,173,357770,0.0-72.0-1.0,,"<div style=""display: flex; flex-direction: column; align-items: center; margin-top: -40px;""><img src=""images/pattern_4.png"" style=""width: 234px; height: 230px; margin-top: -50px;""><div style=""display: flex; justify-content: space-between; margin-top: 33px;""><img src=""images/choice_trial_16.png"" style=""width: 408px; height: 417px; margin-right: 608px;""></div></div>",,delaylearn,learning,display_response,Lo02yB6aHZhShy9mRPf3EEYP8VC3,Lo02yB6aHZhShy9mRPf3EEYP8VC3,,,,,,,,,,,,,,,,,chosen stimuli: images/choice_trial_16.png,,,,,5bbd045428989b00019107be,16:58:02,27/03/2024
html-keyboard-response,174,364772,0.0-72.0-2.0,,,,delaylearn,learning,feedback_duration_window,Lo02yB6aHZhShy9mRPf3EEYP8VC3,Lo02yB6aHZhShy9mRPf3EEYP8VC3,,,,,,,,,,,,,,,,,,7000.0,,,,5bbd045428989b00019107be,16:58:02,27/03/2024
html-keyboard-response,175,366274,0.0-72.0-3.0,,<div style='margin:auto;width: auto; font-size: 150%'><span style='font-weight: bold; font-size: 100px; color: red;'>0 points!</span><br><br></div>,,delaylearn,learning,feedback_image_window,Lo02yB6aHZhShy9mRPf3EEYP8VC3,Lo02yB6aHZhShy9mRPf3EEYP8VC3,,,,,,,,,,,,,,,,,,,,,,5bbd045428989b00019107be,16:58:02,27/03/2024
html-keyboard-response,176,368612,0.0-73.0,,"<div style=""font-size:100px;"">+</div>",,delaylearn,learning,ITI,Lo02yB6aHZhShy9mRPf3EEYP8VC3,Lo02yB6aHZhShy9mRPf3EEYP8VC3,,,,,,,,,,,,,,,,,,,2337.0,,,5bbd045428989b00019107be,16:58:02,27/03/2024
html-keyboard-response,177,369515,0.0-74.0-0.0,899.0999999996275,"<div style=""display: flex; flex-direction: column; align-items: center; margin-top: -40px;""><img src=""images/pattern_3.png"" style=""width: 234px; height: 230px; margin-top: -50px;""><div style=""display: flex; justify-content: space-between; margin-top: 33px;""><img src=""images/choice_trial_14.png"" style=""width: 408px; height: 417px; margin-right: 200px;""><img src=""images/choice_trial_12.png"" style=""width: 408px; height: 417px;""></div></div>",j,delaylearn,learning,trial,Lo02yB6aHZhShy9mRPf3EEYP8VC3,Lo02yB6aHZhShy9mRPf3EEYP8VC3,2.0,images/choice_trial_14.png,images/choice_trial_12.png,images/pattern_3.png,j,j,7000.0,14.0,12.0,2.0,1.0,32.0,1.0,1.0,12.0,140.0,,,,,,5bbd045428989b00019107be,16:58:02,27/03/2024
html-keyboard-response,178,370518,0.0-74.0-1.0,,"<div style=""display: flex; flex-direction: column; align-items: center; margin-top: -40px;""><img src=""images/pattern_3.png"" style=""width: 234px; height: 230px; margin-top: -50px;""><div style=""display: flex; justify-content: space-between; margin-top: 33px;""><img src=""images/choice_trial_12.png"" style=""width: 408px; height: 417px; margin-left:608px;""></div></div>",,delaylearn,learning,display_response,Lo02yB6aHZhShy9mRPf3EEYP8VC3,Lo02yB6aHZhShy9mRPf3EEYP8VC3,,,,,,,,,,,,,,,,,chosen stimuli: images/choice_trial_12.png,,,,,5bbd045428989b00019107be,16:58:02,27/03/2024
html-keyboard-response,179,377520,0.0-74.0-2.0,,,,delaylearn,learning,feedback_duration_window,Lo02yB6aHZhShy9mRPf3EEYP8VC3,Lo02yB6aHZhShy9mRPf3EEYP8VC3,,,,,,,,,,,,,,,,,,7000.0,,,,5bbd045428989b00019107be,16:58:02,27/03/2024
html-keyboard-response,180,379022,0.0-74.0-3.0,,<div style='margin:auto;width: auto; font-size: 150%'><span style='font-weight: bold; font-size: 100px; color: green;'>+10 points!</span><br><br></div>,,delaylearn,learning,feedback_image_window,Lo02yB6aHZhShy9mRPf3EEYP8VC3,Lo02yB6aHZhShy9mRPf3EEYP8VC3,,,,,,,,,,,,,,,,,,,,,,5bbd045428989b00019107be,16:58:02,27/03/2024
html-keyboard-response,181,381099,0.0-75.0,,"<div style=""font-size:100px;"">+</div>",,delaylearn,learning,ITI,Lo02yB6aHZhShy9mRPf3EEYP8VC3,Lo02yB6aHZhShy9mRPf3EEYP8VC3,,,,,,,,,,,,,,,,,,,2075.0,,,5bbd045428989b00019107be,16:58:02,27/03/2024
html-keyboard-response,182,382381,0.0-76.0-0.0,1278.7999999998137,"<div style=""display: flex; flex-direction: column; align-items: center; margin-top: -40px;""><img src=""images/pattern_5.png"" style=""width: 234px; height: 230px; margin-top: -50px;""><div style=""display: flex; justify-content: space-between; margin-top: 33px;""><img src=""images/choice_trial_2.png"" style=""width: 408px; height: 417px; margin-right: 200px;""><img src=""images/choice_trial_9.png"" style=""width: 408px; height: 417px;""></div></div>",f,delaylearn,learning,trial,Lo02yB6aHZhShy9mRPf3EEYP8VC3,Lo02yB6aHZhShy9mRPf3EEYP8VC3,2.0,images/choice_trial_2.png,images/choice_trial_9.png,images/pattern_5.png,j,f,750.0,2.0,9.0,4.0,0.0,33.0,1.0,0.0,2.0,140.0,,,,,,5bbd045428989b00019107be,16:58:02,27/03/2024
html-keyboard-response,183,383383,0.0-76.0-1.0,,"<div style=""display: flex; flex-direction: column; align-items: center; margin-top: -40px;""><img src=""images/pattern_5.png"" style=""width: 234px; height: 230px; margin-top: -50px;""><div style=""display: flex; justify-content: space-between; margin-top: 33px;""><img src=""images/choice_trial_2.png"" style=""width: 408px; height: 417px; margin-right: 608px;""></div></div>",,delaylearn,learning,display_response,Lo02yB6aHZhShy9mRPf3EEYP8VC3,Lo02yB6aHZhShy9mRPf3EEYP8VC3,,,,,,,,,,,,,,,,,chosen stimuli: images/choice_trial_2.png,,,,,5bbd045428989b00019107be,16:58:02,27/03/2024
html-keyboard-response,184,384135,0.0-76.0-2.0,,,,delaylearn,learning,feedback_duration_window,Lo02yB6aHZhShy9mRPf3EEYP8VC3,Lo02yB6aHZhShy9mRPf3EEYP8VC3,,,,,,,,,,,,,,,,,,750.0,,,,5bbd045428989b00019107be,16:58:02,27/03/2024
html-keyboard-response,185,385637,0.0-76.0-3.0,,<div style='margin:auto;width: auto; font-size: 150%'><span style='font-weight: bold; font-size: 100px; color: red;'>0 points!</span><br><br></div>,,delaylearn,learning,feedback_image_window,Lo02yB6aHZhShy9mRPf3EEYP8VC3,Lo02yB6aHZhShy9mRPf3EEYP8VC3,,,,,,,,,,,,,,,,,,,,,,5bbd045428989b00019107be,16:58:02,27/03/2024
html-keyboard-response,186,387839,0.0-77.0,,"<div style=""font-size:100px;"">+</div>",,delaylearn,learning,ITI,Lo02yB6aHZhShy9mRPf3EEYP8VC3,Lo02yB6aHZhShy9mRPf3EEYP8VC3,,,,,,,,,,,,,,,,,,,2200.0,,,5bbd045428989b00019107be,16:58:02,27/03/2024
html-keyboard-response,187,389167,0.0-78.0-0.0,1325.199999999255,"<div style=""display: flex; flex-direction: column; align-items: center; margin-top: -40px;""><img src=""images/pattern_1.png"" style=""width: 234px; height: 230px; margin-top: -50px;""><div style=""display: flex; justify-content: space-between; margin-top: 33px;""><img src=""images/choice_trial_3.png"" style=""width: 408px; height: 417px; margin-right: 200px;""><img src=""images/choice_trial_10.png"" style=""width: 408px; height: 417px;""></div></div>",f,delaylearn,learning,trial,Lo02yB6aHZhShy9mRPf3EEYP8VC3,Lo02yB6aHZhShy9mRPf3EEYP8VC3,2.0,images/choice_trial_3.png,images/choice_trial_10.png,images/pattern_1.png,f,f,7000.0,3.0,10.0,1.0,0.0,34.0,1.0,1.0,3.0,150.0,,,,,,5bbd045428989b00019107be,16:58:02,27/03/2024
html-keyboard-response,188,390170,0.0-78.0-1.0,,"<div style=""display: flex; flex-direction: column; align-items: center; margin-top: -40px;""><img src=""images/pattern_1.png"" style=""width: 234px; height: 230px; margin-top: -50px;""><div style=""display: flex; justify-content: space-between; margin-top: 33px;""><img src=""images/choice_trial_3.png"" style=""width: 408px; height: 417px; margin-right: 608px;""></div></div>",,delaylearn,learning,display_response,Lo02yB6aHZhShy9mRPf3EEYP8VC3,Lo02yB6aHZhShy9mRPf3EEYP8VC3,,,,,,,,,,,,,,,,,chosen stimuli: images/choice_trial_3.png,,,,,5bbd045428989b00019107be,16:58:02,27/03/2024
html-keyboard-response,189,397171,0.0-78.0-2.0,,,,delaylearn,learning,feedback_duration_window,Lo02yB6aHZhShy9mRPf3EEYP8VC3,Lo02yB6aHZhShy9mRPf3EEYP8VC3,,,,,,,,,,,,,,,,,,7000.0,,,,5bbd045428989b00019107be,16:58:02,27/03/2024
html-keyboard-response,190,398673,0.0-78.0-3.0,,<div style='margin:auto;width: auto; font-size: 150%'><span style='font-weight: bold; font-size: 100px; color: green;'>+10 points!</span><br><br></div>,,delaylearn,learning,feedback_image_window,Lo02yB6aHZhShy9mRPf3EEYP8VC3,Lo02yB6aHZhShy9mRPf3EEYP8VC3,,,,,,,,,,,,,,,,,,,,,,5bbd045428989b00019107be,16:58:02,27/03/2024
html-keyboard-response,191,399175,0.0-79.0-0.0,,,,,,mood_trial_fixation,Lo02yB6aHZhShy9mRPf3EEYP8VC3,,,,,,,,,,,,,,,,,,,,,,,5bbd045428989b00019107be,16:58:02,27/03/2024
lmdlab-html-vas-response,192,403701,0.0-79.0-1.0,3520.0,How happy are you right now?,0.24346544743924328,delaylearn,learning,mood_trial,Lo02yB6aHZhShy9mRPf3EEYP8VC3,Lo02yB6aHZhShy9mRPf3EEYP8VC3,,,,,,,,,,,,,,,,,,,,"['Very unhappy', 'Very happy']",,5bbd045428989b00019107be,16:58:02,27/03/2024
html-keyboard-response,193,406173,0.0-80.0,,"<div style=""font-size:100px;"">+</div>",,delaylearn,learning,ITI,Lo02yB6aHZhShy9mRPf3EEYP8VC3,Lo02yB6aHZhShy9mRPf3EEYP8VC3,,,,,,,,,,,,,,,,,,,2470.0,,,5bbd045428989b00019107be,16:58:02,27/03/2024
html-keyboard-response,194,408313,0.0-81.0-0.0,2136.5999999996275,"<div style=""display: flex; flex-direction: column; align-items: center; margin-top: -40px;""><img src=""images/pattern_6.png"" style=""width: 234px; height: 230px; margin-top: -50px;""><div style=""display: flex; justify-content: space-between; margin-top: 33px;""><img src=""images/choice_trial_11.png"" style=""width: 408px; height: 417px; margin-right: 200px;""><img src=""images/choice_trial_5.png"" style=""width: 408px; height: 417px;""></div></div>",f,delaylearn,learning,trial,Lo02yB6aHZhShy9mRPf3EEYP8VC3,Lo02yB6aHZhShy9mRPf3EEYP8VC3,2.0,images/choice_trial_11.png,images/choice_trial_5.png,images/pattern_6.png,j,f,750.0,11.0,5.0,5.0,0.0,35.0,1.0,0.0,11.0,150.0,,,,,,5bbd045428989b00019107be,16:58:02,27/03/2024
html-keyboard-response,195,409316,0.0-81.0-1.0,,"<div style=""display: flex; flex-direction: column; align-items: center; margin-top: -40px;""><img src=""images/pattern_6.png"" style=""width: 234px; height: 230px; margin-top: -50px;""><div style=""display: flex; justify-content: space-between; margin-top: 33px;""><img src=""images/choice_trial_11.png"" style=""width: 408px; height: 417px; margin-right: 608px;""></div></div>",,delaylearn,learning,display_response,Lo02yB6aHZhShy9mRPf3EEYP8VC3,Lo02yB6aHZhShy9mRPf3EEYP8VC3,,,,,,,,,,,,,,,,,chosen stimuli: images/choice_trial_11.png,,,,,5bbd045428989b00019107be,16:58:02,27/03/2024
html-keyboard-response,196,410068,0.0-81.0-2.0,,,,delaylearn,learning,feedback_duration_window,Lo02yB6aHZhShy9mRPf3EEYP8VC3,Lo02yB6aHZhShy9mRPf3EEYP8VC3,,,,,,,,,,,,,,,,,,750.0,,,,5bbd045428989b00019107be,16:58:02,27/03/2024
html-keyboard-response,197,411570,0.0-81.0-3.0,,<div style='margin:auto;width: auto; font-size: 150%'><span style='font-weight: bold; font-size: 100px; color: red;'>0 points!</span><br><br></div>,,delaylearn,learning,feedback_image_window,Lo02yB6aHZhShy9mRPf3EEYP8VC3,Lo02yB6aHZhShy9mRPf3EEYP8VC3,,,,,,,,,,,,,,,,,,,,,,5bbd045428989b00019107be,16:58:02,27/03/2024
html-keyboard-response,198,413887,0.0-82.0,,"<div style=""font-size:100px;"">+</div>",,delaylearn,learning,ITI,Lo02yB6aHZhShy9mRPf3EEYP8VC3,Lo02yB6aHZhShy9mRPf3EEYP8VC3,,,,,,,,,,,,,,,,,,,2316.0,,,5bbd045428989b00019107be,16:58:02,27/03/2024
html-keyboard-response,199,414754,0.0-83.0-0.0,863.3999999994412,"<div style=""display: flex; flex-direction: column; align-items: center; margin-top: -40px;""><img src=""images/pattern_3.png"" style=""width: 234px; height: 230px; margin-top: -50px;""><div style=""display: flex; justify-content: space-between; margin-top: 33px;""><img src=""images/choice_trial_14.png"" style=""width: 408px; height: 417px; margin-right: 200px;""><img src=""images/choice_trial_12.png"" style=""width: 408px; height: 417px;""></div></div>",j,delaylearn,learning,trial,Lo02yB6aHZhShy9mRPf3EEYP8VC3,Lo02yB6aHZhShy9mRPf3EEYP8VC3,2.0,images/choice_trial_14.png,images/choice_trial_12.png,images/pattern_3.png,j,j,7000.0,14.0,12.0,2.0,1.0,36.0,1.0,1.0,12.0,160.0,,,,,,5bbd045428989b00019107be,16:58:02,27/03/2024
html-keyboard-response,200,415756,0.0-83.0-1.0,,"<div style=""display: flex; flex-direction: column; align-items: center; margin-top: -40px;""><img src=""images/pattern_3.png"" style=""width: 234px; height: 230px; margin-top: -50px;""><div style=""display: flex; justify-content: space-between; margin-top: 33px;""><img src=""images/choice_trial_12.png"" style=""width: 408px; height: 417px; margin-left:608px;""></div></div>",,delaylearn,learning,display_response,Lo02yB6aHZhShy9mRPf3EEYP8VC3,Lo02yB6aHZhShy9mRPf3EEYP8VC3,,,,,,,,,,,,,,,,,chosen stimuli: images/choice_trial_12.png,,,,,5bbd045428989b00019107be,16:58:02,27/03/2024
html-keyboard-response,201,422758,0.0-83.0-2.0,,,,delaylearn,learning,feedback_duration_window,Lo02yB6aHZhShy9mRPf3EEYP8VC3,Lo02yB6aHZhShy9mRPf3EEYP8VC3,,,,,,,,,,,,,,,,,,7000.0,,,,5bbd045428989b00019107be,16:58:02,27/03/2024
html-keyboard-response,202,424260,0.0-83.0-3.0,,<div style='margin:auto;width: auto; font-size: 150%'><span style='font-weight: bold; font-size: 100px; color: green;'>+10 points!</span><br><br></div>,,delaylearn,learning,feedback_image_window,Lo02yB6aHZhShy9mRPf3EEYP8VC3,Lo02yB6aHZhShy9mRPf3EEYP8VC3,,,,,,,,,,,,,,,,,,,,,,5bbd045428989b00019107be,16:58:02,27/03/2024
html-keyboard-response,203,426429,0.0-84.0,,"<div style=""font-size:100px;"">+</div>",,delaylearn,learning,ITI,Lo02yB6aHZhShy9mRPf3EEYP8VC3,Lo02yB6aHZhShy9mRPf3EEYP8VC3,,,,,,,,,,,,,,,,,,,2167.0,,,5bbd045428989b00019107be,16:58:02,27/03/2024
html-keyboard-response,204,428952,0.0-85.0-0.0,2519.2000000001863,"<div style=""display: flex; flex-direction: column; align-items: center; margin-top: -40px;""><img src=""images/pattern_4.png"" style=""width: 234px; height: 230px; margin-top: -50px;""><div style=""display: flex; justify-content: space-between; margin-top: 33px;""><img src=""images/choice_trial_16.png"" style=""width: 408px; height: 417px; margin-right: 200px;""><img src=""images/choice_trial_4.png"" style=""width: 408px; height: 417px;""></div></div>",f,delaylearn,learning,trial,Lo02yB6aHZhShy9mRPf3EEYP8VC3,Lo02yB6aHZhShy9mRPf3EEYP8VC3,2.0,images/choice_trial_16.png,images/choice_trial_4.png,images/pattern_4.png,f,j,7000.0,16.0,4.0,3.0,1.0,37.0,0.0,1.0,16.0,170.0,,,,,,5bbd045428989b00019107be,16:58:02,27/03/2024
html-keyboard-response,205,429954,0.0-85.0-1.0,,"<div style=""display: flex; flex-direction: column; align-items: center; margin-top: -40px;""><img src=""images/pattern_4.png"" style=""width: 234px; height: 230px; margin-top: -50px;""><div style=""display: flex; justify-content: space-between; margin-top: 33px;""><img src=""images/choice_trial_16.png"" style=""width: 408px; height: 417px; margin-right: 608px;""></div></div>",,delaylearn,learning,display_response,Lo02yB6aHZhShy9mRPf3EEYP8VC3,Lo02yB6aHZhShy9mRPf3EEYP8VC3,,,,,,,,,,,,,,,,,chosen stimuli: images/choice_trial_16.png,,,,,5bbd045428989b00019107be,16:58:02,27/03/2024
html-keyboard-response,206,436956,0.0-85.0-2.0,,,,delaylearn,learning,feedback_duration_window,Lo02yB6aHZhShy9mRPf3EEYP8VC3,Lo02yB6aHZhShy9mRPf3EEYP8VC3,,,,,,,,,,,,,,,,,,7000.0,,,,5bbd045428989b00019107be,16:58:02,27/03/2024
html-keyboard-response,207,438458,0.0-85.0-3.0,,<div style='margin:auto;width: auto; font-size: 150%'><span style='font-weight: bold; font-size: 100px; color: green;'>+10 points!</span><br><br></div>,,delaylearn,learning,feedback_image_window,Lo02yB6aHZhShy9mRPf3EEYP8VC3,Lo02yB6aHZhShy9mRPf3EEYP8VC3,,,,,,,,,,,,,,,,,,,,,,5bbd045428989b00019107be,16:58:02,27/03/2024
html-keyboard-response,208,440463,0.0-86.0,,"<div style=""font-size:100px;"">+</div>",,delaylearn,learning,ITI,Lo02yB6aHZhShy9mRPf3EEYP8VC3,Lo02yB6aHZhShy9mRPf3EEYP8VC3,,,,,,,,,,,,,,,,,,,2004.0,,,5bbd045428989b00019107be,16:58:02,27/03/2024
html-keyboard-response,209,442324,0.0-87.0-0.0,1857.0,"<div style=""display: flex; flex-direction: column; align-items: center; margin-top: -40px;""><img src=""images/pattern_7.png"" style=""width: 234px; height: 230px; margin-top: -50px;""><div style=""display: flex; justify-content: space-between; margin-top: 33px;""><img src=""images/choice_trial_8.png"" style=""width: 408px; height: 417px; margin-right: 200px;""><img src=""images/choice_trial_15.png"" style=""width: 408px; height: 417px;""></div></div>",f,delaylearn,learning,trial,Lo02yB6aHZhShy9mRPf3EEYP8VC3,Lo02yB6aHZhShy9mRPf3EEYP8VC3,2.0,images/choice_trial_8.png,images/choice_trial_15.png,images/pattern_7.png,f,f,750.0,8.0,15.0,6.0,0.0,38.0,1.0,1.0,8.0,180.0,,,,,,5bbd045428989b00019107be,16:58:02,27/03/2024
html-keyboard-response,210,443326,0.0-87.0-1.0,,"<div style=""display: flex; flex-direction: column; align-items: center; margin-top: -40px;""><img src=""images/pattern_7.png"" style=""width: 234px; height: 230px; margin-top: -50px;""><div style=""display: flex; justify-content: space-between; margin-top: 33px;""><img src=""images/choice_trial_8.png"" style=""width: 408px; height: 417px; margin-right: 608px;""></div></div>",,delaylearn,learning,display_response,Lo02yB6aHZhShy9mRPf3EEYP8VC3,Lo02yB6aHZhShy9mRPf3EEYP8VC3,,,,,,,,,,,,,,,,,chosen stimuli: images/choice_trial_8.png,,,,,5bbd045428989b00019107be,16:58:02,27/03/2024
html-keyboard-response,211,444077,0.0-87.0-2.0,,,,delaylearn,learning,feedback_duration_window,Lo02yB6aHZhShy9mRPf3EEYP8VC3,Lo02yB6aHZhShy9mRPf3EEYP8VC3,,,,,,,,,,,,,,,,,,750.0,,,,5bbd045428989b00019107be,16:58:02,27/03/2024
html-keyboard-response,212,445579,0.0-87.0-3.0,,<div style='margin:auto;width: auto; font-size: 150%'><span style='font-weight: bold; font-size: 100px; color: green;'>+10 points!</span><br><br></div>,,delaylearn,learning,feedback_image_window,Lo02yB6aHZhShy9mRPf3EEYP8VC3,Lo02yB6aHZhShy9mRPf3EEYP8VC3,,,,,,,,,,,,,,,,,,,,,,5bbd045428989b00019107be,16:58:02,27/03/2024
html-keyboard-response,213,447454,0.0-88.0,,"<div style=""font-size:100px;"">+</div>",,delaylearn,learning,ITI,Lo02yB6aHZhShy9mRPf3EEYP8VC3,Lo02yB6aHZhShy9mRPf3EEYP8VC3,,,,,,,,,,,,,,,,,,,1873.0,,,5bbd045428989b00019107be,16:58:02,27/03/2024
html-keyboard-response,214,449035,0.0-89.0-0.0,1577.9000000003725,"<div style=""display: flex; flex-direction: column; align-items: center; margin-top: -40px;""><img src=""images/pattern_1.png"" style=""width: 234px; height: 230px; margin-top: -50px;""><div style=""display: flex; justify-content: space-between; margin-top: 33px;""><img src=""images/choice_trial_3.png"" style=""width: 408px; height: 417px; margin-right: 200px;""><img src=""images/choice_trial_10.png"" style=""width: 408px; height: 417px;""></div></div>",j,delaylearn,learning,trial,Lo02yB6aHZhShy9mRPf3EEYP8VC3,Lo02yB6aHZhShy9mRPf3EEYP8VC3,2.0,images/choice_trial_3.png,images/choice_trial_10.png,images/pattern_1.png,f,f,7000.0,3.0,10.0,1.0,0.0,39.0,0.0,0.0,10.0,180.0,,,,,,5bbd045428989b00019107be,16:58:02,27/03/2024
html-keyboard-response,215,450038,0.0-89.0-1.0,,"<div style=""display: flex; flex-direction: column; align-items: center; margin-top: -40px;""><img src=""images/pattern_1.png"" style=""width: 234px; height: 230px; margin-top: -50px;""><div style=""display: flex; justify-content: space-between; margin-top: 33px;""><img src=""images/choice_trial_10.png"" style=""width: 408px; height: 417px; margin-left:608px;""></div></div>",,delaylearn,learning,display_response,Lo02yB6aHZhShy9mRPf3EEYP8VC3,Lo02yB6aHZhShy9mRPf3EEYP8VC3,,,,,,,,,,,,,,,,,chosen stimuli: images/choice_trial_10.png,,,,,5bbd045428989b00019107be,16:58:02,27/03/2024
html-keyboard-response,216,457039,0.0-89.0-2.0,,,,delaylearn,learning,feedback_duration_window,Lo02yB6aHZhShy9mRPf3EEYP8VC3,Lo02yB6aHZhShy9mRPf3EEYP8VC3,,,,,,,,,,,,,,,,,,7000.0,,,,5bbd045428989b00019107be,16:58:02,27/03/2024
html-keyboard-response,217,458541,0.0-89.0-3.0,,<div style='margin:auto;width: auto; font-size: 150%'><span style='font-weight: bold; font-size: 100px; color: red;'>0 points!</span><br><br></div>,,delaylearn,learning,feedback_image_window,Lo02yB6aHZhShy9mRPf3EEYP8VC3,Lo02yB6aHZhShy9mRPf3EEYP8VC3,,,,,,,,,,,,,,,,,,,,,,5bbd045428989b00019107be,16:58:02,27/03/2024
html-keyboard-response,218,459043,0.0-90.0-0.0,,,,,,mood_trial_fixation,Lo02yB6aHZhShy9mRPf3EEYP8VC3,,,,,,,,,,,,,,,,,,,,,,,5bbd045428989b00019107be,16:58:02,27/03/2024
lmdlab-html-vas-response,219,464005,0.0-90.0-1.0,3956.0,How happy are you right now?,0.12193767538481934,delaylearn,learning,mood_trial,Lo02yB6aHZhShy9mRPf3EEYP8VC3,Lo02yB6aHZhShy9mRPf3EEYP8VC3,,,,,,,,,,,,,,,,,,,,"['Very unhappy', 'Very happy']",,5bbd045428989b00019107be,16:58:02,27/03/2024
html-keyboard-response,220,466442,0.0-91.0,,"<div style=""font-size:100px;"">+</div>",,delaylearn,learning,ITI,Lo02yB6aHZhShy9mRPf3EEYP8VC3,Lo02yB6aHZhShy9mRPf3EEYP8VC3,,,,,,,,,,,,,,,,,,,2435.0,,,5bbd045428989b00019107be,16:58:02,27/03/2024
html-keyboard-response,221,468207,0.0-92.0-0.0,1761.3999999994412,"<div style=""display: flex; flex-direction: column; align-items: center; margin-top: -40px;""><img src=""images/pattern_3.png"" style=""width: 234px; height: 230px; margin-top: -50px;""><div style=""display: flex; justify-content: space-between; margin-top: 33px;""><img src=""images/choice_trial_12.png"" style=""width: 408px; height: 417px; margin-right: 200px;""><img src=""images/choice_trial_14.png"" style=""width: 408px; height: 417px;""></div></div>",f,delaylearn,learning,trial,Lo02yB6aHZhShy9mRPf3EEYP8VC3,Lo02yB6aHZhShy9mRPf3EEYP8VC3,2.0,images/choice_trial_12.png,images/choice_trial_14.png,images/pattern_3.png,j,f,7000.0,12.0,14.0,2.0,0.0,40.0,1.0,0.0,12.0,180.0,,,,,,5bbd045428989b00019107be,16:58:02,27/03/2024
html-keyboard-response,222,469210,0.0-92.0-1.0,,"<div style=""display: flex; flex-direction: column; align-items: center; margin-top: -40px;""><img src=""images/pattern_3.png"" style=""width: 234px; height: 230px; margin-top: -50px;""><div style=""display: flex; justify-content: space-between; margin-top: 33px;""><img src=""images/choice_trial_12.png"" style=""width: 408px; height: 417px; margin-right: 608px;""></div></div>",,delaylearn,learning,display_response,Lo02yB6aHZhShy9mRPf3EEYP8VC3,Lo02yB6aHZhShy9mRPf3EEYP8VC3,,,,,,,,,,,,,,,,,chosen stimuli: images/choice_trial_12.png,,,,,5bbd045428989b00019107be,16:58:02,27/03/2024
html-keyboard-response,223,476212,0.0-92.0-2.0,,,,delaylearn,learning,feedback_duration_window,Lo02yB6aHZhShy9mRPf3EEYP8VC3,Lo02yB6aHZhShy9mRPf3EEYP8VC3,,,,,,,,,,,,,,,,,,7000.0,,,,5bbd045428989b00019107be,16:58:02,27/03/2024
html-keyboard-response,224,477714,0.0-92.0-3.0,,<div style='margin:auto;width: auto; font-size: 150%'><span style='font-weight: bold; font-size: 100px; color: red;'>0 points!</span><br><br></div>,,delaylearn,learning,feedback_image_window,Lo02yB6aHZhShy9mRPf3EEYP8VC3,Lo02yB6aHZhShy9mRPf3EEYP8VC3,,,,,,,,,,,,,,,,,,,,,,5bbd045428989b00019107be,16:58:02,27/03/2024
html-keyboard-response,225,479242,0.0-93.0,,"<div style=""font-size:100px;"">+</div>",,delaylearn,learning,ITI,Lo02yB6aHZhShy9mRPf3EEYP8VC3,Lo02yB6aHZhShy9mRPf3EEYP8VC3,,,,,,,,,,,,,,,,,,,1526.0,,,5bbd045428989b00019107be,16:58:02,27/03/2024
html-keyboard-response,226,482246,0.0-94.0-0.0,,"<div style=""display: flex; flex-direction: column; align-items: center; margin-top: -40px;""><img src=""images/pattern_7.png"" style=""width: 234px; height: 230px; margin-top: -50px;""><div style=""display: flex; justify-content: space-between; margin-top: 33px;""><img src=""images/choice_trial_15.png"" style=""width: 408px; height: 417px; margin-right: 200px;""><img src=""images/choice_trial_8.png"" style=""width: 408px; height: 417px;""></div></div>",,delaylearn,learning,trial,Lo02yB6aHZhShy9mRPf3EEYP8VC3,Lo02yB6aHZhShy9mRPf3EEYP8VC3,2.0,images/choice_trial_15.png,images/choice_trial_8.png,images/pattern_7.png,j,j,750.0,15.0,8.0,6.0,1.0,41.0,0.0,0.0,0.0,180.0,,,,,,5bbd045428989b00019107be,16:58:02,27/03/2024
html-keyboard-response,227,483248,0.0-94.0-1.0,,<div style='font-weight: bold; font-size: 75px; color: red;'>Missed Trial <br><br><br><br> Please respond faster</div>,,delaylearn,learning,display_response,Lo02yB6aHZhShy9mRPf3EEYP8VC3,Lo02yB6aHZhShy9mRPf3EEYP8VC3,,,,,,,,,,,,,,,,,Missed trial,,,,,5bbd045428989b00019107be,16:58:02,27/03/2024
html-keyboard-response,228,483253,0.0-94.0-2.0,,,,delaylearn,learning,feedback_duration_window,Lo02yB6aHZhShy9mRPf3EEYP8VC3,Lo02yB6aHZhShy9mRPf3EEYP8VC3,,,,,,,,,,,,,,,,,,0.0,,,,5bbd045428989b00019107be,16:58:02,27/03/2024
html-keyboard-response,229,483258,0.0-94.0-3.0,,,,delaylearn,learning,feedback_image_window,Lo02yB6aHZhShy9mRPf3EEYP8VC3,Lo02yB6aHZhShy9mRPf3EEYP8VC3,,,,,,,,,,,,,,,,,,,,,,5bbd045428989b00019107be,16:58:02,27/03/2024
html-keyboard-response,230,484916,0.0-95.0,,"<div style=""font-size:100px;"">+</div>",,delaylearn,learning,ITI,Lo02yB6aHZhShy9mRPf3EEYP8VC3,Lo02yB6aHZhShy9mRPf3EEYP8VC3,,,,,,,,,,,,,,,,,,,1657.0,,,5bbd045428989b00019107be,16:58:02,27/03/2024
