trial_type,trial_index,time_elapsed,internal_node_id,rt,stimulus,response,exp_name,exp_stage,test_part,subjectID,databaseID,counterbal,choice_stimuli_1,choice_stimuli_2,pattern_stimuli,rewarded_answer,correct_answer,feedback_duration_times,stim_left,stim_right,pair,leftright_counter,trial,response_correct,response_rewarded,chosen_stim,counter,displayed_choice,feedback_durations,ITI_duration,labels,rest_warning,prolificID,start_time,date
pavlovia,0,624,0.0-0.0,,,,,,,mGACIVCeOxdXDAyBmvTnNv4ttT72,,,,,,,,,,,,,,,,,,,,,,,63468c2501e33edb7ecf1907,16:50:49,27/03/2024
html-keyboard-response,1,3629,0.0-1.0,,"<div style=""font-size:100px;"">+</div>",,delaylearn,learning,pre_fixation,mGACIVCeOxdXDAyBmvTnNv4ttT72,,,,,,,,,,,,,,,,,,,,,,,63468c2501e33edb7ecf1907,16:50:49,27/03/2024
html-keyboard-response,2,4214,0.0-2.0-0.0,582.2000000476837,"<div style=""display: flex; flex-direction: column; align-items: center; margin-top: -40px;""><img src=""images/demo_images/pattern_1.png"" style=""width: 234px; height: 230px; margin-top: -50px;""><div style=""display: flex; justify-content: space-between; margin-top: 33px;""><img src=""images/demo_images/choice_trial_2.png"" style=""width: 408px; height: 417px; margin-right: 200px;""><img src=""images/demo_images/choice_trial_1.png"" style=""width: 408px; height: 417px;""></div></div>",j,delaylearn,learning,trial,mGACIVCeOxdXDAyBmvTnNv4ttT72,mGACIVCeOxdXDAyBmvTnNv4ttT72,1.0,images/demo_images/choice_trial_2.png,images/demo_images/choice_trial_1.png,images/demo_images/pattern_1.png,j,j,3000.0,2.0,1.0,20.0,1.0,1.0,1.0,1.0,1.0,10.0,,,,,,63468c2501e33edb7ecf1907,16:50:49,27/03/2024
html-keyboard-response,3,5221,0.0-2.0-1.0,,"<div style=""display: flex; flex-direction: column; align-items: center; margin-top: -40px;""><img src=""images/demo_images/pattern_1.png"" style=""width: 234px; height: 230px; margin-top: -50px;""><div style=""display: flex; justify-content: space-between; margin-top: 33px;""><img src=""images/demo_images/choice_trial_1.png"" style=""width: 408px; height: 417px; margin-left:608px;""></div></div>",,delaylearn,learning,display_response,mGACIVCeOxdXDAyBmvTnNv4ttT72,mGACIVCeOxdXDAyBmvTnNv4ttT72,,,,,,,,,,,,,,,,,chosen stimuli: images/demo_images/choice_trial_1.png,,,,,63468c2501e33edb7ecf1907,16:50:49,27/03/2024
html-keyboard-response,4,8228,0.0-2.0-2.0,,,,delaylearn,learning,feedback_duration_window,mGACIVCeOxdXDAyBmvTnNv4ttT72,mGACIVCeOxdXDAyBmvTnNv4ttT72,,,,,,,,,,,,,,,,,,3000.0,,,,63468c2501e33edb7ecf1907,16:50:49,27/03/2024
html-keyboard-response,5,9736,0.0-2.0-3.0,,<div style='margin:auto;width: auto; font-size: 150%'><span style='font-weight: bold; font-size: 100px; color: green;'>+10 points!</span><br><br></div>,,delaylearn,learning,feedback_image_window,mGACIVCeOxdXDAyBmvTnNv4ttT72,mGACIVCeOxdXDAyBmvTnNv4ttT72,,,,,,,,,,,,,,,,,,,,,,63468c2501e33edb7ecf1907,16:50:49,27/03/2024
html-keyboard-response,6,11530,0.0-3.0,,"<div style=""font-size:100px;"">+</div>",,delaylearn,learning,ITI,mGACIVCeOxdXDAyBmvTnNv4ttT72,mGACIVCeOxdXDAyBmvTnNv4ttT72,,,,,,,,,,,,,,,,,,,1788.0,,,63468c2501e33edb7ecf1907,16:50:49,27/03/2024
html-keyboard-response,7,12216,0.0-4.0-0.0,682.2999999523163,"<div style=""display: flex; flex-direction: column; align-items: center; margin-top: -40px;""><img src=""images/demo_images/pattern_1.png"" style=""width: 234px; height: 230px; margin-top: -50px;""><div style=""display: flex; justify-content: space-between; margin-top: 33px;""><img src=""images/demo_images/choice_trial_2.png"" style=""width: 408px; height: 417px; margin-right: 200px;""><img src=""images/demo_images/choice_trial_1.png"" style=""width: 408px; height: 417px;""></div></div>",j,delaylearn,learning,trial,mGACIVCeOxdXDAyBmvTnNv4ttT72,mGACIVCeOxdXDAyBmvTnNv4ttT72,1.0,images/demo_images/choice_trial_2.png,images/demo_images/choice_trial_1.png,images/demo_images/pattern_1.png,j,j,3000.0,2.0,1.0,20.0,1.0,2.0,1.0,1.0,1.0,20.0,,,,,,63468c2501e33edb7ecf1907,16:50:49,27/03/2024
html-keyboard-response,8,13221,0.0-4.0-1.0,,"<div style=""display: flex; flex-direction: column; align-items: center; margin-top: -40px;""><img src=""images/demo_images/pattern_1.png"" style=""width: 234px; height: 230px; margin-top: -50px;""><div style=""display: flex; justify-content: space-between; margin-top: 33px;""><img src=""images/demo_images/choice_trial_1.png"" style=""width: 408px; height: 417px; margin-left:608px;""></div></div>",,delaylearn,learning,display_response,mGACIVCeOxdXDAyBmvTnNv4ttT72,mGACIVCeOxdXDAyBmvTnNv4ttT72,,,,,,,,,,,,,,,,,chosen stimuli: images/demo_images/choice_trial_1.png,,,,,63468c2501e33edb7ecf1907,16:50:49,27/03/2024
html-keyboard-response,9,16228,0.0-4.0-2.0,,,,delaylearn,learning,feedback_duration_window,mGACIVCeOxdXDAyBmvTnNv4ttT72,mGACIVCeOxdXDAyBmvTnNv4ttT72,,,,,,,,,,,,,,,,,,3000.0,,,,63468c2501e33edb7ecf1907,16:50:49,27/03/2024
html-keyboard-response,10,17732,0.0-4.0-3.0,,<div style='margin:auto;width: auto; font-size: 150%'><span style='font-weight: bold; font-size: 100px; color: green;'>+10 points!</span><br><br></div>,,delaylearn,learning,feedback_image_window,mGACIVCeOxdXDAyBmvTnNv4ttT72,mGACIVCeOxdXDAyBmvTnNv4ttT72,,,,,,,,,,,,,,,,,,,,,,63468c2501e33edb7ecf1907,16:50:49,27/03/2024
html-keyboard-response,11,19508,0.0-5.0,,"<div style=""font-size:100px;"">+</div>",,delaylearn,learning,ITI,mGACIVCeOxdXDAyBmvTnNv4ttT72,mGACIVCeOxdXDAyBmvTnNv4ttT72,,,,,,,,,,,,,,,,,,,1769.0,,,63468c2501e33edb7ecf1907,16:50:49,27/03/2024
html-keyboard-response,12,20133,0.0-6.0-0.0,622.2999999523163,"<div style=""display: flex; flex-direction: column; align-items: center; margin-top: -40px;""><img src=""images/demo_images/pattern_1.png"" style=""width: 234px; height: 230px; margin-top: -50px;""><div style=""display: flex; justify-content: space-between; margin-top: 33px;""><img src=""images/demo_images/choice_trial_1.png"" style=""width: 408px; height: 417px; margin-right: 200px;""><img src=""images/demo_images/choice_trial_2.png"" style=""width: 408px; height: 417px;""></div></div>",f,delaylearn,learning,trial,mGACIVCeOxdXDAyBmvTnNv4ttT72,mGACIVCeOxdXDAyBmvTnNv4ttT72,1.0,images/demo_images/choice_trial_1.png,images/demo_images/choice_trial_2.png,images/demo_images/pattern_1.png,j,f,3000.0,1.0,2.0,20.0,0.0,3.0,1.0,0.0,1.0,20.0,,,,,,63468c2501e33edb7ecf1907,16:50:49,27/03/2024
html-keyboard-response,13,21139,0.0-6.0-1.0,,"<div style=""display: flex; flex-direction: column; align-items: center; margin-top: -40px;""><img src=""images/demo_images/pattern_1.png"" style=""width: 234px; height: 230px; margin-top: -50px;""><div style=""display: flex; justify-content: space-between; margin-top: 33px;""><img src=""images/demo_images/choice_trial_1.png"" style=""width: 408px; height: 417px; margin-right: 608px;""></div></div>",,delaylearn,learning,display_response,mGACIVCeOxdXDAyBmvTnNv4ttT72,mGACIVCeOxdXDAyBmvTnNv4ttT72,,,,,,,,,,,,,,,,,chosen stimuli: images/demo_images/choice_trial_1.png,,,,,63468c2501e33edb7ecf1907,16:50:49,27/03/2024
html-keyboard-response,14,24142,0.0-6.0-2.0,,,,delaylearn,learning,feedback_duration_window,mGACIVCeOxdXDAyBmvTnNv4ttT72,mGACIVCeOxdXDAyBmvTnNv4ttT72,,,,,,,,,,,,,,,,,,3000.0,,,,63468c2501e33edb7ecf1907,16:50:49,27/03/2024
html-keyboard-response,15,25648,0.0-6.0-3.0,,<div style='margin:auto;width: auto; font-size: 150%'><span style='font-weight: bold; font-size: 100px; color: red;'>0 points!</span><br><br></div>,,delaylearn,learning,feedback_image_window,mGACIVCeOxdXDAyBmvTnNv4ttT72,mGACIVCeOxdXDAyBmvTnNv4ttT72,,,,,,,,,,,,,,,,,,,,,,63468c2501e33edb7ecf1907,16:50:49,27/03/2024
html-keyboard-response,16,27433,0.0-7.0,,"<div style=""font-size:100px;"">+</div>",,delaylearn,learning,ITI,mGACIVCeOxdXDAyBmvTnNv4ttT72,mGACIVCeOxdXDAyBmvTnNv4ttT72,,,,,,,,,,,,,,,,,,,1779.0,,,63468c2501e33edb7ecf1907,16:50:49,27/03/2024
html-keyboard-response,17,28236,0.0-8.0-0.0,799.9000000953674,"<div style=""display: flex; flex-direction: column; align-items: center; margin-top: -40px;""><img src=""images/demo_images/pattern_1.png"" style=""width: 234px; height: 230px; margin-top: -50px;""><div style=""display: flex; justify-content: space-between; margin-top: 33px;""><img src=""images/demo_images/choice_trial_1.png"" style=""width: 408px; height: 417px; margin-right: 200px;""><img src=""images/demo_images/choice_trial_2.png"" style=""width: 408px; height: 417px;""></div></div>",j,delaylearn,learning,trial,mGACIVCeOxdXDAyBmvTnNv4ttT72,mGACIVCeOxdXDAyBmvTnNv4ttT72,1.0,images/demo_images/choice_trial_1.png,images/demo_images/choice_trial_2.png,images/demo_images/pattern_1.png,f,f,3000.0,1.0,2.0,20.0,0.0,4.0,0.0,0.0,2.0,20.0,,,,,,63468c2501e33edb7ecf1907,16:50:49,27/03/2024
html-keyboard-response,18,29242,0.0-8.0-1.0,,"<div style=""display: flex; flex-direction: column; align-items: center; margin-top: -40px;""><img src=""images/demo_images/pattern_1.png"" style=""width: 234px; height: 230px; margin-top: -50px;""><div style=""display: flex; justify-content: space-between; margin-top: 33px;""><img src=""images/demo_images/choice_trial_2.png"" style=""width: 408px; height: 417px; margin-left:608px;""></div></div>",,delaylearn,learning,display_response,mGACIVCeOxdXDAyBmvTnNv4ttT72,mGACIVCeOxdXDAyBmvTnNv4ttT72,,,,,,,,,,,,,,,,,chosen stimuli: images/demo_images/choice_trial_2.png,,,,,63468c2501e33edb7ecf1907,16:50:49,27/03/2024
html-keyboard-response,19,32246,0.0-8.0-2.0,,,,delaylearn,learning,feedback_duration_window,mGACIVCeOxdXDAyBmvTnNv4ttT72,mGACIVCeOxdXDAyBmvTnNv4ttT72,,,,,,,,,,,,,,,,,,3000.0,,,,63468c2501e33edb7ecf1907,16:50:49,27/03/2024
html-keyboard-response,20,33753,0.0-8.0-3.0,,<div style='margin:auto;width: auto; font-size: 150%'><span style='font-weight: bold; font-size: 100px; color: red;'>0 points!</span><br><br></div>,,delaylearn,learning,feedback_image_window,mGACIVCeOxdXDAyBmvTnNv4ttT72,mGACIVCeOxdXDAyBmvTnNv4ttT72,,,,,,,,,,,,,,,,,,,,,,63468c2501e33edb7ecf1907,16:50:49,27/03/2024
html-keyboard-response,21,34255,0.0-9.0-0.0,,,,,,mood_trial_fixation,mGACIVCeOxdXDAyBmvTnNv4ttT72,,,,,,,,,,,,,,,,,,,,,,,63468c2501e33edb7ecf1907,16:50:49,27/03/2024
lmdlab-html-vas-response,22,39776,0.0-9.0-1.0,4505.0,How happy are you right now?,0.5083332824707031,delaylearn,learning,mood_trial,mGACIVCeOxdXDAyBmvTnNv4ttT72,mGACIVCeOxdXDAyBmvTnNv4ttT72,,,,,,,,,,,,,,,,,,,,"['Very unhappy', 'Very happy']",,63468c2501e33edb7ecf1907,16:50:49,27/03/2024
html-keyboard-response,23,41950,0.0-10.0,,"<div style=""font-size:100px;"">+</div>",,delaylearn,learning,ITI,mGACIVCeOxdXDAyBmvTnNv4ttT72,mGACIVCeOxdXDAyBmvTnNv4ttT72,,,,,,,,,,,,,,,,,,,2168.0,,,63468c2501e33edb7ecf1907,16:50:49,27/03/2024
html-keyboard-response,24,42544,0.0-11.0-0.0,591.1000001430511,"<div style=""display: flex; flex-direction: column; align-items: center; margin-top: -40px;""><img src=""images/demo_images/pattern_1.png"" style=""width: 234px; height: 230px; margin-top: -50px;""><div style=""display: flex; justify-content: space-between; margin-top: 33px;""><img src=""images/demo_images/choice_trial_2.png"" style=""width: 408px; height: 417px; margin-right: 200px;""><img src=""images/demo_images/choice_trial_1.png"" style=""width: 408px; height: 417px;""></div></div>",j,delaylearn,learning,trial,mGACIVCeOxdXDAyBmvTnNv4ttT72,mGACIVCeOxdXDAyBmvTnNv4ttT72,1.0,images/demo_images/choice_trial_2.png,images/demo_images/choice_trial_1.png,images/demo_images/pattern_1.png,j,j,3000.0,2.0,1.0,20.0,1.0,5.0,1.0,1.0,1.0,30.0,,,,,,63468c2501e33edb7ecf1907,16:50:49,27/03/2024
html-keyboard-response,25,43549,0.0-11.0-1.0,,"<div style=""display: flex; flex-direction: column; align-items: center; margin-top: -40px;""><img src=""images/demo_images/pattern_1.png"" style=""width: 234px; height: 230px; margin-top: -50px;""><div style=""display: flex; justify-content: space-between; margin-top: 33px;""><img src=""images/demo_images/choice_trial_1.png"" style=""width: 408px; height: 417px; margin-left:608px;""></div></div>",,delaylearn,learning,display_response,mGACIVCeOxdXDAyBmvTnNv4ttT72,mGACIVCeOxdXDAyBmvTnNv4ttT72,,,,,,,,,,,,,,,,,chosen stimuli: images/demo_images/choice_trial_1.png,,,,,63468c2501e33edb7ecf1907,16:50:49,27/03/2024
html-keyboard-response,26,46556,0.0-11.0-2.0,,,,delaylearn,learning,feedback_duration_window,mGACIVCeOxdXDAyBmvTnNv4ttT72,mGACIVCeOxdXDAyBmvTnNv4ttT72,,,,,,,,,,,,,,,,,,3000.0,,,,63468c2501e33edb7ecf1907,16:50:49,27/03/2024
html-keyboard-response,27,48059,0.0-11.0-3.0,,<div style='margin:auto;width: auto; font-size: 150%'><span style='font-weight: bold; font-size: 100px; color: green;'>+10 points!</span><br><br></div>,,delaylearn,learning,feedback_image_window,mGACIVCeOxdXDAyBmvTnNv4ttT72,mGACIVCeOxdXDAyBmvTnNv4ttT72,,,,,,,,,,,,,,,,,,,,,,63468c2501e33edb7ecf1907,16:50:49,27/03/2024
html-keyboard-response,28,50502,0.0-12.0,,"<div style=""font-size:100px;"">+</div>",,delaylearn,learning,ITI,mGACIVCeOxdXDAyBmvTnNv4ttT72,mGACIVCeOxdXDAyBmvTnNv4ttT72,,,,,,,,,,,,,,,,,,,2436.0,,,63468c2501e33edb7ecf1907,16:50:49,27/03/2024
html-keyboard-response,29,51308,0.0-13.0-0.0,802.0,"<div style=""display: flex; flex-direction: column; align-items: center; margin-top: -40px;""><img src=""images/demo_images/pattern_1.png"" style=""width: 234px; height: 230px; margin-top: -50px;""><div style=""display: flex; justify-content: space-between; margin-top: 33px;""><img src=""images/demo_images/choice_trial_1.png"" style=""width: 408px; height: 417px; margin-right: 200px;""><img src=""images/demo_images/choice_trial_2.png"" style=""width: 408px; height: 417px;""></div></div>",j,delaylearn,learning,trial,mGACIVCeOxdXDAyBmvTnNv4ttT72,mGACIVCeOxdXDAyBmvTnNv4ttT72,1.0,images/demo_images/choice_trial_1.png,images/demo_images/choice_trial_2.png,images/demo_images/pattern_1.png,f,f,3000.0,1.0,2.0,20.0,0.0,6.0,0.0,0.0,2.0,30.0,,,,,,63468c2501e33edb7ecf1907,16:50:49,27/03/2024
html-keyboard-response,30,52315,0.0-13.0-1.0,,"<div style=""display: flex; flex-direction: column; align-items: center; margin-top: -40px;""><img src=""images/demo_images/pattern_1.png"" style=""width: 234px; height: 230px; margin-top: -50px;""><div style=""display: flex; justify-content: space-between; margin-top: 33px;""><img src=""images/demo_images/choice_trial_2.png"" style=""width: 408px; height: 417px; margin-left:608px;""></div></div>",,delaylearn,learning,display_response,mGACIVCeOxdXDAyBmvTnNv4ttT72,mGACIVCeOxdXDAyBmvTnNv4ttT72,,,,,,,,,,,,,,,,,chosen stimuli: images/demo_images/choice_trial_2.png,,,,,63468c2501e33edb7ecf1907,16:50:49,27/03/2024
html-keyboard-response,31,55320,0.0-13.0-2.0,,,,delaylearn,learning,feedback_duration_window,mGACIVCeOxdXDAyBmvTnNv4ttT72,mGACIVCeOxdXDAyBmvTnNv4ttT72,,,,,,,,,,,,,,,,,,3000.0,,,,63468c2501e33edb7ecf1907,16:50:49,27/03/2024
html-keyboard-response,32,56827,0.0-13.0-3.0,,<div style='margin:auto;width: auto; font-size: 150%'><span style='font-weight: bold; font-size: 100px; color: red;'>0 points!</span><br><br></div>,,delaylearn,learning,feedback_image_window,mGACIVCeOxdXDAyBmvTnNv4ttT72,mGACIVCeOxdXDAyBmvTnNv4ttT72,,,,,,,,,,,,,,,,,,,,,,63468c2501e33edb7ecf1907,16:50:49,27/03/2024
html-keyboard-response,33,58900,0.0-14.0,,"<div style=""font-size:100px;"">+</div>",,delaylearn,learning,ITI,mGACIVCeOxdXDAyBmvTnNv4ttT72,mGACIVCeOxdXDAyBmvTnNv4ttT72,,,,,,,,,,,,,,,,,,,2068.0,,,63468c2501e33edb7ecf1907,16:50:49,27/03/2024
html-keyboard-response,34,59477,0.0-15.0-0.0,573.8000001907349,"<div style=""display: flex; flex-direction: column; align-items: center; margin-top: -40px;""><img src=""images/demo_images/pattern_1.png"" style=""width: 234px; height: 230px; margin-top: -50px;""><div style=""display: flex; justify-content: space-between; margin-top: 33px;""><img src=""images/demo_images/choice_trial_2.png"" style=""width: 408px; height: 417px; margin-right: 200px;""><img src=""images/demo_images/choice_trial_1.png"" style=""width: 408px; height: 417px;""></div></div>",j,delaylearn,learning,trial,mGACIVCeOxdXDAyBmvTnNv4ttT72,mGACIVCeOxdXDAyBmvTnNv4ttT72,1.0,images/demo_images/choice_trial_2.png,images/demo_images/choice_trial_1.png,images/demo_images/pattern_1.png,j,j,3000.0,2.0,1.0,20.0,1.0,7.0,1.0,1.0,1.0,40.0,,,,,,63468c2501e33edb7ecf1907,16:50:49,27/03/2024
html-keyboard-response,35,60483,0.0-15.0-1.0,,"<div style=""display: flex; flex-direction: column; align-items: center; margin-top: -40px;""><img src=""images/demo_images/pattern_1.png"" style=""width: 234px; height: 230px; margin-top: -50px;""><div style=""display: flex; justify-content: space-between; margin-top: 33px;""><img src=""images/demo_images/choice_trial_1.png"" style=""width: 408px; height: 417px; margin-left:608px;""></div></div>",,delaylearn,learning,display_response,mGACIVCeOxdXDAyBmvTnNv4ttT72,mGACIVCeOxdXDAyBmvTnNv4ttT72,,,,,,,,,,,,,,,,,chosen stimuli: images/demo_images/choice_trial_1.png,,,,,63468c2501e33edb7ecf1907,16:50:49,27/03/2024
html-keyboard-response,36,63489,0.0-15.0-2.0,,,,delaylearn,learning,feedback_duration_window,mGACIVCeOxdXDAyBmvTnNv4ttT72,mGACIVCeOxdXDAyBmvTnNv4ttT72,,,,,,,,,,,,,,,,,,3000.0,,,,63468c2501e33edb7ecf1907,16:50:49,27/03/2024
html-keyboard-response,37,64997,0.0-15.0-3.0,,<div style='margin:auto;width: auto; font-size: 150%'><span style='font-weight: bold; font-size: 100px; color: green;'>+10 points!</span><br><br></div>,,delaylearn,learning,feedback_image_window,mGACIVCeOxdXDAyBmvTnNv4ttT72,mGACIVCeOxdXDAyBmvTnNv4ttT72,,,,,,,,,,,,,,,,,,,,,,63468c2501e33edb7ecf1907,16:50:49,27/03/2024
html-keyboard-response,38,67209,0.0-16.0,,"<div style=""font-size:100px;"">+</div>",,delaylearn,learning,ITI,mGACIVCeOxdXDAyBmvTnNv4ttT72,mGACIVCeOxdXDAyBmvTnNv4ttT72,,,,,,,,,,,,,,,,,,,2206.0,,,63468c2501e33edb7ecf1907,16:50:49,27/03/2024
html-keyboard-response,39,67752,0.0-17.0-0.0,540.2000000476837,"<div style=""display: flex; flex-direction: column; align-items: center; margin-top: -40px;""><img src=""images/demo_images/pattern_1.png"" style=""width: 234px; height: 230px; margin-top: -50px;""><div style=""display: flex; justify-content: space-between; margin-top: 33px;""><img src=""images/demo_images/choice_trial_1.png"" style=""width: 408px; height: 417px; margin-right: 200px;""><img src=""images/demo_images/choice_trial_2.png"" style=""width: 408px; height: 417px;""></div></div>",f,delaylearn,learning,trial,mGACIVCeOxdXDAyBmvTnNv4ttT72,mGACIVCeOxdXDAyBmvTnNv4ttT72,1.0,images/demo_images/choice_trial_1.png,images/demo_images/choice_trial_2.png,images/demo_images/pattern_1.png,f,f,3000.0,1.0,2.0,20.0,0.0,8.0,1.0,1.0,1.0,50.0,,,,,,63468c2501e33edb7ecf1907,16:50:49,27/03/2024
html-keyboard-response,40,68760,0.0-17.0-1.0,,"<div style=""display: flex; flex-direction: column; align-items: center; margin-top: -40px;""><img src=""images/demo_images/pattern_1.png"" style=""width: 234px; height: 230px; margin-top: -50px;""><div style=""display: flex; justify-content: space-between; margin-top: 33px;""><img src=""images/demo_images/choice_trial_1.png"" style=""width: 408px; height: 417px; margin-right: 608px;""></div></div>",,delaylearn,learning,display_response,mGACIVCeOxdXDAyBmvTnNv4ttT72,mGACIVCeOxdXDAyBmvTnNv4ttT72,,,,,,,,,,,,,,,,,chosen stimuli: images/demo_images/choice_trial_1.png,,,,,63468c2501e33edb7ecf1907,16:50:49,27/03/2024
html-keyboard-response,41,71768,0.0-17.0-2.0,,,,delaylearn,learning,feedback_duration_window,mGACIVCeOxdXDAyBmvTnNv4ttT72,mGACIVCeOxdXDAyBmvTnNv4ttT72,,,,,,,,,,,,,,,,,,3000.0,,,,63468c2501e33edb7ecf1907,16:50:49,27/03/2024
html-keyboard-response,42,73275,0.0-17.0-3.0,,<div style='margin:auto;width: auto; font-size: 150%'><span style='font-weight: bold; font-size: 100px; color: green;'>+10 points!</span><br><br></div>,,delaylearn,learning,feedback_image_window,mGACIVCeOxdXDAyBmvTnNv4ttT72,mGACIVCeOxdXDAyBmvTnNv4ttT72,,,,,,,,,,,,,,,,,,,,,,63468c2501e33edb7ecf1907,16:50:49,27/03/2024
html-button-response,43,79290,0.0-18.0,6012.600000143051,"
  <div style=""display: flex; align-items: center; justify-content: center; height: 80vh;"">
  <div>
          <img src=""images/inst_demo_finish.png"" style=""width: 80vw; height:auto;"">
          <br><br>
      </div>
      <br><br>
  </div>",0,,,,mGACIVCeOxdXDAyBmvTnNv4ttT72,,,,,,,,,,,,,,,,,,,,,,,63468c2501e33edb7ecf1907,16:50:49,27/03/2024
html-keyboard-response,44,86424,0.0-19.0,7132.700000047684,"
  <div style=""display: flex; align-items: center; justify-content: center; height: 80vh;"">
  <div>
          <img src=""images/inst_6.png"" style=""width: 80vw; height:auto;"">
          <br><br>
      </div>
      <br><br>
  </div>",j,,,,mGACIVCeOxdXDAyBmvTnNv4ttT72,,,,,,,,,,,,,,,,,,,,,,,63468c2501e33edb7ecf1907,16:50:49,27/03/2024
html-keyboard-response,45,89431,0.0-20.0,,"<div style=""font-size:100px;"">+</div>",,delaylearn,learning,pre_fixation,mGACIVCeOxdXDAyBmvTnNv4ttT72,,,,,,,,,,,,,,,,,,,,,,,63468c2501e33edb7ecf1907,16:50:49,27/03/2024
html-keyboard-response,46,91020,0.0-21.0,,"<div style=""font-size:100px;"">+</div>",,delaylearn,learning,ITI,mGACIVCeOxdXDAyBmvTnNv4ttT72,mGACIVCeOxdXDAyBmvTnNv4ttT72,,,,,,,,,,,,,,,,,,,1584.0,,,63468c2501e33edb7ecf1907,16:50:49,27/03/2024
html-keyboard-response,47,91967,0.0-22.0-0.0,943.4000000953674,"<div style=""display: flex; flex-direction: column; align-items: center; margin-top: -40px;""><img src=""images/pattern_3.png"" style=""width: 234px; height: 230px; margin-top: -50px;""><div style=""display: flex; justify-content: space-between; margin-top: 33px;""><img src=""images/choice_trial_5.png"" style=""width: 408px; height: 417px; margin-right: 200px;""><img src=""images/choice_trial_6.png"" style=""width: 408px; height: 417px;""></div></div>",f,delaylearn,learning,trial,mGACIVCeOxdXDAyBmvTnNv4ttT72,mGACIVCeOxdXDAyBmvTnNv4ttT72,1.0,images/choice_trial_5.png,images/choice_trial_6.png,images/pattern_3.png,f,f,7000.0,5.0,6.0,2.0,0.0,9.0,1.0,1.0,5.0,60.0,,,,,,63468c2501e33edb7ecf1907,16:50:49,27/03/2024
html-keyboard-response,48,92971,0.0-22.0-1.0,,"<div style=""display: flex; flex-direction: column; align-items: center; margin-top: -40px;""><img src=""images/pattern_3.png"" style=""width: 234px; height: 230px; margin-top: -50px;""><div style=""display: flex; justify-content: space-between; margin-top: 33px;""><img src=""images/choice_trial_5.png"" style=""width: 408px; height: 417px; margin-right: 608px;""></div></div>",,delaylearn,learning,display_response,mGACIVCeOxdXDAyBmvTnNv4ttT72,mGACIVCeOxdXDAyBmvTnNv4ttT72,,,,,,,,,,,,,,,,,chosen stimuli: images/choice_trial_5.png,,,,,63468c2501e33edb7ecf1907,16:50:49,27/03/2024
html-keyboard-response,49,99977,0.0-22.0-2.0,,,,delaylearn,learning,feedback_duration_window,mGACIVCeOxdXDAyBmvTnNv4ttT72,mGACIVCeOxdXDAyBmvTnNv4ttT72,,,,,,,,,,,,,,,,,,7000.0,,,,63468c2501e33edb7ecf1907,16:50:49,27/03/2024
html-keyboard-response,50,101485,0.0-22.0-3.0,,<div style='margin:auto;width: auto; font-size: 150%'><span style='font-weight: bold; font-size: 100px; color: green;'>+10 points!</span><br><br></div>,,delaylearn,learning,feedback_image_window,mGACIVCeOxdXDAyBmvTnNv4ttT72,mGACIVCeOxdXDAyBmvTnNv4ttT72,,,,,,,,,,,,,,,,,,,,,,63468c2501e33edb7ecf1907,16:50:49,27/03/2024
html-keyboard-response,51,103260,0.0-23.0,,"<div style=""font-size:100px;"">+</div>",,delaylearn,learning,ITI,mGACIVCeOxdXDAyBmvTnNv4ttT72,mGACIVCeOxdXDAyBmvTnNv4ttT72,,,,,,,,,,,,,,,,,,,1769.0,,,63468c2501e33edb7ecf1907,16:50:49,27/03/2024
html-keyboard-response,52,104622,0.0-24.0-0.0,1358.6000001430511,"<div style=""display: flex; flex-direction: column; align-items: center; margin-top: -40px;""><img src=""images/pattern_7.png"" style=""width: 234px; height: 230px; margin-top: -50px;""><div style=""display: flex; justify-content: space-between; margin-top: 33px;""><img src=""images/choice_trial_14.png"" style=""width: 408px; height: 417px; margin-right: 200px;""><img src=""images/choice_trial_13.png"" style=""width: 408px; height: 417px;""></div></div>",f,delaylearn,learning,trial,mGACIVCeOxdXDAyBmvTnNv4ttT72,mGACIVCeOxdXDAyBmvTnNv4ttT72,1.0,images/choice_trial_14.png,images/choice_trial_13.png,images/pattern_7.png,j,j,750.0,14.0,13.0,6.0,1.0,10.0,0.0,0.0,14.0,60.0,,,,,,63468c2501e33edb7ecf1907,16:50:49,27/03/2024
html-keyboard-response,53,105630,0.0-24.0-1.0,,"<div style=""display: flex; flex-direction: column; align-items: center; margin-top: -40px;""><img src=""images/pattern_7.png"" style=""width: 234px; height: 230px; margin-top: -50px;""><div style=""display: flex; justify-content: space-between; margin-top: 33px;""><img src=""images/choice_trial_14.png"" style=""width: 408px; height: 417px; margin-right: 608px;""></div></div>",,delaylearn,learning,display_response,mGACIVCeOxdXDAyBmvTnNv4ttT72,mGACIVCeOxdXDAyBmvTnNv4ttT72,,,,,,,,,,,,,,,,,chosen stimuli: images/choice_trial_14.png,,,,,63468c2501e33edb7ecf1907,16:50:49,27/03/2024
html-keyboard-response,54,106387,0.0-24.0-2.0,,,,delaylearn,learning,feedback_duration_window,mGACIVCeOxdXDAyBmvTnNv4ttT72,mGACIVCeOxdXDAyBmvTnNv4ttT72,,,,,,,,,,,,,,,,,,750.0,,,,63468c2501e33edb7ecf1907,16:50:49,27/03/2024
html-keyboard-response,55,107895,0.0-24.0-3.0,,<div style='margin:auto;width: auto; font-size: 150%'><span style='font-weight: bold; font-size: 100px; color: red;'>0 points!</span><br><br></div>,,delaylearn,learning,feedback_image_window,mGACIVCeOxdXDAyBmvTnNv4ttT72,mGACIVCeOxdXDAyBmvTnNv4ttT72,,,,,,,,,,,,,,,,,,,,,,63468c2501e33edb7ecf1907,16:50:49,27/03/2024
html-keyboard-response,56,109837,0.0-25.0,,"<div style=""font-size:100px;"">+</div>",,delaylearn,learning,ITI,mGACIVCeOxdXDAyBmvTnNv4ttT72,mGACIVCeOxdXDAyBmvTnNv4ttT72,,,,,,,,,,,,,,,,,,,1935.0,,,63468c2501e33edb7ecf1907,16:50:49,27/03/2024
html-keyboard-response,57,110978,0.0-26.0-0.0,1138.0999999046326,"<div style=""display: flex; flex-direction: column; align-items: center; margin-top: -40px;""><img src=""images/pattern_4.png"" style=""width: 234px; height: 230px; margin-top: -50px;""><div style=""display: flex; justify-content: space-between; margin-top: 33px;""><img src=""images/choice_trial_7.png"" style=""width: 408px; height: 417px; margin-right: 200px;""><img src=""images/choice_trial_8.png"" style=""width: 408px; height: 417px;""></div></div>",j,delaylearn,learning,trial,mGACIVCeOxdXDAyBmvTnNv4ttT72,mGACIVCeOxdXDAyBmvTnNv4ttT72,1.0,images/choice_trial_7.png,images/choice_trial_8.png,images/pattern_4.png,f,f,7000.0,7.0,8.0,3.0,0.0,11.0,0.0,0.0,8.0,60.0,,,,,,63468c2501e33edb7ecf1907,16:50:49,27/03/2024
html-keyboard-response,58,111982,0.0-26.0-1.0,,"<div style=""display: flex; flex-direction: column; align-items: center; margin-top: -40px;""><img src=""images/pattern_4.png"" style=""width: 234px; height: 230px; margin-top: -50px;""><div style=""display: flex; justify-content: space-between; margin-top: 33px;""><img src=""images/choice_trial_8.png"" style=""width: 408px; height: 417px; margin-left:608px;""></div></div>",,delaylearn,learning,display_response,mGACIVCeOxdXDAyBmvTnNv4ttT72,mGACIVCeOxdXDAyBmvTnNv4ttT72,,,,,,,,,,,,,,,,,chosen stimuli: images/choice_trial_8.png,,,,,63468c2501e33edb7ecf1907,16:50:49,27/03/2024
html-keyboard-response,59,118989,0.0-26.0-2.0,,,,delaylearn,learning,feedback_duration_window,mGACIVCeOxdXDAyBmvTnNv4ttT72,mGACIVCeOxdXDAyBmvTnNv4ttT72,,,,,,,,,,,,,,,,,,7000.0,,,,63468c2501e33edb7ecf1907,16:50:49,27/03/2024
html-keyboard-response,60,120492,0.0-26.0-3.0,,<div style='margin:auto;width: auto; font-size: 150%'><span style='font-weight: bold; font-size: 100px; color: red;'>0 points!</span><br><br></div>,,delaylearn,learning,feedback_image_window,mGACIVCeOxdXDAyBmvTnNv4ttT72,mGACIVCeOxdXDAyBmvTnNv4ttT72,,,,,,,,,,,,,,,,,,,,,,63468c2501e33edb7ecf1907,16:50:49,27/03/2024
html-keyboard-response,61,122488,0.0-27.0,,"<div style=""font-size:100px;"">+</div>",,delaylearn,learning,ITI,mGACIVCeOxdXDAyBmvTnNv4ttT72,mGACIVCeOxdXDAyBmvTnNv4ttT72,,,,,,,,,,,,,,,,,,,1989.0,,,63468c2501e33edb7ecf1907,16:50:49,27/03/2024
html-keyboard-response,62,123398,0.0-28.0-0.0,906.8000001907349,"<div style=""display: flex; flex-direction: column; align-items: center; margin-top: -40px;""><img src=""images/pattern_5.png"" style=""width: 234px; height: 230px; margin-top: -50px;""><div style=""display: flex; justify-content: space-between; margin-top: 33px;""><img src=""images/choice_trial_10.png"" style=""width: 408px; height: 417px; margin-right: 200px;""><img src=""images/choice_trial_9.png"" style=""width: 408px; height: 417px;""></div></div>",f,delaylearn,learning,trial,mGACIVCeOxdXDAyBmvTnNv4ttT72,mGACIVCeOxdXDAyBmvTnNv4ttT72,1.0,images/choice_trial_10.png,images/choice_trial_9.png,images/pattern_5.png,j,j,750.0,10.0,9.0,4.0,1.0,12.0,0.0,0.0,10.0,60.0,,,,,,63468c2501e33edb7ecf1907,16:50:49,27/03/2024
html-keyboard-response,63,124405,0.0-28.0-1.0,,"<div style=""display: flex; flex-direction: column; align-items: center; margin-top: -40px;""><img src=""images/pattern_5.png"" style=""width: 234px; height: 230px; margin-top: -50px;""><div style=""display: flex; justify-content: space-between; margin-top: 33px;""><img src=""images/choice_trial_10.png"" style=""width: 408px; height: 417px; margin-right: 608px;""></div></div>",,delaylearn,learning,display_response,mGACIVCeOxdXDAyBmvTnNv4ttT72,mGACIVCeOxdXDAyBmvTnNv4ttT72,,,,,,,,,,,,,,,,,chosen stimuli: images/choice_trial_10.png,,,,,63468c2501e33edb7ecf1907,16:50:49,27/03/2024
html-keyboard-response,64,125160,0.0-28.0-2.0,,,,delaylearn,learning,feedback_duration_window,mGACIVCeOxdXDAyBmvTnNv4ttT72,mGACIVCeOxdXDAyBmvTnNv4ttT72,,,,,,,,,,,,,,,,,,750.0,,,,63468c2501e33edb7ecf1907,16:50:49,27/03/2024
html-keyboard-response,65,126668,0.0-28.0-3.0,,<div style='margin:auto;width: auto; font-size: 150%'><span style='font-weight: bold; font-size: 100px; color: red;'>0 points!</span><br><br></div>,,delaylearn,learning,feedback_image_window,mGACIVCeOxdXDAyBmvTnNv4ttT72,mGACIVCeOxdXDAyBmvTnNv4ttT72,,,,,,,,,,,,,,,,,,,,,,63468c2501e33edb7ecf1907,16:50:49,27/03/2024
html-keyboard-response,66,128473,0.0-29.0,,"<div style=""font-size:100px;"">+</div>",,delaylearn,learning,ITI,mGACIVCeOxdXDAyBmvTnNv4ttT72,mGACIVCeOxdXDAyBmvTnNv4ttT72,,,,,,,,,,,,,,,,,,,1798.0,,,63468c2501e33edb7ecf1907,16:50:49,27/03/2024
html-keyboard-response,67,129525,0.0-30.0-0.0,1048.2999999523163,"<div style=""display: flex; flex-direction: column; align-items: center; margin-top: -40px;""><img src=""images/pattern_6.png"" style=""width: 234px; height: 230px; margin-top: -50px;""><div style=""display: flex; justify-content: space-between; margin-top: 33px;""><img src=""images/choice_trial_11.png"" style=""width: 408px; height: 417px; margin-right: 200px;""><img src=""images/choice_trial_12.png"" style=""width: 408px; height: 417px;""></div></div>",f,delaylearn,learning,trial,mGACIVCeOxdXDAyBmvTnNv4ttT72,mGACIVCeOxdXDAyBmvTnNv4ttT72,1.0,images/choice_trial_11.png,images/choice_trial_12.png,images/pattern_6.png,j,f,750.0,11.0,12.0,5.0,0.0,13.0,1.0,0.0,11.0,60.0,,,,,,63468c2501e33edb7ecf1907,16:50:49,27/03/2024
html-keyboard-response,68,130531,0.0-30.0-1.0,,"<div style=""display: flex; flex-direction: column; align-items: center; margin-top: -40px;""><img src=""images/pattern_6.png"" style=""width: 234px; height: 230px; margin-top: -50px;""><div style=""display: flex; justify-content: space-between; margin-top: 33px;""><img src=""images/choice_trial_11.png"" style=""width: 408px; height: 417px; margin-right: 608px;""></div></div>",,delaylearn,learning,display_response,mGACIVCeOxdXDAyBmvTnNv4ttT72,mGACIVCeOxdXDAyBmvTnNv4ttT72,,,,,,,,,,,,,,,,,chosen stimuli: images/choice_trial_11.png,,,,,63468c2501e33edb7ecf1907,16:50:49,27/03/2024
html-keyboard-response,69,131288,0.0-30.0-2.0,,,,delaylearn,learning,feedback_duration_window,mGACIVCeOxdXDAyBmvTnNv4ttT72,mGACIVCeOxdXDAyBmvTnNv4ttT72,,,,,,,,,,,,,,,,,,750.0,,,,63468c2501e33edb7ecf1907,16:50:49,27/03/2024
html-keyboard-response,70,132793,0.0-30.0-3.0,,<div style='margin:auto;width: auto; font-size: 150%'><span style='font-weight: bold; font-size: 100px; color: red;'>0 points!</span><br><br></div>,,delaylearn,learning,feedback_image_window,mGACIVCeOxdXDAyBmvTnNv4ttT72,mGACIVCeOxdXDAyBmvTnNv4ttT72,,,,,,,,,,,,,,,,,,,,,,63468c2501e33edb7ecf1907,16:50:49,27/03/2024
html-keyboard-response,71,133299,0.0-31.0-0.0,,,,,,mood_trial_fixation,mGACIVCeOxdXDAyBmvTnNv4ttT72,,,,,,,,,,,,,,,,,,,,,,,63468c2501e33edb7ecf1907,16:50:49,27/03/2024
lmdlab-html-vas-response,72,140073,0.0-31.0-1.0,5767.0,How happy are you right now?,0.5049999491373698,delaylearn,learning,mood_trial,mGACIVCeOxdXDAyBmvTnNv4ttT72,mGACIVCeOxdXDAyBmvTnNv4ttT72,,,,,,,,,,,,,,,,,,,,"['Very unhappy', 'Very happy']",,63468c2501e33edb7ecf1907,16:50:49,27/03/2024
html-keyboard-response,73,141958,0.0-32.0,,"<div style=""font-size:100px;"">+</div>",,delaylearn,learning,ITI,mGACIVCeOxdXDAyBmvTnNv4ttT72,mGACIVCeOxdXDAyBmvTnNv4ttT72,,,,,,,,,,,,,,,,,,,1879.0,,,63468c2501e33edb7ecf1907,16:50:49,27/03/2024
html-keyboard-response,74,143121,0.0-33.0-0.0,1160.5,"<div style=""display: flex; flex-direction: column; align-items: center; margin-top: -40px;""><img src=""images/pattern_1.png"" style=""width: 234px; height: 230px; margin-top: -50px;""><div style=""display: flex; justify-content: space-between; margin-top: 33px;""><img src=""images/choice_trial_2.png"" style=""width: 408px; height: 417px; margin-right: 200px;""><img src=""images/choice_trial_1.png"" style=""width: 408px; height: 417px;""></div></div>",j,delaylearn,learning,trial,mGACIVCeOxdXDAyBmvTnNv4ttT72,mGACIVCeOxdXDAyBmvTnNv4ttT72,1.0,images/choice_trial_2.png,images/choice_trial_1.png,images/pattern_1.png,j,j,7000.0,2.0,1.0,1.0,1.0,14.0,1.0,1.0,1.0,70.0,,,,,,63468c2501e33edb7ecf1907,16:50:49,27/03/2024
html-keyboard-response,75,144126,0.0-33.0-1.0,,"<div style=""display: flex; flex-direction: column; align-items: center; margin-top: -40px;""><img src=""images/pattern_1.png"" style=""width: 234px; height: 230px; margin-top: -50px;""><div style=""display: flex; justify-content: space-between; margin-top: 33px;""><img src=""images/choice_trial_1.png"" style=""width: 408px; height: 417px; margin-left:608px;""></div></div>",,delaylearn,learning,display_response,mGACIVCeOxdXDAyBmvTnNv4ttT72,mGACIVCeOxdXDAyBmvTnNv4ttT72,,,,,,,,,,,,,,,,,chosen stimuli: images/choice_trial_1.png,,,,,63468c2501e33edb7ecf1907,16:50:49,27/03/2024
html-keyboard-response,76,151131,0.0-33.0-2.0,,,,delaylearn,learning,feedback_duration_window,mGACIVCeOxdXDAyBmvTnNv4ttT72,mGACIVCeOxdXDAyBmvTnNv4ttT72,,,,,,,,,,,,,,,,,,7000.0,,,,63468c2501e33edb7ecf1907,16:50:49,27/03/2024
html-keyboard-response,77,152633,0.0-33.0-3.0,,<div style='margin:auto;width: auto; font-size: 150%'><span style='font-weight: bold; font-size: 100px; color: green;'>+10 points!</span><br><br></div>,,delaylearn,learning,feedback_image_window,mGACIVCeOxdXDAyBmvTnNv4ttT72,mGACIVCeOxdXDAyBmvTnNv4ttT72,,,,,,,,,,,,,,,,,,,,,,63468c2501e33edb7ecf1907,16:50:49,27/03/2024
html-keyboard-response,78,154352,0.0-34.0,,"<div style=""font-size:100px;"">+</div>",,delaylearn,learning,ITI,mGACIVCeOxdXDAyBmvTnNv4ttT72,mGACIVCeOxdXDAyBmvTnNv4ttT72,,,,,,,,,,,,,,,,,,,1712.0,,,63468c2501e33edb7ecf1907,16:50:49,27/03/2024
html-keyboard-response,79,155539,0.0-35.0-0.0,1184.8999998569489,"<div style=""display: flex; flex-direction: column; align-items: center; margin-top: -40px;""><img src=""images/pattern_3.png"" style=""width: 234px; height: 230px; margin-top: -50px;""><div style=""display: flex; justify-content: space-between; margin-top: 33px;""><img src=""images/choice_trial_6.png"" style=""width: 408px; height: 417px; margin-right: 200px;""><img src=""images/choice_trial_5.png"" style=""width: 408px; height: 417px;""></div></div>",j,delaylearn,learning,trial,mGACIVCeOxdXDAyBmvTnNv4ttT72,mGACIVCeOxdXDAyBmvTnNv4ttT72,1.0,images/choice_trial_6.png,images/choice_trial_5.png,images/pattern_3.png,f,j,7000.0,6.0,5.0,2.0,1.0,15.0,1.0,0.0,5.0,70.0,,,,,,63468c2501e33edb7ecf1907,16:50:49,27/03/2024
html-keyboard-response,80,156547,0.0-35.0-1.0,,"<div style=""display: flex; flex-direction: column; align-items: center; margin-top: -40px;""><img src=""images/pattern_3.png"" style=""width: 234px; height: 230px; margin-top: -50px;""><div style=""display: flex; justify-content: space-between; margin-top: 33px;""><img src=""images/choice_trial_5.png"" style=""width: 408px; height: 417px; margin-left:608px;""></div></div>",,delaylearn,learning,display_response,mGACIVCeOxdXDAyBmvTnNv4ttT72,mGACIVCeOxdXDAyBmvTnNv4ttT72,,,,,,,,,,,,,,,,,chosen stimuli: images/choice_trial_5.png,,,,,63468c2501e33edb7ecf1907,16:50:49,27/03/2024
html-keyboard-response,81,163549,0.0-35.0-2.0,,,,delaylearn,learning,feedback_duration_window,mGACIVCeOxdXDAyBmvTnNv4ttT72,mGACIVCeOxdXDAyBmvTnNv4ttT72,,,,,,,,,,,,,,,,,,7000.0,,,,63468c2501e33edb7ecf1907,16:50:49,27/03/2024
html-keyboard-response,82,165056,0.0-35.0-3.0,,<div style='margin:auto;width: auto; font-size: 150%'><span style='font-weight: bold; font-size: 100px; color: red;'>0 points!</span><br><br></div>,,delaylearn,learning,feedback_image_window,mGACIVCeOxdXDAyBmvTnNv4ttT72,mGACIVCeOxdXDAyBmvTnNv4ttT72,,,,,,,,,,,,,,,,,,,,,,63468c2501e33edb7ecf1907,16:50:49,27/03/2024
html-keyboard-response,83,167193,0.0-36.0,,"<div style=""font-size:100px;"">+</div>",,delaylearn,learning,ITI,mGACIVCeOxdXDAyBmvTnNv4ttT72,mGACIVCeOxdXDAyBmvTnNv4ttT72,,,,,,,,,,,,,,,,,,,2132.0,,,63468c2501e33edb7ecf1907,16:50:49,27/03/2024
html-keyboard-response,84,167995,0.0-37.0-0.0,800.0,"<div style=""display: flex; flex-direction: column; align-items: center; margin-top: -40px;""><img src=""images/pattern_5.png"" style=""width: 234px; height: 230px; margin-top: -50px;""><div style=""display: flex; justify-content: space-between; margin-top: 33px;""><img src=""images/choice_trial_9.png"" style=""width: 408px; height: 417px; margin-right: 200px;""><img src=""images/choice_trial_10.png"" style=""width: 408px; height: 417px;""></div></div>",f,delaylearn,learning,trial,mGACIVCeOxdXDAyBmvTnNv4ttT72,mGACIVCeOxdXDAyBmvTnNv4ttT72,1.0,images/choice_trial_9.png,images/choice_trial_10.png,images/pattern_5.png,f,f,750.0,9.0,10.0,4.0,0.0,16.0,1.0,1.0,9.0,80.0,,,,,,63468c2501e33edb7ecf1907,16:50:49,27/03/2024
html-keyboard-response,85,169001,0.0-37.0-1.0,,"<div style=""display: flex; flex-direction: column; align-items: center; margin-top: -40px;""><img src=""images/pattern_5.png"" style=""width: 234px; height: 230px; margin-top: -50px;""><div style=""display: flex; justify-content: space-between; margin-top: 33px;""><img src=""images/choice_trial_9.png"" style=""width: 408px; height: 417px; margin-right: 608px;""></div></div>",,delaylearn,learning,display_response,mGACIVCeOxdXDAyBmvTnNv4ttT72,mGACIVCeOxdXDAyBmvTnNv4ttT72,,,,,,,,,,,,,,,,,chosen stimuli: images/choice_trial_9.png,,,,,63468c2501e33edb7ecf1907,16:50:49,27/03/2024
html-keyboard-response,86,169758,0.0-37.0-2.0,,,,delaylearn,learning,feedback_duration_window,mGACIVCeOxdXDAyBmvTnNv4ttT72,mGACIVCeOxdXDAyBmvTnNv4ttT72,,,,,,,,,,,,,,,,,,750.0,,,,63468c2501e33edb7ecf1907,16:50:49,27/03/2024
html-keyboard-response,87,171261,0.0-37.0-3.0,,<div style='margin:auto;width: auto; font-size: 150%'><span style='font-weight: bold; font-size: 100px; color: green;'>+10 points!</span><br><br></div>,,delaylearn,learning,feedback_image_window,mGACIVCeOxdXDAyBmvTnNv4ttT72,mGACIVCeOxdXDAyBmvTnNv4ttT72,,,,,,,,,,,,,,,,,,,,,,63468c2501e33edb7ecf1907,16:50:49,27/03/2024
html-keyboard-response,88,171767,0.0-38.0-0.0,,,,,,mood_trial_fixation,mGACIVCeOxdXDAyBmvTnNv4ttT72,,,,,,,,,,,,,,,,,,,,,,,63468c2501e33edb7ecf1907,16:50:49,27/03/2024
lmdlab-html-vas-response,89,175725,0.0-38.0-1.0,2948.0,How happy are you right now?,0.4966666158040365,delaylearn,learning,mood_trial,mGACIVCeOxdXDAyBmvTnNv4ttT72,mGACIVCeOxdXDAyBmvTnNv4ttT72,,,,,,,,,,,,,,,,,,,,"['Very unhappy', 'Very happy']",,63468c2501e33edb7ecf1907,16:50:49,27/03/2024
html-keyboard-response,90,177819,0.0-39.0,,"<div style=""font-size:100px;"">+</div>",,delaylearn,learning,ITI,mGACIVCeOxdXDAyBmvTnNv4ttT72,mGACIVCeOxdXDAyBmvTnNv4ttT72,,,,,,,,,,,,,,,,,,,2091.0,,,63468c2501e33edb7ecf1907,16:50:49,27/03/2024
html-keyboard-response,91,178591,0.0-40.0-0.0,769.2999999523163,"<div style=""display: flex; flex-direction: column; align-items: center; margin-top: -40px;""><img src=""images/pattern_6.png"" style=""width: 234px; height: 230px; margin-top: -50px;""><div style=""display: flex; justify-content: space-between; margin-top: 33px;""><img src=""images/choice_trial_11.png"" style=""width: 408px; height: 417px; margin-right: 200px;""><img src=""images/choice_trial_12.png"" style=""width: 408px; height: 417px;""></div></div>",f,delaylearn,learning,trial,mGACIVCeOxdXDAyBmvTnNv4ttT72,mGACIVCeOxdXDAyBmvTnNv4ttT72,1.0,images/choice_trial_11.png,images/choice_trial_12.png,images/pattern_6.png,f,f,750.0,11.0,12.0,5.0,0.0,17.0,1.0,1.0,11.0,90.0,,,,,,63468c2501e33edb7ecf1907,16:50:49,27/03/2024
html-keyboard-response,92,179595,0.0-40.0-1.0,,"<div style=""display: flex; flex-direction: column; align-items: center; margin-top: -40px;""><img src=""images/pattern_6.png"" style=""width: 234px; height: 230px; margin-top: -50px;""><div style=""display: flex; justify-content: space-between; margin-top: 33px;""><img src=""images/choice_trial_11.png"" style=""width: 408px; height: 417px; margin-right: 608px;""></div></div>",,delaylearn,learning,display_response,mGACIVCeOxdXDAyBmvTnNv4ttT72,mGACIVCeOxdXDAyBmvTnNv4ttT72,,,,,,,,,,,,,,,,,chosen stimuli: images/choice_trial_11.png,,,,,63468c2501e33edb7ecf1907,16:50:49,27/03/2024
html-keyboard-response,93,180353,0.0-40.0-2.0,,,,delaylearn,learning,feedback_duration_window,mGACIVCeOxdXDAyBmvTnNv4ttT72,mGACIVCeOxdXDAyBmvTnNv4ttT72,,,,,,,,,,,,,,,,,,750.0,,,,63468c2501e33edb7ecf1907,16:50:49,27/03/2024
html-keyboard-response,94,181860,0.0-40.0-3.0,,<div style='margin:auto;width: auto; font-size: 150%'><span style='font-weight: bold; font-size: 100px; color: green;'>+10 points!</span><br><br></div>,,delaylearn,learning,feedback_image_window,mGACIVCeOxdXDAyBmvTnNv4ttT72,mGACIVCeOxdXDAyBmvTnNv4ttT72,,,,,,,,,,,,,,,,,,,,,,63468c2501e33edb7ecf1907,16:50:49,27/03/2024
html-keyboard-response,95,183747,0.0-41.0,,"<div style=""font-size:100px;"">+</div>",,delaylearn,learning,ITI,mGACIVCeOxdXDAyBmvTnNv4ttT72,mGACIVCeOxdXDAyBmvTnNv4ttT72,,,,,,,,,,,,,,,,,,,1880.0,,,63468c2501e33edb7ecf1907,16:50:49,27/03/2024
html-keyboard-response,96,184865,0.0-42.0-0.0,1114.5999999046326,"<div style=""display: flex; flex-direction: column; align-items: center; margin-top: -40px;""><img src=""images/pattern_4.png"" style=""width: 234px; height: 230px; margin-top: -50px;""><div style=""display: flex; justify-content: space-between; margin-top: 33px;""><img src=""images/choice_trial_8.png"" style=""width: 408px; height: 417px; margin-right: 200px;""><img src=""images/choice_trial_7.png"" style=""width: 408px; height: 417px;""></div></div>",j,delaylearn,learning,trial,mGACIVCeOxdXDAyBmvTnNv4ttT72,mGACIVCeOxdXDAyBmvTnNv4ttT72,1.0,images/choice_trial_8.png,images/choice_trial_7.png,images/pattern_4.png,j,j,7000.0,8.0,7.0,3.0,1.0,18.0,1.0,1.0,7.0,100.0,,,,,,63468c2501e33edb7ecf1907,16:50:49,27/03/2024
html-keyboard-response,97,185869,0.0-42.0-1.0,,"<div style=""display: flex; flex-direction: column; align-items: center; margin-top: -40px;""><img src=""images/pattern_4.png"" style=""width: 234px; height: 230px; margin-top: -50px;""><div style=""display: flex; justify-content: space-between; margin-top: 33px;""><img src=""images/choice_trial_7.png"" style=""width: 408px; height: 417px; margin-left:608px;""></div></div>",,delaylearn,learning,display_response,mGACIVCeOxdXDAyBmvTnNv4ttT72,mGACIVCeOxdXDAyBmvTnNv4ttT72,,,,,,,,,,,,,,,,,chosen stimuli: images/choice_trial_7.png,,,,,63468c2501e33edb7ecf1907,16:50:49,27/03/2024
html-keyboard-response,98,192879,0.0-42.0-2.0,,,,delaylearn,learning,feedback_duration_window,mGACIVCeOxdXDAyBmvTnNv4ttT72,mGACIVCeOxdXDAyBmvTnNv4ttT72,,,,,,,,,,,,,,,,,,7000.0,,,,63468c2501e33edb7ecf1907,16:50:49,27/03/2024
html-keyboard-response,99,194389,0.0-42.0-3.0,,<div style='margin:auto;width: auto; font-size: 150%'><span style='font-weight: bold; font-size: 100px; color: green;'>+10 points!</span><br><br></div>,,delaylearn,learning,feedback_image_window,mGACIVCeOxdXDAyBmvTnNv4ttT72,mGACIVCeOxdXDAyBmvTnNv4ttT72,,,,,,,,,,,,,,,,,,,,,,63468c2501e33edb7ecf1907,16:50:49,27/03/2024
html-keyboard-response,100,196855,0.0-43.0,,"<div style=""font-size:100px;"">+</div>",,delaylearn,learning,ITI,mGACIVCeOxdXDAyBmvTnNv4ttT72,mGACIVCeOxdXDAyBmvTnNv4ttT72,,,,,,,,,,,,,,,,,,,2456.0,,,63468c2501e33edb7ecf1907,16:50:49,27/03/2024
html-keyboard-response,101,198067,0.0-44.0-0.0,1206.9000000953674,"<div style=""display: flex; flex-direction: column; align-items: center; margin-top: -40px;""><img src=""images/pattern_7.png"" style=""width: 234px; height: 230px; margin-top: -50px;""><div style=""display: flex; justify-content: space-between; margin-top: 33px;""><img src=""images/choice_trial_13.png"" style=""width: 408px; height: 417px; margin-right: 200px;""><img src=""images/choice_trial_14.png"" style=""width: 408px; height: 417px;""></div></div>",f,delaylearn,learning,trial,mGACIVCeOxdXDAyBmvTnNv4ttT72,mGACIVCeOxdXDAyBmvTnNv4ttT72,1.0,images/choice_trial_13.png,images/choice_trial_14.png,images/pattern_7.png,j,f,750.0,13.0,14.0,6.0,0.0,19.0,1.0,0.0,13.0,100.0,,,,,,63468c2501e33edb7ecf1907,16:50:49,27/03/2024
html-keyboard-response,102,199072,0.0-44.0-1.0,,"<div style=""display: flex; flex-direction: column; align-items: center; margin-top: -40px;""><img src=""images/pattern_7.png"" style=""width: 234px; height: 230px; margin-top: -50px;""><div style=""display: flex; justify-content: space-between; margin-top: 33px;""><img src=""images/choice_trial_13.png"" style=""width: 408px; height: 417px; margin-right: 608px;""></div></div>",,delaylearn,learning,display_response,mGACIVCeOxdXDAyBmvTnNv4ttT72,mGACIVCeOxdXDAyBmvTnNv4ttT72,,,,,,,,,,,,,,,,,chosen stimuli: images/choice_trial_13.png,,,,,63468c2501e33edb7ecf1907,16:50:49,27/03/2024
html-keyboard-response,103,199829,0.0-44.0-2.0,,,,delaylearn,learning,feedback_duration_window,mGACIVCeOxdXDAyBmvTnNv4ttT72,mGACIVCeOxdXDAyBmvTnNv4ttT72,,,,,,,,,,,,,,,,,,750.0,,,,63468c2501e33edb7ecf1907,16:50:49,27/03/2024
html-keyboard-response,104,201336,0.0-44.0-3.0,,<div style='margin:auto;width: auto; font-size: 150%'><span style='font-weight: bold; font-size: 100px; color: red;'>0 points!</span><br><br></div>,,delaylearn,learning,feedback_image_window,mGACIVCeOxdXDAyBmvTnNv4ttT72,mGACIVCeOxdXDAyBmvTnNv4ttT72,,,,,,,,,,,,,,,,,,,,,,63468c2501e33edb7ecf1907,16:50:49,27/03/2024
html-keyboard-response,105,203260,0.0-45.0,,"<div style=""font-size:100px;"">+</div>",,delaylearn,learning,ITI,mGACIVCeOxdXDAyBmvTnNv4ttT72,mGACIVCeOxdXDAyBmvTnNv4ttT72,,,,,,,,,,,,,,,,,,,1920.0,,,63468c2501e33edb7ecf1907,16:50:49,27/03/2024
html-keyboard-response,106,204143,0.0-46.0-0.0,878.2000000476837,"<div style=""display: flex; flex-direction: column; align-items: center; margin-top: -40px;""><img src=""images/pattern_1.png"" style=""width: 234px; height: 230px; margin-top: -50px;""><div style=""display: flex; justify-content: space-between; margin-top: 33px;""><img src=""images/choice_trial_1.png"" style=""width: 408px; height: 417px; margin-right: 200px;""><img src=""images/choice_trial_2.png"" style=""width: 408px; height: 417px;""></div></div>",j,delaylearn,learning,trial,mGACIVCeOxdXDAyBmvTnNv4ttT72,mGACIVCeOxdXDAyBmvTnNv4ttT72,1.0,images/choice_trial_1.png,images/choice_trial_2.png,images/pattern_1.png,f,f,7000.0,1.0,2.0,1.0,0.0,20.0,0.0,0.0,2.0,100.0,,,,,,63468c2501e33edb7ecf1907,16:50:49,27/03/2024
html-keyboard-response,107,205150,0.0-46.0-1.0,,"<div style=""display: flex; flex-direction: column; align-items: center; margin-top: -40px;""><img src=""images/pattern_1.png"" style=""width: 234px; height: 230px; margin-top: -50px;""><div style=""display: flex; justify-content: space-between; margin-top: 33px;""><img src=""images/choice_trial_2.png"" style=""width: 408px; height: 417px; margin-left:608px;""></div></div>",,delaylearn,learning,display_response,mGACIVCeOxdXDAyBmvTnNv4ttT72,mGACIVCeOxdXDAyBmvTnNv4ttT72,,,,,,,,,,,,,,,,,chosen stimuli: images/choice_trial_2.png,,,,,63468c2501e33edb7ecf1907,16:50:49,27/03/2024
html-keyboard-response,108,212160,0.0-46.0-2.0,,,,delaylearn,learning,feedback_duration_window,mGACIVCeOxdXDAyBmvTnNv4ttT72,mGACIVCeOxdXDAyBmvTnNv4ttT72,,,,,,,,,,,,,,,,,,7000.0,,,,63468c2501e33edb7ecf1907,16:50:49,27/03/2024
html-keyboard-response,109,213669,0.0-46.0-3.0,,<div style='margin:auto;width: auto; font-size: 150%'><span style='font-weight: bold; font-size: 100px; color: red;'>0 points!</span><br><br></div>,,delaylearn,learning,feedback_image_window,mGACIVCeOxdXDAyBmvTnNv4ttT72,mGACIVCeOxdXDAyBmvTnNv4ttT72,,,,,,,,,,,,,,,,,,,,,,63468c2501e33edb7ecf1907,16:50:49,27/03/2024
html-keyboard-response,110,215352,0.0-47.0,,"<div style=""font-size:100px;"">+</div>",,delaylearn,learning,ITI,mGACIVCeOxdXDAyBmvTnNv4ttT72,mGACIVCeOxdXDAyBmvTnNv4ttT72,,,,,,,,,,,,,,,,,,,1678.0,,,63468c2501e33edb7ecf1907,16:50:49,27/03/2024
html-keyboard-response,111,216430,0.0-48.0-0.0,1073.2000000476837,"<div style=""display: flex; flex-direction: column; align-items: center; margin-top: -40px;""><img src=""images/pattern_6.png"" style=""width: 234px; height: 230px; margin-top: -50px;""><div style=""display: flex; justify-content: space-between; margin-top: 33px;""><img src=""images/choice_trial_12.png"" style=""width: 408px; height: 417px; margin-right: 200px;""><img src=""images/choice_trial_11.png"" style=""width: 408px; height: 417px;""></div></div>",f,delaylearn,learning,trial,mGACIVCeOxdXDAyBmvTnNv4ttT72,mGACIVCeOxdXDAyBmvTnNv4ttT72,1.0,images/choice_trial_12.png,images/choice_trial_11.png,images/pattern_6.png,j,j,750.0,12.0,11.0,5.0,1.0,21.0,0.0,0.0,12.0,100.0,,,,,,63468c2501e33edb7ecf1907,16:50:49,27/03/2024
html-keyboard-response,112,217438,0.0-48.0-1.0,,"<div style=""display: flex; flex-direction: column; align-items: center; margin-top: -40px;""><img src=""images/pattern_6.png"" style=""width: 234px; height: 230px; margin-top: -50px;""><div style=""display: flex; justify-content: space-between; margin-top: 33px;""><img src=""images/choice_trial_12.png"" style=""width: 408px; height: 417px; margin-right: 608px;""></div></div>",,delaylearn,learning,display_response,mGACIVCeOxdXDAyBmvTnNv4ttT72,mGACIVCeOxdXDAyBmvTnNv4ttT72,,,,,,,,,,,,,,,,,chosen stimuli: images/choice_trial_12.png,,,,,63468c2501e33edb7ecf1907,16:50:49,27/03/2024
html-keyboard-response,113,218191,0.0-48.0-2.0,,,,delaylearn,learning,feedback_duration_window,mGACIVCeOxdXDAyBmvTnNv4ttT72,mGACIVCeOxdXDAyBmvTnNv4ttT72,,,,,,,,,,,,,,,,,,750.0,,,,63468c2501e33edb7ecf1907,16:50:49,27/03/2024
html-keyboard-response,114,219699,0.0-48.0-3.0,,<div style='margin:auto;width: auto; font-size: 150%'><span style='font-weight: bold; font-size: 100px; color: red;'>0 points!</span><br><br></div>,,delaylearn,learning,feedback_image_window,mGACIVCeOxdXDAyBmvTnNv4ttT72,mGACIVCeOxdXDAyBmvTnNv4ttT72,,,,,,,,,,,,,,,,,,,,,,63468c2501e33edb7ecf1907,16:50:49,27/03/2024
html-keyboard-response,115,221842,0.0-49.0,,"<div style=""font-size:100px;"">+</div>",,delaylearn,learning,ITI,mGACIVCeOxdXDAyBmvTnNv4ttT72,mGACIVCeOxdXDAyBmvTnNv4ttT72,,,,,,,,,,,,,,,,,,,2136.0,,,63468c2501e33edb7ecf1907,16:50:49,27/03/2024
html-keyboard-response,116,222562,0.0-50.0-0.0,716.0999999046326,"<div style=""display: flex; flex-direction: column; align-items: center; margin-top: -40px;""><img src=""images/pattern_4.png"" style=""width: 234px; height: 230px; margin-top: -50px;""><div style=""display: flex; justify-content: space-between; margin-top: 33px;""><img src=""images/choice_trial_7.png"" style=""width: 408px; height: 417px; margin-right: 200px;""><img src=""images/choice_trial_8.png"" style=""width: 408px; height: 417px;""></div></div>",j,delaylearn,learning,trial,mGACIVCeOxdXDAyBmvTnNv4ttT72,mGACIVCeOxdXDAyBmvTnNv4ttT72,1.0,images/choice_trial_7.png,images/choice_trial_8.png,images/pattern_4.png,f,f,7000.0,7.0,8.0,3.0,0.0,22.0,0.0,0.0,8.0,100.0,,,,,,63468c2501e33edb7ecf1907,16:50:49,27/03/2024
html-keyboard-response,117,223568,0.0-50.0-1.0,,"<div style=""display: flex; flex-direction: column; align-items: center; margin-top: -40px;""><img src=""images/pattern_4.png"" style=""width: 234px; height: 230px; margin-top: -50px;""><div style=""display: flex; justify-content: space-between; margin-top: 33px;""><img src=""images/choice_trial_8.png"" style=""width: 408px; height: 417px; margin-left:608px;""></div></div>",,delaylearn,learning,display_response,mGACIVCeOxdXDAyBmvTnNv4ttT72,mGACIVCeOxdXDAyBmvTnNv4ttT72,,,,,,,,,,,,,,,,,chosen stimuli: images/choice_trial_8.png,,,,,63468c2501e33edb7ecf1907,16:50:49,27/03/2024
html-keyboard-response,118,230575,0.0-50.0-2.0,,,,delaylearn,learning,feedback_duration_window,mGACIVCeOxdXDAyBmvTnNv4ttT72,mGACIVCeOxdXDAyBmvTnNv4ttT72,,,,,,,,,,,,,,,,,,7000.0,,,,63468c2501e33edb7ecf1907,16:50:49,27/03/2024
html-keyboard-response,119,232083,0.0-50.0-3.0,,<div style='margin:auto;width: auto; font-size: 150%'><span style='font-weight: bold; font-size: 100px; color: red;'>0 points!</span><br><br></div>,,delaylearn,learning,feedback_image_window,mGACIVCeOxdXDAyBmvTnNv4ttT72,mGACIVCeOxdXDAyBmvTnNv4ttT72,,,,,,,,,,,,,,,,,,,,,,63468c2501e33edb7ecf1907,16:50:49,27/03/2024
html-keyboard-response,120,232590,0.0-51.0-0.0,,,,,,mood_trial_fixation,mGACIVCeOxdXDAyBmvTnNv4ttT72,,,,,,,,,,,,,,,,,,,,,,,63468c2501e33edb7ecf1907,16:50:49,27/03/2024
lmdlab-html-vas-response,121,237584,0.0-51.0-1.0,3983.0,How happy are you right now?,0.5099999491373698,delaylearn,learning,mood_trial,mGACIVCeOxdXDAyBmvTnNv4ttT72,mGACIVCeOxdXDAyBmvTnNv4ttT72,,,,,,,,,,,,,,,,,,,,"['Very unhappy', 'Very happy']",,63468c2501e33edb7ecf1907,16:50:49,27/03/2024
html-keyboard-response,122,239121,0.0-52.0,,"<div style=""font-size:100px;"">+</div>",,delaylearn,learning,ITI,mGACIVCeOxdXDAyBmvTnNv4ttT72,mGACIVCeOxdXDAyBmvTnNv4ttT72,,,,,,,,,,,,,,,,,,,1534.0,,,63468c2501e33edb7ecf1907,16:50:49,27/03/2024
html-keyboard-response,123,240205,0.0-53.0-0.0,1080.5,"<div style=""display: flex; flex-direction: column; align-items: center; margin-top: -40px;""><img src=""images/pattern_7.png"" style=""width: 234px; height: 230px; margin-top: -50px;""><div style=""display: flex; justify-content: space-between; margin-top: 33px;""><img src=""images/choice_trial_14.png"" style=""width: 408px; height: 417px; margin-right: 200px;""><img src=""images/choice_trial_13.png"" style=""width: 408px; height: 417px;""></div></div>",j,delaylearn,learning,trial,mGACIVCeOxdXDAyBmvTnNv4ttT72,mGACIVCeOxdXDAyBmvTnNv4ttT72,1.0,images/choice_trial_14.png,images/choice_trial_13.png,images/pattern_7.png,j,j,750.0,14.0,13.0,6.0,1.0,23.0,1.0,1.0,13.0,110.0,,,,,,63468c2501e33edb7ecf1907,16:50:49,27/03/2024
html-keyboard-response,124,241213,0.0-53.0-1.0,,"<div style=""display: flex; flex-direction: column; align-items: center; margin-top: -40px;""><img src=""images/pattern_7.png"" style=""width: 234px; height: 230px; margin-top: -50px;""><div style=""display: flex; justify-content: space-between; margin-top: 33px;""><img src=""images/choice_trial_13.png"" style=""width: 408px; height: 417px; margin-left:608px;""></div></div>",,delaylearn,learning,display_response,mGACIVCeOxdXDAyBmvTnNv4ttT72,mGACIVCeOxdXDAyBmvTnNv4ttT72,,,,,,,,,,,,,,,,,chosen stimuli: images/choice_trial_13.png,,,,,63468c2501e33edb7ecf1907,16:50:49,27/03/2024
html-keyboard-response,125,241967,0.0-53.0-2.0,,,,delaylearn,learning,feedback_duration_window,mGACIVCeOxdXDAyBmvTnNv4ttT72,mGACIVCeOxdXDAyBmvTnNv4ttT72,,,,,,,,,,,,,,,,,,750.0,,,,63468c2501e33edb7ecf1907,16:50:49,27/03/2024
html-keyboard-response,126,243474,0.0-53.0-3.0,,<div style='margin:auto;width: auto; font-size: 150%'><span style='font-weight: bold; font-size: 100px; color: green;'>+10 points!</span><br><br></div>,,delaylearn,learning,feedback_image_window,mGACIVCeOxdXDAyBmvTnNv4ttT72,mGACIVCeOxdXDAyBmvTnNv4ttT72,,,,,,,,,,,,,,,,,,,,,,63468c2501e33edb7ecf1907,16:50:49,27/03/2024
html-keyboard-response,127,245764,0.0-54.0,,"<div style=""font-size:100px;"">+</div>",,delaylearn,learning,ITI,mGACIVCeOxdXDAyBmvTnNv4ttT72,mGACIVCeOxdXDAyBmvTnNv4ttT72,,,,,,,,,,,,,,,,,,,2283.0,,,63468c2501e33edb7ecf1907,16:50:49,27/03/2024
html-keyboard-response,128,247284,0.0-55.0-0.0,1517.9000000953674,"<div style=""display: flex; flex-direction: column; align-items: center; margin-top: -40px;""><img src=""images/pattern_1.png"" style=""width: 234px; height: 230px; margin-top: -50px;""><div style=""display: flex; justify-content: space-between; margin-top: 33px;""><img src=""images/choice_trial_2.png"" style=""width: 408px; height: 417px; margin-right: 200px;""><img src=""images/choice_trial_1.png"" style=""width: 408px; height: 417px;""></div></div>",j,delaylearn,learning,trial,mGACIVCeOxdXDAyBmvTnNv4ttT72,mGACIVCeOxdXDAyBmvTnNv4ttT72,1.0,images/choice_trial_2.png,images/choice_trial_1.png,images/pattern_1.png,f,j,7000.0,2.0,1.0,1.0,1.0,24.0,1.0,0.0,1.0,110.0,,,,,,63468c2501e33edb7ecf1907,16:50:49,27/03/2024
html-keyboard-response,129,248291,0.0-55.0-1.0,,"<div style=""display: flex; flex-direction: column; align-items: center; margin-top: -40px;""><img src=""images/pattern_1.png"" style=""width: 234px; height: 230px; margin-top: -50px;""><div style=""display: flex; justify-content: space-between; margin-top: 33px;""><img src=""images/choice_trial_1.png"" style=""width: 408px; height: 417px; margin-left:608px;""></div></div>",,delaylearn,learning,display_response,mGACIVCeOxdXDAyBmvTnNv4ttT72,mGACIVCeOxdXDAyBmvTnNv4ttT72,,,,,,,,,,,,,,,,,chosen stimuli: images/choice_trial_1.png,,,,,63468c2501e33edb7ecf1907,16:50:49,27/03/2024
html-keyboard-response,130,255298,0.0-55.0-2.0,,,,delaylearn,learning,feedback_duration_window,mGACIVCeOxdXDAyBmvTnNv4ttT72,mGACIVCeOxdXDAyBmvTnNv4ttT72,,,,,,,,,,,,,,,,,,7000.0,,,,63468c2501e33edb7ecf1907,16:50:49,27/03/2024
html-keyboard-response,131,256803,0.0-55.0-3.0,,<div style='margin:auto;width: auto; font-size: 150%'><span style='font-weight: bold; font-size: 100px; color: red;'>0 points!</span><br><br></div>,,delaylearn,learning,feedback_image_window,mGACIVCeOxdXDAyBmvTnNv4ttT72,mGACIVCeOxdXDAyBmvTnNv4ttT72,,,,,,,,,,,,,,,,,,,,,,63468c2501e33edb7ecf1907,16:50:49,27/03/2024
html-keyboard-response,132,258702,0.0-56.0,,"<div style=""font-size:100px;"">+</div>",,delaylearn,learning,ITI,mGACIVCeOxdXDAyBmvTnNv4ttT72,mGACIVCeOxdXDAyBmvTnNv4ttT72,,,,,,,,,,,,,,,,,,,1895.0,,,63468c2501e33edb7ecf1907,16:50:49,27/03/2024
html-keyboard-response,133,259926,0.0-57.0-0.0,1220.8999998569489,"<div style=""display: flex; flex-direction: column; align-items: center; margin-top: -40px;""><img src=""images/pattern_5.png"" style=""width: 234px; height: 230px; margin-top: -50px;""><div style=""display: flex; justify-content: space-between; margin-top: 33px;""><img src=""images/choice_trial_10.png"" style=""width: 408px; height: 417px; margin-right: 200px;""><img src=""images/choice_trial_9.png"" style=""width: 408px; height: 417px;""></div></div>",j,delaylearn,learning,trial,mGACIVCeOxdXDAyBmvTnNv4ttT72,mGACIVCeOxdXDAyBmvTnNv4ttT72,1.0,images/choice_trial_10.png,images/choice_trial_9.png,images/pattern_5.png,j,j,750.0,10.0,9.0,4.0,1.0,25.0,1.0,1.0,9.0,120.0,,,,,,63468c2501e33edb7ecf1907,16:50:49,27/03/2024
html-keyboard-response,134,260930,0.0-57.0-1.0,,"<div style=""display: flex; flex-direction: column; align-items: center; margin-top: -40px;""><img src=""images/pattern_5.png"" style=""width: 234px; height: 230px; margin-top: -50px;""><div style=""display: flex; justify-content: space-between; margin-top: 33px;""><img src=""images/choice_trial_9.png"" style=""width: 408px; height: 417px; margin-left:608px;""></div></div>",,delaylearn,learning,display_response,mGACIVCeOxdXDAyBmvTnNv4ttT72,mGACIVCeOxdXDAyBmvTnNv4ttT72,,,,,,,,,,,,,,,,,chosen stimuli: images/choice_trial_9.png,,,,,63468c2501e33edb7ecf1907,16:50:49,27/03/2024
html-keyboard-response,135,261686,0.0-57.0-2.0,,,,delaylearn,learning,feedback_duration_window,mGACIVCeOxdXDAyBmvTnNv4ttT72,mGACIVCeOxdXDAyBmvTnNv4ttT72,,,,,,,,,,,,,,,,,,750.0,,,,63468c2501e33edb7ecf1907,16:50:49,27/03/2024
html-keyboard-response,136,263189,0.0-57.0-3.0,,<div style='margin:auto;width: auto; font-size: 150%'><span style='font-weight: bold; font-size: 100px; color: green;'>+10 points!</span><br><br></div>,,delaylearn,learning,feedback_image_window,mGACIVCeOxdXDAyBmvTnNv4ttT72,mGACIVCeOxdXDAyBmvTnNv4ttT72,,,,,,,,,,,,,,,,,,,,,,63468c2501e33edb7ecf1907,16:50:49,27/03/2024
html-keyboard-response,137,264720,0.0-58.0,,"<div style=""font-size:100px;"">+</div>",,delaylearn,learning,ITI,mGACIVCeOxdXDAyBmvTnNv4ttT72,mGACIVCeOxdXDAyBmvTnNv4ttT72,,,,,,,,,,,,,,,,,,,1524.0,,,63468c2501e33edb7ecf1907,16:50:49,27/03/2024
html-keyboard-response,138,265640,0.0-59.0-0.0,916.7000000476837,"<div style=""display: flex; flex-direction: column; align-items: center; margin-top: -40px;""><img src=""images/pattern_3.png"" style=""width: 234px; height: 230px; margin-top: -50px;""><div style=""display: flex; justify-content: space-between; margin-top: 33px;""><img src=""images/choice_trial_6.png"" style=""width: 408px; height: 417px; margin-right: 200px;""><img src=""images/choice_trial_5.png"" style=""width: 408px; height: 417px;""></div></div>",j,delaylearn,learning,trial,mGACIVCeOxdXDAyBmvTnNv4ttT72,mGACIVCeOxdXDAyBmvTnNv4ttT72,1.0,images/choice_trial_6.png,images/choice_trial_5.png,images/pattern_3.png,j,j,7000.0,6.0,5.0,2.0,1.0,26.0,1.0,1.0,5.0,130.0,,,,,,63468c2501e33edb7ecf1907,16:50:49,27/03/2024
html-keyboard-response,139,266647,0.0-59.0-1.0,,"<div style=""display: flex; flex-direction: column; align-items: center; margin-top: -40px;""><img src=""images/pattern_3.png"" style=""width: 234px; height: 230px; margin-top: -50px;""><div style=""display: flex; justify-content: space-between; margin-top: 33px;""><img src=""images/choice_trial_5.png"" style=""width: 408px; height: 417px; margin-left:608px;""></div></div>",,delaylearn,learning,display_response,mGACIVCeOxdXDAyBmvTnNv4ttT72,mGACIVCeOxdXDAyBmvTnNv4ttT72,,,,,,,,,,,,,,,,,chosen stimuli: images/choice_trial_5.png,,,,,63468c2501e33edb7ecf1907,16:50:49,27/03/2024
html-keyboard-response,140,273649,0.0-59.0-2.0,,,,delaylearn,learning,feedback_duration_window,mGACIVCeOxdXDAyBmvTnNv4ttT72,mGACIVCeOxdXDAyBmvTnNv4ttT72,,,,,,,,,,,,,,,,,,7000.0,,,,63468c2501e33edb7ecf1907,16:50:49,27/03/2024
html-keyboard-response,141,275157,0.0-59.0-3.0,,<div style='margin:auto;width: auto; font-size: 150%'><span style='font-weight: bold; font-size: 100px; color: green;'>+10 points!</span><br><br></div>,,delaylearn,learning,feedback_image_window,mGACIVCeOxdXDAyBmvTnNv4ttT72,mGACIVCeOxdXDAyBmvTnNv4ttT72,,,,,,,,,,,,,,,,,,,,,,63468c2501e33edb7ecf1907,16:50:49,27/03/2024
lmdlab-html-vas-response,142,281792,0.0-60.0-0.0,5121.0,*How <b><u>confident</u></b> are you feeling about your answers at this moment?*,0.3933477783203125,rewlearn,rate_confidence,,mGACIVCeOxdXDAyBmvTnNv4ttT72,mGACIVCeOxdXDAyBmvTnNv4ttT72,,,,,,,,,,,,,,,,,,,,"['No confidence', 'Complete confidence']",,63468c2501e33edb7ecf1907,16:50:49,27/03/2024
lmdlab-rest-trial-limit,143,350025,0.0-60.0-1.0,66725.59999990463,"<div style=""font-size:40px;""><b>Please take a break!</b><br><br><br><br><p>Great work: you earned 130 points.<br><br><br><p>You have completed part(s) 1 of 5.<br><br><br><br>When you are ready to continue<br><br><br>please click the button.</p><br><br>",0,delaylearn,learning,break,mGACIVCeOxdXDAyBmvTnNv4ttT72,mGACIVCeOxdXDAyBmvTnNv4ttT72,,,,,,,,,,,,,,,,,,,,,0.0,63468c2501e33edb7ecf1907,16:50:49,27/03/2024
html-keyboard-response,144,353029,0.0-60.0-2.0,,"<div style=""font-size:100px;"">+</div>",,delaylearn,learning,pre_fixation,mGACIVCeOxdXDAyBmvTnNv4ttT72,,,,,,,,,,,,,,,,,,,,,,,63468c2501e33edb7ecf1907,16:50:49,27/03/2024
lmdlab-html-vas-response,145,357188,0.0-60.0-3.0-0.0,3149.0,How happy are you right now?,0.5049999491373698,delaylearn,learning,mood_baseline,mGACIVCeOxdXDAyBmvTnNv4ttT72,mGACIVCeOxdXDAyBmvTnNv4ttT72,,,,,,,,,,,,,,,,,,,,"['Very unhappy', 'Very happy']",,63468c2501e33edb7ecf1907,16:50:49,27/03/2024
html-keyboard-response,146,358695,0.0-60.0-3.0-1.0,,,,,,mood_baseline_fixation,mGACIVCeOxdXDAyBmvTnNv4ttT72,,,,,,,,,,,,,,,,,,,,,,,63468c2501e33edb7ecf1907,16:50:49,27/03/2024
html-keyboard-response,147,360917,0.0-61.0,,"<div style=""font-size:100px;"">+</div>",,delaylearn,learning,ITI,mGACIVCeOxdXDAyBmvTnNv4ttT72,mGACIVCeOxdXDAyBmvTnNv4ttT72,,,,,,,,,,,,,,,,,,,2217.0,,,63468c2501e33edb7ecf1907,16:50:49,27/03/2024
html-keyboard-response,148,362259,0.0-62.0-0.0,1338.4000000953674,"<div style=""display: flex; flex-direction: column; align-items: center; margin-top: -40px;""><img src=""images/pattern_7.png"" style=""width: 234px; height: 230px; margin-top: -50px;""><div style=""display: flex; justify-content: space-between; margin-top: 33px;""><img src=""images/choice_trial_14.png"" style=""width: 408px; height: 417px; margin-right: 200px;""><img src=""images/choice_trial_13.png"" style=""width: 408px; height: 417px;""></div></div>",f,delaylearn,learning,trial,mGACIVCeOxdXDAyBmvTnNv4ttT72,mGACIVCeOxdXDAyBmvTnNv4ttT72,1.0,images/choice_trial_14.png,images/choice_trial_13.png,images/pattern_7.png,j,j,750.0,14.0,13.0,6.0,1.0,27.0,0.0,0.0,14.0,130.0,,,,,,63468c2501e33edb7ecf1907,16:50:49,27/03/2024
html-keyboard-response,149,363268,0.0-62.0-1.0,,"<div style=""display: flex; flex-direction: column; align-items: center; margin-top: -40px;""><img src=""images/pattern_7.png"" style=""width: 234px; height: 230px; margin-top: -50px;""><div style=""display: flex; justify-content: space-between; margin-top: 33px;""><img src=""images/choice_trial_14.png"" style=""width: 408px; height: 417px; margin-right: 608px;""></div></div>",,delaylearn,learning,display_response,mGACIVCeOxdXDAyBmvTnNv4ttT72,mGACIVCeOxdXDAyBmvTnNv4ttT72,,,,,,,,,,,,,,,,,chosen stimuli: images/choice_trial_14.png,,,,,63468c2501e33edb7ecf1907,16:50:49,27/03/2024
html-keyboard-response,150,364025,0.0-62.0-2.0,,,,delaylearn,learning,feedback_duration_window,mGACIVCeOxdXDAyBmvTnNv4ttT72,mGACIVCeOxdXDAyBmvTnNv4ttT72,,,,,,,,,,,,,,,,,,750.0,,,,63468c2501e33edb7ecf1907,16:50:49,27/03/2024
html-keyboard-response,151,365532,0.0-62.0-3.0,,<div style='margin:auto;width: auto; font-size: 150%'><span style='font-weight: bold; font-size: 100px; color: red;'>0 points!</span><br><br></div>,,delaylearn,learning,feedback_image_window,mGACIVCeOxdXDAyBmvTnNv4ttT72,mGACIVCeOxdXDAyBmvTnNv4ttT72,,,,,,,,,,,,,,,,,,,,,,63468c2501e33edb7ecf1907,16:50:49,27/03/2024
html-keyboard-response,152,366038,0.0-63.0-0.0,,,,,,mood_trial_fixation,mGACIVCeOxdXDAyBmvTnNv4ttT72,,,,,,,,,,,,,,,,,,,,,,,63468c2501e33edb7ecf1907,16:50:49,27/03/2024
lmdlab-html-vas-response,153,370221,0.0-63.0-1.0,3172.0,How happy are you right now?,0.5066666158040365,delaylearn,learning,mood_trial,mGACIVCeOxdXDAyBmvTnNv4ttT72,mGACIVCeOxdXDAyBmvTnNv4ttT72,,,,,,,,,,,,,,,,,,,,"['Very unhappy', 'Very happy']",,63468c2501e33edb7ecf1907,16:50:49,27/03/2024
html-keyboard-response,154,372393,0.0-64.0,,"<div style=""font-size:100px;"">+</div>",,delaylearn,learning,ITI,mGACIVCeOxdXDAyBmvTnNv4ttT72,mGACIVCeOxdXDAyBmvTnNv4ttT72,,,,,,,,,,,,,,,,,,,2170.0,,,63468c2501e33edb7ecf1907,16:50:49,27/03/2024
html-keyboard-response,155,373970,0.0-65.0-0.0,1573.0999999046326,"<div style=""display: flex; flex-direction: column; align-items: center; margin-top: -40px;""><img src=""images/pattern_1.png"" style=""width: 234px; height: 230px; margin-top: -50px;""><div style=""display: flex; justify-content: space-between; margin-top: 33px;""><img src=""images/choice_trial_1.png"" style=""width: 408px; height: 417px; margin-right: 200px;""><img src=""images/choice_trial_2.png"" style=""width: 408px; height: 417px;""></div></div>",f,delaylearn,learning,trial,mGACIVCeOxdXDAyBmvTnNv4ttT72,mGACIVCeOxdXDAyBmvTnNv4ttT72,1.0,images/choice_trial_1.png,images/choice_trial_2.png,images/pattern_1.png,f,f,7000.0,1.0,2.0,1.0,0.0,28.0,1.0,1.0,1.0,140.0,,,,,,63468c2501e33edb7ecf1907,16:50:49,27/03/2024
html-keyboard-response,156,374977,0.0-65.0-1.0,,"<div style=""display: flex; flex-direction: column; align-items: center; margin-top: -40px;""><img src=""images/pattern_1.png"" style=""width: 234px; height: 230px; margin-top: -50px;""><div style=""display: flex; justify-content: space-between; margin-top: 33px;""><img src=""images/choice_trial_1.png"" style=""width: 408px; height: 417px; margin-right: 608px;""></div></div>",,delaylearn,learning,display_response,mGACIVCeOxdXDAyBmvTnNv4ttT72,mGACIVCeOxdXDAyBmvTnNv4ttT72,,,,,,,,,,,,,,,,,chosen stimuli: images/choice_trial_1.png,,,,,63468c2501e33edb7ecf1907,16:50:49,27/03/2024
html-keyboard-response,157,381980,0.0-65.0-2.0,,,,delaylearn,learning,feedback_duration_window,mGACIVCeOxdXDAyBmvTnNv4ttT72,mGACIVCeOxdXDAyBmvTnNv4ttT72,,,,,,,,,,,,,,,,,,7000.0,,,,63468c2501e33edb7ecf1907,16:50:49,27/03/2024
html-keyboard-response,158,383489,0.0-65.0-3.0,,<div style='margin:auto;width: auto; font-size: 150%'><span style='font-weight: bold; font-size: 100px; color: green;'>+10 points!</span><br><br></div>,,delaylearn,learning,feedback_image_window,mGACIVCeOxdXDAyBmvTnNv4ttT72,mGACIVCeOxdXDAyBmvTnNv4ttT72,,,,,,,,,,,,,,,,,,,,,,63468c2501e33edb7ecf1907,16:50:49,27/03/2024
html-keyboard-response,159,385755,0.0-66.0,,"<div style=""font-size:100px;"">+</div>",,delaylearn,learning,ITI,mGACIVCeOxdXDAyBmvTnNv4ttT72,mGACIVCeOxdXDAyBmvTnNv4ttT72,,,,,,,,,,,,,,,,,,,2259.0,,,63468c2501e33edb7ecf1907,16:50:49,27/03/2024
html-keyboard-response,160,386949,0.0-67.0-0.0,1190.2999999523163,"<div style=""display: flex; flex-direction: column; align-items: center; margin-top: -40px;""><img src=""images/pattern_5.png"" style=""width: 234px; height: 230px; margin-top: -50px;""><div style=""display: flex; justify-content: space-between; margin-top: 33px;""><img src=""images/choice_trial_9.png"" style=""width: 408px; height: 417px; margin-right: 200px;""><img src=""images/choice_trial_10.png"" style=""width: 408px; height: 417px;""></div></div>",f,delaylearn,learning,trial,mGACIVCeOxdXDAyBmvTnNv4ttT72,mGACIVCeOxdXDAyBmvTnNv4ttT72,1.0,images/choice_trial_9.png,images/choice_trial_10.png,images/pattern_5.png,f,f,750.0,9.0,10.0,4.0,0.0,29.0,1.0,1.0,9.0,150.0,,,,,,63468c2501e33edb7ecf1907,16:50:49,27/03/2024
html-keyboard-response,161,387957,0.0-67.0-1.0,,"<div style=""display: flex; flex-direction: column; align-items: center; margin-top: -40px;""><img src=""images/pattern_5.png"" style=""width: 234px; height: 230px; margin-top: -50px;""><div style=""display: flex; justify-content: space-between; margin-top: 33px;""><img src=""images/choice_trial_9.png"" style=""width: 408px; height: 417px; margin-right: 608px;""></div></div>",,delaylearn,learning,display_response,mGACIVCeOxdXDAyBmvTnNv4ttT72,mGACIVCeOxdXDAyBmvTnNv4ttT72,,,,,,,,,,,,,,,,,chosen stimuli: images/choice_trial_9.png,,,,,63468c2501e33edb7ecf1907,16:50:49,27/03/2024
html-keyboard-response,162,388709,0.0-67.0-2.0,,,,delaylearn,learning,feedback_duration_window,mGACIVCeOxdXDAyBmvTnNv4ttT72,mGACIVCeOxdXDAyBmvTnNv4ttT72,,,,,,,,,,,,,,,,,,750.0,,,,63468c2501e33edb7ecf1907,16:50:49,27/03/2024
html-keyboard-response,163,390213,0.0-67.0-3.0,,<div style='margin:auto;width: auto; font-size: 150%'><span style='font-weight: bold; font-size: 100px; color: green;'>+10 points!</span><br><br></div>,,delaylearn,learning,feedback_image_window,mGACIVCeOxdXDAyBmvTnNv4ttT72,mGACIVCeOxdXDAyBmvTnNv4ttT72,,,,,,,,,,,,,,,,,,,,,,63468c2501e33edb7ecf1907,16:50:49,27/03/2024
html-keyboard-response,164,391734,0.0-68.0,,"<div style=""font-size:100px;"">+</div>",,delaylearn,learning,ITI,mGACIVCeOxdXDAyBmvTnNv4ttT72,mGACIVCeOxdXDAyBmvTnNv4ttT72,,,,,,,,,,,,,,,,,,,1514.0,,,63468c2501e33edb7ecf1907,16:50:49,27/03/2024
html-keyboard-response,165,393557,0.0-69.0-0.0,1819.4000000953674,"<div style=""display: flex; flex-direction: column; align-items: center; margin-top: -40px;""><img src=""images/pattern_6.png"" style=""width: 234px; height: 230px; margin-top: -50px;""><div style=""display: flex; justify-content: space-between; margin-top: 33px;""><img src=""images/choice_trial_12.png"" style=""width: 408px; height: 417px; margin-right: 200px;""><img src=""images/choice_trial_11.png"" style=""width: 408px; height: 417px;""></div></div>",j,delaylearn,learning,trial,mGACIVCeOxdXDAyBmvTnNv4ttT72,mGACIVCeOxdXDAyBmvTnNv4ttT72,1.0,images/choice_trial_12.png,images/choice_trial_11.png,images/pattern_6.png,j,j,750.0,12.0,11.0,5.0,1.0,30.0,1.0,1.0,11.0,160.0,,,,,,63468c2501e33edb7ecf1907,16:50:49,27/03/2024
html-keyboard-response,166,394565,0.0-69.0-1.0,,"<div style=""display: flex; flex-direction: column; align-items: center; margin-top: -40px;""><img src=""images/pattern_6.png"" style=""width: 234px; height: 230px; margin-top: -50px;""><div style=""display: flex; justify-content: space-between; margin-top: 33px;""><img src=""images/choice_trial_11.png"" style=""width: 408px; height: 417px; margin-left:608px;""></div></div>",,delaylearn,learning,display_response,mGACIVCeOxdXDAyBmvTnNv4ttT72,mGACIVCeOxdXDAyBmvTnNv4ttT72,,,,,,,,,,,,,,,,,chosen stimuli: images/choice_trial_11.png,,,,,63468c2501e33edb7ecf1907,16:50:49,27/03/2024
html-keyboard-response,167,395323,0.0-69.0-2.0,,,,delaylearn,learning,feedback_duration_window,mGACIVCeOxdXDAyBmvTnNv4ttT72,mGACIVCeOxdXDAyBmvTnNv4ttT72,,,,,,,,,,,,,,,,,,750.0,,,,63468c2501e33edb7ecf1907,16:50:49,27/03/2024
html-keyboard-response,168,396830,0.0-69.0-3.0,,<div style='margin:auto;width: auto; font-size: 150%'><span style='font-weight: bold; font-size: 100px; color: green;'>+10 points!</span><br><br></div>,,delaylearn,learning,feedback_image_window,mGACIVCeOxdXDAyBmvTnNv4ttT72,mGACIVCeOxdXDAyBmvTnNv4ttT72,,,,,,,,,,,,,,,,,,,,,,63468c2501e33edb7ecf1907,16:50:49,27/03/2024
html-keyboard-response,169,397338,0.0-70.0-0.0,,,,,,mood_trial_fixation,mGACIVCeOxdXDAyBmvTnNv4ttT72,,,,,,,,,,,,,,,,,,,,,,,63468c2501e33edb7ecf1907,16:50:49,27/03/2024
lmdlab-html-vas-response,170,401853,0.0-70.0-1.0,3506.0,How happy are you right now?,0.5066666158040365,delaylearn,learning,mood_trial,mGACIVCeOxdXDAyBmvTnNv4ttT72,mGACIVCeOxdXDAyBmvTnNv4ttT72,,,,,,,,,,,,,,,,,,,,"['Very unhappy', 'Very happy']",,63468c2501e33edb7ecf1907,16:50:49,27/03/2024
html-keyboard-response,171,403495,0.0-71.0,,"<div style=""font-size:100px;"">+</div>",,delaylearn,learning,ITI,mGACIVCeOxdXDAyBmvTnNv4ttT72,mGACIVCeOxdXDAyBmvTnNv4ttT72,,,,,,,,,,,,,,,,,,,1636.0,,,63468c2501e33edb7ecf1907,16:50:49,27/03/2024
html-keyboard-response,172,404846,0.0-72.0-0.0,1347.7000000476837,"<div style=""display: flex; flex-direction: column; align-items: center; margin-top: -40px;""><img src=""images/pattern_4.png"" style=""width: 234px; height: 230px; margin-top: -50px;""><div style=""display: flex; justify-content: space-between; margin-top: 33px;""><img src=""images/choice_trial_8.png"" style=""width: 408px; height: 417px; margin-right: 200px;""><img src=""images/choice_trial_7.png"" style=""width: 408px; height: 417px;""></div></div>",f,delaylearn,learning,trial,mGACIVCeOxdXDAyBmvTnNv4ttT72,mGACIVCeOxdXDAyBmvTnNv4ttT72,1.0,images/choice_trial_8.png,images/choice_trial_7.png,images/pattern_4.png,j,j,7000.0,8.0,7.0,3.0,1.0,31.0,0.0,0.0,8.0,160.0,,,,,,63468c2501e33edb7ecf1907,16:50:49,27/03/2024
html-keyboard-response,173,405852,0.0-72.0-1.0,,"<div style=""display: flex; flex-direction: column; align-items: center; margin-top: -40px;""><img src=""images/pattern_4.png"" style=""width: 234px; height: 230px; margin-top: -50px;""><div style=""display: flex; justify-content: space-between; margin-top: 33px;""><img src=""images/choice_trial_8.png"" style=""width: 408px; height: 417px; margin-right: 608px;""></div></div>",,delaylearn,learning,display_response,mGACIVCeOxdXDAyBmvTnNv4ttT72,mGACIVCeOxdXDAyBmvTnNv4ttT72,,,,,,,,,,,,,,,,,chosen stimuli: images/choice_trial_8.png,,,,,63468c2501e33edb7ecf1907,16:50:49,27/03/2024
html-keyboard-response,174,412858,0.0-72.0-2.0,,,,delaylearn,learning,feedback_duration_window,mGACIVCeOxdXDAyBmvTnNv4ttT72,mGACIVCeOxdXDAyBmvTnNv4ttT72,,,,,,,,,,,,,,,,,,7000.0,,,,63468c2501e33edb7ecf1907,16:50:49,27/03/2024
html-keyboard-response,175,414363,0.0-72.0-3.0,,<div style='margin:auto;width: auto; font-size: 150%'><span style='font-weight: bold; font-size: 100px; color: red;'>0 points!</span><br><br></div>,,delaylearn,learning,feedback_image_window,mGACIVCeOxdXDAyBmvTnNv4ttT72,mGACIVCeOxdXDAyBmvTnNv4ttT72,,,,,,,,,,,,,,,,,,,,,,63468c2501e33edb7ecf1907,16:50:49,27/03/2024
html-keyboard-response,176,416547,0.0-73.0,,"<div style=""font-size:100px;"">+</div>",,delaylearn,learning,ITI,mGACIVCeOxdXDAyBmvTnNv4ttT72,mGACIVCeOxdXDAyBmvTnNv4ttT72,,,,,,,,,,,,,,,,,,,2178.0,,,63468c2501e33edb7ecf1907,16:50:49,27/03/2024
html-keyboard-response,177,417575,0.0-74.0-0.0,1023.5,"<div style=""display: flex; flex-direction: column; align-items: center; margin-top: -40px;""><img src=""images/pattern_3.png"" style=""width: 234px; height: 230px; margin-top: -50px;""><div style=""display: flex; justify-content: space-between; margin-top: 33px;""><img src=""images/choice_trial_6.png"" style=""width: 408px; height: 417px; margin-right: 200px;""><img src=""images/choice_trial_5.png"" style=""width: 408px; height: 417px;""></div></div>",j,delaylearn,learning,trial,mGACIVCeOxdXDAyBmvTnNv4ttT72,mGACIVCeOxdXDAyBmvTnNv4ttT72,1.0,images/choice_trial_6.png,images/choice_trial_5.png,images/pattern_3.png,j,j,7000.0,6.0,5.0,2.0,1.0,32.0,1.0,1.0,5.0,170.0,,,,,,63468c2501e33edb7ecf1907,16:50:49,27/03/2024
html-keyboard-response,178,418580,0.0-74.0-1.0,,"<div style=""display: flex; flex-direction: column; align-items: center; margin-top: -40px;""><img src=""images/pattern_3.png"" style=""width: 234px; height: 230px; margin-top: -50px;""><div style=""display: flex; justify-content: space-between; margin-top: 33px;""><img src=""images/choice_trial_5.png"" style=""width: 408px; height: 417px; margin-left:608px;""></div></div>",,delaylearn,learning,display_response,mGACIVCeOxdXDAyBmvTnNv4ttT72,mGACIVCeOxdXDAyBmvTnNv4ttT72,,,,,,,,,,,,,,,,,chosen stimuli: images/choice_trial_5.png,,,,,63468c2501e33edb7ecf1907,16:50:49,27/03/2024
html-keyboard-response,179,425587,0.0-74.0-2.0,,,,delaylearn,learning,feedback_duration_window,mGACIVCeOxdXDAyBmvTnNv4ttT72,mGACIVCeOxdXDAyBmvTnNv4ttT72,,,,,,,,,,,,,,,,,,7000.0,,,,63468c2501e33edb7ecf1907,16:50:49,27/03/2024
html-keyboard-response,180,427090,0.0-74.0-3.0,,<div style='margin:auto;width: auto; font-size: 150%'><span style='font-weight: bold; font-size: 100px; color: green;'>+10 points!</span><br><br></div>,,delaylearn,learning,feedback_image_window,mGACIVCeOxdXDAyBmvTnNv4ttT72,mGACIVCeOxdXDAyBmvTnNv4ttT72,,,,,,,,,,,,,,,,,,,,,,63468c2501e33edb7ecf1907,16:50:49,27/03/2024
html-keyboard-response,181,428674,0.0-75.0,,"<div style=""font-size:100px;"">+</div>",,delaylearn,learning,ITI,mGACIVCeOxdXDAyBmvTnNv4ttT72,mGACIVCeOxdXDAyBmvTnNv4ttT72,,,,,,,,,,,,,,,,,,,1577.0,,,63468c2501e33edb7ecf1907,16:50:49,27/03/2024
html-keyboard-response,182,430383,0.0-76.0-0.0,1706.0,"<div style=""display: flex; flex-direction: column; align-items: center; margin-top: -40px;""><img src=""images/pattern_5.png"" style=""width: 234px; height: 230px; margin-top: -50px;""><div style=""display: flex; justify-content: space-between; margin-top: 33px;""><img src=""images/choice_trial_9.png"" style=""width: 408px; height: 417px; margin-right: 200px;""><img src=""images/choice_trial_10.png"" style=""width: 408px; height: 417px;""></div></div>",j,delaylearn,learning,trial,mGACIVCeOxdXDAyBmvTnNv4ttT72,mGACIVCeOxdXDAyBmvTnNv4ttT72,1.0,images/choice_trial_9.png,images/choice_trial_10.png,images/pattern_5.png,j,f,750.0,9.0,10.0,4.0,0.0,33.0,0.0,1.0,10.0,180.0,,,,,,63468c2501e33edb7ecf1907,16:50:49,27/03/2024
html-keyboard-response,183,431386,0.0-76.0-1.0,,"<div style=""display: flex; flex-direction: column; align-items: center; margin-top: -40px;""><img src=""images/pattern_5.png"" style=""width: 234px; height: 230px; margin-top: -50px;""><div style=""display: flex; justify-content: space-between; margin-top: 33px;""><img src=""images/choice_trial_10.png"" style=""width: 408px; height: 417px; margin-left:608px;""></div></div>",,delaylearn,learning,display_response,mGACIVCeOxdXDAyBmvTnNv4ttT72,mGACIVCeOxdXDAyBmvTnNv4ttT72,,,,,,,,,,,,,,,,,chosen stimuli: images/choice_trial_10.png,,,,,63468c2501e33edb7ecf1907,16:50:49,27/03/2024
html-keyboard-response,184,432143,0.0-76.0-2.0,,,,delaylearn,learning,feedback_duration_window,mGACIVCeOxdXDAyBmvTnNv4ttT72,mGACIVCeOxdXDAyBmvTnNv4ttT72,,,,,,,,,,,,,,,,,,750.0,,,,63468c2501e33edb7ecf1907,16:50:49,27/03/2024
html-keyboard-response,185,433650,0.0-76.0-3.0,,<div style='margin:auto;width: auto; font-size: 150%'><span style='font-weight: bold; font-size: 100px; color: green;'>+10 points!</span><br><br></div>,,delaylearn,learning,feedback_image_window,mGACIVCeOxdXDAyBmvTnNv4ttT72,mGACIVCeOxdXDAyBmvTnNv4ttT72,,,,,,,,,,,,,,,,,,,,,,63468c2501e33edb7ecf1907,16:50:49,27/03/2024
html-keyboard-response,186,435664,0.0-77.0,,"<div style=""font-size:100px;"">+</div>",,delaylearn,learning,ITI,mGACIVCeOxdXDAyBmvTnNv4ttT72,mGACIVCeOxdXDAyBmvTnNv4ttT72,,,,,,,,,,,,,,,,,,,2010.0,,,63468c2501e33edb7ecf1907,16:50:49,27/03/2024
html-keyboard-response,187,437034,0.0-78.0-0.0,1366.3000001907349,"<div style=""display: flex; flex-direction: column; align-items: center; margin-top: -40px;""><img src=""images/pattern_1.png"" style=""width: 234px; height: 230px; margin-top: -50px;""><div style=""display: flex; justify-content: space-between; margin-top: 33px;""><img src=""images/choice_trial_1.png"" style=""width: 408px; height: 417px; margin-right: 200px;""><img src=""images/choice_trial_2.png"" style=""width: 408px; height: 417px;""></div></div>",f,delaylearn,learning,trial,mGACIVCeOxdXDAyBmvTnNv4ttT72,mGACIVCeOxdXDAyBmvTnNv4ttT72,1.0,images/choice_trial_1.png,images/choice_trial_2.png,images/pattern_1.png,f,f,7000.0,1.0,2.0,1.0,0.0,34.0,1.0,1.0,1.0,190.0,,,,,,63468c2501e33edb7ecf1907,16:50:49,27/03/2024
html-keyboard-response,188,438041,0.0-78.0-1.0,,"<div style=""display: flex; flex-direction: column; align-items: center; margin-top: -40px;""><img src=""images/pattern_1.png"" style=""width: 234px; height: 230px; margin-top: -50px;""><div style=""display: flex; justify-content: space-between; margin-top: 33px;""><img src=""images/choice_trial_1.png"" style=""width: 408px; height: 417px; margin-right: 608px;""></div></div>",,delaylearn,learning,display_response,mGACIVCeOxdXDAyBmvTnNv4ttT72,mGACIVCeOxdXDAyBmvTnNv4ttT72,,,,,,,,,,,,,,,,,chosen stimuli: images/choice_trial_1.png,,,,,63468c2501e33edb7ecf1907,16:50:49,27/03/2024
html-keyboard-response,189,445047,0.0-78.0-2.0,,,,delaylearn,learning,feedback_duration_window,mGACIVCeOxdXDAyBmvTnNv4ttT72,mGACIVCeOxdXDAyBmvTnNv4ttT72,,,,,,,,,,,,,,,,,,7000.0,,,,63468c2501e33edb7ecf1907,16:50:49,27/03/2024
html-keyboard-response,190,446555,0.0-78.0-3.0,,<div style='margin:auto;width: auto; font-size: 150%'><span style='font-weight: bold; font-size: 100px; color: green;'>+10 points!</span><br><br></div>,,delaylearn,learning,feedback_image_window,mGACIVCeOxdXDAyBmvTnNv4ttT72,mGACIVCeOxdXDAyBmvTnNv4ttT72,,,,,,,,,,,,,,,,,,,,,,63468c2501e33edb7ecf1907,16:50:49,27/03/2024
html-keyboard-response,191,447061,0.0-79.0-0.0,,,,,,mood_trial_fixation,mGACIVCeOxdXDAyBmvTnNv4ttT72,,,,,,,,,,,,,,,,,,,,,,,63468c2501e33edb7ecf1907,16:50:49,27/03/2024
lmdlab-html-vas-response,192,451386,0.0-79.0-1.0,3315.0,How happy are you right now?,0.4999999491373698,delaylearn,learning,mood_trial,mGACIVCeOxdXDAyBmvTnNv4ttT72,mGACIVCeOxdXDAyBmvTnNv4ttT72,,,,,,,,,,,,,,,,,,,,"['Very unhappy', 'Very happy']",,63468c2501e33edb7ecf1907,16:50:49,27/03/2024
html-keyboard-response,193,453074,0.0-80.0,,"<div style=""font-size:100px;"">+</div>",,delaylearn,learning,ITI,mGACIVCeOxdXDAyBmvTnNv4ttT72,mGACIVCeOxdXDAyBmvTnNv4ttT72,,,,,,,,,,,,,,,,,,,1680.0,,,63468c2501e33edb7ecf1907,16:50:49,27/03/2024
html-keyboard-response,194,454286,0.0-81.0-0.0,1207.7999999523163,"<div style=""display: flex; flex-direction: column; align-items: center; margin-top: -40px;""><img src=""images/pattern_6.png"" style=""width: 234px; height: 230px; margin-top: -50px;""><div style=""display: flex; justify-content: space-between; margin-top: 33px;""><img src=""images/choice_trial_11.png"" style=""width: 408px; height: 417px; margin-right: 200px;""><img src=""images/choice_trial_12.png"" style=""width: 408px; height: 417px;""></div></div>",j,delaylearn,learning,trial,mGACIVCeOxdXDAyBmvTnNv4ttT72,mGACIVCeOxdXDAyBmvTnNv4ttT72,1.0,images/choice_trial_11.png,images/choice_trial_12.png,images/pattern_6.png,j,f,750.0,11.0,12.0,5.0,0.0,35.0,0.0,1.0,12.0,200.0,,,,,,63468c2501e33edb7ecf1907,16:50:49,27/03/2024
html-keyboard-response,195,455294,0.0-81.0-1.0,,"<div style=""display: flex; flex-direction: column; align-items: center; margin-top: -40px;""><img src=""images/pattern_6.png"" style=""width: 234px; height: 230px; margin-top: -50px;""><div style=""display: flex; justify-content: space-between; margin-top: 33px;""><img src=""images/choice_trial_12.png"" style=""width: 408px; height: 417px; margin-left:608px;""></div></div>",,delaylearn,learning,display_response,mGACIVCeOxdXDAyBmvTnNv4ttT72,mGACIVCeOxdXDAyBmvTnNv4ttT72,,,,,,,,,,,,,,,,,chosen stimuli: images/choice_trial_12.png,,,,,63468c2501e33edb7ecf1907,16:50:49,27/03/2024
html-keyboard-response,196,456050,0.0-81.0-2.0,,,,delaylearn,learning,feedback_duration_window,mGACIVCeOxdXDAyBmvTnNv4ttT72,mGACIVCeOxdXDAyBmvTnNv4ttT72,,,,,,,,,,,,,,,,,,750.0,,,,63468c2501e33edb7ecf1907,16:50:49,27/03/2024
html-keyboard-response,197,457558,0.0-81.0-3.0,,<div style='margin:auto;width: auto; font-size: 150%'><span style='font-weight: bold; font-size: 100px; color: green;'>+10 points!</span><br><br></div>,,delaylearn,learning,feedback_image_window,mGACIVCeOxdXDAyBmvTnNv4ttT72,mGACIVCeOxdXDAyBmvTnNv4ttT72,,,,,,,,,,,,,,,,,,,,,,63468c2501e33edb7ecf1907,16:50:49,27/03/2024
html-keyboard-response,198,459366,0.0-82.0,,"<div style=""font-size:100px;"">+</div>",,delaylearn,learning,ITI,mGACIVCeOxdXDAyBmvTnNv4ttT72,mGACIVCeOxdXDAyBmvTnNv4ttT72,,,,,,,,,,,,,,,,,,,1801.0,,,63468c2501e33edb7ecf1907,16:50:49,27/03/2024
html-keyboard-response,199,460973,0.0-83.0-0.0,1602.9000000953674,"<div style=""display: flex; flex-direction: column; align-items: center; margin-top: -40px;""><img src=""images/pattern_3.png"" style=""width: 234px; height: 230px; margin-top: -50px;""><div style=""display: flex; justify-content: space-between; margin-top: 33px;""><img src=""images/choice_trial_6.png"" style=""width: 408px; height: 417px; margin-right: 200px;""><img src=""images/choice_trial_5.png"" style=""width: 408px; height: 417px;""></div></div>",j,delaylearn,learning,trial,mGACIVCeOxdXDAyBmvTnNv4ttT72,mGACIVCeOxdXDAyBmvTnNv4ttT72,1.0,images/choice_trial_6.png,images/choice_trial_5.png,images/pattern_3.png,j,j,7000.0,6.0,5.0,2.0,1.0,36.0,1.0,1.0,5.0,210.0,,,,,,63468c2501e33edb7ecf1907,16:50:49,27/03/2024
html-keyboard-response,200,461975,0.0-83.0-1.0,,"<div style=""display: flex; flex-direction: column; align-items: center; margin-top: -40px;""><img src=""images/pattern_3.png"" style=""width: 234px; height: 230px; margin-top: -50px;""><div style=""display: flex; justify-content: space-between; margin-top: 33px;""><img src=""images/choice_trial_5.png"" style=""width: 408px; height: 417px; margin-left:608px;""></div></div>",,delaylearn,learning,display_response,mGACIVCeOxdXDAyBmvTnNv4ttT72,mGACIVCeOxdXDAyBmvTnNv4ttT72,,,,,,,,,,,,,,,,,chosen stimuli: images/choice_trial_5.png,,,,,63468c2501e33edb7ecf1907,16:50:49,27/03/2024
html-keyboard-response,201,468982,0.0-83.0-2.0,,,,delaylearn,learning,feedback_duration_window,mGACIVCeOxdXDAyBmvTnNv4ttT72,mGACIVCeOxdXDAyBmvTnNv4ttT72,,,,,,,,,,,,,,,,,,7000.0,,,,63468c2501e33edb7ecf1907,16:50:49,27/03/2024
html-keyboard-response,202,470490,0.0-83.0-3.0,,<div style='margin:auto;width: auto; font-size: 150%'><span style='font-weight: bold; font-size: 100px; color: green;'>+10 points!</span><br><br></div>,,delaylearn,learning,feedback_image_window,mGACIVCeOxdXDAyBmvTnNv4ttT72,mGACIVCeOxdXDAyBmvTnNv4ttT72,,,,,,,,,,,,,,,,,,,,,,63468c2501e33edb7ecf1907,16:50:49,27/03/2024
html-keyboard-response,203,472315,0.0-84.0,,"<div style=""font-size:100px;"">+</div>",,delaylearn,learning,ITI,mGACIVCeOxdXDAyBmvTnNv4ttT72,mGACIVCeOxdXDAyBmvTnNv4ttT72,,,,,,,,,,,,,,,,,,,1819.0,,,63468c2501e33edb7ecf1907,16:50:49,27/03/2024
html-keyboard-response,204,473826,0.0-85.0-0.0,1507.2999999523163,"<div style=""display: flex; flex-direction: column; align-items: center; margin-top: -40px;""><img src=""images/pattern_4.png"" style=""width: 234px; height: 230px; margin-top: -50px;""><div style=""display: flex; justify-content: space-between; margin-top: 33px;""><img src=""images/choice_trial_8.png"" style=""width: 408px; height: 417px; margin-right: 200px;""><img src=""images/choice_trial_7.png"" style=""width: 408px; height: 417px;""></div></div>",f,delaylearn,learning,trial,mGACIVCeOxdXDAyBmvTnNv4ttT72,mGACIVCeOxdXDAyBmvTnNv4ttT72,1.0,images/choice_trial_8.png,images/choice_trial_7.png,images/pattern_4.png,f,j,7000.0,8.0,7.0,3.0,1.0,37.0,0.0,1.0,8.0,220.0,,,,,,63468c2501e33edb7ecf1907,16:50:49,27/03/2024
html-keyboard-response,205,474829,0.0-85.0-1.0,,"<div style=""display: flex; flex-direction: column; align-items: center; margin-top: -40px;""><img src=""images/pattern_4.png"" style=""width: 234px; height: 230px; margin-top: -50px;""><div style=""display: flex; justify-content: space-between; margin-top: 33px;""><img src=""images/choice_trial_8.png"" style=""width: 408px; height: 417px; margin-right: 608px;""></div></div>",,delaylearn,learning,display_response,mGACIVCeOxdXDAyBmvTnNv4ttT72,mGACIVCeOxdXDAyBmvTnNv4ttT72,,,,,,,,,,,,,,,,,chosen stimuli: images/choice_trial_8.png,,,,,63468c2501e33edb7ecf1907,16:50:49,27/03/2024
html-keyboard-response,206,481835,0.0-85.0-2.0,,,,delaylearn,learning,feedback_duration_window,mGACIVCeOxdXDAyBmvTnNv4ttT72,mGACIVCeOxdXDAyBmvTnNv4ttT72,,,,,,,,,,,,,,,,,,7000.0,,,,63468c2501e33edb7ecf1907,16:50:49,27/03/2024
html-keyboard-response,207,483343,0.0-85.0-3.0,,<div style='margin:auto;width: auto; font-size: 150%'><span style='font-weight: bold; font-size: 100px; color: green;'>+10 points!</span><br><br></div>,,delaylearn,learning,feedback_image_window,mGACIVCeOxdXDAyBmvTnNv4ttT72,mGACIVCeOxdXDAyBmvTnNv4ttT72,,,,,,,,,,,,,,,,,,,,,,63468c2501e33edb7ecf1907,16:50:49,27/03/2024
html-keyboard-response,208,485358,0.0-86.0,,"<div style=""font-size:100px;"">+</div>",,delaylearn,learning,ITI,mGACIVCeOxdXDAyBmvTnNv4ttT72,mGACIVCeOxdXDAyBmvTnNv4ttT72,,,,,,,,,,,,,,,,,,,2008.0,,,63468c2501e33edb7ecf1907,16:50:49,27/03/2024
html-keyboard-response,209,486897,0.0-87.0-0.0,1534.8999998569489,"<div style=""display: flex; flex-direction: column; align-items: center; margin-top: -40px;""><img src=""images/pattern_7.png"" style=""width: 234px; height: 230px; margin-top: -50px;""><div style=""display: flex; justify-content: space-between; margin-top: 33px;""><img src=""images/choice_trial_13.png"" style=""width: 408px; height: 417px; margin-right: 200px;""><img src=""images/choice_trial_14.png"" style=""width: 408px; height: 417px;""></div></div>",j,delaylearn,learning,trial,mGACIVCeOxdXDAyBmvTnNv4ttT72,mGACIVCeOxdXDAyBmvTnNv4ttT72,1.0,images/choice_trial_13.png,images/choice_trial_14.png,images/pattern_7.png,f,f,750.0,13.0,14.0,6.0,0.0,38.0,0.0,0.0,14.0,220.0,,,,,,63468c2501e33edb7ecf1907,16:50:49,27/03/2024
html-keyboard-response,210,487904,0.0-87.0-1.0,,"<div style=""display: flex; flex-direction: column; align-items: center; margin-top: -40px;""><img src=""images/pattern_7.png"" style=""width: 234px; height: 230px; margin-top: -50px;""><div style=""display: flex; justify-content: space-between; margin-top: 33px;""><img src=""images/choice_trial_14.png"" style=""width: 408px; height: 417px; margin-left:608px;""></div></div>",,delaylearn,learning,display_response,mGACIVCeOxdXDAyBmvTnNv4ttT72,mGACIVCeOxdXDAyBmvTnNv4ttT72,,,,,,,,,,,,,,,,,chosen stimuli: images/choice_trial_14.png,,,,,63468c2501e33edb7ecf1907,16:50:49,27/03/2024
html-keyboard-response,211,488661,0.0-87.0-2.0,,,,delaylearn,learning,feedback_duration_window,mGACIVCeOxdXDAyBmvTnNv4ttT72,mGACIVCeOxdXDAyBmvTnNv4ttT72,,,,,,,,,,,,,,,,,,750.0,,,,63468c2501e33edb7ecf1907,16:50:49,27/03/2024
html-keyboard-response,212,490168,0.0-87.0-3.0,,<div style='margin:auto;width: auto; font-size: 150%'><span style='font-weight: bold; font-size: 100px; color: red;'>0 points!</span><br><br></div>,,delaylearn,learning,feedback_image_window,mGACIVCeOxdXDAyBmvTnNv4ttT72,mGACIVCeOxdXDAyBmvTnNv4ttT72,,,,,,,,,,,,,,,,,,,,,,63468c2501e33edb7ecf1907,16:50:49,27/03/2024
html-keyboard-response,213,492446,0.0-88.0,,"<div style=""font-size:100px;"">+</div>",,delaylearn,learning,ITI,mGACIVCeOxdXDAyBmvTnNv4ttT72,mGACIVCeOxdXDAyBmvTnNv4ttT72,,,,,,,,,,,,,,,,,,,2271.0,,,63468c2501e33edb7ecf1907,16:50:49,27/03/2024
html-keyboard-response,214,493417,0.0-89.0-0.0,967.6000001430511,"<div style=""display: flex; flex-direction: column; align-items: center; margin-top: -40px;""><img src=""images/pattern_1.png"" style=""width: 234px; height: 230px; margin-top: -50px;""><div style=""display: flex; justify-content: space-between; margin-top: 33px;""><img src=""images/choice_trial_1.png"" style=""width: 408px; height: 417px; margin-right: 200px;""><img src=""images/choice_trial_2.png"" style=""width: 408px; height: 417px;""></div></div>",f,delaylearn,learning,trial,mGACIVCeOxdXDAyBmvTnNv4ttT72,mGACIVCeOxdXDAyBmvTnNv4ttT72,1.0,images/choice_trial_1.png,images/choice_trial_2.png,images/pattern_1.png,f,f,7000.0,1.0,2.0,1.0,0.0,39.0,1.0,1.0,1.0,230.0,,,,,,63468c2501e33edb7ecf1907,16:50:49,27/03/2024
html-keyboard-response,215,494424,0.0-89.0-1.0,,"<div style=""display: flex; flex-direction: column; align-items: center; margin-top: -40px;""><img src=""images/pattern_1.png"" style=""width: 234px; height: 230px; margin-top: -50px;""><div style=""display: flex; justify-content: space-between; margin-top: 33px;""><img src=""images/choice_trial_1.png"" style=""width: 408px; height: 417px; margin-right: 608px;""></div></div>",,delaylearn,learning,display_response,mGACIVCeOxdXDAyBmvTnNv4ttT72,mGACIVCeOxdXDAyBmvTnNv4ttT72,,,,,,,,,,,,,,,,,chosen stimuli: images/choice_trial_1.png,,,,,63468c2501e33edb7ecf1907,16:50:49,27/03/2024
html-keyboard-response,216,501426,0.0-89.0-2.0,,,,delaylearn,learning,feedback_duration_window,mGACIVCeOxdXDAyBmvTnNv4ttT72,mGACIVCeOxdXDAyBmvTnNv4ttT72,,,,,,,,,,,,,,,,,,7000.0,,,,63468c2501e33edb7ecf1907,16:50:49,27/03/2024
html-keyboard-response,217,502930,0.0-89.0-3.0,,<div style='margin:auto;width: auto; font-size: 150%'><span style='font-weight: bold; font-size: 100px; color: green;'>+10 points!</span><br><br></div>,,delaylearn,learning,feedback_image_window,mGACIVCeOxdXDAyBmvTnNv4ttT72,mGACIVCeOxdXDAyBmvTnNv4ttT72,,,,,,,,,,,,,,,,,,,,,,63468c2501e33edb7ecf1907,16:50:49,27/03/2024
html-keyboard-response,218,503437,0.0-90.0-0.0,,,,,,mood_trial_fixation,mGACIVCeOxdXDAyBmvTnNv4ttT72,,,,,,,,,,,,,,,,,,,,,,,63468c2501e33edb7ecf1907,16:50:49,27/03/2024
lmdlab-html-vas-response,219,507252,0.0-90.0-1.0,2810.0,How happy are you right now?,0.5133332824707031,delaylearn,learning,mood_trial,mGACIVCeOxdXDAyBmvTnNv4ttT72,mGACIVCeOxdXDAyBmvTnNv4ttT72,,,,,,,,,,,,,,,,,,,,"['Very unhappy', 'Very happy']",,63468c2501e33edb7ecf1907,16:50:49,27/03/2024
html-keyboard-response,220,509263,0.0-91.0,,"<div style=""font-size:100px;"">+</div>",,delaylearn,learning,ITI,mGACIVCeOxdXDAyBmvTnNv4ttT72,mGACIVCeOxdXDAyBmvTnNv4ttT72,,,,,,,,,,,,,,,,,,,2006.0,,,63468c2501e33edb7ecf1907,16:50:49,27/03/2024
html-keyboard-response,221,510521,0.0-92.0-0.0,1253.2000000476837,"<div style=""display: flex; flex-direction: column; align-items: center; margin-top: -40px;""><img src=""images/pattern_3.png"" style=""width: 234px; height: 230px; margin-top: -50px;""><div style=""display: flex; justify-content: space-between; margin-top: 33px;""><img src=""images/choice_trial_5.png"" style=""width: 408px; height: 417px; margin-right: 200px;""><img src=""images/choice_trial_6.png"" style=""width: 408px; height: 417px;""></div></div>",f,delaylearn,learning,trial,mGACIVCeOxdXDAyBmvTnNv4ttT72,mGACIVCeOxdXDAyBmvTnNv4ttT72,1.0,images/choice_trial_5.png,images/choice_trial_6.png,images/pattern_3.png,j,f,7000.0,5.0,6.0,2.0,0.0,40.0,1.0,0.0,5.0,230.0,,,,,,63468c2501e33edb7ecf1907,16:50:49,27/03/2024
html-keyboard-response,222,511527,0.0-92.0-1.0,,"<div style=""display: flex; flex-direction: column; align-items: center; margin-top: -40px;""><img src=""images/pattern_3.png"" style=""width: 234px; height: 230px; margin-top: -50px;""><div style=""display: flex; justify-content: space-between; margin-top: 33px;""><img src=""images/choice_trial_5.png"" style=""width: 408px; height: 417px; margin-right: 608px;""></div></div>",,delaylearn,learning,display_response,mGACIVCeOxdXDAyBmvTnNv4ttT72,mGACIVCeOxdXDAyBmvTnNv4ttT72,,,,,,,,,,,,,,,,,chosen stimuli: images/choice_trial_5.png,,,,,63468c2501e33edb7ecf1907,16:50:49,27/03/2024
html-keyboard-response,223,518535,0.0-92.0-2.0,,,,delaylearn,learning,feedback_duration_window,mGACIVCeOxdXDAyBmvTnNv4ttT72,mGACIVCeOxdXDAyBmvTnNv4ttT72,,,,,,,,,,,,,,,,,,7000.0,,,,63468c2501e33edb7ecf1907,16:50:49,27/03/2024
html-keyboard-response,224,520040,0.0-92.0-3.0,,<div style='margin:auto;width: auto; font-size: 150%'><span style='font-weight: bold; font-size: 100px; color: red;'>0 points!</span><br><br></div>,,delaylearn,learning,feedback_image_window,mGACIVCeOxdXDAyBmvTnNv4ttT72,mGACIVCeOxdXDAyBmvTnNv4ttT72,,,,,,,,,,,,,,,,,,,,,,63468c2501e33edb7ecf1907,16:50:49,27/03/2024
html-keyboard-response,225,521925,0.0-93.0,,"<div style=""font-size:100px;"">+</div>",,delaylearn,learning,ITI,mGACIVCeOxdXDAyBmvTnNv4ttT72,mGACIVCeOxdXDAyBmvTnNv4ttT72,,,,,,,,,,,,,,,,,,,1883.0,,,63468c2501e33edb7ecf1907,16:50:49,27/03/2024
html-keyboard-response,226,523317,0.0-94.0-0.0,1389.7000000476837,"<div style=""display: flex; flex-direction: column; align-items: center; margin-top: -40px;""><img src=""images/pattern_7.png"" style=""width: 234px; height: 230px; margin-top: -50px;""><div style=""display: flex; justify-content: space-between; margin-top: 33px;""><img src=""images/choice_trial_14.png"" style=""width: 408px; height: 417px; margin-right: 200px;""><img src=""images/choice_trial_13.png"" style=""width: 408px; height: 417px;""></div></div>",f,delaylearn,learning,trial,mGACIVCeOxdXDAyBmvTnNv4ttT72,mGACIVCeOxdXDAyBmvTnNv4ttT72,1.0,images/choice_trial_14.png,images/choice_trial_13.png,images/pattern_7.png,j,j,750.0,14.0,13.0,6.0,1.0,41.0,0.0,0.0,14.0,230.0,,,,,,63468c2501e33edb7ecf1907,16:50:49,27/03/2024
html-keyboard-response,227,524325,0.0-94.0-1.0,,"<div style=""display: flex; flex-direction: column; align-items: center; margin-top: -40px;""><img src=""images/pattern_7.png"" style=""width: 234px; height: 230px; margin-top: -50px;""><div style=""display: flex; justify-content: space-between; margin-top: 33px;""><img src=""images/choice_trial_14.png"" style=""width: 408px; height: 417px; margin-right: 608px;""></div></div>",,delaylearn,learning,display_response,mGACIVCeOxdXDAyBmvTnNv4ttT72,mGACIVCeOxdXDAyBmvTnNv4ttT72,,,,,,,,,,,,,,,,,chosen stimuli: images/choice_trial_14.png,,,,,63468c2501e33edb7ecf1907,16:50:49,27/03/2024
html-keyboard-response,228,525082,0.0-94.0-2.0,,,,delaylearn,learning,feedback_duration_window,mGACIVCeOxdXDAyBmvTnNv4ttT72,mGACIVCeOxdXDAyBmvTnNv4ttT72,,,,,,,,,,,,,,,,,,750.0,,,,63468c2501e33edb7ecf1907,16:50:49,27/03/2024
html-keyboard-response,229,526586,0.0-94.0-3.0,,<div style='margin:auto;width: auto; font-size: 150%'><span style='font-weight: bold; font-size: 100px; color: red;'>0 points!</span><br><br></div>,,delaylearn,learning,feedback_image_window,mGACIVCeOxdXDAyBmvTnNv4ttT72,mGACIVCeOxdXDAyBmvTnNv4ttT72,,,,,,,,,,,,,,,,,,,,,,63468c2501e33edb7ecf1907,16:50:49,27/03/2024
html-keyboard-response,230,528251,0.0-95.0,,"<div style=""font-size:100px;"">+</div>",,delaylearn,learning,ITI,mGACIVCeOxdXDAyBmvTnNv4ttT72,mGACIVCeOxdXDAyBmvTnNv4ttT72,,,,,,,,,,,,,,,,,,,1658.0,,,63468c2501e33edb7ecf1907,16:50:49,27/03/2024
