trial_type,trial_index,time_elapsed,internal_node_id,rt,stimulus,response,exp_name,exp_stage,test_part,subjectID,databaseID,counterbal,choice_stimuli_1,choice_stimuli_2,pattern_stimuli,rewarded_answer,correct_answer,feedback_duration_times,stim_left,stim_right,pair,leftright_counter,trial,response_correct,response_rewarded,chosen_stim,counter,displayed_choice,feedback_durations,ITI_duration,labels,rest_warning,prolificID,start_time,date
pavlovia,0,502,0.0-0.0,,,,,,,6m2DT9IWbWYdYDg6KJcDhmQ93As2,,,,,,,,,,,,,,,,,,,,,,,614793a7be62637e6a2ccf3e,16:40:03,27/03/2024
html-keyboard-response,1,3504,0.0-1.0,,"<div style=""font-size:100px;"">+</div>",,delaylearn,learning,pre_fixation,6m2DT9IWbWYdYDg6KJcDhmQ93As2,,,,,,,,,,,,,,,,,,,,,,,614793a7be62637e6a2ccf3e,16:40:03,27/03/2024
html-keyboard-response,2,4474,0.0-2.0-0.0,967.4000000059605,"<div style=""display: flex; flex-direction: column; align-items: center; margin-top: -40px;""><img src=""images/demo_images/pattern_1.png"" style=""width: 234px; height: 230px; margin-top: -50px;""><div style=""display: flex; justify-content: space-between; margin-top: 33px;""><img src=""images/demo_images/choice_trial_2.png"" style=""width: 408px; height: 417px; margin-right: 200px;""><img src=""images/demo_images/choice_trial_1.png"" style=""width: 408px; height: 417px;""></div></div>",f,delaylearn,learning,trial,6m2DT9IWbWYdYDg6KJcDhmQ93As2,6m2DT9IWbWYdYDg6KJcDhmQ93As2,2.0,images/demo_images/choice_trial_2.png,images/demo_images/choice_trial_1.png,images/demo_images/pattern_1.png,j,j,3000.0,2.0,1.0,20.0,1.0,1.0,0.0,0.0,2.0,0.0,,,,,,614793a7be62637e6a2ccf3e,16:40:03,27/03/2024
html-keyboard-response,3,5478,0.0-2.0-1.0,,"<div style=""display: flex; flex-direction: column; align-items: center; margin-top: -40px;""><img src=""images/demo_images/pattern_1.png"" style=""width: 234px; height: 230px; margin-top: -50px;""><div style=""display: flex; justify-content: space-between; margin-top: 33px;""><img src=""images/demo_images/choice_trial_2.png"" style=""width: 408px; height: 417px; margin-right: 608px;""></div></div>",,delaylearn,learning,display_response,6m2DT9IWbWYdYDg6KJcDhmQ93As2,6m2DT9IWbWYdYDg6KJcDhmQ93As2,,,,,,,,,,,,,,,,,chosen stimuli: images/demo_images/choice_trial_2.png,,,,,614793a7be62637e6a2ccf3e,16:40:03,27/03/2024
html-keyboard-response,4,8481,0.0-2.0-2.0,,,,delaylearn,learning,feedback_duration_window,6m2DT9IWbWYdYDg6KJcDhmQ93As2,6m2DT9IWbWYdYDg6KJcDhmQ93As2,,,,,,,,,,,,,,,,,,3000.0,,,,614793a7be62637e6a2ccf3e,16:40:03,27/03/2024
html-keyboard-response,5,9984,0.0-2.0-3.0,,<div style='margin:auto;width: auto; font-size: 150%'><span style='font-weight: bold; font-size: 100px; color: red;'>0 points!</span><br><br></div>,,delaylearn,learning,feedback_image_window,6m2DT9IWbWYdYDg6KJcDhmQ93As2,6m2DT9IWbWYdYDg6KJcDhmQ93As2,,,,,,,,,,,,,,,,,,,,,,614793a7be62637e6a2ccf3e,16:40:03,27/03/2024
html-keyboard-response,6,11705,0.0-3.0,,"<div style=""font-size:100px;"">+</div>",,delaylearn,learning,ITI,6m2DT9IWbWYdYDg6KJcDhmQ93As2,6m2DT9IWbWYdYDg6KJcDhmQ93As2,,,,,,,,,,,,,,,,,,,1717.0,,,614793a7be62637e6a2ccf3e,16:40:03,27/03/2024
html-keyboard-response,7,12511,0.0-4.0-0.0,802.5,"<div style=""display: flex; flex-direction: column; align-items: center; margin-top: -40px;""><img src=""images/demo_images/pattern_1.png"" style=""width: 234px; height: 230px; margin-top: -50px;""><div style=""display: flex; justify-content: space-between; margin-top: 33px;""><img src=""images/demo_images/choice_trial_2.png"" style=""width: 408px; height: 417px; margin-right: 200px;""><img src=""images/demo_images/choice_trial_1.png"" style=""width: 408px; height: 417px;""></div></div>",j,delaylearn,learning,trial,6m2DT9IWbWYdYDg6KJcDhmQ93As2,6m2DT9IWbWYdYDg6KJcDhmQ93As2,2.0,images/demo_images/choice_trial_2.png,images/demo_images/choice_trial_1.png,images/demo_images/pattern_1.png,j,j,3000.0,2.0,1.0,20.0,1.0,2.0,1.0,1.0,1.0,10.0,,,,,,614793a7be62637e6a2ccf3e,16:40:03,27/03/2024
html-keyboard-response,8,13514,0.0-4.0-1.0,,"<div style=""display: flex; flex-direction: column; align-items: center; margin-top: -40px;""><img src=""images/demo_images/pattern_1.png"" style=""width: 234px; height: 230px; margin-top: -50px;""><div style=""display: flex; justify-content: space-between; margin-top: 33px;""><img src=""images/demo_images/choice_trial_1.png"" style=""width: 408px; height: 417px; margin-left:608px;""></div></div>",,delaylearn,learning,display_response,6m2DT9IWbWYdYDg6KJcDhmQ93As2,6m2DT9IWbWYdYDg6KJcDhmQ93As2,,,,,,,,,,,,,,,,,chosen stimuli: images/demo_images/choice_trial_1.png,,,,,614793a7be62637e6a2ccf3e,16:40:03,27/03/2024
html-keyboard-response,9,16517,0.0-4.0-2.0,,,,delaylearn,learning,feedback_duration_window,6m2DT9IWbWYdYDg6KJcDhmQ93As2,6m2DT9IWbWYdYDg6KJcDhmQ93As2,,,,,,,,,,,,,,,,,,3000.0,,,,614793a7be62637e6a2ccf3e,16:40:03,27/03/2024
html-keyboard-response,10,18020,0.0-4.0-3.0,,<div style='margin:auto;width: auto; font-size: 150%'><span style='font-weight: bold; font-size: 100px; color: green;'>+10 points!</span><br><br></div>,,delaylearn,learning,feedback_image_window,6m2DT9IWbWYdYDg6KJcDhmQ93As2,6m2DT9IWbWYdYDg6KJcDhmQ93As2,,,,,,,,,,,,,,,,,,,,,,614793a7be62637e6a2ccf3e,16:40:03,27/03/2024
html-keyboard-response,11,19960,0.0-5.0,,"<div style=""font-size:100px;"">+</div>",,delaylearn,learning,ITI,6m2DT9IWbWYdYDg6KJcDhmQ93As2,6m2DT9IWbWYdYDg6KJcDhmQ93As2,,,,,,,,,,,,,,,,,,,1938.0,,,614793a7be62637e6a2ccf3e,16:40:03,27/03/2024
html-keyboard-response,12,20994,0.0-6.0-0.0,1029.9000000059605,"<div style=""display: flex; flex-direction: column; align-items: center; margin-top: -40px;""><img src=""images/demo_images/pattern_1.png"" style=""width: 234px; height: 230px; margin-top: -50px;""><div style=""display: flex; justify-content: space-between; margin-top: 33px;""><img src=""images/demo_images/choice_trial_1.png"" style=""width: 408px; height: 417px; margin-right: 200px;""><img src=""images/demo_images/choice_trial_2.png"" style=""width: 408px; height: 417px;""></div></div>",f,delaylearn,learning,trial,6m2DT9IWbWYdYDg6KJcDhmQ93As2,6m2DT9IWbWYdYDg6KJcDhmQ93As2,2.0,images/demo_images/choice_trial_1.png,images/demo_images/choice_trial_2.png,images/demo_images/pattern_1.png,j,f,3000.0,1.0,2.0,20.0,0.0,3.0,1.0,0.0,1.0,10.0,,,,,,614793a7be62637e6a2ccf3e,16:40:03,27/03/2024
html-keyboard-response,13,21997,0.0-6.0-1.0,,"<div style=""display: flex; flex-direction: column; align-items: center; margin-top: -40px;""><img src=""images/demo_images/pattern_1.png"" style=""width: 234px; height: 230px; margin-top: -50px;""><div style=""display: flex; justify-content: space-between; margin-top: 33px;""><img src=""images/demo_images/choice_trial_1.png"" style=""width: 408px; height: 417px; margin-right: 608px;""></div></div>",,delaylearn,learning,display_response,6m2DT9IWbWYdYDg6KJcDhmQ93As2,6m2DT9IWbWYdYDg6KJcDhmQ93As2,,,,,,,,,,,,,,,,,chosen stimuli: images/demo_images/choice_trial_1.png,,,,,614793a7be62637e6a2ccf3e,16:40:03,27/03/2024
html-keyboard-response,14,25000,0.0-6.0-2.0,,,,delaylearn,learning,feedback_duration_window,6m2DT9IWbWYdYDg6KJcDhmQ93As2,6m2DT9IWbWYdYDg6KJcDhmQ93As2,,,,,,,,,,,,,,,,,,3000.0,,,,614793a7be62637e6a2ccf3e,16:40:03,27/03/2024
html-keyboard-response,15,26503,0.0-6.0-3.0,,<div style='margin:auto;width: auto; font-size: 150%'><span style='font-weight: bold; font-size: 100px; color: red;'>0 points!</span><br><br></div>,,delaylearn,learning,feedback_image_window,6m2DT9IWbWYdYDg6KJcDhmQ93As2,6m2DT9IWbWYdYDg6KJcDhmQ93As2,,,,,,,,,,,,,,,,,,,,,,614793a7be62637e6a2ccf3e,16:40:03,27/03/2024
html-keyboard-response,16,28757,0.0-7.0,,"<div style=""font-size:100px;"">+</div>",,delaylearn,learning,ITI,6m2DT9IWbWYdYDg6KJcDhmQ93As2,6m2DT9IWbWYdYDg6KJcDhmQ93As2,,,,,,,,,,,,,,,,,,,2251.0,,,614793a7be62637e6a2ccf3e,16:40:03,27/03/2024
html-keyboard-response,17,29856,0.0-8.0-0.0,1096.800000011921,"<div style=""display: flex; flex-direction: column; align-items: center; margin-top: -40px;""><img src=""images/demo_images/pattern_1.png"" style=""width: 234px; height: 230px; margin-top: -50px;""><div style=""display: flex; justify-content: space-between; margin-top: 33px;""><img src=""images/demo_images/choice_trial_1.png"" style=""width: 408px; height: 417px; margin-right: 200px;""><img src=""images/demo_images/choice_trial_2.png"" style=""width: 408px; height: 417px;""></div></div>",j,delaylearn,learning,trial,6m2DT9IWbWYdYDg6KJcDhmQ93As2,6m2DT9IWbWYdYDg6KJcDhmQ93As2,2.0,images/demo_images/choice_trial_1.png,images/demo_images/choice_trial_2.png,images/demo_images/pattern_1.png,f,f,3000.0,1.0,2.0,20.0,0.0,4.0,0.0,0.0,2.0,10.0,,,,,,614793a7be62637e6a2ccf3e,16:40:03,27/03/2024
html-keyboard-response,18,30860,0.0-8.0-1.0,,"<div style=""display: flex; flex-direction: column; align-items: center; margin-top: -40px;""><img src=""images/demo_images/pattern_1.png"" style=""width: 234px; height: 230px; margin-top: -50px;""><div style=""display: flex; justify-content: space-between; margin-top: 33px;""><img src=""images/demo_images/choice_trial_2.png"" style=""width: 408px; height: 417px; margin-left:608px;""></div></div>",,delaylearn,learning,display_response,6m2DT9IWbWYdYDg6KJcDhmQ93As2,6m2DT9IWbWYdYDg6KJcDhmQ93As2,,,,,,,,,,,,,,,,,chosen stimuli: images/demo_images/choice_trial_2.png,,,,,614793a7be62637e6a2ccf3e,16:40:03,27/03/2024
html-keyboard-response,19,33863,0.0-8.0-2.0,,,,delaylearn,learning,feedback_duration_window,6m2DT9IWbWYdYDg6KJcDhmQ93As2,6m2DT9IWbWYdYDg6KJcDhmQ93As2,,,,,,,,,,,,,,,,,,3000.0,,,,614793a7be62637e6a2ccf3e,16:40:03,27/03/2024
html-keyboard-response,20,35365,0.0-8.0-3.0,,<div style='margin:auto;width: auto; font-size: 150%'><span style='font-weight: bold; font-size: 100px; color: red;'>0 points!</span><br><br></div>,,delaylearn,learning,feedback_image_window,6m2DT9IWbWYdYDg6KJcDhmQ93As2,6m2DT9IWbWYdYDg6KJcDhmQ93As2,,,,,,,,,,,,,,,,,,,,,,614793a7be62637e6a2ccf3e,16:40:03,27/03/2024
html-keyboard-response,21,35868,0.0-9.0-0.0,,,,,,mood_trial_fixation,6m2DT9IWbWYdYDg6KJcDhmQ93As2,,,,,,,,,,,,,,,,,,,,,,,614793a7be62637e6a2ccf3e,16:40:03,27/03/2024
lmdlab-html-vas-response,22,40817,0.0-9.0-1.0,3931.0,How happy are you right now?,0.17777777777777778,delaylearn,learning,mood_trial,6m2DT9IWbWYdYDg6KJcDhmQ93As2,6m2DT9IWbWYdYDg6KJcDhmQ93As2,,,,,,,,,,,,,,,,,,,,"['Very unhappy', 'Very happy']",,614793a7be62637e6a2ccf3e,16:40:03,27/03/2024
html-keyboard-response,23,42672,0.0-10.0,,"<div style=""font-size:100px;"">+</div>",,delaylearn,learning,ITI,6m2DT9IWbWYdYDg6KJcDhmQ93As2,6m2DT9IWbWYdYDg6KJcDhmQ93As2,,,,,,,,,,,,,,,,,,,1852.0,,,614793a7be62637e6a2ccf3e,16:40:03,27/03/2024
html-keyboard-response,24,45676,0.0-11.0-0.0,,"<div style=""display: flex; flex-direction: column; align-items: center; margin-top: -40px;""><img src=""images/demo_images/pattern_1.png"" style=""width: 234px; height: 230px; margin-top: -50px;""><div style=""display: flex; justify-content: space-between; margin-top: 33px;""><img src=""images/demo_images/choice_trial_2.png"" style=""width: 408px; height: 417px; margin-right: 200px;""><img src=""images/demo_images/choice_trial_1.png"" style=""width: 408px; height: 417px;""></div></div>",,delaylearn,learning,trial,6m2DT9IWbWYdYDg6KJcDhmQ93As2,6m2DT9IWbWYdYDg6KJcDhmQ93As2,2.0,images/demo_images/choice_trial_2.png,images/demo_images/choice_trial_1.png,images/demo_images/pattern_1.png,j,j,3000.0,2.0,1.0,20.0,1.0,5.0,0.0,0.0,0.0,10.0,,,,,,614793a7be62637e6a2ccf3e,16:40:03,27/03/2024
html-keyboard-response,25,46680,0.0-11.0-1.0,,<div style='font-weight: bold; font-size: 75px; color: red;'>Missed Trial <br><br><br><br> Please respond faster</div>,,delaylearn,learning,display_response,6m2DT9IWbWYdYDg6KJcDhmQ93As2,6m2DT9IWbWYdYDg6KJcDhmQ93As2,,,,,,,,,,,,,,,,,Missed trial,,,,,614793a7be62637e6a2ccf3e,16:40:03,27/03/2024
html-keyboard-response,26,46687,0.0-11.0-2.0,,,,delaylearn,learning,feedback_duration_window,6m2DT9IWbWYdYDg6KJcDhmQ93As2,6m2DT9IWbWYdYDg6KJcDhmQ93As2,,,,,,,,,,,,,,,,,,0.0,,,,614793a7be62637e6a2ccf3e,16:40:03,27/03/2024
html-keyboard-response,27,46693,0.0-11.0-3.0,,,,delaylearn,learning,feedback_image_window,6m2DT9IWbWYdYDg6KJcDhmQ93As2,6m2DT9IWbWYdYDg6KJcDhmQ93As2,,,,,,,,,,,,,,,,,,,,,,614793a7be62637e6a2ccf3e,16:40:03,27/03/2024
html-keyboard-response,28,48792,0.0-12.0,,"<div style=""font-size:100px;"">+</div>",,delaylearn,learning,ITI,6m2DT9IWbWYdYDg6KJcDhmQ93As2,6m2DT9IWbWYdYDg6KJcDhmQ93As2,,,,,,,,,,,,,,,,,,,2096.0,,,614793a7be62637e6a2ccf3e,16:40:03,27/03/2024
html-keyboard-response,29,49998,0.0-13.0-0.0,1201.9000000059605,"<div style=""display: flex; flex-direction: column; align-items: center; margin-top: -40px;""><img src=""images/demo_images/pattern_1.png"" style=""width: 234px; height: 230px; margin-top: -50px;""><div style=""display: flex; justify-content: space-between; margin-top: 33px;""><img src=""images/demo_images/choice_trial_1.png"" style=""width: 408px; height: 417px; margin-right: 200px;""><img src=""images/demo_images/choice_trial_2.png"" style=""width: 408px; height: 417px;""></div></div>",f,delaylearn,learning,trial,6m2DT9IWbWYdYDg6KJcDhmQ93As2,6m2DT9IWbWYdYDg6KJcDhmQ93As2,2.0,images/demo_images/choice_trial_1.png,images/demo_images/choice_trial_2.png,images/demo_images/pattern_1.png,f,f,3000.0,1.0,2.0,20.0,0.0,6.0,1.0,1.0,1.0,20.0,,,,,,614793a7be62637e6a2ccf3e,16:40:03,27/03/2024
html-keyboard-response,30,51002,0.0-13.0-1.0,,"<div style=""display: flex; flex-direction: column; align-items: center; margin-top: -40px;""><img src=""images/demo_images/pattern_1.png"" style=""width: 234px; height: 230px; margin-top: -50px;""><div style=""display: flex; justify-content: space-between; margin-top: 33px;""><img src=""images/demo_images/choice_trial_1.png"" style=""width: 408px; height: 417px; margin-right: 608px;""></div></div>",,delaylearn,learning,display_response,6m2DT9IWbWYdYDg6KJcDhmQ93As2,6m2DT9IWbWYdYDg6KJcDhmQ93As2,,,,,,,,,,,,,,,,,chosen stimuli: images/demo_images/choice_trial_1.png,,,,,614793a7be62637e6a2ccf3e,16:40:03,27/03/2024
html-keyboard-response,31,54005,0.0-13.0-2.0,,,,delaylearn,learning,feedback_duration_window,6m2DT9IWbWYdYDg6KJcDhmQ93As2,6m2DT9IWbWYdYDg6KJcDhmQ93As2,,,,,,,,,,,,,,,,,,3000.0,,,,614793a7be62637e6a2ccf3e,16:40:03,27/03/2024
html-keyboard-response,32,55509,0.0-13.0-3.0,,<div style='margin:auto;width: auto; font-size: 150%'><span style='font-weight: bold; font-size: 100px; color: green;'>+10 points!</span><br><br></div>,,delaylearn,learning,feedback_image_window,6m2DT9IWbWYdYDg6KJcDhmQ93As2,6m2DT9IWbWYdYDg6KJcDhmQ93As2,,,,,,,,,,,,,,,,,,,,,,614793a7be62637e6a2ccf3e,16:40:03,27/03/2024
html-keyboard-response,33,57370,0.0-14.0,,"<div style=""font-size:100px;"">+</div>",,delaylearn,learning,ITI,6m2DT9IWbWYdYDg6KJcDhmQ93As2,6m2DT9IWbWYdYDg6KJcDhmQ93As2,,,,,,,,,,,,,,,,,,,1859.0,,,614793a7be62637e6a2ccf3e,16:40:03,27/03/2024
html-keyboard-response,34,58118,0.0-15.0-0.0,744.2999999821186,"<div style=""display: flex; flex-direction: column; align-items: center; margin-top: -40px;""><img src=""images/demo_images/pattern_1.png"" style=""width: 234px; height: 230px; margin-top: -50px;""><div style=""display: flex; justify-content: space-between; margin-top: 33px;""><img src=""images/demo_images/choice_trial_2.png"" style=""width: 408px; height: 417px; margin-right: 200px;""><img src=""images/demo_images/choice_trial_1.png"" style=""width: 408px; height: 417px;""></div></div>",j,delaylearn,learning,trial,6m2DT9IWbWYdYDg6KJcDhmQ93As2,6m2DT9IWbWYdYDg6KJcDhmQ93As2,2.0,images/demo_images/choice_trial_2.png,images/demo_images/choice_trial_1.png,images/demo_images/pattern_1.png,j,j,3000.0,2.0,1.0,20.0,1.0,7.0,1.0,1.0,1.0,30.0,,,,,,614793a7be62637e6a2ccf3e,16:40:03,27/03/2024
html-keyboard-response,35,59121,0.0-15.0-1.0,,"<div style=""display: flex; flex-direction: column; align-items: center; margin-top: -40px;""><img src=""images/demo_images/pattern_1.png"" style=""width: 234px; height: 230px; margin-top: -50px;""><div style=""display: flex; justify-content: space-between; margin-top: 33px;""><img src=""images/demo_images/choice_trial_1.png"" style=""width: 408px; height: 417px; margin-left:608px;""></div></div>",,delaylearn,learning,display_response,6m2DT9IWbWYdYDg6KJcDhmQ93As2,6m2DT9IWbWYdYDg6KJcDhmQ93As2,,,,,,,,,,,,,,,,,chosen stimuli: images/demo_images/choice_trial_1.png,,,,,614793a7be62637e6a2ccf3e,16:40:03,27/03/2024
html-keyboard-response,36,62124,0.0-15.0-2.0,,,,delaylearn,learning,feedback_duration_window,6m2DT9IWbWYdYDg6KJcDhmQ93As2,6m2DT9IWbWYdYDg6KJcDhmQ93As2,,,,,,,,,,,,,,,,,,3000.0,,,,614793a7be62637e6a2ccf3e,16:40:03,27/03/2024
html-keyboard-response,37,63630,0.0-15.0-3.0,,<div style='margin:auto;width: auto; font-size: 150%'><span style='font-weight: bold; font-size: 100px; color: green;'>+10 points!</span><br><br></div>,,delaylearn,learning,feedback_image_window,6m2DT9IWbWYdYDg6KJcDhmQ93As2,6m2DT9IWbWYdYDg6KJcDhmQ93As2,,,,,,,,,,,,,,,,,,,,,,614793a7be62637e6a2ccf3e,16:40:03,27/03/2024
html-keyboard-response,38,65164,0.0-16.0,,"<div style=""font-size:100px;"">+</div>",,delaylearn,learning,ITI,6m2DT9IWbWYdYDg6KJcDhmQ93As2,6m2DT9IWbWYdYDg6KJcDhmQ93As2,,,,,,,,,,,,,,,,,,,1532.0,,,614793a7be62637e6a2ccf3e,16:40:03,27/03/2024
html-keyboard-response,39,65810,0.0-17.0-0.0,640.5999999940395,"<div style=""display: flex; flex-direction: column; align-items: center; margin-top: -40px;""><img src=""images/demo_images/pattern_1.png"" style=""width: 234px; height: 230px; margin-top: -50px;""><div style=""display: flex; justify-content: space-between; margin-top: 33px;""><img src=""images/demo_images/choice_trial_1.png"" style=""width: 408px; height: 417px; margin-right: 200px;""><img src=""images/demo_images/choice_trial_2.png"" style=""width: 408px; height: 417px;""></div></div>",f,delaylearn,learning,trial,6m2DT9IWbWYdYDg6KJcDhmQ93As2,6m2DT9IWbWYdYDg6KJcDhmQ93As2,2.0,images/demo_images/choice_trial_1.png,images/demo_images/choice_trial_2.png,images/demo_images/pattern_1.png,f,f,3000.0,1.0,2.0,20.0,0.0,8.0,1.0,1.0,1.0,40.0,,,,,,614793a7be62637e6a2ccf3e,16:40:03,27/03/2024
html-keyboard-response,40,66812,0.0-17.0-1.0,,"<div style=""display: flex; flex-direction: column; align-items: center; margin-top: -40px;""><img src=""images/demo_images/pattern_1.png"" style=""width: 234px; height: 230px; margin-top: -50px;""><div style=""display: flex; justify-content: space-between; margin-top: 33px;""><img src=""images/demo_images/choice_trial_1.png"" style=""width: 408px; height: 417px; margin-right: 608px;""></div></div>",,delaylearn,learning,display_response,6m2DT9IWbWYdYDg6KJcDhmQ93As2,6m2DT9IWbWYdYDg6KJcDhmQ93As2,,,,,,,,,,,,,,,,,chosen stimuli: images/demo_images/choice_trial_1.png,,,,,614793a7be62637e6a2ccf3e,16:40:03,27/03/2024
html-keyboard-response,41,69815,0.0-17.0-2.0,,,,delaylearn,learning,feedback_duration_window,6m2DT9IWbWYdYDg6KJcDhmQ93As2,6m2DT9IWbWYdYDg6KJcDhmQ93As2,,,,,,,,,,,,,,,,,,3000.0,,,,614793a7be62637e6a2ccf3e,16:40:03,27/03/2024
html-keyboard-response,42,71318,0.0-17.0-3.0,,<div style='margin:auto;width: auto; font-size: 150%'><span style='font-weight: bold; font-size: 100px; color: green;'>+10 points!</span><br><br></div>,,delaylearn,learning,feedback_image_window,6m2DT9IWbWYdYDg6KJcDhmQ93As2,6m2DT9IWbWYdYDg6KJcDhmQ93As2,,,,,,,,,,,,,,,,,,,,,,614793a7be62637e6a2ccf3e,16:40:03,27/03/2024
html-button-response,43,73602,0.0-18.0,2376.0999999940395,"
  <div style=""display: flex; align-items: center; justify-content: center; height: 80vh;"">
  <div>
          <img src=""images/inst_demo_finish.png"" style=""width: 80vw; height:auto;"">
          <br><br>
      </div>
      <br><br>
  </div>",0,,,,6m2DT9IWbWYdYDg6KJcDhmQ93As2,,,,,,,,,,,,,,,,,,,,,,,614793a7be62637e6a2ccf3e,16:40:03,27/03/2024
html-keyboard-response,44,77474,0.0-19.0,3869.9000000059605,"
  <div style=""display: flex; align-items: center; justify-content: center; height: 80vh;"">
  <div>
          <img src=""images/inst_6.png"" style=""width: 80vw; height:auto;"">
          <br><br>
      </div>
      <br><br>
  </div>",j,,,,6m2DT9IWbWYdYDg6KJcDhmQ93As2,,,,,,,,,,,,,,,,,,,,,,,614793a7be62637e6a2ccf3e,16:40:03,27/03/2024
html-keyboard-response,45,80476,0.0-20.0,,"<div style=""font-size:100px;"">+</div>",,delaylearn,learning,pre_fixation,6m2DT9IWbWYdYDg6KJcDhmQ93As2,,,,,,,,,,,,,,,,,,,,,,,614793a7be62637e6a2ccf3e,16:40:03,27/03/2024
html-keyboard-response,46,82876,0.0-21.0,,"<div style=""font-size:100px;"">+</div>",,delaylearn,learning,ITI,6m2DT9IWbWYdYDg6KJcDhmQ93As2,6m2DT9IWbWYdYDg6KJcDhmQ93As2,,,,,,,,,,,,,,,,,,,2395.0,,,614793a7be62637e6a2ccf3e,16:40:03,27/03/2024
html-keyboard-response,47,83796,0.0-22.0-0.0,917.1000000238419,"<div style=""display: flex; flex-direction: column; align-items: center; margin-top: -40px;""><img src=""images/pattern_3.png"" style=""width: 234px; height: 230px; margin-top: -50px;""><div style=""display: flex; justify-content: space-between; margin-top: 33px;""><img src=""images/choice_trial_12.png"" style=""width: 408px; height: 417px; margin-right: 200px;""><img src=""images/choice_trial_14.png"" style=""width: 408px; height: 417px;""></div></div>",f,delaylearn,learning,trial,6m2DT9IWbWYdYDg6KJcDhmQ93As2,6m2DT9IWbWYdYDg6KJcDhmQ93As2,2.0,images/choice_trial_12.png,images/choice_trial_14.png,images/pattern_3.png,f,f,7000.0,12.0,14.0,2.0,0.0,9.0,1.0,1.0,12.0,50.0,,,,,,614793a7be62637e6a2ccf3e,16:40:03,27/03/2024
html-keyboard-response,48,84802,0.0-22.0-1.0,,"<div style=""display: flex; flex-direction: column; align-items: center; margin-top: -40px;""><img src=""images/pattern_3.png"" style=""width: 234px; height: 230px; margin-top: -50px;""><div style=""display: flex; justify-content: space-between; margin-top: 33px;""><img src=""images/choice_trial_12.png"" style=""width: 408px; height: 417px; margin-right: 608px;""></div></div>",,delaylearn,learning,display_response,6m2DT9IWbWYdYDg6KJcDhmQ93As2,6m2DT9IWbWYdYDg6KJcDhmQ93As2,,,,,,,,,,,,,,,,,chosen stimuli: images/choice_trial_12.png,,,,,614793a7be62637e6a2ccf3e,16:40:03,27/03/2024
html-keyboard-response,49,91805,0.0-22.0-2.0,,,,delaylearn,learning,feedback_duration_window,6m2DT9IWbWYdYDg6KJcDhmQ93As2,6m2DT9IWbWYdYDg6KJcDhmQ93As2,,,,,,,,,,,,,,,,,,7000.0,,,,614793a7be62637e6a2ccf3e,16:40:03,27/03/2024
html-keyboard-response,50,93308,0.0-22.0-3.0,,<div style='margin:auto;width: auto; font-size: 150%'><span style='font-weight: bold; font-size: 100px; color: green;'>+10 points!</span><br><br></div>,,delaylearn,learning,feedback_image_window,6m2DT9IWbWYdYDg6KJcDhmQ93As2,6m2DT9IWbWYdYDg6KJcDhmQ93As2,,,,,,,,,,,,,,,,,,,,,,614793a7be62637e6a2ccf3e,16:40:03,27/03/2024
html-keyboard-response,51,95561,0.0-23.0,,"<div style=""font-size:100px;"">+</div>",,delaylearn,learning,ITI,6m2DT9IWbWYdYDg6KJcDhmQ93As2,6m2DT9IWbWYdYDg6KJcDhmQ93As2,,,,,,,,,,,,,,,,,,,2250.0,,,614793a7be62637e6a2ccf3e,16:40:03,27/03/2024
html-keyboard-response,52,98506,0.0-24.0-0.0,2941.5,"<div style=""display: flex; flex-direction: column; align-items: center; margin-top: -40px;""><img src=""images/pattern_7.png"" style=""width: 234px; height: 230px; margin-top: -50px;""><div style=""display: flex; justify-content: space-between; margin-top: 33px;""><img src=""images/choice_trial_15.png"" style=""width: 408px; height: 417px; margin-right: 200px;""><img src=""images/choice_trial_8.png"" style=""width: 408px; height: 417px;""></div></div>",j,delaylearn,learning,trial,6m2DT9IWbWYdYDg6KJcDhmQ93As2,6m2DT9IWbWYdYDg6KJcDhmQ93As2,2.0,images/choice_trial_15.png,images/choice_trial_8.png,images/pattern_7.png,j,j,750.0,15.0,8.0,6.0,1.0,10.0,1.0,1.0,8.0,60.0,,,,,,614793a7be62637e6a2ccf3e,16:40:03,27/03/2024
html-keyboard-response,53,99509,0.0-24.0-1.0,,"<div style=""display: flex; flex-direction: column; align-items: center; margin-top: -40px;""><img src=""images/pattern_7.png"" style=""width: 234px; height: 230px; margin-top: -50px;""><div style=""display: flex; justify-content: space-between; margin-top: 33px;""><img src=""images/choice_trial_8.png"" style=""width: 408px; height: 417px; margin-left:608px;""></div></div>",,delaylearn,learning,display_response,6m2DT9IWbWYdYDg6KJcDhmQ93As2,6m2DT9IWbWYdYDg6KJcDhmQ93As2,,,,,,,,,,,,,,,,,chosen stimuli: images/choice_trial_8.png,,,,,614793a7be62637e6a2ccf3e,16:40:03,27/03/2024
html-keyboard-response,54,100262,0.0-24.0-2.0,,,,delaylearn,learning,feedback_duration_window,6m2DT9IWbWYdYDg6KJcDhmQ93As2,6m2DT9IWbWYdYDg6KJcDhmQ93As2,,,,,,,,,,,,,,,,,,750.0,,,,614793a7be62637e6a2ccf3e,16:40:03,27/03/2024
html-keyboard-response,55,101766,0.0-24.0-3.0,,<div style='margin:auto;width: auto; font-size: 150%'><span style='font-weight: bold; font-size: 100px; color: green;'>+10 points!</span><br><br></div>,,delaylearn,learning,feedback_image_window,6m2DT9IWbWYdYDg6KJcDhmQ93As2,6m2DT9IWbWYdYDg6KJcDhmQ93As2,,,,,,,,,,,,,,,,,,,,,,614793a7be62637e6a2ccf3e,16:40:03,27/03/2024
html-keyboard-response,56,103563,0.0-25.0,,"<div style=""font-size:100px;"">+</div>",,delaylearn,learning,ITI,6m2DT9IWbWYdYDg6KJcDhmQ93As2,6m2DT9IWbWYdYDg6KJcDhmQ93As2,,,,,,,,,,,,,,,,,,,1794.0,,,614793a7be62637e6a2ccf3e,16:40:03,27/03/2024
html-keyboard-response,57,105539,0.0-26.0-0.0,1973.800000011921,"<div style=""display: flex; flex-direction: column; align-items: center; margin-top: -40px;""><img src=""images/pattern_4.png"" style=""width: 234px; height: 230px; margin-top: -50px;""><div style=""display: flex; justify-content: space-between; margin-top: 33px;""><img src=""images/choice_trial_4.png"" style=""width: 408px; height: 417px; margin-right: 200px;""><img src=""images/choice_trial_16.png"" style=""width: 408px; height: 417px;""></div></div>",j,delaylearn,learning,trial,6m2DT9IWbWYdYDg6KJcDhmQ93As2,6m2DT9IWbWYdYDg6KJcDhmQ93As2,2.0,images/choice_trial_4.png,images/choice_trial_16.png,images/pattern_4.png,f,f,7000.0,4.0,16.0,3.0,0.0,11.0,0.0,0.0,16.0,60.0,,,,,,614793a7be62637e6a2ccf3e,16:40:03,27/03/2024
html-keyboard-response,58,106543,0.0-26.0-1.0,,"<div style=""display: flex; flex-direction: column; align-items: center; margin-top: -40px;""><img src=""images/pattern_4.png"" style=""width: 234px; height: 230px; margin-top: -50px;""><div style=""display: flex; justify-content: space-between; margin-top: 33px;""><img src=""images/choice_trial_16.png"" style=""width: 408px; height: 417px; margin-left:608px;""></div></div>",,delaylearn,learning,display_response,6m2DT9IWbWYdYDg6KJcDhmQ93As2,6m2DT9IWbWYdYDg6KJcDhmQ93As2,,,,,,,,,,,,,,,,,chosen stimuli: images/choice_trial_16.png,,,,,614793a7be62637e6a2ccf3e,16:40:03,27/03/2024
html-keyboard-response,59,113546,0.0-26.0-2.0,,,,delaylearn,learning,feedback_duration_window,6m2DT9IWbWYdYDg6KJcDhmQ93As2,6m2DT9IWbWYdYDg6KJcDhmQ93As2,,,,,,,,,,,,,,,,,,7000.0,,,,614793a7be62637e6a2ccf3e,16:40:03,27/03/2024
html-keyboard-response,60,115053,0.0-26.0-3.0,,<div style='margin:auto;width: auto; font-size: 150%'><span style='font-weight: bold; font-size: 100px; color: red;'>0 points!</span><br><br></div>,,delaylearn,learning,feedback_image_window,6m2DT9IWbWYdYDg6KJcDhmQ93As2,6m2DT9IWbWYdYDg6KJcDhmQ93As2,,,,,,,,,,,,,,,,,,,,,,614793a7be62637e6a2ccf3e,16:40:03,27/03/2024
html-keyboard-response,61,116744,0.0-27.0,,"<div style=""font-size:100px;"">+</div>",,delaylearn,learning,ITI,6m2DT9IWbWYdYDg6KJcDhmQ93As2,6m2DT9IWbWYdYDg6KJcDhmQ93As2,,,,,,,,,,,,,,,,,,,1689.0,,,614793a7be62637e6a2ccf3e,16:40:03,27/03/2024
html-keyboard-response,62,119238,0.0-28.0-0.0,2489.2000000178814,"<div style=""display: flex; flex-direction: column; align-items: center; margin-top: -40px;""><img src=""images/pattern_5.png"" style=""width: 234px; height: 230px; margin-top: -50px;""><div style=""display: flex; justify-content: space-between; margin-top: 33px;""><img src=""images/choice_trial_9.png"" style=""width: 408px; height: 417px; margin-right: 200px;""><img src=""images/choice_trial_2.png"" style=""width: 408px; height: 417px;""></div></div>",f,delaylearn,learning,trial,6m2DT9IWbWYdYDg6KJcDhmQ93As2,6m2DT9IWbWYdYDg6KJcDhmQ93As2,2.0,images/choice_trial_9.png,images/choice_trial_2.png,images/pattern_5.png,j,j,750.0,9.0,2.0,4.0,1.0,12.0,0.0,0.0,9.0,60.0,,,,,,614793a7be62637e6a2ccf3e,16:40:03,27/03/2024
html-keyboard-response,63,120240,0.0-28.0-1.0,,"<div style=""display: flex; flex-direction: column; align-items: center; margin-top: -40px;""><img src=""images/pattern_5.png"" style=""width: 234px; height: 230px; margin-top: -50px;""><div style=""display: flex; justify-content: space-between; margin-top: 33px;""><img src=""images/choice_trial_9.png"" style=""width: 408px; height: 417px; margin-right: 608px;""></div></div>",,delaylearn,learning,display_response,6m2DT9IWbWYdYDg6KJcDhmQ93As2,6m2DT9IWbWYdYDg6KJcDhmQ93As2,,,,,,,,,,,,,,,,,chosen stimuli: images/choice_trial_9.png,,,,,614793a7be62637e6a2ccf3e,16:40:03,27/03/2024
html-keyboard-response,64,120993,0.0-28.0-2.0,,,,delaylearn,learning,feedback_duration_window,6m2DT9IWbWYdYDg6KJcDhmQ93As2,6m2DT9IWbWYdYDg6KJcDhmQ93As2,,,,,,,,,,,,,,,,,,750.0,,,,614793a7be62637e6a2ccf3e,16:40:03,27/03/2024
html-keyboard-response,65,122496,0.0-28.0-3.0,,<div style='margin:auto;width: auto; font-size: 150%'><span style='font-weight: bold; font-size: 100px; color: red;'>0 points!</span><br><br></div>,,delaylearn,learning,feedback_image_window,6m2DT9IWbWYdYDg6KJcDhmQ93As2,6m2DT9IWbWYdYDg6KJcDhmQ93As2,,,,,,,,,,,,,,,,,,,,,,614793a7be62637e6a2ccf3e,16:40:03,27/03/2024
html-keyboard-response,66,124650,0.0-29.0,,"<div style=""font-size:100px;"">+</div>",,delaylearn,learning,ITI,6m2DT9IWbWYdYDg6KJcDhmQ93As2,6m2DT9IWbWYdYDg6KJcDhmQ93As2,,,,,,,,,,,,,,,,,,,2151.0,,,614793a7be62637e6a2ccf3e,16:40:03,27/03/2024
html-keyboard-response,67,127655,0.0-30.0-0.0,,"<div style=""display: flex; flex-direction: column; align-items: center; margin-top: -40px;""><img src=""images/pattern_6.png"" style=""width: 234px; height: 230px; margin-top: -50px;""><div style=""display: flex; justify-content: space-between; margin-top: 33px;""><img src=""images/choice_trial_11.png"" style=""width: 408px; height: 417px; margin-right: 200px;""><img src=""images/choice_trial_5.png"" style=""width: 408px; height: 417px;""></div></div>",,delaylearn,learning,trial,6m2DT9IWbWYdYDg6KJcDhmQ93As2,6m2DT9IWbWYdYDg6KJcDhmQ93As2,2.0,images/choice_trial_11.png,images/choice_trial_5.png,images/pattern_6.png,j,f,750.0,11.0,5.0,5.0,0.0,13.0,0.0,0.0,0.0,60.0,,,,,,614793a7be62637e6a2ccf3e,16:40:03,27/03/2024
html-keyboard-response,68,128659,0.0-30.0-1.0,,<div style='font-weight: bold; font-size: 75px; color: red;'>Missed Trial <br><br><br><br> Please respond faster</div>,,delaylearn,learning,display_response,6m2DT9IWbWYdYDg6KJcDhmQ93As2,6m2DT9IWbWYdYDg6KJcDhmQ93As2,,,,,,,,,,,,,,,,,Missed trial,,,,,614793a7be62637e6a2ccf3e,16:40:03,27/03/2024
html-keyboard-response,69,128665,0.0-30.0-2.0,,,,delaylearn,learning,feedback_duration_window,6m2DT9IWbWYdYDg6KJcDhmQ93As2,6m2DT9IWbWYdYDg6KJcDhmQ93As2,,,,,,,,,,,,,,,,,,0.0,,,,614793a7be62637e6a2ccf3e,16:40:03,27/03/2024
html-keyboard-response,70,128670,0.0-30.0-3.0,,,,delaylearn,learning,feedback_image_window,6m2DT9IWbWYdYDg6KJcDhmQ93As2,6m2DT9IWbWYdYDg6KJcDhmQ93As2,,,,,,,,,,,,,,,,,,,,,,614793a7be62637e6a2ccf3e,16:40:03,27/03/2024
html-keyboard-response,71,129172,0.0-31.0-0.0,,,,,,mood_trial_fixation,6m2DT9IWbWYdYDg6KJcDhmQ93As2,,,,,,,,,,,,,,,,,,,,,,,614793a7be62637e6a2ccf3e,16:40:03,27/03/2024
lmdlab-html-vas-response,72,133767,0.0-31.0-1.0,3588.0,How happy are you right now?,0.1111111111111111,delaylearn,learning,mood_trial,6m2DT9IWbWYdYDg6KJcDhmQ93As2,6m2DT9IWbWYdYDg6KJcDhmQ93As2,,,,,,,,,,,,,,,,,,,,"['Very unhappy', 'Very happy']",,614793a7be62637e6a2ccf3e,16:40:03,27/03/2024
html-keyboard-response,73,135581,0.0-32.0,,"<div style=""font-size:100px;"">+</div>",,delaylearn,learning,ITI,6m2DT9IWbWYdYDg6KJcDhmQ93As2,6m2DT9IWbWYdYDg6KJcDhmQ93As2,,,,,,,,,,,,,,,,,,,1811.0,,,614793a7be62637e6a2ccf3e,16:40:03,27/03/2024
html-keyboard-response,74,135981,0.0-33.0-0.0,397.30000001192093,"<div style=""display: flex; flex-direction: column; align-items: center; margin-top: -40px;""><img src=""images/pattern_1.png"" style=""width: 234px; height: 230px; margin-top: -50px;""><div style=""display: flex; justify-content: space-between; margin-top: 33px;""><img src=""images/choice_trial_10.png"" style=""width: 408px; height: 417px; margin-right: 200px;""><img src=""images/choice_trial_3.png"" style=""width: 408px; height: 417px;""></div></div>",j,delaylearn,learning,trial,6m2DT9IWbWYdYDg6KJcDhmQ93As2,6m2DT9IWbWYdYDg6KJcDhmQ93As2,2.0,images/choice_trial_10.png,images/choice_trial_3.png,images/pattern_1.png,j,j,7000.0,10.0,3.0,1.0,1.0,14.0,1.0,1.0,3.0,70.0,,,,,,614793a7be62637e6a2ccf3e,16:40:03,27/03/2024
html-keyboard-response,75,136985,0.0-33.0-1.0,,"<div style=""display: flex; flex-direction: column; align-items: center; margin-top: -40px;""><img src=""images/pattern_1.png"" style=""width: 234px; height: 230px; margin-top: -50px;""><div style=""display: flex; justify-content: space-between; margin-top: 33px;""><img src=""images/choice_trial_3.png"" style=""width: 408px; height: 417px; margin-left:608px;""></div></div>",,delaylearn,learning,display_response,6m2DT9IWbWYdYDg6KJcDhmQ93As2,6m2DT9IWbWYdYDg6KJcDhmQ93As2,,,,,,,,,,,,,,,,,chosen stimuli: images/choice_trial_3.png,,,,,614793a7be62637e6a2ccf3e,16:40:03,27/03/2024
html-keyboard-response,76,143987,0.0-33.0-2.0,,,,delaylearn,learning,feedback_duration_window,6m2DT9IWbWYdYDg6KJcDhmQ93As2,6m2DT9IWbWYdYDg6KJcDhmQ93As2,,,,,,,,,,,,,,,,,,7000.0,,,,614793a7be62637e6a2ccf3e,16:40:03,27/03/2024
html-keyboard-response,77,145491,0.0-33.0-3.0,,<div style='margin:auto;width: auto; font-size: 150%'><span style='font-weight: bold; font-size: 100px; color: green;'>+10 points!</span><br><br></div>,,delaylearn,learning,feedback_image_window,6m2DT9IWbWYdYDg6KJcDhmQ93As2,6m2DT9IWbWYdYDg6KJcDhmQ93As2,,,,,,,,,,,,,,,,,,,,,,614793a7be62637e6a2ccf3e,16:40:03,27/03/2024
html-keyboard-response,78,147849,0.0-34.0,,"<div style=""font-size:100px;"">+</div>",,delaylearn,learning,ITI,6m2DT9IWbWYdYDg6KJcDhmQ93As2,6m2DT9IWbWYdYDg6KJcDhmQ93As2,,,,,,,,,,,,,,,,,,,2355.0,,,614793a7be62637e6a2ccf3e,16:40:03,27/03/2024
html-keyboard-response,79,149137,0.0-35.0-0.0,1285.199999988079,"<div style=""display: flex; flex-direction: column; align-items: center; margin-top: -40px;""><img src=""images/pattern_3.png"" style=""width: 234px; height: 230px; margin-top: -50px;""><div style=""display: flex; justify-content: space-between; margin-top: 33px;""><img src=""images/choice_trial_14.png"" style=""width: 408px; height: 417px; margin-right: 200px;""><img src=""images/choice_trial_12.png"" style=""width: 408px; height: 417px;""></div></div>",j,delaylearn,learning,trial,6m2DT9IWbWYdYDg6KJcDhmQ93As2,6m2DT9IWbWYdYDg6KJcDhmQ93As2,2.0,images/choice_trial_14.png,images/choice_trial_12.png,images/pattern_3.png,f,j,7000.0,14.0,12.0,2.0,1.0,15.0,1.0,0.0,12.0,70.0,,,,,,614793a7be62637e6a2ccf3e,16:40:03,27/03/2024
html-keyboard-response,80,150141,0.0-35.0-1.0,,"<div style=""display: flex; flex-direction: column; align-items: center; margin-top: -40px;""><img src=""images/pattern_3.png"" style=""width: 234px; height: 230px; margin-top: -50px;""><div style=""display: flex; justify-content: space-between; margin-top: 33px;""><img src=""images/choice_trial_12.png"" style=""width: 408px; height: 417px; margin-left:608px;""></div></div>",,delaylearn,learning,display_response,6m2DT9IWbWYdYDg6KJcDhmQ93As2,6m2DT9IWbWYdYDg6KJcDhmQ93As2,,,,,,,,,,,,,,,,,chosen stimuli: images/choice_trial_12.png,,,,,614793a7be62637e6a2ccf3e,16:40:03,27/03/2024
html-keyboard-response,81,157143,0.0-35.0-2.0,,,,delaylearn,learning,feedback_duration_window,6m2DT9IWbWYdYDg6KJcDhmQ93As2,6m2DT9IWbWYdYDg6KJcDhmQ93As2,,,,,,,,,,,,,,,,,,7000.0,,,,614793a7be62637e6a2ccf3e,16:40:03,27/03/2024
html-keyboard-response,82,158646,0.0-35.0-3.0,,<div style='margin:auto;width: auto; font-size: 150%'><span style='font-weight: bold; font-size: 100px; color: red;'>0 points!</span><br><br></div>,,delaylearn,learning,feedback_image_window,6m2DT9IWbWYdYDg6KJcDhmQ93As2,6m2DT9IWbWYdYDg6KJcDhmQ93As2,,,,,,,,,,,,,,,,,,,,,,614793a7be62637e6a2ccf3e,16:40:03,27/03/2024
html-keyboard-response,83,160889,0.0-36.0,,"<div style=""font-size:100px;"">+</div>",,delaylearn,learning,ITI,6m2DT9IWbWYdYDg6KJcDhmQ93As2,6m2DT9IWbWYdYDg6KJcDhmQ93As2,,,,,,,,,,,,,,,,,,,2240.0,,,614793a7be62637e6a2ccf3e,16:40:03,27/03/2024
html-keyboard-response,84,162397,0.0-37.0-0.0,1503.2999999821186,"<div style=""display: flex; flex-direction: column; align-items: center; margin-top: -40px;""><img src=""images/pattern_5.png"" style=""width: 234px; height: 230px; margin-top: -50px;""><div style=""display: flex; justify-content: space-between; margin-top: 33px;""><img src=""images/choice_trial_2.png"" style=""width: 408px; height: 417px; margin-right: 200px;""><img src=""images/choice_trial_9.png"" style=""width: 408px; height: 417px;""></div></div>",j,delaylearn,learning,trial,6m2DT9IWbWYdYDg6KJcDhmQ93As2,6m2DT9IWbWYdYDg6KJcDhmQ93As2,2.0,images/choice_trial_2.png,images/choice_trial_9.png,images/pattern_5.png,f,f,750.0,2.0,9.0,4.0,0.0,16.0,0.0,0.0,9.0,70.0,,,,,,614793a7be62637e6a2ccf3e,16:40:03,27/03/2024
html-keyboard-response,85,163401,0.0-37.0-1.0,,"<div style=""display: flex; flex-direction: column; align-items: center; margin-top: -40px;""><img src=""images/pattern_5.png"" style=""width: 234px; height: 230px; margin-top: -50px;""><div style=""display: flex; justify-content: space-between; margin-top: 33px;""><img src=""images/choice_trial_9.png"" style=""width: 408px; height: 417px; margin-left:608px;""></div></div>",,delaylearn,learning,display_response,6m2DT9IWbWYdYDg6KJcDhmQ93As2,6m2DT9IWbWYdYDg6KJcDhmQ93As2,,,,,,,,,,,,,,,,,chosen stimuli: images/choice_trial_9.png,,,,,614793a7be62637e6a2ccf3e,16:40:03,27/03/2024
html-keyboard-response,86,164153,0.0-37.0-2.0,,,,delaylearn,learning,feedback_duration_window,6m2DT9IWbWYdYDg6KJcDhmQ93As2,6m2DT9IWbWYdYDg6KJcDhmQ93As2,,,,,,,,,,,,,,,,,,750.0,,,,614793a7be62637e6a2ccf3e,16:40:03,27/03/2024
html-keyboard-response,87,165656,0.0-37.0-3.0,,<div style='margin:auto;width: auto; font-size: 150%'><span style='font-weight: bold; font-size: 100px; color: red;'>0 points!</span><br><br></div>,,delaylearn,learning,feedback_image_window,6m2DT9IWbWYdYDg6KJcDhmQ93As2,6m2DT9IWbWYdYDg6KJcDhmQ93As2,,,,,,,,,,,,,,,,,,,,,,614793a7be62637e6a2ccf3e,16:40:03,27/03/2024
html-keyboard-response,88,166162,0.0-38.0-0.0,,,,,,mood_trial_fixation,6m2DT9IWbWYdYDg6KJcDhmQ93As2,,,,,,,,,,,,,,,,,,,,,,,614793a7be62637e6a2ccf3e,16:40:03,27/03/2024
lmdlab-html-vas-response,89,170733,0.0-38.0-1.0,3562.0,How happy are you right now?,0.11296296296296296,delaylearn,learning,mood_trial,6m2DT9IWbWYdYDg6KJcDhmQ93As2,6m2DT9IWbWYdYDg6KJcDhmQ93As2,,,,,,,,,,,,,,,,,,,,"['Very unhappy', 'Very happy']",,614793a7be62637e6a2ccf3e,16:40:03,27/03/2024
html-keyboard-response,90,172956,0.0-39.0,,"<div style=""font-size:100px;"">+</div>",,delaylearn,learning,ITI,6m2DT9IWbWYdYDg6KJcDhmQ93As2,6m2DT9IWbWYdYDg6KJcDhmQ93As2,,,,,,,,,,,,,,,,,,,2221.0,,,614793a7be62637e6a2ccf3e,16:40:03,27/03/2024
html-keyboard-response,91,175002,0.0-40.0-0.0,2041.9000000059605,"<div style=""display: flex; flex-direction: column; align-items: center; margin-top: -40px;""><img src=""images/pattern_6.png"" style=""width: 234px; height: 230px; margin-top: -50px;""><div style=""display: flex; justify-content: space-between; margin-top: 33px;""><img src=""images/choice_trial_11.png"" style=""width: 408px; height: 417px; margin-right: 200px;""><img src=""images/choice_trial_5.png"" style=""width: 408px; height: 417px;""></div></div>",j,delaylearn,learning,trial,6m2DT9IWbWYdYDg6KJcDhmQ93As2,6m2DT9IWbWYdYDg6KJcDhmQ93As2,2.0,images/choice_trial_11.png,images/choice_trial_5.png,images/pattern_6.png,f,f,750.0,11.0,5.0,5.0,0.0,17.0,0.0,0.0,5.0,70.0,,,,,,614793a7be62637e6a2ccf3e,16:40:03,27/03/2024
html-keyboard-response,92,176005,0.0-40.0-1.0,,"<div style=""display: flex; flex-direction: column; align-items: center; margin-top: -40px;""><img src=""images/pattern_6.png"" style=""width: 234px; height: 230px; margin-top: -50px;""><div style=""display: flex; justify-content: space-between; margin-top: 33px;""><img src=""images/choice_trial_5.png"" style=""width: 408px; height: 417px; margin-left:608px;""></div></div>",,delaylearn,learning,display_response,6m2DT9IWbWYdYDg6KJcDhmQ93As2,6m2DT9IWbWYdYDg6KJcDhmQ93As2,,,,,,,,,,,,,,,,,chosen stimuli: images/choice_trial_5.png,,,,,614793a7be62637e6a2ccf3e,16:40:03,27/03/2024
html-keyboard-response,93,176758,0.0-40.0-2.0,,,,delaylearn,learning,feedback_duration_window,6m2DT9IWbWYdYDg6KJcDhmQ93As2,6m2DT9IWbWYdYDg6KJcDhmQ93As2,,,,,,,,,,,,,,,,,,750.0,,,,614793a7be62637e6a2ccf3e,16:40:03,27/03/2024
html-keyboard-response,94,178261,0.0-40.0-3.0,,<div style='margin:auto;width: auto; font-size: 150%'><span style='font-weight: bold; font-size: 100px; color: red;'>0 points!</span><br><br></div>,,delaylearn,learning,feedback_image_window,6m2DT9IWbWYdYDg6KJcDhmQ93As2,6m2DT9IWbWYdYDg6KJcDhmQ93As2,,,,,,,,,,,,,,,,,,,,,,614793a7be62637e6a2ccf3e,16:40:03,27/03/2024
html-keyboard-response,95,180073,0.0-41.0,,"<div style=""font-size:100px;"">+</div>",,delaylearn,learning,ITI,6m2DT9IWbWYdYDg6KJcDhmQ93As2,6m2DT9IWbWYdYDg6KJcDhmQ93As2,,,,,,,,,,,,,,,,,,,1810.0,,,614793a7be62637e6a2ccf3e,16:40:03,27/03/2024
html-keyboard-response,96,181612,0.0-42.0-0.0,1535.5,"<div style=""display: flex; flex-direction: column; align-items: center; margin-top: -40px;""><img src=""images/pattern_4.png"" style=""width: 234px; height: 230px; margin-top: -50px;""><div style=""display: flex; justify-content: space-between; margin-top: 33px;""><img src=""images/choice_trial_16.png"" style=""width: 408px; height: 417px; margin-right: 200px;""><img src=""images/choice_trial_4.png"" style=""width: 408px; height: 417px;""></div></div>",f,delaylearn,learning,trial,6m2DT9IWbWYdYDg6KJcDhmQ93As2,6m2DT9IWbWYdYDg6KJcDhmQ93As2,2.0,images/choice_trial_16.png,images/choice_trial_4.png,images/pattern_4.png,j,j,7000.0,16.0,4.0,3.0,1.0,18.0,0.0,0.0,16.0,70.0,,,,,,614793a7be62637e6a2ccf3e,16:40:03,27/03/2024
html-keyboard-response,97,182615,0.0-42.0-1.0,,"<div style=""display: flex; flex-direction: column; align-items: center; margin-top: -40px;""><img src=""images/pattern_4.png"" style=""width: 234px; height: 230px; margin-top: -50px;""><div style=""display: flex; justify-content: space-between; margin-top: 33px;""><img src=""images/choice_trial_16.png"" style=""width: 408px; height: 417px; margin-right: 608px;""></div></div>",,delaylearn,learning,display_response,6m2DT9IWbWYdYDg6KJcDhmQ93As2,6m2DT9IWbWYdYDg6KJcDhmQ93As2,,,,,,,,,,,,,,,,,chosen stimuli: images/choice_trial_16.png,,,,,614793a7be62637e6a2ccf3e,16:40:03,27/03/2024
html-keyboard-response,98,189616,0.0-42.0-2.0,,,,delaylearn,learning,feedback_duration_window,6m2DT9IWbWYdYDg6KJcDhmQ93As2,6m2DT9IWbWYdYDg6KJcDhmQ93As2,,,,,,,,,,,,,,,,,,7000.0,,,,614793a7be62637e6a2ccf3e,16:40:03,27/03/2024
html-keyboard-response,99,191119,0.0-42.0-3.0,,<div style='margin:auto;width: auto; font-size: 150%'><span style='font-weight: bold; font-size: 100px; color: red;'>0 points!</span><br><br></div>,,delaylearn,learning,feedback_image_window,6m2DT9IWbWYdYDg6KJcDhmQ93As2,6m2DT9IWbWYdYDg6KJcDhmQ93As2,,,,,,,,,,,,,,,,,,,,,,614793a7be62637e6a2ccf3e,16:40:03,27/03/2024
html-keyboard-response,100,193517,0.0-43.0,,"<div style=""font-size:100px;"">+</div>",,delaylearn,learning,ITI,6m2DT9IWbWYdYDg6KJcDhmQ93As2,6m2DT9IWbWYdYDg6KJcDhmQ93As2,,,,,,,,,,,,,,,,,,,2394.0,,,614793a7be62637e6a2ccf3e,16:40:03,27/03/2024
html-keyboard-response,101,195837,0.0-44.0-0.0,2315.699999988079,"<div style=""display: flex; flex-direction: column; align-items: center; margin-top: -40px;""><img src=""images/pattern_7.png"" style=""width: 234px; height: 230px; margin-top: -50px;""><div style=""display: flex; justify-content: space-between; margin-top: 33px;""><img src=""images/choice_trial_8.png"" style=""width: 408px; height: 417px; margin-right: 200px;""><img src=""images/choice_trial_15.png"" style=""width: 408px; height: 417px;""></div></div>",j,delaylearn,learning,trial,6m2DT9IWbWYdYDg6KJcDhmQ93As2,6m2DT9IWbWYdYDg6KJcDhmQ93As2,2.0,images/choice_trial_8.png,images/choice_trial_15.png,images/pattern_7.png,j,f,750.0,8.0,15.0,6.0,0.0,19.0,0.0,1.0,15.0,80.0,,,,,,614793a7be62637e6a2ccf3e,16:40:03,27/03/2024
html-keyboard-response,102,196841,0.0-44.0-1.0,,"<div style=""display: flex; flex-direction: column; align-items: center; margin-top: -40px;""><img src=""images/pattern_7.png"" style=""width: 234px; height: 230px; margin-top: -50px;""><div style=""display: flex; justify-content: space-between; margin-top: 33px;""><img src=""images/choice_trial_15.png"" style=""width: 408px; height: 417px; margin-left:608px;""></div></div>",,delaylearn,learning,display_response,6m2DT9IWbWYdYDg6KJcDhmQ93As2,6m2DT9IWbWYdYDg6KJcDhmQ93As2,,,,,,,,,,,,,,,,,chosen stimuli: images/choice_trial_15.png,,,,,614793a7be62637e6a2ccf3e,16:40:03,27/03/2024
html-keyboard-response,103,197593,0.0-44.0-2.0,,,,delaylearn,learning,feedback_duration_window,6m2DT9IWbWYdYDg6KJcDhmQ93As2,6m2DT9IWbWYdYDg6KJcDhmQ93As2,,,,,,,,,,,,,,,,,,750.0,,,,614793a7be62637e6a2ccf3e,16:40:03,27/03/2024
html-keyboard-response,104,199096,0.0-44.0-3.0,,<div style='margin:auto;width: auto; font-size: 150%'><span style='font-weight: bold; font-size: 100px; color: green;'>+10 points!</span><br><br></div>,,delaylearn,learning,feedback_image_window,6m2DT9IWbWYdYDg6KJcDhmQ93As2,6m2DT9IWbWYdYDg6KJcDhmQ93As2,,,,,,,,,,,,,,,,,,,,,,614793a7be62637e6a2ccf3e,16:40:03,27/03/2024
html-keyboard-response,105,201270,0.0-45.0,,"<div style=""font-size:100px;"">+</div>",,delaylearn,learning,ITI,6m2DT9IWbWYdYDg6KJcDhmQ93As2,6m2DT9IWbWYdYDg6KJcDhmQ93As2,,,,,,,,,,,,,,,,,,,2172.0,,,614793a7be62637e6a2ccf3e,16:40:03,27/03/2024
html-keyboard-response,106,201775,0.0-46.0-0.0,502.30000001192093,"<div style=""display: flex; flex-direction: column; align-items: center; margin-top: -40px;""><img src=""images/pattern_1.png"" style=""width: 234px; height: 230px; margin-top: -50px;""><div style=""display: flex; justify-content: space-between; margin-top: 33px;""><img src=""images/choice_trial_3.png"" style=""width: 408px; height: 417px; margin-right: 200px;""><img src=""images/choice_trial_10.png"" style=""width: 408px; height: 417px;""></div></div>",f,delaylearn,learning,trial,6m2DT9IWbWYdYDg6KJcDhmQ93As2,6m2DT9IWbWYdYDg6KJcDhmQ93As2,2.0,images/choice_trial_3.png,images/choice_trial_10.png,images/pattern_1.png,f,f,7000.0,3.0,10.0,1.0,0.0,20.0,1.0,1.0,3.0,90.0,,,,,,614793a7be62637e6a2ccf3e,16:40:03,27/03/2024
html-keyboard-response,107,202778,0.0-46.0-1.0,,"<div style=""display: flex; flex-direction: column; align-items: center; margin-top: -40px;""><img src=""images/pattern_1.png"" style=""width: 234px; height: 230px; margin-top: -50px;""><div style=""display: flex; justify-content: space-between; margin-top: 33px;""><img src=""images/choice_trial_3.png"" style=""width: 408px; height: 417px; margin-right: 608px;""></div></div>",,delaylearn,learning,display_response,6m2DT9IWbWYdYDg6KJcDhmQ93As2,6m2DT9IWbWYdYDg6KJcDhmQ93As2,,,,,,,,,,,,,,,,,chosen stimuli: images/choice_trial_3.png,,,,,614793a7be62637e6a2ccf3e,16:40:03,27/03/2024
html-keyboard-response,108,209780,0.0-46.0-2.0,,,,delaylearn,learning,feedback_duration_window,6m2DT9IWbWYdYDg6KJcDhmQ93As2,6m2DT9IWbWYdYDg6KJcDhmQ93As2,,,,,,,,,,,,,,,,,,7000.0,,,,614793a7be62637e6a2ccf3e,16:40:03,27/03/2024
html-keyboard-response,109,211284,0.0-46.0-3.0,,<div style='margin:auto;width: auto; font-size: 150%'><span style='font-weight: bold; font-size: 100px; color: green;'>+10 points!</span><br><br></div>,,delaylearn,learning,feedback_image_window,6m2DT9IWbWYdYDg6KJcDhmQ93As2,6m2DT9IWbWYdYDg6KJcDhmQ93As2,,,,,,,,,,,,,,,,,,,,,,614793a7be62637e6a2ccf3e,16:40:03,27/03/2024
html-keyboard-response,110,213591,0.0-47.0,,"<div style=""font-size:100px;"">+</div>",,delaylearn,learning,ITI,6m2DT9IWbWYdYDg6KJcDhmQ93As2,6m2DT9IWbWYdYDg6KJcDhmQ93As2,,,,,,,,,,,,,,,,,,,2304.0,,,614793a7be62637e6a2ccf3e,16:40:03,27/03/2024
html-keyboard-response,111,214017,0.0-48.0-0.0,421.40000000596046,"<div style=""display: flex; flex-direction: column; align-items: center; margin-top: -40px;""><img src=""images/pattern_6.png"" style=""width: 234px; height: 230px; margin-top: -50px;""><div style=""display: flex; justify-content: space-between; margin-top: 33px;""><img src=""images/choice_trial_5.png"" style=""width: 408px; height: 417px; margin-right: 200px;""><img src=""images/choice_trial_11.png"" style=""width: 408px; height: 417px;""></div></div>",j,delaylearn,learning,trial,6m2DT9IWbWYdYDg6KJcDhmQ93As2,6m2DT9IWbWYdYDg6KJcDhmQ93As2,2.0,images/choice_trial_5.png,images/choice_trial_11.png,images/pattern_6.png,j,j,750.0,5.0,11.0,5.0,1.0,21.0,1.0,1.0,11.0,100.0,,,,,,614793a7be62637e6a2ccf3e,16:40:03,27/03/2024
html-keyboard-response,112,215020,0.0-48.0-1.0,,"<div style=""display: flex; flex-direction: column; align-items: center; margin-top: -40px;""><img src=""images/pattern_6.png"" style=""width: 234px; height: 230px; margin-top: -50px;""><div style=""display: flex; justify-content: space-between; margin-top: 33px;""><img src=""images/choice_trial_11.png"" style=""width: 408px; height: 417px; margin-left:608px;""></div></div>",,delaylearn,learning,display_response,6m2DT9IWbWYdYDg6KJcDhmQ93As2,6m2DT9IWbWYdYDg6KJcDhmQ93As2,,,,,,,,,,,,,,,,,chosen stimuli: images/choice_trial_11.png,,,,,614793a7be62637e6a2ccf3e,16:40:03,27/03/2024
html-keyboard-response,113,215773,0.0-48.0-2.0,,,,delaylearn,learning,feedback_duration_window,6m2DT9IWbWYdYDg6KJcDhmQ93As2,6m2DT9IWbWYdYDg6KJcDhmQ93As2,,,,,,,,,,,,,,,,,,750.0,,,,614793a7be62637e6a2ccf3e,16:40:03,27/03/2024
html-keyboard-response,114,217277,0.0-48.0-3.0,,<div style='margin:auto;width: auto; font-size: 150%'><span style='font-weight: bold; font-size: 100px; color: green;'>+10 points!</span><br><br></div>,,delaylearn,learning,feedback_image_window,6m2DT9IWbWYdYDg6KJcDhmQ93As2,6m2DT9IWbWYdYDg6KJcDhmQ93As2,,,,,,,,,,,,,,,,,,,,,,614793a7be62637e6a2ccf3e,16:40:03,27/03/2024
html-keyboard-response,115,219543,0.0-49.0,,"<div style=""font-size:100px;"">+</div>",,delaylearn,learning,ITI,6m2DT9IWbWYdYDg6KJcDhmQ93As2,6m2DT9IWbWYdYDg6KJcDhmQ93As2,,,,,,,,,,,,,,,,,,,2264.0,,,614793a7be62637e6a2ccf3e,16:40:03,27/03/2024
html-keyboard-response,116,219948,0.0-50.0-0.0,403.5,"<div style=""display: flex; flex-direction: column; align-items: center; margin-top: -40px;""><img src=""images/pattern_4.png"" style=""width: 234px; height: 230px; margin-top: -50px;""><div style=""display: flex; justify-content: space-between; margin-top: 33px;""><img src=""images/choice_trial_4.png"" style=""width: 408px; height: 417px; margin-right: 200px;""><img src=""images/choice_trial_16.png"" style=""width: 408px; height: 417px;""></div></div>",f,delaylearn,learning,trial,6m2DT9IWbWYdYDg6KJcDhmQ93As2,6m2DT9IWbWYdYDg6KJcDhmQ93As2,2.0,images/choice_trial_4.png,images/choice_trial_16.png,images/pattern_4.png,f,f,7000.0,4.0,16.0,3.0,0.0,22.0,1.0,1.0,4.0,110.0,,,,,,614793a7be62637e6a2ccf3e,16:40:03,27/03/2024
html-keyboard-response,117,220951,0.0-50.0-1.0,,"<div style=""display: flex; flex-direction: column; align-items: center; margin-top: -40px;""><img src=""images/pattern_4.png"" style=""width: 234px; height: 230px; margin-top: -50px;""><div style=""display: flex; justify-content: space-between; margin-top: 33px;""><img src=""images/choice_trial_4.png"" style=""width: 408px; height: 417px; margin-right: 608px;""></div></div>",,delaylearn,learning,display_response,6m2DT9IWbWYdYDg6KJcDhmQ93As2,6m2DT9IWbWYdYDg6KJcDhmQ93As2,,,,,,,,,,,,,,,,,chosen stimuli: images/choice_trial_4.png,,,,,614793a7be62637e6a2ccf3e,16:40:03,27/03/2024
html-keyboard-response,118,227956,0.0-50.0-2.0,,,,delaylearn,learning,feedback_duration_window,6m2DT9IWbWYdYDg6KJcDhmQ93As2,6m2DT9IWbWYdYDg6KJcDhmQ93As2,,,,,,,,,,,,,,,,,,7000.0,,,,614793a7be62637e6a2ccf3e,16:40:03,27/03/2024
html-keyboard-response,119,229461,0.0-50.0-3.0,,<div style='margin:auto;width: auto; font-size: 150%'><span style='font-weight: bold; font-size: 100px; color: green;'>+10 points!</span><br><br></div>,,delaylearn,learning,feedback_image_window,6m2DT9IWbWYdYDg6KJcDhmQ93As2,6m2DT9IWbWYdYDg6KJcDhmQ93As2,,,,,,,,,,,,,,,,,,,,,,614793a7be62637e6a2ccf3e,16:40:03,27/03/2024
html-keyboard-response,120,229966,0.0-51.0-0.0,,,,,,mood_trial_fixation,6m2DT9IWbWYdYDg6KJcDhmQ93As2,,,,,,,,,,,,,,,,,,,,,,,614793a7be62637e6a2ccf3e,16:40:03,27/03/2024
lmdlab-html-vas-response,121,234849,0.0-51.0-1.0,3877.0,How happy are you right now?,0.5555555555555556,delaylearn,learning,mood_trial,6m2DT9IWbWYdYDg6KJcDhmQ93As2,6m2DT9IWbWYdYDg6KJcDhmQ93As2,,,,,,,,,,,,,,,,,,,,"['Very unhappy', 'Very happy']",,614793a7be62637e6a2ccf3e,16:40:03,27/03/2024
html-keyboard-response,122,236658,0.0-52.0,,"<div style=""font-size:100px;"">+</div>",,delaylearn,learning,ITI,6m2DT9IWbWYdYDg6KJcDhmQ93As2,6m2DT9IWbWYdYDg6KJcDhmQ93As2,,,,,,,,,,,,,,,,,,,1807.0,,,614793a7be62637e6a2ccf3e,16:40:03,27/03/2024
html-keyboard-response,123,237194,0.0-53.0-0.0,531.0,"<div style=""display: flex; flex-direction: column; align-items: center; margin-top: -40px;""><img src=""images/pattern_7.png"" style=""width: 234px; height: 230px; margin-top: -50px;""><div style=""display: flex; justify-content: space-between; margin-top: 33px;""><img src=""images/choice_trial_15.png"" style=""width: 408px; height: 417px; margin-right: 200px;""><img src=""images/choice_trial_8.png"" style=""width: 408px; height: 417px;""></div></div>",j,delaylearn,learning,trial,6m2DT9IWbWYdYDg6KJcDhmQ93As2,6m2DT9IWbWYdYDg6KJcDhmQ93As2,2.0,images/choice_trial_15.png,images/choice_trial_8.png,images/pattern_7.png,j,j,750.0,15.0,8.0,6.0,1.0,23.0,1.0,1.0,8.0,120.0,,,,,,614793a7be62637e6a2ccf3e,16:40:03,27/03/2024
html-keyboard-response,124,238197,0.0-53.0-1.0,,"<div style=""display: flex; flex-direction: column; align-items: center; margin-top: -40px;""><img src=""images/pattern_7.png"" style=""width: 234px; height: 230px; margin-top: -50px;""><div style=""display: flex; justify-content: space-between; margin-top: 33px;""><img src=""images/choice_trial_8.png"" style=""width: 408px; height: 417px; margin-left:608px;""></div></div>",,delaylearn,learning,display_response,6m2DT9IWbWYdYDg6KJcDhmQ93As2,6m2DT9IWbWYdYDg6KJcDhmQ93As2,,,,,,,,,,,,,,,,,chosen stimuli: images/choice_trial_8.png,,,,,614793a7be62637e6a2ccf3e,16:40:03,27/03/2024
html-keyboard-response,125,238950,0.0-53.0-2.0,,,,delaylearn,learning,feedback_duration_window,6m2DT9IWbWYdYDg6KJcDhmQ93As2,6m2DT9IWbWYdYDg6KJcDhmQ93As2,,,,,,,,,,,,,,,,,,750.0,,,,614793a7be62637e6a2ccf3e,16:40:03,27/03/2024
html-keyboard-response,126,240453,0.0-53.0-3.0,,<div style='margin:auto;width: auto; font-size: 150%'><span style='font-weight: bold; font-size: 100px; color: green;'>+10 points!</span><br><br></div>,,delaylearn,learning,feedback_image_window,6m2DT9IWbWYdYDg6KJcDhmQ93As2,6m2DT9IWbWYdYDg6KJcDhmQ93As2,,,,,,,,,,,,,,,,,,,,,,614793a7be62637e6a2ccf3e,16:40:03,27/03/2024
html-keyboard-response,127,242174,0.0-54.0,,"<div style=""font-size:100px;"">+</div>",,delaylearn,learning,ITI,6m2DT9IWbWYdYDg6KJcDhmQ93As2,6m2DT9IWbWYdYDg6KJcDhmQ93As2,,,,,,,,,,,,,,,,,,,1718.0,,,614793a7be62637e6a2ccf3e,16:40:03,27/03/2024
html-keyboard-response,128,242463,0.0-55.0-0.0,285.19999998807907,"<div style=""display: flex; flex-direction: column; align-items: center; margin-top: -40px;""><img src=""images/pattern_1.png"" style=""width: 234px; height: 230px; margin-top: -50px;""><div style=""display: flex; justify-content: space-between; margin-top: 33px;""><img src=""images/choice_trial_10.png"" style=""width: 408px; height: 417px; margin-right: 200px;""><img src=""images/choice_trial_3.png"" style=""width: 408px; height: 417px;""></div></div>",f,delaylearn,learning,trial,6m2DT9IWbWYdYDg6KJcDhmQ93As2,6m2DT9IWbWYdYDg6KJcDhmQ93As2,2.0,images/choice_trial_10.png,images/choice_trial_3.png,images/pattern_1.png,f,j,7000.0,10.0,3.0,1.0,1.0,24.0,0.0,1.0,10.0,130.0,,,,,,614793a7be62637e6a2ccf3e,16:40:03,27/03/2024
html-keyboard-response,129,243466,0.0-55.0-1.0,,"<div style=""display: flex; flex-direction: column; align-items: center; margin-top: -40px;""><img src=""images/pattern_1.png"" style=""width: 234px; height: 230px; margin-top: -50px;""><div style=""display: flex; justify-content: space-between; margin-top: 33px;""><img src=""images/choice_trial_10.png"" style=""width: 408px; height: 417px; margin-right: 608px;""></div></div>",,delaylearn,learning,display_response,6m2DT9IWbWYdYDg6KJcDhmQ93As2,6m2DT9IWbWYdYDg6KJcDhmQ93As2,,,,,,,,,,,,,,,,,chosen stimuli: images/choice_trial_10.png,,,,,614793a7be62637e6a2ccf3e,16:40:03,27/03/2024
html-keyboard-response,130,250469,0.0-55.0-2.0,,,,delaylearn,learning,feedback_duration_window,6m2DT9IWbWYdYDg6KJcDhmQ93As2,6m2DT9IWbWYdYDg6KJcDhmQ93As2,,,,,,,,,,,,,,,,,,7000.0,,,,614793a7be62637e6a2ccf3e,16:40:03,27/03/2024
html-keyboard-response,131,251972,0.0-55.0-3.0,,<div style='margin:auto;width: auto; font-size: 150%'><span style='font-weight: bold; font-size: 100px; color: green;'>+10 points!</span><br><br></div>,,delaylearn,learning,feedback_image_window,6m2DT9IWbWYdYDg6KJcDhmQ93As2,6m2DT9IWbWYdYDg6KJcDhmQ93As2,,,,,,,,,,,,,,,,,,,,,,614793a7be62637e6a2ccf3e,16:40:03,27/03/2024
html-keyboard-response,132,253703,0.0-56.0,,"<div style=""font-size:100px;"">+</div>",,delaylearn,learning,ITI,6m2DT9IWbWYdYDg6KJcDhmQ93As2,6m2DT9IWbWYdYDg6KJcDhmQ93As2,,,,,,,,,,,,,,,,,,,1729.0,,,614793a7be62637e6a2ccf3e,16:40:03,27/03/2024
html-keyboard-response,133,254095,0.0-57.0-0.0,389.30000001192093,"<div style=""display: flex; flex-direction: column; align-items: center; margin-top: -40px;""><img src=""images/pattern_5.png"" style=""width: 234px; height: 230px; margin-top: -50px;""><div style=""display: flex; justify-content: space-between; margin-top: 33px;""><img src=""images/choice_trial_9.png"" style=""width: 408px; height: 417px; margin-right: 200px;""><img src=""images/choice_trial_2.png"" style=""width: 408px; height: 417px;""></div></div>",j,delaylearn,learning,trial,6m2DT9IWbWYdYDg6KJcDhmQ93As2,6m2DT9IWbWYdYDg6KJcDhmQ93As2,2.0,images/choice_trial_9.png,images/choice_trial_2.png,images/pattern_5.png,j,j,750.0,9.0,2.0,4.0,1.0,25.0,1.0,1.0,2.0,140.0,,,,,,614793a7be62637e6a2ccf3e,16:40:03,27/03/2024
html-keyboard-response,134,255098,0.0-57.0-1.0,,"<div style=""display: flex; flex-direction: column; align-items: center; margin-top: -40px;""><img src=""images/pattern_5.png"" style=""width: 234px; height: 230px; margin-top: -50px;""><div style=""display: flex; justify-content: space-between; margin-top: 33px;""><img src=""images/choice_trial_2.png"" style=""width: 408px; height: 417px; margin-left:608px;""></div></div>",,delaylearn,learning,display_response,6m2DT9IWbWYdYDg6KJcDhmQ93As2,6m2DT9IWbWYdYDg6KJcDhmQ93As2,,,,,,,,,,,,,,,,,chosen stimuli: images/choice_trial_2.png,,,,,614793a7be62637e6a2ccf3e,16:40:03,27/03/2024
html-keyboard-response,135,255849,0.0-57.0-2.0,,,,delaylearn,learning,feedback_duration_window,6m2DT9IWbWYdYDg6KJcDhmQ93As2,6m2DT9IWbWYdYDg6KJcDhmQ93As2,,,,,,,,,,,,,,,,,,750.0,,,,614793a7be62637e6a2ccf3e,16:40:03,27/03/2024
html-keyboard-response,136,257352,0.0-57.0-3.0,,<div style='margin:auto;width: auto; font-size: 150%'><span style='font-weight: bold; font-size: 100px; color: green;'>+10 points!</span><br><br></div>,,delaylearn,learning,feedback_image_window,6m2DT9IWbWYdYDg6KJcDhmQ93As2,6m2DT9IWbWYdYDg6KJcDhmQ93As2,,,,,,,,,,,,,,,,,,,,,,614793a7be62637e6a2ccf3e,16:40:03,27/03/2024
html-keyboard-response,137,259204,0.0-58.0,,"<div style=""font-size:100px;"">+</div>",,delaylearn,learning,ITI,6m2DT9IWbWYdYDg6KJcDhmQ93As2,6m2DT9IWbWYdYDg6KJcDhmQ93As2,,,,,,,,,,,,,,,,,,,1850.0,,,614793a7be62637e6a2ccf3e,16:40:03,27/03/2024
html-keyboard-response,138,259741,0.0-59.0-0.0,532.9000000059605,"<div style=""display: flex; flex-direction: column; align-items: center; margin-top: -40px;""><img src=""images/pattern_3.png"" style=""width: 234px; height: 230px; margin-top: -50px;""><div style=""display: flex; justify-content: space-between; margin-top: 33px;""><img src=""images/choice_trial_14.png"" style=""width: 408px; height: 417px; margin-right: 200px;""><img src=""images/choice_trial_12.png"" style=""width: 408px; height: 417px;""></div></div>",f,delaylearn,learning,trial,6m2DT9IWbWYdYDg6KJcDhmQ93As2,6m2DT9IWbWYdYDg6KJcDhmQ93As2,2.0,images/choice_trial_14.png,images/choice_trial_12.png,images/pattern_3.png,j,j,7000.0,14.0,12.0,2.0,1.0,26.0,0.0,0.0,14.0,140.0,,,,,,614793a7be62637e6a2ccf3e,16:40:03,27/03/2024
html-keyboard-response,139,260743,0.0-59.0-1.0,,"<div style=""display: flex; flex-direction: column; align-items: center; margin-top: -40px;""><img src=""images/pattern_3.png"" style=""width: 234px; height: 230px; margin-top: -50px;""><div style=""display: flex; justify-content: space-between; margin-top: 33px;""><img src=""images/choice_trial_14.png"" style=""width: 408px; height: 417px; margin-right: 608px;""></div></div>",,delaylearn,learning,display_response,6m2DT9IWbWYdYDg6KJcDhmQ93As2,6m2DT9IWbWYdYDg6KJcDhmQ93As2,,,,,,,,,,,,,,,,,chosen stimuli: images/choice_trial_14.png,,,,,614793a7be62637e6a2ccf3e,16:40:03,27/03/2024
html-keyboard-response,140,267746,0.0-59.0-2.0,,,,delaylearn,learning,feedback_duration_window,6m2DT9IWbWYdYDg6KJcDhmQ93As2,6m2DT9IWbWYdYDg6KJcDhmQ93As2,,,,,,,,,,,,,,,,,,7000.0,,,,614793a7be62637e6a2ccf3e,16:40:03,27/03/2024
html-keyboard-response,141,269249,0.0-59.0-3.0,,<div style='margin:auto;width: auto; font-size: 150%'><span style='font-weight: bold; font-size: 100px; color: red;'>0 points!</span><br><br></div>,,delaylearn,learning,feedback_image_window,6m2DT9IWbWYdYDg6KJcDhmQ93As2,6m2DT9IWbWYdYDg6KJcDhmQ93As2,,,,,,,,,,,,,,,,,,,,,,614793a7be62637e6a2ccf3e,16:40:03,27/03/2024
lmdlab-html-vas-response,142,275433,0.0-60.0-0.0,4653.0,*How <b><u>confident</u></b> are you feeling about your answers at this moment?*,0.27037037037037037,rewlearn,rate_confidence,,6m2DT9IWbWYdYDg6KJcDhmQ93As2,6m2DT9IWbWYdYDg6KJcDhmQ93As2,,,,,,,,,,,,,,,,,,,,"['No confidence', 'Complete confidence']",,614793a7be62637e6a2ccf3e,16:40:03,27/03/2024
lmdlab-rest-trial-limit,143,281885,0.0-60.0-1.0,4947.0,"<div style=""font-size:40px;""><b>Please take a break!</b><br><br><br><br><p>Great work: you earned 140 points.<br><br><br><p>You have completed part(s) 1 of 5.<br><br><br><br>When you are ready to continue<br><br><br>please click the button.</p><br><br>",0,delaylearn,learning,break,6m2DT9IWbWYdYDg6KJcDhmQ93As2,6m2DT9IWbWYdYDg6KJcDhmQ93As2,,,,,,,,,,,,,,,,,,,,,0.0,614793a7be62637e6a2ccf3e,16:40:03,27/03/2024
html-keyboard-response,144,284890,0.0-60.0-2.0,,"<div style=""font-size:100px;"">+</div>",,delaylearn,learning,pre_fixation,6m2DT9IWbWYdYDg6KJcDhmQ93As2,,,,,,,,,,,,,,,,,,,,,,,614793a7be62637e6a2ccf3e,16:40:03,27/03/2024
lmdlab-html-vas-response,145,289365,0.0-60.0-3.0-0.0,3461.0,How happy are you right now?,0.31851851851851853,delaylearn,learning,mood_baseline,6m2DT9IWbWYdYDg6KJcDhmQ93As2,6m2DT9IWbWYdYDg6KJcDhmQ93As2,,,,,,,,,,,,,,,,,,,,"['Very unhappy', 'Very happy']",,614793a7be62637e6a2ccf3e,16:40:03,27/03/2024
html-keyboard-response,146,290870,0.0-60.0-3.0-1.0,,,,,,mood_baseline_fixation,6m2DT9IWbWYdYDg6KJcDhmQ93As2,,,,,,,,,,,,,,,,,,,,,,,614793a7be62637e6a2ccf3e,16:40:03,27/03/2024
html-keyboard-response,147,292381,0.0-61.0,,"<div style=""font-size:100px;"">+</div>",,delaylearn,learning,ITI,6m2DT9IWbWYdYDg6KJcDhmQ93As2,6m2DT9IWbWYdYDg6KJcDhmQ93As2,,,,,,,,,,,,,,,,,,,1507.0,,,614793a7be62637e6a2ccf3e,16:40:03,27/03/2024
html-keyboard-response,148,293033,0.0-62.0-0.0,647.5999999940395,"<div style=""display: flex; flex-direction: column; align-items: center; margin-top: -40px;""><img src=""images/pattern_7.png"" style=""width: 234px; height: 230px; margin-top: -50px;""><div style=""display: flex; justify-content: space-between; margin-top: 33px;""><img src=""images/choice_trial_15.png"" style=""width: 408px; height: 417px; margin-right: 200px;""><img src=""images/choice_trial_8.png"" style=""width: 408px; height: 417px;""></div></div>",f,delaylearn,learning,trial,6m2DT9IWbWYdYDg6KJcDhmQ93As2,6m2DT9IWbWYdYDg6KJcDhmQ93As2,2.0,images/choice_trial_15.png,images/choice_trial_8.png,images/pattern_7.png,j,j,750.0,15.0,8.0,6.0,1.0,27.0,0.0,0.0,15.0,140.0,,,,,,614793a7be62637e6a2ccf3e,16:40:03,27/03/2024
html-keyboard-response,149,294037,0.0-62.0-1.0,,"<div style=""display: flex; flex-direction: column; align-items: center; margin-top: -40px;""><img src=""images/pattern_7.png"" style=""width: 234px; height: 230px; margin-top: -50px;""><div style=""display: flex; justify-content: space-between; margin-top: 33px;""><img src=""images/choice_trial_15.png"" style=""width: 408px; height: 417px; margin-right: 608px;""></div></div>",,delaylearn,learning,display_response,6m2DT9IWbWYdYDg6KJcDhmQ93As2,6m2DT9IWbWYdYDg6KJcDhmQ93As2,,,,,,,,,,,,,,,,,chosen stimuli: images/choice_trial_15.png,,,,,614793a7be62637e6a2ccf3e,16:40:03,27/03/2024
html-keyboard-response,150,294790,0.0-62.0-2.0,,,,delaylearn,learning,feedback_duration_window,6m2DT9IWbWYdYDg6KJcDhmQ93As2,6m2DT9IWbWYdYDg6KJcDhmQ93As2,,,,,,,,,,,,,,,,,,750.0,,,,614793a7be62637e6a2ccf3e,16:40:03,27/03/2024
html-keyboard-response,151,296293,0.0-62.0-3.0,,<div style='margin:auto;width: auto; font-size: 150%'><span style='font-weight: bold; font-size: 100px; color: red;'>0 points!</span><br><br></div>,,delaylearn,learning,feedback_image_window,6m2DT9IWbWYdYDg6KJcDhmQ93As2,6m2DT9IWbWYdYDg6KJcDhmQ93As2,,,,,,,,,,,,,,,,,,,,,,614793a7be62637e6a2ccf3e,16:40:03,27/03/2024
html-keyboard-response,152,296796,0.0-63.0-0.0,,,,,,mood_trial_fixation,6m2DT9IWbWYdYDg6KJcDhmQ93As2,,,,,,,,,,,,,,,,,,,,,,,614793a7be62637e6a2ccf3e,16:40:03,27/03/2024
lmdlab-html-vas-response,153,300981,0.0-63.0-1.0,3179.0,How happy are you right now?,0.15925925925925927,delaylearn,learning,mood_trial,6m2DT9IWbWYdYDg6KJcDhmQ93As2,6m2DT9IWbWYdYDg6KJcDhmQ93As2,,,,,,,,,,,,,,,,,,,,"['Very unhappy', 'Very happy']",,614793a7be62637e6a2ccf3e,16:40:03,27/03/2024
html-keyboard-response,154,302776,0.0-64.0,,"<div style=""font-size:100px;"">+</div>",,delaylearn,learning,ITI,6m2DT9IWbWYdYDg6KJcDhmQ93As2,6m2DT9IWbWYdYDg6KJcDhmQ93As2,,,,,,,,,,,,,,,,,,,1793.0,,,614793a7be62637e6a2ccf3e,16:40:03,27/03/2024
html-keyboard-response,155,303375,0.0-65.0-0.0,594.3000000119209,"<div style=""display: flex; flex-direction: column; align-items: center; margin-top: -40px;""><img src=""images/pattern_1.png"" style=""width: 234px; height: 230px; margin-top: -50px;""><div style=""display: flex; justify-content: space-between; margin-top: 33px;""><img src=""images/choice_trial_3.png"" style=""width: 408px; height: 417px; margin-right: 200px;""><img src=""images/choice_trial_10.png"" style=""width: 408px; height: 417px;""></div></div>",j,delaylearn,learning,trial,6m2DT9IWbWYdYDg6KJcDhmQ93As2,6m2DT9IWbWYdYDg6KJcDhmQ93As2,2.0,images/choice_trial_3.png,images/choice_trial_10.png,images/pattern_1.png,f,f,7000.0,3.0,10.0,1.0,0.0,28.0,0.0,0.0,10.0,140.0,,,,,,614793a7be62637e6a2ccf3e,16:40:03,27/03/2024
html-keyboard-response,156,304378,0.0-65.0-1.0,,"<div style=""display: flex; flex-direction: column; align-items: center; margin-top: -40px;""><img src=""images/pattern_1.png"" style=""width: 234px; height: 230px; margin-top: -50px;""><div style=""display: flex; justify-content: space-between; margin-top: 33px;""><img src=""images/choice_trial_10.png"" style=""width: 408px; height: 417px; margin-left:608px;""></div></div>",,delaylearn,learning,display_response,6m2DT9IWbWYdYDg6KJcDhmQ93As2,6m2DT9IWbWYdYDg6KJcDhmQ93As2,,,,,,,,,,,,,,,,,chosen stimuli: images/choice_trial_10.png,,,,,614793a7be62637e6a2ccf3e,16:40:03,27/03/2024
html-keyboard-response,157,311380,0.0-65.0-2.0,,,,delaylearn,learning,feedback_duration_window,6m2DT9IWbWYdYDg6KJcDhmQ93As2,6m2DT9IWbWYdYDg6KJcDhmQ93As2,,,,,,,,,,,,,,,,,,7000.0,,,,614793a7be62637e6a2ccf3e,16:40:03,27/03/2024
html-keyboard-response,158,312883,0.0-65.0-3.0,,<div style='margin:auto;width: auto; font-size: 150%'><span style='font-weight: bold; font-size: 100px; color: red;'>0 points!</span><br><br></div>,,delaylearn,learning,feedback_image_window,6m2DT9IWbWYdYDg6KJcDhmQ93As2,6m2DT9IWbWYdYDg6KJcDhmQ93As2,,,,,,,,,,,,,,,,,,,,,,614793a7be62637e6a2ccf3e,16:40:03,27/03/2024
html-keyboard-response,159,315058,0.0-66.0,,"<div style=""font-size:100px;"">+</div>",,delaylearn,learning,ITI,6m2DT9IWbWYdYDg6KJcDhmQ93As2,6m2DT9IWbWYdYDg6KJcDhmQ93As2,,,,,,,,,,,,,,,,,,,2172.0,,,614793a7be62637e6a2ccf3e,16:40:03,27/03/2024
html-keyboard-response,160,315532,0.0-67.0-0.0,473.5,"<div style=""display: flex; flex-direction: column; align-items: center; margin-top: -40px;""><img src=""images/pattern_5.png"" style=""width: 234px; height: 230px; margin-top: -50px;""><div style=""display: flex; justify-content: space-between; margin-top: 33px;""><img src=""images/choice_trial_2.png"" style=""width: 408px; height: 417px; margin-right: 200px;""><img src=""images/choice_trial_9.png"" style=""width: 408px; height: 417px;""></div></div>",j,delaylearn,learning,trial,6m2DT9IWbWYdYDg6KJcDhmQ93As2,6m2DT9IWbWYdYDg6KJcDhmQ93As2,2.0,images/choice_trial_2.png,images/choice_trial_9.png,images/pattern_5.png,f,f,750.0,2.0,9.0,4.0,0.0,29.0,0.0,0.0,9.0,140.0,,,,,,614793a7be62637e6a2ccf3e,16:40:03,27/03/2024
html-keyboard-response,161,316536,0.0-67.0-1.0,,"<div style=""display: flex; flex-direction: column; align-items: center; margin-top: -40px;""><img src=""images/pattern_5.png"" style=""width: 234px; height: 230px; margin-top: -50px;""><div style=""display: flex; justify-content: space-between; margin-top: 33px;""><img src=""images/choice_trial_9.png"" style=""width: 408px; height: 417px; margin-left:608px;""></div></div>",,delaylearn,learning,display_response,6m2DT9IWbWYdYDg6KJcDhmQ93As2,6m2DT9IWbWYdYDg6KJcDhmQ93As2,,,,,,,,,,,,,,,,,chosen stimuli: images/choice_trial_9.png,,,,,614793a7be62637e6a2ccf3e,16:40:03,27/03/2024
html-keyboard-response,162,317289,0.0-67.0-2.0,,,,delaylearn,learning,feedback_duration_window,6m2DT9IWbWYdYDg6KJcDhmQ93As2,6m2DT9IWbWYdYDg6KJcDhmQ93As2,,,,,,,,,,,,,,,,,,750.0,,,,614793a7be62637e6a2ccf3e,16:40:03,27/03/2024
html-keyboard-response,163,318793,0.0-67.0-3.0,,<div style='margin:auto;width: auto; font-size: 150%'><span style='font-weight: bold; font-size: 100px; color: red;'>0 points!</span><br><br></div>,,delaylearn,learning,feedback_image_window,6m2DT9IWbWYdYDg6KJcDhmQ93As2,6m2DT9IWbWYdYDg6KJcDhmQ93As2,,,,,,,,,,,,,,,,,,,,,,614793a7be62637e6a2ccf3e,16:40:03,27/03/2024
html-keyboard-response,164,320321,0.0-68.0,,"<div style=""font-size:100px;"">+</div>",,delaylearn,learning,ITI,6m2DT9IWbWYdYDg6KJcDhmQ93As2,6m2DT9IWbWYdYDg6KJcDhmQ93As2,,,,,,,,,,,,,,,,,,,1525.0,,,614793a7be62637e6a2ccf3e,16:40:03,27/03/2024
html-keyboard-response,165,320862,0.0-69.0-0.0,537.2000000178814,"<div style=""display: flex; flex-direction: column; align-items: center; margin-top: -40px;""><img src=""images/pattern_6.png"" style=""width: 234px; height: 230px; margin-top: -50px;""><div style=""display: flex; justify-content: space-between; margin-top: 33px;""><img src=""images/choice_trial_5.png"" style=""width: 408px; height: 417px; margin-right: 200px;""><img src=""images/choice_trial_11.png"" style=""width: 408px; height: 417px;""></div></div>",f,delaylearn,learning,trial,6m2DT9IWbWYdYDg6KJcDhmQ93As2,6m2DT9IWbWYdYDg6KJcDhmQ93As2,2.0,images/choice_trial_5.png,images/choice_trial_11.png,images/pattern_6.png,j,j,750.0,5.0,11.0,5.0,1.0,30.0,0.0,0.0,5.0,140.0,,,,,,614793a7be62637e6a2ccf3e,16:40:03,27/03/2024
html-keyboard-response,166,321866,0.0-69.0-1.0,,"<div style=""display: flex; flex-direction: column; align-items: center; margin-top: -40px;""><img src=""images/pattern_6.png"" style=""width: 234px; height: 230px; margin-top: -50px;""><div style=""display: flex; justify-content: space-between; margin-top: 33px;""><img src=""images/choice_trial_5.png"" style=""width: 408px; height: 417px; margin-right: 608px;""></div></div>",,delaylearn,learning,display_response,6m2DT9IWbWYdYDg6KJcDhmQ93As2,6m2DT9IWbWYdYDg6KJcDhmQ93As2,,,,,,,,,,,,,,,,,chosen stimuli: images/choice_trial_5.png,,,,,614793a7be62637e6a2ccf3e,16:40:03,27/03/2024
html-keyboard-response,167,322619,0.0-69.0-2.0,,,,delaylearn,learning,feedback_duration_window,6m2DT9IWbWYdYDg6KJcDhmQ93As2,6m2DT9IWbWYdYDg6KJcDhmQ93As2,,,,,,,,,,,,,,,,,,750.0,,,,614793a7be62637e6a2ccf3e,16:40:03,27/03/2024
html-keyboard-response,168,324121,0.0-69.0-3.0,,<div style='margin:auto;width: auto; font-size: 150%'><span style='font-weight: bold; font-size: 100px; color: red;'>0 points!</span><br><br></div>,,delaylearn,learning,feedback_image_window,6m2DT9IWbWYdYDg6KJcDhmQ93As2,6m2DT9IWbWYdYDg6KJcDhmQ93As2,,,,,,,,,,,,,,,,,,,,,,614793a7be62637e6a2ccf3e,16:40:03,27/03/2024
html-keyboard-response,169,324625,0.0-70.0-0.0,,,,,,mood_trial_fixation,6m2DT9IWbWYdYDg6KJcDhmQ93As2,,,,,,,,,,,,,,,,,,,,,,,614793a7be62637e6a2ccf3e,16:40:03,27/03/2024
lmdlab-html-vas-response,170,329595,0.0-70.0-1.0,3964.0,How happy are you right now?,0.011111111111111112,delaylearn,learning,mood_trial,6m2DT9IWbWYdYDg6KJcDhmQ93As2,6m2DT9IWbWYdYDg6KJcDhmQ93As2,,,,,,,,,,,,,,,,,,,,"['Very unhappy', 'Very happy']",,614793a7be62637e6a2ccf3e,16:40:03,27/03/2024
html-keyboard-response,171,331791,0.0-71.0,,"<div style=""font-size:100px;"">+</div>",,delaylearn,learning,ITI,6m2DT9IWbWYdYDg6KJcDhmQ93As2,6m2DT9IWbWYdYDg6KJcDhmQ93As2,,,,,,,,,,,,,,,,,,,2193.0,,,614793a7be62637e6a2ccf3e,16:40:03,27/03/2024
html-keyboard-response,172,332520,0.0-72.0-0.0,726.2000000178814,"<div style=""display: flex; flex-direction: column; align-items: center; margin-top: -40px;""><img src=""images/pattern_4.png"" style=""width: 234px; height: 230px; margin-top: -50px;""><div style=""display: flex; justify-content: space-between; margin-top: 33px;""><img src=""images/choice_trial_16.png"" style=""width: 408px; height: 417px; margin-right: 200px;""><img src=""images/choice_trial_4.png"" style=""width: 408px; height: 417px;""></div></div>",j,delaylearn,learning,trial,6m2DT9IWbWYdYDg6KJcDhmQ93As2,6m2DT9IWbWYdYDg6KJcDhmQ93As2,2.0,images/choice_trial_16.png,images/choice_trial_4.png,images/pattern_4.png,j,j,7000.0,16.0,4.0,3.0,1.0,31.0,1.0,1.0,4.0,150.0,,,,,,614793a7be62637e6a2ccf3e,16:40:03,27/03/2024
html-keyboard-response,173,333523,0.0-72.0-1.0,,"<div style=""display: flex; flex-direction: column; align-items: center; margin-top: -40px;""><img src=""images/pattern_4.png"" style=""width: 234px; height: 230px; margin-top: -50px;""><div style=""display: flex; justify-content: space-between; margin-top: 33px;""><img src=""images/choice_trial_4.png"" style=""width: 408px; height: 417px; margin-left:608px;""></div></div>",,delaylearn,learning,display_response,6m2DT9IWbWYdYDg6KJcDhmQ93As2,6m2DT9IWbWYdYDg6KJcDhmQ93As2,,,,,,,,,,,,,,,,,chosen stimuli: images/choice_trial_4.png,,,,,614793a7be62637e6a2ccf3e,16:40:03,27/03/2024
html-keyboard-response,174,340526,0.0-72.0-2.0,,,,delaylearn,learning,feedback_duration_window,6m2DT9IWbWYdYDg6KJcDhmQ93As2,6m2DT9IWbWYdYDg6KJcDhmQ93As2,,,,,,,,,,,,,,,,,,7000.0,,,,614793a7be62637e6a2ccf3e,16:40:03,27/03/2024
html-keyboard-response,175,342029,0.0-72.0-3.0,,<div style='margin:auto;width: auto; font-size: 150%'><span style='font-weight: bold; font-size: 100px; color: green;'>+10 points!</span><br><br></div>,,delaylearn,learning,feedback_image_window,6m2DT9IWbWYdYDg6KJcDhmQ93As2,6m2DT9IWbWYdYDg6KJcDhmQ93As2,,,,,,,,,,,,,,,,,,,,,,614793a7be62637e6a2ccf3e,16:40:03,27/03/2024
html-keyboard-response,176,343918,0.0-73.0,,"<div style=""font-size:100px;"">+</div>",,delaylearn,learning,ITI,6m2DT9IWbWYdYDg6KJcDhmQ93As2,6m2DT9IWbWYdYDg6KJcDhmQ93As2,,,,,,,,,,,,,,,,,,,1887.0,,,614793a7be62637e6a2ccf3e,16:40:03,27/03/2024
html-keyboard-response,177,344399,0.0-74.0-0.0,476.19999998807907,"<div style=""display: flex; flex-direction: column; align-items: center; margin-top: -40px;""><img src=""images/pattern_3.png"" style=""width: 234px; height: 230px; margin-top: -50px;""><div style=""display: flex; justify-content: space-between; margin-top: 33px;""><img src=""images/choice_trial_14.png"" style=""width: 408px; height: 417px; margin-right: 200px;""><img src=""images/choice_trial_12.png"" style=""width: 408px; height: 417px;""></div></div>",f,delaylearn,learning,trial,6m2DT9IWbWYdYDg6KJcDhmQ93As2,6m2DT9IWbWYdYDg6KJcDhmQ93As2,2.0,images/choice_trial_14.png,images/choice_trial_12.png,images/pattern_3.png,j,j,7000.0,14.0,12.0,2.0,1.0,32.0,0.0,0.0,14.0,150.0,,,,,,614793a7be62637e6a2ccf3e,16:40:03,27/03/2024
html-keyboard-response,178,345401,0.0-74.0-1.0,,"<div style=""display: flex; flex-direction: column; align-items: center; margin-top: -40px;""><img src=""images/pattern_3.png"" style=""width: 234px; height: 230px; margin-top: -50px;""><div style=""display: flex; justify-content: space-between; margin-top: 33px;""><img src=""images/choice_trial_14.png"" style=""width: 408px; height: 417px; margin-right: 608px;""></div></div>",,delaylearn,learning,display_response,6m2DT9IWbWYdYDg6KJcDhmQ93As2,6m2DT9IWbWYdYDg6KJcDhmQ93As2,,,,,,,,,,,,,,,,,chosen stimuli: images/choice_trial_14.png,,,,,614793a7be62637e6a2ccf3e,16:40:03,27/03/2024
html-keyboard-response,179,352404,0.0-74.0-2.0,,,,delaylearn,learning,feedback_duration_window,6m2DT9IWbWYdYDg6KJcDhmQ93As2,6m2DT9IWbWYdYDg6KJcDhmQ93As2,,,,,,,,,,,,,,,,,,7000.0,,,,614793a7be62637e6a2ccf3e,16:40:03,27/03/2024
html-keyboard-response,180,353907,0.0-74.0-3.0,,<div style='margin:auto;width: auto; font-size: 150%'><span style='font-weight: bold; font-size: 100px; color: red;'>0 points!</span><br><br></div>,,delaylearn,learning,feedback_image_window,6m2DT9IWbWYdYDg6KJcDhmQ93As2,6m2DT9IWbWYdYDg6KJcDhmQ93As2,,,,,,,,,,,,,,,,,,,,,,614793a7be62637e6a2ccf3e,16:40:03,27/03/2024
html-keyboard-response,181,355835,0.0-75.0,,"<div style=""font-size:100px;"">+</div>",,delaylearn,learning,ITI,6m2DT9IWbWYdYDg6KJcDhmQ93As2,6m2DT9IWbWYdYDg6KJcDhmQ93As2,,,,,,,,,,,,,,,,,,,1925.0,,,614793a7be62637e6a2ccf3e,16:40:03,27/03/2024
html-keyboard-response,182,356348,0.0-76.0-0.0,508.09999999403954,"<div style=""display: flex; flex-direction: column; align-items: center; margin-top: -40px;""><img src=""images/pattern_5.png"" style=""width: 234px; height: 230px; margin-top: -50px;""><div style=""display: flex; justify-content: space-between; margin-top: 33px;""><img src=""images/choice_trial_2.png"" style=""width: 408px; height: 417px; margin-right: 200px;""><img src=""images/choice_trial_9.png"" style=""width: 408px; height: 417px;""></div></div>",j,delaylearn,learning,trial,6m2DT9IWbWYdYDg6KJcDhmQ93As2,6m2DT9IWbWYdYDg6KJcDhmQ93As2,2.0,images/choice_trial_2.png,images/choice_trial_9.png,images/pattern_5.png,j,f,750.0,2.0,9.0,4.0,0.0,33.0,0.0,1.0,9.0,160.0,,,,,,614793a7be62637e6a2ccf3e,16:40:03,27/03/2024
html-keyboard-response,183,357351,0.0-76.0-1.0,,"<div style=""display: flex; flex-direction: column; align-items: center; margin-top: -40px;""><img src=""images/pattern_5.png"" style=""width: 234px; height: 230px; margin-top: -50px;""><div style=""display: flex; justify-content: space-between; margin-top: 33px;""><img src=""images/choice_trial_9.png"" style=""width: 408px; height: 417px; margin-left:608px;""></div></div>",,delaylearn,learning,display_response,6m2DT9IWbWYdYDg6KJcDhmQ93As2,6m2DT9IWbWYdYDg6KJcDhmQ93As2,,,,,,,,,,,,,,,,,chosen stimuli: images/choice_trial_9.png,,,,,614793a7be62637e6a2ccf3e,16:40:03,27/03/2024
html-keyboard-response,184,358103,0.0-76.0-2.0,,,,delaylearn,learning,feedback_duration_window,6m2DT9IWbWYdYDg6KJcDhmQ93As2,6m2DT9IWbWYdYDg6KJcDhmQ93As2,,,,,,,,,,,,,,,,,,750.0,,,,614793a7be62637e6a2ccf3e,16:40:03,27/03/2024
html-keyboard-response,185,359606,0.0-76.0-3.0,,<div style='margin:auto;width: auto; font-size: 150%'><span style='font-weight: bold; font-size: 100px; color: green;'>+10 points!</span><br><br></div>,,delaylearn,learning,feedback_image_window,6m2DT9IWbWYdYDg6KJcDhmQ93As2,6m2DT9IWbWYdYDg6KJcDhmQ93As2,,,,,,,,,,,,,,,,,,,,,,614793a7be62637e6a2ccf3e,16:40:03,27/03/2024
html-keyboard-response,186,362034,0.0-77.0,,"<div style=""font-size:100px;"">+</div>",,delaylearn,learning,ITI,6m2DT9IWbWYdYDg6KJcDhmQ93As2,6m2DT9IWbWYdYDg6KJcDhmQ93As2,,,,,,,,,,,,,,,,,,,2426.0,,,614793a7be62637e6a2ccf3e,16:40:03,27/03/2024
html-keyboard-response,187,362584,0.0-78.0-0.0,546.2000000178814,"<div style=""display: flex; flex-direction: column; align-items: center; margin-top: -40px;""><img src=""images/pattern_1.png"" style=""width: 234px; height: 230px; margin-top: -50px;""><div style=""display: flex; justify-content: space-between; margin-top: 33px;""><img src=""images/choice_trial_3.png"" style=""width: 408px; height: 417px; margin-right: 200px;""><img src=""images/choice_trial_10.png"" style=""width: 408px; height: 417px;""></div></div>",j,delaylearn,learning,trial,6m2DT9IWbWYdYDg6KJcDhmQ93As2,6m2DT9IWbWYdYDg6KJcDhmQ93As2,2.0,images/choice_trial_3.png,images/choice_trial_10.png,images/pattern_1.png,f,f,7000.0,3.0,10.0,1.0,0.0,34.0,0.0,0.0,10.0,160.0,,,,,,614793a7be62637e6a2ccf3e,16:40:03,27/03/2024
html-keyboard-response,188,363588,0.0-78.0-1.0,,"<div style=""display: flex; flex-direction: column; align-items: center; margin-top: -40px;""><img src=""images/pattern_1.png"" style=""width: 234px; height: 230px; margin-top: -50px;""><div style=""display: flex; justify-content: space-between; margin-top: 33px;""><img src=""images/choice_trial_10.png"" style=""width: 408px; height: 417px; margin-left:608px;""></div></div>",,delaylearn,learning,display_response,6m2DT9IWbWYdYDg6KJcDhmQ93As2,6m2DT9IWbWYdYDg6KJcDhmQ93As2,,,,,,,,,,,,,,,,,chosen stimuli: images/choice_trial_10.png,,,,,614793a7be62637e6a2ccf3e,16:40:03,27/03/2024
html-keyboard-response,189,370590,0.0-78.0-2.0,,,,delaylearn,learning,feedback_duration_window,6m2DT9IWbWYdYDg6KJcDhmQ93As2,6m2DT9IWbWYdYDg6KJcDhmQ93As2,,,,,,,,,,,,,,,,,,7000.0,,,,614793a7be62637e6a2ccf3e,16:40:03,27/03/2024
html-keyboard-response,190,372094,0.0-78.0-3.0,,<div style='margin:auto;width: auto; font-size: 150%'><span style='font-weight: bold; font-size: 100px; color: red;'>0 points!</span><br><br></div>,,delaylearn,learning,feedback_image_window,6m2DT9IWbWYdYDg6KJcDhmQ93As2,6m2DT9IWbWYdYDg6KJcDhmQ93As2,,,,,,,,,,,,,,,,,,,,,,614793a7be62637e6a2ccf3e,16:40:03,27/03/2024
html-keyboard-response,191,372597,0.0-79.0-0.0,,,,,,mood_trial_fixation,6m2DT9IWbWYdYDg6KJcDhmQ93As2,,,,,,,,,,,,,,,,,,,,,,,614793a7be62637e6a2ccf3e,16:40:03,27/03/2024
lmdlab-html-vas-response,192,376645,0.0-79.0-1.0,3042.0,How happy are you right now?,0.016666666666666666,delaylearn,learning,mood_trial,6m2DT9IWbWYdYDg6KJcDhmQ93As2,6m2DT9IWbWYdYDg6KJcDhmQ93As2,,,,,,,,,,,,,,,,,,,,"['Very unhappy', 'Very happy']",,614793a7be62637e6a2ccf3e,16:40:03,27/03/2024
html-keyboard-response,193,378947,0.0-80.0,,"<div style=""font-size:100px;"">+</div>",,delaylearn,learning,ITI,6m2DT9IWbWYdYDg6KJcDhmQ93As2,6m2DT9IWbWYdYDg6KJcDhmQ93As2,,,,,,,,,,,,,,,,,,,2299.0,,,614793a7be62637e6a2ccf3e,16:40:03,27/03/2024
html-keyboard-response,194,379431,0.0-81.0-0.0,479.0,"<div style=""display: flex; flex-direction: column; align-items: center; margin-top: -40px;""><img src=""images/pattern_6.png"" style=""width: 234px; height: 230px; margin-top: -50px;""><div style=""display: flex; justify-content: space-between; margin-top: 33px;""><img src=""images/choice_trial_11.png"" style=""width: 408px; height: 417px; margin-right: 200px;""><img src=""images/choice_trial_5.png"" style=""width: 408px; height: 417px;""></div></div>",f,delaylearn,learning,trial,6m2DT9IWbWYdYDg6KJcDhmQ93As2,6m2DT9IWbWYdYDg6KJcDhmQ93As2,2.0,images/choice_trial_11.png,images/choice_trial_5.png,images/pattern_6.png,j,f,750.0,11.0,5.0,5.0,0.0,35.0,1.0,0.0,11.0,160.0,,,,,,614793a7be62637e6a2ccf3e,16:40:03,27/03/2024
html-keyboard-response,195,380433,0.0-81.0-1.0,,"<div style=""display: flex; flex-direction: column; align-items: center; margin-top: -40px;""><img src=""images/pattern_6.png"" style=""width: 234px; height: 230px; margin-top: -50px;""><div style=""display: flex; justify-content: space-between; margin-top: 33px;""><img src=""images/choice_trial_11.png"" style=""width: 408px; height: 417px; margin-right: 608px;""></div></div>",,delaylearn,learning,display_response,6m2DT9IWbWYdYDg6KJcDhmQ93As2,6m2DT9IWbWYdYDg6KJcDhmQ93As2,,,,,,,,,,,,,,,,,chosen stimuli: images/choice_trial_11.png,,,,,614793a7be62637e6a2ccf3e,16:40:03,27/03/2024
html-keyboard-response,196,381185,0.0-81.0-2.0,,,,delaylearn,learning,feedback_duration_window,6m2DT9IWbWYdYDg6KJcDhmQ93As2,6m2DT9IWbWYdYDg6KJcDhmQ93As2,,,,,,,,,,,,,,,,,,750.0,,,,614793a7be62637e6a2ccf3e,16:40:03,27/03/2024
html-keyboard-response,197,382689,0.0-81.0-3.0,,<div style='margin:auto;width: auto; font-size: 150%'><span style='font-weight: bold; font-size: 100px; color: red;'>0 points!</span><br><br></div>,,delaylearn,learning,feedback_image_window,6m2DT9IWbWYdYDg6KJcDhmQ93As2,6m2DT9IWbWYdYDg6KJcDhmQ93As2,,,,,,,,,,,,,,,,,,,,,,614793a7be62637e6a2ccf3e,16:40:03,27/03/2024
html-keyboard-response,198,384976,0.0-82.0,,"<div style=""font-size:100px;"">+</div>",,delaylearn,learning,ITI,6m2DT9IWbWYdYDg6KJcDhmQ93As2,6m2DT9IWbWYdYDg6KJcDhmQ93As2,,,,,,,,,,,,,,,,,,,2284.0,,,614793a7be62637e6a2ccf3e,16:40:03,27/03/2024
html-keyboard-response,199,386344,0.0-83.0-0.0,1364.3999999761581,"<div style=""display: flex; flex-direction: column; align-items: center; margin-top: -40px;""><img src=""images/pattern_3.png"" style=""width: 234px; height: 230px; margin-top: -50px;""><div style=""display: flex; justify-content: space-between; margin-top: 33px;""><img src=""images/choice_trial_14.png"" style=""width: 408px; height: 417px; margin-right: 200px;""><img src=""images/choice_trial_12.png"" style=""width: 408px; height: 417px;""></div></div>",j,delaylearn,learning,trial,6m2DT9IWbWYdYDg6KJcDhmQ93As2,6m2DT9IWbWYdYDg6KJcDhmQ93As2,2.0,images/choice_trial_14.png,images/choice_trial_12.png,images/pattern_3.png,j,j,7000.0,14.0,12.0,2.0,1.0,36.0,1.0,1.0,12.0,170.0,,,,,,614793a7be62637e6a2ccf3e,16:40:03,27/03/2024
html-keyboard-response,200,387346,0.0-83.0-1.0,,"<div style=""display: flex; flex-direction: column; align-items: center; margin-top: -40px;""><img src=""images/pattern_3.png"" style=""width: 234px; height: 230px; margin-top: -50px;""><div style=""display: flex; justify-content: space-between; margin-top: 33px;""><img src=""images/choice_trial_12.png"" style=""width: 408px; height: 417px; margin-left:608px;""></div></div>",,delaylearn,learning,display_response,6m2DT9IWbWYdYDg6KJcDhmQ93As2,6m2DT9IWbWYdYDg6KJcDhmQ93As2,,,,,,,,,,,,,,,,,chosen stimuli: images/choice_trial_12.png,,,,,614793a7be62637e6a2ccf3e,16:40:03,27/03/2024
html-keyboard-response,201,394349,0.0-83.0-2.0,,,,delaylearn,learning,feedback_duration_window,6m2DT9IWbWYdYDg6KJcDhmQ93As2,6m2DT9IWbWYdYDg6KJcDhmQ93As2,,,,,,,,,,,,,,,,,,7000.0,,,,614793a7be62637e6a2ccf3e,16:40:03,27/03/2024
html-keyboard-response,202,395851,0.0-83.0-3.0,,<div style='margin:auto;width: auto; font-size: 150%'><span style='font-weight: bold; font-size: 100px; color: green;'>+10 points!</span><br><br></div>,,delaylearn,learning,feedback_image_window,6m2DT9IWbWYdYDg6KJcDhmQ93As2,6m2DT9IWbWYdYDg6KJcDhmQ93As2,,,,,,,,,,,,,,,,,,,,,,614793a7be62637e6a2ccf3e,16:40:03,27/03/2024
html-keyboard-response,203,397411,0.0-84.0,,"<div style=""font-size:100px;"">+</div>",,delaylearn,learning,ITI,6m2DT9IWbWYdYDg6KJcDhmQ93As2,6m2DT9IWbWYdYDg6KJcDhmQ93As2,,,,,,,,,,,,,,,,,,,1557.0,,,614793a7be62637e6a2ccf3e,16:40:03,27/03/2024
html-keyboard-response,204,397969,0.0-85.0-0.0,552.7000000178814,"<div style=""display: flex; flex-direction: column; align-items: center; margin-top: -40px;""><img src=""images/pattern_4.png"" style=""width: 234px; height: 230px; margin-top: -50px;""><div style=""display: flex; justify-content: space-between; margin-top: 33px;""><img src=""images/choice_trial_16.png"" style=""width: 408px; height: 417px; margin-right: 200px;""><img src=""images/choice_trial_4.png"" style=""width: 408px; height: 417px;""></div></div>",j,delaylearn,learning,trial,6m2DT9IWbWYdYDg6KJcDhmQ93As2,6m2DT9IWbWYdYDg6KJcDhmQ93As2,2.0,images/choice_trial_16.png,images/choice_trial_4.png,images/pattern_4.png,f,j,7000.0,16.0,4.0,3.0,1.0,37.0,1.0,0.0,4.0,170.0,,,,,,614793a7be62637e6a2ccf3e,16:40:03,27/03/2024
html-keyboard-response,205,398971,0.0-85.0-1.0,,"<div style=""display: flex; flex-direction: column; align-items: center; margin-top: -40px;""><img src=""images/pattern_4.png"" style=""width: 234px; height: 230px; margin-top: -50px;""><div style=""display: flex; justify-content: space-between; margin-top: 33px;""><img src=""images/choice_trial_4.png"" style=""width: 408px; height: 417px; margin-left:608px;""></div></div>",,delaylearn,learning,display_response,6m2DT9IWbWYdYDg6KJcDhmQ93As2,6m2DT9IWbWYdYDg6KJcDhmQ93As2,,,,,,,,,,,,,,,,,chosen stimuli: images/choice_trial_4.png,,,,,614793a7be62637e6a2ccf3e,16:40:03,27/03/2024
html-keyboard-response,206,405983,0.0-85.0-2.0,,,,delaylearn,learning,feedback_duration_window,6m2DT9IWbWYdYDg6KJcDhmQ93As2,6m2DT9IWbWYdYDg6KJcDhmQ93As2,,,,,,,,,,,,,,,,,,7000.0,,,,614793a7be62637e6a2ccf3e,16:40:03,27/03/2024
html-keyboard-response,207,407494,0.0-85.0-3.0,,<div style='margin:auto;width: auto; font-size: 150%'><span style='font-weight: bold; font-size: 100px; color: red;'>0 points!</span><br><br></div>,,delaylearn,learning,feedback_image_window,6m2DT9IWbWYdYDg6KJcDhmQ93As2,6m2DT9IWbWYdYDg6KJcDhmQ93As2,,,,,,,,,,,,,,,,,,,,,,614793a7be62637e6a2ccf3e,16:40:03,27/03/2024
html-keyboard-response,208,409251,0.0-86.0,,"<div style=""font-size:100px;"">+</div>",,delaylearn,learning,ITI,6m2DT9IWbWYdYDg6KJcDhmQ93As2,6m2DT9IWbWYdYDg6KJcDhmQ93As2,,,,,,,,,,,,,,,,,,,1753.0,,,614793a7be62637e6a2ccf3e,16:40:03,27/03/2024
html-keyboard-response,209,409782,0.0-87.0-0.0,526.3000000119209,"<div style=""display: flex; flex-direction: column; align-items: center; margin-top: -40px;""><img src=""images/pattern_7.png"" style=""width: 234px; height: 230px; margin-top: -50px;""><div style=""display: flex; justify-content: space-between; margin-top: 33px;""><img src=""images/choice_trial_8.png"" style=""width: 408px; height: 417px; margin-right: 200px;""><img src=""images/choice_trial_15.png"" style=""width: 408px; height: 417px;""></div></div>",f,delaylearn,learning,trial,6m2DT9IWbWYdYDg6KJcDhmQ93As2,6m2DT9IWbWYdYDg6KJcDhmQ93As2,2.0,images/choice_trial_8.png,images/choice_trial_15.png,images/pattern_7.png,f,f,750.0,8.0,15.0,6.0,0.0,38.0,1.0,1.0,8.0,180.0,,,,,,614793a7be62637e6a2ccf3e,16:40:03,27/03/2024
html-keyboard-response,210,410785,0.0-87.0-1.0,,"<div style=""display: flex; flex-direction: column; align-items: center; margin-top: -40px;""><img src=""images/pattern_7.png"" style=""width: 234px; height: 230px; margin-top: -50px;""><div style=""display: flex; justify-content: space-between; margin-top: 33px;""><img src=""images/choice_trial_8.png"" style=""width: 408px; height: 417px; margin-right: 608px;""></div></div>",,delaylearn,learning,display_response,6m2DT9IWbWYdYDg6KJcDhmQ93As2,6m2DT9IWbWYdYDg6KJcDhmQ93As2,,,,,,,,,,,,,,,,,chosen stimuli: images/choice_trial_8.png,,,,,614793a7be62637e6a2ccf3e,16:40:03,27/03/2024
html-keyboard-response,211,411538,0.0-87.0-2.0,,,,delaylearn,learning,feedback_duration_window,6m2DT9IWbWYdYDg6KJcDhmQ93As2,6m2DT9IWbWYdYDg6KJcDhmQ93As2,,,,,,,,,,,,,,,,,,750.0,,,,614793a7be62637e6a2ccf3e,16:40:03,27/03/2024
html-keyboard-response,212,413040,0.0-87.0-3.0,,<div style='margin:auto;width: auto; font-size: 150%'><span style='font-weight: bold; font-size: 100px; color: green;'>+10 points!</span><br><br></div>,,delaylearn,learning,feedback_image_window,6m2DT9IWbWYdYDg6KJcDhmQ93As2,6m2DT9IWbWYdYDg6KJcDhmQ93As2,,,,,,,,,,,,,,,,,,,,,,614793a7be62637e6a2ccf3e,16:40:03,27/03/2024
html-keyboard-response,213,415518,0.0-88.0,,"<div style=""font-size:100px;"">+</div>",,delaylearn,learning,ITI,6m2DT9IWbWYdYDg6KJcDhmQ93As2,6m2DT9IWbWYdYDg6KJcDhmQ93As2,,,,,,,,,,,,,,,,,,,2475.0,,,614793a7be62637e6a2ccf3e,16:40:03,27/03/2024
html-keyboard-response,214,416100,0.0-89.0-0.0,576.1999999880791,"<div style=""display: flex; flex-direction: column; align-items: center; margin-top: -40px;""><img src=""images/pattern_1.png"" style=""width: 234px; height: 230px; margin-top: -50px;""><div style=""display: flex; justify-content: space-between; margin-top: 33px;""><img src=""images/choice_trial_3.png"" style=""width: 408px; height: 417px; margin-right: 200px;""><img src=""images/choice_trial_10.png"" style=""width: 408px; height: 417px;""></div></div>",f,delaylearn,learning,trial,6m2DT9IWbWYdYDg6KJcDhmQ93As2,6m2DT9IWbWYdYDg6KJcDhmQ93As2,2.0,images/choice_trial_3.png,images/choice_trial_10.png,images/pattern_1.png,f,f,7000.0,3.0,10.0,1.0,0.0,39.0,1.0,1.0,3.0,190.0,,,,,,614793a7be62637e6a2ccf3e,16:40:03,27/03/2024
html-keyboard-response,215,417103,0.0-89.0-1.0,,"<div style=""display: flex; flex-direction: column; align-items: center; margin-top: -40px;""><img src=""images/pattern_1.png"" style=""width: 234px; height: 230px; margin-top: -50px;""><div style=""display: flex; justify-content: space-between; margin-top: 33px;""><img src=""images/choice_trial_3.png"" style=""width: 408px; height: 417px; margin-right: 608px;""></div></div>",,delaylearn,learning,display_response,6m2DT9IWbWYdYDg6KJcDhmQ93As2,6m2DT9IWbWYdYDg6KJcDhmQ93As2,,,,,,,,,,,,,,,,,chosen stimuli: images/choice_trial_3.png,,,,,614793a7be62637e6a2ccf3e,16:40:03,27/03/2024
html-keyboard-response,216,424105,0.0-89.0-2.0,,,,delaylearn,learning,feedback_duration_window,6m2DT9IWbWYdYDg6KJcDhmQ93As2,6m2DT9IWbWYdYDg6KJcDhmQ93As2,,,,,,,,,,,,,,,,,,7000.0,,,,614793a7be62637e6a2ccf3e,16:40:03,27/03/2024
html-keyboard-response,217,425610,0.0-89.0-3.0,,<div style='margin:auto;width: auto; font-size: 150%'><span style='font-weight: bold; font-size: 100px; color: green;'>+10 points!</span><br><br></div>,,delaylearn,learning,feedback_image_window,6m2DT9IWbWYdYDg6KJcDhmQ93As2,6m2DT9IWbWYdYDg6KJcDhmQ93As2,,,,,,,,,,,,,,,,,,,,,,614793a7be62637e6a2ccf3e,16:40:03,27/03/2024
html-keyboard-response,218,426114,0.0-90.0-0.0,,,,,,mood_trial_fixation,6m2DT9IWbWYdYDg6KJcDhmQ93As2,,,,,,,,,,,,,,,,,,,,,,,614793a7be62637e6a2ccf3e,16:40:03,27/03/2024
lmdlab-html-vas-response,219,431358,0.0-90.0-1.0,4238.0,How happy are you right now?,0.25,delaylearn,learning,mood_trial,6m2DT9IWbWYdYDg6KJcDhmQ93As2,6m2DT9IWbWYdYDg6KJcDhmQ93As2,,,,,,,,,,,,,,,,,,,,"['Very unhappy', 'Very happy']",,614793a7be62637e6a2ccf3e,16:40:03,27/03/2024
html-keyboard-response,220,433704,0.0-91.0,,"<div style=""font-size:100px;"">+</div>",,delaylearn,learning,ITI,6m2DT9IWbWYdYDg6KJcDhmQ93As2,6m2DT9IWbWYdYDg6KJcDhmQ93As2,,,,,,,,,,,,,,,,,,,2344.0,,,614793a7be62637e6a2ccf3e,16:40:03,27/03/2024
html-keyboard-response,221,434122,0.0-92.0-0.0,412.69999998807907,"<div style=""display: flex; flex-direction: column; align-items: center; margin-top: -40px;""><img src=""images/pattern_3.png"" style=""width: 234px; height: 230px; margin-top: -50px;""><div style=""display: flex; justify-content: space-between; margin-top: 33px;""><img src=""images/choice_trial_12.png"" style=""width: 408px; height: 417px; margin-right: 200px;""><img src=""images/choice_trial_14.png"" style=""width: 408px; height: 417px;""></div></div>",j,delaylearn,learning,trial,6m2DT9IWbWYdYDg6KJcDhmQ93As2,6m2DT9IWbWYdYDg6KJcDhmQ93As2,2.0,images/choice_trial_12.png,images/choice_trial_14.png,images/pattern_3.png,j,f,7000.0,12.0,14.0,2.0,0.0,40.0,0.0,1.0,14.0,200.0,,,,,,614793a7be62637e6a2ccf3e,16:40:03,27/03/2024
html-keyboard-response,222,435126,0.0-92.0-1.0,,"<div style=""display: flex; flex-direction: column; align-items: center; margin-top: -40px;""><img src=""images/pattern_3.png"" style=""width: 234px; height: 230px; margin-top: -50px;""><div style=""display: flex; justify-content: space-between; margin-top: 33px;""><img src=""images/choice_trial_14.png"" style=""width: 408px; height: 417px; margin-left:608px;""></div></div>",,delaylearn,learning,display_response,6m2DT9IWbWYdYDg6KJcDhmQ93As2,6m2DT9IWbWYdYDg6KJcDhmQ93As2,,,,,,,,,,,,,,,,,chosen stimuli: images/choice_trial_14.png,,,,,614793a7be62637e6a2ccf3e,16:40:03,27/03/2024
html-keyboard-response,223,442128,0.0-92.0-2.0,,,,delaylearn,learning,feedback_duration_window,6m2DT9IWbWYdYDg6KJcDhmQ93As2,6m2DT9IWbWYdYDg6KJcDhmQ93As2,,,,,,,,,,,,,,,,,,7000.0,,,,614793a7be62637e6a2ccf3e,16:40:03,27/03/2024
html-keyboard-response,224,443631,0.0-92.0-3.0,,<div style='margin:auto;width: auto; font-size: 150%'><span style='font-weight: bold; font-size: 100px; color: green;'>+10 points!</span><br><br></div>,,delaylearn,learning,feedback_image_window,6m2DT9IWbWYdYDg6KJcDhmQ93As2,6m2DT9IWbWYdYDg6KJcDhmQ93As2,,,,,,,,,,,,,,,,,,,,,,614793a7be62637e6a2ccf3e,16:40:03,27/03/2024
html-keyboard-response,225,445863,0.0-93.0,,"<div style=""font-size:100px;"">+</div>",,delaylearn,learning,ITI,6m2DT9IWbWYdYDg6KJcDhmQ93As2,6m2DT9IWbWYdYDg6KJcDhmQ93As2,,,,,,,,,,,,,,,,,,,2228.0,,,614793a7be62637e6a2ccf3e,16:40:03,27/03/2024
html-keyboard-response,226,446252,0.0-94.0-0.0,382.90000000596046,"<div style=""display: flex; flex-direction: column; align-items: center; margin-top: -40px;""><img src=""images/pattern_7.png"" style=""width: 234px; height: 230px; margin-top: -50px;""><div style=""display: flex; justify-content: space-between; margin-top: 33px;""><img src=""images/choice_trial_15.png"" style=""width: 408px; height: 417px; margin-right: 200px;""><img src=""images/choice_trial_8.png"" style=""width: 408px; height: 417px;""></div></div>",j,delaylearn,learning,trial,6m2DT9IWbWYdYDg6KJcDhmQ93As2,6m2DT9IWbWYdYDg6KJcDhmQ93As2,2.0,images/choice_trial_15.png,images/choice_trial_8.png,images/pattern_7.png,j,j,750.0,15.0,8.0,6.0,1.0,41.0,1.0,1.0,8.0,210.0,,,,,,614793a7be62637e6a2ccf3e,16:40:03,27/03/2024
html-keyboard-response,227,447255,0.0-94.0-1.0,,"<div style=""display: flex; flex-direction: column; align-items: center; margin-top: -40px;""><img src=""images/pattern_7.png"" style=""width: 234px; height: 230px; margin-top: -50px;""><div style=""display: flex; justify-content: space-between; margin-top: 33px;""><img src=""images/choice_trial_8.png"" style=""width: 408px; height: 417px; margin-left:608px;""></div></div>",,delaylearn,learning,display_response,6m2DT9IWbWYdYDg6KJcDhmQ93As2,6m2DT9IWbWYdYDg6KJcDhmQ93As2,,,,,,,,,,,,,,,,,chosen stimuli: images/choice_trial_8.png,,,,,614793a7be62637e6a2ccf3e,16:40:03,27/03/2024
html-keyboard-response,228,448009,0.0-94.0-2.0,,,,delaylearn,learning,feedback_duration_window,6m2DT9IWbWYdYDg6KJcDhmQ93As2,6m2DT9IWbWYdYDg6KJcDhmQ93As2,,,,,,,,,,,,,,,,,,750.0,,,,614793a7be62637e6a2ccf3e,16:40:03,27/03/2024
html-keyboard-response,229,449512,0.0-94.0-3.0,,<div style='margin:auto;width: auto; font-size: 150%'><span style='font-weight: bold; font-size: 100px; color: green;'>+10 points!</span><br><br></div>,,delaylearn,learning,feedback_image_window,6m2DT9IWbWYdYDg6KJcDhmQ93As2,6m2DT9IWbWYdYDg6KJcDhmQ93As2,,,,,,,,,,,,,,,,,,,,,,614793a7be62637e6a2ccf3e,16:40:03,27/03/2024
html-keyboard-response,230,451202,0.0-95.0,,"<div style=""font-size:100px;"">+</div>",,delaylearn,learning,ITI,6m2DT9IWbWYdYDg6KJcDhmQ93As2,6m2DT9IWbWYdYDg6KJcDhmQ93As2,,,,,,,,,,,,,,,,,,,1688.0,,,614793a7be62637e6a2ccf3e,16:40:03,27/03/2024
html-keyboard-response,231,451651,0.0-96.0-0.0,446.40000000596046,"<div style=""display: flex; flex-direction: column; align-items: center; margin-top: -40px;""><img src=""images/pattern_5.png"" style=""width: 234px; height: 230px; margin-top: -50px;""><div style=""display: flex; justify-content: space-between; margin-top: 33px;""><img src=""images/choice_trial_9.png"" style=""width: 408px; height: 417px; margin-right: 200px;""><img src=""images/choice_trial_2.png"" style=""width: 408px; height: 417px;""></div></div>",f,delaylearn,learning,trial,6m2DT9IWbWYdYDg6KJcDhmQ93As2,6m2DT9IWbWYdYDg6KJcDhmQ93As2,2.0,images/choice_trial_9.png,images/choice_trial_2.png,images/pattern_5.png,j,j,750.0,9.0,2.0,4.0,1.0,42.0,0.0,0.0,9.0,210.0,,,,,,614793a7be62637e6a2ccf3e,16:40:03,27/03/2024
