trial_type,trial_index,time_elapsed,internal_node_id,rt,stimulus,response,exp_name,exp_stage,test_part,subjectID,databaseID,counterbal,choice_stimuli_1,choice_stimuli_2,pattern_stimuli,rewarded_answer,correct_answer,feedback_duration_times,stim_left,stim_right,pair,leftright_counter,trial,response_correct,response_rewarded,chosen_stim,counter,displayed_choice,feedback_durations,ITI_duration,labels,rest_warning,prolificID,start_time,date
pavlovia,0,434,0.0-0.0,,,,,,,kfRQfVOkRod8S7vQmvlQZIDtdzh2,,,,,,,,,,,,,,,,,,,,,,,62a12aee913c1c1a20613418,09:05:58,27/02/2024
html-keyboard-response,1,3443,0.0-1.0,,"<div style=""font-size:100px;"">+</div>",,delaylearn,learning,pre_fixation,kfRQfVOkRod8S7vQmvlQZIDtdzh2,,,,,,,,,,,,,,,,,,,,,,,62a12aee913c1c1a20613418,09:05:58,27/02/2024
html-keyboard-response,2,4233,0.0-2.0-0.0,789.0,"<div style=""display: flex; flex-direction: column; align-items: center; margin-top: -40px;""><img src=""images/demo_images/pattern_1.png"" style=""width: 234px; height: 230px; margin-top: -50px;""><div style=""display: flex; justify-content: space-between; margin-top: 33px;""><img src=""images/demo_images/choice_trial_2.png"" style=""width: 408px; height: 417px; margin-right: 200px;""><img src=""images/demo_images/choice_trial_1.png"" style=""width: 408px; height: 417px;""></div></div>",f,delaylearn,learning,trial,kfRQfVOkRod8S7vQmvlQZIDtdzh2,kfRQfVOkRod8S7vQmvlQZIDtdzh2,2.0,images/demo_images/choice_trial_2.png,images/demo_images/choice_trial_1.png,images/demo_images/pattern_1.png,j,j,3000.0,2.0,1.0,20.0,1.0,1.0,0.0,0.0,2.0,0.0,,,,,,62a12aee913c1c1a20613418,09:05:58,27/02/2024
html-keyboard-response,3,5241,0.0-2.0-1.0,,"<div style=""display: flex; flex-direction: column; align-items: center; margin-top: -40px;""><img src=""images/demo_images/pattern_1.png"" style=""width: 234px; height: 230px; margin-top: -50px;""><div style=""display: flex; justify-content: space-between; margin-top: 33px;""><img src=""images/demo_images/choice_trial_2.png"" style=""width: 408px; height: 417px; margin-right: 608px;""></div></div>",,delaylearn,learning,display_response,kfRQfVOkRod8S7vQmvlQZIDtdzh2,kfRQfVOkRod8S7vQmvlQZIDtdzh2,,,,,,,,,,,,,,,,,chosen stimuli: images/demo_images/choice_trial_2.png,,,,,62a12aee913c1c1a20613418,09:05:58,27/02/2024
html-keyboard-response,4,8254,0.0-2.0-2.0,,,,delaylearn,learning,feedback_duration_window,kfRQfVOkRod8S7vQmvlQZIDtdzh2,kfRQfVOkRod8S7vQmvlQZIDtdzh2,,,,,,,,,,,,,,,,,,3000.0,,,,62a12aee913c1c1a20613418,09:05:58,27/02/2024
html-keyboard-response,5,9756,0.0-2.0-3.0,,<div style='margin:auto;width: auto; font-size: 150%'><span style='font-weight: bold; font-size: 100px; color: red;'>0 points!</span><br><br></div>,,delaylearn,learning,feedback_image_window,kfRQfVOkRod8S7vQmvlQZIDtdzh2,kfRQfVOkRod8S7vQmvlQZIDtdzh2,,,,,,,,,,,,,,,,,,,,,,62a12aee913c1c1a20613418,09:05:58,27/02/2024
html-keyboard-response,6,11384,0.0-3.0,,"<div style=""font-size:100px;"">+</div>",,delaylearn,learning,ITI,kfRQfVOkRod8S7vQmvlQZIDtdzh2,kfRQfVOkRod8S7vQmvlQZIDtdzh2,,,,,,,,,,,,,,,,,,,1615.0,,,62a12aee913c1c1a20613418,09:05:58,27/02/2024
html-keyboard-response,7,12028,0.0-4.0-0.0,642.0,"<div style=""display: flex; flex-direction: column; align-items: center; margin-top: -40px;""><img src=""images/demo_images/pattern_1.png"" style=""width: 234px; height: 230px; margin-top: -50px;""><div style=""display: flex; justify-content: space-between; margin-top: 33px;""><img src=""images/demo_images/choice_trial_2.png"" style=""width: 408px; height: 417px; margin-right: 200px;""><img src=""images/demo_images/choice_trial_1.png"" style=""width: 408px; height: 417px;""></div></div>",j,delaylearn,learning,trial,kfRQfVOkRod8S7vQmvlQZIDtdzh2,kfRQfVOkRod8S7vQmvlQZIDtdzh2,2.0,images/demo_images/choice_trial_2.png,images/demo_images/choice_trial_1.png,images/demo_images/pattern_1.png,j,j,3000.0,2.0,1.0,20.0,1.0,2.0,1.0,1.0,1.0,10.0,,,,,,62a12aee913c1c1a20613418,09:05:58,27/02/2024
html-keyboard-response,8,13035,0.0-4.0-1.0,,"<div style=""display: flex; flex-direction: column; align-items: center; margin-top: -40px;""><img src=""images/demo_images/pattern_1.png"" style=""width: 234px; height: 230px; margin-top: -50px;""><div style=""display: flex; justify-content: space-between; margin-top: 33px;""><img src=""images/demo_images/choice_trial_1.png"" style=""width: 408px; height: 417px; margin-left:608px;""></div></div>",,delaylearn,learning,display_response,kfRQfVOkRod8S7vQmvlQZIDtdzh2,kfRQfVOkRod8S7vQmvlQZIDtdzh2,,,,,,,,,,,,,,,,,chosen stimuli: images/demo_images/choice_trial_1.png,,,,,62a12aee913c1c1a20613418,09:05:58,27/02/2024
html-keyboard-response,9,16036,0.0-4.0-2.0,,,,delaylearn,learning,feedback_duration_window,kfRQfVOkRod8S7vQmvlQZIDtdzh2,kfRQfVOkRod8S7vQmvlQZIDtdzh2,,,,,,,,,,,,,,,,,,3000.0,,,,62a12aee913c1c1a20613418,09:05:58,27/02/2024
html-keyboard-response,10,17538,0.0-4.0-3.0,,<div style='margin:auto;width: auto; font-size: 150%'><span style='font-weight: bold; font-size: 100px; color: green;'>+10 points!</span><br><br></div>,,delaylearn,learning,feedback_image_window,kfRQfVOkRod8S7vQmvlQZIDtdzh2,kfRQfVOkRod8S7vQmvlQZIDtdzh2,,,,,,,,,,,,,,,,,,,,,,62a12aee913c1c1a20613418,09:05:58,27/02/2024
html-keyboard-response,11,19615,0.0-5.0,,"<div style=""font-size:100px;"">+</div>",,delaylearn,learning,ITI,kfRQfVOkRod8S7vQmvlQZIDtdzh2,kfRQfVOkRod8S7vQmvlQZIDtdzh2,,,,,,,,,,,,,,,,,,,2065.0,,,62a12aee913c1c1a20613418,09:05:58,27/02/2024
html-keyboard-response,12,20360,0.0-6.0-0.0,744.0,"<div style=""display: flex; flex-direction: column; align-items: center; margin-top: -40px;""><img src=""images/demo_images/pattern_1.png"" style=""width: 234px; height: 230px; margin-top: -50px;""><div style=""display: flex; justify-content: space-between; margin-top: 33px;""><img src=""images/demo_images/choice_trial_1.png"" style=""width: 408px; height: 417px; margin-right: 200px;""><img src=""images/demo_images/choice_trial_2.png"" style=""width: 408px; height: 417px;""></div></div>",f,delaylearn,learning,trial,kfRQfVOkRod8S7vQmvlQZIDtdzh2,kfRQfVOkRod8S7vQmvlQZIDtdzh2,2.0,images/demo_images/choice_trial_1.png,images/demo_images/choice_trial_2.png,images/demo_images/pattern_1.png,j,f,3000.0,1.0,2.0,20.0,0.0,3.0,1.0,0.0,1.0,10.0,,,,,,62a12aee913c1c1a20613418,09:05:58,27/02/2024
html-keyboard-response,13,21368,0.0-6.0-1.0,,"<div style=""display: flex; flex-direction: column; align-items: center; margin-top: -40px;""><img src=""images/demo_images/pattern_1.png"" style=""width: 234px; height: 230px; margin-top: -50px;""><div style=""display: flex; justify-content: space-between; margin-top: 33px;""><img src=""images/demo_images/choice_trial_1.png"" style=""width: 408px; height: 417px; margin-right: 608px;""></div></div>",,delaylearn,learning,display_response,kfRQfVOkRod8S7vQmvlQZIDtdzh2,kfRQfVOkRod8S7vQmvlQZIDtdzh2,,,,,,,,,,,,,,,,,chosen stimuli: images/demo_images/choice_trial_1.png,,,,,62a12aee913c1c1a20613418,09:05:58,27/02/2024
html-keyboard-response,14,24374,0.0-6.0-2.0,,,,delaylearn,learning,feedback_duration_window,kfRQfVOkRod8S7vQmvlQZIDtdzh2,kfRQfVOkRod8S7vQmvlQZIDtdzh2,,,,,,,,,,,,,,,,,,3000.0,,,,62a12aee913c1c1a20613418,09:05:58,27/02/2024
html-keyboard-response,15,25875,0.0-6.0-3.0,,<div style='margin:auto;width: auto; font-size: 150%'><span style='font-weight: bold; font-size: 100px; color: red;'>0 points!</span><br><br></div>,,delaylearn,learning,feedback_image_window,kfRQfVOkRod8S7vQmvlQZIDtdzh2,kfRQfVOkRod8S7vQmvlQZIDtdzh2,,,,,,,,,,,,,,,,,,,,,,62a12aee913c1c1a20613418,09:05:58,27/02/2024
html-keyboard-response,16,27820,0.0-7.0,,"<div style=""font-size:100px;"">+</div>",,delaylearn,learning,ITI,kfRQfVOkRod8S7vQmvlQZIDtdzh2,kfRQfVOkRod8S7vQmvlQZIDtdzh2,,,,,,,,,,,,,,,,,,,1940.0,,,62a12aee913c1c1a20613418,09:05:58,27/02/2024
html-keyboard-response,17,28700,0.0-8.0-0.0,879.0,"<div style=""display: flex; flex-direction: column; align-items: center; margin-top: -40px;""><img src=""images/demo_images/pattern_1.png"" style=""width: 234px; height: 230px; margin-top: -50px;""><div style=""display: flex; justify-content: space-between; margin-top: 33px;""><img src=""images/demo_images/choice_trial_1.png"" style=""width: 408px; height: 417px; margin-right: 200px;""><img src=""images/demo_images/choice_trial_2.png"" style=""width: 408px; height: 417px;""></div></div>",j,delaylearn,learning,trial,kfRQfVOkRod8S7vQmvlQZIDtdzh2,kfRQfVOkRod8S7vQmvlQZIDtdzh2,2.0,images/demo_images/choice_trial_1.png,images/demo_images/choice_trial_2.png,images/demo_images/pattern_1.png,f,f,3000.0,1.0,2.0,20.0,0.0,4.0,0.0,0.0,2.0,10.0,,,,,,62a12aee913c1c1a20613418,09:05:58,27/02/2024
html-keyboard-response,18,29717,0.0-8.0-1.0,,"<div style=""display: flex; flex-direction: column; align-items: center; margin-top: -40px;""><img src=""images/demo_images/pattern_1.png"" style=""width: 234px; height: 230px; margin-top: -50px;""><div style=""display: flex; justify-content: space-between; margin-top: 33px;""><img src=""images/demo_images/choice_trial_2.png"" style=""width: 408px; height: 417px; margin-left:608px;""></div></div>",,delaylearn,learning,display_response,kfRQfVOkRod8S7vQmvlQZIDtdzh2,kfRQfVOkRod8S7vQmvlQZIDtdzh2,,,,,,,,,,,,,,,,,chosen stimuli: images/demo_images/choice_trial_2.png,,,,,62a12aee913c1c1a20613418,09:05:58,27/02/2024
html-keyboard-response,19,32731,0.0-8.0-2.0,,,,delaylearn,learning,feedback_duration_window,kfRQfVOkRod8S7vQmvlQZIDtdzh2,kfRQfVOkRod8S7vQmvlQZIDtdzh2,,,,,,,,,,,,,,,,,,3000.0,,,,62a12aee913c1c1a20613418,09:05:58,27/02/2024
html-keyboard-response,20,34248,0.0-8.0-3.0,,<div style='margin:auto;width: auto; font-size: 150%'><span style='font-weight: bold; font-size: 100px; color: red;'>0 points!</span><br><br></div>,,delaylearn,learning,feedback_image_window,kfRQfVOkRod8S7vQmvlQZIDtdzh2,kfRQfVOkRod8S7vQmvlQZIDtdzh2,,,,,,,,,,,,,,,,,,,,,,62a12aee913c1c1a20613418,09:05:58,27/02/2024
html-keyboard-response,21,34761,0.0-9.0-0.0,,,,,,mood_trial_fixation,kfRQfVOkRod8S7vQmvlQZIDtdzh2,,,,,,,,,,,,,,,,,,,,,,,62a12aee913c1c1a20613418,09:05:58,27/02/2024
lmdlab-html-vas-response,22,39293,0.0-9.0-1.0,3508.0,How happy are you right now?,0.2981926689498491,delaylearn,learning,mood_trial,kfRQfVOkRod8S7vQmvlQZIDtdzh2,kfRQfVOkRod8S7vQmvlQZIDtdzh2,,,,,,,,,,,,,,,,,,,,"['Very unhappy', 'Very happy']",,62a12aee913c1c1a20613418,09:05:58,27/02/2024
html-keyboard-response,23,41504,0.0-10.0,,"<div style=""font-size:100px;"">+</div>",,delaylearn,learning,ITI,kfRQfVOkRod8S7vQmvlQZIDtdzh2,kfRQfVOkRod8S7vQmvlQZIDtdzh2,,,,,,,,,,,,,,,,,,,2197.0,,,62a12aee913c1c1a20613418,09:05:58,27/02/2024
html-keyboard-response,24,42023,0.0-11.0-0.0,518.0,"<div style=""display: flex; flex-direction: column; align-items: center; margin-top: -40px;""><img src=""images/demo_images/pattern_1.png"" style=""width: 234px; height: 230px; margin-top: -50px;""><div style=""display: flex; justify-content: space-between; margin-top: 33px;""><img src=""images/demo_images/choice_trial_2.png"" style=""width: 408px; height: 417px; margin-right: 200px;""><img src=""images/demo_images/choice_trial_1.png"" style=""width: 408px; height: 417px;""></div></div>",f,delaylearn,learning,trial,kfRQfVOkRod8S7vQmvlQZIDtdzh2,kfRQfVOkRod8S7vQmvlQZIDtdzh2,2.0,images/demo_images/choice_trial_2.png,images/demo_images/choice_trial_1.png,images/demo_images/pattern_1.png,j,j,3000.0,2.0,1.0,20.0,1.0,5.0,0.0,0.0,2.0,10.0,,,,,,62a12aee913c1c1a20613418,09:05:58,27/02/2024
html-keyboard-response,25,43039,0.0-11.0-1.0,,"<div style=""display: flex; flex-direction: column; align-items: center; margin-top: -40px;""><img src=""images/demo_images/pattern_1.png"" style=""width: 234px; height: 230px; margin-top: -50px;""><div style=""display: flex; justify-content: space-between; margin-top: 33px;""><img src=""images/demo_images/choice_trial_2.png"" style=""width: 408px; height: 417px; margin-right: 608px;""></div></div>",,delaylearn,learning,display_response,kfRQfVOkRod8S7vQmvlQZIDtdzh2,kfRQfVOkRod8S7vQmvlQZIDtdzh2,,,,,,,,,,,,,,,,,chosen stimuli: images/demo_images/choice_trial_2.png,,,,,62a12aee913c1c1a20613418,09:05:58,27/02/2024
html-keyboard-response,26,46050,0.0-11.0-2.0,,,,delaylearn,learning,feedback_duration_window,kfRQfVOkRod8S7vQmvlQZIDtdzh2,kfRQfVOkRod8S7vQmvlQZIDtdzh2,,,,,,,,,,,,,,,,,,3000.0,,,,62a12aee913c1c1a20613418,09:05:58,27/02/2024
html-keyboard-response,27,47560,0.0-11.0-3.0,,<div style='margin:auto;width: auto; font-size: 150%'><span style='font-weight: bold; font-size: 100px; color: red;'>0 points!</span><br><br></div>,,delaylearn,learning,feedback_image_window,kfRQfVOkRod8S7vQmvlQZIDtdzh2,kfRQfVOkRod8S7vQmvlQZIDtdzh2,,,,,,,,,,,,,,,,,,,,,,62a12aee913c1c1a20613418,09:05:58,27/02/2024
html-keyboard-response,28,49840,0.0-12.0,,"<div style=""font-size:100px;"">+</div>",,delaylearn,learning,ITI,kfRQfVOkRod8S7vQmvlQZIDtdzh2,kfRQfVOkRod8S7vQmvlQZIDtdzh2,,,,,,,,,,,,,,,,,,,2279.0,,,62a12aee913c1c1a20613418,09:05:58,27/02/2024
html-keyboard-response,29,50290,0.0-13.0-0.0,448.0,"<div style=""display: flex; flex-direction: column; align-items: center; margin-top: -40px;""><img src=""images/demo_images/pattern_1.png"" style=""width: 234px; height: 230px; margin-top: -50px;""><div style=""display: flex; justify-content: space-between; margin-top: 33px;""><img src=""images/demo_images/choice_trial_1.png"" style=""width: 408px; height: 417px; margin-right: 200px;""><img src=""images/demo_images/choice_trial_2.png"" style=""width: 408px; height: 417px;""></div></div>",f,delaylearn,learning,trial,kfRQfVOkRod8S7vQmvlQZIDtdzh2,kfRQfVOkRod8S7vQmvlQZIDtdzh2,2.0,images/demo_images/choice_trial_1.png,images/demo_images/choice_trial_2.png,images/demo_images/pattern_1.png,f,f,3000.0,1.0,2.0,20.0,0.0,6.0,1.0,1.0,1.0,20.0,,,,,,62a12aee913c1c1a20613418,09:05:58,27/02/2024
html-keyboard-response,30,51300,0.0-13.0-1.0,,"<div style=""display: flex; flex-direction: column; align-items: center; margin-top: -40px;""><img src=""images/demo_images/pattern_1.png"" style=""width: 234px; height: 230px; margin-top: -50px;""><div style=""display: flex; justify-content: space-between; margin-top: 33px;""><img src=""images/demo_images/choice_trial_1.png"" style=""width: 408px; height: 417px; margin-right: 608px;""></div></div>",,delaylearn,learning,display_response,kfRQfVOkRod8S7vQmvlQZIDtdzh2,kfRQfVOkRod8S7vQmvlQZIDtdzh2,,,,,,,,,,,,,,,,,chosen stimuli: images/demo_images/choice_trial_1.png,,,,,62a12aee913c1c1a20613418,09:05:58,27/02/2024
html-keyboard-response,31,54310,0.0-13.0-2.0,,,,delaylearn,learning,feedback_duration_window,kfRQfVOkRod8S7vQmvlQZIDtdzh2,kfRQfVOkRod8S7vQmvlQZIDtdzh2,,,,,,,,,,,,,,,,,,3000.0,,,,62a12aee913c1c1a20613418,09:05:58,27/02/2024
html-keyboard-response,32,55820,0.0-13.0-3.0,,<div style='margin:auto;width: auto; font-size: 150%'><span style='font-weight: bold; font-size: 100px; color: green;'>+10 points!</span><br><br></div>,,delaylearn,learning,feedback_image_window,kfRQfVOkRod8S7vQmvlQZIDtdzh2,kfRQfVOkRod8S7vQmvlQZIDtdzh2,,,,,,,,,,,,,,,,,,,,,,62a12aee913c1c1a20613418,09:05:58,27/02/2024
html-button-response,33,57801,0.0-14.0,1979.0,"
  <div style=""display: flex; align-items: center; justify-content: center; height: 80vh;"">
  <div>
          <img src=""images/inst_demo_finish.png"" style=""width: 80vw; height:auto;"">
          <br><br>
      </div>
      <br><br>
  </div>",0,,,,kfRQfVOkRod8S7vQmvlQZIDtdzh2,,,,,,,,,,,,,,,,,,,,,,,62a12aee913c1c1a20613418,09:05:58,27/02/2024
html-keyboard-response,34,60210,0.0-15.0,2409.0,"
  <div style=""display: flex; align-items: center; justify-content: center; height: 80vh;"">
  <div>
          <img src=""images/inst_6.png"" style=""width: 80vw; height:auto;"">
          <br><br>
      </div>
      <br><br>
  </div>",f,,,,kfRQfVOkRod8S7vQmvlQZIDtdzh2,,,,,,,,,,,,,,,,,,,,,,,62a12aee913c1c1a20613418,09:05:58,27/02/2024
html-keyboard-response,35,63219,0.0-16.0,,"<div style=""font-size:100px;"">+</div>",,delaylearn,learning,pre_fixation,kfRQfVOkRod8S7vQmvlQZIDtdzh2,,,,,,,,,,,,,,,,,,,,,,,62a12aee913c1c1a20613418,09:05:58,27/02/2024
html-keyboard-response,36,65265,0.0-17.0,,"<div style=""font-size:100px;"">+</div>",,delaylearn,learning,ITI,kfRQfVOkRod8S7vQmvlQZIDtdzh2,kfRQfVOkRod8S7vQmvlQZIDtdzh2,,,,,,,,,,,,,,,,,,,2041.0,,,62a12aee913c1c1a20613418,09:05:58,27/02/2024
html-keyboard-response,37,66072,0.0-18.0-0.0,805.0,"<div style=""display: flex; flex-direction: column; align-items: center; margin-top: -40px;""><img src=""images/pattern_3.png"" style=""width: 234px; height: 230px; margin-top: -50px;""><div style=""display: flex; justify-content: space-between; margin-top: 33px;""><img src=""images/choice_trial_12.png"" style=""width: 408px; height: 417px; margin-right: 200px;""><img src=""images/choice_trial_14.png"" style=""width: 408px; height: 417px;""></div></div>",j,delaylearn,learning,trial,kfRQfVOkRod8S7vQmvlQZIDtdzh2,kfRQfVOkRod8S7vQmvlQZIDtdzh2,2.0,images/choice_trial_12.png,images/choice_trial_14.png,images/pattern_3.png,f,f,7000.0,12.0,14.0,2.0,0.0,7.0,0.0,0.0,14.0,20.0,,,,,,62a12aee913c1c1a20613418,09:05:58,27/02/2024
html-keyboard-response,38,67076,0.0-18.0-1.0,,"<div style=""display: flex; flex-direction: column; align-items: center; margin-top: -40px;""><img src=""images/pattern_3.png"" style=""width: 234px; height: 230px; margin-top: -50px;""><div style=""display: flex; justify-content: space-between; margin-top: 33px;""><img src=""images/choice_trial_14.png"" style=""width: 408px; height: 417px; margin-left:608px;""></div></div>",,delaylearn,learning,display_response,kfRQfVOkRod8S7vQmvlQZIDtdzh2,kfRQfVOkRod8S7vQmvlQZIDtdzh2,,,,,,,,,,,,,,,,,chosen stimuli: images/choice_trial_14.png,,,,,62a12aee913c1c1a20613418,09:05:58,27/02/2024
html-keyboard-response,39,74078,0.0-18.0-2.0,,,,delaylearn,learning,feedback_duration_window,kfRQfVOkRod8S7vQmvlQZIDtdzh2,kfRQfVOkRod8S7vQmvlQZIDtdzh2,,,,,,,,,,,,,,,,,,7000.0,,,,62a12aee913c1c1a20613418,09:05:58,27/02/2024
html-keyboard-response,40,75590,0.0-18.0-3.0,,<div style='margin:auto;width: auto; font-size: 150%'><span style='font-weight: bold; font-size: 100px; color: red;'>0 points!</span><br><br></div>,,delaylearn,learning,feedback_image_window,kfRQfVOkRod8S7vQmvlQZIDtdzh2,kfRQfVOkRod8S7vQmvlQZIDtdzh2,,,,,,,,,,,,,,,,,,,,,,62a12aee913c1c1a20613418,09:05:58,27/02/2024
html-keyboard-response,41,77226,0.0-19.0,,"<div style=""font-size:100px;"">+</div>",,delaylearn,learning,ITI,kfRQfVOkRod8S7vQmvlQZIDtdzh2,kfRQfVOkRod8S7vQmvlQZIDtdzh2,,,,,,,,,,,,,,,,,,,1622.0,,,62a12aee913c1c1a20613418,09:05:58,27/02/2024
html-keyboard-response,42,78090,0.0-20.0-0.0,863.0,"<div style=""display: flex; flex-direction: column; align-items: center; margin-top: -40px;""><img src=""images/pattern_7.png"" style=""width: 234px; height: 230px; margin-top: -50px;""><div style=""display: flex; justify-content: space-between; margin-top: 33px;""><img src=""images/choice_trial_15.png"" style=""width: 408px; height: 417px; margin-right: 200px;""><img src=""images/choice_trial_8.png"" style=""width: 408px; height: 417px;""></div></div>",j,delaylearn,learning,trial,kfRQfVOkRod8S7vQmvlQZIDtdzh2,kfRQfVOkRod8S7vQmvlQZIDtdzh2,2.0,images/choice_trial_15.png,images/choice_trial_8.png,images/pattern_7.png,j,j,750.0,15.0,8.0,6.0,1.0,8.0,1.0,1.0,8.0,30.0,,,,,,62a12aee913c1c1a20613418,09:05:58,27/02/2024
html-keyboard-response,43,79102,0.0-20.0-1.0,,"<div style=""display: flex; flex-direction: column; align-items: center; margin-top: -40px;""><img src=""images/pattern_7.png"" style=""width: 234px; height: 230px; margin-top: -50px;""><div style=""display: flex; justify-content: space-between; margin-top: 33px;""><img src=""images/choice_trial_8.png"" style=""width: 408px; height: 417px; margin-left:608px;""></div></div>",,delaylearn,learning,display_response,kfRQfVOkRod8S7vQmvlQZIDtdzh2,kfRQfVOkRod8S7vQmvlQZIDtdzh2,,,,,,,,,,,,,,,,,chosen stimuli: images/choice_trial_8.png,,,,,62a12aee913c1c1a20613418,09:05:58,27/02/2024
html-keyboard-response,44,79863,0.0-20.0-2.0,,,,delaylearn,learning,feedback_duration_window,kfRQfVOkRod8S7vQmvlQZIDtdzh2,kfRQfVOkRod8S7vQmvlQZIDtdzh2,,,,,,,,,,,,,,,,,,750.0,,,,62a12aee913c1c1a20613418,09:05:58,27/02/2024
html-keyboard-response,45,81376,0.0-20.0-3.0,,<div style='margin:auto;width: auto; font-size: 150%'><span style='font-weight: bold; font-size: 100px; color: green;'>+10 points!</span><br><br></div>,,delaylearn,learning,feedback_image_window,kfRQfVOkRod8S7vQmvlQZIDtdzh2,kfRQfVOkRod8S7vQmvlQZIDtdzh2,,,,,,,,,,,,,,,,,,,,,,62a12aee913c1c1a20613418,09:05:58,27/02/2024
html-keyboard-response,46,83034,0.0-21.0,,"<div style=""font-size:100px;"">+</div>",,delaylearn,learning,ITI,kfRQfVOkRod8S7vQmvlQZIDtdzh2,kfRQfVOkRod8S7vQmvlQZIDtdzh2,,,,,,,,,,,,,,,,,,,1646.0,,,62a12aee913c1c1a20613418,09:05:58,27/02/2024
html-keyboard-response,47,84011,0.0-22.0-0.0,976.0,"<div style=""display: flex; flex-direction: column; align-items: center; margin-top: -40px;""><img src=""images/pattern_4.png"" style=""width: 234px; height: 230px; margin-top: -50px;""><div style=""display: flex; justify-content: space-between; margin-top: 33px;""><img src=""images/choice_trial_4.png"" style=""width: 408px; height: 417px; margin-right: 200px;""><img src=""images/choice_trial_16.png"" style=""width: 408px; height: 417px;""></div></div>",f,delaylearn,learning,trial,kfRQfVOkRod8S7vQmvlQZIDtdzh2,kfRQfVOkRod8S7vQmvlQZIDtdzh2,2.0,images/choice_trial_4.png,images/choice_trial_16.png,images/pattern_4.png,f,f,7000.0,4.0,16.0,3.0,0.0,9.0,1.0,1.0,4.0,40.0,,,,,,62a12aee913c1c1a20613418,09:05:58,27/02/2024
html-keyboard-response,48,85023,0.0-22.0-1.0,,"<div style=""display: flex; flex-direction: column; align-items: center; margin-top: -40px;""><img src=""images/pattern_4.png"" style=""width: 234px; height: 230px; margin-top: -50px;""><div style=""display: flex; justify-content: space-between; margin-top: 33px;""><img src=""images/choice_trial_4.png"" style=""width: 408px; height: 417px; margin-right: 608px;""></div></div>",,delaylearn,learning,display_response,kfRQfVOkRod8S7vQmvlQZIDtdzh2,kfRQfVOkRod8S7vQmvlQZIDtdzh2,,,,,,,,,,,,,,,,,chosen stimuli: images/choice_trial_4.png,,,,,62a12aee913c1c1a20613418,09:05:58,27/02/2024
html-keyboard-response,49,92028,0.0-22.0-2.0,,,,delaylearn,learning,feedback_duration_window,kfRQfVOkRod8S7vQmvlQZIDtdzh2,kfRQfVOkRod8S7vQmvlQZIDtdzh2,,,,,,,,,,,,,,,,,,7000.0,,,,62a12aee913c1c1a20613418,09:05:58,27/02/2024
html-keyboard-response,50,93544,0.0-22.0-3.0,,<div style='margin:auto;width: auto; font-size: 150%'><span style='font-weight: bold; font-size: 100px; color: green;'>+10 points!</span><br><br></div>,,delaylearn,learning,feedback_image_window,kfRQfVOkRod8S7vQmvlQZIDtdzh2,kfRQfVOkRod8S7vQmvlQZIDtdzh2,,,,,,,,,,,,,,,,,,,,,,62a12aee913c1c1a20613418,09:05:58,27/02/2024
html-keyboard-response,51,95446,0.0-23.0,,"<div style=""font-size:100px;"">+</div>",,delaylearn,learning,ITI,kfRQfVOkRod8S7vQmvlQZIDtdzh2,kfRQfVOkRod8S7vQmvlQZIDtdzh2,,,,,,,,,,,,,,,,,,,1888.0,,,62a12aee913c1c1a20613418,09:05:58,27/02/2024
html-keyboard-response,52,96248,0.0-24.0-0.0,800.0,"<div style=""display: flex; flex-direction: column; align-items: center; margin-top: -40px;""><img src=""images/pattern_5.png"" style=""width: 234px; height: 230px; margin-top: -50px;""><div style=""display: flex; justify-content: space-between; margin-top: 33px;""><img src=""images/choice_trial_9.png"" style=""width: 408px; height: 417px; margin-right: 200px;""><img src=""images/choice_trial_2.png"" style=""width: 408px; height: 417px;""></div></div>",j,delaylearn,learning,trial,kfRQfVOkRod8S7vQmvlQZIDtdzh2,kfRQfVOkRod8S7vQmvlQZIDtdzh2,2.0,images/choice_trial_9.png,images/choice_trial_2.png,images/pattern_5.png,j,j,750.0,9.0,2.0,4.0,1.0,10.0,1.0,1.0,2.0,50.0,,,,,,62a12aee913c1c1a20613418,09:05:58,27/02/2024
html-keyboard-response,53,97250,0.0-24.0-1.0,,"<div style=""display: flex; flex-direction: column; align-items: center; margin-top: -40px;""><img src=""images/pattern_5.png"" style=""width: 234px; height: 230px; margin-top: -50px;""><div style=""display: flex; justify-content: space-between; margin-top: 33px;""><img src=""images/choice_trial_2.png"" style=""width: 408px; height: 417px; margin-left:608px;""></div></div>",,delaylearn,learning,display_response,kfRQfVOkRod8S7vQmvlQZIDtdzh2,kfRQfVOkRod8S7vQmvlQZIDtdzh2,,,,,,,,,,,,,,,,,chosen stimuli: images/choice_trial_2.png,,,,,62a12aee913c1c1a20613418,09:05:58,27/02/2024
html-keyboard-response,54,98001,0.0-24.0-2.0,,,,delaylearn,learning,feedback_duration_window,kfRQfVOkRod8S7vQmvlQZIDtdzh2,kfRQfVOkRod8S7vQmvlQZIDtdzh2,,,,,,,,,,,,,,,,,,750.0,,,,62a12aee913c1c1a20613418,09:05:58,27/02/2024
html-keyboard-response,55,99503,0.0-24.0-3.0,,<div style='margin:auto;width: auto; font-size: 150%'><span style='font-weight: bold; font-size: 100px; color: green;'>+10 points!</span><br><br></div>,,delaylearn,learning,feedback_image_window,kfRQfVOkRod8S7vQmvlQZIDtdzh2,kfRQfVOkRod8S7vQmvlQZIDtdzh2,,,,,,,,,,,,,,,,,,,,,,62a12aee913c1c1a20613418,09:05:58,27/02/2024
html-keyboard-response,56,101820,0.0-25.0,,"<div style=""font-size:100px;"">+</div>",,delaylearn,learning,ITI,kfRQfVOkRod8S7vQmvlQZIDtdzh2,kfRQfVOkRod8S7vQmvlQZIDtdzh2,,,,,,,,,,,,,,,,,,,2311.0,,,62a12aee913c1c1a20613418,09:05:58,27/02/2024
html-keyboard-response,57,102915,0.0-26.0-0.0,1092.0,"<div style=""display: flex; flex-direction: column; align-items: center; margin-top: -40px;""><img src=""images/pattern_6.png"" style=""width: 234px; height: 230px; margin-top: -50px;""><div style=""display: flex; justify-content: space-between; margin-top: 33px;""><img src=""images/choice_trial_11.png"" style=""width: 408px; height: 417px; margin-right: 200px;""><img src=""images/choice_trial_5.png"" style=""width: 408px; height: 417px;""></div></div>",j,delaylearn,learning,trial,kfRQfVOkRod8S7vQmvlQZIDtdzh2,kfRQfVOkRod8S7vQmvlQZIDtdzh2,2.0,images/choice_trial_11.png,images/choice_trial_5.png,images/pattern_6.png,j,f,750.0,11.0,5.0,5.0,0.0,11.0,0.0,1.0,5.0,60.0,,,,,,62a12aee913c1c1a20613418,09:05:58,27/02/2024
html-keyboard-response,58,103931,0.0-26.0-1.0,,"<div style=""display: flex; flex-direction: column; align-items: center; margin-top: -40px;""><img src=""images/pattern_6.png"" style=""width: 234px; height: 230px; margin-top: -50px;""><div style=""display: flex; justify-content: space-between; margin-top: 33px;""><img src=""images/choice_trial_5.png"" style=""width: 408px; height: 417px; margin-left:608px;""></div></div>",,delaylearn,learning,display_response,kfRQfVOkRod8S7vQmvlQZIDtdzh2,kfRQfVOkRod8S7vQmvlQZIDtdzh2,,,,,,,,,,,,,,,,,chosen stimuli: images/choice_trial_5.png,,,,,62a12aee913c1c1a20613418,09:05:58,27/02/2024
html-keyboard-response,59,104683,0.0-26.0-2.0,,,,delaylearn,learning,feedback_duration_window,kfRQfVOkRod8S7vQmvlQZIDtdzh2,kfRQfVOkRod8S7vQmvlQZIDtdzh2,,,,,,,,,,,,,,,,,,750.0,,,,62a12aee913c1c1a20613418,09:05:58,27/02/2024
html-keyboard-response,60,106199,0.0-26.0-3.0,,<div style='margin:auto;width: auto; font-size: 150%'><span style='font-weight: bold; font-size: 100px; color: green;'>+10 points!</span><br><br></div>,,delaylearn,learning,feedback_image_window,kfRQfVOkRod8S7vQmvlQZIDtdzh2,kfRQfVOkRod8S7vQmvlQZIDtdzh2,,,,,,,,,,,,,,,,,,,,,,62a12aee913c1c1a20613418,09:05:58,27/02/2024
html-keyboard-response,61,106710,0.0-27.0-0.0,,,,,,mood_trial_fixation,kfRQfVOkRod8S7vQmvlQZIDtdzh2,,,,,,,,,,,,,,,,,,,,,,,62a12aee913c1c1a20613418,09:05:58,27/02/2024
lmdlab-html-vas-response,62,111160,0.0-27.0-1.0,3432.0,How happy are you right now?,0.5889932521786307,delaylearn,learning,mood_trial,kfRQfVOkRod8S7vQmvlQZIDtdzh2,kfRQfVOkRod8S7vQmvlQZIDtdzh2,,,,,,,,,,,,,,,,,,,,"['Very unhappy', 'Very happy']",,62a12aee913c1c1a20613418,09:05:58,27/02/2024
html-keyboard-response,63,112798,0.0-28.0,,"<div style=""font-size:100px;"">+</div>",,delaylearn,learning,ITI,kfRQfVOkRod8S7vQmvlQZIDtdzh2,kfRQfVOkRod8S7vQmvlQZIDtdzh2,,,,,,,,,,,,,,,,,,,1634.0,,,62a12aee913c1c1a20613418,09:05:58,27/02/2024
html-keyboard-response,64,113469,0.0-29.0-0.0,669.0,"<div style=""display: flex; flex-direction: column; align-items: center; margin-top: -40px;""><img src=""images/pattern_1.png"" style=""width: 234px; height: 230px; margin-top: -50px;""><div style=""display: flex; justify-content: space-between; margin-top: 33px;""><img src=""images/choice_trial_10.png"" style=""width: 408px; height: 417px; margin-right: 200px;""><img src=""images/choice_trial_3.png"" style=""width: 408px; height: 417px;""></div></div>",j,delaylearn,learning,trial,kfRQfVOkRod8S7vQmvlQZIDtdzh2,kfRQfVOkRod8S7vQmvlQZIDtdzh2,2.0,images/choice_trial_10.png,images/choice_trial_3.png,images/pattern_1.png,j,j,7000.0,10.0,3.0,1.0,1.0,12.0,1.0,1.0,3.0,70.0,,,,,,62a12aee913c1c1a20613418,09:05:58,27/02/2024
html-keyboard-response,65,114479,0.0-29.0-1.0,,"<div style=""display: flex; flex-direction: column; align-items: center; margin-top: -40px;""><img src=""images/pattern_1.png"" style=""width: 234px; height: 230px; margin-top: -50px;""><div style=""display: flex; justify-content: space-between; margin-top: 33px;""><img src=""images/choice_trial_3.png"" style=""width: 408px; height: 417px; margin-left:608px;""></div></div>",,delaylearn,learning,display_response,kfRQfVOkRod8S7vQmvlQZIDtdzh2,kfRQfVOkRod8S7vQmvlQZIDtdzh2,,,,,,,,,,,,,,,,,chosen stimuli: images/choice_trial_3.png,,,,,62a12aee913c1c1a20613418,09:05:58,27/02/2024
html-keyboard-response,66,121484,0.0-29.0-2.0,,,,delaylearn,learning,feedback_duration_window,kfRQfVOkRod8S7vQmvlQZIDtdzh2,kfRQfVOkRod8S7vQmvlQZIDtdzh2,,,,,,,,,,,,,,,,,,7000.0,,,,62a12aee913c1c1a20613418,09:05:58,27/02/2024
html-keyboard-response,67,122986,0.0-29.0-3.0,,<div style='margin:auto;width: auto; font-size: 150%'><span style='font-weight: bold; font-size: 100px; color: green;'>+10 points!</span><br><br></div>,,delaylearn,learning,feedback_image_window,kfRQfVOkRod8S7vQmvlQZIDtdzh2,kfRQfVOkRod8S7vQmvlQZIDtdzh2,,,,,,,,,,,,,,,,,,,,,,62a12aee913c1c1a20613418,09:05:58,27/02/2024
html-keyboard-response,68,125099,0.0-30.0,,"<div style=""font-size:100px;"">+</div>",,delaylearn,learning,ITI,kfRQfVOkRod8S7vQmvlQZIDtdzh2,kfRQfVOkRod8S7vQmvlQZIDtdzh2,,,,,,,,,,,,,,,,,,,2096.0,,,62a12aee913c1c1a20613418,09:05:58,27/02/2024
html-keyboard-response,69,125959,0.0-31.0-0.0,859.0,"<div style=""display: flex; flex-direction: column; align-items: center; margin-top: -40px;""><img src=""images/pattern_3.png"" style=""width: 234px; height: 230px; margin-top: -50px;""><div style=""display: flex; justify-content: space-between; margin-top: 33px;""><img src=""images/choice_trial_14.png"" style=""width: 408px; height: 417px; margin-right: 200px;""><img src=""images/choice_trial_12.png"" style=""width: 408px; height: 417px;""></div></div>",j,delaylearn,learning,trial,kfRQfVOkRod8S7vQmvlQZIDtdzh2,kfRQfVOkRod8S7vQmvlQZIDtdzh2,2.0,images/choice_trial_14.png,images/choice_trial_12.png,images/pattern_3.png,f,j,7000.0,14.0,12.0,2.0,1.0,13.0,1.0,0.0,12.0,70.0,,,,,,62a12aee913c1c1a20613418,09:05:58,27/02/2024
html-keyboard-response,70,126970,0.0-31.0-1.0,,"<div style=""display: flex; flex-direction: column; align-items: center; margin-top: -40px;""><img src=""images/pattern_3.png"" style=""width: 234px; height: 230px; margin-top: -50px;""><div style=""display: flex; justify-content: space-between; margin-top: 33px;""><img src=""images/choice_trial_12.png"" style=""width: 408px; height: 417px; margin-left:608px;""></div></div>",,delaylearn,learning,display_response,kfRQfVOkRod8S7vQmvlQZIDtdzh2,kfRQfVOkRod8S7vQmvlQZIDtdzh2,,,,,,,,,,,,,,,,,chosen stimuli: images/choice_trial_12.png,,,,,62a12aee913c1c1a20613418,09:05:58,27/02/2024
html-keyboard-response,71,133975,0.0-31.0-2.0,,,,delaylearn,learning,feedback_duration_window,kfRQfVOkRod8S7vQmvlQZIDtdzh2,kfRQfVOkRod8S7vQmvlQZIDtdzh2,,,,,,,,,,,,,,,,,,7000.0,,,,62a12aee913c1c1a20613418,09:05:58,27/02/2024
html-keyboard-response,72,135481,0.0-31.0-3.0,,<div style='margin:auto;width: auto; font-size: 150%'><span style='font-weight: bold; font-size: 100px; color: red;'>0 points!</span><br><br></div>,,delaylearn,learning,feedback_image_window,kfRQfVOkRod8S7vQmvlQZIDtdzh2,kfRQfVOkRod8S7vQmvlQZIDtdzh2,,,,,,,,,,,,,,,,,,,,,,62a12aee913c1c1a20613418,09:05:58,27/02/2024
html-keyboard-response,73,137617,0.0-32.0,,"<div style=""font-size:100px;"">+</div>",,delaylearn,learning,ITI,kfRQfVOkRod8S7vQmvlQZIDtdzh2,kfRQfVOkRod8S7vQmvlQZIDtdzh2,,,,,,,,,,,,,,,,,,,2121.0,,,62a12aee913c1c1a20613418,09:05:58,27/02/2024
html-keyboard-response,74,138711,0.0-33.0-0.0,1093.0,"<div style=""display: flex; flex-direction: column; align-items: center; margin-top: -40px;""><img src=""images/pattern_5.png"" style=""width: 234px; height: 230px; margin-top: -50px;""><div style=""display: flex; justify-content: space-between; margin-top: 33px;""><img src=""images/choice_trial_2.png"" style=""width: 408px; height: 417px; margin-right: 200px;""><img src=""images/choice_trial_9.png"" style=""width: 408px; height: 417px;""></div></div>",f,delaylearn,learning,trial,kfRQfVOkRod8S7vQmvlQZIDtdzh2,kfRQfVOkRod8S7vQmvlQZIDtdzh2,2.0,images/choice_trial_2.png,images/choice_trial_9.png,images/pattern_5.png,f,f,750.0,2.0,9.0,4.0,0.0,14.0,1.0,1.0,2.0,80.0,,,,,,62a12aee913c1c1a20613418,09:05:58,27/02/2024
html-keyboard-response,75,139726,0.0-33.0-1.0,,"<div style=""display: flex; flex-direction: column; align-items: center; margin-top: -40px;""><img src=""images/pattern_5.png"" style=""width: 234px; height: 230px; margin-top: -50px;""><div style=""display: flex; justify-content: space-between; margin-top: 33px;""><img src=""images/choice_trial_2.png"" style=""width: 408px; height: 417px; margin-right: 608px;""></div></div>",,delaylearn,learning,display_response,kfRQfVOkRod8S7vQmvlQZIDtdzh2,kfRQfVOkRod8S7vQmvlQZIDtdzh2,,,,,,,,,,,,,,,,,chosen stimuli: images/choice_trial_2.png,,,,,62a12aee913c1c1a20613418,09:05:58,27/02/2024
html-keyboard-response,76,140489,0.0-33.0-2.0,,,,delaylearn,learning,feedback_duration_window,kfRQfVOkRod8S7vQmvlQZIDtdzh2,kfRQfVOkRod8S7vQmvlQZIDtdzh2,,,,,,,,,,,,,,,,,,750.0,,,,62a12aee913c1c1a20613418,09:05:58,27/02/2024
html-keyboard-response,77,141994,0.0-33.0-3.0,,<div style='margin:auto;width: auto; font-size: 150%'><span style='font-weight: bold; font-size: 100px; color: green;'>+10 points!</span><br><br></div>,,delaylearn,learning,feedback_image_window,kfRQfVOkRod8S7vQmvlQZIDtdzh2,kfRQfVOkRod8S7vQmvlQZIDtdzh2,,,,,,,,,,,,,,,,,,,,,,62a12aee913c1c1a20613418,09:05:58,27/02/2024
html-keyboard-response,78,142505,0.0-34.0-0.0,,,,,,mood_trial_fixation,kfRQfVOkRod8S7vQmvlQZIDtdzh2,,,,,,,,,,,,,,,,,,,,,,,62a12aee913c1c1a20613418,09:05:58,27/02/2024
lmdlab-html-vas-response,79,146518,0.0-34.0-1.0,3001.0,How happy are you right now?,0.6410769387270693,delaylearn,learning,mood_trial,kfRQfVOkRod8S7vQmvlQZIDtdzh2,kfRQfVOkRod8S7vQmvlQZIDtdzh2,,,,,,,,,,,,,,,,,,,,"['Very unhappy', 'Very happy']",,62a12aee913c1c1a20613418,09:05:58,27/02/2024
html-keyboard-response,80,148710,0.0-35.0,,"<div style=""font-size:100px;"">+</div>",,delaylearn,learning,ITI,kfRQfVOkRod8S7vQmvlQZIDtdzh2,kfRQfVOkRod8S7vQmvlQZIDtdzh2,,,,,,,,,,,,,,,,,,,2189.0,,,62a12aee913c1c1a20613418,09:05:58,27/02/2024
html-keyboard-response,81,149363,0.0-36.0-0.0,651.0,"<div style=""display: flex; flex-direction: column; align-items: center; margin-top: -40px;""><img src=""images/pattern_6.png"" style=""width: 234px; height: 230px; margin-top: -50px;""><div style=""display: flex; justify-content: space-between; margin-top: 33px;""><img src=""images/choice_trial_11.png"" style=""width: 408px; height: 417px; margin-right: 200px;""><img src=""images/choice_trial_5.png"" style=""width: 408px; height: 417px;""></div></div>",j,delaylearn,learning,trial,kfRQfVOkRod8S7vQmvlQZIDtdzh2,kfRQfVOkRod8S7vQmvlQZIDtdzh2,2.0,images/choice_trial_11.png,images/choice_trial_5.png,images/pattern_6.png,f,f,750.0,11.0,5.0,5.0,0.0,15.0,0.0,0.0,5.0,80.0,,,,,,62a12aee913c1c1a20613418,09:05:58,27/02/2024
html-keyboard-response,82,150374,0.0-36.0-1.0,,"<div style=""display: flex; flex-direction: column; align-items: center; margin-top: -40px;""><img src=""images/pattern_6.png"" style=""width: 234px; height: 230px; margin-top: -50px;""><div style=""display: flex; justify-content: space-between; margin-top: 33px;""><img src=""images/choice_trial_5.png"" style=""width: 408px; height: 417px; margin-left:608px;""></div></div>",,delaylearn,learning,display_response,kfRQfVOkRod8S7vQmvlQZIDtdzh2,kfRQfVOkRod8S7vQmvlQZIDtdzh2,,,,,,,,,,,,,,,,,chosen stimuli: images/choice_trial_5.png,,,,,62a12aee913c1c1a20613418,09:05:58,27/02/2024
html-keyboard-response,83,151135,0.0-36.0-2.0,,,,delaylearn,learning,feedback_duration_window,kfRQfVOkRod8S7vQmvlQZIDtdzh2,kfRQfVOkRod8S7vQmvlQZIDtdzh2,,,,,,,,,,,,,,,,,,750.0,,,,62a12aee913c1c1a20613418,09:05:58,27/02/2024
html-keyboard-response,84,152646,0.0-36.0-3.0,,<div style='margin:auto;width: auto; font-size: 150%'><span style='font-weight: bold; font-size: 100px; color: red;'>0 points!</span><br><br></div>,,delaylearn,learning,feedback_image_window,kfRQfVOkRod8S7vQmvlQZIDtdzh2,kfRQfVOkRod8S7vQmvlQZIDtdzh2,,,,,,,,,,,,,,,,,,,,,,62a12aee913c1c1a20613418,09:05:58,27/02/2024
html-keyboard-response,85,154482,0.0-37.0,,"<div style=""font-size:100px;"">+</div>",,delaylearn,learning,ITI,kfRQfVOkRod8S7vQmvlQZIDtdzh2,kfRQfVOkRod8S7vQmvlQZIDtdzh2,,,,,,,,,,,,,,,,,,,1834.0,,,62a12aee913c1c1a20613418,09:05:58,27/02/2024
html-keyboard-response,86,155340,0.0-38.0-0.0,856.0,"<div style=""display: flex; flex-direction: column; align-items: center; margin-top: -40px;""><img src=""images/pattern_4.png"" style=""width: 234px; height: 230px; margin-top: -50px;""><div style=""display: flex; justify-content: space-between; margin-top: 33px;""><img src=""images/choice_trial_16.png"" style=""width: 408px; height: 417px; margin-right: 200px;""><img src=""images/choice_trial_4.png"" style=""width: 408px; height: 417px;""></div></div>",j,delaylearn,learning,trial,kfRQfVOkRod8S7vQmvlQZIDtdzh2,kfRQfVOkRod8S7vQmvlQZIDtdzh2,2.0,images/choice_trial_16.png,images/choice_trial_4.png,images/pattern_4.png,j,j,7000.0,16.0,4.0,3.0,1.0,16.0,1.0,1.0,4.0,90.0,,,,,,62a12aee913c1c1a20613418,09:05:58,27/02/2024
html-keyboard-response,87,156343,0.0-38.0-1.0,,"<div style=""display: flex; flex-direction: column; align-items: center; margin-top: -40px;""><img src=""images/pattern_4.png"" style=""width: 234px; height: 230px; margin-top: -50px;""><div style=""display: flex; justify-content: space-between; margin-top: 33px;""><img src=""images/choice_trial_4.png"" style=""width: 408px; height: 417px; margin-left:608px;""></div></div>",,delaylearn,learning,display_response,kfRQfVOkRod8S7vQmvlQZIDtdzh2,kfRQfVOkRod8S7vQmvlQZIDtdzh2,,,,,,,,,,,,,,,,,chosen stimuli: images/choice_trial_4.png,,,,,62a12aee913c1c1a20613418,09:05:58,27/02/2024
html-keyboard-response,88,163352,0.0-38.0-2.0,,,,delaylearn,learning,feedback_duration_window,kfRQfVOkRod8S7vQmvlQZIDtdzh2,kfRQfVOkRod8S7vQmvlQZIDtdzh2,,,,,,,,,,,,,,,,,,7000.0,,,,62a12aee913c1c1a20613418,09:05:58,27/02/2024
html-keyboard-response,89,164854,0.0-38.0-3.0,,<div style='margin:auto;width: auto; font-size: 150%'><span style='font-weight: bold; font-size: 100px; color: green;'>+10 points!</span><br><br></div>,,delaylearn,learning,feedback_image_window,kfRQfVOkRod8S7vQmvlQZIDtdzh2,kfRQfVOkRod8S7vQmvlQZIDtdzh2,,,,,,,,,,,,,,,,,,,,,,62a12aee913c1c1a20613418,09:05:58,27/02/2024
html-keyboard-response,90,166473,0.0-39.0,,"<div style=""font-size:100px;"">+</div>",,delaylearn,learning,ITI,kfRQfVOkRod8S7vQmvlQZIDtdzh2,kfRQfVOkRod8S7vQmvlQZIDtdzh2,,,,,,,,,,,,,,,,,,,1612.0,,,62a12aee913c1c1a20613418,09:05:58,27/02/2024
html-keyboard-response,91,167504,0.0-40.0-0.0,1030.0,"<div style=""display: flex; flex-direction: column; align-items: center; margin-top: -40px;""><img src=""images/pattern_7.png"" style=""width: 234px; height: 230px; margin-top: -50px;""><div style=""display: flex; justify-content: space-between; margin-top: 33px;""><img src=""images/choice_trial_8.png"" style=""width: 408px; height: 417px; margin-right: 200px;""><img src=""images/choice_trial_15.png"" style=""width: 408px; height: 417px;""></div></div>",f,delaylearn,learning,trial,kfRQfVOkRod8S7vQmvlQZIDtdzh2,kfRQfVOkRod8S7vQmvlQZIDtdzh2,2.0,images/choice_trial_8.png,images/choice_trial_15.png,images/pattern_7.png,j,f,750.0,8.0,15.0,6.0,0.0,17.0,1.0,0.0,8.0,90.0,,,,,,62a12aee913c1c1a20613418,09:05:58,27/02/2024
html-keyboard-response,92,168506,0.0-40.0-1.0,,"<div style=""display: flex; flex-direction: column; align-items: center; margin-top: -40px;""><img src=""images/pattern_7.png"" style=""width: 234px; height: 230px; margin-top: -50px;""><div style=""display: flex; justify-content: space-between; margin-top: 33px;""><img src=""images/choice_trial_8.png"" style=""width: 408px; height: 417px; margin-right: 608px;""></div></div>",,delaylearn,learning,display_response,kfRQfVOkRod8S7vQmvlQZIDtdzh2,kfRQfVOkRod8S7vQmvlQZIDtdzh2,,,,,,,,,,,,,,,,,chosen stimuli: images/choice_trial_8.png,,,,,62a12aee913c1c1a20613418,09:05:58,27/02/2024
html-keyboard-response,93,169257,0.0-40.0-2.0,,,,delaylearn,learning,feedback_duration_window,kfRQfVOkRod8S7vQmvlQZIDtdzh2,kfRQfVOkRod8S7vQmvlQZIDtdzh2,,,,,,,,,,,,,,,,,,750.0,,,,62a12aee913c1c1a20613418,09:05:58,27/02/2024
html-keyboard-response,94,170762,0.0-40.0-3.0,,<div style='margin:auto;width: auto; font-size: 150%'><span style='font-weight: bold; font-size: 100px; color: red;'>0 points!</span><br><br></div>,,delaylearn,learning,feedback_image_window,kfRQfVOkRod8S7vQmvlQZIDtdzh2,kfRQfVOkRod8S7vQmvlQZIDtdzh2,,,,,,,,,,,,,,,,,,,,,,62a12aee913c1c1a20613418,09:05:58,27/02/2024
html-keyboard-response,95,172879,0.0-41.0,,"<div style=""font-size:100px;"">+</div>",,delaylearn,learning,ITI,kfRQfVOkRod8S7vQmvlQZIDtdzh2,kfRQfVOkRod8S7vQmvlQZIDtdzh2,,,,,,,,,,,,,,,,,,,2102.0,,,62a12aee913c1c1a20613418,09:05:58,27/02/2024
html-keyboard-response,96,173474,0.0-42.0-0.0,592.0,"<div style=""display: flex; flex-direction: column; align-items: center; margin-top: -40px;""><img src=""images/pattern_1.png"" style=""width: 234px; height: 230px; margin-top: -50px;""><div style=""display: flex; justify-content: space-between; margin-top: 33px;""><img src=""images/choice_trial_3.png"" style=""width: 408px; height: 417px; margin-right: 200px;""><img src=""images/choice_trial_10.png"" style=""width: 408px; height: 417px;""></div></div>",j,delaylearn,learning,trial,kfRQfVOkRod8S7vQmvlQZIDtdzh2,kfRQfVOkRod8S7vQmvlQZIDtdzh2,2.0,images/choice_trial_3.png,images/choice_trial_10.png,images/pattern_1.png,f,f,7000.0,3.0,10.0,1.0,0.0,18.0,0.0,0.0,10.0,90.0,,,,,,62a12aee913c1c1a20613418,09:05:58,27/02/2024
html-keyboard-response,97,174487,0.0-42.0-1.0,,"<div style=""display: flex; flex-direction: column; align-items: center; margin-top: -40px;""><img src=""images/pattern_1.png"" style=""width: 234px; height: 230px; margin-top: -50px;""><div style=""display: flex; justify-content: space-between; margin-top: 33px;""><img src=""images/choice_trial_10.png"" style=""width: 408px; height: 417px; margin-left:608px;""></div></div>",,delaylearn,learning,display_response,kfRQfVOkRod8S7vQmvlQZIDtdzh2,kfRQfVOkRod8S7vQmvlQZIDtdzh2,,,,,,,,,,,,,,,,,chosen stimuli: images/choice_trial_10.png,,,,,62a12aee913c1c1a20613418,09:05:58,27/02/2024
html-keyboard-response,98,181492,0.0-42.0-2.0,,,,delaylearn,learning,feedback_duration_window,kfRQfVOkRod8S7vQmvlQZIDtdzh2,kfRQfVOkRod8S7vQmvlQZIDtdzh2,,,,,,,,,,,,,,,,,,7000.0,,,,62a12aee913c1c1a20613418,09:05:58,27/02/2024
html-keyboard-response,99,183008,0.0-42.0-3.0,,<div style='margin:auto;width: auto; font-size: 150%'><span style='font-weight: bold; font-size: 100px; color: red;'>0 points!</span><br><br></div>,,delaylearn,learning,feedback_image_window,kfRQfVOkRod8S7vQmvlQZIDtdzh2,kfRQfVOkRod8S7vQmvlQZIDtdzh2,,,,,,,,,,,,,,,,,,,,,,62a12aee913c1c1a20613418,09:05:58,27/02/2024
html-keyboard-response,100,185237,0.0-43.0,,"<div style=""font-size:100px;"">+</div>",,delaylearn,learning,ITI,kfRQfVOkRod8S7vQmvlQZIDtdzh2,kfRQfVOkRod8S7vQmvlQZIDtdzh2,,,,,,,,,,,,,,,,,,,2215.0,,,62a12aee913c1c1a20613418,09:05:58,27/02/2024
html-keyboard-response,101,186059,0.0-44.0-0.0,821.0,"<div style=""display: flex; flex-direction: column; align-items: center; margin-top: -40px;""><img src=""images/pattern_6.png"" style=""width: 234px; height: 230px; margin-top: -50px;""><div style=""display: flex; justify-content: space-between; margin-top: 33px;""><img src=""images/choice_trial_5.png"" style=""width: 408px; height: 417px; margin-right: 200px;""><img src=""images/choice_trial_11.png"" style=""width: 408px; height: 417px;""></div></div>",j,delaylearn,learning,trial,kfRQfVOkRod8S7vQmvlQZIDtdzh2,kfRQfVOkRod8S7vQmvlQZIDtdzh2,2.0,images/choice_trial_5.png,images/choice_trial_11.png,images/pattern_6.png,j,j,750.0,5.0,11.0,5.0,1.0,19.0,1.0,1.0,11.0,100.0,,,,,,62a12aee913c1c1a20613418,09:05:58,27/02/2024
html-keyboard-response,102,187071,0.0-44.0-1.0,,"<div style=""display: flex; flex-direction: column; align-items: center; margin-top: -40px;""><img src=""images/pattern_6.png"" style=""width: 234px; height: 230px; margin-top: -50px;""><div style=""display: flex; justify-content: space-between; margin-top: 33px;""><img src=""images/choice_trial_11.png"" style=""width: 408px; height: 417px; margin-left:608px;""></div></div>",,delaylearn,learning,display_response,kfRQfVOkRod8S7vQmvlQZIDtdzh2,kfRQfVOkRod8S7vQmvlQZIDtdzh2,,,,,,,,,,,,,,,,,chosen stimuli: images/choice_trial_11.png,,,,,62a12aee913c1c1a20613418,09:05:58,27/02/2024
html-keyboard-response,103,187822,0.0-44.0-2.0,,,,delaylearn,learning,feedback_duration_window,kfRQfVOkRod8S7vQmvlQZIDtdzh2,kfRQfVOkRod8S7vQmvlQZIDtdzh2,,,,,,,,,,,,,,,,,,750.0,,,,62a12aee913c1c1a20613418,09:05:58,27/02/2024
html-keyboard-response,104,189336,0.0-44.0-3.0,,<div style='margin:auto;width: auto; font-size: 150%'><span style='font-weight: bold; font-size: 100px; color: green;'>+10 points!</span><br><br></div>,,delaylearn,learning,feedback_image_window,kfRQfVOkRod8S7vQmvlQZIDtdzh2,kfRQfVOkRod8S7vQmvlQZIDtdzh2,,,,,,,,,,,,,,,,,,,,,,62a12aee913c1c1a20613418,09:05:58,27/02/2024
html-keyboard-response,105,191379,0.0-45.0,,"<div style=""font-size:100px;"">+</div>",,delaylearn,learning,ITI,kfRQfVOkRod8S7vQmvlQZIDtdzh2,kfRQfVOkRod8S7vQmvlQZIDtdzh2,,,,,,,,,,,,,,,,,,,2032.0,,,62a12aee913c1c1a20613418,09:05:58,27/02/2024
html-keyboard-response,106,191976,0.0-46.0-0.0,596.0,"<div style=""display: flex; flex-direction: column; align-items: center; margin-top: -40px;""><img src=""images/pattern_4.png"" style=""width: 234px; height: 230px; margin-top: -50px;""><div style=""display: flex; justify-content: space-between; margin-top: 33px;""><img src=""images/choice_trial_4.png"" style=""width: 408px; height: 417px; margin-right: 200px;""><img src=""images/choice_trial_16.png"" style=""width: 408px; height: 417px;""></div></div>",f,delaylearn,learning,trial,kfRQfVOkRod8S7vQmvlQZIDtdzh2,kfRQfVOkRod8S7vQmvlQZIDtdzh2,2.0,images/choice_trial_4.png,images/choice_trial_16.png,images/pattern_4.png,f,f,7000.0,4.0,16.0,3.0,0.0,20.0,1.0,1.0,4.0,110.0,,,,,,62a12aee913c1c1a20613418,09:05:58,27/02/2024
html-keyboard-response,107,192990,0.0-46.0-1.0,,"<div style=""display: flex; flex-direction: column; align-items: center; margin-top: -40px;""><img src=""images/pattern_4.png"" style=""width: 234px; height: 230px; margin-top: -50px;""><div style=""display: flex; justify-content: space-between; margin-top: 33px;""><img src=""images/choice_trial_4.png"" style=""width: 408px; height: 417px; margin-right: 608px;""></div></div>",,delaylearn,learning,display_response,kfRQfVOkRod8S7vQmvlQZIDtdzh2,kfRQfVOkRod8S7vQmvlQZIDtdzh2,,,,,,,,,,,,,,,,,chosen stimuli: images/choice_trial_4.png,,,,,62a12aee913c1c1a20613418,09:05:58,27/02/2024
html-keyboard-response,108,200006,0.0-46.0-2.0,,,,delaylearn,learning,feedback_duration_window,kfRQfVOkRod8S7vQmvlQZIDtdzh2,kfRQfVOkRod8S7vQmvlQZIDtdzh2,,,,,,,,,,,,,,,,,,7000.0,,,,62a12aee913c1c1a20613418,09:05:58,27/02/2024
html-keyboard-response,109,201520,0.0-46.0-3.0,,<div style='margin:auto;width: auto; font-size: 150%'><span style='font-weight: bold; font-size: 100px; color: green;'>+10 points!</span><br><br></div>,,delaylearn,learning,feedback_image_window,kfRQfVOkRod8S7vQmvlQZIDtdzh2,kfRQfVOkRod8S7vQmvlQZIDtdzh2,,,,,,,,,,,,,,,,,,,,,,62a12aee913c1c1a20613418,09:05:58,27/02/2024
html-keyboard-response,110,202024,0.0-47.0-0.0,,,,,,mood_trial_fixation,kfRQfVOkRod8S7vQmvlQZIDtdzh2,,,,,,,,,,,,,,,,,,,,,,,62a12aee913c1c1a20613418,09:05:58,27/02/2024
lmdlab-html-vas-response,111,206299,0.0-47.0-1.0,3272.0,How happy are you right now?,0.5000169543250483,delaylearn,learning,mood_trial,kfRQfVOkRod8S7vQmvlQZIDtdzh2,kfRQfVOkRod8S7vQmvlQZIDtdzh2,,,,,,,,,,,,,,,,,,,,"['Very unhappy', 'Very happy']",,62a12aee913c1c1a20613418,09:05:58,27/02/2024
html-keyboard-response,112,208358,0.0-48.0,,"<div style=""font-size:100px;"">+</div>",,delaylearn,learning,ITI,kfRQfVOkRod8S7vQmvlQZIDtdzh2,kfRQfVOkRod8S7vQmvlQZIDtdzh2,,,,,,,,,,,,,,,,,,,2047.0,,,62a12aee913c1c1a20613418,09:05:58,27/02/2024
html-keyboard-response,113,209226,0.0-49.0-0.0,867.0,"<div style=""display: flex; flex-direction: column; align-items: center; margin-top: -40px;""><img src=""images/pattern_7.png"" style=""width: 234px; height: 230px; margin-top: -50px;""><div style=""display: flex; justify-content: space-between; margin-top: 33px;""><img src=""images/choice_trial_15.png"" style=""width: 408px; height: 417px; margin-right: 200px;""><img src=""images/choice_trial_8.png"" style=""width: 408px; height: 417px;""></div></div>",j,delaylearn,learning,trial,kfRQfVOkRod8S7vQmvlQZIDtdzh2,kfRQfVOkRod8S7vQmvlQZIDtdzh2,2.0,images/choice_trial_15.png,images/choice_trial_8.png,images/pattern_7.png,j,j,750.0,15.0,8.0,6.0,1.0,21.0,1.0,1.0,8.0,120.0,,,,,,62a12aee913c1c1a20613418,09:05:58,27/02/2024
html-keyboard-response,114,210243,0.0-49.0-1.0,,"<div style=""display: flex; flex-direction: column; align-items: center; margin-top: -40px;""><img src=""images/pattern_7.png"" style=""width: 234px; height: 230px; margin-top: -50px;""><div style=""display: flex; justify-content: space-between; margin-top: 33px;""><img src=""images/choice_trial_8.png"" style=""width: 408px; height: 417px; margin-left:608px;""></div></div>",,delaylearn,learning,display_response,kfRQfVOkRod8S7vQmvlQZIDtdzh2,kfRQfVOkRod8S7vQmvlQZIDtdzh2,,,,,,,,,,,,,,,,,chosen stimuli: images/choice_trial_8.png,,,,,62a12aee913c1c1a20613418,09:05:58,27/02/2024
html-keyboard-response,115,210997,0.0-49.0-2.0,,,,delaylearn,learning,feedback_duration_window,kfRQfVOkRod8S7vQmvlQZIDtdzh2,kfRQfVOkRod8S7vQmvlQZIDtdzh2,,,,,,,,,,,,,,,,,,750.0,,,,62a12aee913c1c1a20613418,09:05:58,27/02/2024
html-keyboard-response,116,212502,0.0-49.0-3.0,,<div style='margin:auto;width: auto; font-size: 150%'><span style='font-weight: bold; font-size: 100px; color: green;'>+10 points!</span><br><br></div>,,delaylearn,learning,feedback_image_window,kfRQfVOkRod8S7vQmvlQZIDtdzh2,kfRQfVOkRod8S7vQmvlQZIDtdzh2,,,,,,,,,,,,,,,,,,,,,,62a12aee913c1c1a20613418,09:05:58,27/02/2024
html-keyboard-response,117,214742,0.0-50.0,,"<div style=""font-size:100px;"">+</div>",,delaylearn,learning,ITI,kfRQfVOkRod8S7vQmvlQZIDtdzh2,kfRQfVOkRod8S7vQmvlQZIDtdzh2,,,,,,,,,,,,,,,,,,,2236.0,,,62a12aee913c1c1a20613418,09:05:58,27/02/2024
html-keyboard-response,118,215643,0.0-51.0-0.0,898.0,"<div style=""display: flex; flex-direction: column; align-items: center; margin-top: -40px;""><img src=""images/pattern_1.png"" style=""width: 234px; height: 230px; margin-top: -50px;""><div style=""display: flex; justify-content: space-between; margin-top: 33px;""><img src=""images/choice_trial_10.png"" style=""width: 408px; height: 417px; margin-right: 200px;""><img src=""images/choice_trial_3.png"" style=""width: 408px; height: 417px;""></div></div>",j,delaylearn,learning,trial,kfRQfVOkRod8S7vQmvlQZIDtdzh2,kfRQfVOkRod8S7vQmvlQZIDtdzh2,2.0,images/choice_trial_10.png,images/choice_trial_3.png,images/pattern_1.png,f,j,7000.0,10.0,3.0,1.0,1.0,22.0,1.0,0.0,3.0,120.0,,,,,,62a12aee913c1c1a20613418,09:05:58,27/02/2024
html-keyboard-response,119,216648,0.0-51.0-1.0,,"<div style=""display: flex; flex-direction: column; align-items: center; margin-top: -40px;""><img src=""images/pattern_1.png"" style=""width: 234px; height: 230px; margin-top: -50px;""><div style=""display: flex; justify-content: space-between; margin-top: 33px;""><img src=""images/choice_trial_3.png"" style=""width: 408px; height: 417px; margin-left:608px;""></div></div>",,delaylearn,learning,display_response,kfRQfVOkRod8S7vQmvlQZIDtdzh2,kfRQfVOkRod8S7vQmvlQZIDtdzh2,,,,,,,,,,,,,,,,,chosen stimuli: images/choice_trial_3.png,,,,,62a12aee913c1c1a20613418,09:05:58,27/02/2024
html-keyboard-response,120,223650,0.0-51.0-2.0,,,,delaylearn,learning,feedback_duration_window,kfRQfVOkRod8S7vQmvlQZIDtdzh2,kfRQfVOkRod8S7vQmvlQZIDtdzh2,,,,,,,,,,,,,,,,,,7000.0,,,,62a12aee913c1c1a20613418,09:05:58,27/02/2024
html-keyboard-response,121,225158,0.0-51.0-3.0,,<div style='margin:auto;width: auto; font-size: 150%'><span style='font-weight: bold; font-size: 100px; color: red;'>0 points!</span><br><br></div>,,delaylearn,learning,feedback_image_window,kfRQfVOkRod8S7vQmvlQZIDtdzh2,kfRQfVOkRod8S7vQmvlQZIDtdzh2,,,,,,,,,,,,,,,,,,,,,,62a12aee913c1c1a20613418,09:05:58,27/02/2024
html-keyboard-response,122,227290,0.0-52.0,,"<div style=""font-size:100px;"">+</div>",,delaylearn,learning,ITI,kfRQfVOkRod8S7vQmvlQZIDtdzh2,kfRQfVOkRod8S7vQmvlQZIDtdzh2,,,,,,,,,,,,,,,,,,,2125.0,,,62a12aee913c1c1a20613418,09:05:58,27/02/2024
html-keyboard-response,123,228218,0.0-53.0-0.0,926.0,"<div style=""display: flex; flex-direction: column; align-items: center; margin-top: -40px;""><img src=""images/pattern_5.png"" style=""width: 234px; height: 230px; margin-top: -50px;""><div style=""display: flex; justify-content: space-between; margin-top: 33px;""><img src=""images/choice_trial_9.png"" style=""width: 408px; height: 417px; margin-right: 200px;""><img src=""images/choice_trial_2.png"" style=""width: 408px; height: 417px;""></div></div>",f,delaylearn,learning,trial,kfRQfVOkRod8S7vQmvlQZIDtdzh2,kfRQfVOkRod8S7vQmvlQZIDtdzh2,2.0,images/choice_trial_9.png,images/choice_trial_2.png,images/pattern_5.png,j,j,750.0,9.0,2.0,4.0,1.0,23.0,0.0,0.0,9.0,120.0,,,,,,62a12aee913c1c1a20613418,09:05:58,27/02/2024
html-keyboard-response,124,229227,0.0-53.0-1.0,,"<div style=""display: flex; flex-direction: column; align-items: center; margin-top: -40px;""><img src=""images/pattern_5.png"" style=""width: 234px; height: 230px; margin-top: -50px;""><div style=""display: flex; justify-content: space-between; margin-top: 33px;""><img src=""images/choice_trial_9.png"" style=""width: 408px; height: 417px; margin-right: 608px;""></div></div>",,delaylearn,learning,display_response,kfRQfVOkRod8S7vQmvlQZIDtdzh2,kfRQfVOkRod8S7vQmvlQZIDtdzh2,,,,,,,,,,,,,,,,,chosen stimuli: images/choice_trial_9.png,,,,,62a12aee913c1c1a20613418,09:05:58,27/02/2024
html-keyboard-response,125,229978,0.0-53.0-2.0,,,,delaylearn,learning,feedback_duration_window,kfRQfVOkRod8S7vQmvlQZIDtdzh2,kfRQfVOkRod8S7vQmvlQZIDtdzh2,,,,,,,,,,,,,,,,,,750.0,,,,62a12aee913c1c1a20613418,09:05:58,27/02/2024
html-keyboard-response,126,231490,0.0-53.0-3.0,,<div style='margin:auto;width: auto; font-size: 150%'><span style='font-weight: bold; font-size: 100px; color: red;'>0 points!</span><br><br></div>,,delaylearn,learning,feedback_image_window,kfRQfVOkRod8S7vQmvlQZIDtdzh2,kfRQfVOkRod8S7vQmvlQZIDtdzh2,,,,,,,,,,,,,,,,,,,,,,62a12aee913c1c1a20613418,09:05:58,27/02/2024
html-keyboard-response,127,233208,0.0-54.0,,"<div style=""font-size:100px;"">+</div>",,delaylearn,learning,ITI,kfRQfVOkRod8S7vQmvlQZIDtdzh2,kfRQfVOkRod8S7vQmvlQZIDtdzh2,,,,,,,,,,,,,,,,,,,1701.0,,,62a12aee913c1c1a20613418,09:05:58,27/02/2024
html-keyboard-response,128,234334,0.0-55.0-0.0,1124.0,"<div style=""display: flex; flex-direction: column; align-items: center; margin-top: -40px;""><img src=""images/pattern_3.png"" style=""width: 234px; height: 230px; margin-top: -50px;""><div style=""display: flex; justify-content: space-between; margin-top: 33px;""><img src=""images/choice_trial_14.png"" style=""width: 408px; height: 417px; margin-right: 200px;""><img src=""images/choice_trial_12.png"" style=""width: 408px; height: 417px;""></div></div>",j,delaylearn,learning,trial,kfRQfVOkRod8S7vQmvlQZIDtdzh2,kfRQfVOkRod8S7vQmvlQZIDtdzh2,2.0,images/choice_trial_14.png,images/choice_trial_12.png,images/pattern_3.png,j,j,7000.0,14.0,12.0,2.0,1.0,24.0,1.0,1.0,12.0,130.0,,,,,,62a12aee913c1c1a20613418,09:05:58,27/02/2024
html-keyboard-response,129,235341,0.0-55.0-1.0,,"<div style=""display: flex; flex-direction: column; align-items: center; margin-top: -40px;""><img src=""images/pattern_3.png"" style=""width: 234px; height: 230px; margin-top: -50px;""><div style=""display: flex; justify-content: space-between; margin-top: 33px;""><img src=""images/choice_trial_12.png"" style=""width: 408px; height: 417px; margin-left:608px;""></div></div>",,delaylearn,learning,display_response,kfRQfVOkRod8S7vQmvlQZIDtdzh2,kfRQfVOkRod8S7vQmvlQZIDtdzh2,,,,,,,,,,,,,,,,,chosen stimuli: images/choice_trial_12.png,,,,,62a12aee913c1c1a20613418,09:05:58,27/02/2024
html-keyboard-response,130,242343,0.0-55.0-2.0,,,,delaylearn,learning,feedback_duration_window,kfRQfVOkRod8S7vQmvlQZIDtdzh2,kfRQfVOkRod8S7vQmvlQZIDtdzh2,,,,,,,,,,,,,,,,,,7000.0,,,,62a12aee913c1c1a20613418,09:05:58,27/02/2024
html-keyboard-response,131,243856,0.0-55.0-3.0,,<div style='margin:auto;width: auto; font-size: 150%'><span style='font-weight: bold; font-size: 100px; color: green;'>+10 points!</span><br><br></div>,,delaylearn,learning,feedback_image_window,kfRQfVOkRod8S7vQmvlQZIDtdzh2,kfRQfVOkRod8S7vQmvlQZIDtdzh2,,,,,,,,,,,,,,,,,,,,,,62a12aee913c1c1a20613418,09:05:58,27/02/2024
lmdlab-html-vas-response,132,260974,0.0-56.0-0.0,15595.0,*How <b><u>confident</u></b> are you feeling about your answers at this moment?*,0.3502763554982876,rewlearn,rate_confidence,,kfRQfVOkRod8S7vQmvlQZIDtdzh2,kfRQfVOkRod8S7vQmvlQZIDtdzh2,,,,,,,,,,,,,,,,,,,,"['No confidence', 'Complete confidence']",,62a12aee913c1c1a20613418,09:05:58,27/02/2024
lmdlab-rest-trial-limit,133,308149,0.0-56.0-1.0,45670.0,"<div style=""font-size:40px;""><b>Please take a break!</b><br><br><br><br><p>Great work: you earned undefined points.<br><br><br><p>You have completed part(s) 1 of 6.<br><br><br><br>When you are ready to continue<br><br><br>please click the button.</p><br><br>",0,delaylearn,learning,break,kfRQfVOkRod8S7vQmvlQZIDtdzh2,kfRQfVOkRod8S7vQmvlQZIDtdzh2,,,,,,,,,,,,,,,,,,,,,0.0,62a12aee913c1c1a20613418,09:05:58,27/02/2024
html-keyboard-response,134,311166,0.0-56.0-2.0,,"<div style=""font-size:100px;"">+</div>",,delaylearn,learning,pre_fixation,kfRQfVOkRod8S7vQmvlQZIDtdzh2,,,,,,,,,,,,,,,,,,,,,,,62a12aee913c1c1a20613418,09:05:58,27/02/2024
lmdlab-html-vas-response,135,315448,0.0-56.0-3.0-0.0,3268.0,How happy are you right now?,0.49567664711267845,delaylearn,learning,mood_baseline,kfRQfVOkRod8S7vQmvlQZIDtdzh2,kfRQfVOkRod8S7vQmvlQZIDtdzh2,,,,,,,,,,,,,,,,,,,,"['Very unhappy', 'Very happy']",,62a12aee913c1c1a20613418,09:05:58,27/02/2024
html-keyboard-response,136,316950,0.0-56.0-3.0-1.0,,,,,,mood_baseline_fixation,kfRQfVOkRod8S7vQmvlQZIDtdzh2,,,,,,,,,,,,,,,,,,,,,,,62a12aee913c1c1a20613418,09:05:58,27/02/2024
html-keyboard-response,137,319308,0.0-57.0,,"<div style=""font-size:100px;"">+</div>",,delaylearn,learning,ITI,kfRQfVOkRod8S7vQmvlQZIDtdzh2,kfRQfVOkRod8S7vQmvlQZIDtdzh2,,,,,,,,,,,,,,,,,,,2354.0,,,62a12aee913c1c1a20613418,09:05:58,27/02/2024
html-keyboard-response,138,320259,0.0-58.0-0.0,950.0,"<div style=""display: flex; flex-direction: column; align-items: center; margin-top: -40px;""><img src=""images/pattern_7.png"" style=""width: 234px; height: 230px; margin-top: -50px;""><div style=""display: flex; justify-content: space-between; margin-top: 33px;""><img src=""images/choice_trial_15.png"" style=""width: 408px; height: 417px; margin-right: 200px;""><img src=""images/choice_trial_8.png"" style=""width: 408px; height: 417px;""></div></div>",j,delaylearn,learning,trial,kfRQfVOkRod8S7vQmvlQZIDtdzh2,kfRQfVOkRod8S7vQmvlQZIDtdzh2,2.0,images/choice_trial_15.png,images/choice_trial_8.png,images/pattern_7.png,j,j,750.0,15.0,8.0,6.0,1.0,25.0,1.0,1.0,8.0,140.0,,,,,,62a12aee913c1c1a20613418,09:05:58,27/02/2024
html-keyboard-response,139,321267,0.0-58.0-1.0,,"<div style=""display: flex; flex-direction: column; align-items: center; margin-top: -40px;""><img src=""images/pattern_7.png"" style=""width: 234px; height: 230px; margin-top: -50px;""><div style=""display: flex; justify-content: space-between; margin-top: 33px;""><img src=""images/choice_trial_8.png"" style=""width: 408px; height: 417px; margin-left:608px;""></div></div>",,delaylearn,learning,display_response,kfRQfVOkRod8S7vQmvlQZIDtdzh2,kfRQfVOkRod8S7vQmvlQZIDtdzh2,,,,,,,,,,,,,,,,,chosen stimuli: images/choice_trial_8.png,,,,,62a12aee913c1c1a20613418,09:05:58,27/02/2024
html-keyboard-response,140,322022,0.0-58.0-2.0,,,,delaylearn,learning,feedback_duration_window,kfRQfVOkRod8S7vQmvlQZIDtdzh2,kfRQfVOkRod8S7vQmvlQZIDtdzh2,,,,,,,,,,,,,,,,,,750.0,,,,62a12aee913c1c1a20613418,09:05:58,27/02/2024
html-keyboard-response,141,323524,0.0-58.0-3.0,,<div style='margin:auto;width: auto; font-size: 150%'><span style='font-weight: bold; font-size: 100px; color: green;'>+10 points!</span><br><br></div>,,delaylearn,learning,feedback_image_window,kfRQfVOkRod8S7vQmvlQZIDtdzh2,kfRQfVOkRod8S7vQmvlQZIDtdzh2,,,,,,,,,,,,,,,,,,,,,,62a12aee913c1c1a20613418,09:05:58,27/02/2024
html-keyboard-response,142,324028,0.0-59.0-0.0,,,,,,mood_trial_fixation,kfRQfVOkRod8S7vQmvlQZIDtdzh2,,,,,,,,,,,,,,,,,,,,,,,62a12aee913c1c1a20613418,09:05:58,27/02/2024
lmdlab-html-vas-response,143,328050,0.0-59.0-1.0,3017.0,How happy are you right now?,0.5607812552982265,delaylearn,learning,mood_trial,kfRQfVOkRod8S7vQmvlQZIDtdzh2,kfRQfVOkRod8S7vQmvlQZIDtdzh2,,,,,,,,,,,,,,,,,,,,"['Very unhappy', 'Very happy']",,62a12aee913c1c1a20613418,09:05:58,27/02/2024
html-keyboard-response,144,330493,0.0-60.0,,"<div style=""font-size:100px;"">+</div>",,delaylearn,learning,ITI,kfRQfVOkRod8S7vQmvlQZIDtdzh2,kfRQfVOkRod8S7vQmvlQZIDtdzh2,,,,,,,,,,,,,,,,,,,2439.0,,,62a12aee913c1c1a20613418,09:05:58,27/02/2024
html-keyboard-response,145,331514,0.0-61.0-0.0,1018.0,"<div style=""display: flex; flex-direction: column; align-items: center; margin-top: -40px;""><img src=""images/pattern_1.png"" style=""width: 234px; height: 230px; margin-top: -50px;""><div style=""display: flex; justify-content: space-between; margin-top: 33px;""><img src=""images/choice_trial_3.png"" style=""width: 408px; height: 417px; margin-right: 200px;""><img src=""images/choice_trial_10.png"" style=""width: 408px; height: 417px;""></div></div>",f,delaylearn,learning,trial,kfRQfVOkRod8S7vQmvlQZIDtdzh2,kfRQfVOkRod8S7vQmvlQZIDtdzh2,2.0,images/choice_trial_3.png,images/choice_trial_10.png,images/pattern_1.png,f,f,7000.0,3.0,10.0,1.0,0.0,26.0,1.0,1.0,3.0,150.0,,,,,,62a12aee913c1c1a20613418,09:05:58,27/02/2024
html-keyboard-response,146,332522,0.0-61.0-1.0,,"<div style=""display: flex; flex-direction: column; align-items: center; margin-top: -40px;""><img src=""images/pattern_1.png"" style=""width: 234px; height: 230px; margin-top: -50px;""><div style=""display: flex; justify-content: space-between; margin-top: 33px;""><img src=""images/choice_trial_3.png"" style=""width: 408px; height: 417px; margin-right: 608px;""></div></div>",,delaylearn,learning,display_response,kfRQfVOkRod8S7vQmvlQZIDtdzh2,kfRQfVOkRod8S7vQmvlQZIDtdzh2,,,,,,,,,,,,,,,,,chosen stimuli: images/choice_trial_3.png,,,,,62a12aee913c1c1a20613418,09:05:58,27/02/2024
html-keyboard-response,147,339536,0.0-61.0-2.0,,,,delaylearn,learning,feedback_duration_window,kfRQfVOkRod8S7vQmvlQZIDtdzh2,kfRQfVOkRod8S7vQmvlQZIDtdzh2,,,,,,,,,,,,,,,,,,7000.0,,,,62a12aee913c1c1a20613418,09:05:58,27/02/2024
html-keyboard-response,148,341053,0.0-61.0-3.0,,<div style='margin:auto;width: auto; font-size: 150%'><span style='font-weight: bold; font-size: 100px; color: green;'>+10 points!</span><br><br></div>,,delaylearn,learning,feedback_image_window,kfRQfVOkRod8S7vQmvlQZIDtdzh2,kfRQfVOkRod8S7vQmvlQZIDtdzh2,,,,,,,,,,,,,,,,,,,,,,62a12aee913c1c1a20613418,09:05:58,27/02/2024
html-keyboard-response,149,342938,0.0-62.0,,"<div style=""font-size:100px;"">+</div>",,delaylearn,learning,ITI,kfRQfVOkRod8S7vQmvlQZIDtdzh2,kfRQfVOkRod8S7vQmvlQZIDtdzh2,,,,,,,,,,,,,,,,,,,1877.0,,,62a12aee913c1c1a20613418,09:05:58,27/02/2024
html-keyboard-response,150,343781,0.0-63.0-0.0,842.0,"<div style=""display: flex; flex-direction: column; align-items: center; margin-top: -40px;""><img src=""images/pattern_5.png"" style=""width: 234px; height: 230px; margin-top: -50px;""><div style=""display: flex; justify-content: space-between; margin-top: 33px;""><img src=""images/choice_trial_2.png"" style=""width: 408px; height: 417px; margin-right: 200px;""><img src=""images/choice_trial_9.png"" style=""width: 408px; height: 417px;""></div></div>",j,delaylearn,learning,trial,kfRQfVOkRod8S7vQmvlQZIDtdzh2,kfRQfVOkRod8S7vQmvlQZIDtdzh2,2.0,images/choice_trial_2.png,images/choice_trial_9.png,images/pattern_5.png,f,f,750.0,2.0,9.0,4.0,0.0,27.0,0.0,0.0,9.0,150.0,,,,,,62a12aee913c1c1a20613418,09:05:58,27/02/2024
html-keyboard-response,151,344796,0.0-63.0-1.0,,"<div style=""display: flex; flex-direction: column; align-items: center; margin-top: -40px;""><img src=""images/pattern_5.png"" style=""width: 234px; height: 230px; margin-top: -50px;""><div style=""display: flex; justify-content: space-between; margin-top: 33px;""><img src=""images/choice_trial_9.png"" style=""width: 408px; height: 417px; margin-left:608px;""></div></div>",,delaylearn,learning,display_response,kfRQfVOkRod8S7vQmvlQZIDtdzh2,kfRQfVOkRod8S7vQmvlQZIDtdzh2,,,,,,,,,,,,,,,,,chosen stimuli: images/choice_trial_9.png,,,,,62a12aee913c1c1a20613418,09:05:58,27/02/2024
html-keyboard-response,152,345557,0.0-63.0-2.0,,,,delaylearn,learning,feedback_duration_window,kfRQfVOkRod8S7vQmvlQZIDtdzh2,kfRQfVOkRod8S7vQmvlQZIDtdzh2,,,,,,,,,,,,,,,,,,750.0,,,,62a12aee913c1c1a20613418,09:05:58,27/02/2024
html-keyboard-response,153,347070,0.0-63.0-3.0,,<div style='margin:auto;width: auto; font-size: 150%'><span style='font-weight: bold; font-size: 100px; color: red;'>0 points!</span><br><br></div>,,delaylearn,learning,feedback_image_window,kfRQfVOkRod8S7vQmvlQZIDtdzh2,kfRQfVOkRod8S7vQmvlQZIDtdzh2,,,,,,,,,,,,,,,,,,,,,,62a12aee913c1c1a20613418,09:05:58,27/02/2024
html-keyboard-response,154,348965,0.0-64.0,,"<div style=""font-size:100px;"">+</div>",,delaylearn,learning,ITI,kfRQfVOkRod8S7vQmvlQZIDtdzh2,kfRQfVOkRod8S7vQmvlQZIDtdzh2,,,,,,,,,,,,,,,,,,,1885.0,,,62a12aee913c1c1a20613418,09:05:58,27/02/2024
html-keyboard-response,155,350121,0.0-65.0-0.0,1154.0,"<div style=""display: flex; flex-direction: column; align-items: center; margin-top: -40px;""><img src=""images/pattern_6.png"" style=""width: 234px; height: 230px; margin-top: -50px;""><div style=""display: flex; justify-content: space-between; margin-top: 33px;""><img src=""images/choice_trial_5.png"" style=""width: 408px; height: 417px; margin-right: 200px;""><img src=""images/choice_trial_11.png"" style=""width: 408px; height: 417px;""></div></div>",j,delaylearn,learning,trial,kfRQfVOkRod8S7vQmvlQZIDtdzh2,kfRQfVOkRod8S7vQmvlQZIDtdzh2,2.0,images/choice_trial_5.png,images/choice_trial_11.png,images/pattern_6.png,j,j,750.0,5.0,11.0,5.0,1.0,28.0,1.0,1.0,11.0,160.0,,,,,,62a12aee913c1c1a20613418,09:05:58,27/02/2024
html-keyboard-response,156,351132,0.0-65.0-1.0,,"<div style=""display: flex; flex-direction: column; align-items: center; margin-top: -40px;""><img src=""images/pattern_6.png"" style=""width: 234px; height: 230px; margin-top: -50px;""><div style=""display: flex; justify-content: space-between; margin-top: 33px;""><img src=""images/choice_trial_11.png"" style=""width: 408px; height: 417px; margin-left:608px;""></div></div>",,delaylearn,learning,display_response,kfRQfVOkRod8S7vQmvlQZIDtdzh2,kfRQfVOkRod8S7vQmvlQZIDtdzh2,,,,,,,,,,,,,,,,,chosen stimuli: images/choice_trial_11.png,,,,,62a12aee913c1c1a20613418,09:05:58,27/02/2024
html-keyboard-response,157,351893,0.0-65.0-2.0,,,,delaylearn,learning,feedback_duration_window,kfRQfVOkRod8S7vQmvlQZIDtdzh2,kfRQfVOkRod8S7vQmvlQZIDtdzh2,,,,,,,,,,,,,,,,,,750.0,,,,62a12aee913c1c1a20613418,09:05:58,27/02/2024
html-keyboard-response,158,353404,0.0-65.0-3.0,,<div style='margin:auto;width: auto; font-size: 150%'><span style='font-weight: bold; font-size: 100px; color: green;'>+10 points!</span><br><br></div>,,delaylearn,learning,feedback_image_window,kfRQfVOkRod8S7vQmvlQZIDtdzh2,kfRQfVOkRod8S7vQmvlQZIDtdzh2,,,,,,,,,,,,,,,,,,,,,,62a12aee913c1c1a20613418,09:05:58,27/02/2024
html-keyboard-response,159,353919,0.0-66.0-0.0,,,,,,mood_trial_fixation,kfRQfVOkRod8S7vQmvlQZIDtdzh2,,,,,,,,,,,,,,,,,,,,,,,62a12aee913c1c1a20613418,09:05:58,27/02/2024
lmdlab-html-vas-response,160,357915,0.0-66.0-1.0,2983.0,How happy are you right now?,0.5781424841477061,delaylearn,learning,mood_trial,kfRQfVOkRod8S7vQmvlQZIDtdzh2,kfRQfVOkRod8S7vQmvlQZIDtdzh2,,,,,,,,,,,,,,,,,,,,"['Very unhappy', 'Very happy']",,62a12aee913c1c1a20613418,09:05:58,27/02/2024
html-keyboard-response,161,359854,0.0-67.0,,"<div style=""font-size:100px;"">+</div>",,delaylearn,learning,ITI,kfRQfVOkRod8S7vQmvlQZIDtdzh2,kfRQfVOkRod8S7vQmvlQZIDtdzh2,,,,,,,,,,,,,,,,,,,1930.0,,,62a12aee913c1c1a20613418,09:05:58,27/02/2024
html-keyboard-response,162,360804,0.0-68.0-0.0,950.0,"<div style=""display: flex; flex-direction: column; align-items: center; margin-top: -40px;""><img src=""images/pattern_4.png"" style=""width: 234px; height: 230px; margin-top: -50px;""><div style=""display: flex; justify-content: space-between; margin-top: 33px;""><img src=""images/choice_trial_16.png"" style=""width: 408px; height: 417px; margin-right: 200px;""><img src=""images/choice_trial_4.png"" style=""width: 408px; height: 417px;""></div></div>",j,delaylearn,learning,trial,kfRQfVOkRod8S7vQmvlQZIDtdzh2,kfRQfVOkRod8S7vQmvlQZIDtdzh2,2.0,images/choice_trial_16.png,images/choice_trial_4.png,images/pattern_4.png,j,j,7000.0,16.0,4.0,3.0,1.0,29.0,1.0,1.0,4.0,170.0,,,,,,62a12aee913c1c1a20613418,09:05:58,27/02/2024
html-keyboard-response,163,361809,0.0-68.0-1.0,,"<div style=""display: flex; flex-direction: column; align-items: center; margin-top: -40px;""><img src=""images/pattern_4.png"" style=""width: 234px; height: 230px; margin-top: -50px;""><div style=""display: flex; justify-content: space-between; margin-top: 33px;""><img src=""images/choice_trial_4.png"" style=""width: 408px; height: 417px; margin-left:608px;""></div></div>",,delaylearn,learning,display_response,kfRQfVOkRod8S7vQmvlQZIDtdzh2,kfRQfVOkRod8S7vQmvlQZIDtdzh2,,,,,,,,,,,,,,,,,chosen stimuli: images/choice_trial_4.png,,,,,62a12aee913c1c1a20613418,09:05:58,27/02/2024
html-keyboard-response,164,368822,0.0-68.0-2.0,,,,delaylearn,learning,feedback_duration_window,kfRQfVOkRod8S7vQmvlQZIDtdzh2,kfRQfVOkRod8S7vQmvlQZIDtdzh2,,,,,,,,,,,,,,,,,,7000.0,,,,62a12aee913c1c1a20613418,09:05:58,27/02/2024
html-keyboard-response,165,370323,0.0-68.0-3.0,,<div style='margin:auto;width: auto; font-size: 150%'><span style='font-weight: bold; font-size: 100px; color: green;'>+10 points!</span><br><br></div>,,delaylearn,learning,feedback_image_window,kfRQfVOkRod8S7vQmvlQZIDtdzh2,kfRQfVOkRod8S7vQmvlQZIDtdzh2,,,,,,,,,,,,,,,,,,,,,,62a12aee913c1c1a20613418,09:05:58,27/02/2024
html-keyboard-response,166,372433,0.0-69.0,,"<div style=""font-size:100px;"">+</div>",,delaylearn,learning,ITI,kfRQfVOkRod8S7vQmvlQZIDtdzh2,kfRQfVOkRod8S7vQmvlQZIDtdzh2,,,,,,,,,,,,,,,,,,,2106.0,,,62a12aee913c1c1a20613418,09:05:58,27/02/2024
html-keyboard-response,167,373347,0.0-70.0-0.0,913.0,"<div style=""display: flex; flex-direction: column; align-items: center; margin-top: -40px;""><img src=""images/pattern_3.png"" style=""width: 234px; height: 230px; margin-top: -50px;""><div style=""display: flex; justify-content: space-between; margin-top: 33px;""><img src=""images/choice_trial_14.png"" style=""width: 408px; height: 417px; margin-right: 200px;""><img src=""images/choice_trial_12.png"" style=""width: 408px; height: 417px;""></div></div>",j,delaylearn,learning,trial,kfRQfVOkRod8S7vQmvlQZIDtdzh2,kfRQfVOkRod8S7vQmvlQZIDtdzh2,2.0,images/choice_trial_14.png,images/choice_trial_12.png,images/pattern_3.png,j,j,7000.0,14.0,12.0,2.0,1.0,30.0,1.0,1.0,12.0,180.0,,,,,,62a12aee913c1c1a20613418,09:05:58,27/02/2024
html-keyboard-response,168,374357,0.0-70.0-1.0,,"<div style=""display: flex; flex-direction: column; align-items: center; margin-top: -40px;""><img src=""images/pattern_3.png"" style=""width: 234px; height: 230px; margin-top: -50px;""><div style=""display: flex; justify-content: space-between; margin-top: 33px;""><img src=""images/choice_trial_12.png"" style=""width: 408px; height: 417px; margin-left:608px;""></div></div>",,delaylearn,learning,display_response,kfRQfVOkRod8S7vQmvlQZIDtdzh2,kfRQfVOkRod8S7vQmvlQZIDtdzh2,,,,,,,,,,,,,,,,,chosen stimuli: images/choice_trial_12.png,,,,,62a12aee913c1c1a20613418,09:05:58,27/02/2024
html-keyboard-response,169,381362,0.0-70.0-2.0,,,,delaylearn,learning,feedback_duration_window,kfRQfVOkRod8S7vQmvlQZIDtdzh2,kfRQfVOkRod8S7vQmvlQZIDtdzh2,,,,,,,,,,,,,,,,,,7000.0,,,,62a12aee913c1c1a20613418,09:05:58,27/02/2024
html-keyboard-response,170,382873,0.0-70.0-3.0,,<div style='margin:auto;width: auto; font-size: 150%'><span style='font-weight: bold; font-size: 100px; color: green;'>+10 points!</span><br><br></div>,,delaylearn,learning,feedback_image_window,kfRQfVOkRod8S7vQmvlQZIDtdzh2,kfRQfVOkRod8S7vQmvlQZIDtdzh2,,,,,,,,,,,,,,,,,,,,,,62a12aee913c1c1a20613418,09:05:58,27/02/2024
html-keyboard-response,171,385122,0.0-71.0,,"<div style=""font-size:100px;"">+</div>",,delaylearn,learning,ITI,kfRQfVOkRod8S7vQmvlQZIDtdzh2,kfRQfVOkRod8S7vQmvlQZIDtdzh2,,,,,,,,,,,,,,,,,,,2235.0,,,62a12aee913c1c1a20613418,09:05:58,27/02/2024
html-keyboard-response,172,386046,0.0-72.0-0.0,922.0,"<div style=""display: flex; flex-direction: column; align-items: center; margin-top: -40px;""><img src=""images/pattern_5.png"" style=""width: 234px; height: 230px; margin-top: -50px;""><div style=""display: flex; justify-content: space-between; margin-top: 33px;""><img src=""images/choice_trial_2.png"" style=""width: 408px; height: 417px; margin-right: 200px;""><img src=""images/choice_trial_9.png"" style=""width: 408px; height: 417px;""></div></div>",f,delaylearn,learning,trial,kfRQfVOkRod8S7vQmvlQZIDtdzh2,kfRQfVOkRod8S7vQmvlQZIDtdzh2,2.0,images/choice_trial_2.png,images/choice_trial_9.png,images/pattern_5.png,j,f,750.0,2.0,9.0,4.0,0.0,31.0,1.0,0.0,2.0,180.0,,,,,,62a12aee913c1c1a20613418,09:05:58,27/02/2024
html-keyboard-response,173,387056,0.0-72.0-1.0,,"<div style=""display: flex; flex-direction: column; align-items: center; margin-top: -40px;""><img src=""images/pattern_5.png"" style=""width: 234px; height: 230px; margin-top: -50px;""><div style=""display: flex; justify-content: space-between; margin-top: 33px;""><img src=""images/choice_trial_2.png"" style=""width: 408px; height: 417px; margin-right: 608px;""></div></div>",,delaylearn,learning,display_response,kfRQfVOkRod8S7vQmvlQZIDtdzh2,kfRQfVOkRod8S7vQmvlQZIDtdzh2,,,,,,,,,,,,,,,,,chosen stimuli: images/choice_trial_2.png,,,,,62a12aee913c1c1a20613418,09:05:58,27/02/2024
html-keyboard-response,174,387818,0.0-72.0-2.0,,,,delaylearn,learning,feedback_duration_window,kfRQfVOkRod8S7vQmvlQZIDtdzh2,kfRQfVOkRod8S7vQmvlQZIDtdzh2,,,,,,,,,,,,,,,,,,750.0,,,,62a12aee913c1c1a20613418,09:05:58,27/02/2024
html-keyboard-response,175,389328,0.0-72.0-3.0,,<div style='margin:auto;width: auto; font-size: 150%'><span style='font-weight: bold; font-size: 100px; color: red;'>0 points!</span><br><br></div>,,delaylearn,learning,feedback_image_window,kfRQfVOkRod8S7vQmvlQZIDtdzh2,kfRQfVOkRod8S7vQmvlQZIDtdzh2,,,,,,,,,,,,,,,,,,,,,,62a12aee913c1c1a20613418,09:05:58,27/02/2024
html-keyboard-response,176,391162,0.0-73.0,,"<div style=""font-size:100px;"">+</div>",,delaylearn,learning,ITI,kfRQfVOkRod8S7vQmvlQZIDtdzh2,kfRQfVOkRod8S7vQmvlQZIDtdzh2,,,,,,,,,,,,,,,,,,,1817.0,,,62a12aee913c1c1a20613418,09:05:58,27/02/2024
html-keyboard-response,177,391837,0.0-74.0-0.0,673.0,"<div style=""display: flex; flex-direction: column; align-items: center; margin-top: -40px;""><img src=""images/pattern_1.png"" style=""width: 234px; height: 230px; margin-top: -50px;""><div style=""display: flex; justify-content: space-between; margin-top: 33px;""><img src=""images/choice_trial_3.png"" style=""width: 408px; height: 417px; margin-right: 200px;""><img src=""images/choice_trial_10.png"" style=""width: 408px; height: 417px;""></div></div>",j,delaylearn,learning,trial,kfRQfVOkRod8S7vQmvlQZIDtdzh2,kfRQfVOkRod8S7vQmvlQZIDtdzh2,2.0,images/choice_trial_3.png,images/choice_trial_10.png,images/pattern_1.png,f,f,7000.0,3.0,10.0,1.0,0.0,32.0,0.0,0.0,10.0,180.0,,,,,,62a12aee913c1c1a20613418,09:05:58,27/02/2024
html-keyboard-response,178,392847,0.0-74.0-1.0,,"<div style=""display: flex; flex-direction: column; align-items: center; margin-top: -40px;""><img src=""images/pattern_1.png"" style=""width: 234px; height: 230px; margin-top: -50px;""><div style=""display: flex; justify-content: space-between; margin-top: 33px;""><img src=""images/choice_trial_10.png"" style=""width: 408px; height: 417px; margin-left:608px;""></div></div>",,delaylearn,learning,display_response,kfRQfVOkRod8S7vQmvlQZIDtdzh2,kfRQfVOkRod8S7vQmvlQZIDtdzh2,,,,,,,,,,,,,,,,,chosen stimuli: images/choice_trial_10.png,,,,,62a12aee913c1c1a20613418,09:05:58,27/02/2024
html-keyboard-response,179,399854,0.0-74.0-2.0,,,,delaylearn,learning,feedback_duration_window,kfRQfVOkRod8S7vQmvlQZIDtdzh2,kfRQfVOkRod8S7vQmvlQZIDtdzh2,,,,,,,,,,,,,,,,,,7000.0,,,,62a12aee913c1c1a20613418,09:05:58,27/02/2024
html-keyboard-response,180,401369,0.0-74.0-3.0,,<div style='margin:auto;width: auto; font-size: 150%'><span style='font-weight: bold; font-size: 100px; color: red;'>0 points!</span><br><br></div>,,delaylearn,learning,feedback_image_window,kfRQfVOkRod8S7vQmvlQZIDtdzh2,kfRQfVOkRod8S7vQmvlQZIDtdzh2,,,,,,,,,,,,,,,,,,,,,,62a12aee913c1c1a20613418,09:05:58,27/02/2024
html-keyboard-response,181,401873,0.0-75.0-0.0,,,,,,mood_trial_fixation,kfRQfVOkRod8S7vQmvlQZIDtdzh2,,,,,,,,,,,,,,,,,,,,,,,62a12aee913c1c1a20613418,09:05:58,27/02/2024
lmdlab-html-vas-response,182,413242,0.0-75.0-1.0,10367.0,How happy are you right now?,0.44576311417042486,delaylearn,learning,mood_trial,kfRQfVOkRod8S7vQmvlQZIDtdzh2,kfRQfVOkRod8S7vQmvlQZIDtdzh2,,,,,,,,,,,,,,,,,,,,"['Very unhappy', 'Very happy']",,62a12aee913c1c1a20613418,09:05:58,27/02/2024
html-keyboard-response,183,415590,0.0-76.0,,"<div style=""font-size:100px;"">+</div>",,delaylearn,learning,ITI,kfRQfVOkRod8S7vQmvlQZIDtdzh2,kfRQfVOkRod8S7vQmvlQZIDtdzh2,,,,,,,,,,,,,,,,,,,2335.0,,,62a12aee913c1c1a20613418,09:05:58,27/02/2024
html-keyboard-response,184,416761,0.0-77.0-0.0,1169.0,"<div style=""display: flex; flex-direction: column; align-items: center; margin-top: -40px;""><img src=""images/pattern_6.png"" style=""width: 234px; height: 230px; margin-top: -50px;""><div style=""display: flex; justify-content: space-between; margin-top: 33px;""><img src=""images/choice_trial_11.png"" style=""width: 408px; height: 417px; margin-right: 200px;""><img src=""images/choice_trial_5.png"" style=""width: 408px; height: 417px;""></div></div>",j,delaylearn,learning,trial,kfRQfVOkRod8S7vQmvlQZIDtdzh2,kfRQfVOkRod8S7vQmvlQZIDtdzh2,2.0,images/choice_trial_11.png,images/choice_trial_5.png,images/pattern_6.png,j,f,750.0,11.0,5.0,5.0,0.0,33.0,0.0,1.0,5.0,190.0,,,,,,62a12aee913c1c1a20613418,09:05:58,27/02/2024
html-keyboard-response,185,417763,0.0-77.0-1.0,,"<div style=""display: flex; flex-direction: column; align-items: center; margin-top: -40px;""><img src=""images/pattern_6.png"" style=""width: 234px; height: 230px; margin-top: -50px;""><div style=""display: flex; justify-content: space-between; margin-top: 33px;""><img src=""images/choice_trial_5.png"" style=""width: 408px; height: 417px; margin-left:608px;""></div></div>",,delaylearn,learning,display_response,kfRQfVOkRod8S7vQmvlQZIDtdzh2,kfRQfVOkRod8S7vQmvlQZIDtdzh2,,,,,,,,,,,,,,,,,chosen stimuli: images/choice_trial_5.png,,,,,62a12aee913c1c1a20613418,09:05:58,27/02/2024
html-keyboard-response,186,418525,0.0-77.0-2.0,,,,delaylearn,learning,feedback_duration_window,kfRQfVOkRod8S7vQmvlQZIDtdzh2,kfRQfVOkRod8S7vQmvlQZIDtdzh2,,,,,,,,,,,,,,,,,,750.0,,,,62a12aee913c1c1a20613418,09:05:58,27/02/2024
html-keyboard-response,187,420035,0.0-77.0-3.0,,<div style='margin:auto;width: auto; font-size: 150%'><span style='font-weight: bold; font-size: 100px; color: green;'>+10 points!</span><br><br></div>,,delaylearn,learning,feedback_image_window,kfRQfVOkRod8S7vQmvlQZIDtdzh2,kfRQfVOkRod8S7vQmvlQZIDtdzh2,,,,,,,,,,,,,,,,,,,,,,62a12aee913c1c1a20613418,09:05:58,27/02/2024
html-keyboard-response,188,422411,0.0-78.0,,"<div style=""font-size:100px;"">+</div>",,delaylearn,learning,ITI,kfRQfVOkRod8S7vQmvlQZIDtdzh2,kfRQfVOkRod8S7vQmvlQZIDtdzh2,,,,,,,,,,,,,,,,,,,2364.0,,,62a12aee913c1c1a20613418,09:05:58,27/02/2024
html-keyboard-response,189,423343,0.0-79.0-0.0,930.0,"<div style=""display: flex; flex-direction: column; align-items: center; margin-top: -40px;""><img src=""images/pattern_3.png"" style=""width: 234px; height: 230px; margin-top: -50px;""><div style=""display: flex; justify-content: space-between; margin-top: 33px;""><img src=""images/choice_trial_14.png"" style=""width: 408px; height: 417px; margin-right: 200px;""><img src=""images/choice_trial_12.png"" style=""width: 408px; height: 417px;""></div></div>",j,delaylearn,learning,trial,kfRQfVOkRod8S7vQmvlQZIDtdzh2,kfRQfVOkRod8S7vQmvlQZIDtdzh2,2.0,images/choice_trial_14.png,images/choice_trial_12.png,images/pattern_3.png,j,j,7000.0,14.0,12.0,2.0,1.0,34.0,1.0,1.0,12.0,200.0,,,,,,62a12aee913c1c1a20613418,09:05:58,27/02/2024
html-keyboard-response,190,424344,0.0-79.0-1.0,,"<div style=""display: flex; flex-direction: column; align-items: center; margin-top: -40px;""><img src=""images/pattern_3.png"" style=""width: 234px; height: 230px; margin-top: -50px;""><div style=""display: flex; justify-content: space-between; margin-top: 33px;""><img src=""images/choice_trial_12.png"" style=""width: 408px; height: 417px; margin-left:608px;""></div></div>",,delaylearn,learning,display_response,kfRQfVOkRod8S7vQmvlQZIDtdzh2,kfRQfVOkRod8S7vQmvlQZIDtdzh2,,,,,,,,,,,,,,,,,chosen stimuli: images/choice_trial_12.png,,,,,62a12aee913c1c1a20613418,09:05:58,27/02/2024
html-keyboard-response,191,431346,0.0-79.0-2.0,,,,delaylearn,learning,feedback_duration_window,kfRQfVOkRod8S7vQmvlQZIDtdzh2,kfRQfVOkRod8S7vQmvlQZIDtdzh2,,,,,,,,,,,,,,,,,,7000.0,,,,62a12aee913c1c1a20613418,09:05:58,27/02/2024
html-keyboard-response,192,432863,0.0-79.0-3.0,,<div style='margin:auto;width: auto; font-size: 150%'><span style='font-weight: bold; font-size: 100px; color: green;'>+10 points!</span><br><br></div>,,delaylearn,learning,feedback_image_window,kfRQfVOkRod8S7vQmvlQZIDtdzh2,kfRQfVOkRod8S7vQmvlQZIDtdzh2,,,,,,,,,,,,,,,,,,,,,,62a12aee913c1c1a20613418,09:05:58,27/02/2024
html-keyboard-response,193,435181,0.0-80.0,,"<div style=""font-size:100px;"">+</div>",,delaylearn,learning,ITI,kfRQfVOkRod8S7vQmvlQZIDtdzh2,kfRQfVOkRod8S7vQmvlQZIDtdzh2,,,,,,,,,,,,,,,,,,,2301.0,,,62a12aee913c1c1a20613418,09:05:58,27/02/2024
html-keyboard-response,194,436192,0.0-81.0-0.0,1009.0,"<div style=""display: flex; flex-direction: column; align-items: center; margin-top: -40px;""><img src=""images/pattern_4.png"" style=""width: 234px; height: 230px; margin-top: -50px;""><div style=""display: flex; justify-content: space-between; margin-top: 33px;""><img src=""images/choice_trial_16.png"" style=""width: 408px; height: 417px; margin-right: 200px;""><img src=""images/choice_trial_4.png"" style=""width: 408px; height: 417px;""></div></div>",j,delaylearn,learning,trial,kfRQfVOkRod8S7vQmvlQZIDtdzh2,kfRQfVOkRod8S7vQmvlQZIDtdzh2,2.0,images/choice_trial_16.png,images/choice_trial_4.png,images/pattern_4.png,f,j,7000.0,16.0,4.0,3.0,1.0,35.0,1.0,0.0,4.0,200.0,,,,,,62a12aee913c1c1a20613418,09:05:58,27/02/2024
html-keyboard-response,195,437204,0.0-81.0-1.0,,"<div style=""display: flex; flex-direction: column; align-items: center; margin-top: -40px;""><img src=""images/pattern_4.png"" style=""width: 234px; height: 230px; margin-top: -50px;""><div style=""display: flex; justify-content: space-between; margin-top: 33px;""><img src=""images/choice_trial_4.png"" style=""width: 408px; height: 417px; margin-left:608px;""></div></div>",,delaylearn,learning,display_response,kfRQfVOkRod8S7vQmvlQZIDtdzh2,kfRQfVOkRod8S7vQmvlQZIDtdzh2,,,,,,,,,,,,,,,,,chosen stimuli: images/choice_trial_4.png,,,,,62a12aee913c1c1a20613418,09:05:58,27/02/2024
html-keyboard-response,196,444214,0.0-81.0-2.0,,,,delaylearn,learning,feedback_duration_window,kfRQfVOkRod8S7vQmvlQZIDtdzh2,kfRQfVOkRod8S7vQmvlQZIDtdzh2,,,,,,,,,,,,,,,,,,7000.0,,,,62a12aee913c1c1a20613418,09:05:58,27/02/2024
html-keyboard-response,197,445726,0.0-81.0-3.0,,<div style='margin:auto;width: auto; font-size: 150%'><span style='font-weight: bold; font-size: 100px; color: red;'>0 points!</span><br><br></div>,,delaylearn,learning,feedback_image_window,kfRQfVOkRod8S7vQmvlQZIDtdzh2,kfRQfVOkRod8S7vQmvlQZIDtdzh2,,,,,,,,,,,,,,,,,,,,,,62a12aee913c1c1a20613418,09:05:58,27/02/2024
html-keyboard-response,198,447905,0.0-82.0,,"<div style=""font-size:100px;"">+</div>",,delaylearn,learning,ITI,kfRQfVOkRod8S7vQmvlQZIDtdzh2,kfRQfVOkRod8S7vQmvlQZIDtdzh2,,,,,,,,,,,,,,,,,,,2162.0,,,62a12aee913c1c1a20613418,09:05:58,27/02/2024
html-keyboard-response,199,449278,0.0-83.0-0.0,1370.0,"<div style=""display: flex; flex-direction: column; align-items: center; margin-top: -40px;""><img src=""images/pattern_7.png"" style=""width: 234px; height: 230px; margin-top: -50px;""><div style=""display: flex; justify-content: space-between; margin-top: 33px;""><img src=""images/choice_trial_8.png"" style=""width: 408px; height: 417px; margin-right: 200px;""><img src=""images/choice_trial_15.png"" style=""width: 408px; height: 417px;""></div></div>",f,delaylearn,learning,trial,kfRQfVOkRod8S7vQmvlQZIDtdzh2,kfRQfVOkRod8S7vQmvlQZIDtdzh2,2.0,images/choice_trial_8.png,images/choice_trial_15.png,images/pattern_7.png,f,f,750.0,8.0,15.0,6.0,0.0,36.0,1.0,1.0,8.0,210.0,,,,,,62a12aee913c1c1a20613418,09:05:58,27/02/2024
html-keyboard-response,200,450280,0.0-83.0-1.0,,"<div style=""display: flex; flex-direction: column; align-items: center; margin-top: -40px;""><img src=""images/pattern_7.png"" style=""width: 234px; height: 230px; margin-top: -50px;""><div style=""display: flex; justify-content: space-between; margin-top: 33px;""><img src=""images/choice_trial_8.png"" style=""width: 408px; height: 417px; margin-right: 608px;""></div></div>",,delaylearn,learning,display_response,kfRQfVOkRod8S7vQmvlQZIDtdzh2,kfRQfVOkRod8S7vQmvlQZIDtdzh2,,,,,,,,,,,,,,,,,chosen stimuli: images/choice_trial_8.png,,,,,62a12aee913c1c1a20613418,09:05:58,27/02/2024
html-keyboard-response,201,451031,0.0-83.0-2.0,,,,delaylearn,learning,feedback_duration_window,kfRQfVOkRod8S7vQmvlQZIDtdzh2,kfRQfVOkRod8S7vQmvlQZIDtdzh2,,,,,,,,,,,,,,,,,,750.0,,,,62a12aee913c1c1a20613418,09:05:58,27/02/2024
html-keyboard-response,202,452540,0.0-83.0-3.0,,<div style='margin:auto;width: auto; font-size: 150%'><span style='font-weight: bold; font-size: 100px; color: green;'>+10 points!</span><br><br></div>,,delaylearn,learning,feedback_image_window,kfRQfVOkRod8S7vQmvlQZIDtdzh2,kfRQfVOkRod8S7vQmvlQZIDtdzh2,,,,,,,,,,,,,,,,,,,,,,62a12aee913c1c1a20613418,09:05:58,27/02/2024
html-keyboard-response,203,454566,0.0-84.0,,"<div style=""font-size:100px;"">+</div>",,delaylearn,learning,ITI,kfRQfVOkRod8S7vQmvlQZIDtdzh2,kfRQfVOkRod8S7vQmvlQZIDtdzh2,,,,,,,,,,,,,,,,,,,2016.0,,,62a12aee913c1c1a20613418,09:05:58,27/02/2024
html-keyboard-response,204,455653,0.0-85.0-0.0,1084.0,"<div style=""display: flex; flex-direction: column; align-items: center; margin-top: -40px;""><img src=""images/pattern_1.png"" style=""width: 234px; height: 230px; margin-top: -50px;""><div style=""display: flex; justify-content: space-between; margin-top: 33px;""><img src=""images/choice_trial_3.png"" style=""width: 408px; height: 417px; margin-right: 200px;""><img src=""images/choice_trial_10.png"" style=""width: 408px; height: 417px;""></div></div>",j,delaylearn,learning,trial,kfRQfVOkRod8S7vQmvlQZIDtdzh2,kfRQfVOkRod8S7vQmvlQZIDtdzh2,2.0,images/choice_trial_3.png,images/choice_trial_10.png,images/pattern_1.png,f,f,7000.0,3.0,10.0,1.0,0.0,37.0,0.0,0.0,10.0,210.0,,,,,,62a12aee913c1c1a20613418,09:05:58,27/02/2024
html-keyboard-response,205,456656,0.0-85.0-1.0,,"<div style=""display: flex; flex-direction: column; align-items: center; margin-top: -40px;""><img src=""images/pattern_1.png"" style=""width: 234px; height: 230px; margin-top: -50px;""><div style=""display: flex; justify-content: space-between; margin-top: 33px;""><img src=""images/choice_trial_10.png"" style=""width: 408px; height: 417px; margin-left:608px;""></div></div>",,delaylearn,learning,display_response,kfRQfVOkRod8S7vQmvlQZIDtdzh2,kfRQfVOkRod8S7vQmvlQZIDtdzh2,,,,,,,,,,,,,,,,,chosen stimuli: images/choice_trial_10.png,,,,,62a12aee913c1c1a20613418,09:05:58,27/02/2024
html-keyboard-response,206,463668,0.0-85.0-2.0,,,,delaylearn,learning,feedback_duration_window,kfRQfVOkRod8S7vQmvlQZIDtdzh2,kfRQfVOkRod8S7vQmvlQZIDtdzh2,,,,,,,,,,,,,,,,,,7000.0,,,,62a12aee913c1c1a20613418,09:05:58,27/02/2024
html-keyboard-response,207,465172,0.0-85.0-3.0,,<div style='margin:auto;width: auto; font-size: 150%'><span style='font-weight: bold; font-size: 100px; color: red;'>0 points!</span><br><br></div>,,delaylearn,learning,feedback_image_window,kfRQfVOkRod8S7vQmvlQZIDtdzh2,kfRQfVOkRod8S7vQmvlQZIDtdzh2,,,,,,,,,,,,,,,,,,,,,,62a12aee913c1c1a20613418,09:05:58,27/02/2024
html-keyboard-response,208,465683,0.0-86.0-0.0,,,,,,mood_trial_fixation,kfRQfVOkRod8S7vQmvlQZIDtdzh2,,,,,,,,,,,,,,,,,,,,,,,62a12aee913c1c1a20613418,09:05:58,27/02/2024
lmdlab-html-vas-response,209,470102,0.0-86.0-1.0,3413.0,How happy are you right now?,0.371977891560137,delaylearn,learning,mood_trial,kfRQfVOkRod8S7vQmvlQZIDtdzh2,kfRQfVOkRod8S7vQmvlQZIDtdzh2,,,,,,,,,,,,,,,,,,,,"['Very unhappy', 'Very happy']",,62a12aee913c1c1a20613418,09:05:58,27/02/2024
html-keyboard-response,210,472403,0.0-87.0,,"<div style=""font-size:100px;"">+</div>",,delaylearn,learning,ITI,kfRQfVOkRod8S7vQmvlQZIDtdzh2,kfRQfVOkRod8S7vQmvlQZIDtdzh2,,,,,,,,,,,,,,,,,,,2293.0,,,62a12aee913c1c1a20613418,09:05:58,27/02/2024
html-keyboard-response,211,473573,0.0-88.0-0.0,1169.0,"<div style=""display: flex; flex-direction: column; align-items: center; margin-top: -40px;""><img src=""images/pattern_3.png"" style=""width: 234px; height: 230px; margin-top: -50px;""><div style=""display: flex; justify-content: space-between; margin-top: 33px;""><img src=""images/choice_trial_12.png"" style=""width: 408px; height: 417px; margin-right: 200px;""><img src=""images/choice_trial_14.png"" style=""width: 408px; height: 417px;""></div></div>",f,delaylearn,learning,trial,kfRQfVOkRod8S7vQmvlQZIDtdzh2,kfRQfVOkRod8S7vQmvlQZIDtdzh2,2.0,images/choice_trial_12.png,images/choice_trial_14.png,images/pattern_3.png,j,f,7000.0,12.0,14.0,2.0,0.0,38.0,1.0,0.0,12.0,210.0,,,,,,62a12aee913c1c1a20613418,09:05:58,27/02/2024
html-keyboard-response,212,474587,0.0-88.0-1.0,,"<div style=""display: flex; flex-direction: column; align-items: center; margin-top: -40px;""><img src=""images/pattern_3.png"" style=""width: 234px; height: 230px; margin-top: -50px;""><div style=""display: flex; justify-content: space-between; margin-top: 33px;""><img src=""images/choice_trial_12.png"" style=""width: 408px; height: 417px; margin-right: 608px;""></div></div>",,delaylearn,learning,display_response,kfRQfVOkRod8S7vQmvlQZIDtdzh2,kfRQfVOkRod8S7vQmvlQZIDtdzh2,,,,,,,,,,,,,,,,,chosen stimuli: images/choice_trial_12.png,,,,,62a12aee913c1c1a20613418,09:05:58,27/02/2024
html-keyboard-response,213,481598,0.0-88.0-2.0,,,,delaylearn,learning,feedback_duration_window,kfRQfVOkRod8S7vQmvlQZIDtdzh2,kfRQfVOkRod8S7vQmvlQZIDtdzh2,,,,,,,,,,,,,,,,,,7000.0,,,,62a12aee913c1c1a20613418,09:05:58,27/02/2024
html-keyboard-response,214,483102,0.0-88.0-3.0,,<div style='margin:auto;width: auto; font-size: 150%'><span style='font-weight: bold; font-size: 100px; color: red;'>0 points!</span><br><br></div>,,delaylearn,learning,feedback_image_window,kfRQfVOkRod8S7vQmvlQZIDtdzh2,kfRQfVOkRod8S7vQmvlQZIDtdzh2,,,,,,,,,,,,,,,,,,,,,,62a12aee913c1c1a20613418,09:05:58,27/02/2024
html-keyboard-response,215,485243,0.0-89.0,,"<div style=""font-size:100px;"">+</div>",,delaylearn,learning,ITI,kfRQfVOkRod8S7vQmvlQZIDtdzh2,kfRQfVOkRod8S7vQmvlQZIDtdzh2,,,,,,,,,,,,,,,,,,,2138.0,,,62a12aee913c1c1a20613418,09:05:58,27/02/2024
html-keyboard-response,216,485931,0.0-90.0-0.0,686.0,"<div style=""display: flex; flex-direction: column; align-items: center; margin-top: -40px;""><img src=""images/pattern_7.png"" style=""width: 234px; height: 230px; margin-top: -50px;""><div style=""display: flex; justify-content: space-between; margin-top: 33px;""><img src=""images/choice_trial_15.png"" style=""width: 408px; height: 417px; margin-right: 200px;""><img src=""images/choice_trial_8.png"" style=""width: 408px; height: 417px;""></div></div>",f,delaylearn,learning,trial,kfRQfVOkRod8S7vQmvlQZIDtdzh2,kfRQfVOkRod8S7vQmvlQZIDtdzh2,2.0,images/choice_trial_15.png,images/choice_trial_8.png,images/pattern_7.png,j,j,750.0,15.0,8.0,6.0,1.0,39.0,0.0,0.0,15.0,210.0,,,,,,62a12aee913c1c1a20613418,09:05:58,27/02/2024
html-keyboard-response,217,486938,0.0-90.0-1.0,,"<div style=""display: flex; flex-direction: column; align-items: center; margin-top: -40px;""><img src=""images/pattern_7.png"" style=""width: 234px; height: 230px; margin-top: -50px;""><div style=""display: flex; justify-content: space-between; margin-top: 33px;""><img src=""images/choice_trial_15.png"" style=""width: 408px; height: 417px; margin-right: 608px;""></div></div>",,delaylearn,learning,display_response,kfRQfVOkRod8S7vQmvlQZIDtdzh2,kfRQfVOkRod8S7vQmvlQZIDtdzh2,,,,,,,,,,,,,,,,,chosen stimuli: images/choice_trial_15.png,,,,,62a12aee913c1c1a20613418,09:05:58,27/02/2024
html-keyboard-response,218,487703,0.0-90.0-2.0,,,,delaylearn,learning,feedback_duration_window,kfRQfVOkRod8S7vQmvlQZIDtdzh2,kfRQfVOkRod8S7vQmvlQZIDtdzh2,,,,,,,,,,,,,,,,,,750.0,,,,62a12aee913c1c1a20613418,09:05:58,27/02/2024
html-keyboard-response,219,489205,0.0-90.0-3.0,,<div style='margin:auto;width: auto; font-size: 150%'><span style='font-weight: bold; font-size: 100px; color: red;'>0 points!</span><br><br></div>,,delaylearn,learning,feedback_image_window,kfRQfVOkRod8S7vQmvlQZIDtdzh2,kfRQfVOkRod8S7vQmvlQZIDtdzh2,,,,,,,,,,,,,,,,,,,,,,62a12aee913c1c1a20613418,09:05:58,27/02/2024
html-keyboard-response,220,490752,0.0-91.0,,"<div style=""font-size:100px;"">+</div>",,delaylearn,learning,ITI,kfRQfVOkRod8S7vQmvlQZIDtdzh2,kfRQfVOkRod8S7vQmvlQZIDtdzh2,,,,,,,,,,,,,,,,,,,1541.0,,,62a12aee913c1c1a20613418,09:05:58,27/02/2024
html-keyboard-response,221,491963,0.0-92.0-0.0,1207.0,"<div style=""display: flex; flex-direction: column; align-items: center; margin-top: -40px;""><img src=""images/pattern_5.png"" style=""width: 234px; height: 230px; margin-top: -50px;""><div style=""display: flex; justify-content: space-between; margin-top: 33px;""><img src=""images/choice_trial_9.png"" style=""width: 408px; height: 417px; margin-right: 200px;""><img src=""images/choice_trial_2.png"" style=""width: 408px; height: 417px;""></div></div>",f,delaylearn,learning,trial,kfRQfVOkRod8S7vQmvlQZIDtdzh2,kfRQfVOkRod8S7vQmvlQZIDtdzh2,2.0,images/choice_trial_9.png,images/choice_trial_2.png,images/pattern_5.png,j,j,750.0,9.0,2.0,4.0,1.0,40.0,0.0,0.0,9.0,210.0,,,,,,62a12aee913c1c1a20613418,09:05:58,27/02/2024
html-keyboard-response,222,492970,0.0-92.0-1.0,,"<div style=""display: flex; flex-direction: column; align-items: center; margin-top: -40px;""><img src=""images/pattern_5.png"" style=""width: 234px; height: 230px; margin-top: -50px;""><div style=""display: flex; justify-content: space-between; margin-top: 33px;""><img src=""images/choice_trial_9.png"" style=""width: 408px; height: 417px; margin-right: 608px;""></div></div>",,delaylearn,learning,display_response,kfRQfVOkRod8S7vQmvlQZIDtdzh2,kfRQfVOkRod8S7vQmvlQZIDtdzh2,,,,,,,,,,,,,,,,,chosen stimuli: images/choice_trial_9.png,,,,,62a12aee913c1c1a20613418,09:05:58,27/02/2024
html-keyboard-response,223,493724,0.0-92.0-2.0,,,,delaylearn,learning,feedback_duration_window,kfRQfVOkRod8S7vQmvlQZIDtdzh2,kfRQfVOkRod8S7vQmvlQZIDtdzh2,,,,,,,,,,,,,,,,,,750.0,,,,62a12aee913c1c1a20613418,09:05:58,27/02/2024
html-keyboard-response,224,495240,0.0-92.0-3.0,,<div style='margin:auto;width: auto; font-size: 150%'><span style='font-weight: bold; font-size: 100px; color: red;'>0 points!</span><br><br></div>,,delaylearn,learning,feedback_image_window,kfRQfVOkRod8S7vQmvlQZIDtdzh2,kfRQfVOkRod8S7vQmvlQZIDtdzh2,,,,,,,,,,,,,,,,,,,,,,62a12aee913c1c1a20613418,09:05:58,27/02/2024
html-keyboard-response,225,495742,0.0-93.0-0.0,,,,,,mood_trial_fixation,kfRQfVOkRod8S7vQmvlQZIDtdzh2,,,,,,,,,,,,,,,,,,,,,,,62a12aee913c1c1a20613418,09:05:58,27/02/2024
lmdlab-html-vas-response,226,499787,0.0-93.0-1.0,3042.0,How happy are you right now?,0.20270591027771184,delaylearn,learning,mood_trial,kfRQfVOkRod8S7vQmvlQZIDtdzh2,kfRQfVOkRod8S7vQmvlQZIDtdzh2,,,,,,,,,,,,,,,,,,,,"['Very unhappy', 'Very happy']",,62a12aee913c1c1a20613418,09:05:58,27/02/2024
html-keyboard-response,227,501716,0.0-94.0,,"<div style=""font-size:100px;"">+</div>",,delaylearn,learning,ITI,kfRQfVOkRod8S7vQmvlQZIDtdzh2,kfRQfVOkRod8S7vQmvlQZIDtdzh2,,,,,,,,,,,,,,,,,,,1917.0,,,62a12aee913c1c1a20613418,09:05:58,27/02/2024
html-keyboard-response,228,502605,0.0-95.0-0.0,887.0,"<div style=""display: flex; flex-direction: column; align-items: center; margin-top: -40px;""><img src=""images/pattern_4.png"" style=""width: 234px; height: 230px; margin-top: -50px;""><div style=""display: flex; justify-content: space-between; margin-top: 33px;""><img src=""images/choice_trial_4.png"" style=""width: 408px; height: 417px; margin-right: 200px;""><img src=""images/choice_trial_16.png"" style=""width: 408px; height: 417px;""></div></div>",j,delaylearn,learning,trial,kfRQfVOkRod8S7vQmvlQZIDtdzh2,kfRQfVOkRod8S7vQmvlQZIDtdzh2,2.0,images/choice_trial_4.png,images/choice_trial_16.png,images/pattern_4.png,f,f,7000.0,4.0,16.0,3.0,0.0,41.0,0.0,0.0,16.0,210.0,,,,,,62a12aee913c1c1a20613418,09:05:58,27/02/2024
html-keyboard-response,229,503613,0.0-95.0-1.0,,"<div style=""display: flex; flex-direction: column; align-items: center; margin-top: -40px;""><img src=""images/pattern_4.png"" style=""width: 234px; height: 230px; margin-top: -50px;""><div style=""display: flex; justify-content: space-between; margin-top: 33px;""><img src=""images/choice_trial_16.png"" style=""width: 408px; height: 417px; margin-left:608px;""></div></div>",,delaylearn,learning,display_response,kfRQfVOkRod8S7vQmvlQZIDtdzh2,kfRQfVOkRod8S7vQmvlQZIDtdzh2,,,,,,,,,,,,,,,,,chosen stimuli: images/choice_trial_16.png,,,,,62a12aee913c1c1a20613418,09:05:58,27/02/2024
html-keyboard-response,230,510617,0.0-95.0-2.0,,,,delaylearn,learning,feedback_duration_window,kfRQfVOkRod8S7vQmvlQZIDtdzh2,kfRQfVOkRod8S7vQmvlQZIDtdzh2,,,,,,,,,,,,,,,,,,7000.0,,,,62a12aee913c1c1a20613418,09:05:58,27/02/2024
html-keyboard-response,231,512120,0.0-95.0-3.0,,<div style='margin:auto;width: auto; font-size: 150%'><span style='font-weight: bold; font-size: 100px; color: red;'>0 points!</span><br><br></div>,,delaylearn,learning,feedback_image_window,kfRQfVOkRod8S7vQmvlQZIDtdzh2,kfRQfVOkRod8S7vQmvlQZIDtdzh2,,,,,,,,,,,,,,,,,,,,,,62a12aee913c1c1a20613418,09:05:58,27/02/2024
html-keyboard-response,232,514084,0.0-96.0,,"<div style=""font-size:100px;"">+</div>",,delaylearn,learning,ITI,kfRQfVOkRod8S7vQmvlQZIDtdzh2,kfRQfVOkRod8S7vQmvlQZIDtdzh2,,,,,,,,,,,,,,,,,,,1960.0,,,62a12aee913c1c1a20613418,09:05:58,27/02/2024
