trial_type,trial_index,time_elapsed,internal_node_id,rt,stimulus,response,exp_name,exp_stage,test_part,subjectID,databaseID,counterbal,choice_stimuli_1,choice_stimuli_2,pattern_stimuli,rewarded_answer,correct_answer,feedback_duration_times,stim_left,stim_right,pair,leftright_counter,trial,response_correct,response_rewarded,chosen_stim,counter,displayed_choice,feedback_durations,ITI_duration,labels,rest_warning,prolificID,start_time,date
pavlovia,0,1214,0.0-0.0,,,,,,,NmHCyEPpkngdEMJqampJPnMsiNk2,,,,,,,,,,,,,,,,,,,,,,,59d65ad8e2762800015eb51b,09:09:47,27/02/2024
html-keyboard-response,1,4223,0.0-1.0,,"<div style=""font-size:100px;"">+</div>",,delaylearn,learning,pre_fixation,NmHCyEPpkngdEMJqampJPnMsiNk2,,,,,,,,,,,,,,,,,,,,,,,59d65ad8e2762800015eb51b,09:09:47,27/02/2024
html-keyboard-response,2,5283,0.0-2.0-0.0,1057.0,"<div style=""display: flex; flex-direction: column; align-items: center; margin-top: -40px;""><img src=""images/demo_images/pattern_1.png"" style=""width: 234px; height: 230px; margin-top: -50px;""><div style=""display: flex; justify-content: space-between; margin-top: 33px;""><img src=""images/demo_images/choice_trial_2.png"" style=""width: 408px; height: 417px; margin-right: 200px;""><img src=""images/demo_images/choice_trial_1.png"" style=""width: 408px; height: 417px;""></div></div>",f,delaylearn,learning,trial,NmHCyEPpkngdEMJqampJPnMsiNk2,NmHCyEPpkngdEMJqampJPnMsiNk2,4.0,images/demo_images/choice_trial_2.png,images/demo_images/choice_trial_1.png,images/demo_images/pattern_1.png,j,j,3000.0,2.0,1.0,20.0,1.0,1.0,0.0,0.0,2.0,0.0,,,,,,59d65ad8e2762800015eb51b,09:09:47,27/02/2024
html-keyboard-response,3,6300,0.0-2.0-1.0,,"<div style=""display: flex; flex-direction: column; align-items: center; margin-top: -40px;""><img src=""images/demo_images/pattern_1.png"" style=""width: 234px; height: 230px; margin-top: -50px;""><div style=""display: flex; justify-content: space-between; margin-top: 33px;""><img src=""images/demo_images/choice_trial_2.png"" style=""width: 408px; height: 417px; margin-right: 608px;""></div></div>",,delaylearn,learning,display_response,NmHCyEPpkngdEMJqampJPnMsiNk2,NmHCyEPpkngdEMJqampJPnMsiNk2,,,,,,,,,,,,,,,,,chosen stimuli: images/demo_images/choice_trial_2.png,,,,,59d65ad8e2762800015eb51b,09:09:47,27/02/2024
html-keyboard-response,4,9313,0.0-2.0-2.0,,,,delaylearn,learning,feedback_duration_window,NmHCyEPpkngdEMJqampJPnMsiNk2,NmHCyEPpkngdEMJqampJPnMsiNk2,,,,,,,,,,,,,,,,,,3000.0,,,,59d65ad8e2762800015eb51b,09:09:47,27/02/2024
html-keyboard-response,5,10825,0.0-2.0-3.0,,<div style='margin:auto;width: auto; font-size: 150%'><span style='font-weight: bold; font-size: 100px; color: red;'>0 points!</span><br><br></div>,,delaylearn,learning,feedback_image_window,NmHCyEPpkngdEMJqampJPnMsiNk2,NmHCyEPpkngdEMJqampJPnMsiNk2,,,,,,,,,,,,,,,,,,,,,,59d65ad8e2762800015eb51b,09:09:47,27/02/2024
html-keyboard-response,6,12787,0.0-3.0,,"<div style=""font-size:100px;"">+</div>",,delaylearn,learning,ITI,NmHCyEPpkngdEMJqampJPnMsiNk2,NmHCyEPpkngdEMJqampJPnMsiNk2,,,,,,,,,,,,,,,,,,,1948.0,,,59d65ad8e2762800015eb51b,09:09:47,27/02/2024
html-keyboard-response,7,13409,0.0-4.0-0.0,619.1000001430511,"<div style=""display: flex; flex-direction: column; align-items: center; margin-top: -40px;""><img src=""images/demo_images/pattern_1.png"" style=""width: 234px; height: 230px; margin-top: -50px;""><div style=""display: flex; justify-content: space-between; margin-top: 33px;""><img src=""images/demo_images/choice_trial_2.png"" style=""width: 408px; height: 417px; margin-right: 200px;""><img src=""images/demo_images/choice_trial_1.png"" style=""width: 408px; height: 417px;""></div></div>",j,delaylearn,learning,trial,NmHCyEPpkngdEMJqampJPnMsiNk2,NmHCyEPpkngdEMJqampJPnMsiNk2,4.0,images/demo_images/choice_trial_2.png,images/demo_images/choice_trial_1.png,images/demo_images/pattern_1.png,j,j,3000.0,2.0,1.0,20.0,1.0,2.0,1.0,1.0,1.0,10.0,,,,,,59d65ad8e2762800015eb51b,09:09:47,27/02/2024
html-keyboard-response,8,14425,0.0-4.0-1.0,,"<div style=""display: flex; flex-direction: column; align-items: center; margin-top: -40px;""><img src=""images/demo_images/pattern_1.png"" style=""width: 234px; height: 230px; margin-top: -50px;""><div style=""display: flex; justify-content: space-between; margin-top: 33px;""><img src=""images/demo_images/choice_trial_1.png"" style=""width: 408px; height: 417px; margin-left:608px;""></div></div>",,delaylearn,learning,display_response,NmHCyEPpkngdEMJqampJPnMsiNk2,NmHCyEPpkngdEMJqampJPnMsiNk2,,,,,,,,,,,,,,,,,chosen stimuli: images/demo_images/choice_trial_1.png,,,,,59d65ad8e2762800015eb51b,09:09:47,27/02/2024
html-keyboard-response,9,17438,0.0-4.0-2.0,,,,delaylearn,learning,feedback_duration_window,NmHCyEPpkngdEMJqampJPnMsiNk2,NmHCyEPpkngdEMJqampJPnMsiNk2,,,,,,,,,,,,,,,,,,3000.0,,,,59d65ad8e2762800015eb51b,09:09:47,27/02/2024
html-keyboard-response,10,18953,0.0-4.0-3.0,,<div style='margin:auto;width: auto; font-size: 150%'><span style='font-weight: bold; font-size: 100px; color: green;'>+10 points!</span><br><br></div>,,delaylearn,learning,feedback_image_window,NmHCyEPpkngdEMJqampJPnMsiNk2,NmHCyEPpkngdEMJqampJPnMsiNk2,,,,,,,,,,,,,,,,,,,,,,59d65ad8e2762800015eb51b,09:09:47,27/02/2024
html-keyboard-response,11,20908,0.0-5.0,,"<div style=""font-size:100px;"">+</div>",,delaylearn,learning,ITI,NmHCyEPpkngdEMJqampJPnMsiNk2,NmHCyEPpkngdEMJqampJPnMsiNk2,,,,,,,,,,,,,,,,,,,1946.0,,,59d65ad8e2762800015eb51b,09:09:47,27/02/2024
html-keyboard-response,12,22090,0.0-6.0-0.0,1179.7000000476837,"<div style=""display: flex; flex-direction: column; align-items: center; margin-top: -40px;""><img src=""images/demo_images/pattern_1.png"" style=""width: 234px; height: 230px; margin-top: -50px;""><div style=""display: flex; justify-content: space-between; margin-top: 33px;""><img src=""images/demo_images/choice_trial_1.png"" style=""width: 408px; height: 417px; margin-right: 200px;""><img src=""images/demo_images/choice_trial_2.png"" style=""width: 408px; height: 417px;""></div></div>",f,delaylearn,learning,trial,NmHCyEPpkngdEMJqampJPnMsiNk2,NmHCyEPpkngdEMJqampJPnMsiNk2,4.0,images/demo_images/choice_trial_1.png,images/demo_images/choice_trial_2.png,images/demo_images/pattern_1.png,j,f,3000.0,1.0,2.0,20.0,0.0,3.0,1.0,0.0,1.0,10.0,,,,,,59d65ad8e2762800015eb51b,09:09:47,27/02/2024
html-keyboard-response,13,23100,0.0-6.0-1.0,,"<div style=""display: flex; flex-direction: column; align-items: center; margin-top: -40px;""><img src=""images/demo_images/pattern_1.png"" style=""width: 234px; height: 230px; margin-top: -50px;""><div style=""display: flex; justify-content: space-between; margin-top: 33px;""><img src=""images/demo_images/choice_trial_1.png"" style=""width: 408px; height: 417px; margin-right: 608px;""></div></div>",,delaylearn,learning,display_response,NmHCyEPpkngdEMJqampJPnMsiNk2,NmHCyEPpkngdEMJqampJPnMsiNk2,,,,,,,,,,,,,,,,,chosen stimuli: images/demo_images/choice_trial_1.png,,,,,59d65ad8e2762800015eb51b,09:09:47,27/02/2024
html-keyboard-response,14,26110,0.0-6.0-2.0,,,,delaylearn,learning,feedback_duration_window,NmHCyEPpkngdEMJqampJPnMsiNk2,NmHCyEPpkngdEMJqampJPnMsiNk2,,,,,,,,,,,,,,,,,,3000.0,,,,59d65ad8e2762800015eb51b,09:09:47,27/02/2024
html-keyboard-response,15,27616,0.0-6.0-3.0,,<div style='margin:auto;width: auto; font-size: 150%'><span style='font-weight: bold; font-size: 100px; color: red;'>0 points!</span><br><br></div>,,delaylearn,learning,feedback_image_window,NmHCyEPpkngdEMJqampJPnMsiNk2,NmHCyEPpkngdEMJqampJPnMsiNk2,,,,,,,,,,,,,,,,,,,,,,59d65ad8e2762800015eb51b,09:09:47,27/02/2024
html-keyboard-response,16,29770,0.0-7.0,,"<div style=""font-size:100px;"">+</div>",,delaylearn,learning,ITI,NmHCyEPpkngdEMJqampJPnMsiNk2,NmHCyEPpkngdEMJqampJPnMsiNk2,,,,,,,,,,,,,,,,,,,2151.0,,,59d65ad8e2762800015eb51b,09:09:47,27/02/2024
html-keyboard-response,17,30550,0.0-8.0-0.0,778.5,"<div style=""display: flex; flex-direction: column; align-items: center; margin-top: -40px;""><img src=""images/demo_images/pattern_1.png"" style=""width: 234px; height: 230px; margin-top: -50px;""><div style=""display: flex; justify-content: space-between; margin-top: 33px;""><img src=""images/demo_images/choice_trial_1.png"" style=""width: 408px; height: 417px; margin-right: 200px;""><img src=""images/demo_images/choice_trial_2.png"" style=""width: 408px; height: 417px;""></div></div>",j,delaylearn,learning,trial,NmHCyEPpkngdEMJqampJPnMsiNk2,NmHCyEPpkngdEMJqampJPnMsiNk2,4.0,images/demo_images/choice_trial_1.png,images/demo_images/choice_trial_2.png,images/demo_images/pattern_1.png,f,f,3000.0,1.0,2.0,20.0,0.0,4.0,0.0,0.0,2.0,10.0,,,,,,59d65ad8e2762800015eb51b,09:09:47,27/02/2024
html-keyboard-response,18,31568,0.0-8.0-1.0,,"<div style=""display: flex; flex-direction: column; align-items: center; margin-top: -40px;""><img src=""images/demo_images/pattern_1.png"" style=""width: 234px; height: 230px; margin-top: -50px;""><div style=""display: flex; justify-content: space-between; margin-top: 33px;""><img src=""images/demo_images/choice_trial_2.png"" style=""width: 408px; height: 417px; margin-left:608px;""></div></div>",,delaylearn,learning,display_response,NmHCyEPpkngdEMJqampJPnMsiNk2,NmHCyEPpkngdEMJqampJPnMsiNk2,,,,,,,,,,,,,,,,,chosen stimuli: images/demo_images/choice_trial_2.png,,,,,59d65ad8e2762800015eb51b,09:09:47,27/02/2024
html-keyboard-response,19,34575,0.0-8.0-2.0,,,,delaylearn,learning,feedback_duration_window,NmHCyEPpkngdEMJqampJPnMsiNk2,NmHCyEPpkngdEMJqampJPnMsiNk2,,,,,,,,,,,,,,,,,,3000.0,,,,59d65ad8e2762800015eb51b,09:09:47,27/02/2024
html-keyboard-response,20,36091,0.0-8.0-3.0,,<div style='margin:auto;width: auto; font-size: 150%'><span style='font-weight: bold; font-size: 100px; color: red;'>0 points!</span><br><br></div>,,delaylearn,learning,feedback_image_window,NmHCyEPpkngdEMJqampJPnMsiNk2,NmHCyEPpkngdEMJqampJPnMsiNk2,,,,,,,,,,,,,,,,,,,,,,59d65ad8e2762800015eb51b,09:09:47,27/02/2024
html-keyboard-response,21,36603,0.0-9.0-0.0,,,,,,mood_trial_fixation,NmHCyEPpkngdEMJqampJPnMsiNk2,,,,,,,,,,,,,,,,,,,,,,,59d65ad8e2762800015eb51b,09:09:47,27/02/2024
lmdlab-html-vas-response,22,44158,0.0-9.0-1.0,6500.0,How happy are you right now?,0.5038821018415803,delaylearn,learning,mood_trial,NmHCyEPpkngdEMJqampJPnMsiNk2,NmHCyEPpkngdEMJqampJPnMsiNk2,,,,,,,,,,,,,,,,,,,,"['Very unhappy', 'Very happy']",,59d65ad8e2762800015eb51b,09:09:47,27/02/2024
html-keyboard-response,23,45980,0.0-10.0,,"<div style=""font-size:100px;"">+</div>",,delaylearn,learning,ITI,NmHCyEPpkngdEMJqampJPnMsiNk2,NmHCyEPpkngdEMJqampJPnMsiNk2,,,,,,,,,,,,,,,,,,,1809.0,,,59d65ad8e2762800015eb51b,09:09:47,27/02/2024
html-keyboard-response,24,46870,0.0-11.0-0.0,888.0,"<div style=""display: flex; flex-direction: column; align-items: center; margin-top: -40px;""><img src=""images/demo_images/pattern_1.png"" style=""width: 234px; height: 230px; margin-top: -50px;""><div style=""display: flex; justify-content: space-between; margin-top: 33px;""><img src=""images/demo_images/choice_trial_2.png"" style=""width: 408px; height: 417px; margin-right: 200px;""><img src=""images/demo_images/choice_trial_1.png"" style=""width: 408px; height: 417px;""></div></div>",j,delaylearn,learning,trial,NmHCyEPpkngdEMJqampJPnMsiNk2,NmHCyEPpkngdEMJqampJPnMsiNk2,4.0,images/demo_images/choice_trial_2.png,images/demo_images/choice_trial_1.png,images/demo_images/pattern_1.png,j,j,3000.0,2.0,1.0,20.0,1.0,5.0,1.0,1.0,1.0,20.0,,,,,,59d65ad8e2762800015eb51b,09:09:47,27/02/2024
html-keyboard-response,25,47876,0.0-11.0-1.0,,"<div style=""display: flex; flex-direction: column; align-items: center; margin-top: -40px;""><img src=""images/demo_images/pattern_1.png"" style=""width: 234px; height: 230px; margin-top: -50px;""><div style=""display: flex; justify-content: space-between; margin-top: 33px;""><img src=""images/demo_images/choice_trial_1.png"" style=""width: 408px; height: 417px; margin-left:608px;""></div></div>",,delaylearn,learning,display_response,NmHCyEPpkngdEMJqampJPnMsiNk2,NmHCyEPpkngdEMJqampJPnMsiNk2,,,,,,,,,,,,,,,,,chosen stimuli: images/demo_images/choice_trial_1.png,,,,,59d65ad8e2762800015eb51b,09:09:47,27/02/2024
html-keyboard-response,26,50886,0.0-11.0-2.0,,,,delaylearn,learning,feedback_duration_window,NmHCyEPpkngdEMJqampJPnMsiNk2,NmHCyEPpkngdEMJqampJPnMsiNk2,,,,,,,,,,,,,,,,,,3000.0,,,,59d65ad8e2762800015eb51b,09:09:47,27/02/2024
html-keyboard-response,27,52414,0.0-11.0-3.0,,<div style='margin:auto;width: auto; font-size: 150%'><span style='font-weight: bold; font-size: 100px; color: green;'>+10 points!</span><br><br></div>,,delaylearn,learning,feedback_image_window,NmHCyEPpkngdEMJqampJPnMsiNk2,NmHCyEPpkngdEMJqampJPnMsiNk2,,,,,,,,,,,,,,,,,,,,,,59d65ad8e2762800015eb51b,09:09:47,27/02/2024
html-keyboard-response,28,54682,0.0-12.0,,"<div style=""font-size:100px;"">+</div>",,delaylearn,learning,ITI,NmHCyEPpkngdEMJqampJPnMsiNk2,NmHCyEPpkngdEMJqampJPnMsiNk2,,,,,,,,,,,,,,,,,,,2258.0,,,59d65ad8e2762800015eb51b,09:09:47,27/02/2024
html-keyboard-response,29,56676,0.0-13.0-0.0,1991.2000000476837,"<div style=""display: flex; flex-direction: column; align-items: center; margin-top: -40px;""><img src=""images/demo_images/pattern_1.png"" style=""width: 234px; height: 230px; margin-top: -50px;""><div style=""display: flex; justify-content: space-between; margin-top: 33px;""><img src=""images/demo_images/choice_trial_1.png"" style=""width: 408px; height: 417px; margin-right: 200px;""><img src=""images/demo_images/choice_trial_2.png"" style=""width: 408px; height: 417px;""></div></div>",f,delaylearn,learning,trial,NmHCyEPpkngdEMJqampJPnMsiNk2,NmHCyEPpkngdEMJqampJPnMsiNk2,4.0,images/demo_images/choice_trial_1.png,images/demo_images/choice_trial_2.png,images/demo_images/pattern_1.png,f,f,3000.0,1.0,2.0,20.0,0.0,6.0,1.0,1.0,1.0,30.0,,,,,,59d65ad8e2762800015eb51b,09:09:47,27/02/2024
html-keyboard-response,30,57694,0.0-13.0-1.0,,"<div style=""display: flex; flex-direction: column; align-items: center; margin-top: -40px;""><img src=""images/demo_images/pattern_1.png"" style=""width: 234px; height: 230px; margin-top: -50px;""><div style=""display: flex; justify-content: space-between; margin-top: 33px;""><img src=""images/demo_images/choice_trial_1.png"" style=""width: 408px; height: 417px; margin-right: 608px;""></div></div>",,delaylearn,learning,display_response,NmHCyEPpkngdEMJqampJPnMsiNk2,NmHCyEPpkngdEMJqampJPnMsiNk2,,,,,,,,,,,,,,,,,chosen stimuli: images/demo_images/choice_trial_1.png,,,,,59d65ad8e2762800015eb51b,09:09:47,27/02/2024
html-keyboard-response,31,60699,0.0-13.0-2.0,,,,delaylearn,learning,feedback_duration_window,NmHCyEPpkngdEMJqampJPnMsiNk2,NmHCyEPpkngdEMJqampJPnMsiNk2,,,,,,,,,,,,,,,,,,3000.0,,,,59d65ad8e2762800015eb51b,09:09:47,27/02/2024
html-keyboard-response,32,62208,0.0-13.0-3.0,,<div style='margin:auto;width: auto; font-size: 150%'><span style='font-weight: bold; font-size: 100px; color: green;'>+10 points!</span><br><br></div>,,delaylearn,learning,feedback_image_window,NmHCyEPpkngdEMJqampJPnMsiNk2,NmHCyEPpkngdEMJqampJPnMsiNk2,,,,,,,,,,,,,,,,,,,,,,59d65ad8e2762800015eb51b,09:09:47,27/02/2024
html-button-response,33,87898,0.0-14.0,25687.599999904633,"
  <div style=""display: flex; align-items: center; justify-content: center; height: 80vh;"">
  <div>
          <img src=""images/inst_demo_finish.png"" style=""width: 80vw; height:auto;"">
          <br><br>
      </div>
      <br><br>
  </div>",0,,,,NmHCyEPpkngdEMJqampJPnMsiNk2,,,,,,,,,,,,,,,,,,,,,,,59d65ad8e2762800015eb51b,09:09:47,27/02/2024
html-keyboard-response,34,102288,0.0-15.0,14388.600000143051,"
  <div style=""display: flex; align-items: center; justify-content: center; height: 80vh;"">
  <div>
          <img src=""images/inst_6.png"" style=""width: 80vw; height:auto;"">
          <br><br>
      </div>
      <br><br>
  </div>",f,,,,NmHCyEPpkngdEMJqampJPnMsiNk2,,,,,,,,,,,,,,,,,,,,,,,59d65ad8e2762800015eb51b,09:09:47,27/02/2024
html-keyboard-response,35,105293,0.0-16.0,,"<div style=""font-size:100px;"">+</div>",,delaylearn,learning,pre_fixation,NmHCyEPpkngdEMJqampJPnMsiNk2,,,,,,,,,,,,,,,,,,,,,,,59d65ad8e2762800015eb51b,09:09:47,27/02/2024
html-keyboard-response,36,106900,0.0-17.0,,"<div style=""font-size:100px;"">+</div>",,delaylearn,learning,ITI,NmHCyEPpkngdEMJqampJPnMsiNk2,NmHCyEPpkngdEMJqampJPnMsiNk2,,,,,,,,,,,,,,,,,,,1589.0,,,59d65ad8e2762800015eb51b,09:09:47,27/02/2024
html-keyboard-response,37,107600,0.0-18.0-0.0,697.4000000953674,"<div style=""display: flex; flex-direction: column; align-items: center; margin-top: -40px;""><img src=""images/pattern_3.png"" style=""width: 234px; height: 230px; margin-top: -50px;""><div style=""display: flex; justify-content: space-between; margin-top: 33px;""><img src=""images/choice_trial_16.png"" style=""width: 408px; height: 417px; margin-right: 200px;""><img src=""images/choice_trial_6.png"" style=""width: 408px; height: 417px;""></div></div>",f,delaylearn,learning,trial,NmHCyEPpkngdEMJqampJPnMsiNk2,NmHCyEPpkngdEMJqampJPnMsiNk2,4.0,images/choice_trial_16.png,images/choice_trial_6.png,images/pattern_3.png,f,f,7000.0,16.0,6.0,2.0,0.0,7.0,1.0,1.0,16.0,40.0,,,,,,59d65ad8e2762800015eb51b,09:09:47,27/02/2024
html-keyboard-response,38,108603,0.0-18.0-1.0,,"<div style=""display: flex; flex-direction: column; align-items: center; margin-top: -40px;""><img src=""images/pattern_3.png"" style=""width: 234px; height: 230px; margin-top: -50px;""><div style=""display: flex; justify-content: space-between; margin-top: 33px;""><img src=""images/choice_trial_16.png"" style=""width: 408px; height: 417px; margin-right: 608px;""></div></div>",,delaylearn,learning,display_response,NmHCyEPpkngdEMJqampJPnMsiNk2,NmHCyEPpkngdEMJqampJPnMsiNk2,,,,,,,,,,,,,,,,,chosen stimuli: images/choice_trial_16.png,,,,,59d65ad8e2762800015eb51b,09:09:47,27/02/2024
html-keyboard-response,39,115621,0.0-18.0-2.0,,,,delaylearn,learning,feedback_duration_window,NmHCyEPpkngdEMJqampJPnMsiNk2,NmHCyEPpkngdEMJqampJPnMsiNk2,,,,,,,,,,,,,,,,,,7000.0,,,,59d65ad8e2762800015eb51b,09:09:47,27/02/2024
html-keyboard-response,40,117131,0.0-18.0-3.0,,<div style='margin:auto;width: auto; font-size: 150%'><span style='font-weight: bold; font-size: 100px; color: green;'>+10 points!</span><br><br></div>,,delaylearn,learning,feedback_image_window,NmHCyEPpkngdEMJqampJPnMsiNk2,NmHCyEPpkngdEMJqampJPnMsiNk2,,,,,,,,,,,,,,,,,,,,,,59d65ad8e2762800015eb51b,09:09:47,27/02/2024
html-keyboard-response,41,118953,0.0-19.0,,"<div style=""font-size:100px;"">+</div>",,delaylearn,learning,ITI,NmHCyEPpkngdEMJqampJPnMsiNk2,NmHCyEPpkngdEMJqampJPnMsiNk2,,,,,,,,,,,,,,,,,,,1807.0,,,59d65ad8e2762800015eb51b,09:09:47,27/02/2024
html-keyboard-response,42,120348,0.0-20.0-0.0,1392.2999999523163,"<div style=""display: flex; flex-direction: column; align-items: center; margin-top: -40px;""><img src=""images/pattern_7.png"" style=""width: 234px; height: 230px; margin-top: -50px;""><div style=""display: flex; justify-content: space-between; margin-top: 33px;""><img src=""images/choice_trial_4.png"" style=""width: 408px; height: 417px; margin-right: 200px;""><img src=""images/choice_trial_13.png"" style=""width: 408px; height: 417px;""></div></div>",j,delaylearn,learning,trial,NmHCyEPpkngdEMJqampJPnMsiNk2,NmHCyEPpkngdEMJqampJPnMsiNk2,4.0,images/choice_trial_4.png,images/choice_trial_13.png,images/pattern_7.png,j,j,750.0,4.0,13.0,6.0,1.0,8.0,1.0,1.0,13.0,50.0,,,,,,59d65ad8e2762800015eb51b,09:09:47,27/02/2024
html-keyboard-response,43,121360,0.0-20.0-1.0,,"<div style=""display: flex; flex-direction: column; align-items: center; margin-top: -40px;""><img src=""images/pattern_7.png"" style=""width: 234px; height: 230px; margin-top: -50px;""><div style=""display: flex; justify-content: space-between; margin-top: 33px;""><img src=""images/choice_trial_13.png"" style=""width: 408px; height: 417px; margin-left:608px;""></div></div>",,delaylearn,learning,display_response,NmHCyEPpkngdEMJqampJPnMsiNk2,NmHCyEPpkngdEMJqampJPnMsiNk2,,,,,,,,,,,,,,,,,chosen stimuli: images/choice_trial_13.png,,,,,59d65ad8e2762800015eb51b,09:09:47,27/02/2024
html-keyboard-response,44,122124,0.0-20.0-2.0,,,,delaylearn,learning,feedback_duration_window,NmHCyEPpkngdEMJqampJPnMsiNk2,NmHCyEPpkngdEMJqampJPnMsiNk2,,,,,,,,,,,,,,,,,,750.0,,,,59d65ad8e2762800015eb51b,09:09:47,27/02/2024
html-keyboard-response,45,123626,0.0-20.0-3.0,,<div style='margin:auto;width: auto; font-size: 150%'><span style='font-weight: bold; font-size: 100px; color: green;'>+10 points!</span><br><br></div>,,delaylearn,learning,feedback_image_window,NmHCyEPpkngdEMJqampJPnMsiNk2,NmHCyEPpkngdEMJqampJPnMsiNk2,,,,,,,,,,,,,,,,,,,,,,59d65ad8e2762800015eb51b,09:09:47,27/02/2024
html-keyboard-response,46,126045,0.0-21.0,,"<div style=""font-size:100px;"">+</div>",,delaylearn,learning,ITI,NmHCyEPpkngdEMJqampJPnMsiNk2,NmHCyEPpkngdEMJqampJPnMsiNk2,,,,,,,,,,,,,,,,,,,2403.0,,,59d65ad8e2762800015eb51b,09:09:47,27/02/2024
html-keyboard-response,47,127531,0.0-22.0-0.0,1483.9000000953674,"<div style=""display: flex; flex-direction: column; align-items: center; margin-top: -40px;""><img src=""images/pattern_4.png"" style=""width: 234px; height: 230px; margin-top: -50px;""><div style=""display: flex; justify-content: space-between; margin-top: 33px;""><img src=""images/choice_trial_8.png"" style=""width: 408px; height: 417px; margin-right: 200px;""><img src=""images/choice_trial_7.png"" style=""width: 408px; height: 417px;""></div></div>",f,delaylearn,learning,trial,NmHCyEPpkngdEMJqampJPnMsiNk2,NmHCyEPpkngdEMJqampJPnMsiNk2,4.0,images/choice_trial_8.png,images/choice_trial_7.png,images/pattern_4.png,f,f,7000.0,8.0,7.0,3.0,0.0,9.0,1.0,1.0,8.0,60.0,,,,,,59d65ad8e2762800015eb51b,09:09:47,27/02/2024
html-keyboard-response,48,128536,0.0-22.0-1.0,,"<div style=""display: flex; flex-direction: column; align-items: center; margin-top: -40px;""><img src=""images/pattern_4.png"" style=""width: 234px; height: 230px; margin-top: -50px;""><div style=""display: flex; justify-content: space-between; margin-top: 33px;""><img src=""images/choice_trial_8.png"" style=""width: 408px; height: 417px; margin-right: 608px;""></div></div>",,delaylearn,learning,display_response,NmHCyEPpkngdEMJqampJPnMsiNk2,NmHCyEPpkngdEMJqampJPnMsiNk2,,,,,,,,,,,,,,,,,chosen stimuli: images/choice_trial_8.png,,,,,59d65ad8e2762800015eb51b,09:09:47,27/02/2024
html-keyboard-response,49,135539,0.0-22.0-2.0,,,,delaylearn,learning,feedback_duration_window,NmHCyEPpkngdEMJqampJPnMsiNk2,NmHCyEPpkngdEMJqampJPnMsiNk2,,,,,,,,,,,,,,,,,,7000.0,,,,59d65ad8e2762800015eb51b,09:09:47,27/02/2024
html-keyboard-response,50,137048,0.0-22.0-3.0,,<div style='margin:auto;width: auto; font-size: 150%'><span style='font-weight: bold; font-size: 100px; color: green;'>+10 points!</span><br><br></div>,,delaylearn,learning,feedback_image_window,NmHCyEPpkngdEMJqampJPnMsiNk2,NmHCyEPpkngdEMJqampJPnMsiNk2,,,,,,,,,,,,,,,,,,,,,,59d65ad8e2762800015eb51b,09:09:47,27/02/2024
html-keyboard-response,51,138871,0.0-23.0,,"<div style=""font-size:100px;"">+</div>",,delaylearn,learning,ITI,NmHCyEPpkngdEMJqampJPnMsiNk2,NmHCyEPpkngdEMJqampJPnMsiNk2,,,,,,,,,,,,,,,,,,,1810.0,,,59d65ad8e2762800015eb51b,09:09:47,27/02/2024
html-keyboard-response,52,140262,0.0-24.0-0.0,1388.7000000476837,"<div style=""display: flex; flex-direction: column; align-items: center; margin-top: -40px;""><img src=""images/pattern_5.png"" style=""width: 234px; height: 230px; margin-top: -50px;""><div style=""display: flex; justify-content: space-between; margin-top: 33px;""><img src=""images/choice_trial_15.png"" style=""width: 408px; height: 417px; margin-right: 200px;""><img src=""images/choice_trial_5.png"" style=""width: 408px; height: 417px;""></div></div>",j,delaylearn,learning,trial,NmHCyEPpkngdEMJqampJPnMsiNk2,NmHCyEPpkngdEMJqampJPnMsiNk2,4.0,images/choice_trial_15.png,images/choice_trial_5.png,images/pattern_5.png,j,j,750.0,15.0,5.0,4.0,1.0,10.0,1.0,1.0,5.0,70.0,,,,,,59d65ad8e2762800015eb51b,09:09:47,27/02/2024
html-keyboard-response,53,141274,0.0-24.0-1.0,,"<div style=""display: flex; flex-direction: column; align-items: center; margin-top: -40px;""><img src=""images/pattern_5.png"" style=""width: 234px; height: 230px; margin-top: -50px;""><div style=""display: flex; justify-content: space-between; margin-top: 33px;""><img src=""images/choice_trial_5.png"" style=""width: 408px; height: 417px; margin-left:608px;""></div></div>",,delaylearn,learning,display_response,NmHCyEPpkngdEMJqampJPnMsiNk2,NmHCyEPpkngdEMJqampJPnMsiNk2,,,,,,,,,,,,,,,,,chosen stimuli: images/choice_trial_5.png,,,,,59d65ad8e2762800015eb51b,09:09:47,27/02/2024
html-keyboard-response,54,142034,0.0-24.0-2.0,,,,delaylearn,learning,feedback_duration_window,NmHCyEPpkngdEMJqampJPnMsiNk2,NmHCyEPpkngdEMJqampJPnMsiNk2,,,,,,,,,,,,,,,,,,750.0,,,,59d65ad8e2762800015eb51b,09:09:47,27/02/2024
html-keyboard-response,55,143539,0.0-24.0-3.0,,<div style='margin:auto;width: auto; font-size: 150%'><span style='font-weight: bold; font-size: 100px; color: green;'>+10 points!</span><br><br></div>,,delaylearn,learning,feedback_image_window,NmHCyEPpkngdEMJqampJPnMsiNk2,NmHCyEPpkngdEMJqampJPnMsiNk2,,,,,,,,,,,,,,,,,,,,,,59d65ad8e2762800015eb51b,09:09:47,27/02/2024
html-keyboard-response,56,145552,0.0-25.0,,"<div style=""font-size:100px;"">+</div>",,delaylearn,learning,ITI,NmHCyEPpkngdEMJqampJPnMsiNk2,NmHCyEPpkngdEMJqampJPnMsiNk2,,,,,,,,,,,,,,,,,,,2009.0,,,59d65ad8e2762800015eb51b,09:09:47,27/02/2024
html-keyboard-response,57,146954,0.0-26.0-0.0,1399.5999999046326,"<div style=""display: flex; flex-direction: column; align-items: center; margin-top: -40px;""><img src=""images/pattern_6.png"" style=""width: 234px; height: 230px; margin-top: -50px;""><div style=""display: flex; justify-content: space-between; margin-top: 33px;""><img src=""images/choice_trial_10.png"" style=""width: 408px; height: 417px; margin-right: 200px;""><img src=""images/choice_trial_3.png"" style=""width: 408px; height: 417px;""></div></div>",f,delaylearn,learning,trial,NmHCyEPpkngdEMJqampJPnMsiNk2,NmHCyEPpkngdEMJqampJPnMsiNk2,4.0,images/choice_trial_10.png,images/choice_trial_3.png,images/pattern_6.png,j,f,750.0,10.0,3.0,5.0,0.0,11.0,1.0,0.0,10.0,70.0,,,,,,59d65ad8e2762800015eb51b,09:09:47,27/02/2024
html-keyboard-response,58,147962,0.0-26.0-1.0,,"<div style=""display: flex; flex-direction: column; align-items: center; margin-top: -40px;""><img src=""images/pattern_6.png"" style=""width: 234px; height: 230px; margin-top: -50px;""><div style=""display: flex; justify-content: space-between; margin-top: 33px;""><img src=""images/choice_trial_10.png"" style=""width: 408px; height: 417px; margin-right: 608px;""></div></div>",,delaylearn,learning,display_response,NmHCyEPpkngdEMJqampJPnMsiNk2,NmHCyEPpkngdEMJqampJPnMsiNk2,,,,,,,,,,,,,,,,,chosen stimuli: images/choice_trial_10.png,,,,,59d65ad8e2762800015eb51b,09:09:47,27/02/2024
html-keyboard-response,59,148719,0.0-26.0-2.0,,,,delaylearn,learning,feedback_duration_window,NmHCyEPpkngdEMJqampJPnMsiNk2,NmHCyEPpkngdEMJqampJPnMsiNk2,,,,,,,,,,,,,,,,,,750.0,,,,59d65ad8e2762800015eb51b,09:09:47,27/02/2024
html-keyboard-response,60,150227,0.0-26.0-3.0,,<div style='margin:auto;width: auto; font-size: 150%'><span style='font-weight: bold; font-size: 100px; color: red;'>0 points!</span><br><br></div>,,delaylearn,learning,feedback_image_window,NmHCyEPpkngdEMJqampJPnMsiNk2,NmHCyEPpkngdEMJqampJPnMsiNk2,,,,,,,,,,,,,,,,,,,,,,59d65ad8e2762800015eb51b,09:09:47,27/02/2024
html-keyboard-response,61,150733,0.0-27.0-0.0,,,,,,mood_trial_fixation,NmHCyEPpkngdEMJqampJPnMsiNk2,,,,,,,,,,,,,,,,,,,,,,,59d65ad8e2762800015eb51b,09:09:47,27/02/2024
lmdlab-html-vas-response,62,159000,0.0-27.0-1.0,7260.0,How happy are you right now?,0.5193141998802373,delaylearn,learning,mood_trial,NmHCyEPpkngdEMJqampJPnMsiNk2,NmHCyEPpkngdEMJqampJPnMsiNk2,,,,,,,,,,,,,,,,,,,,"['Very unhappy', 'Very happy']",,59d65ad8e2762800015eb51b,09:09:47,27/02/2024
html-keyboard-response,63,160908,0.0-28.0,,"<div style=""font-size:100px;"">+</div>",,delaylearn,learning,ITI,NmHCyEPpkngdEMJqampJPnMsiNk2,NmHCyEPpkngdEMJqampJPnMsiNk2,,,,,,,,,,,,,,,,,,,1893.0,,,59d65ad8e2762800015eb51b,09:09:47,27/02/2024
html-keyboard-response,64,162157,0.0-29.0-0.0,1246.2999999523163,"<div style=""display: flex; flex-direction: column; align-items: center; margin-top: -40px;""><img src=""images/pattern_1.png"" style=""width: 234px; height: 230px; margin-top: -50px;""><div style=""display: flex; justify-content: space-between; margin-top: 33px;""><img src=""images/choice_trial_9.png"" style=""width: 408px; height: 417px; margin-right: 200px;""><img src=""images/choice_trial_1.png"" style=""width: 408px; height: 417px;""></div></div>",j,delaylearn,learning,trial,NmHCyEPpkngdEMJqampJPnMsiNk2,NmHCyEPpkngdEMJqampJPnMsiNk2,4.0,images/choice_trial_9.png,images/choice_trial_1.png,images/pattern_1.png,j,j,7000.0,9.0,1.0,1.0,1.0,12.0,1.0,1.0,1.0,80.0,,,,,,59d65ad8e2762800015eb51b,09:09:47,27/02/2024
html-keyboard-response,65,163171,0.0-29.0-1.0,,"<div style=""display: flex; flex-direction: column; align-items: center; margin-top: -40px;""><img src=""images/pattern_1.png"" style=""width: 234px; height: 230px; margin-top: -50px;""><div style=""display: flex; justify-content: space-between; margin-top: 33px;""><img src=""images/choice_trial_1.png"" style=""width: 408px; height: 417px; margin-left:608px;""></div></div>",,delaylearn,learning,display_response,NmHCyEPpkngdEMJqampJPnMsiNk2,NmHCyEPpkngdEMJqampJPnMsiNk2,,,,,,,,,,,,,,,,,chosen stimuli: images/choice_trial_1.png,,,,,59d65ad8e2762800015eb51b,09:09:47,27/02/2024
html-keyboard-response,66,170183,0.0-29.0-2.0,,,,delaylearn,learning,feedback_duration_window,NmHCyEPpkngdEMJqampJPnMsiNk2,NmHCyEPpkngdEMJqampJPnMsiNk2,,,,,,,,,,,,,,,,,,7000.0,,,,59d65ad8e2762800015eb51b,09:09:47,27/02/2024
html-keyboard-response,67,171696,0.0-29.0-3.0,,<div style='margin:auto;width: auto; font-size: 150%'><span style='font-weight: bold; font-size: 100px; color: green;'>+10 points!</span><br><br></div>,,delaylearn,learning,feedback_image_window,NmHCyEPpkngdEMJqampJPnMsiNk2,NmHCyEPpkngdEMJqampJPnMsiNk2,,,,,,,,,,,,,,,,,,,,,,59d65ad8e2762800015eb51b,09:09:47,27/02/2024
html-keyboard-response,68,173579,0.0-30.0,,"<div style=""font-size:100px;"">+</div>",,delaylearn,learning,ITI,NmHCyEPpkngdEMJqampJPnMsiNk2,NmHCyEPpkngdEMJqampJPnMsiNk2,,,,,,,,,,,,,,,,,,,1857.0,,,59d65ad8e2762800015eb51b,09:09:47,27/02/2024
html-keyboard-response,69,174816,0.0-31.0-0.0,1235.7000000476837,"<div style=""display: flex; flex-direction: column; align-items: center; margin-top: -40px;""><img src=""images/pattern_3.png"" style=""width: 234px; height: 230px; margin-top: -50px;""><div style=""display: flex; justify-content: space-between; margin-top: 33px;""><img src=""images/choice_trial_6.png"" style=""width: 408px; height: 417px; margin-right: 200px;""><img src=""images/choice_trial_16.png"" style=""width: 408px; height: 417px;""></div></div>",j,delaylearn,learning,trial,NmHCyEPpkngdEMJqampJPnMsiNk2,NmHCyEPpkngdEMJqampJPnMsiNk2,4.0,images/choice_trial_6.png,images/choice_trial_16.png,images/pattern_3.png,f,j,7000.0,6.0,16.0,2.0,1.0,13.0,1.0,0.0,16.0,80.0,,,,,,59d65ad8e2762800015eb51b,09:09:47,27/02/2024
html-keyboard-response,70,175820,0.0-31.0-1.0,,"<div style=""display: flex; flex-direction: column; align-items: center; margin-top: -40px;""><img src=""images/pattern_3.png"" style=""width: 234px; height: 230px; margin-top: -50px;""><div style=""display: flex; justify-content: space-between; margin-top: 33px;""><img src=""images/choice_trial_16.png"" style=""width: 408px; height: 417px; margin-left:608px;""></div></div>",,delaylearn,learning,display_response,NmHCyEPpkngdEMJqampJPnMsiNk2,NmHCyEPpkngdEMJqampJPnMsiNk2,,,,,,,,,,,,,,,,,chosen stimuli: images/choice_trial_16.png,,,,,59d65ad8e2762800015eb51b,09:09:47,27/02/2024
html-keyboard-response,71,182824,0.0-31.0-2.0,,,,delaylearn,learning,feedback_duration_window,NmHCyEPpkngdEMJqampJPnMsiNk2,NmHCyEPpkngdEMJqampJPnMsiNk2,,,,,,,,,,,,,,,,,,7000.0,,,,59d65ad8e2762800015eb51b,09:09:47,27/02/2024
html-keyboard-response,72,184328,0.0-31.0-3.0,,<div style='margin:auto;width: auto; font-size: 150%'><span style='font-weight: bold; font-size: 100px; color: red;'>0 points!</span><br><br></div>,,delaylearn,learning,feedback_image_window,NmHCyEPpkngdEMJqampJPnMsiNk2,NmHCyEPpkngdEMJqampJPnMsiNk2,,,,,,,,,,,,,,,,,,,,,,59d65ad8e2762800015eb51b,09:09:47,27/02/2024
html-keyboard-response,73,186520,0.0-32.0,,"<div style=""font-size:100px;"">+</div>",,delaylearn,learning,ITI,NmHCyEPpkngdEMJqampJPnMsiNk2,NmHCyEPpkngdEMJqampJPnMsiNk2,,,,,,,,,,,,,,,,,,,2187.0,,,59d65ad8e2762800015eb51b,09:09:47,27/02/2024
html-keyboard-response,74,187748,0.0-33.0-0.0,1225.2000000476837,"<div style=""display: flex; flex-direction: column; align-items: center; margin-top: -40px;""><img src=""images/pattern_5.png"" style=""width: 234px; height: 230px; margin-top: -50px;""><div style=""display: flex; justify-content: space-between; margin-top: 33px;""><img src=""images/choice_trial_5.png"" style=""width: 408px; height: 417px; margin-right: 200px;""><img src=""images/choice_trial_15.png"" style=""width: 408px; height: 417px;""></div></div>",j,delaylearn,learning,trial,NmHCyEPpkngdEMJqampJPnMsiNk2,NmHCyEPpkngdEMJqampJPnMsiNk2,4.0,images/choice_trial_5.png,images/choice_trial_15.png,images/pattern_5.png,f,f,750.0,5.0,15.0,4.0,0.0,14.0,0.0,0.0,15.0,80.0,,,,,,59d65ad8e2762800015eb51b,09:09:47,27/02/2024
html-keyboard-response,75,188756,0.0-33.0-1.0,,"<div style=""display: flex; flex-direction: column; align-items: center; margin-top: -40px;""><img src=""images/pattern_5.png"" style=""width: 234px; height: 230px; margin-top: -50px;""><div style=""display: flex; justify-content: space-between; margin-top: 33px;""><img src=""images/choice_trial_15.png"" style=""width: 408px; height: 417px; margin-left:608px;""></div></div>",,delaylearn,learning,display_response,NmHCyEPpkngdEMJqampJPnMsiNk2,NmHCyEPpkngdEMJqampJPnMsiNk2,,,,,,,,,,,,,,,,,chosen stimuli: images/choice_trial_15.png,,,,,59d65ad8e2762800015eb51b,09:09:47,27/02/2024
html-keyboard-response,76,189518,0.0-33.0-2.0,,,,delaylearn,learning,feedback_duration_window,NmHCyEPpkngdEMJqampJPnMsiNk2,NmHCyEPpkngdEMJqampJPnMsiNk2,,,,,,,,,,,,,,,,,,750.0,,,,59d65ad8e2762800015eb51b,09:09:47,27/02/2024
html-keyboard-response,77,191021,0.0-33.0-3.0,,<div style='margin:auto;width: auto; font-size: 150%'><span style='font-weight: bold; font-size: 100px; color: red;'>0 points!</span><br><br></div>,,delaylearn,learning,feedback_image_window,NmHCyEPpkngdEMJqampJPnMsiNk2,NmHCyEPpkngdEMJqampJPnMsiNk2,,,,,,,,,,,,,,,,,,,,,,59d65ad8e2762800015eb51b,09:09:47,27/02/2024
html-keyboard-response,78,191535,0.0-34.0-0.0,,,,,,mood_trial_fixation,NmHCyEPpkngdEMJqampJPnMsiNk2,,,,,,,,,,,,,,,,,,,,,,,59d65ad8e2762800015eb51b,09:09:47,27/02/2024
lmdlab-html-vas-response,79,198060,0.0-34.0-1.0,5518.0,How happy are you right now?,0.4845919792932591,delaylearn,learning,mood_trial,NmHCyEPpkngdEMJqampJPnMsiNk2,NmHCyEPpkngdEMJqampJPnMsiNk2,,,,,,,,,,,,,,,,,,,,"['Very unhappy', 'Very happy']",,59d65ad8e2762800015eb51b,09:09:47,27/02/2024
html-keyboard-response,80,200460,0.0-35.0,,"<div style=""font-size:100px;"">+</div>",,delaylearn,learning,ITI,NmHCyEPpkngdEMJqampJPnMsiNk2,NmHCyEPpkngdEMJqampJPnMsiNk2,,,,,,,,,,,,,,,,,,,2395.0,,,59d65ad8e2762800015eb51b,09:09:47,27/02/2024
html-keyboard-response,81,201647,0.0-36.0-0.0,1184.2999999523163,"<div style=""display: flex; flex-direction: column; align-items: center; margin-top: -40px;""><img src=""images/pattern_6.png"" style=""width: 234px; height: 230px; margin-top: -50px;""><div style=""display: flex; justify-content: space-between; margin-top: 33px;""><img src=""images/choice_trial_10.png"" style=""width: 408px; height: 417px; margin-right: 200px;""><img src=""images/choice_trial_3.png"" style=""width: 408px; height: 417px;""></div></div>",f,delaylearn,learning,trial,NmHCyEPpkngdEMJqampJPnMsiNk2,NmHCyEPpkngdEMJqampJPnMsiNk2,4.0,images/choice_trial_10.png,images/choice_trial_3.png,images/pattern_6.png,f,f,750.0,10.0,3.0,5.0,0.0,15.0,1.0,1.0,10.0,90.0,,,,,,59d65ad8e2762800015eb51b,09:09:47,27/02/2024
html-keyboard-response,82,202665,0.0-36.0-1.0,,"<div style=""display: flex; flex-direction: column; align-items: center; margin-top: -40px;""><img src=""images/pattern_6.png"" style=""width: 234px; height: 230px; margin-top: -50px;""><div style=""display: flex; justify-content: space-between; margin-top: 33px;""><img src=""images/choice_trial_10.png"" style=""width: 408px; height: 417px; margin-right: 608px;""></div></div>",,delaylearn,learning,display_response,NmHCyEPpkngdEMJqampJPnMsiNk2,NmHCyEPpkngdEMJqampJPnMsiNk2,,,,,,,,,,,,,,,,,chosen stimuli: images/choice_trial_10.png,,,,,59d65ad8e2762800015eb51b,09:09:47,27/02/2024
html-keyboard-response,83,203425,0.0-36.0-2.0,,,,delaylearn,learning,feedback_duration_window,NmHCyEPpkngdEMJqampJPnMsiNk2,NmHCyEPpkngdEMJqampJPnMsiNk2,,,,,,,,,,,,,,,,,,750.0,,,,59d65ad8e2762800015eb51b,09:09:47,27/02/2024
html-keyboard-response,84,204940,0.0-36.0-3.0,,<div style='margin:auto;width: auto; font-size: 150%'><span style='font-weight: bold; font-size: 100px; color: green;'>+10 points!</span><br><br></div>,,delaylearn,learning,feedback_image_window,NmHCyEPpkngdEMJqampJPnMsiNk2,NmHCyEPpkngdEMJqampJPnMsiNk2,,,,,,,,,,,,,,,,,,,,,,59d65ad8e2762800015eb51b,09:09:47,27/02/2024
html-keyboard-response,85,207221,0.0-37.0,,"<div style=""font-size:100px;"">+</div>",,delaylearn,learning,ITI,NmHCyEPpkngdEMJqampJPnMsiNk2,NmHCyEPpkngdEMJqampJPnMsiNk2,,,,,,,,,,,,,,,,,,,2276.0,,,59d65ad8e2762800015eb51b,09:09:47,27/02/2024
html-keyboard-response,86,208589,0.0-38.0-0.0,1365.3000001907349,"<div style=""display: flex; flex-direction: column; align-items: center; margin-top: -40px;""><img src=""images/pattern_4.png"" style=""width: 234px; height: 230px; margin-top: -50px;""><div style=""display: flex; justify-content: space-between; margin-top: 33px;""><img src=""images/choice_trial_7.png"" style=""width: 408px; height: 417px; margin-right: 200px;""><img src=""images/choice_trial_8.png"" style=""width: 408px; height: 417px;""></div></div>",j,delaylearn,learning,trial,NmHCyEPpkngdEMJqampJPnMsiNk2,NmHCyEPpkngdEMJqampJPnMsiNk2,4.0,images/choice_trial_7.png,images/choice_trial_8.png,images/pattern_4.png,j,j,7000.0,7.0,8.0,3.0,1.0,16.0,1.0,1.0,8.0,100.0,,,,,,59d65ad8e2762800015eb51b,09:09:47,27/02/2024
html-keyboard-response,87,209591,0.0-38.0-1.0,,"<div style=""display: flex; flex-direction: column; align-items: center; margin-top: -40px;""><img src=""images/pattern_4.png"" style=""width: 234px; height: 230px; margin-top: -50px;""><div style=""display: flex; justify-content: space-between; margin-top: 33px;""><img src=""images/choice_trial_8.png"" style=""width: 408px; height: 417px; margin-left:608px;""></div></div>",,delaylearn,learning,display_response,NmHCyEPpkngdEMJqampJPnMsiNk2,NmHCyEPpkngdEMJqampJPnMsiNk2,,,,,,,,,,,,,,,,,chosen stimuli: images/choice_trial_8.png,,,,,59d65ad8e2762800015eb51b,09:09:47,27/02/2024
html-keyboard-response,88,216601,0.0-38.0-2.0,,,,delaylearn,learning,feedback_duration_window,NmHCyEPpkngdEMJqampJPnMsiNk2,NmHCyEPpkngdEMJqampJPnMsiNk2,,,,,,,,,,,,,,,,,,7000.0,,,,59d65ad8e2762800015eb51b,09:09:47,27/02/2024
html-keyboard-response,89,218111,0.0-38.0-3.0,,<div style='margin:auto;width: auto; font-size: 150%'><span style='font-weight: bold; font-size: 100px; color: green;'>+10 points!</span><br><br></div>,,delaylearn,learning,feedback_image_window,NmHCyEPpkngdEMJqampJPnMsiNk2,NmHCyEPpkngdEMJqampJPnMsiNk2,,,,,,,,,,,,,,,,,,,,,,59d65ad8e2762800015eb51b,09:09:47,27/02/2024
html-keyboard-response,90,220524,0.0-39.0,,"<div style=""font-size:100px;"">+</div>",,delaylearn,learning,ITI,NmHCyEPpkngdEMJqampJPnMsiNk2,NmHCyEPpkngdEMJqampJPnMsiNk2,,,,,,,,,,,,,,,,,,,2405.0,,,59d65ad8e2762800015eb51b,09:09:47,27/02/2024
html-keyboard-response,91,221530,0.0-40.0-0.0,1003.2000000476837,"<div style=""display: flex; flex-direction: column; align-items: center; margin-top: -40px;""><img src=""images/pattern_7.png"" style=""width: 234px; height: 230px; margin-top: -50px;""><div style=""display: flex; justify-content: space-between; margin-top: 33px;""><img src=""images/choice_trial_13.png"" style=""width: 408px; height: 417px; margin-right: 200px;""><img src=""images/choice_trial_4.png"" style=""width: 408px; height: 417px;""></div></div>",j,delaylearn,learning,trial,NmHCyEPpkngdEMJqampJPnMsiNk2,NmHCyEPpkngdEMJqampJPnMsiNk2,4.0,images/choice_trial_13.png,images/choice_trial_4.png,images/pattern_7.png,j,f,750.0,13.0,4.0,6.0,0.0,17.0,0.0,1.0,4.0,110.0,,,,,,59d65ad8e2762800015eb51b,09:09:47,27/02/2024
html-keyboard-response,92,222546,0.0-40.0-1.0,,"<div style=""display: flex; flex-direction: column; align-items: center; margin-top: -40px;""><img src=""images/pattern_7.png"" style=""width: 234px; height: 230px; margin-top: -50px;""><div style=""display: flex; justify-content: space-between; margin-top: 33px;""><img src=""images/choice_trial_4.png"" style=""width: 408px; height: 417px; margin-left:608px;""></div></div>",,delaylearn,learning,display_response,NmHCyEPpkngdEMJqampJPnMsiNk2,NmHCyEPpkngdEMJqampJPnMsiNk2,,,,,,,,,,,,,,,,,chosen stimuli: images/choice_trial_4.png,,,,,59d65ad8e2762800015eb51b,09:09:47,27/02/2024
html-keyboard-response,93,223303,0.0-40.0-2.0,,,,delaylearn,learning,feedback_duration_window,NmHCyEPpkngdEMJqampJPnMsiNk2,NmHCyEPpkngdEMJqampJPnMsiNk2,,,,,,,,,,,,,,,,,,750.0,,,,59d65ad8e2762800015eb51b,09:09:47,27/02/2024
html-keyboard-response,94,224806,0.0-40.0-3.0,,<div style='margin:auto;width: auto; font-size: 150%'><span style='font-weight: bold; font-size: 100px; color: green;'>+10 points!</span><br><br></div>,,delaylearn,learning,feedback_image_window,NmHCyEPpkngdEMJqampJPnMsiNk2,NmHCyEPpkngdEMJqampJPnMsiNk2,,,,,,,,,,,,,,,,,,,,,,59d65ad8e2762800015eb51b,09:09:47,27/02/2024
html-keyboard-response,95,226322,0.0-41.0,,"<div style=""font-size:100px;"">+</div>",,delaylearn,learning,ITI,NmHCyEPpkngdEMJqampJPnMsiNk2,NmHCyEPpkngdEMJqampJPnMsiNk2,,,,,,,,,,,,,,,,,,,1511.0,,,59d65ad8e2762800015eb51b,09:09:47,27/02/2024
html-keyboard-response,96,227720,0.0-42.0-0.0,1395.1000001430511,"<div style=""display: flex; flex-direction: column; align-items: center; margin-top: -40px;""><img src=""images/pattern_1.png"" style=""width: 234px; height: 230px; margin-top: -50px;""><div style=""display: flex; justify-content: space-between; margin-top: 33px;""><img src=""images/choice_trial_1.png"" style=""width: 408px; height: 417px; margin-right: 200px;""><img src=""images/choice_trial_9.png"" style=""width: 408px; height: 417px;""></div></div>",j,delaylearn,learning,trial,NmHCyEPpkngdEMJqampJPnMsiNk2,NmHCyEPpkngdEMJqampJPnMsiNk2,4.0,images/choice_trial_1.png,images/choice_trial_9.png,images/pattern_1.png,f,f,7000.0,1.0,9.0,1.0,0.0,18.0,0.0,0.0,9.0,110.0,,,,,,59d65ad8e2762800015eb51b,09:09:47,27/02/2024
html-keyboard-response,97,228727,0.0-42.0-1.0,,"<div style=""display: flex; flex-direction: column; align-items: center; margin-top: -40px;""><img src=""images/pattern_1.png"" style=""width: 234px; height: 230px; margin-top: -50px;""><div style=""display: flex; justify-content: space-between; margin-top: 33px;""><img src=""images/choice_trial_9.png"" style=""width: 408px; height: 417px; margin-left:608px;""></div></div>",,delaylearn,learning,display_response,NmHCyEPpkngdEMJqampJPnMsiNk2,NmHCyEPpkngdEMJqampJPnMsiNk2,,,,,,,,,,,,,,,,,chosen stimuli: images/choice_trial_9.png,,,,,59d65ad8e2762800015eb51b,09:09:47,27/02/2024
html-keyboard-response,98,235743,0.0-42.0-2.0,,,,delaylearn,learning,feedback_duration_window,NmHCyEPpkngdEMJqampJPnMsiNk2,NmHCyEPpkngdEMJqampJPnMsiNk2,,,,,,,,,,,,,,,,,,7000.0,,,,59d65ad8e2762800015eb51b,09:09:47,27/02/2024
html-keyboard-response,99,237260,0.0-42.0-3.0,,<div style='margin:auto;width: auto; font-size: 150%'><span style='font-weight: bold; font-size: 100px; color: red;'>0 points!</span><br><br></div>,,delaylearn,learning,feedback_image_window,NmHCyEPpkngdEMJqampJPnMsiNk2,NmHCyEPpkngdEMJqampJPnMsiNk2,,,,,,,,,,,,,,,,,,,,,,59d65ad8e2762800015eb51b,09:09:47,27/02/2024
html-keyboard-response,100,238773,0.0-43.0,,"<div style=""font-size:100px;"">+</div>",,delaylearn,learning,ITI,NmHCyEPpkngdEMJqampJPnMsiNk2,NmHCyEPpkngdEMJqampJPnMsiNk2,,,,,,,,,,,,,,,,,,,1501.0,,,59d65ad8e2762800015eb51b,09:09:47,27/02/2024
html-keyboard-response,101,239836,0.0-44.0-0.0,1060.0,"<div style=""display: flex; flex-direction: column; align-items: center; margin-top: -40px;""><img src=""images/pattern_6.png"" style=""width: 234px; height: 230px; margin-top: -50px;""><div style=""display: flex; justify-content: space-between; margin-top: 33px;""><img src=""images/choice_trial_3.png"" style=""width: 408px; height: 417px; margin-right: 200px;""><img src=""images/choice_trial_10.png"" style=""width: 408px; height: 417px;""></div></div>",j,delaylearn,learning,trial,NmHCyEPpkngdEMJqampJPnMsiNk2,NmHCyEPpkngdEMJqampJPnMsiNk2,4.0,images/choice_trial_3.png,images/choice_trial_10.png,images/pattern_6.png,j,j,750.0,3.0,10.0,5.0,1.0,19.0,1.0,1.0,10.0,120.0,,,,,,59d65ad8e2762800015eb51b,09:09:47,27/02/2024
html-keyboard-response,102,240841,0.0-44.0-1.0,,"<div style=""display: flex; flex-direction: column; align-items: center; margin-top: -40px;""><img src=""images/pattern_6.png"" style=""width: 234px; height: 230px; margin-top: -50px;""><div style=""display: flex; justify-content: space-between; margin-top: 33px;""><img src=""images/choice_trial_10.png"" style=""width: 408px; height: 417px; margin-left:608px;""></div></div>",,delaylearn,learning,display_response,NmHCyEPpkngdEMJqampJPnMsiNk2,NmHCyEPpkngdEMJqampJPnMsiNk2,,,,,,,,,,,,,,,,,chosen stimuli: images/choice_trial_10.png,,,,,59d65ad8e2762800015eb51b,09:09:47,27/02/2024
html-keyboard-response,103,241595,0.0-44.0-2.0,,,,delaylearn,learning,feedback_duration_window,NmHCyEPpkngdEMJqampJPnMsiNk2,NmHCyEPpkngdEMJqampJPnMsiNk2,,,,,,,,,,,,,,,,,,750.0,,,,59d65ad8e2762800015eb51b,09:09:47,27/02/2024
html-keyboard-response,104,243102,0.0-44.0-3.0,,<div style='margin:auto;width: auto; font-size: 150%'><span style='font-weight: bold; font-size: 100px; color: green;'>+10 points!</span><br><br></div>,,delaylearn,learning,feedback_image_window,NmHCyEPpkngdEMJqampJPnMsiNk2,NmHCyEPpkngdEMJqampJPnMsiNk2,,,,,,,,,,,,,,,,,,,,,,59d65ad8e2762800015eb51b,09:09:47,27/02/2024
html-keyboard-response,105,245144,0.0-45.0,,"<div style=""font-size:100px;"">+</div>",,delaylearn,learning,ITI,NmHCyEPpkngdEMJqampJPnMsiNk2,NmHCyEPpkngdEMJqampJPnMsiNk2,,,,,,,,,,,,,,,,,,,2032.0,,,59d65ad8e2762800015eb51b,09:09:47,27/02/2024
html-keyboard-response,106,246253,0.0-46.0-0.0,1106.3999998569489,"<div style=""display: flex; flex-direction: column; align-items: center; margin-top: -40px;""><img src=""images/pattern_4.png"" style=""width: 234px; height: 230px; margin-top: -50px;""><div style=""display: flex; justify-content: space-between; margin-top: 33px;""><img src=""images/choice_trial_8.png"" style=""width: 408px; height: 417px; margin-right: 200px;""><img src=""images/choice_trial_7.png"" style=""width: 408px; height: 417px;""></div></div>",j,delaylearn,learning,trial,NmHCyEPpkngdEMJqampJPnMsiNk2,NmHCyEPpkngdEMJqampJPnMsiNk2,4.0,images/choice_trial_8.png,images/choice_trial_7.png,images/pattern_4.png,f,f,7000.0,8.0,7.0,3.0,0.0,20.0,0.0,0.0,7.0,120.0,,,,,,59d65ad8e2762800015eb51b,09:09:47,27/02/2024
html-keyboard-response,107,247260,0.0-46.0-1.0,,"<div style=""display: flex; flex-direction: column; align-items: center; margin-top: -40px;""><img src=""images/pattern_4.png"" style=""width: 234px; height: 230px; margin-top: -50px;""><div style=""display: flex; justify-content: space-between; margin-top: 33px;""><img src=""images/choice_trial_7.png"" style=""width: 408px; height: 417px; margin-left:608px;""></div></div>",,delaylearn,learning,display_response,NmHCyEPpkngdEMJqampJPnMsiNk2,NmHCyEPpkngdEMJqampJPnMsiNk2,,,,,,,,,,,,,,,,,chosen stimuli: images/choice_trial_7.png,,,,,59d65ad8e2762800015eb51b,09:09:47,27/02/2024
html-keyboard-response,108,254265,0.0-46.0-2.0,,,,delaylearn,learning,feedback_duration_window,NmHCyEPpkngdEMJqampJPnMsiNk2,NmHCyEPpkngdEMJqampJPnMsiNk2,,,,,,,,,,,,,,,,,,7000.0,,,,59d65ad8e2762800015eb51b,09:09:47,27/02/2024
html-keyboard-response,109,255783,0.0-46.0-3.0,,<div style='margin:auto;width: auto; font-size: 150%'><span style='font-weight: bold; font-size: 100px; color: red;'>0 points!</span><br><br></div>,,delaylearn,learning,feedback_image_window,NmHCyEPpkngdEMJqampJPnMsiNk2,NmHCyEPpkngdEMJqampJPnMsiNk2,,,,,,,,,,,,,,,,,,,,,,59d65ad8e2762800015eb51b,09:09:47,27/02/2024
html-keyboard-response,110,256290,0.0-47.0-0.0,,,,,,mood_trial_fixation,NmHCyEPpkngdEMJqampJPnMsiNk2,,,,,,,,,,,,,,,,,,,,,,,59d65ad8e2762800015eb51b,09:09:47,27/02/2024
lmdlab-html-vas-response,111,261889,0.0-47.0-1.0,4589.0,How happy are you right now?,0.513527163115741,delaylearn,learning,mood_trial,NmHCyEPpkngdEMJqampJPnMsiNk2,NmHCyEPpkngdEMJqampJPnMsiNk2,,,,,,,,,,,,,,,,,,,,"['Very unhappy', 'Very happy']",,59d65ad8e2762800015eb51b,09:09:47,27/02/2024
html-keyboard-response,112,264057,0.0-48.0,,"<div style=""font-size:100px;"">+</div>",,delaylearn,learning,ITI,NmHCyEPpkngdEMJqampJPnMsiNk2,NmHCyEPpkngdEMJqampJPnMsiNk2,,,,,,,,,,,,,,,,,,,2156.0,,,59d65ad8e2762800015eb51b,09:09:47,27/02/2024
html-keyboard-response,113,265044,0.0-49.0-0.0,985.0,"<div style=""display: flex; flex-direction: column; align-items: center; margin-top: -40px;""><img src=""images/pattern_7.png"" style=""width: 234px; height: 230px; margin-top: -50px;""><div style=""display: flex; justify-content: space-between; margin-top: 33px;""><img src=""images/choice_trial_4.png"" style=""width: 408px; height: 417px; margin-right: 200px;""><img src=""images/choice_trial_13.png"" style=""width: 408px; height: 417px;""></div></div>",j,delaylearn,learning,trial,NmHCyEPpkngdEMJqampJPnMsiNk2,NmHCyEPpkngdEMJqampJPnMsiNk2,4.0,images/choice_trial_4.png,images/choice_trial_13.png,images/pattern_7.png,j,j,750.0,4.0,13.0,6.0,1.0,21.0,1.0,1.0,13.0,130.0,,,,,,59d65ad8e2762800015eb51b,09:09:47,27/02/2024
html-keyboard-response,114,266059,0.0-49.0-1.0,,"<div style=""display: flex; flex-direction: column; align-items: center; margin-top: -40px;""><img src=""images/pattern_7.png"" style=""width: 234px; height: 230px; margin-top: -50px;""><div style=""display: flex; justify-content: space-between; margin-top: 33px;""><img src=""images/choice_trial_13.png"" style=""width: 408px; height: 417px; margin-left:608px;""></div></div>",,delaylearn,learning,display_response,NmHCyEPpkngdEMJqampJPnMsiNk2,NmHCyEPpkngdEMJqampJPnMsiNk2,,,,,,,,,,,,,,,,,chosen stimuli: images/choice_trial_13.png,,,,,59d65ad8e2762800015eb51b,09:09:47,27/02/2024
html-keyboard-response,115,266812,0.0-49.0-2.0,,,,delaylearn,learning,feedback_duration_window,NmHCyEPpkngdEMJqampJPnMsiNk2,NmHCyEPpkngdEMJqampJPnMsiNk2,,,,,,,,,,,,,,,,,,750.0,,,,59d65ad8e2762800015eb51b,09:09:47,27/02/2024
html-keyboard-response,116,268319,0.0-49.0-3.0,,<div style='margin:auto;width: auto; font-size: 150%'><span style='font-weight: bold; font-size: 100px; color: green;'>+10 points!</span><br><br></div>,,delaylearn,learning,feedback_image_window,NmHCyEPpkngdEMJqampJPnMsiNk2,NmHCyEPpkngdEMJqampJPnMsiNk2,,,,,,,,,,,,,,,,,,,,,,59d65ad8e2762800015eb51b,09:09:47,27/02/2024
html-keyboard-response,117,270741,0.0-50.0,,"<div style=""font-size:100px;"">+</div>",,delaylearn,learning,ITI,NmHCyEPpkngdEMJqampJPnMsiNk2,NmHCyEPpkngdEMJqampJPnMsiNk2,,,,,,,,,,,,,,,,,,,2414.0,,,59d65ad8e2762800015eb51b,09:09:47,27/02/2024
html-keyboard-response,118,271691,0.0-51.0-0.0,947.1000001430511,"<div style=""display: flex; flex-direction: column; align-items: center; margin-top: -40px;""><img src=""images/pattern_1.png"" style=""width: 234px; height: 230px; margin-top: -50px;""><div style=""display: flex; justify-content: space-between; margin-top: 33px;""><img src=""images/choice_trial_9.png"" style=""width: 408px; height: 417px; margin-right: 200px;""><img src=""images/choice_trial_1.png"" style=""width: 408px; height: 417px;""></div></div>",j,delaylearn,learning,trial,NmHCyEPpkngdEMJqampJPnMsiNk2,NmHCyEPpkngdEMJqampJPnMsiNk2,4.0,images/choice_trial_9.png,images/choice_trial_1.png,images/pattern_1.png,f,j,7000.0,9.0,1.0,1.0,1.0,22.0,1.0,0.0,1.0,130.0,,,,,,59d65ad8e2762800015eb51b,09:09:47,27/02/2024
html-keyboard-response,119,272702,0.0-51.0-1.0,,"<div style=""display: flex; flex-direction: column; align-items: center; margin-top: -40px;""><img src=""images/pattern_1.png"" style=""width: 234px; height: 230px; margin-top: -50px;""><div style=""display: flex; justify-content: space-between; margin-top: 33px;""><img src=""images/choice_trial_1.png"" style=""width: 408px; height: 417px; margin-left:608px;""></div></div>",,delaylearn,learning,display_response,NmHCyEPpkngdEMJqampJPnMsiNk2,NmHCyEPpkngdEMJqampJPnMsiNk2,,,,,,,,,,,,,,,,,chosen stimuli: images/choice_trial_1.png,,,,,59d65ad8e2762800015eb51b,09:09:47,27/02/2024
html-keyboard-response,120,279715,0.0-51.0-2.0,,,,delaylearn,learning,feedback_duration_window,NmHCyEPpkngdEMJqampJPnMsiNk2,NmHCyEPpkngdEMJqampJPnMsiNk2,,,,,,,,,,,,,,,,,,7000.0,,,,59d65ad8e2762800015eb51b,09:09:47,27/02/2024
html-keyboard-response,121,281218,0.0-51.0-3.0,,<div style='margin:auto;width: auto; font-size: 150%'><span style='font-weight: bold; font-size: 100px; color: red;'>0 points!</span><br><br></div>,,delaylearn,learning,feedback_image_window,NmHCyEPpkngdEMJqampJPnMsiNk2,NmHCyEPpkngdEMJqampJPnMsiNk2,,,,,,,,,,,,,,,,,,,,,,59d65ad8e2762800015eb51b,09:09:47,27/02/2024
html-keyboard-response,122,283554,0.0-52.0,,"<div style=""font-size:100px;"">+</div>",,delaylearn,learning,ITI,NmHCyEPpkngdEMJqampJPnMsiNk2,NmHCyEPpkngdEMJqampJPnMsiNk2,,,,,,,,,,,,,,,,,,,2328.0,,,59d65ad8e2762800015eb51b,09:09:47,27/02/2024
html-keyboard-response,123,284367,0.0-53.0-0.0,809.7000000476837,"<div style=""display: flex; flex-direction: column; align-items: center; margin-top: -40px;""><img src=""images/pattern_5.png"" style=""width: 234px; height: 230px; margin-top: -50px;""><div style=""display: flex; justify-content: space-between; margin-top: 33px;""><img src=""images/choice_trial_15.png"" style=""width: 408px; height: 417px; margin-right: 200px;""><img src=""images/choice_trial_5.png"" style=""width: 408px; height: 417px;""></div></div>",j,delaylearn,learning,trial,NmHCyEPpkngdEMJqampJPnMsiNk2,NmHCyEPpkngdEMJqampJPnMsiNk2,4.0,images/choice_trial_15.png,images/choice_trial_5.png,images/pattern_5.png,j,j,750.0,15.0,5.0,4.0,1.0,23.0,1.0,1.0,5.0,140.0,,,,,,59d65ad8e2762800015eb51b,09:09:47,27/02/2024
html-keyboard-response,124,285381,0.0-53.0-1.0,,"<div style=""display: flex; flex-direction: column; align-items: center; margin-top: -40px;""><img src=""images/pattern_5.png"" style=""width: 234px; height: 230px; margin-top: -50px;""><div style=""display: flex; justify-content: space-between; margin-top: 33px;""><img src=""images/choice_trial_5.png"" style=""width: 408px; height: 417px; margin-left:608px;""></div></div>",,delaylearn,learning,display_response,NmHCyEPpkngdEMJqampJPnMsiNk2,NmHCyEPpkngdEMJqampJPnMsiNk2,,,,,,,,,,,,,,,,,chosen stimuli: images/choice_trial_5.png,,,,,59d65ad8e2762800015eb51b,09:09:47,27/02/2024
html-keyboard-response,125,286144,0.0-53.0-2.0,,,,delaylearn,learning,feedback_duration_window,NmHCyEPpkngdEMJqampJPnMsiNk2,NmHCyEPpkngdEMJqampJPnMsiNk2,,,,,,,,,,,,,,,,,,750.0,,,,59d65ad8e2762800015eb51b,09:09:47,27/02/2024
html-keyboard-response,126,287660,0.0-53.0-3.0,,<div style='margin:auto;width: auto; font-size: 150%'><span style='font-weight: bold; font-size: 100px; color: green;'>+10 points!</span><br><br></div>,,delaylearn,learning,feedback_image_window,NmHCyEPpkngdEMJqampJPnMsiNk2,NmHCyEPpkngdEMJqampJPnMsiNk2,,,,,,,,,,,,,,,,,,,,,,59d65ad8e2762800015eb51b,09:09:47,27/02/2024
html-keyboard-response,127,289935,0.0-54.0,,"<div style=""font-size:100px;"">+</div>",,delaylearn,learning,ITI,NmHCyEPpkngdEMJqampJPnMsiNk2,NmHCyEPpkngdEMJqampJPnMsiNk2,,,,,,,,,,,,,,,,,,,2264.0,,,59d65ad8e2762800015eb51b,09:09:47,27/02/2024
html-keyboard-response,128,290527,0.0-55.0-0.0,588.6000001430511,"<div style=""display: flex; flex-direction: column; align-items: center; margin-top: -40px;""><img src=""images/pattern_3.png"" style=""width: 234px; height: 230px; margin-top: -50px;""><div style=""display: flex; justify-content: space-between; margin-top: 33px;""><img src=""images/choice_trial_6.png"" style=""width: 408px; height: 417px; margin-right: 200px;""><img src=""images/choice_trial_16.png"" style=""width: 408px; height: 417px;""></div></div>",j,delaylearn,learning,trial,NmHCyEPpkngdEMJqampJPnMsiNk2,NmHCyEPpkngdEMJqampJPnMsiNk2,4.0,images/choice_trial_6.png,images/choice_trial_16.png,images/pattern_3.png,j,j,7000.0,6.0,16.0,2.0,1.0,24.0,1.0,1.0,16.0,150.0,,,,,,59d65ad8e2762800015eb51b,09:09:47,27/02/2024
html-keyboard-response,129,291534,0.0-55.0-1.0,,"<div style=""display: flex; flex-direction: column; align-items: center; margin-top: -40px;""><img src=""images/pattern_3.png"" style=""width: 234px; height: 230px; margin-top: -50px;""><div style=""display: flex; justify-content: space-between; margin-top: 33px;""><img src=""images/choice_trial_16.png"" style=""width: 408px; height: 417px; margin-left:608px;""></div></div>",,delaylearn,learning,display_response,NmHCyEPpkngdEMJqampJPnMsiNk2,NmHCyEPpkngdEMJqampJPnMsiNk2,,,,,,,,,,,,,,,,,chosen stimuli: images/choice_trial_16.png,,,,,59d65ad8e2762800015eb51b,09:09:47,27/02/2024
html-keyboard-response,130,298548,0.0-55.0-2.0,,,,delaylearn,learning,feedback_duration_window,NmHCyEPpkngdEMJqampJPnMsiNk2,NmHCyEPpkngdEMJqampJPnMsiNk2,,,,,,,,,,,,,,,,,,7000.0,,,,59d65ad8e2762800015eb51b,09:09:47,27/02/2024
html-keyboard-response,131,300065,0.0-55.0-3.0,,<div style='margin:auto;width: auto; font-size: 150%'><span style='font-weight: bold; font-size: 100px; color: green;'>+10 points!</span><br><br></div>,,delaylearn,learning,feedback_image_window,NmHCyEPpkngdEMJqampJPnMsiNk2,NmHCyEPpkngdEMJqampJPnMsiNk2,,,,,,,,,,,,,,,,,,,,,,59d65ad8e2762800015eb51b,09:09:47,27/02/2024
lmdlab-html-vas-response,132,307438,0.0-56.0-0.0,5845.0,*How <b><u>confident</u></b> are you feeling about your answers at this moment?*,0.5462962352471888,rewlearn,rate_confidence,,NmHCyEPpkngdEMJqampJPnMsiNk2,NmHCyEPpkngdEMJqampJPnMsiNk2,,,,,,,,,,,,,,,,,,,,"['No confidence', 'Complete confidence']",,59d65ad8e2762800015eb51b,09:09:47,27/02/2024
lmdlab-rest-trial-limit,133,372418,0.0-56.0-1.0,63453.10000014305,"<div style=""font-size:40px;""><b>Please take a break!</b><br><br><br><br><p>Great work: you earned undefined points.<br><br><br><p>You have completed part(s) 1 of 6.<br><br><br><br>When you are ready to continue<br><br><br>please click the button.</p><br><br>",0,delaylearn,learning,break,NmHCyEPpkngdEMJqampJPnMsiNk2,NmHCyEPpkngdEMJqampJPnMsiNk2,,,,,,,,,,,,,,,,,,,,,0.0,59d65ad8e2762800015eb51b,09:09:47,27/02/2024
html-keyboard-response,134,375436,0.0-56.0-2.0,,"<div style=""font-size:100px;"">+</div>",,delaylearn,learning,pre_fixation,NmHCyEPpkngdEMJqampJPnMsiNk2,,,,,,,,,,,,,,,,,,,,,,,59d65ad8e2762800015eb51b,09:09:47,27/02/2024
lmdlab-html-vas-response,135,381482,0.0-56.0-3.0-0.0,5039.0,How happy are you right now?,0.5077401263512445,delaylearn,learning,mood_baseline,NmHCyEPpkngdEMJqampJPnMsiNk2,NmHCyEPpkngdEMJqampJPnMsiNk2,,,,,,,,,,,,,,,,,,,,"['Very unhappy', 'Very happy']",,59d65ad8e2762800015eb51b,09:09:47,27/02/2024
html-keyboard-response,136,382993,0.0-56.0-3.0-1.0,,,,,,mood_baseline_fixation,NmHCyEPpkngdEMJqampJPnMsiNk2,,,,,,,,,,,,,,,,,,,,,,,59d65ad8e2762800015eb51b,09:09:47,27/02/2024
html-keyboard-response,137,385041,0.0-57.0,,"<div style=""font-size:100px;"">+</div>",,delaylearn,learning,ITI,NmHCyEPpkngdEMJqampJPnMsiNk2,NmHCyEPpkngdEMJqampJPnMsiNk2,,,,,,,,,,,,,,,,,,,2045.0,,,59d65ad8e2762800015eb51b,09:09:47,27/02/2024
html-keyboard-response,138,386128,0.0-58.0-0.0,1084.5,"<div style=""display: flex; flex-direction: column; align-items: center; margin-top: -40px;""><img src=""images/pattern_7.png"" style=""width: 234px; height: 230px; margin-top: -50px;""><div style=""display: flex; justify-content: space-between; margin-top: 33px;""><img src=""images/choice_trial_4.png"" style=""width: 408px; height: 417px; margin-right: 200px;""><img src=""images/choice_trial_13.png"" style=""width: 408px; height: 417px;""></div></div>",j,delaylearn,learning,trial,NmHCyEPpkngdEMJqampJPnMsiNk2,NmHCyEPpkngdEMJqampJPnMsiNk2,4.0,images/choice_trial_4.png,images/choice_trial_13.png,images/pattern_7.png,j,j,750.0,4.0,13.0,6.0,1.0,25.0,1.0,1.0,13.0,160.0,,,,,,59d65ad8e2762800015eb51b,09:09:47,27/02/2024
html-keyboard-response,139,387144,0.0-58.0-1.0,,"<div style=""display: flex; flex-direction: column; align-items: center; margin-top: -40px;""><img src=""images/pattern_7.png"" style=""width: 234px; height: 230px; margin-top: -50px;""><div style=""display: flex; justify-content: space-between; margin-top: 33px;""><img src=""images/choice_trial_13.png"" style=""width: 408px; height: 417px; margin-left:608px;""></div></div>",,delaylearn,learning,display_response,NmHCyEPpkngdEMJqampJPnMsiNk2,NmHCyEPpkngdEMJqampJPnMsiNk2,,,,,,,,,,,,,,,,,chosen stimuli: images/choice_trial_13.png,,,,,59d65ad8e2762800015eb51b,09:09:47,27/02/2024
html-keyboard-response,140,387897,0.0-58.0-2.0,,,,delaylearn,learning,feedback_duration_window,NmHCyEPpkngdEMJqampJPnMsiNk2,NmHCyEPpkngdEMJqampJPnMsiNk2,,,,,,,,,,,,,,,,,,750.0,,,,59d65ad8e2762800015eb51b,09:09:47,27/02/2024
html-keyboard-response,141,389401,0.0-58.0-3.0,,<div style='margin:auto;width: auto; font-size: 150%'><span style='font-weight: bold; font-size: 100px; color: green;'>+10 points!</span><br><br></div>,,delaylearn,learning,feedback_image_window,NmHCyEPpkngdEMJqampJPnMsiNk2,NmHCyEPpkngdEMJqampJPnMsiNk2,,,,,,,,,,,,,,,,,,,,,,59d65ad8e2762800015eb51b,09:09:47,27/02/2024
html-keyboard-response,142,389913,0.0-59.0-0.0,,,,,,mood_trial_fixation,NmHCyEPpkngdEMJqampJPnMsiNk2,,,,,,,,,,,,,,,,,,,,,,,59d65ad8e2762800015eb51b,09:09:47,27/02/2024
lmdlab-html-vas-response,143,394794,0.0-59.0-1.0,3861.0,How happy are you right now?,0.71221542536345,delaylearn,learning,mood_trial,NmHCyEPpkngdEMJqampJPnMsiNk2,NmHCyEPpkngdEMJqampJPnMsiNk2,,,,,,,,,,,,,,,,,,,,"['Very unhappy', 'Very happy']",,59d65ad8e2762800015eb51b,09:09:47,27/02/2024
html-keyboard-response,144,396635,0.0-60.0,,"<div style=""font-size:100px;"">+</div>",,delaylearn,learning,ITI,NmHCyEPpkngdEMJqampJPnMsiNk2,NmHCyEPpkngdEMJqampJPnMsiNk2,,,,,,,,,,,,,,,,,,,1828.0,,,59d65ad8e2762800015eb51b,09:09:47,27/02/2024
html-keyboard-response,145,398364,0.0-61.0-0.0,1726.5,"<div style=""display: flex; flex-direction: column; align-items: center; margin-top: -40px;""><img src=""images/pattern_1.png"" style=""width: 234px; height: 230px; margin-top: -50px;""><div style=""display: flex; justify-content: space-between; margin-top: 33px;""><img src=""images/choice_trial_1.png"" style=""width: 408px; height: 417px; margin-right: 200px;""><img src=""images/choice_trial_9.png"" style=""width: 408px; height: 417px;""></div></div>",j,delaylearn,learning,trial,NmHCyEPpkngdEMJqampJPnMsiNk2,NmHCyEPpkngdEMJqampJPnMsiNk2,4.0,images/choice_trial_1.png,images/choice_trial_9.png,images/pattern_1.png,f,f,7000.0,1.0,9.0,1.0,0.0,26.0,0.0,0.0,9.0,160.0,,,,,,59d65ad8e2762800015eb51b,09:09:47,27/02/2024
html-keyboard-response,146,399377,0.0-61.0-1.0,,"<div style=""display: flex; flex-direction: column; align-items: center; margin-top: -40px;""><img src=""images/pattern_1.png"" style=""width: 234px; height: 230px; margin-top: -50px;""><div style=""display: flex; justify-content: space-between; margin-top: 33px;""><img src=""images/choice_trial_9.png"" style=""width: 408px; height: 417px; margin-left:608px;""></div></div>",,delaylearn,learning,display_response,NmHCyEPpkngdEMJqampJPnMsiNk2,NmHCyEPpkngdEMJqampJPnMsiNk2,,,,,,,,,,,,,,,,,chosen stimuli: images/choice_trial_9.png,,,,,59d65ad8e2762800015eb51b,09:09:47,27/02/2024
html-keyboard-response,147,406379,0.0-61.0-2.0,,,,delaylearn,learning,feedback_duration_window,NmHCyEPpkngdEMJqampJPnMsiNk2,NmHCyEPpkngdEMJqampJPnMsiNk2,,,,,,,,,,,,,,,,,,7000.0,,,,59d65ad8e2762800015eb51b,09:09:47,27/02/2024
html-keyboard-response,148,407895,0.0-61.0-3.0,,<div style='margin:auto;width: auto; font-size: 150%'><span style='font-weight: bold; font-size: 100px; color: red;'>0 points!</span><br><br></div>,,delaylearn,learning,feedback_image_window,NmHCyEPpkngdEMJqampJPnMsiNk2,NmHCyEPpkngdEMJqampJPnMsiNk2,,,,,,,,,,,,,,,,,,,,,,59d65ad8e2762800015eb51b,09:09:47,27/02/2024
html-keyboard-response,149,409891,0.0-62.0,,"<div style=""font-size:100px;"">+</div>",,delaylearn,learning,ITI,NmHCyEPpkngdEMJqampJPnMsiNk2,NmHCyEPpkngdEMJqampJPnMsiNk2,,,,,,,,,,,,,,,,,,,1990.0,,,59d65ad8e2762800015eb51b,09:09:47,27/02/2024
html-keyboard-response,150,411026,0.0-63.0-0.0,1131.8000001907349,"<div style=""display: flex; flex-direction: column; align-items: center; margin-top: -40px;""><img src=""images/pattern_5.png"" style=""width: 234px; height: 230px; margin-top: -50px;""><div style=""display: flex; justify-content: space-between; margin-top: 33px;""><img src=""images/choice_trial_5.png"" style=""width: 408px; height: 417px; margin-right: 200px;""><img src=""images/choice_trial_15.png"" style=""width: 408px; height: 417px;""></div></div>",j,delaylearn,learning,trial,NmHCyEPpkngdEMJqampJPnMsiNk2,NmHCyEPpkngdEMJqampJPnMsiNk2,4.0,images/choice_trial_5.png,images/choice_trial_15.png,images/pattern_5.png,f,f,750.0,5.0,15.0,4.0,0.0,27.0,0.0,0.0,15.0,160.0,,,,,,59d65ad8e2762800015eb51b,09:09:47,27/02/2024
html-keyboard-response,151,412034,0.0-63.0-1.0,,"<div style=""display: flex; flex-direction: column; align-items: center; margin-top: -40px;""><img src=""images/pattern_5.png"" style=""width: 234px; height: 230px; margin-top: -50px;""><div style=""display: flex; justify-content: space-between; margin-top: 33px;""><img src=""images/choice_trial_15.png"" style=""width: 408px; height: 417px; margin-left:608px;""></div></div>",,delaylearn,learning,display_response,NmHCyEPpkngdEMJqampJPnMsiNk2,NmHCyEPpkngdEMJqampJPnMsiNk2,,,,,,,,,,,,,,,,,chosen stimuli: images/choice_trial_15.png,,,,,59d65ad8e2762800015eb51b,09:09:47,27/02/2024
html-keyboard-response,152,412791,0.0-63.0-2.0,,,,delaylearn,learning,feedback_duration_window,NmHCyEPpkngdEMJqampJPnMsiNk2,NmHCyEPpkngdEMJqampJPnMsiNk2,,,,,,,,,,,,,,,,,,750.0,,,,59d65ad8e2762800015eb51b,09:09:47,27/02/2024
html-keyboard-response,153,414303,0.0-63.0-3.0,,<div style='margin:auto;width: auto; font-size: 150%'><span style='font-weight: bold; font-size: 100px; color: red;'>0 points!</span><br><br></div>,,delaylearn,learning,feedback_image_window,NmHCyEPpkngdEMJqampJPnMsiNk2,NmHCyEPpkngdEMJqampJPnMsiNk2,,,,,,,,,,,,,,,,,,,,,,59d65ad8e2762800015eb51b,09:09:47,27/02/2024
html-keyboard-response,154,416756,0.0-64.0,,"<div style=""font-size:100px;"">+</div>",,delaylearn,learning,ITI,NmHCyEPpkngdEMJqampJPnMsiNk2,NmHCyEPpkngdEMJqampJPnMsiNk2,,,,,,,,,,,,,,,,,,,2427.0,,,59d65ad8e2762800015eb51b,09:09:47,27/02/2024
html-keyboard-response,155,418064,0.0-65.0-0.0,1304.2000000476837,"<div style=""display: flex; flex-direction: column; align-items: center; margin-top: -40px;""><img src=""images/pattern_6.png"" style=""width: 234px; height: 230px; margin-top: -50px;""><div style=""display: flex; justify-content: space-between; margin-top: 33px;""><img src=""images/choice_trial_3.png"" style=""width: 408px; height: 417px; margin-right: 200px;""><img src=""images/choice_trial_10.png"" style=""width: 408px; height: 417px;""></div></div>",j,delaylearn,learning,trial,NmHCyEPpkngdEMJqampJPnMsiNk2,NmHCyEPpkngdEMJqampJPnMsiNk2,4.0,images/choice_trial_3.png,images/choice_trial_10.png,images/pattern_6.png,j,j,750.0,3.0,10.0,5.0,1.0,28.0,1.0,1.0,10.0,170.0,,,,,,59d65ad8e2762800015eb51b,09:09:47,27/02/2024
html-keyboard-response,156,419074,0.0-65.0-1.0,,"<div style=""display: flex; flex-direction: column; align-items: center; margin-top: -40px;""><img src=""images/pattern_6.png"" style=""width: 234px; height: 230px; margin-top: -50px;""><div style=""display: flex; justify-content: space-between; margin-top: 33px;""><img src=""images/choice_trial_10.png"" style=""width: 408px; height: 417px; margin-left:608px;""></div></div>",,delaylearn,learning,display_response,NmHCyEPpkngdEMJqampJPnMsiNk2,NmHCyEPpkngdEMJqampJPnMsiNk2,,,,,,,,,,,,,,,,,chosen stimuli: images/choice_trial_10.png,,,,,59d65ad8e2762800015eb51b,09:09:47,27/02/2024
html-keyboard-response,157,419829,0.0-65.0-2.0,,,,delaylearn,learning,feedback_duration_window,NmHCyEPpkngdEMJqampJPnMsiNk2,NmHCyEPpkngdEMJqampJPnMsiNk2,,,,,,,,,,,,,,,,,,750.0,,,,59d65ad8e2762800015eb51b,09:09:47,27/02/2024
html-keyboard-response,158,421345,0.0-65.0-3.0,,<div style='margin:auto;width: auto; font-size: 150%'><span style='font-weight: bold; font-size: 100px; color: green;'>+10 points!</span><br><br></div>,,delaylearn,learning,feedback_image_window,NmHCyEPpkngdEMJqampJPnMsiNk2,NmHCyEPpkngdEMJqampJPnMsiNk2,,,,,,,,,,,,,,,,,,,,,,59d65ad8e2762800015eb51b,09:09:47,27/02/2024
html-keyboard-response,159,421858,0.0-66.0-0.0,,,,,,mood_trial_fixation,NmHCyEPpkngdEMJqampJPnMsiNk2,,,,,,,,,,,,,,,,,,,,,,,59d65ad8e2762800015eb51b,09:09:47,27/02/2024
lmdlab-html-vas-response,160,426974,0.0-66.0-1.0,4105.0,How happy are you right now?,0.5077401263512445,delaylearn,learning,mood_trial,NmHCyEPpkngdEMJqampJPnMsiNk2,NmHCyEPpkngdEMJqampJPnMsiNk2,,,,,,,,,,,,,,,,,,,,"['Very unhappy', 'Very happy']",,59d65ad8e2762800015eb51b,09:09:47,27/02/2024
html-keyboard-response,161,428896,0.0-67.0,,"<div style=""font-size:100px;"">+</div>",,delaylearn,learning,ITI,NmHCyEPpkngdEMJqampJPnMsiNk2,NmHCyEPpkngdEMJqampJPnMsiNk2,,,,,,,,,,,,,,,,,,,1914.0,,,59d65ad8e2762800015eb51b,09:09:47,27/02/2024
html-keyboard-response,162,429963,0.0-68.0-0.0,1063.5,"<div style=""display: flex; flex-direction: column; align-items: center; margin-top: -40px;""><img src=""images/pattern_4.png"" style=""width: 234px; height: 230px; margin-top: -50px;""><div style=""display: flex; justify-content: space-between; margin-top: 33px;""><img src=""images/choice_trial_7.png"" style=""width: 408px; height: 417px; margin-right: 200px;""><img src=""images/choice_trial_8.png"" style=""width: 408px; height: 417px;""></div></div>",j,delaylearn,learning,trial,NmHCyEPpkngdEMJqampJPnMsiNk2,NmHCyEPpkngdEMJqampJPnMsiNk2,4.0,images/choice_trial_7.png,images/choice_trial_8.png,images/pattern_4.png,j,j,7000.0,7.0,8.0,3.0,1.0,29.0,1.0,1.0,8.0,180.0,,,,,,59d65ad8e2762800015eb51b,09:09:47,27/02/2024
html-keyboard-response,163,430967,0.0-68.0-1.0,,"<div style=""display: flex; flex-direction: column; align-items: center; margin-top: -40px;""><img src=""images/pattern_4.png"" style=""width: 234px; height: 230px; margin-top: -50px;""><div style=""display: flex; justify-content: space-between; margin-top: 33px;""><img src=""images/choice_trial_8.png"" style=""width: 408px; height: 417px; margin-left:608px;""></div></div>",,delaylearn,learning,display_response,NmHCyEPpkngdEMJqampJPnMsiNk2,NmHCyEPpkngdEMJqampJPnMsiNk2,,,,,,,,,,,,,,,,,chosen stimuli: images/choice_trial_8.png,,,,,59d65ad8e2762800015eb51b,09:09:47,27/02/2024
html-keyboard-response,164,437977,0.0-68.0-2.0,,,,delaylearn,learning,feedback_duration_window,NmHCyEPpkngdEMJqampJPnMsiNk2,NmHCyEPpkngdEMJqampJPnMsiNk2,,,,,,,,,,,,,,,,,,7000.0,,,,59d65ad8e2762800015eb51b,09:09:47,27/02/2024
html-keyboard-response,165,439483,0.0-68.0-3.0,,<div style='margin:auto;width: auto; font-size: 150%'><span style='font-weight: bold; font-size: 100px; color: green;'>+10 points!</span><br><br></div>,,delaylearn,learning,feedback_image_window,NmHCyEPpkngdEMJqampJPnMsiNk2,NmHCyEPpkngdEMJqampJPnMsiNk2,,,,,,,,,,,,,,,,,,,,,,59d65ad8e2762800015eb51b,09:09:47,27/02/2024
html-keyboard-response,166,441306,0.0-69.0,,"<div style=""font-size:100px;"">+</div>",,delaylearn,learning,ITI,NmHCyEPpkngdEMJqampJPnMsiNk2,NmHCyEPpkngdEMJqampJPnMsiNk2,,,,,,,,,,,,,,,,,,,1820.0,,,59d65ad8e2762800015eb51b,09:09:47,27/02/2024
html-keyboard-response,167,441983,0.0-70.0-0.0,673.5,"<div style=""display: flex; flex-direction: column; align-items: center; margin-top: -40px;""><img src=""images/pattern_3.png"" style=""width: 234px; height: 230px; margin-top: -50px;""><div style=""display: flex; justify-content: space-between; margin-top: 33px;""><img src=""images/choice_trial_6.png"" style=""width: 408px; height: 417px; margin-right: 200px;""><img src=""images/choice_trial_16.png"" style=""width: 408px; height: 417px;""></div></div>",j,delaylearn,learning,trial,NmHCyEPpkngdEMJqampJPnMsiNk2,NmHCyEPpkngdEMJqampJPnMsiNk2,4.0,images/choice_trial_6.png,images/choice_trial_16.png,images/pattern_3.png,j,j,7000.0,6.0,16.0,2.0,1.0,30.0,1.0,1.0,16.0,190.0,,,,,,59d65ad8e2762800015eb51b,09:09:47,27/02/2024
html-keyboard-response,168,442987,0.0-70.0-1.0,,"<div style=""display: flex; flex-direction: column; align-items: center; margin-top: -40px;""><img src=""images/pattern_3.png"" style=""width: 234px; height: 230px; margin-top: -50px;""><div style=""display: flex; justify-content: space-between; margin-top: 33px;""><img src=""images/choice_trial_16.png"" style=""width: 408px; height: 417px; margin-left:608px;""></div></div>",,delaylearn,learning,display_response,NmHCyEPpkngdEMJqampJPnMsiNk2,NmHCyEPpkngdEMJqampJPnMsiNk2,,,,,,,,,,,,,,,,,chosen stimuli: images/choice_trial_16.png,,,,,59d65ad8e2762800015eb51b,09:09:47,27/02/2024
html-keyboard-response,169,449990,0.0-70.0-2.0,,,,delaylearn,learning,feedback_duration_window,NmHCyEPpkngdEMJqampJPnMsiNk2,NmHCyEPpkngdEMJqampJPnMsiNk2,,,,,,,,,,,,,,,,,,7000.0,,,,59d65ad8e2762800015eb51b,09:09:47,27/02/2024
html-keyboard-response,170,451495,0.0-70.0-3.0,,<div style='margin:auto;width: auto; font-size: 150%'><span style='font-weight: bold; font-size: 100px; color: green;'>+10 points!</span><br><br></div>,,delaylearn,learning,feedback_image_window,NmHCyEPpkngdEMJqampJPnMsiNk2,NmHCyEPpkngdEMJqampJPnMsiNk2,,,,,,,,,,,,,,,,,,,,,,59d65ad8e2762800015eb51b,09:09:47,27/02/2024
html-keyboard-response,171,453114,0.0-71.0,,"<div style=""font-size:100px;"">+</div>",,delaylearn,learning,ITI,NmHCyEPpkngdEMJqampJPnMsiNk2,NmHCyEPpkngdEMJqampJPnMsiNk2,,,,,,,,,,,,,,,,,,,1612.0,,,59d65ad8e2762800015eb51b,09:09:47,27/02/2024
html-keyboard-response,172,454924,0.0-72.0-0.0,1807.5999999046326,"<div style=""display: flex; flex-direction: column; align-items: center; margin-top: -40px;""><img src=""images/pattern_5.png"" style=""width: 234px; height: 230px; margin-top: -50px;""><div style=""display: flex; justify-content: space-between; margin-top: 33px;""><img src=""images/choice_trial_5.png"" style=""width: 408px; height: 417px; margin-right: 200px;""><img src=""images/choice_trial_15.png"" style=""width: 408px; height: 417px;""></div></div>",f,delaylearn,learning,trial,NmHCyEPpkngdEMJqampJPnMsiNk2,NmHCyEPpkngdEMJqampJPnMsiNk2,4.0,images/choice_trial_5.png,images/choice_trial_15.png,images/pattern_5.png,j,f,750.0,5.0,15.0,4.0,0.0,31.0,1.0,0.0,5.0,190.0,,,,,,59d65ad8e2762800015eb51b,09:09:47,27/02/2024
html-keyboard-response,173,455940,0.0-72.0-1.0,,"<div style=""display: flex; flex-direction: column; align-items: center; margin-top: -40px;""><img src=""images/pattern_5.png"" style=""width: 234px; height: 230px; margin-top: -50px;""><div style=""display: flex; justify-content: space-between; margin-top: 33px;""><img src=""images/choice_trial_5.png"" style=""width: 408px; height: 417px; margin-right: 608px;""></div></div>",,delaylearn,learning,display_response,NmHCyEPpkngdEMJqampJPnMsiNk2,NmHCyEPpkngdEMJqampJPnMsiNk2,,,,,,,,,,,,,,,,,chosen stimuli: images/choice_trial_5.png,,,,,59d65ad8e2762800015eb51b,09:09:47,27/02/2024
html-keyboard-response,174,456701,0.0-72.0-2.0,,,,delaylearn,learning,feedback_duration_window,NmHCyEPpkngdEMJqampJPnMsiNk2,NmHCyEPpkngdEMJqampJPnMsiNk2,,,,,,,,,,,,,,,,,,750.0,,,,59d65ad8e2762800015eb51b,09:09:47,27/02/2024
html-keyboard-response,175,458204,0.0-72.0-3.0,,<div style='margin:auto;width: auto; font-size: 150%'><span style='font-weight: bold; font-size: 100px; color: red;'>0 points!</span><br><br></div>,,delaylearn,learning,feedback_image_window,NmHCyEPpkngdEMJqampJPnMsiNk2,NmHCyEPpkngdEMJqampJPnMsiNk2,,,,,,,,,,,,,,,,,,,,,,59d65ad8e2762800015eb51b,09:09:47,27/02/2024
html-keyboard-response,176,459930,0.0-73.0,,"<div style=""font-size:100px;"">+</div>",,delaylearn,learning,ITI,NmHCyEPpkngdEMJqampJPnMsiNk2,NmHCyEPpkngdEMJqampJPnMsiNk2,,,,,,,,,,,,,,,,,,,1714.0,,,59d65ad8e2762800015eb51b,09:09:47,27/02/2024
html-keyboard-response,177,460812,0.0-74.0-0.0,879.6000001430511,"<div style=""display: flex; flex-direction: column; align-items: center; margin-top: -40px;""><img src=""images/pattern_1.png"" style=""width: 234px; height: 230px; margin-top: -50px;""><div style=""display: flex; justify-content: space-between; margin-top: 33px;""><img src=""images/choice_trial_1.png"" style=""width: 408px; height: 417px; margin-right: 200px;""><img src=""images/choice_trial_9.png"" style=""width: 408px; height: 417px;""></div></div>",j,delaylearn,learning,trial,NmHCyEPpkngdEMJqampJPnMsiNk2,NmHCyEPpkngdEMJqampJPnMsiNk2,4.0,images/choice_trial_1.png,images/choice_trial_9.png,images/pattern_1.png,f,f,7000.0,1.0,9.0,1.0,0.0,32.0,0.0,0.0,9.0,190.0,,,,,,59d65ad8e2762800015eb51b,09:09:47,27/02/2024
html-keyboard-response,178,461816,0.0-74.0-1.0,,"<div style=""display: flex; flex-direction: column; align-items: center; margin-top: -40px;""><img src=""images/pattern_1.png"" style=""width: 234px; height: 230px; margin-top: -50px;""><div style=""display: flex; justify-content: space-between; margin-top: 33px;""><img src=""images/choice_trial_9.png"" style=""width: 408px; height: 417px; margin-left:608px;""></div></div>",,delaylearn,learning,display_response,NmHCyEPpkngdEMJqampJPnMsiNk2,NmHCyEPpkngdEMJqampJPnMsiNk2,,,,,,,,,,,,,,,,,chosen stimuli: images/choice_trial_9.png,,,,,59d65ad8e2762800015eb51b,09:09:47,27/02/2024
html-keyboard-response,179,468829,0.0-74.0-2.0,,,,delaylearn,learning,feedback_duration_window,NmHCyEPpkngdEMJqampJPnMsiNk2,NmHCyEPpkngdEMJqampJPnMsiNk2,,,,,,,,,,,,,,,,,,7000.0,,,,59d65ad8e2762800015eb51b,09:09:47,27/02/2024
html-keyboard-response,180,470339,0.0-74.0-3.0,,<div style='margin:auto;width: auto; font-size: 150%'><span style='font-weight: bold; font-size: 100px; color: red;'>0 points!</span><br><br></div>,,delaylearn,learning,feedback_image_window,NmHCyEPpkngdEMJqampJPnMsiNk2,NmHCyEPpkngdEMJqampJPnMsiNk2,,,,,,,,,,,,,,,,,,,,,,59d65ad8e2762800015eb51b,09:09:47,27/02/2024
html-keyboard-response,181,470852,0.0-75.0-0.0,,,,,,mood_trial_fixation,NmHCyEPpkngdEMJqampJPnMsiNk2,,,,,,,,,,,,,,,,,,,,,,,59d65ad8e2762800015eb51b,09:09:47,27/02/2024
lmdlab-html-vas-response,182,475919,0.0-75.0-1.0,4051.0,How happy are you right now?,0.5154561753705731,delaylearn,learning,mood_trial,NmHCyEPpkngdEMJqampJPnMsiNk2,NmHCyEPpkngdEMJqampJPnMsiNk2,,,,,,,,,,,,,,,,,,,,"['Very unhappy', 'Very happy']",,59d65ad8e2762800015eb51b,09:09:47,27/02/2024
html-keyboard-response,183,477885,0.0-76.0,,"<div style=""font-size:100px;"">+</div>",,delaylearn,learning,ITI,NmHCyEPpkngdEMJqampJPnMsiNk2,NmHCyEPpkngdEMJqampJPnMsiNk2,,,,,,,,,,,,,,,,,,,1940.0,,,59d65ad8e2762800015eb51b,09:09:47,27/02/2024
html-keyboard-response,184,478764,0.0-77.0-0.0,876.0999999046326,"<div style=""display: flex; flex-direction: column; align-items: center; margin-top: -40px;""><img src=""images/pattern_6.png"" style=""width: 234px; height: 230px; margin-top: -50px;""><div style=""display: flex; justify-content: space-between; margin-top: 33px;""><img src=""images/choice_trial_10.png"" style=""width: 408px; height: 417px; margin-right: 200px;""><img src=""images/choice_trial_3.png"" style=""width: 408px; height: 417px;""></div></div>",j,delaylearn,learning,trial,NmHCyEPpkngdEMJqampJPnMsiNk2,NmHCyEPpkngdEMJqampJPnMsiNk2,4.0,images/choice_trial_10.png,images/choice_trial_3.png,images/pattern_6.png,j,f,750.0,10.0,3.0,5.0,0.0,33.0,0.0,1.0,3.0,200.0,,,,,,59d65ad8e2762800015eb51b,09:09:47,27/02/2024
html-keyboard-response,185,479773,0.0-77.0-1.0,,"<div style=""display: flex; flex-direction: column; align-items: center; margin-top: -40px;""><img src=""images/pattern_6.png"" style=""width: 234px; height: 230px; margin-top: -50px;""><div style=""display: flex; justify-content: space-between; margin-top: 33px;""><img src=""images/choice_trial_3.png"" style=""width: 408px; height: 417px; margin-left:608px;""></div></div>",,delaylearn,learning,display_response,NmHCyEPpkngdEMJqampJPnMsiNk2,NmHCyEPpkngdEMJqampJPnMsiNk2,,,,,,,,,,,,,,,,,chosen stimuli: images/choice_trial_3.png,,,,,59d65ad8e2762800015eb51b,09:09:47,27/02/2024
html-keyboard-response,186,480539,0.0-77.0-2.0,,,,delaylearn,learning,feedback_duration_window,NmHCyEPpkngdEMJqampJPnMsiNk2,NmHCyEPpkngdEMJqampJPnMsiNk2,,,,,,,,,,,,,,,,,,750.0,,,,59d65ad8e2762800015eb51b,09:09:47,27/02/2024
html-keyboard-response,187,482046,0.0-77.0-3.0,,<div style='margin:auto;width: auto; font-size: 150%'><span style='font-weight: bold; font-size: 100px; color: green;'>+10 points!</span><br><br></div>,,delaylearn,learning,feedback_image_window,NmHCyEPpkngdEMJqampJPnMsiNk2,NmHCyEPpkngdEMJqampJPnMsiNk2,,,,,,,,,,,,,,,,,,,,,,59d65ad8e2762800015eb51b,09:09:47,27/02/2024
html-keyboard-response,188,484205,0.0-78.0,,"<div style=""font-size:100px;"">+</div>",,delaylearn,learning,ITI,NmHCyEPpkngdEMJqampJPnMsiNk2,NmHCyEPpkngdEMJqampJPnMsiNk2,,,,,,,,,,,,,,,,,,,2144.0,,,59d65ad8e2762800015eb51b,09:09:47,27/02/2024
html-keyboard-response,189,484884,0.0-79.0-0.0,675.8999998569489,"<div style=""display: flex; flex-direction: column; align-items: center; margin-top: -40px;""><img src=""images/pattern_3.png"" style=""width: 234px; height: 230px; margin-top: -50px;""><div style=""display: flex; justify-content: space-between; margin-top: 33px;""><img src=""images/choice_trial_6.png"" style=""width: 408px; height: 417px; margin-right: 200px;""><img src=""images/choice_trial_16.png"" style=""width: 408px; height: 417px;""></div></div>",j,delaylearn,learning,trial,NmHCyEPpkngdEMJqampJPnMsiNk2,NmHCyEPpkngdEMJqampJPnMsiNk2,4.0,images/choice_trial_6.png,images/choice_trial_16.png,images/pattern_3.png,j,j,7000.0,6.0,16.0,2.0,1.0,34.0,1.0,1.0,16.0,210.0,,,,,,59d65ad8e2762800015eb51b,09:09:47,27/02/2024
html-keyboard-response,190,485892,0.0-79.0-1.0,,"<div style=""display: flex; flex-direction: column; align-items: center; margin-top: -40px;""><img src=""images/pattern_3.png"" style=""width: 234px; height: 230px; margin-top: -50px;""><div style=""display: flex; justify-content: space-between; margin-top: 33px;""><img src=""images/choice_trial_16.png"" style=""width: 408px; height: 417px; margin-left:608px;""></div></div>",,delaylearn,learning,display_response,NmHCyEPpkngdEMJqampJPnMsiNk2,NmHCyEPpkngdEMJqampJPnMsiNk2,,,,,,,,,,,,,,,,,chosen stimuli: images/choice_trial_16.png,,,,,59d65ad8e2762800015eb51b,09:09:47,27/02/2024
html-keyboard-response,191,492894,0.0-79.0-2.0,,,,delaylearn,learning,feedback_duration_window,NmHCyEPpkngdEMJqampJPnMsiNk2,NmHCyEPpkngdEMJqampJPnMsiNk2,,,,,,,,,,,,,,,,,,7000.0,,,,59d65ad8e2762800015eb51b,09:09:47,27/02/2024
html-keyboard-response,192,494401,0.0-79.0-3.0,,<div style='margin:auto;width: auto; font-size: 150%'><span style='font-weight: bold; font-size: 100px; color: green;'>+10 points!</span><br><br></div>,,delaylearn,learning,feedback_image_window,NmHCyEPpkngdEMJqampJPnMsiNk2,NmHCyEPpkngdEMJqampJPnMsiNk2,,,,,,,,,,,,,,,,,,,,,,59d65ad8e2762800015eb51b,09:09:47,27/02/2024
html-keyboard-response,193,496887,0.0-80.0,,"<div style=""font-size:100px;"">+</div>",,delaylearn,learning,ITI,NmHCyEPpkngdEMJqampJPnMsiNk2,NmHCyEPpkngdEMJqampJPnMsiNk2,,,,,,,,,,,,,,,,,,,2482.0,,,59d65ad8e2762800015eb51b,09:09:47,27/02/2024
html-keyboard-response,194,497705,0.0-81.0-0.0,815.6000001430511,"<div style=""display: flex; flex-direction: column; align-items: center; margin-top: -40px;""><img src=""images/pattern_4.png"" style=""width: 234px; height: 230px; margin-top: -50px;""><div style=""display: flex; justify-content: space-between; margin-top: 33px;""><img src=""images/choice_trial_7.png"" style=""width: 408px; height: 417px; margin-right: 200px;""><img src=""images/choice_trial_8.png"" style=""width: 408px; height: 417px;""></div></div>",j,delaylearn,learning,trial,NmHCyEPpkngdEMJqampJPnMsiNk2,NmHCyEPpkngdEMJqampJPnMsiNk2,4.0,images/choice_trial_7.png,images/choice_trial_8.png,images/pattern_4.png,f,j,7000.0,7.0,8.0,3.0,1.0,35.0,1.0,0.0,8.0,210.0,,,,,,59d65ad8e2762800015eb51b,09:09:47,27/02/2024
html-keyboard-response,195,498710,0.0-81.0-1.0,,"<div style=""display: flex; flex-direction: column; align-items: center; margin-top: -40px;""><img src=""images/pattern_4.png"" style=""width: 234px; height: 230px; margin-top: -50px;""><div style=""display: flex; justify-content: space-between; margin-top: 33px;""><img src=""images/choice_trial_8.png"" style=""width: 408px; height: 417px; margin-left:608px;""></div></div>",,delaylearn,learning,display_response,NmHCyEPpkngdEMJqampJPnMsiNk2,NmHCyEPpkngdEMJqampJPnMsiNk2,,,,,,,,,,,,,,,,,chosen stimuli: images/choice_trial_8.png,,,,,59d65ad8e2762800015eb51b,09:09:47,27/02/2024
html-keyboard-response,196,505718,0.0-81.0-2.0,,,,delaylearn,learning,feedback_duration_window,NmHCyEPpkngdEMJqampJPnMsiNk2,NmHCyEPpkngdEMJqampJPnMsiNk2,,,,,,,,,,,,,,,,,,7000.0,,,,59d65ad8e2762800015eb51b,09:09:47,27/02/2024
html-keyboard-response,197,507234,0.0-81.0-3.0,,<div style='margin:auto;width: auto; font-size: 150%'><span style='font-weight: bold; font-size: 100px; color: red;'>0 points!</span><br><br></div>,,delaylearn,learning,feedback_image_window,NmHCyEPpkngdEMJqampJPnMsiNk2,NmHCyEPpkngdEMJqampJPnMsiNk2,,,,,,,,,,,,,,,,,,,,,,59d65ad8e2762800015eb51b,09:09:47,27/02/2024
html-keyboard-response,198,509112,0.0-82.0,,"<div style=""font-size:100px;"">+</div>",,delaylearn,learning,ITI,NmHCyEPpkngdEMJqampJPnMsiNk2,NmHCyEPpkngdEMJqampJPnMsiNk2,,,,,,,,,,,,,,,,,,,1867.0,,,59d65ad8e2762800015eb51b,09:09:47,27/02/2024
html-keyboard-response,199,510176,0.0-83.0-0.0,1062.7999999523163,"<div style=""display: flex; flex-direction: column; align-items: center; margin-top: -40px;""><img src=""images/pattern_7.png"" style=""width: 234px; height: 230px; margin-top: -50px;""><div style=""display: flex; justify-content: space-between; margin-top: 33px;""><img src=""images/choice_trial_13.png"" style=""width: 408px; height: 417px; margin-right: 200px;""><img src=""images/choice_trial_4.png"" style=""width: 408px; height: 417px;""></div></div>",j,delaylearn,learning,trial,NmHCyEPpkngdEMJqampJPnMsiNk2,NmHCyEPpkngdEMJqampJPnMsiNk2,4.0,images/choice_trial_13.png,images/choice_trial_4.png,images/pattern_7.png,f,f,750.0,13.0,4.0,6.0,0.0,36.0,0.0,0.0,4.0,210.0,,,,,,59d65ad8e2762800015eb51b,09:09:47,27/02/2024
html-keyboard-response,200,511192,0.0-83.0-1.0,,"<div style=""display: flex; flex-direction: column; align-items: center; margin-top: -40px;""><img src=""images/pattern_7.png"" style=""width: 234px; height: 230px; margin-top: -50px;""><div style=""display: flex; justify-content: space-between; margin-top: 33px;""><img src=""images/choice_trial_4.png"" style=""width: 408px; height: 417px; margin-left:608px;""></div></div>",,delaylearn,learning,display_response,NmHCyEPpkngdEMJqampJPnMsiNk2,NmHCyEPpkngdEMJqampJPnMsiNk2,,,,,,,,,,,,,,,,,chosen stimuli: images/choice_trial_4.png,,,,,59d65ad8e2762800015eb51b,09:09:47,27/02/2024
html-keyboard-response,201,511946,0.0-83.0-2.0,,,,delaylearn,learning,feedback_duration_window,NmHCyEPpkngdEMJqampJPnMsiNk2,NmHCyEPpkngdEMJqampJPnMsiNk2,,,,,,,,,,,,,,,,,,750.0,,,,59d65ad8e2762800015eb51b,09:09:47,27/02/2024
html-keyboard-response,202,513457,0.0-83.0-3.0,,<div style='margin:auto;width: auto; font-size: 150%'><span style='font-weight: bold; font-size: 100px; color: red;'>0 points!</span><br><br></div>,,delaylearn,learning,feedback_image_window,NmHCyEPpkngdEMJqampJPnMsiNk2,NmHCyEPpkngdEMJqampJPnMsiNk2,,,,,,,,,,,,,,,,,,,,,,59d65ad8e2762800015eb51b,09:09:47,27/02/2024
html-keyboard-response,203,515359,0.0-84.0,,"<div style=""font-size:100px;"">+</div>",,delaylearn,learning,ITI,NmHCyEPpkngdEMJqampJPnMsiNk2,NmHCyEPpkngdEMJqampJPnMsiNk2,,,,,,,,,,,,,,,,,,,1898.0,,,59d65ad8e2762800015eb51b,09:09:47,27/02/2024
html-keyboard-response,204,517680,0.0-85.0-0.0,2317.4000000953674,"<div style=""display: flex; flex-direction: column; align-items: center; margin-top: -40px;""><img src=""images/pattern_1.png"" style=""width: 234px; height: 230px; margin-top: -50px;""><div style=""display: flex; justify-content: space-between; margin-top: 33px;""><img src=""images/choice_trial_1.png"" style=""width: 408px; height: 417px; margin-right: 200px;""><img src=""images/choice_trial_9.png"" style=""width: 408px; height: 417px;""></div></div>",j,delaylearn,learning,trial,NmHCyEPpkngdEMJqampJPnMsiNk2,NmHCyEPpkngdEMJqampJPnMsiNk2,4.0,images/choice_trial_1.png,images/choice_trial_9.png,images/pattern_1.png,f,f,7000.0,1.0,9.0,1.0,0.0,37.0,0.0,0.0,9.0,210.0,,,,,,59d65ad8e2762800015eb51b,09:09:47,27/02/2024
html-keyboard-response,205,518692,0.0-85.0-1.0,,"<div style=""display: flex; flex-direction: column; align-items: center; margin-top: -40px;""><img src=""images/pattern_1.png"" style=""width: 234px; height: 230px; margin-top: -50px;""><div style=""display: flex; justify-content: space-between; margin-top: 33px;""><img src=""images/choice_trial_9.png"" style=""width: 408px; height: 417px; margin-left:608px;""></div></div>",,delaylearn,learning,display_response,NmHCyEPpkngdEMJqampJPnMsiNk2,NmHCyEPpkngdEMJqampJPnMsiNk2,,,,,,,,,,,,,,,,,chosen stimuli: images/choice_trial_9.png,,,,,59d65ad8e2762800015eb51b,09:09:47,27/02/2024
html-keyboard-response,206,525699,0.0-85.0-2.0,,,,delaylearn,learning,feedback_duration_window,NmHCyEPpkngdEMJqampJPnMsiNk2,NmHCyEPpkngdEMJqampJPnMsiNk2,,,,,,,,,,,,,,,,,,7000.0,,,,59d65ad8e2762800015eb51b,09:09:47,27/02/2024
html-keyboard-response,207,527211,0.0-85.0-3.0,,<div style='margin:auto;width: auto; font-size: 150%'><span style='font-weight: bold; font-size: 100px; color: red;'>0 points!</span><br><br></div>,,delaylearn,learning,feedback_image_window,NmHCyEPpkngdEMJqampJPnMsiNk2,NmHCyEPpkngdEMJqampJPnMsiNk2,,,,,,,,,,,,,,,,,,,,,,59d65ad8e2762800015eb51b,09:09:47,27/02/2024
html-keyboard-response,208,527725,0.0-86.0-0.0,,,,,,mood_trial_fixation,NmHCyEPpkngdEMJqampJPnMsiNk2,,,,,,,,,,,,,,,,,,,,,,,59d65ad8e2762800015eb51b,09:09:47,27/02/2024
lmdlab-html-vas-response,209,533083,0.0-86.0-1.0,4347.0,How happy are you right now?,0.49037901605775547,delaylearn,learning,mood_trial,NmHCyEPpkngdEMJqampJPnMsiNk2,NmHCyEPpkngdEMJqampJPnMsiNk2,,,,,,,,,,,,,,,,,,,,"['Very unhappy', 'Very happy']",,59d65ad8e2762800015eb51b,09:09:47,27/02/2024
html-keyboard-response,210,535515,0.0-87.0,,"<div style=""font-size:100px;"">+</div>",,delaylearn,learning,ITI,NmHCyEPpkngdEMJqampJPnMsiNk2,NmHCyEPpkngdEMJqampJPnMsiNk2,,,,,,,,,,,,,,,,,,,2417.0,,,59d65ad8e2762800015eb51b,09:09:47,27/02/2024
html-keyboard-response,211,537155,0.0-88.0-0.0,1625.6000001430511,"<div style=""display: flex; flex-direction: column; align-items: center; margin-top: -40px;""><img src=""images/pattern_3.png"" style=""width: 234px; height: 230px; margin-top: -50px;""><div style=""display: flex; justify-content: space-between; margin-top: 33px;""><img src=""images/choice_trial_16.png"" style=""width: 408px; height: 417px; margin-right: 200px;""><img src=""images/choice_trial_6.png"" style=""width: 408px; height: 417px;""></div></div>",f,delaylearn,learning,trial,NmHCyEPpkngdEMJqampJPnMsiNk2,NmHCyEPpkngdEMJqampJPnMsiNk2,4.0,images/choice_trial_16.png,images/choice_trial_6.png,images/pattern_3.png,j,f,7000.0,16.0,6.0,2.0,0.0,38.0,1.0,0.0,16.0,210.0,,,,,,59d65ad8e2762800015eb51b,09:09:47,27/02/2024
html-keyboard-response,212,538170,0.0-88.0-1.0,,"<div style=""display: flex; flex-direction: column; align-items: center; margin-top: -40px;""><img src=""images/pattern_3.png"" style=""width: 234px; height: 230px; margin-top: -50px;""><div style=""display: flex; justify-content: space-between; margin-top: 33px;""><img src=""images/choice_trial_16.png"" style=""width: 408px; height: 417px; margin-right: 608px;""></div></div>",,delaylearn,learning,display_response,NmHCyEPpkngdEMJqampJPnMsiNk2,NmHCyEPpkngdEMJqampJPnMsiNk2,,,,,,,,,,,,,,,,,chosen stimuli: images/choice_trial_16.png,,,,,59d65ad8e2762800015eb51b,09:09:47,27/02/2024
html-keyboard-response,213,545178,0.0-88.0-2.0,,,,delaylearn,learning,feedback_duration_window,NmHCyEPpkngdEMJqampJPnMsiNk2,NmHCyEPpkngdEMJqampJPnMsiNk2,,,,,,,,,,,,,,,,,,7000.0,,,,59d65ad8e2762800015eb51b,09:09:47,27/02/2024
html-keyboard-response,214,546688,0.0-88.0-3.0,,<div style='margin:auto;width: auto; font-size: 150%'><span style='font-weight: bold; font-size: 100px; color: red;'>0 points!</span><br><br></div>,,delaylearn,learning,feedback_image_window,NmHCyEPpkngdEMJqampJPnMsiNk2,NmHCyEPpkngdEMJqampJPnMsiNk2,,,,,,,,,,,,,,,,,,,,,,59d65ad8e2762800015eb51b,09:09:47,27/02/2024
html-keyboard-response,215,548564,0.0-89.0,,"<div style=""font-size:100px;"">+</div>",,delaylearn,learning,ITI,NmHCyEPpkngdEMJqampJPnMsiNk2,NmHCyEPpkngdEMJqampJPnMsiNk2,,,,,,,,,,,,,,,,,,,1867.0,,,59d65ad8e2762800015eb51b,09:09:47,27/02/2024
html-keyboard-response,216,549621,0.0-90.0-0.0,1053.7000000476837,"<div style=""display: flex; flex-direction: column; align-items: center; margin-top: -40px;""><img src=""images/pattern_7.png"" style=""width: 234px; height: 230px; margin-top: -50px;""><div style=""display: flex; justify-content: space-between; margin-top: 33px;""><img src=""images/choice_trial_4.png"" style=""width: 408px; height: 417px; margin-right: 200px;""><img src=""images/choice_trial_13.png"" style=""width: 408px; height: 417px;""></div></div>",j,delaylearn,learning,trial,NmHCyEPpkngdEMJqampJPnMsiNk2,NmHCyEPpkngdEMJqampJPnMsiNk2,4.0,images/choice_trial_4.png,images/choice_trial_13.png,images/pattern_7.png,j,j,750.0,4.0,13.0,6.0,1.0,39.0,1.0,1.0,13.0,220.0,,,,,,59d65ad8e2762800015eb51b,09:09:47,27/02/2024
html-keyboard-response,217,550630,0.0-90.0-1.0,,"<div style=""display: flex; flex-direction: column; align-items: center; margin-top: -40px;""><img src=""images/pattern_7.png"" style=""width: 234px; height: 230px; margin-top: -50px;""><div style=""display: flex; justify-content: space-between; margin-top: 33px;""><img src=""images/choice_trial_13.png"" style=""width: 408px; height: 417px; margin-left:608px;""></div></div>",,delaylearn,learning,display_response,NmHCyEPpkngdEMJqampJPnMsiNk2,NmHCyEPpkngdEMJqampJPnMsiNk2,,,,,,,,,,,,,,,,,chosen stimuli: images/choice_trial_13.png,,,,,59d65ad8e2762800015eb51b,09:09:47,27/02/2024
html-keyboard-response,218,551384,0.0-90.0-2.0,,,,delaylearn,learning,feedback_duration_window,NmHCyEPpkngdEMJqampJPnMsiNk2,NmHCyEPpkngdEMJqampJPnMsiNk2,,,,,,,,,,,,,,,,,,750.0,,,,59d65ad8e2762800015eb51b,09:09:47,27/02/2024
html-keyboard-response,219,552888,0.0-90.0-3.0,,<div style='margin:auto;width: auto; font-size: 150%'><span style='font-weight: bold; font-size: 100px; color: green;'>+10 points!</span><br><br></div>,,delaylearn,learning,feedback_image_window,NmHCyEPpkngdEMJqampJPnMsiNk2,NmHCyEPpkngdEMJqampJPnMsiNk2,,,,,,,,,,,,,,,,,,,,,,59d65ad8e2762800015eb51b,09:09:47,27/02/2024
html-keyboard-response,220,555143,0.0-91.0,,"<div style=""font-size:100px;"">+</div>",,delaylearn,learning,ITI,NmHCyEPpkngdEMJqampJPnMsiNk2,NmHCyEPpkngdEMJqampJPnMsiNk2,,,,,,,,,,,,,,,,,,,2250.0,,,59d65ad8e2762800015eb51b,09:09:47,27/02/2024
html-keyboard-response,221,557050,0.0-92.0-0.0,1900.9000000953674,"<div style=""display: flex; flex-direction: column; align-items: center; margin-top: -40px;""><img src=""images/pattern_5.png"" style=""width: 234px; height: 230px; margin-top: -50px;""><div style=""display: flex; justify-content: space-between; margin-top: 33px;""><img src=""images/choice_trial_15.png"" style=""width: 408px; height: 417px; margin-right: 200px;""><img src=""images/choice_trial_5.png"" style=""width: 408px; height: 417px;""></div></div>",j,delaylearn,learning,trial,NmHCyEPpkngdEMJqampJPnMsiNk2,NmHCyEPpkngdEMJqampJPnMsiNk2,4.0,images/choice_trial_15.png,images/choice_trial_5.png,images/pattern_5.png,j,j,750.0,15.0,5.0,4.0,1.0,40.0,1.0,1.0,5.0,230.0,,,,,,59d65ad8e2762800015eb51b,09:09:47,27/02/2024
html-keyboard-response,222,558063,0.0-92.0-1.0,,"<div style=""display: flex; flex-direction: column; align-items: center; margin-top: -40px;""><img src=""images/pattern_5.png"" style=""width: 234px; height: 230px; margin-top: -50px;""><div style=""display: flex; justify-content: space-between; margin-top: 33px;""><img src=""images/choice_trial_5.png"" style=""width: 408px; height: 417px; margin-left:608px;""></div></div>",,delaylearn,learning,display_response,NmHCyEPpkngdEMJqampJPnMsiNk2,NmHCyEPpkngdEMJqampJPnMsiNk2,,,,,,,,,,,,,,,,,chosen stimuli: images/choice_trial_5.png,,,,,59d65ad8e2762800015eb51b,09:09:47,27/02/2024
html-keyboard-response,223,558825,0.0-92.0-2.0,,,,delaylearn,learning,feedback_duration_window,NmHCyEPpkngdEMJqampJPnMsiNk2,NmHCyEPpkngdEMJqampJPnMsiNk2,,,,,,,,,,,,,,,,,,750.0,,,,59d65ad8e2762800015eb51b,09:09:47,27/02/2024
html-keyboard-response,224,560335,0.0-92.0-3.0,,<div style='margin:auto;width: auto; font-size: 150%'><span style='font-weight: bold; font-size: 100px; color: green;'>+10 points!</span><br><br></div>,,delaylearn,learning,feedback_image_window,NmHCyEPpkngdEMJqampJPnMsiNk2,NmHCyEPpkngdEMJqampJPnMsiNk2,,,,,,,,,,,,,,,,,,,,,,59d65ad8e2762800015eb51b,09:09:47,27/02/2024
html-keyboard-response,225,560852,0.0-93.0-0.0,,,,,,mood_trial_fixation,NmHCyEPpkngdEMJqampJPnMsiNk2,,,,,,,,,,,,,,,,,,,,,,,59d65ad8e2762800015eb51b,09:09:47,27/02/2024
lmdlab-html-vas-response,226,565992,0.0-93.0-1.0,4120.0,How happy are you right now?,0.5173851876254052,delaylearn,learning,mood_trial,NmHCyEPpkngdEMJqampJPnMsiNk2,NmHCyEPpkngdEMJqampJPnMsiNk2,,,,,,,,,,,,,,,,,,,,"['Very unhappy', 'Very happy']",,59d65ad8e2762800015eb51b,09:09:47,27/02/2024
html-keyboard-response,227,568011,0.0-94.0,,"<div style=""font-size:100px;"">+</div>",,delaylearn,learning,ITI,NmHCyEPpkngdEMJqampJPnMsiNk2,NmHCyEPpkngdEMJqampJPnMsiNk2,,,,,,,,,,,,,,,,,,,2012.0,,,59d65ad8e2762800015eb51b,09:09:47,27/02/2024
html-keyboard-response,228,570012,0.0-95.0-0.0,1997.6000001430511,"<div style=""display: flex; flex-direction: column; align-items: center; margin-top: -40px;""><img src=""images/pattern_4.png"" style=""width: 234px; height: 230px; margin-top: -50px;""><div style=""display: flex; justify-content: space-between; margin-top: 33px;""><img src=""images/choice_trial_8.png"" style=""width: 408px; height: 417px; margin-right: 200px;""><img src=""images/choice_trial_7.png"" style=""width: 408px; height: 417px;""></div></div>",j,delaylearn,learning,trial,NmHCyEPpkngdEMJqampJPnMsiNk2,NmHCyEPpkngdEMJqampJPnMsiNk2,4.0,images/choice_trial_8.png,images/choice_trial_7.png,images/pattern_4.png,f,f,7000.0,8.0,7.0,3.0,0.0,41.0,0.0,0.0,7.0,230.0,,,,,,59d65ad8e2762800015eb51b,09:09:47,27/02/2024
html-keyboard-response,229,571027,0.0-95.0-1.0,,"<div style=""display: flex; flex-direction: column; align-items: center; margin-top: -40px;""><img src=""images/pattern_4.png"" style=""width: 234px; height: 230px; margin-top: -50px;""><div style=""display: flex; justify-content: space-between; margin-top: 33px;""><img src=""images/choice_trial_7.png"" style=""width: 408px; height: 417px; margin-left:608px;""></div></div>",,delaylearn,learning,display_response,NmHCyEPpkngdEMJqampJPnMsiNk2,NmHCyEPpkngdEMJqampJPnMsiNk2,,,,,,,,,,,,,,,,,chosen stimuli: images/choice_trial_7.png,,,,,59d65ad8e2762800015eb51b,09:09:47,27/02/2024
html-keyboard-response,230,578040,0.0-95.0-2.0,,,,delaylearn,learning,feedback_duration_window,NmHCyEPpkngdEMJqampJPnMsiNk2,NmHCyEPpkngdEMJqampJPnMsiNk2,,,,,,,,,,,,,,,,,,7000.0,,,,59d65ad8e2762800015eb51b,09:09:47,27/02/2024
html-keyboard-response,231,579543,0.0-95.0-3.0,,<div style='margin:auto;width: auto; font-size: 150%'><span style='font-weight: bold; font-size: 100px; color: red;'>0 points!</span><br><br></div>,,delaylearn,learning,feedback_image_window,NmHCyEPpkngdEMJqampJPnMsiNk2,NmHCyEPpkngdEMJqampJPnMsiNk2,,,,,,,,,,,,,,,,,,,,,,59d65ad8e2762800015eb51b,09:09:47,27/02/2024
