trial_type,trial_index,time_elapsed,internal_node_id,rt,stimulus,response,exp_name,exp_stage,test_part,subjectID,databaseID,counterbal,choice_stimuli_1,choice_stimuli_2,pattern_stimuli,rewarded_answer,correct_answer,feedback_duration_times,stim_left,stim_right,pair,leftright_counter,trial,response_correct,response_rewarded,chosen_stim,counter,displayed_choice,feedback_durations,ITI_duration,labels,rest_warning,prolificID,start_time,date
pavlovia,0,522,0.0-0.0,,,,,,,rQ9DiOUUhRYGcjkGOTzgqnYzqoQ2,,,,,,,,,,,,,,,,,,,,,,,5cdef3d318f742000174cc23,16:33:06,27/03/2024
html-keyboard-response,1,3531,0.0-1.0,,"<div style=""font-size:100px;"">+</div>",,delaylearn,learning,pre_fixation,rQ9DiOUUhRYGcjkGOTzgqnYzqoQ2,,,,,,,,,,,,,,,,,,,,,,,5cdef3d318f742000174cc23,16:33:06,27/03/2024
html-keyboard-response,2,4717,0.0-2.0-0.0,1182.300000000745,"<div style=""display: flex; flex-direction: column; align-items: center; margin-top: -40px;""><img src=""images/demo_images/pattern_1.png"" style=""width: 234px; height: 230px; margin-top: -50px;""><div style=""display: flex; justify-content: space-between; margin-top: 33px;""><img src=""images/demo_images/choice_trial_2.png"" style=""width: 408px; height: 417px; margin-right: 200px;""><img src=""images/demo_images/choice_trial_1.png"" style=""width: 408px; height: 417px;""></div></div>",j,delaylearn,learning,trial,rQ9DiOUUhRYGcjkGOTzgqnYzqoQ2,rQ9DiOUUhRYGcjkGOTzgqnYzqoQ2,2.0,images/demo_images/choice_trial_2.png,images/demo_images/choice_trial_1.png,images/demo_images/pattern_1.png,j,j,3000.0,2.0,1.0,20.0,1.0,1.0,1.0,1.0,1.0,10.0,,,,,,5cdef3d318f742000174cc23,16:33:06,27/03/2024
html-keyboard-response,3,5733,0.0-2.0-1.0,,"<div style=""display: flex; flex-direction: column; align-items: center; margin-top: -40px;""><img src=""images/demo_images/pattern_1.png"" style=""width: 234px; height: 230px; margin-top: -50px;""><div style=""display: flex; justify-content: space-between; margin-top: 33px;""><img src=""images/demo_images/choice_trial_1.png"" style=""width: 408px; height: 417px; margin-left:608px;""></div></div>",,delaylearn,learning,display_response,rQ9DiOUUhRYGcjkGOTzgqnYzqoQ2,rQ9DiOUUhRYGcjkGOTzgqnYzqoQ2,,,,,,,,,,,,,,,,,chosen stimuli: images/demo_images/choice_trial_1.png,,,,,5cdef3d318f742000174cc23,16:33:06,27/03/2024
html-keyboard-response,4,8747,0.0-2.0-2.0,,,,delaylearn,learning,feedback_duration_window,rQ9DiOUUhRYGcjkGOTzgqnYzqoQ2,rQ9DiOUUhRYGcjkGOTzgqnYzqoQ2,,,,,,,,,,,,,,,,,,3000.0,,,,5cdef3d318f742000174cc23,16:33:06,27/03/2024
html-keyboard-response,5,10252,0.0-2.0-3.0,,<div style='margin:auto;width: auto; font-size: 150%'><span style='font-weight: bold; font-size: 100px; color: green;'>+10 points!</span><br><br></div>,,delaylearn,learning,feedback_image_window,rQ9DiOUUhRYGcjkGOTzgqnYzqoQ2,rQ9DiOUUhRYGcjkGOTzgqnYzqoQ2,,,,,,,,,,,,,,,,,,,,,,5cdef3d318f742000174cc23,16:33:06,27/03/2024
html-keyboard-response,6,11865,0.0-3.0,,"<div style=""font-size:100px;"">+</div>",,delaylearn,learning,ITI,rQ9DiOUUhRYGcjkGOTzgqnYzqoQ2,rQ9DiOUUhRYGcjkGOTzgqnYzqoQ2,,,,,,,,,,,,,,,,,,,1608.0,,,5cdef3d318f742000174cc23,16:33:06,27/03/2024
html-keyboard-response,7,13807,0.0-4.0-0.0,1936.5,"<div style=""display: flex; flex-direction: column; align-items: center; margin-top: -40px;""><img src=""images/demo_images/pattern_1.png"" style=""width: 234px; height: 230px; margin-top: -50px;""><div style=""display: flex; justify-content: space-between; margin-top: 33px;""><img src=""images/demo_images/choice_trial_2.png"" style=""width: 408px; height: 417px; margin-right: 200px;""><img src=""images/demo_images/choice_trial_1.png"" style=""width: 408px; height: 417px;""></div></div>",j,delaylearn,learning,trial,rQ9DiOUUhRYGcjkGOTzgqnYzqoQ2,rQ9DiOUUhRYGcjkGOTzgqnYzqoQ2,2.0,images/demo_images/choice_trial_2.png,images/demo_images/choice_trial_1.png,images/demo_images/pattern_1.png,j,j,3000.0,2.0,1.0,20.0,1.0,2.0,1.0,1.0,1.0,20.0,,,,,,5cdef3d318f742000174cc23,16:33:06,27/03/2024
html-keyboard-response,8,14822,0.0-4.0-1.0,,"<div style=""display: flex; flex-direction: column; align-items: center; margin-top: -40px;""><img src=""images/demo_images/pattern_1.png"" style=""width: 234px; height: 230px; margin-top: -50px;""><div style=""display: flex; justify-content: space-between; margin-top: 33px;""><img src=""images/demo_images/choice_trial_1.png"" style=""width: 408px; height: 417px; margin-left:608px;""></div></div>",,delaylearn,learning,display_response,rQ9DiOUUhRYGcjkGOTzgqnYzqoQ2,rQ9DiOUUhRYGcjkGOTzgqnYzqoQ2,,,,,,,,,,,,,,,,,chosen stimuli: images/demo_images/choice_trial_1.png,,,,,5cdef3d318f742000174cc23,16:33:06,27/03/2024
html-keyboard-response,9,17825,0.0-4.0-2.0,,,,delaylearn,learning,feedback_duration_window,rQ9DiOUUhRYGcjkGOTzgqnYzqoQ2,rQ9DiOUUhRYGcjkGOTzgqnYzqoQ2,,,,,,,,,,,,,,,,,,3000.0,,,,5cdef3d318f742000174cc23,16:33:06,27/03/2024
html-keyboard-response,10,19328,0.0-4.0-3.0,,<div style='margin:auto;width: auto; font-size: 150%'><span style='font-weight: bold; font-size: 100px; color: green;'>+10 points!</span><br><br></div>,,delaylearn,learning,feedback_image_window,rQ9DiOUUhRYGcjkGOTzgqnYzqoQ2,rQ9DiOUUhRYGcjkGOTzgqnYzqoQ2,,,,,,,,,,,,,,,,,,,,,,5cdef3d318f742000174cc23,16:33:06,27/03/2024
html-keyboard-response,11,21324,0.0-5.0,,"<div style=""font-size:100px;"">+</div>",,delaylearn,learning,ITI,rQ9DiOUUhRYGcjkGOTzgqnYzqoQ2,rQ9DiOUUhRYGcjkGOTzgqnYzqoQ2,,,,,,,,,,,,,,,,,,,1995.0,,,5cdef3d318f742000174cc23,16:33:06,27/03/2024
html-keyboard-response,12,22971,0.0-6.0-0.0,1646.0,"<div style=""display: flex; flex-direction: column; align-items: center; margin-top: -40px;""><img src=""images/demo_images/pattern_1.png"" style=""width: 234px; height: 230px; margin-top: -50px;""><div style=""display: flex; justify-content: space-between; margin-top: 33px;""><img src=""images/demo_images/choice_trial_1.png"" style=""width: 408px; height: 417px; margin-right: 200px;""><img src=""images/demo_images/choice_trial_2.png"" style=""width: 408px; height: 417px;""></div></div>",f,delaylearn,learning,trial,rQ9DiOUUhRYGcjkGOTzgqnYzqoQ2,rQ9DiOUUhRYGcjkGOTzgqnYzqoQ2,2.0,images/demo_images/choice_trial_1.png,images/demo_images/choice_trial_2.png,images/demo_images/pattern_1.png,j,f,3000.0,1.0,2.0,20.0,0.0,3.0,1.0,0.0,1.0,20.0,,,,,,5cdef3d318f742000174cc23,16:33:06,27/03/2024
html-keyboard-response,13,23980,0.0-6.0-1.0,,"<div style=""display: flex; flex-direction: column; align-items: center; margin-top: -40px;""><img src=""images/demo_images/pattern_1.png"" style=""width: 234px; height: 230px; margin-top: -50px;""><div style=""display: flex; justify-content: space-between; margin-top: 33px;""><img src=""images/demo_images/choice_trial_1.png"" style=""width: 408px; height: 417px; margin-right: 608px;""></div></div>",,delaylearn,learning,display_response,rQ9DiOUUhRYGcjkGOTzgqnYzqoQ2,rQ9DiOUUhRYGcjkGOTzgqnYzqoQ2,,,,,,,,,,,,,,,,,chosen stimuli: images/demo_images/choice_trial_1.png,,,,,5cdef3d318f742000174cc23,16:33:06,27/03/2024
html-keyboard-response,14,26989,0.0-6.0-2.0,,,,delaylearn,learning,feedback_duration_window,rQ9DiOUUhRYGcjkGOTzgqnYzqoQ2,rQ9DiOUUhRYGcjkGOTzgqnYzqoQ2,,,,,,,,,,,,,,,,,,3000.0,,,,5cdef3d318f742000174cc23,16:33:06,27/03/2024
html-keyboard-response,15,28497,0.0-6.0-3.0,,<div style='margin:auto;width: auto; font-size: 150%'><span style='font-weight: bold; font-size: 100px; color: red;'>0 points!</span><br><br></div>,,delaylearn,learning,feedback_image_window,rQ9DiOUUhRYGcjkGOTzgqnYzqoQ2,rQ9DiOUUhRYGcjkGOTzgqnYzqoQ2,,,,,,,,,,,,,,,,,,,,,,5cdef3d318f742000174cc23,16:33:06,27/03/2024
html-keyboard-response,16,30113,0.0-7.0,,"<div style=""font-size:100px;"">+</div>",,delaylearn,learning,ITI,rQ9DiOUUhRYGcjkGOTzgqnYzqoQ2,rQ9DiOUUhRYGcjkGOTzgqnYzqoQ2,,,,,,,,,,,,,,,,,,,1613.0,,,5cdef3d318f742000174cc23,16:33:06,27/03/2024
html-keyboard-response,17,32750,0.0-8.0-0.0,2634.0,"<div style=""display: flex; flex-direction: column; align-items: center; margin-top: -40px;""><img src=""images/demo_images/pattern_1.png"" style=""width: 234px; height: 230px; margin-top: -50px;""><div style=""display: flex; justify-content: space-between; margin-top: 33px;""><img src=""images/demo_images/choice_trial_1.png"" style=""width: 408px; height: 417px; margin-right: 200px;""><img src=""images/demo_images/choice_trial_2.png"" style=""width: 408px; height: 417px;""></div></div>",f,delaylearn,learning,trial,rQ9DiOUUhRYGcjkGOTzgqnYzqoQ2,rQ9DiOUUhRYGcjkGOTzgqnYzqoQ2,2.0,images/demo_images/choice_trial_1.png,images/demo_images/choice_trial_2.png,images/demo_images/pattern_1.png,f,f,3000.0,1.0,2.0,20.0,0.0,4.0,1.0,1.0,1.0,30.0,,,,,,5cdef3d318f742000174cc23,16:33:06,27/03/2024
html-keyboard-response,18,33767,0.0-8.0-1.0,,"<div style=""display: flex; flex-direction: column; align-items: center; margin-top: -40px;""><img src=""images/demo_images/pattern_1.png"" style=""width: 234px; height: 230px; margin-top: -50px;""><div style=""display: flex; justify-content: space-between; margin-top: 33px;""><img src=""images/demo_images/choice_trial_1.png"" style=""width: 408px; height: 417px; margin-right: 608px;""></div></div>",,delaylearn,learning,display_response,rQ9DiOUUhRYGcjkGOTzgqnYzqoQ2,rQ9DiOUUhRYGcjkGOTzgqnYzqoQ2,,,,,,,,,,,,,,,,,chosen stimuli: images/demo_images/choice_trial_1.png,,,,,5cdef3d318f742000174cc23,16:33:06,27/03/2024
html-keyboard-response,19,36782,0.0-8.0-2.0,,,,delaylearn,learning,feedback_duration_window,rQ9DiOUUhRYGcjkGOTzgqnYzqoQ2,rQ9DiOUUhRYGcjkGOTzgqnYzqoQ2,,,,,,,,,,,,,,,,,,3000.0,,,,5cdef3d318f742000174cc23,16:33:06,27/03/2024
html-keyboard-response,20,38285,0.0-8.0-3.0,,<div style='margin:auto;width: auto; font-size: 150%'><span style='font-weight: bold; font-size: 100px; color: green;'>+10 points!</span><br><br></div>,,delaylearn,learning,feedback_image_window,rQ9DiOUUhRYGcjkGOTzgqnYzqoQ2,rQ9DiOUUhRYGcjkGOTzgqnYzqoQ2,,,,,,,,,,,,,,,,,,,,,,5cdef3d318f742000174cc23,16:33:06,27/03/2024
html-keyboard-response,21,38800,0.0-9.0-0.0,,,,,,mood_trial_fixation,rQ9DiOUUhRYGcjkGOTzgqnYzqoQ2,,,,,,,,,,,,,,,,,,,,,,,5cdef3d318f742000174cc23,16:33:06,27/03/2024
lmdlab-html-vas-response,22,43382,0.0-9.0-1.0,3560.0,How happy are you right now?,0.5625,delaylearn,learning,mood_trial,rQ9DiOUUhRYGcjkGOTzgqnYzqoQ2,rQ9DiOUUhRYGcjkGOTzgqnYzqoQ2,,,,,,,,,,,,,,,,,,,,"['Very unhappy', 'Very happy']",,5cdef3d318f742000174cc23,16:33:06,27/03/2024
html-keyboard-response,23,45454,0.0-10.0,,"<div style=""font-size:100px;"">+</div>",,delaylearn,learning,ITI,rQ9DiOUUhRYGcjkGOTzgqnYzqoQ2,rQ9DiOUUhRYGcjkGOTzgqnYzqoQ2,,,,,,,,,,,,,,,,,,,2065.0,,,5cdef3d318f742000174cc23,16:33:06,27/03/2024
html-keyboard-response,24,48322,0.0-11.0-0.0,2865.800000000745,"<div style=""display: flex; flex-direction: column; align-items: center; margin-top: -40px;""><img src=""images/demo_images/pattern_1.png"" style=""width: 234px; height: 230px; margin-top: -50px;""><div style=""display: flex; justify-content: space-between; margin-top: 33px;""><img src=""images/demo_images/choice_trial_2.png"" style=""width: 408px; height: 417px; margin-right: 200px;""><img src=""images/demo_images/choice_trial_1.png"" style=""width: 408px; height: 417px;""></div></div>",f,delaylearn,learning,trial,rQ9DiOUUhRYGcjkGOTzgqnYzqoQ2,rQ9DiOUUhRYGcjkGOTzgqnYzqoQ2,2.0,images/demo_images/choice_trial_2.png,images/demo_images/choice_trial_1.png,images/demo_images/pattern_1.png,j,j,3000.0,2.0,1.0,20.0,1.0,5.0,0.0,0.0,2.0,30.0,,,,,,5cdef3d318f742000174cc23,16:33:06,27/03/2024
html-keyboard-response,25,49338,0.0-11.0-1.0,,"<div style=""display: flex; flex-direction: column; align-items: center; margin-top: -40px;""><img src=""images/demo_images/pattern_1.png"" style=""width: 234px; height: 230px; margin-top: -50px;""><div style=""display: flex; justify-content: space-between; margin-top: 33px;""><img src=""images/demo_images/choice_trial_2.png"" style=""width: 408px; height: 417px; margin-right: 608px;""></div></div>",,delaylearn,learning,display_response,rQ9DiOUUhRYGcjkGOTzgqnYzqoQ2,rQ9DiOUUhRYGcjkGOTzgqnYzqoQ2,,,,,,,,,,,,,,,,,chosen stimuli: images/demo_images/choice_trial_2.png,,,,,5cdef3d318f742000174cc23,16:33:06,27/03/2024
html-keyboard-response,26,52347,0.0-11.0-2.0,,,,delaylearn,learning,feedback_duration_window,rQ9DiOUUhRYGcjkGOTzgqnYzqoQ2,rQ9DiOUUhRYGcjkGOTzgqnYzqoQ2,,,,,,,,,,,,,,,,,,3000.0,,,,5cdef3d318f742000174cc23,16:33:06,27/03/2024
html-keyboard-response,27,53864,0.0-11.0-3.0,,<div style='margin:auto;width: auto; font-size: 150%'><span style='font-weight: bold; font-size: 100px; color: red;'>0 points!</span><br><br></div>,,delaylearn,learning,feedback_image_window,rQ9DiOUUhRYGcjkGOTzgqnYzqoQ2,rQ9DiOUUhRYGcjkGOTzgqnYzqoQ2,,,,,,,,,,,,,,,,,,,,,,5cdef3d318f742000174cc23,16:33:06,27/03/2024
html-keyboard-response,28,55578,0.0-12.0,,"<div style=""font-size:100px;"">+</div>",,delaylearn,learning,ITI,rQ9DiOUUhRYGcjkGOTzgqnYzqoQ2,rQ9DiOUUhRYGcjkGOTzgqnYzqoQ2,,,,,,,,,,,,,,,,,,,1709.0,,,5cdef3d318f742000174cc23,16:33:06,27/03/2024
html-keyboard-response,29,57003,0.0-13.0-0.0,1423.0,"<div style=""display: flex; flex-direction: column; align-items: center; margin-top: -40px;""><img src=""images/demo_images/pattern_1.png"" style=""width: 234px; height: 230px; margin-top: -50px;""><div style=""display: flex; justify-content: space-between; margin-top: 33px;""><img src=""images/demo_images/choice_trial_1.png"" style=""width: 408px; height: 417px; margin-right: 200px;""><img src=""images/demo_images/choice_trial_2.png"" style=""width: 408px; height: 417px;""></div></div>",f,delaylearn,learning,trial,rQ9DiOUUhRYGcjkGOTzgqnYzqoQ2,rQ9DiOUUhRYGcjkGOTzgqnYzqoQ2,2.0,images/demo_images/choice_trial_1.png,images/demo_images/choice_trial_2.png,images/demo_images/pattern_1.png,f,f,3000.0,1.0,2.0,20.0,0.0,6.0,1.0,1.0,1.0,40.0,,,,,,5cdef3d318f742000174cc23,16:33:06,27/03/2024
html-keyboard-response,30,58019,0.0-13.0-1.0,,"<div style=""display: flex; flex-direction: column; align-items: center; margin-top: -40px;""><img src=""images/demo_images/pattern_1.png"" style=""width: 234px; height: 230px; margin-top: -50px;""><div style=""display: flex; justify-content: space-between; margin-top: 33px;""><img src=""images/demo_images/choice_trial_1.png"" style=""width: 408px; height: 417px; margin-right: 608px;""></div></div>",,delaylearn,learning,display_response,rQ9DiOUUhRYGcjkGOTzgqnYzqoQ2,rQ9DiOUUhRYGcjkGOTzgqnYzqoQ2,,,,,,,,,,,,,,,,,chosen stimuli: images/demo_images/choice_trial_1.png,,,,,5cdef3d318f742000174cc23,16:33:06,27/03/2024
html-keyboard-response,31,61029,0.0-13.0-2.0,,,,delaylearn,learning,feedback_duration_window,rQ9DiOUUhRYGcjkGOTzgqnYzqoQ2,rQ9DiOUUhRYGcjkGOTzgqnYzqoQ2,,,,,,,,,,,,,,,,,,3000.0,,,,5cdef3d318f742000174cc23,16:33:06,27/03/2024
html-keyboard-response,32,62533,0.0-13.0-3.0,,<div style='margin:auto;width: auto; font-size: 150%'><span style='font-weight: bold; font-size: 100px; color: green;'>+10 points!</span><br><br></div>,,delaylearn,learning,feedback_image_window,rQ9DiOUUhRYGcjkGOTzgqnYzqoQ2,rQ9DiOUUhRYGcjkGOTzgqnYzqoQ2,,,,,,,,,,,,,,,,,,,,,,5cdef3d318f742000174cc23,16:33:06,27/03/2024
html-keyboard-response,33,64523,0.0-14.0,,"<div style=""font-size:100px;"">+</div>",,delaylearn,learning,ITI,rQ9DiOUUhRYGcjkGOTzgqnYzqoQ2,rQ9DiOUUhRYGcjkGOTzgqnYzqoQ2,,,,,,,,,,,,,,,,,,,1987.0,,,5cdef3d318f742000174cc23,16:33:06,27/03/2024
html-keyboard-response,34,65187,0.0-15.0-0.0,661.6999999992549,"<div style=""display: flex; flex-direction: column; align-items: center; margin-top: -40px;""><img src=""images/demo_images/pattern_1.png"" style=""width: 234px; height: 230px; margin-top: -50px;""><div style=""display: flex; justify-content: space-between; margin-top: 33px;""><img src=""images/demo_images/choice_trial_2.png"" style=""width: 408px; height: 417px; margin-right: 200px;""><img src=""images/demo_images/choice_trial_1.png"" style=""width: 408px; height: 417px;""></div></div>",j,delaylearn,learning,trial,rQ9DiOUUhRYGcjkGOTzgqnYzqoQ2,rQ9DiOUUhRYGcjkGOTzgqnYzqoQ2,2.0,images/demo_images/choice_trial_2.png,images/demo_images/choice_trial_1.png,images/demo_images/pattern_1.png,j,j,3000.0,2.0,1.0,20.0,1.0,7.0,1.0,1.0,1.0,50.0,,,,,,5cdef3d318f742000174cc23,16:33:06,27/03/2024
html-keyboard-response,35,66203,0.0-15.0-1.0,,"<div style=""display: flex; flex-direction: column; align-items: center; margin-top: -40px;""><img src=""images/demo_images/pattern_1.png"" style=""width: 234px; height: 230px; margin-top: -50px;""><div style=""display: flex; justify-content: space-between; margin-top: 33px;""><img src=""images/demo_images/choice_trial_1.png"" style=""width: 408px; height: 417px; margin-left:608px;""></div></div>",,delaylearn,learning,display_response,rQ9DiOUUhRYGcjkGOTzgqnYzqoQ2,rQ9DiOUUhRYGcjkGOTzgqnYzqoQ2,,,,,,,,,,,,,,,,,chosen stimuli: images/demo_images/choice_trial_1.png,,,,,5cdef3d318f742000174cc23,16:33:06,27/03/2024
html-keyboard-response,36,69206,0.0-15.0-2.0,,,,delaylearn,learning,feedback_duration_window,rQ9DiOUUhRYGcjkGOTzgqnYzqoQ2,rQ9DiOUUhRYGcjkGOTzgqnYzqoQ2,,,,,,,,,,,,,,,,,,3000.0,,,,5cdef3d318f742000174cc23,16:33:06,27/03/2024
html-keyboard-response,37,70712,0.0-15.0-3.0,,<div style='margin:auto;width: auto; font-size: 150%'><span style='font-weight: bold; font-size: 100px; color: green;'>+10 points!</span><br><br></div>,,delaylearn,learning,feedback_image_window,rQ9DiOUUhRYGcjkGOTzgqnYzqoQ2,rQ9DiOUUhRYGcjkGOTzgqnYzqoQ2,,,,,,,,,,,,,,,,,,,,,,5cdef3d318f742000174cc23,16:33:06,27/03/2024
html-keyboard-response,38,72237,0.0-16.0,,"<div style=""font-size:100px;"">+</div>",,delaylearn,learning,ITI,rQ9DiOUUhRYGcjkGOTzgqnYzqoQ2,rQ9DiOUUhRYGcjkGOTzgqnYzqoQ2,,,,,,,,,,,,,,,,,,,1516.0,,,5cdef3d318f742000174cc23,16:33:06,27/03/2024
html-keyboard-response,39,72537,0.0-17.0-0.0,296.69999999925494,"<div style=""display: flex; flex-direction: column; align-items: center; margin-top: -40px;""><img src=""images/demo_images/pattern_1.png"" style=""width: 234px; height: 230px; margin-top: -50px;""><div style=""display: flex; justify-content: space-between; margin-top: 33px;""><img src=""images/demo_images/choice_trial_1.png"" style=""width: 408px; height: 417px; margin-right: 200px;""><img src=""images/demo_images/choice_trial_2.png"" style=""width: 408px; height: 417px;""></div></div>",f,delaylearn,learning,trial,rQ9DiOUUhRYGcjkGOTzgqnYzqoQ2,rQ9DiOUUhRYGcjkGOTzgqnYzqoQ2,2.0,images/demo_images/choice_trial_1.png,images/demo_images/choice_trial_2.png,images/demo_images/pattern_1.png,f,f,3000.0,1.0,2.0,20.0,0.0,8.0,1.0,1.0,1.0,60.0,,,,,,5cdef3d318f742000174cc23,16:33:06,27/03/2024
html-keyboard-response,40,73550,0.0-17.0-1.0,,"<div style=""display: flex; flex-direction: column; align-items: center; margin-top: -40px;""><img src=""images/demo_images/pattern_1.png"" style=""width: 234px; height: 230px; margin-top: -50px;""><div style=""display: flex; justify-content: space-between; margin-top: 33px;""><img src=""images/demo_images/choice_trial_1.png"" style=""width: 408px; height: 417px; margin-right: 608px;""></div></div>",,delaylearn,learning,display_response,rQ9DiOUUhRYGcjkGOTzgqnYzqoQ2,rQ9DiOUUhRYGcjkGOTzgqnYzqoQ2,,,,,,,,,,,,,,,,,chosen stimuli: images/demo_images/choice_trial_1.png,,,,,5cdef3d318f742000174cc23,16:33:06,27/03/2024
html-keyboard-response,41,76560,0.0-17.0-2.0,,,,delaylearn,learning,feedback_duration_window,rQ9DiOUUhRYGcjkGOTzgqnYzqoQ2,rQ9DiOUUhRYGcjkGOTzgqnYzqoQ2,,,,,,,,,,,,,,,,,,3000.0,,,,5cdef3d318f742000174cc23,16:33:06,27/03/2024
html-keyboard-response,42,78076,0.0-17.0-3.0,,<div style='margin:auto;width: auto; font-size: 150%'><span style='font-weight: bold; font-size: 100px; color: green;'>+10 points!</span><br><br></div>,,delaylearn,learning,feedback_image_window,rQ9DiOUUhRYGcjkGOTzgqnYzqoQ2,rQ9DiOUUhRYGcjkGOTzgqnYzqoQ2,,,,,,,,,,,,,,,,,,,,,,5cdef3d318f742000174cc23,16:33:06,27/03/2024
html-button-response,43,81513,0.0-18.0,3434.900000002235,"
  <div style=""display: flex; align-items: center; justify-content: center; height: 80vh;"">
  <div>
          <img src=""images/inst_demo_finish.png"" style=""width: 80vw; height:auto;"">
          <br><br>
      </div>
      <br><br>
  </div>",0,,,,rQ9DiOUUhRYGcjkGOTzgqnYzqoQ2,,,,,,,,,,,,,,,,,,,,,,,5cdef3d318f742000174cc23,16:33:06,27/03/2024
html-keyboard-response,44,90823,0.0-19.0,9308.599999997765,"
  <div style=""display: flex; align-items: center; justify-content: center; height: 80vh;"">
  <div>
          <img src=""images/inst_6.png"" style=""width: 80vw; height:auto;"">
          <br><br>
      </div>
      <br><br>
  </div>",j,,,,rQ9DiOUUhRYGcjkGOTzgqnYzqoQ2,,,,,,,,,,,,,,,,,,,,,,,5cdef3d318f742000174cc23,16:33:06,27/03/2024
html-keyboard-response,45,93834,0.0-20.0,,"<div style=""font-size:100px;"">+</div>",,delaylearn,learning,pre_fixation,rQ9DiOUUhRYGcjkGOTzgqnYzqoQ2,,,,,,,,,,,,,,,,,,,,,,,5cdef3d318f742000174cc23,16:33:06,27/03/2024
html-keyboard-response,46,95639,0.0-21.0,,"<div style=""font-size:100px;"">+</div>",,delaylearn,learning,ITI,rQ9DiOUUhRYGcjkGOTzgqnYzqoQ2,rQ9DiOUUhRYGcjkGOTzgqnYzqoQ2,,,,,,,,,,,,,,,,,,,1798.0,,,5cdef3d318f742000174cc23,16:33:06,27/03/2024
html-keyboard-response,47,97721,0.0-22.0-0.0,2079.39999999851,"<div style=""display: flex; flex-direction: column; align-items: center; margin-top: -40px;""><img src=""images/pattern_3.png"" style=""width: 234px; height: 230px; margin-top: -50px;""><div style=""display: flex; justify-content: space-between; margin-top: 33px;""><img src=""images/choice_trial_12.png"" style=""width: 408px; height: 417px; margin-right: 200px;""><img src=""images/choice_trial_14.png"" style=""width: 408px; height: 417px;""></div></div>",j,delaylearn,learning,trial,rQ9DiOUUhRYGcjkGOTzgqnYzqoQ2,rQ9DiOUUhRYGcjkGOTzgqnYzqoQ2,2.0,images/choice_trial_12.png,images/choice_trial_14.png,images/pattern_3.png,f,f,7000.0,12.0,14.0,2.0,0.0,9.0,0.0,0.0,14.0,60.0,,,,,,5cdef3d318f742000174cc23,16:33:06,27/03/2024
html-keyboard-response,48,98737,0.0-22.0-1.0,,"<div style=""display: flex; flex-direction: column; align-items: center; margin-top: -40px;""><img src=""images/pattern_3.png"" style=""width: 234px; height: 230px; margin-top: -50px;""><div style=""display: flex; justify-content: space-between; margin-top: 33px;""><img src=""images/choice_trial_14.png"" style=""width: 408px; height: 417px; margin-left:608px;""></div></div>",,delaylearn,learning,display_response,rQ9DiOUUhRYGcjkGOTzgqnYzqoQ2,rQ9DiOUUhRYGcjkGOTzgqnYzqoQ2,,,,,,,,,,,,,,,,,chosen stimuli: images/choice_trial_14.png,,,,,5cdef3d318f742000174cc23,16:33:06,27/03/2024
html-keyboard-response,49,105750,0.0-22.0-2.0,,,,delaylearn,learning,feedback_duration_window,rQ9DiOUUhRYGcjkGOTzgqnYzqoQ2,rQ9DiOUUhRYGcjkGOTzgqnYzqoQ2,,,,,,,,,,,,,,,,,,7000.0,,,,5cdef3d318f742000174cc23,16:33:06,27/03/2024
html-keyboard-response,50,107255,0.0-22.0-3.0,,<div style='margin:auto;width: auto; font-size: 150%'><span style='font-weight: bold; font-size: 100px; color: red;'>0 points!</span><br><br></div>,,delaylearn,learning,feedback_image_window,rQ9DiOUUhRYGcjkGOTzgqnYzqoQ2,rQ9DiOUUhRYGcjkGOTzgqnYzqoQ2,,,,,,,,,,,,,,,,,,,,,,5cdef3d318f742000174cc23,16:33:06,27/03/2024
html-keyboard-response,51,108944,0.0-23.0,,"<div style=""font-size:100px;"">+</div>",,delaylearn,learning,ITI,rQ9DiOUUhRYGcjkGOTzgqnYzqoQ2,rQ9DiOUUhRYGcjkGOTzgqnYzqoQ2,,,,,,,,,,,,,,,,,,,1677.0,,,5cdef3d318f742000174cc23,16:33:06,27/03/2024
html-keyboard-response,52,110741,0.0-24.0-0.0,1795.2999999970198,"<div style=""display: flex; flex-direction: column; align-items: center; margin-top: -40px;""><img src=""images/pattern_7.png"" style=""width: 234px; height: 230px; margin-top: -50px;""><div style=""display: flex; justify-content: space-between; margin-top: 33px;""><img src=""images/choice_trial_15.png"" style=""width: 408px; height: 417px; margin-right: 200px;""><img src=""images/choice_trial_8.png"" style=""width: 408px; height: 417px;""></div></div>",j,delaylearn,learning,trial,rQ9DiOUUhRYGcjkGOTzgqnYzqoQ2,rQ9DiOUUhRYGcjkGOTzgqnYzqoQ2,2.0,images/choice_trial_15.png,images/choice_trial_8.png,images/pattern_7.png,j,j,750.0,15.0,8.0,6.0,1.0,10.0,1.0,1.0,8.0,70.0,,,,,,5cdef3d318f742000174cc23,16:33:06,27/03/2024
html-keyboard-response,53,111756,0.0-24.0-1.0,,"<div style=""display: flex; flex-direction: column; align-items: center; margin-top: -40px;""><img src=""images/pattern_7.png"" style=""width: 234px; height: 230px; margin-top: -50px;""><div style=""display: flex; justify-content: space-between; margin-top: 33px;""><img src=""images/choice_trial_8.png"" style=""width: 408px; height: 417px; margin-left:608px;""></div></div>",,delaylearn,learning,display_response,rQ9DiOUUhRYGcjkGOTzgqnYzqoQ2,rQ9DiOUUhRYGcjkGOTzgqnYzqoQ2,,,,,,,,,,,,,,,,,chosen stimuli: images/choice_trial_8.png,,,,,5cdef3d318f742000174cc23,16:33:06,27/03/2024
html-keyboard-response,54,112520,0.0-24.0-2.0,,,,delaylearn,learning,feedback_duration_window,rQ9DiOUUhRYGcjkGOTzgqnYzqoQ2,rQ9DiOUUhRYGcjkGOTzgqnYzqoQ2,,,,,,,,,,,,,,,,,,750.0,,,,5cdef3d318f742000174cc23,16:33:06,27/03/2024
html-keyboard-response,55,114022,0.0-24.0-3.0,,<div style='margin:auto;width: auto; font-size: 150%'><span style='font-weight: bold; font-size: 100px; color: green;'>+10 points!</span><br><br></div>,,delaylearn,learning,feedback_image_window,rQ9DiOUUhRYGcjkGOTzgqnYzqoQ2,rQ9DiOUUhRYGcjkGOTzgqnYzqoQ2,,,,,,,,,,,,,,,,,,,,,,5cdef3d318f742000174cc23,16:33:06,27/03/2024
html-keyboard-response,56,115986,0.0-25.0,,"<div style=""font-size:100px;"">+</div>",,delaylearn,learning,ITI,rQ9DiOUUhRYGcjkGOTzgqnYzqoQ2,rQ9DiOUUhRYGcjkGOTzgqnYzqoQ2,,,,,,,,,,,,,,,,,,,1959.0,,,5cdef3d318f742000174cc23,16:33:06,27/03/2024
html-keyboard-response,57,118486,0.0-26.0-0.0,2498.89999999851,"<div style=""display: flex; flex-direction: column; align-items: center; margin-top: -40px;""><img src=""images/pattern_4.png"" style=""width: 234px; height: 230px; margin-top: -50px;""><div style=""display: flex; justify-content: space-between; margin-top: 33px;""><img src=""images/choice_trial_4.png"" style=""width: 408px; height: 417px; margin-right: 200px;""><img src=""images/choice_trial_16.png"" style=""width: 408px; height: 417px;""></div></div>",j,delaylearn,learning,trial,rQ9DiOUUhRYGcjkGOTzgqnYzqoQ2,rQ9DiOUUhRYGcjkGOTzgqnYzqoQ2,2.0,images/choice_trial_4.png,images/choice_trial_16.png,images/pattern_4.png,f,f,7000.0,4.0,16.0,3.0,0.0,11.0,0.0,0.0,16.0,70.0,,,,,,5cdef3d318f742000174cc23,16:33:06,27/03/2024
html-keyboard-response,58,119489,0.0-26.0-1.0,,"<div style=""display: flex; flex-direction: column; align-items: center; margin-top: -40px;""><img src=""images/pattern_4.png"" style=""width: 234px; height: 230px; margin-top: -50px;""><div style=""display: flex; justify-content: space-between; margin-top: 33px;""><img src=""images/choice_trial_16.png"" style=""width: 408px; height: 417px; margin-left:608px;""></div></div>",,delaylearn,learning,display_response,rQ9DiOUUhRYGcjkGOTzgqnYzqoQ2,rQ9DiOUUhRYGcjkGOTzgqnYzqoQ2,,,,,,,,,,,,,,,,,chosen stimuli: images/choice_trial_16.png,,,,,5cdef3d318f742000174cc23,16:33:06,27/03/2024
html-keyboard-response,59,126506,0.0-26.0-2.0,,,,delaylearn,learning,feedback_duration_window,rQ9DiOUUhRYGcjkGOTzgqnYzqoQ2,rQ9DiOUUhRYGcjkGOTzgqnYzqoQ2,,,,,,,,,,,,,,,,,,7000.0,,,,5cdef3d318f742000174cc23,16:33:06,27/03/2024
html-keyboard-response,60,128015,0.0-26.0-3.0,,<div style='margin:auto;width: auto; font-size: 150%'><span style='font-weight: bold; font-size: 100px; color: red;'>0 points!</span><br><br></div>,,delaylearn,learning,feedback_image_window,rQ9DiOUUhRYGcjkGOTzgqnYzqoQ2,rQ9DiOUUhRYGcjkGOTzgqnYzqoQ2,,,,,,,,,,,,,,,,,,,,,,5cdef3d318f742000174cc23,16:33:06,27/03/2024
html-keyboard-response,61,130021,0.0-27.0,,"<div style=""font-size:100px;"">+</div>",,delaylearn,learning,ITI,rQ9DiOUUhRYGcjkGOTzgqnYzqoQ2,rQ9DiOUUhRYGcjkGOTzgqnYzqoQ2,,,,,,,,,,,,,,,,,,,1992.0,,,5cdef3d318f742000174cc23,16:33:06,27/03/2024
html-keyboard-response,62,131307,0.0-28.0-0.0,1283.1000000014901,"<div style=""display: flex; flex-direction: column; align-items: center; margin-top: -40px;""><img src=""images/pattern_5.png"" style=""width: 234px; height: 230px; margin-top: -50px;""><div style=""display: flex; justify-content: space-between; margin-top: 33px;""><img src=""images/choice_trial_9.png"" style=""width: 408px; height: 417px; margin-right: 200px;""><img src=""images/choice_trial_2.png"" style=""width: 408px; height: 417px;""></div></div>",f,delaylearn,learning,trial,rQ9DiOUUhRYGcjkGOTzgqnYzqoQ2,rQ9DiOUUhRYGcjkGOTzgqnYzqoQ2,2.0,images/choice_trial_9.png,images/choice_trial_2.png,images/pattern_5.png,j,j,750.0,9.0,2.0,4.0,1.0,12.0,0.0,0.0,9.0,70.0,,,,,,5cdef3d318f742000174cc23,16:33:06,27/03/2024
html-keyboard-response,63,132311,0.0-28.0-1.0,,"<div style=""display: flex; flex-direction: column; align-items: center; margin-top: -40px;""><img src=""images/pattern_5.png"" style=""width: 234px; height: 230px; margin-top: -50px;""><div style=""display: flex; justify-content: space-between; margin-top: 33px;""><img src=""images/choice_trial_9.png"" style=""width: 408px; height: 417px; margin-right: 608px;""></div></div>",,delaylearn,learning,display_response,rQ9DiOUUhRYGcjkGOTzgqnYzqoQ2,rQ9DiOUUhRYGcjkGOTzgqnYzqoQ2,,,,,,,,,,,,,,,,,chosen stimuli: images/choice_trial_9.png,,,,,5cdef3d318f742000174cc23,16:33:06,27/03/2024
html-keyboard-response,64,133074,0.0-28.0-2.0,,,,delaylearn,learning,feedback_duration_window,rQ9DiOUUhRYGcjkGOTzgqnYzqoQ2,rQ9DiOUUhRYGcjkGOTzgqnYzqoQ2,,,,,,,,,,,,,,,,,,750.0,,,,5cdef3d318f742000174cc23,16:33:06,27/03/2024
html-keyboard-response,65,134577,0.0-28.0-3.0,,<div style='margin:auto;width: auto; font-size: 150%'><span style='font-weight: bold; font-size: 100px; color: red;'>0 points!</span><br><br></div>,,delaylearn,learning,feedback_image_window,rQ9DiOUUhRYGcjkGOTzgqnYzqoQ2,rQ9DiOUUhRYGcjkGOTzgqnYzqoQ2,,,,,,,,,,,,,,,,,,,,,,5cdef3d318f742000174cc23,16:33:06,27/03/2024
html-keyboard-response,66,136852,0.0-29.0,,"<div style=""font-size:100px;"">+</div>",,delaylearn,learning,ITI,rQ9DiOUUhRYGcjkGOTzgqnYzqoQ2,rQ9DiOUUhRYGcjkGOTzgqnYzqoQ2,,,,,,,,,,,,,,,,,,,2267.0,,,5cdef3d318f742000174cc23,16:33:06,27/03/2024
html-keyboard-response,67,139867,0.0-30.0-0.0,,"<div style=""display: flex; flex-direction: column; align-items: center; margin-top: -40px;""><img src=""images/pattern_6.png"" style=""width: 234px; height: 230px; margin-top: -50px;""><div style=""display: flex; justify-content: space-between; margin-top: 33px;""><img src=""images/choice_trial_11.png"" style=""width: 408px; height: 417px; margin-right: 200px;""><img src=""images/choice_trial_5.png"" style=""width: 408px; height: 417px;""></div></div>",,delaylearn,learning,trial,rQ9DiOUUhRYGcjkGOTzgqnYzqoQ2,rQ9DiOUUhRYGcjkGOTzgqnYzqoQ2,2.0,images/choice_trial_11.png,images/choice_trial_5.png,images/pattern_6.png,j,f,750.0,11.0,5.0,5.0,0.0,13.0,0.0,0.0,0.0,70.0,,,,,,5cdef3d318f742000174cc23,16:33:06,27/03/2024
html-keyboard-response,68,140886,0.0-30.0-1.0,,<div style='font-weight: bold; font-size: 75px; color: red;'>Missed Trial <br><br><br><br> Please respond faster</div>,,delaylearn,learning,display_response,rQ9DiOUUhRYGcjkGOTzgqnYzqoQ2,rQ9DiOUUhRYGcjkGOTzgqnYzqoQ2,,,,,,,,,,,,,,,,,Missed trial,,,,,5cdef3d318f742000174cc23,16:33:06,27/03/2024
html-keyboard-response,69,140892,0.0-30.0-2.0,,,,delaylearn,learning,feedback_duration_window,rQ9DiOUUhRYGcjkGOTzgqnYzqoQ2,rQ9DiOUUhRYGcjkGOTzgqnYzqoQ2,,,,,,,,,,,,,,,,,,0.0,,,,5cdef3d318f742000174cc23,16:33:06,27/03/2024
html-keyboard-response,70,140897,0.0-30.0-3.0,,,,delaylearn,learning,feedback_image_window,rQ9DiOUUhRYGcjkGOTzgqnYzqoQ2,rQ9DiOUUhRYGcjkGOTzgqnYzqoQ2,,,,,,,,,,,,,,,,,,,,,,5cdef3d318f742000174cc23,16:33:06,27/03/2024
html-keyboard-response,71,141399,0.0-31.0-0.0,,,,,,mood_trial_fixation,rQ9DiOUUhRYGcjkGOTzgqnYzqoQ2,,,,,,,,,,,,,,,,,,,,,,,5cdef3d318f742000174cc23,16:33:06,27/03/2024
lmdlab-html-vas-response,72,147416,0.0-31.0-1.0,4997.0,How happy are you right now?,0.3333333333333333,delaylearn,learning,mood_trial,rQ9DiOUUhRYGcjkGOTzgqnYzqoQ2,rQ9DiOUUhRYGcjkGOTzgqnYzqoQ2,,,,,,,,,,,,,,,,,,,,"['Very unhappy', 'Very happy']",,5cdef3d318f742000174cc23,16:33:06,27/03/2024
html-keyboard-response,73,149333,0.0-32.0,,"<div style=""font-size:100px;"">+</div>",,delaylearn,learning,ITI,rQ9DiOUUhRYGcjkGOTzgqnYzqoQ2,rQ9DiOUUhRYGcjkGOTzgqnYzqoQ2,,,,,,,,,,,,,,,,,,,1914.0,,,5cdef3d318f742000174cc23,16:33:06,27/03/2024
html-keyboard-response,74,151196,0.0-33.0-0.0,1860.0,"<div style=""display: flex; flex-direction: column; align-items: center; margin-top: -40px;""><img src=""images/pattern_1.png"" style=""width: 234px; height: 230px; margin-top: -50px;""><div style=""display: flex; justify-content: space-between; margin-top: 33px;""><img src=""images/choice_trial_10.png"" style=""width: 408px; height: 417px; margin-right: 200px;""><img src=""images/choice_trial_3.png"" style=""width: 408px; height: 417px;""></div></div>",f,delaylearn,learning,trial,rQ9DiOUUhRYGcjkGOTzgqnYzqoQ2,rQ9DiOUUhRYGcjkGOTzgqnYzqoQ2,2.0,images/choice_trial_10.png,images/choice_trial_3.png,images/pattern_1.png,j,j,7000.0,10.0,3.0,1.0,1.0,14.0,0.0,0.0,10.0,70.0,,,,,,5cdef3d318f742000174cc23,16:33:06,27/03/2024
html-keyboard-response,75,152212,0.0-33.0-1.0,,"<div style=""display: flex; flex-direction: column; align-items: center; margin-top: -40px;""><img src=""images/pattern_1.png"" style=""width: 234px; height: 230px; margin-top: -50px;""><div style=""display: flex; justify-content: space-between; margin-top: 33px;""><img src=""images/choice_trial_10.png"" style=""width: 408px; height: 417px; margin-right: 608px;""></div></div>",,delaylearn,learning,display_response,rQ9DiOUUhRYGcjkGOTzgqnYzqoQ2,rQ9DiOUUhRYGcjkGOTzgqnYzqoQ2,,,,,,,,,,,,,,,,,chosen stimuli: images/choice_trial_10.png,,,,,5cdef3d318f742000174cc23,16:33:06,27/03/2024
html-keyboard-response,76,159229,0.0-33.0-2.0,,,,delaylearn,learning,feedback_duration_window,rQ9DiOUUhRYGcjkGOTzgqnYzqoQ2,rQ9DiOUUhRYGcjkGOTzgqnYzqoQ2,,,,,,,,,,,,,,,,,,7000.0,,,,5cdef3d318f742000174cc23,16:33:06,27/03/2024
html-keyboard-response,77,160747,0.0-33.0-3.0,,<div style='margin:auto;width: auto; font-size: 150%'><span style='font-weight: bold; font-size: 100px; color: red;'>0 points!</span><br><br></div>,,delaylearn,learning,feedback_image_window,rQ9DiOUUhRYGcjkGOTzgqnYzqoQ2,rQ9DiOUUhRYGcjkGOTzgqnYzqoQ2,,,,,,,,,,,,,,,,,,,,,,5cdef3d318f742000174cc23,16:33:06,27/03/2024
html-keyboard-response,78,162489,0.0-34.0,,"<div style=""font-size:100px;"">+</div>",,delaylearn,learning,ITI,rQ9DiOUUhRYGcjkGOTzgqnYzqoQ2,rQ9DiOUUhRYGcjkGOTzgqnYzqoQ2,,,,,,,,,,,,,,,,,,,1731.0,,,5cdef3d318f742000174cc23,16:33:06,27/03/2024
html-keyboard-response,79,164502,0.0-35.0-0.0,2009.699999999255,"<div style=""display: flex; flex-direction: column; align-items: center; margin-top: -40px;""><img src=""images/pattern_3.png"" style=""width: 234px; height: 230px; margin-top: -50px;""><div style=""display: flex; justify-content: space-between; margin-top: 33px;""><img src=""images/choice_trial_14.png"" style=""width: 408px; height: 417px; margin-right: 200px;""><img src=""images/choice_trial_12.png"" style=""width: 408px; height: 417px;""></div></div>",j,delaylearn,learning,trial,rQ9DiOUUhRYGcjkGOTzgqnYzqoQ2,rQ9DiOUUhRYGcjkGOTzgqnYzqoQ2,2.0,images/choice_trial_14.png,images/choice_trial_12.png,images/pattern_3.png,f,j,7000.0,14.0,12.0,2.0,1.0,15.0,1.0,0.0,12.0,70.0,,,,,,5cdef3d318f742000174cc23,16:33:06,27/03/2024
html-keyboard-response,80,165517,0.0-35.0-1.0,,"<div style=""display: flex; flex-direction: column; align-items: center; margin-top: -40px;""><img src=""images/pattern_3.png"" style=""width: 234px; height: 230px; margin-top: -50px;""><div style=""display: flex; justify-content: space-between; margin-top: 33px;""><img src=""images/choice_trial_12.png"" style=""width: 408px; height: 417px; margin-left:608px;""></div></div>",,delaylearn,learning,display_response,rQ9DiOUUhRYGcjkGOTzgqnYzqoQ2,rQ9DiOUUhRYGcjkGOTzgqnYzqoQ2,,,,,,,,,,,,,,,,,chosen stimuli: images/choice_trial_12.png,,,,,5cdef3d318f742000174cc23,16:33:06,27/03/2024
html-keyboard-response,81,172524,0.0-35.0-2.0,,,,delaylearn,learning,feedback_duration_window,rQ9DiOUUhRYGcjkGOTzgqnYzqoQ2,rQ9DiOUUhRYGcjkGOTzgqnYzqoQ2,,,,,,,,,,,,,,,,,,7000.0,,,,5cdef3d318f742000174cc23,16:33:06,27/03/2024
html-keyboard-response,82,174039,0.0-35.0-3.0,,<div style='margin:auto;width: auto; font-size: 150%'><span style='font-weight: bold; font-size: 100px; color: red;'>0 points!</span><br><br></div>,,delaylearn,learning,feedback_image_window,rQ9DiOUUhRYGcjkGOTzgqnYzqoQ2,rQ9DiOUUhRYGcjkGOTzgqnYzqoQ2,,,,,,,,,,,,,,,,,,,,,,5cdef3d318f742000174cc23,16:33:06,27/03/2024
html-keyboard-response,83,176297,0.0-36.0,,"<div style=""font-size:100px;"">+</div>",,delaylearn,learning,ITI,rQ9DiOUUhRYGcjkGOTzgqnYzqoQ2,rQ9DiOUUhRYGcjkGOTzgqnYzqoQ2,,,,,,,,,,,,,,,,,,,2252.0,,,5cdef3d318f742000174cc23,16:33:06,27/03/2024
html-keyboard-response,84,178244,0.0-37.0-0.0,1943.2000000029802,"<div style=""display: flex; flex-direction: column; align-items: center; margin-top: -40px;""><img src=""images/pattern_5.png"" style=""width: 234px; height: 230px; margin-top: -50px;""><div style=""display: flex; justify-content: space-between; margin-top: 33px;""><img src=""images/choice_trial_2.png"" style=""width: 408px; height: 417px; margin-right: 200px;""><img src=""images/choice_trial_9.png"" style=""width: 408px; height: 417px;""></div></div>",f,delaylearn,learning,trial,rQ9DiOUUhRYGcjkGOTzgqnYzqoQ2,rQ9DiOUUhRYGcjkGOTzgqnYzqoQ2,2.0,images/choice_trial_2.png,images/choice_trial_9.png,images/pattern_5.png,f,f,750.0,2.0,9.0,4.0,0.0,16.0,1.0,1.0,2.0,80.0,,,,,,5cdef3d318f742000174cc23,16:33:06,27/03/2024
html-keyboard-response,85,179259,0.0-37.0-1.0,,"<div style=""display: flex; flex-direction: column; align-items: center; margin-top: -40px;""><img src=""images/pattern_5.png"" style=""width: 234px; height: 230px; margin-top: -50px;""><div style=""display: flex; justify-content: space-between; margin-top: 33px;""><img src=""images/choice_trial_2.png"" style=""width: 408px; height: 417px; margin-right: 608px;""></div></div>",,delaylearn,learning,display_response,rQ9DiOUUhRYGcjkGOTzgqnYzqoQ2,rQ9DiOUUhRYGcjkGOTzgqnYzqoQ2,,,,,,,,,,,,,,,,,chosen stimuli: images/choice_trial_2.png,,,,,5cdef3d318f742000174cc23,16:33:06,27/03/2024
html-keyboard-response,86,180023,0.0-37.0-2.0,,,,delaylearn,learning,feedback_duration_window,rQ9DiOUUhRYGcjkGOTzgqnYzqoQ2,rQ9DiOUUhRYGcjkGOTzgqnYzqoQ2,,,,,,,,,,,,,,,,,,750.0,,,,5cdef3d318f742000174cc23,16:33:06,27/03/2024
html-keyboard-response,87,181529,0.0-37.0-3.0,,<div style='margin:auto;width: auto; font-size: 150%'><span style='font-weight: bold; font-size: 100px; color: green;'>+10 points!</span><br><br></div>,,delaylearn,learning,feedback_image_window,rQ9DiOUUhRYGcjkGOTzgqnYzqoQ2,rQ9DiOUUhRYGcjkGOTzgqnYzqoQ2,,,,,,,,,,,,,,,,,,,,,,5cdef3d318f742000174cc23,16:33:06,27/03/2024
html-keyboard-response,88,182041,0.0-38.0-0.0,,,,,,mood_trial_fixation,rQ9DiOUUhRYGcjkGOTzgqnYzqoQ2,,,,,,,,,,,,,,,,,,,,,,,5cdef3d318f742000174cc23,16:33:06,27/03/2024
lmdlab-html-vas-response,89,186382,0.0-38.0-1.0,3324.0,How happy are you right now?,0.8125,delaylearn,learning,mood_trial,rQ9DiOUUhRYGcjkGOTzgqnYzqoQ2,rQ9DiOUUhRYGcjkGOTzgqnYzqoQ2,,,,,,,,,,,,,,,,,,,,"['Very unhappy', 'Very happy']",,5cdef3d318f742000174cc23,16:33:06,27/03/2024
html-keyboard-response,90,188719,0.0-39.0,,"<div style=""font-size:100px;"">+</div>",,delaylearn,learning,ITI,rQ9DiOUUhRYGcjkGOTzgqnYzqoQ2,rQ9DiOUUhRYGcjkGOTzgqnYzqoQ2,,,,,,,,,,,,,,,,,,,2323.0,,,5cdef3d318f742000174cc23,16:33:06,27/03/2024
html-keyboard-response,91,190282,0.0-40.0-0.0,1560.3999999985099,"<div style=""display: flex; flex-direction: column; align-items: center; margin-top: -40px;""><img src=""images/pattern_6.png"" style=""width: 234px; height: 230px; margin-top: -50px;""><div style=""display: flex; justify-content: space-between; margin-top: 33px;""><img src=""images/choice_trial_11.png"" style=""width: 408px; height: 417px; margin-right: 200px;""><img src=""images/choice_trial_5.png"" style=""width: 408px; height: 417px;""></div></div>",j,delaylearn,learning,trial,rQ9DiOUUhRYGcjkGOTzgqnYzqoQ2,rQ9DiOUUhRYGcjkGOTzgqnYzqoQ2,2.0,images/choice_trial_11.png,images/choice_trial_5.png,images/pattern_6.png,f,f,750.0,11.0,5.0,5.0,0.0,17.0,0.0,0.0,5.0,80.0,,,,,,5cdef3d318f742000174cc23,16:33:06,27/03/2024
html-keyboard-response,92,191288,0.0-40.0-1.0,,"<div style=""display: flex; flex-direction: column; align-items: center; margin-top: -40px;""><img src=""images/pattern_6.png"" style=""width: 234px; height: 230px; margin-top: -50px;""><div style=""display: flex; justify-content: space-between; margin-top: 33px;""><img src=""images/choice_trial_5.png"" style=""width: 408px; height: 417px; margin-left:608px;""></div></div>",,delaylearn,learning,display_response,rQ9DiOUUhRYGcjkGOTzgqnYzqoQ2,rQ9DiOUUhRYGcjkGOTzgqnYzqoQ2,,,,,,,,,,,,,,,,,chosen stimuli: images/choice_trial_5.png,,,,,5cdef3d318f742000174cc23,16:33:06,27/03/2024
html-keyboard-response,93,192052,0.0-40.0-2.0,,,,delaylearn,learning,feedback_duration_window,rQ9DiOUUhRYGcjkGOTzgqnYzqoQ2,rQ9DiOUUhRYGcjkGOTzgqnYzqoQ2,,,,,,,,,,,,,,,,,,750.0,,,,5cdef3d318f742000174cc23,16:33:06,27/03/2024
html-keyboard-response,94,193555,0.0-40.0-3.0,,<div style='margin:auto;width: auto; font-size: 150%'><span style='font-weight: bold; font-size: 100px; color: red;'>0 points!</span><br><br></div>,,delaylearn,learning,feedback_image_window,rQ9DiOUUhRYGcjkGOTzgqnYzqoQ2,rQ9DiOUUhRYGcjkGOTzgqnYzqoQ2,,,,,,,,,,,,,,,,,,,,,,5cdef3d318f742000174cc23,16:33:06,27/03/2024
html-keyboard-response,95,195324,0.0-41.0,,"<div style=""font-size:100px;"">+</div>",,delaylearn,learning,ITI,rQ9DiOUUhRYGcjkGOTzgqnYzqoQ2,rQ9DiOUUhRYGcjkGOTzgqnYzqoQ2,,,,,,,,,,,,,,,,,,,1753.0,,,5cdef3d318f742000174cc23,16:33:06,27/03/2024
html-keyboard-response,96,196979,0.0-42.0-0.0,1653.4000000022352,"<div style=""display: flex; flex-direction: column; align-items: center; margin-top: -40px;""><img src=""images/pattern_4.png"" style=""width: 234px; height: 230px; margin-top: -50px;""><div style=""display: flex; justify-content: space-between; margin-top: 33px;""><img src=""images/choice_trial_16.png"" style=""width: 408px; height: 417px; margin-right: 200px;""><img src=""images/choice_trial_4.png"" style=""width: 408px; height: 417px;""></div></div>",f,delaylearn,learning,trial,rQ9DiOUUhRYGcjkGOTzgqnYzqoQ2,rQ9DiOUUhRYGcjkGOTzgqnYzqoQ2,2.0,images/choice_trial_16.png,images/choice_trial_4.png,images/pattern_4.png,j,j,7000.0,16.0,4.0,3.0,1.0,18.0,0.0,0.0,16.0,80.0,,,,,,5cdef3d318f742000174cc23,16:33:06,27/03/2024
html-keyboard-response,97,197980,0.0-42.0-1.0,,"<div style=""display: flex; flex-direction: column; align-items: center; margin-top: -40px;""><img src=""images/pattern_4.png"" style=""width: 234px; height: 230px; margin-top: -50px;""><div style=""display: flex; justify-content: space-between; margin-top: 33px;""><img src=""images/choice_trial_16.png"" style=""width: 408px; height: 417px; margin-right: 608px;""></div></div>",,delaylearn,learning,display_response,rQ9DiOUUhRYGcjkGOTzgqnYzqoQ2,rQ9DiOUUhRYGcjkGOTzgqnYzqoQ2,,,,,,,,,,,,,,,,,chosen stimuli: images/choice_trial_16.png,,,,,5cdef3d318f742000174cc23,16:33:06,27/03/2024
html-keyboard-response,98,204994,0.0-42.0-2.0,,,,delaylearn,learning,feedback_duration_window,rQ9DiOUUhRYGcjkGOTzgqnYzqoQ2,rQ9DiOUUhRYGcjkGOTzgqnYzqoQ2,,,,,,,,,,,,,,,,,,7000.0,,,,5cdef3d318f742000174cc23,16:33:06,27/03/2024
html-keyboard-response,99,206498,0.0-42.0-3.0,,<div style='margin:auto;width: auto; font-size: 150%'><span style='font-weight: bold; font-size: 100px; color: red;'>0 points!</span><br><br></div>,,delaylearn,learning,feedback_image_window,rQ9DiOUUhRYGcjkGOTzgqnYzqoQ2,rQ9DiOUUhRYGcjkGOTzgqnYzqoQ2,,,,,,,,,,,,,,,,,,,,,,5cdef3d318f742000174cc23,16:33:06,27/03/2024
html-keyboard-response,100,208065,0.0-43.0,,"<div style=""font-size:100px;"">+</div>",,delaylearn,learning,ITI,rQ9DiOUUhRYGcjkGOTzgqnYzqoQ2,rQ9DiOUUhRYGcjkGOTzgqnYzqoQ2,,,,,,,,,,,,,,,,,,,1556.0,,,5cdef3d318f742000174cc23,16:33:06,27/03/2024
html-keyboard-response,101,209183,0.0-44.0-0.0,1114.4000000022352,"<div style=""display: flex; flex-direction: column; align-items: center; margin-top: -40px;""><img src=""images/pattern_7.png"" style=""width: 234px; height: 230px; margin-top: -50px;""><div style=""display: flex; justify-content: space-between; margin-top: 33px;""><img src=""images/choice_trial_8.png"" style=""width: 408px; height: 417px; margin-right: 200px;""><img src=""images/choice_trial_15.png"" style=""width: 408px; height: 417px;""></div></div>",f,delaylearn,learning,trial,rQ9DiOUUhRYGcjkGOTzgqnYzqoQ2,rQ9DiOUUhRYGcjkGOTzgqnYzqoQ2,2.0,images/choice_trial_8.png,images/choice_trial_15.png,images/pattern_7.png,j,f,750.0,8.0,15.0,6.0,0.0,19.0,1.0,0.0,8.0,80.0,,,,,,5cdef3d318f742000174cc23,16:33:06,27/03/2024
html-keyboard-response,102,210200,0.0-44.0-1.0,,"<div style=""display: flex; flex-direction: column; align-items: center; margin-top: -40px;""><img src=""images/pattern_7.png"" style=""width: 234px; height: 230px; margin-top: -50px;""><div style=""display: flex; justify-content: space-between; margin-top: 33px;""><img src=""images/choice_trial_8.png"" style=""width: 408px; height: 417px; margin-right: 608px;""></div></div>",,delaylearn,learning,display_response,rQ9DiOUUhRYGcjkGOTzgqnYzqoQ2,rQ9DiOUUhRYGcjkGOTzgqnYzqoQ2,,,,,,,,,,,,,,,,,chosen stimuli: images/choice_trial_8.png,,,,,5cdef3d318f742000174cc23,16:33:06,27/03/2024
html-keyboard-response,103,210965,0.0-44.0-2.0,,,,delaylearn,learning,feedback_duration_window,rQ9DiOUUhRYGcjkGOTzgqnYzqoQ2,rQ9DiOUUhRYGcjkGOTzgqnYzqoQ2,,,,,,,,,,,,,,,,,,750.0,,,,5cdef3d318f742000174cc23,16:33:06,27/03/2024
html-keyboard-response,104,212467,0.0-44.0-3.0,,<div style='margin:auto;width: auto; font-size: 150%'><span style='font-weight: bold; font-size: 100px; color: red;'>0 points!</span><br><br></div>,,delaylearn,learning,feedback_image_window,rQ9DiOUUhRYGcjkGOTzgqnYzqoQ2,rQ9DiOUUhRYGcjkGOTzgqnYzqoQ2,,,,,,,,,,,,,,,,,,,,,,5cdef3d318f742000174cc23,16:33:06,27/03/2024
html-keyboard-response,105,214656,0.0-45.0,,"<div style=""font-size:100px;"">+</div>",,delaylearn,learning,ITI,rQ9DiOUUhRYGcjkGOTzgqnYzqoQ2,rQ9DiOUUhRYGcjkGOTzgqnYzqoQ2,,,,,,,,,,,,,,,,,,,2179.0,,,5cdef3d318f742000174cc23,16:33:06,27/03/2024
html-keyboard-response,106,217255,0.0-46.0-0.0,2595.39999999851,"<div style=""display: flex; flex-direction: column; align-items: center; margin-top: -40px;""><img src=""images/pattern_1.png"" style=""width: 234px; height: 230px; margin-top: -50px;""><div style=""display: flex; justify-content: space-between; margin-top: 33px;""><img src=""images/choice_trial_3.png"" style=""width: 408px; height: 417px; margin-right: 200px;""><img src=""images/choice_trial_10.png"" style=""width: 408px; height: 417px;""></div></div>",f,delaylearn,learning,trial,rQ9DiOUUhRYGcjkGOTzgqnYzqoQ2,rQ9DiOUUhRYGcjkGOTzgqnYzqoQ2,2.0,images/choice_trial_3.png,images/choice_trial_10.png,images/pattern_1.png,f,f,7000.0,3.0,10.0,1.0,0.0,20.0,1.0,1.0,3.0,90.0,,,,,,5cdef3d318f742000174cc23,16:33:06,27/03/2024
html-keyboard-response,107,218271,0.0-46.0-1.0,,"<div style=""display: flex; flex-direction: column; align-items: center; margin-top: -40px;""><img src=""images/pattern_1.png"" style=""width: 234px; height: 230px; margin-top: -50px;""><div style=""display: flex; justify-content: space-between; margin-top: 33px;""><img src=""images/choice_trial_3.png"" style=""width: 408px; height: 417px; margin-right: 608px;""></div></div>",,delaylearn,learning,display_response,rQ9DiOUUhRYGcjkGOTzgqnYzqoQ2,rQ9DiOUUhRYGcjkGOTzgqnYzqoQ2,,,,,,,,,,,,,,,,,chosen stimuli: images/choice_trial_3.png,,,,,5cdef3d318f742000174cc23,16:33:06,27/03/2024
html-keyboard-response,108,225274,0.0-46.0-2.0,,,,delaylearn,learning,feedback_duration_window,rQ9DiOUUhRYGcjkGOTzgqnYzqoQ2,rQ9DiOUUhRYGcjkGOTzgqnYzqoQ2,,,,,,,,,,,,,,,,,,7000.0,,,,5cdef3d318f742000174cc23,16:33:06,27/03/2024
html-keyboard-response,109,226782,0.0-46.0-3.0,,<div style='margin:auto;width: auto; font-size: 150%'><span style='font-weight: bold; font-size: 100px; color: green;'>+10 points!</span><br><br></div>,,delaylearn,learning,feedback_image_window,rQ9DiOUUhRYGcjkGOTzgqnYzqoQ2,rQ9DiOUUhRYGcjkGOTzgqnYzqoQ2,,,,,,,,,,,,,,,,,,,,,,5cdef3d318f742000174cc23,16:33:06,27/03/2024
html-keyboard-response,110,228863,0.0-47.0,,"<div style=""font-size:100px;"">+</div>",,delaylearn,learning,ITI,rQ9DiOUUhRYGcjkGOTzgqnYzqoQ2,rQ9DiOUUhRYGcjkGOTzgqnYzqoQ2,,,,,,,,,,,,,,,,,,,2071.0,,,5cdef3d318f742000174cc23,16:33:06,27/03/2024
html-keyboard-response,111,229892,0.0-48.0-0.0,1026.3999999985099,"<div style=""display: flex; flex-direction: column; align-items: center; margin-top: -40px;""><img src=""images/pattern_6.png"" style=""width: 234px; height: 230px; margin-top: -50px;""><div style=""display: flex; justify-content: space-between; margin-top: 33px;""><img src=""images/choice_trial_5.png"" style=""width: 408px; height: 417px; margin-right: 200px;""><img src=""images/choice_trial_11.png"" style=""width: 408px; height: 417px;""></div></div>",j,delaylearn,learning,trial,rQ9DiOUUhRYGcjkGOTzgqnYzqoQ2,rQ9DiOUUhRYGcjkGOTzgqnYzqoQ2,2.0,images/choice_trial_5.png,images/choice_trial_11.png,images/pattern_6.png,j,j,750.0,5.0,11.0,5.0,1.0,21.0,1.0,1.0,11.0,100.0,,,,,,5cdef3d318f742000174cc23,16:33:06,27/03/2024
html-keyboard-response,112,230907,0.0-48.0-1.0,,"<div style=""display: flex; flex-direction: column; align-items: center; margin-top: -40px;""><img src=""images/pattern_6.png"" style=""width: 234px; height: 230px; margin-top: -50px;""><div style=""display: flex; justify-content: space-between; margin-top: 33px;""><img src=""images/choice_trial_11.png"" style=""width: 408px; height: 417px; margin-left:608px;""></div></div>",,delaylearn,learning,display_response,rQ9DiOUUhRYGcjkGOTzgqnYzqoQ2,rQ9DiOUUhRYGcjkGOTzgqnYzqoQ2,,,,,,,,,,,,,,,,,chosen stimuli: images/choice_trial_11.png,,,,,5cdef3d318f742000174cc23,16:33:06,27/03/2024
html-keyboard-response,113,231670,0.0-48.0-2.0,,,,delaylearn,learning,feedback_duration_window,rQ9DiOUUhRYGcjkGOTzgqnYzqoQ2,rQ9DiOUUhRYGcjkGOTzgqnYzqoQ2,,,,,,,,,,,,,,,,,,750.0,,,,5cdef3d318f742000174cc23,16:33:06,27/03/2024
html-keyboard-response,114,233181,0.0-48.0-3.0,,<div style='margin:auto;width: auto; font-size: 150%'><span style='font-weight: bold; font-size: 100px; color: green;'>+10 points!</span><br><br></div>,,delaylearn,learning,feedback_image_window,rQ9DiOUUhRYGcjkGOTzgqnYzqoQ2,rQ9DiOUUhRYGcjkGOTzgqnYzqoQ2,,,,,,,,,,,,,,,,,,,,,,5cdef3d318f742000174cc23,16:33:06,27/03/2024
html-keyboard-response,115,235106,0.0-49.0,,"<div style=""font-size:100px;"">+</div>",,delaylearn,learning,ITI,rQ9DiOUUhRYGcjkGOTzgqnYzqoQ2,rQ9DiOUUhRYGcjkGOTzgqnYzqoQ2,,,,,,,,,,,,,,,,,,,1918.0,,,5cdef3d318f742000174cc23,16:33:06,27/03/2024
html-keyboard-response,116,236024,0.0-50.0-0.0,914.6000000014901,"<div style=""display: flex; flex-direction: column; align-items: center; margin-top: -40px;""><img src=""images/pattern_4.png"" style=""width: 234px; height: 230px; margin-top: -50px;""><div style=""display: flex; justify-content: space-between; margin-top: 33px;""><img src=""images/choice_trial_4.png"" style=""width: 408px; height: 417px; margin-right: 200px;""><img src=""images/choice_trial_16.png"" style=""width: 408px; height: 417px;""></div></div>",j,delaylearn,learning,trial,rQ9DiOUUhRYGcjkGOTzgqnYzqoQ2,rQ9DiOUUhRYGcjkGOTzgqnYzqoQ2,2.0,images/choice_trial_4.png,images/choice_trial_16.png,images/pattern_4.png,f,f,7000.0,4.0,16.0,3.0,0.0,22.0,0.0,0.0,16.0,100.0,,,,,,5cdef3d318f742000174cc23,16:33:06,27/03/2024
html-keyboard-response,117,237040,0.0-50.0-1.0,,"<div style=""display: flex; flex-direction: column; align-items: center; margin-top: -40px;""><img src=""images/pattern_4.png"" style=""width: 234px; height: 230px; margin-top: -50px;""><div style=""display: flex; justify-content: space-between; margin-top: 33px;""><img src=""images/choice_trial_16.png"" style=""width: 408px; height: 417px; margin-left:608px;""></div></div>",,delaylearn,learning,display_response,rQ9DiOUUhRYGcjkGOTzgqnYzqoQ2,rQ9DiOUUhRYGcjkGOTzgqnYzqoQ2,,,,,,,,,,,,,,,,,chosen stimuli: images/choice_trial_16.png,,,,,5cdef3d318f742000174cc23,16:33:06,27/03/2024
html-keyboard-response,118,244042,0.0-50.0-2.0,,,,delaylearn,learning,feedback_duration_window,rQ9DiOUUhRYGcjkGOTzgqnYzqoQ2,rQ9DiOUUhRYGcjkGOTzgqnYzqoQ2,,,,,,,,,,,,,,,,,,7000.0,,,,5cdef3d318f742000174cc23,16:33:06,27/03/2024
html-keyboard-response,119,245551,0.0-50.0-3.0,,<div style='margin:auto;width: auto; font-size: 150%'><span style='font-weight: bold; font-size: 100px; color: red;'>0 points!</span><br><br></div>,,delaylearn,learning,feedback_image_window,rQ9DiOUUhRYGcjkGOTzgqnYzqoQ2,rQ9DiOUUhRYGcjkGOTzgqnYzqoQ2,,,,,,,,,,,,,,,,,,,,,,5cdef3d318f742000174cc23,16:33:06,27/03/2024
html-keyboard-response,120,246066,0.0-51.0-0.0,,,,,,mood_trial_fixation,rQ9DiOUUhRYGcjkGOTzgqnYzqoQ2,,,,,,,,,,,,,,,,,,,,,,,5cdef3d318f742000174cc23,16:33:06,27/03/2024
lmdlab-html-vas-response,121,250380,0.0-51.0-1.0,3309.0,How happy are you right now?,0.4097222222222222,delaylearn,learning,mood_trial,rQ9DiOUUhRYGcjkGOTzgqnYzqoQ2,rQ9DiOUUhRYGcjkGOTzgqnYzqoQ2,,,,,,,,,,,,,,,,,,,,"['Very unhappy', 'Very happy']",,5cdef3d318f742000174cc23,16:33:06,27/03/2024
html-keyboard-response,122,252135,0.0-52.0,,"<div style=""font-size:100px;"">+</div>",,delaylearn,learning,ITI,rQ9DiOUUhRYGcjkGOTzgqnYzqoQ2,rQ9DiOUUhRYGcjkGOTzgqnYzqoQ2,,,,,,,,,,,,,,,,,,,1743.0,,,5cdef3d318f742000174cc23,16:33:06,27/03/2024
html-keyboard-response,123,253360,0.0-53.0-0.0,1220.8999999985099,"<div style=""display: flex; flex-direction: column; align-items: center; margin-top: -40px;""><img src=""images/pattern_7.png"" style=""width: 234px; height: 230px; margin-top: -50px;""><div style=""display: flex; justify-content: space-between; margin-top: 33px;""><img src=""images/choice_trial_15.png"" style=""width: 408px; height: 417px; margin-right: 200px;""><img src=""images/choice_trial_8.png"" style=""width: 408px; height: 417px;""></div></div>",j,delaylearn,learning,trial,rQ9DiOUUhRYGcjkGOTzgqnYzqoQ2,rQ9DiOUUhRYGcjkGOTzgqnYzqoQ2,2.0,images/choice_trial_15.png,images/choice_trial_8.png,images/pattern_7.png,j,j,750.0,15.0,8.0,6.0,1.0,23.0,1.0,1.0,8.0,110.0,,,,,,5cdef3d318f742000174cc23,16:33:06,27/03/2024
html-keyboard-response,124,254377,0.0-53.0-1.0,,"<div style=""display: flex; flex-direction: column; align-items: center; margin-top: -40px;""><img src=""images/pattern_7.png"" style=""width: 234px; height: 230px; margin-top: -50px;""><div style=""display: flex; justify-content: space-between; margin-top: 33px;""><img src=""images/choice_trial_8.png"" style=""width: 408px; height: 417px; margin-left:608px;""></div></div>",,delaylearn,learning,display_response,rQ9DiOUUhRYGcjkGOTzgqnYzqoQ2,rQ9DiOUUhRYGcjkGOTzgqnYzqoQ2,,,,,,,,,,,,,,,,,chosen stimuli: images/choice_trial_8.png,,,,,5cdef3d318f742000174cc23,16:33:06,27/03/2024
html-keyboard-response,125,255140,0.0-53.0-2.0,,,,delaylearn,learning,feedback_duration_window,rQ9DiOUUhRYGcjkGOTzgqnYzqoQ2,rQ9DiOUUhRYGcjkGOTzgqnYzqoQ2,,,,,,,,,,,,,,,,,,750.0,,,,5cdef3d318f742000174cc23,16:33:06,27/03/2024
html-keyboard-response,126,256654,0.0-53.0-3.0,,<div style='margin:auto;width: auto; font-size: 150%'><span style='font-weight: bold; font-size: 100px; color: green;'>+10 points!</span><br><br></div>,,delaylearn,learning,feedback_image_window,rQ9DiOUUhRYGcjkGOTzgqnYzqoQ2,rQ9DiOUUhRYGcjkGOTzgqnYzqoQ2,,,,,,,,,,,,,,,,,,,,,,5cdef3d318f742000174cc23,16:33:06,27/03/2024
html-keyboard-response,127,258428,0.0-54.0,,"<div style=""font-size:100px;"">+</div>",,delaylearn,learning,ITI,rQ9DiOUUhRYGcjkGOTzgqnYzqoQ2,rQ9DiOUUhRYGcjkGOTzgqnYzqoQ2,,,,,,,,,,,,,,,,,,,1765.0,,,5cdef3d318f742000174cc23,16:33:06,27/03/2024
html-keyboard-response,128,259858,0.0-55.0-0.0,1428.5,"<div style=""display: flex; flex-direction: column; align-items: center; margin-top: -40px;""><img src=""images/pattern_1.png"" style=""width: 234px; height: 230px; margin-top: -50px;""><div style=""display: flex; justify-content: space-between; margin-top: 33px;""><img src=""images/choice_trial_10.png"" style=""width: 408px; height: 417px; margin-right: 200px;""><img src=""images/choice_trial_3.png"" style=""width: 408px; height: 417px;""></div></div>",j,delaylearn,learning,trial,rQ9DiOUUhRYGcjkGOTzgqnYzqoQ2,rQ9DiOUUhRYGcjkGOTzgqnYzqoQ2,2.0,images/choice_trial_10.png,images/choice_trial_3.png,images/pattern_1.png,f,j,7000.0,10.0,3.0,1.0,1.0,24.0,1.0,0.0,3.0,110.0,,,,,,5cdef3d318f742000174cc23,16:33:06,27/03/2024
html-keyboard-response,129,260860,0.0-55.0-1.0,,"<div style=""display: flex; flex-direction: column; align-items: center; margin-top: -40px;""><img src=""images/pattern_1.png"" style=""width: 234px; height: 230px; margin-top: -50px;""><div style=""display: flex; justify-content: space-between; margin-top: 33px;""><img src=""images/choice_trial_3.png"" style=""width: 408px; height: 417px; margin-left:608px;""></div></div>",,delaylearn,learning,display_response,rQ9DiOUUhRYGcjkGOTzgqnYzqoQ2,rQ9DiOUUhRYGcjkGOTzgqnYzqoQ2,,,,,,,,,,,,,,,,,chosen stimuli: images/choice_trial_3.png,,,,,5cdef3d318f742000174cc23,16:33:06,27/03/2024
html-keyboard-response,130,267876,0.0-55.0-2.0,,,,delaylearn,learning,feedback_duration_window,rQ9DiOUUhRYGcjkGOTzgqnYzqoQ2,rQ9DiOUUhRYGcjkGOTzgqnYzqoQ2,,,,,,,,,,,,,,,,,,7000.0,,,,5cdef3d318f742000174cc23,16:33:06,27/03/2024
html-keyboard-response,131,269387,0.0-55.0-3.0,,<div style='margin:auto;width: auto; font-size: 150%'><span style='font-weight: bold; font-size: 100px; color: red;'>0 points!</span><br><br></div>,,delaylearn,learning,feedback_image_window,rQ9DiOUUhRYGcjkGOTzgqnYzqoQ2,rQ9DiOUUhRYGcjkGOTzgqnYzqoQ2,,,,,,,,,,,,,,,,,,,,,,5cdef3d318f742000174cc23,16:33:06,27/03/2024
html-keyboard-response,132,271442,0.0-56.0,,"<div style=""font-size:100px;"">+</div>",,delaylearn,learning,ITI,rQ9DiOUUhRYGcjkGOTzgqnYzqoQ2,rQ9DiOUUhRYGcjkGOTzgqnYzqoQ2,,,,,,,,,,,,,,,,,,,2053.0,,,5cdef3d318f742000174cc23,16:33:06,27/03/2024
html-keyboard-response,133,273990,0.0-57.0-0.0,2544.60000000149,"<div style=""display: flex; flex-direction: column; align-items: center; margin-top: -40px;""><img src=""images/pattern_5.png"" style=""width: 234px; height: 230px; margin-top: -50px;""><div style=""display: flex; justify-content: space-between; margin-top: 33px;""><img src=""images/choice_trial_9.png"" style=""width: 408px; height: 417px; margin-right: 200px;""><img src=""images/choice_trial_2.png"" style=""width: 408px; height: 417px;""></div></div>",j,delaylearn,learning,trial,rQ9DiOUUhRYGcjkGOTzgqnYzqoQ2,rQ9DiOUUhRYGcjkGOTzgqnYzqoQ2,2.0,images/choice_trial_9.png,images/choice_trial_2.png,images/pattern_5.png,j,j,750.0,9.0,2.0,4.0,1.0,25.0,1.0,1.0,2.0,120.0,,,,,,5cdef3d318f742000174cc23,16:33:06,27/03/2024
html-keyboard-response,134,275008,0.0-57.0-1.0,,"<div style=""display: flex; flex-direction: column; align-items: center; margin-top: -40px;""><img src=""images/pattern_5.png"" style=""width: 234px; height: 230px; margin-top: -50px;""><div style=""display: flex; justify-content: space-between; margin-top: 33px;""><img src=""images/choice_trial_2.png"" style=""width: 408px; height: 417px; margin-left:608px;""></div></div>",,delaylearn,learning,display_response,rQ9DiOUUhRYGcjkGOTzgqnYzqoQ2,rQ9DiOUUhRYGcjkGOTzgqnYzqoQ2,,,,,,,,,,,,,,,,,chosen stimuli: images/choice_trial_2.png,,,,,5cdef3d318f742000174cc23,16:33:06,27/03/2024
html-keyboard-response,135,275775,0.0-57.0-2.0,,,,delaylearn,learning,feedback_duration_window,rQ9DiOUUhRYGcjkGOTzgqnYzqoQ2,rQ9DiOUUhRYGcjkGOTzgqnYzqoQ2,,,,,,,,,,,,,,,,,,750.0,,,,5cdef3d318f742000174cc23,16:33:06,27/03/2024
html-keyboard-response,136,277288,0.0-57.0-3.0,,<div style='margin:auto;width: auto; font-size: 150%'><span style='font-weight: bold; font-size: 100px; color: green;'>+10 points!</span><br><br></div>,,delaylearn,learning,feedback_image_window,rQ9DiOUUhRYGcjkGOTzgqnYzqoQ2,rQ9DiOUUhRYGcjkGOTzgqnYzqoQ2,,,,,,,,,,,,,,,,,,,,,,5cdef3d318f742000174cc23,16:33:06,27/03/2024
html-keyboard-response,137,279519,0.0-58.0,,"<div style=""font-size:100px;"">+</div>",,delaylearn,learning,ITI,rQ9DiOUUhRYGcjkGOTzgqnYzqoQ2,rQ9DiOUUhRYGcjkGOTzgqnYzqoQ2,,,,,,,,,,,,,,,,,,,2221.0,,,5cdef3d318f742000174cc23,16:33:06,27/03/2024
html-keyboard-response,138,280000,0.0-59.0-0.0,477.5999999977648,"<div style=""display: flex; flex-direction: column; align-items: center; margin-top: -40px;""><img src=""images/pattern_3.png"" style=""width: 234px; height: 230px; margin-top: -50px;""><div style=""display: flex; justify-content: space-between; margin-top: 33px;""><img src=""images/choice_trial_14.png"" style=""width: 408px; height: 417px; margin-right: 200px;""><img src=""images/choice_trial_12.png"" style=""width: 408px; height: 417px;""></div></div>",f,delaylearn,learning,trial,rQ9DiOUUhRYGcjkGOTzgqnYzqoQ2,rQ9DiOUUhRYGcjkGOTzgqnYzqoQ2,2.0,images/choice_trial_14.png,images/choice_trial_12.png,images/pattern_3.png,j,j,7000.0,14.0,12.0,2.0,1.0,26.0,0.0,0.0,14.0,120.0,,,,,,5cdef3d318f742000174cc23,16:33:06,27/03/2024
html-keyboard-response,139,281013,0.0-59.0-1.0,,"<div style=""display: flex; flex-direction: column; align-items: center; margin-top: -40px;""><img src=""images/pattern_3.png"" style=""width: 234px; height: 230px; margin-top: -50px;""><div style=""display: flex; justify-content: space-between; margin-top: 33px;""><img src=""images/choice_trial_14.png"" style=""width: 408px; height: 417px; margin-right: 608px;""></div></div>",,delaylearn,learning,display_response,rQ9DiOUUhRYGcjkGOTzgqnYzqoQ2,rQ9DiOUUhRYGcjkGOTzgqnYzqoQ2,,,,,,,,,,,,,,,,,chosen stimuli: images/choice_trial_14.png,,,,,5cdef3d318f742000174cc23,16:33:06,27/03/2024
html-keyboard-response,140,288022,0.0-59.0-2.0,,,,delaylearn,learning,feedback_duration_window,rQ9DiOUUhRYGcjkGOTzgqnYzqoQ2,rQ9DiOUUhRYGcjkGOTzgqnYzqoQ2,,,,,,,,,,,,,,,,,,7000.0,,,,5cdef3d318f742000174cc23,16:33:06,27/03/2024
html-keyboard-response,141,289534,0.0-59.0-3.0,,<div style='margin:auto;width: auto; font-size: 150%'><span style='font-weight: bold; font-size: 100px; color: red;'>0 points!</span><br><br></div>,,delaylearn,learning,feedback_image_window,rQ9DiOUUhRYGcjkGOTzgqnYzqoQ2,rQ9DiOUUhRYGcjkGOTzgqnYzqoQ2,,,,,,,,,,,,,,,,,,,,,,5cdef3d318f742000174cc23,16:33:06,27/03/2024
lmdlab-html-vas-response,142,297754,0.0-60.0-0.0,6707.0,*How <b><u>confident</u></b> are you feeling about your answers at this moment?*,0.15046296296296297,rewlearn,rate_confidence,,rQ9DiOUUhRYGcjkGOTzgqnYzqoQ2,rQ9DiOUUhRYGcjkGOTzgqnYzqoQ2,,,,,,,,,,,,,,,,,,,,"['No confidence', 'Complete confidence']",,5cdef3d318f742000174cc23,16:33:06,27/03/2024
lmdlab-rest-trial-limit,143,308633,0.0-60.0-1.0,9364.5,"<div style=""font-size:40px;""><b>Please take a break!</b><br><br><br><br><p>Great work: you earned 120 points.<br><br><br><p>You have completed part(s) 1 of 5.<br><br><br><br>When you are ready to continue<br><br><br>please click the button.</p><br><br>",0,delaylearn,learning,break,rQ9DiOUUhRYGcjkGOTzgqnYzqoQ2,rQ9DiOUUhRYGcjkGOTzgqnYzqoQ2,,,,,,,,,,,,,,,,,,,,,0.0,5cdef3d318f742000174cc23,16:33:06,27/03/2024
html-keyboard-response,144,311636,0.0-60.0-2.0,,"<div style=""font-size:100px;"">+</div>",,delaylearn,learning,pre_fixation,rQ9DiOUUhRYGcjkGOTzgqnYzqoQ2,,,,,,,,,,,,,,,,,,,,,,,5cdef3d318f742000174cc23,16:33:06,27/03/2024
lmdlab-html-vas-response,145,315511,0.0-60.0-3.0-0.0,2860.0,How happy are you right now?,0.34953703703703703,delaylearn,learning,mood_baseline,rQ9DiOUUhRYGcjkGOTzgqnYzqoQ2,rQ9DiOUUhRYGcjkGOTzgqnYzqoQ2,,,,,,,,,,,,,,,,,,,,"['Very unhappy', 'Very happy']",,5cdef3d318f742000174cc23,16:33:06,27/03/2024
html-keyboard-response,146,317026,0.0-60.0-3.0-1.0,,,,,,mood_baseline_fixation,rQ9DiOUUhRYGcjkGOTzgqnYzqoQ2,,,,,,,,,,,,,,,,,,,,,,,5cdef3d318f742000174cc23,16:33:06,27/03/2024
html-keyboard-response,147,319474,0.0-61.0,,"<div style=""font-size:100px;"">+</div>",,delaylearn,learning,ITI,rQ9DiOUUhRYGcjkGOTzgqnYzqoQ2,rQ9DiOUUhRYGcjkGOTzgqnYzqoQ2,,,,,,,,,,,,,,,,,,,2438.0,,,5cdef3d318f742000174cc23,16:33:06,27/03/2024
html-keyboard-response,148,320487,0.0-62.0-0.0,1011.6000000014901,"<div style=""display: flex; flex-direction: column; align-items: center; margin-top: -40px;""><img src=""images/pattern_7.png"" style=""width: 234px; height: 230px; margin-top: -50px;""><div style=""display: flex; justify-content: space-between; margin-top: 33px;""><img src=""images/choice_trial_15.png"" style=""width: 408px; height: 417px; margin-right: 200px;""><img src=""images/choice_trial_8.png"" style=""width: 408px; height: 417px;""></div></div>",f,delaylearn,learning,trial,rQ9DiOUUhRYGcjkGOTzgqnYzqoQ2,rQ9DiOUUhRYGcjkGOTzgqnYzqoQ2,2.0,images/choice_trial_15.png,images/choice_trial_8.png,images/pattern_7.png,j,j,750.0,15.0,8.0,6.0,1.0,27.0,0.0,0.0,15.0,120.0,,,,,,5cdef3d318f742000174cc23,16:33:06,27/03/2024
html-keyboard-response,149,321502,0.0-62.0-1.0,,"<div style=""display: flex; flex-direction: column; align-items: center; margin-top: -40px;""><img src=""images/pattern_7.png"" style=""width: 234px; height: 230px; margin-top: -50px;""><div style=""display: flex; justify-content: space-between; margin-top: 33px;""><img src=""images/choice_trial_15.png"" style=""width: 408px; height: 417px; margin-right: 608px;""></div></div>",,delaylearn,learning,display_response,rQ9DiOUUhRYGcjkGOTzgqnYzqoQ2,rQ9DiOUUhRYGcjkGOTzgqnYzqoQ2,,,,,,,,,,,,,,,,,chosen stimuli: images/choice_trial_15.png,,,,,5cdef3d318f742000174cc23,16:33:06,27/03/2024
html-keyboard-response,150,322257,0.0-62.0-2.0,,,,delaylearn,learning,feedback_duration_window,rQ9DiOUUhRYGcjkGOTzgqnYzqoQ2,rQ9DiOUUhRYGcjkGOTzgqnYzqoQ2,,,,,,,,,,,,,,,,,,750.0,,,,5cdef3d318f742000174cc23,16:33:06,27/03/2024
html-keyboard-response,151,323773,0.0-62.0-3.0,,<div style='margin:auto;width: auto; font-size: 150%'><span style='font-weight: bold; font-size: 100px; color: red;'>0 points!</span><br><br></div>,,delaylearn,learning,feedback_image_window,rQ9DiOUUhRYGcjkGOTzgqnYzqoQ2,rQ9DiOUUhRYGcjkGOTzgqnYzqoQ2,,,,,,,,,,,,,,,,,,,,,,5cdef3d318f742000174cc23,16:33:06,27/03/2024
html-keyboard-response,152,324287,0.0-63.0-0.0,,,,,,mood_trial_fixation,rQ9DiOUUhRYGcjkGOTzgqnYzqoQ2,,,,,,,,,,,,,,,,,,,,,,,5cdef3d318f742000174cc23,16:33:06,27/03/2024
lmdlab-html-vas-response,153,328619,0.0-63.0-1.0,3324.0,How happy are you right now?,0.24074074074074073,delaylearn,learning,mood_trial,rQ9DiOUUhRYGcjkGOTzgqnYzqoQ2,rQ9DiOUUhRYGcjkGOTzgqnYzqoQ2,,,,,,,,,,,,,,,,,,,,"['Very unhappy', 'Very happy']",,5cdef3d318f742000174cc23,16:33:06,27/03/2024
html-keyboard-response,154,330281,0.0-64.0,,"<div style=""font-size:100px;"">+</div>",,delaylearn,learning,ITI,rQ9DiOUUhRYGcjkGOTzgqnYzqoQ2,rQ9DiOUUhRYGcjkGOTzgqnYzqoQ2,,,,,,,,,,,,,,,,,,,1653.0,,,5cdef3d318f742000174cc23,16:33:06,27/03/2024
html-keyboard-response,155,331422,0.0-65.0-0.0,1138.1000000014901,"<div style=""display: flex; flex-direction: column; align-items: center; margin-top: -40px;""><img src=""images/pattern_1.png"" style=""width: 234px; height: 230px; margin-top: -50px;""><div style=""display: flex; justify-content: space-between; margin-top: 33px;""><img src=""images/choice_trial_3.png"" style=""width: 408px; height: 417px; margin-right: 200px;""><img src=""images/choice_trial_10.png"" style=""width: 408px; height: 417px;""></div></div>",f,delaylearn,learning,trial,rQ9DiOUUhRYGcjkGOTzgqnYzqoQ2,rQ9DiOUUhRYGcjkGOTzgqnYzqoQ2,2.0,images/choice_trial_3.png,images/choice_trial_10.png,images/pattern_1.png,f,f,7000.0,3.0,10.0,1.0,0.0,28.0,1.0,1.0,3.0,130.0,,,,,,5cdef3d318f742000174cc23,16:33:06,27/03/2024
html-keyboard-response,156,332424,0.0-65.0-1.0,,"<div style=""display: flex; flex-direction: column; align-items: center; margin-top: -40px;""><img src=""images/pattern_1.png"" style=""width: 234px; height: 230px; margin-top: -50px;""><div style=""display: flex; justify-content: space-between; margin-top: 33px;""><img src=""images/choice_trial_3.png"" style=""width: 408px; height: 417px; margin-right: 608px;""></div></div>",,delaylearn,learning,display_response,rQ9DiOUUhRYGcjkGOTzgqnYzqoQ2,rQ9DiOUUhRYGcjkGOTzgqnYzqoQ2,,,,,,,,,,,,,,,,,chosen stimuli: images/choice_trial_3.png,,,,,5cdef3d318f742000174cc23,16:33:06,27/03/2024
html-keyboard-response,157,339428,0.0-65.0-2.0,,,,delaylearn,learning,feedback_duration_window,rQ9DiOUUhRYGcjkGOTzgqnYzqoQ2,rQ9DiOUUhRYGcjkGOTzgqnYzqoQ2,,,,,,,,,,,,,,,,,,7000.0,,,,5cdef3d318f742000174cc23,16:33:06,27/03/2024
html-keyboard-response,158,340942,0.0-65.0-3.0,,<div style='margin:auto;width: auto; font-size: 150%'><span style='font-weight: bold; font-size: 100px; color: green;'>+10 points!</span><br><br></div>,,delaylearn,learning,feedback_image_window,rQ9DiOUUhRYGcjkGOTzgqnYzqoQ2,rQ9DiOUUhRYGcjkGOTzgqnYzqoQ2,,,,,,,,,,,,,,,,,,,,,,5cdef3d318f742000174cc23,16:33:06,27/03/2024
html-keyboard-response,159,342666,0.0-66.0,,"<div style=""font-size:100px;"">+</div>",,delaylearn,learning,ITI,rQ9DiOUUhRYGcjkGOTzgqnYzqoQ2,rQ9DiOUUhRYGcjkGOTzgqnYzqoQ2,,,,,,,,,,,,,,,,,,,1721.0,,,5cdef3d318f742000174cc23,16:33:06,27/03/2024
html-keyboard-response,160,343128,0.0-67.0-0.0,458.9000000022352,"<div style=""display: flex; flex-direction: column; align-items: center; margin-top: -40px;""><img src=""images/pattern_5.png"" style=""width: 234px; height: 230px; margin-top: -50px;""><div style=""display: flex; justify-content: space-between; margin-top: 33px;""><img src=""images/choice_trial_2.png"" style=""width: 408px; height: 417px; margin-right: 200px;""><img src=""images/choice_trial_9.png"" style=""width: 408px; height: 417px;""></div></div>",j,delaylearn,learning,trial,rQ9DiOUUhRYGcjkGOTzgqnYzqoQ2,rQ9DiOUUhRYGcjkGOTzgqnYzqoQ2,2.0,images/choice_trial_2.png,images/choice_trial_9.png,images/pattern_5.png,f,f,750.0,2.0,9.0,4.0,0.0,29.0,0.0,0.0,9.0,130.0,,,,,,5cdef3d318f742000174cc23,16:33:06,27/03/2024
html-keyboard-response,161,344144,0.0-67.0-1.0,,"<div style=""display: flex; flex-direction: column; align-items: center; margin-top: -40px;""><img src=""images/pattern_5.png"" style=""width: 234px; height: 230px; margin-top: -50px;""><div style=""display: flex; justify-content: space-between; margin-top: 33px;""><img src=""images/choice_trial_9.png"" style=""width: 408px; height: 417px; margin-left:608px;""></div></div>",,delaylearn,learning,display_response,rQ9DiOUUhRYGcjkGOTzgqnYzqoQ2,rQ9DiOUUhRYGcjkGOTzgqnYzqoQ2,,,,,,,,,,,,,,,,,chosen stimuli: images/choice_trial_9.png,,,,,5cdef3d318f742000174cc23,16:33:06,27/03/2024
html-keyboard-response,162,344909,0.0-67.0-2.0,,,,delaylearn,learning,feedback_duration_window,rQ9DiOUUhRYGcjkGOTzgqnYzqoQ2,rQ9DiOUUhRYGcjkGOTzgqnYzqoQ2,,,,,,,,,,,,,,,,,,750.0,,,,5cdef3d318f742000174cc23,16:33:06,27/03/2024
html-keyboard-response,163,346415,0.0-67.0-3.0,,<div style='margin:auto;width: auto; font-size: 150%'><span style='font-weight: bold; font-size: 100px; color: red;'>0 points!</span><br><br></div>,,delaylearn,learning,feedback_image_window,rQ9DiOUUhRYGcjkGOTzgqnYzqoQ2,rQ9DiOUUhRYGcjkGOTzgqnYzqoQ2,,,,,,,,,,,,,,,,,,,,,,5cdef3d318f742000174cc23,16:33:06,27/03/2024
html-keyboard-response,164,348458,0.0-68.0,,"<div style=""font-size:100px;"">+</div>",,delaylearn,learning,ITI,rQ9DiOUUhRYGcjkGOTzgqnYzqoQ2,rQ9DiOUUhRYGcjkGOTzgqnYzqoQ2,,,,,,,,,,,,,,,,,,,2026.0,,,5cdef3d318f742000174cc23,16:33:06,27/03/2024
html-keyboard-response,165,348784,0.0-69.0-0.0,323.5,"<div style=""display: flex; flex-direction: column; align-items: center; margin-top: -40px;""><img src=""images/pattern_6.png"" style=""width: 234px; height: 230px; margin-top: -50px;""><div style=""display: flex; justify-content: space-between; margin-top: 33px;""><img src=""images/choice_trial_5.png"" style=""width: 408px; height: 417px; margin-right: 200px;""><img src=""images/choice_trial_11.png"" style=""width: 408px; height: 417px;""></div></div>",j,delaylearn,learning,trial,rQ9DiOUUhRYGcjkGOTzgqnYzqoQ2,rQ9DiOUUhRYGcjkGOTzgqnYzqoQ2,2.0,images/choice_trial_5.png,images/choice_trial_11.png,images/pattern_6.png,j,j,750.0,5.0,11.0,5.0,1.0,30.0,1.0,1.0,11.0,140.0,,,,,,5cdef3d318f742000174cc23,16:33:06,27/03/2024
html-keyboard-response,166,349799,0.0-69.0-1.0,,"<div style=""display: flex; flex-direction: column; align-items: center; margin-top: -40px;""><img src=""images/pattern_6.png"" style=""width: 234px; height: 230px; margin-top: -50px;""><div style=""display: flex; justify-content: space-between; margin-top: 33px;""><img src=""images/choice_trial_11.png"" style=""width: 408px; height: 417px; margin-left:608px;""></div></div>",,delaylearn,learning,display_response,rQ9DiOUUhRYGcjkGOTzgqnYzqoQ2,rQ9DiOUUhRYGcjkGOTzgqnYzqoQ2,,,,,,,,,,,,,,,,,chosen stimuli: images/choice_trial_11.png,,,,,5cdef3d318f742000174cc23,16:33:06,27/03/2024
html-keyboard-response,167,350565,0.0-69.0-2.0,,,,delaylearn,learning,feedback_duration_window,rQ9DiOUUhRYGcjkGOTzgqnYzqoQ2,rQ9DiOUUhRYGcjkGOTzgqnYzqoQ2,,,,,,,,,,,,,,,,,,750.0,,,,5cdef3d318f742000174cc23,16:33:06,27/03/2024
html-keyboard-response,168,352067,0.0-69.0-3.0,,<div style='margin:auto;width: auto; font-size: 150%'><span style='font-weight: bold; font-size: 100px; color: green;'>+10 points!</span><br><br></div>,,delaylearn,learning,feedback_image_window,rQ9DiOUUhRYGcjkGOTzgqnYzqoQ2,rQ9DiOUUhRYGcjkGOTzgqnYzqoQ2,,,,,,,,,,,,,,,,,,,,,,5cdef3d318f742000174cc23,16:33:06,27/03/2024
html-keyboard-response,169,352580,0.0-70.0-0.0,,,,,,mood_trial_fixation,rQ9DiOUUhRYGcjkGOTzgqnYzqoQ2,,,,,,,,,,,,,,,,,,,,,,,5cdef3d318f742000174cc23,16:33:06,27/03/2024
lmdlab-html-vas-response,170,356670,0.0-70.0-1.0,3077.0,How happy are you right now?,0.3888888888888889,delaylearn,learning,mood_trial,rQ9DiOUUhRYGcjkGOTzgqnYzqoQ2,rQ9DiOUUhRYGcjkGOTzgqnYzqoQ2,,,,,,,,,,,,,,,,,,,,"['Very unhappy', 'Very happy']",,5cdef3d318f742000174cc23,16:33:06,27/03/2024
html-keyboard-response,171,358641,0.0-71.0,,"<div style=""font-size:100px;"">+</div>",,delaylearn,learning,ITI,rQ9DiOUUhRYGcjkGOTzgqnYzqoQ2,rQ9DiOUUhRYGcjkGOTzgqnYzqoQ2,,,,,,,,,,,,,,,,,,,1959.0,,,5cdef3d318f742000174cc23,16:33:06,27/03/2024
html-keyboard-response,172,359493,0.0-72.0-0.0,848.5,"<div style=""display: flex; flex-direction: column; align-items: center; margin-top: -40px;""><img src=""images/pattern_4.png"" style=""width: 234px; height: 230px; margin-top: -50px;""><div style=""display: flex; justify-content: space-between; margin-top: 33px;""><img src=""images/choice_trial_16.png"" style=""width: 408px; height: 417px; margin-right: 200px;""><img src=""images/choice_trial_4.png"" style=""width: 408px; height: 417px;""></div></div>",f,delaylearn,learning,trial,rQ9DiOUUhRYGcjkGOTzgqnYzqoQ2,rQ9DiOUUhRYGcjkGOTzgqnYzqoQ2,2.0,images/choice_trial_16.png,images/choice_trial_4.png,images/pattern_4.png,j,j,7000.0,16.0,4.0,3.0,1.0,31.0,0.0,0.0,16.0,140.0,,,,,,5cdef3d318f742000174cc23,16:33:06,27/03/2024
html-keyboard-response,173,360510,0.0-72.0-1.0,,"<div style=""display: flex; flex-direction: column; align-items: center; margin-top: -40px;""><img src=""images/pattern_4.png"" style=""width: 234px; height: 230px; margin-top: -50px;""><div style=""display: flex; justify-content: space-between; margin-top: 33px;""><img src=""images/choice_trial_16.png"" style=""width: 408px; height: 417px; margin-right: 608px;""></div></div>",,delaylearn,learning,display_response,rQ9DiOUUhRYGcjkGOTzgqnYzqoQ2,rQ9DiOUUhRYGcjkGOTzgqnYzqoQ2,,,,,,,,,,,,,,,,,chosen stimuli: images/choice_trial_16.png,,,,,5cdef3d318f742000174cc23,16:33:06,27/03/2024
html-keyboard-response,174,367513,0.0-72.0-2.0,,,,delaylearn,learning,feedback_duration_window,rQ9DiOUUhRYGcjkGOTzgqnYzqoQ2,rQ9DiOUUhRYGcjkGOTzgqnYzqoQ2,,,,,,,,,,,,,,,,,,7000.0,,,,5cdef3d318f742000174cc23,16:33:06,27/03/2024
html-keyboard-response,175,369023,0.0-72.0-3.0,,<div style='margin:auto;width: auto; font-size: 150%'><span style='font-weight: bold; font-size: 100px; color: red;'>0 points!</span><br><br></div>,,delaylearn,learning,feedback_image_window,rQ9DiOUUhRYGcjkGOTzgqnYzqoQ2,rQ9DiOUUhRYGcjkGOTzgqnYzqoQ2,,,,,,,,,,,,,,,,,,,,,,5cdef3d318f742000174cc23,16:33:06,27/03/2024
html-keyboard-response,176,370875,0.0-73.0,,"<div style=""font-size:100px;"">+</div>",,delaylearn,learning,ITI,rQ9DiOUUhRYGcjkGOTzgqnYzqoQ2,rQ9DiOUUhRYGcjkGOTzgqnYzqoQ2,,,,,,,,,,,,,,,,,,,1836.0,,,5cdef3d318f742000174cc23,16:33:06,27/03/2024
html-keyboard-response,177,371298,0.0-74.0-0.0,419.19999999925494,"<div style=""display: flex; flex-direction: column; align-items: center; margin-top: -40px;""><img src=""images/pattern_3.png"" style=""width: 234px; height: 230px; margin-top: -50px;""><div style=""display: flex; justify-content: space-between; margin-top: 33px;""><img src=""images/choice_trial_14.png"" style=""width: 408px; height: 417px; margin-right: 200px;""><img src=""images/choice_trial_12.png"" style=""width: 408px; height: 417px;""></div></div>",j,delaylearn,learning,trial,rQ9DiOUUhRYGcjkGOTzgqnYzqoQ2,rQ9DiOUUhRYGcjkGOTzgqnYzqoQ2,2.0,images/choice_trial_14.png,images/choice_trial_12.png,images/pattern_3.png,j,j,7000.0,14.0,12.0,2.0,1.0,32.0,1.0,1.0,12.0,150.0,,,,,,5cdef3d318f742000174cc23,16:33:06,27/03/2024
html-keyboard-response,178,372314,0.0-74.0-1.0,,"<div style=""display: flex; flex-direction: column; align-items: center; margin-top: -40px;""><img src=""images/pattern_3.png"" style=""width: 234px; height: 230px; margin-top: -50px;""><div style=""display: flex; justify-content: space-between; margin-top: 33px;""><img src=""images/choice_trial_12.png"" style=""width: 408px; height: 417px; margin-left:608px;""></div></div>",,delaylearn,learning,display_response,rQ9DiOUUhRYGcjkGOTzgqnYzqoQ2,rQ9DiOUUhRYGcjkGOTzgqnYzqoQ2,,,,,,,,,,,,,,,,,chosen stimuli: images/choice_trial_12.png,,,,,5cdef3d318f742000174cc23,16:33:06,27/03/2024
html-keyboard-response,179,379328,0.0-74.0-2.0,,,,delaylearn,learning,feedback_duration_window,rQ9DiOUUhRYGcjkGOTzgqnYzqoQ2,rQ9DiOUUhRYGcjkGOTzgqnYzqoQ2,,,,,,,,,,,,,,,,,,7000.0,,,,5cdef3d318f742000174cc23,16:33:06,27/03/2024
html-keyboard-response,180,380832,0.0-74.0-3.0,,<div style='margin:auto;width: auto; font-size: 150%'><span style='font-weight: bold; font-size: 100px; color: green;'>+10 points!</span><br><br></div>,,delaylearn,learning,feedback_image_window,rQ9DiOUUhRYGcjkGOTzgqnYzqoQ2,rQ9DiOUUhRYGcjkGOTzgqnYzqoQ2,,,,,,,,,,,,,,,,,,,,,,5cdef3d318f742000174cc23,16:33:06,27/03/2024
html-keyboard-response,181,382899,0.0-75.0,,"<div style=""font-size:100px;"">+</div>",,delaylearn,learning,ITI,rQ9DiOUUhRYGcjkGOTzgqnYzqoQ2,rQ9DiOUUhRYGcjkGOTzgqnYzqoQ2,,,,,,,,,,,,,,,,,,,2060.0,,,5cdef3d318f742000174cc23,16:33:06,27/03/2024
html-keyboard-response,182,383304,0.0-76.0-0.0,402.79999999701977,"<div style=""display: flex; flex-direction: column; align-items: center; margin-top: -40px;""><img src=""images/pattern_5.png"" style=""width: 234px; height: 230px; margin-top: -50px;""><div style=""display: flex; justify-content: space-between; margin-top: 33px;""><img src=""images/choice_trial_2.png"" style=""width: 408px; height: 417px; margin-right: 200px;""><img src=""images/choice_trial_9.png"" style=""width: 408px; height: 417px;""></div></div>",f,delaylearn,learning,trial,rQ9DiOUUhRYGcjkGOTzgqnYzqoQ2,rQ9DiOUUhRYGcjkGOTzgqnYzqoQ2,2.0,images/choice_trial_2.png,images/choice_trial_9.png,images/pattern_5.png,j,f,750.0,2.0,9.0,4.0,0.0,33.0,1.0,0.0,2.0,150.0,,,,,,5cdef3d318f742000174cc23,16:33:06,27/03/2024
html-keyboard-response,183,384308,0.0-76.0-1.0,,"<div style=""display: flex; flex-direction: column; align-items: center; margin-top: -40px;""><img src=""images/pattern_5.png"" style=""width: 234px; height: 230px; margin-top: -50px;""><div style=""display: flex; justify-content: space-between; margin-top: 33px;""><img src=""images/choice_trial_2.png"" style=""width: 408px; height: 417px; margin-right: 608px;""></div></div>",,delaylearn,learning,display_response,rQ9DiOUUhRYGcjkGOTzgqnYzqoQ2,rQ9DiOUUhRYGcjkGOTzgqnYzqoQ2,,,,,,,,,,,,,,,,,chosen stimuli: images/choice_trial_2.png,,,,,5cdef3d318f742000174cc23,16:33:06,27/03/2024
html-keyboard-response,184,385071,0.0-76.0-2.0,,,,delaylearn,learning,feedback_duration_window,rQ9DiOUUhRYGcjkGOTzgqnYzqoQ2,rQ9DiOUUhRYGcjkGOTzgqnYzqoQ2,,,,,,,,,,,,,,,,,,750.0,,,,5cdef3d318f742000174cc23,16:33:06,27/03/2024
html-keyboard-response,185,386587,0.0-76.0-3.0,,<div style='margin:auto;width: auto; font-size: 150%'><span style='font-weight: bold; font-size: 100px; color: red;'>0 points!</span><br><br></div>,,delaylearn,learning,feedback_image_window,rQ9DiOUUhRYGcjkGOTzgqnYzqoQ2,rQ9DiOUUhRYGcjkGOTzgqnYzqoQ2,,,,,,,,,,,,,,,,,,,,,,5cdef3d318f742000174cc23,16:33:06,27/03/2024
html-keyboard-response,186,388673,0.0-77.0,,"<div style=""font-size:100px;"">+</div>",,delaylearn,learning,ITI,rQ9DiOUUhRYGcjkGOTzgqnYzqoQ2,rQ9DiOUUhRYGcjkGOTzgqnYzqoQ2,,,,,,,,,,,,,,,,,,,2073.0,,,5cdef3d318f742000174cc23,16:33:06,27/03/2024
html-keyboard-response,187,389059,0.0-78.0-0.0,381.69999999925494,"<div style=""display: flex; flex-direction: column; align-items: center; margin-top: -40px;""><img src=""images/pattern_1.png"" style=""width: 234px; height: 230px; margin-top: -50px;""><div style=""display: flex; justify-content: space-between; margin-top: 33px;""><img src=""images/choice_trial_3.png"" style=""width: 408px; height: 417px; margin-right: 200px;""><img src=""images/choice_trial_10.png"" style=""width: 408px; height: 417px;""></div></div>",j,delaylearn,learning,trial,rQ9DiOUUhRYGcjkGOTzgqnYzqoQ2,rQ9DiOUUhRYGcjkGOTzgqnYzqoQ2,2.0,images/choice_trial_3.png,images/choice_trial_10.png,images/pattern_1.png,f,f,7000.0,3.0,10.0,1.0,0.0,34.0,0.0,0.0,10.0,150.0,,,,,,5cdef3d318f742000174cc23,16:33:06,27/03/2024
html-keyboard-response,188,390073,0.0-78.0-1.0,,"<div style=""display: flex; flex-direction: column; align-items: center; margin-top: -40px;""><img src=""images/pattern_1.png"" style=""width: 234px; height: 230px; margin-top: -50px;""><div style=""display: flex; justify-content: space-between; margin-top: 33px;""><img src=""images/choice_trial_10.png"" style=""width: 408px; height: 417px; margin-left:608px;""></div></div>",,delaylearn,learning,display_response,rQ9DiOUUhRYGcjkGOTzgqnYzqoQ2,rQ9DiOUUhRYGcjkGOTzgqnYzqoQ2,,,,,,,,,,,,,,,,,chosen stimuli: images/choice_trial_10.png,,,,,5cdef3d318f742000174cc23,16:33:06,27/03/2024
html-keyboard-response,189,397084,0.0-78.0-2.0,,,,delaylearn,learning,feedback_duration_window,rQ9DiOUUhRYGcjkGOTzgqnYzqoQ2,rQ9DiOUUhRYGcjkGOTzgqnYzqoQ2,,,,,,,,,,,,,,,,,,7000.0,,,,5cdef3d318f742000174cc23,16:33:06,27/03/2024
html-keyboard-response,190,398595,0.0-78.0-3.0,,<div style='margin:auto;width: auto; font-size: 150%'><span style='font-weight: bold; font-size: 100px; color: red;'>0 points!</span><br><br></div>,,delaylearn,learning,feedback_image_window,rQ9DiOUUhRYGcjkGOTzgqnYzqoQ2,rQ9DiOUUhRYGcjkGOTzgqnYzqoQ2,,,,,,,,,,,,,,,,,,,,,,5cdef3d318f742000174cc23,16:33:06,27/03/2024
html-keyboard-response,191,399111,0.0-79.0-0.0,,,,,,mood_trial_fixation,rQ9DiOUUhRYGcjkGOTzgqnYzqoQ2,,,,,,,,,,,,,,,,,,,,,,,5cdef3d318f742000174cc23,16:33:06,27/03/2024
lmdlab-html-vas-response,192,403819,0.0-79.0-1.0,3692.0,How happy are you right now?,0.3148148148148148,delaylearn,learning,mood_trial,rQ9DiOUUhRYGcjkGOTzgqnYzqoQ2,rQ9DiOUUhRYGcjkGOTzgqnYzqoQ2,,,,,,,,,,,,,,,,,,,,"['Very unhappy', 'Very happy']",,5cdef3d318f742000174cc23,16:33:06,27/03/2024
html-keyboard-response,193,405963,0.0-80.0,,"<div style=""font-size:100px;"">+</div>",,delaylearn,learning,ITI,rQ9DiOUUhRYGcjkGOTzgqnYzqoQ2,rQ9DiOUUhRYGcjkGOTzgqnYzqoQ2,,,,,,,,,,,,,,,,,,,2135.0,,,5cdef3d318f742000174cc23,16:33:06,27/03/2024
html-keyboard-response,194,406970,0.0-81.0-0.0,1003.0999999977648,"<div style=""display: flex; flex-direction: column; align-items: center; margin-top: -40px;""><img src=""images/pattern_6.png"" style=""width: 234px; height: 230px; margin-top: -50px;""><div style=""display: flex; justify-content: space-between; margin-top: 33px;""><img src=""images/choice_trial_11.png"" style=""width: 408px; height: 417px; margin-right: 200px;""><img src=""images/choice_trial_5.png"" style=""width: 408px; height: 417px;""></div></div>",j,delaylearn,learning,trial,rQ9DiOUUhRYGcjkGOTzgqnYzqoQ2,rQ9DiOUUhRYGcjkGOTzgqnYzqoQ2,2.0,images/choice_trial_11.png,images/choice_trial_5.png,images/pattern_6.png,j,f,750.0,11.0,5.0,5.0,0.0,35.0,0.0,1.0,5.0,160.0,,,,,,5cdef3d318f742000174cc23,16:33:06,27/03/2024
html-keyboard-response,195,407975,0.0-81.0-1.0,,"<div style=""display: flex; flex-direction: column; align-items: center; margin-top: -40px;""><img src=""images/pattern_6.png"" style=""width: 234px; height: 230px; margin-top: -50px;""><div style=""display: flex; justify-content: space-between; margin-top: 33px;""><img src=""images/choice_trial_5.png"" style=""width: 408px; height: 417px; margin-left:608px;""></div></div>",,delaylearn,learning,display_response,rQ9DiOUUhRYGcjkGOTzgqnYzqoQ2,rQ9DiOUUhRYGcjkGOTzgqnYzqoQ2,,,,,,,,,,,,,,,,,chosen stimuli: images/choice_trial_5.png,,,,,5cdef3d318f742000174cc23,16:33:06,27/03/2024
html-keyboard-response,196,408741,0.0-81.0-2.0,,,,delaylearn,learning,feedback_duration_window,rQ9DiOUUhRYGcjkGOTzgqnYzqoQ2,rQ9DiOUUhRYGcjkGOTzgqnYzqoQ2,,,,,,,,,,,,,,,,,,750.0,,,,5cdef3d318f742000174cc23,16:33:06,27/03/2024
html-keyboard-response,197,410245,0.0-81.0-3.0,,<div style='margin:auto;width: auto; font-size: 150%'><span style='font-weight: bold; font-size: 100px; color: green;'>+10 points!</span><br><br></div>,,delaylearn,learning,feedback_image_window,rQ9DiOUUhRYGcjkGOTzgqnYzqoQ2,rQ9DiOUUhRYGcjkGOTzgqnYzqoQ2,,,,,,,,,,,,,,,,,,,,,,5cdef3d318f742000174cc23,16:33:06,27/03/2024
html-keyboard-response,198,412332,0.0-82.0,,"<div style=""font-size:100px;"">+</div>",,delaylearn,learning,ITI,rQ9DiOUUhRYGcjkGOTzgqnYzqoQ2,rQ9DiOUUhRYGcjkGOTzgqnYzqoQ2,,,,,,,,,,,,,,,,,,,2077.0,,,5cdef3d318f742000174cc23,16:33:06,27/03/2024
html-keyboard-response,199,413264,0.0-83.0-0.0,927.0999999977648,"<div style=""display: flex; flex-direction: column; align-items: center; margin-top: -40px;""><img src=""images/pattern_3.png"" style=""width: 234px; height: 230px; margin-top: -50px;""><div style=""display: flex; justify-content: space-between; margin-top: 33px;""><img src=""images/choice_trial_14.png"" style=""width: 408px; height: 417px; margin-right: 200px;""><img src=""images/choice_trial_12.png"" style=""width: 408px; height: 417px;""></div></div>",f,delaylearn,learning,trial,rQ9DiOUUhRYGcjkGOTzgqnYzqoQ2,rQ9DiOUUhRYGcjkGOTzgqnYzqoQ2,2.0,images/choice_trial_14.png,images/choice_trial_12.png,images/pattern_3.png,j,j,7000.0,14.0,12.0,2.0,1.0,36.0,0.0,0.0,14.0,160.0,,,,,,5cdef3d318f742000174cc23,16:33:06,27/03/2024
html-keyboard-response,200,414282,0.0-83.0-1.0,,"<div style=""display: flex; flex-direction: column; align-items: center; margin-top: -40px;""><img src=""images/pattern_3.png"" style=""width: 234px; height: 230px; margin-top: -50px;""><div style=""display: flex; justify-content: space-between; margin-top: 33px;""><img src=""images/choice_trial_14.png"" style=""width: 408px; height: 417px; margin-right: 608px;""></div></div>",,delaylearn,learning,display_response,rQ9DiOUUhRYGcjkGOTzgqnYzqoQ2,rQ9DiOUUhRYGcjkGOTzgqnYzqoQ2,,,,,,,,,,,,,,,,,chosen stimuli: images/choice_trial_14.png,,,,,5cdef3d318f742000174cc23,16:33:06,27/03/2024
html-keyboard-response,201,421286,0.0-83.0-2.0,,,,delaylearn,learning,feedback_duration_window,rQ9DiOUUhRYGcjkGOTzgqnYzqoQ2,rQ9DiOUUhRYGcjkGOTzgqnYzqoQ2,,,,,,,,,,,,,,,,,,7000.0,,,,5cdef3d318f742000174cc23,16:33:06,27/03/2024
html-keyboard-response,202,422804,0.0-83.0-3.0,,<div style='margin:auto;width: auto; font-size: 150%'><span style='font-weight: bold; font-size: 100px; color: red;'>0 points!</span><br><br></div>,,delaylearn,learning,feedback_image_window,rQ9DiOUUhRYGcjkGOTzgqnYzqoQ2,rQ9DiOUUhRYGcjkGOTzgqnYzqoQ2,,,,,,,,,,,,,,,,,,,,,,5cdef3d318f742000174cc23,16:33:06,27/03/2024
html-keyboard-response,203,424403,0.0-84.0,,"<div style=""font-size:100px;"">+</div>",,delaylearn,learning,ITI,rQ9DiOUUhRYGcjkGOTzgqnYzqoQ2,rQ9DiOUUhRYGcjkGOTzgqnYzqoQ2,,,,,,,,,,,,,,,,,,,1587.0,,,5cdef3d318f742000174cc23,16:33:06,27/03/2024
html-keyboard-response,204,424819,0.0-85.0-0.0,414.29999999701977,"<div style=""display: flex; flex-direction: column; align-items: center; margin-top: -40px;""><img src=""images/pattern_4.png"" style=""width: 234px; height: 230px; margin-top: -50px;""><div style=""display: flex; justify-content: space-between; margin-top: 33px;""><img src=""images/choice_trial_16.png"" style=""width: 408px; height: 417px; margin-right: 200px;""><img src=""images/choice_trial_4.png"" style=""width: 408px; height: 417px;""></div></div>",j,delaylearn,learning,trial,rQ9DiOUUhRYGcjkGOTzgqnYzqoQ2,rQ9DiOUUhRYGcjkGOTzgqnYzqoQ2,2.0,images/choice_trial_16.png,images/choice_trial_4.png,images/pattern_4.png,f,j,7000.0,16.0,4.0,3.0,1.0,37.0,1.0,0.0,4.0,160.0,,,,,,5cdef3d318f742000174cc23,16:33:06,27/03/2024
html-keyboard-response,205,425837,0.0-85.0-1.0,,"<div style=""display: flex; flex-direction: column; align-items: center; margin-top: -40px;""><img src=""images/pattern_4.png"" style=""width: 234px; height: 230px; margin-top: -50px;""><div style=""display: flex; justify-content: space-between; margin-top: 33px;""><img src=""images/choice_trial_4.png"" style=""width: 408px; height: 417px; margin-left:608px;""></div></div>",,delaylearn,learning,display_response,rQ9DiOUUhRYGcjkGOTzgqnYzqoQ2,rQ9DiOUUhRYGcjkGOTzgqnYzqoQ2,,,,,,,,,,,,,,,,,chosen stimuli: images/choice_trial_4.png,,,,,5cdef3d318f742000174cc23,16:33:06,27/03/2024
html-keyboard-response,206,432840,0.0-85.0-2.0,,,,delaylearn,learning,feedback_duration_window,rQ9DiOUUhRYGcjkGOTzgqnYzqoQ2,rQ9DiOUUhRYGcjkGOTzgqnYzqoQ2,,,,,,,,,,,,,,,,,,7000.0,,,,5cdef3d318f742000174cc23,16:33:06,27/03/2024
html-keyboard-response,207,434350,0.0-85.0-3.0,,<div style='margin:auto;width: auto; font-size: 150%'><span style='font-weight: bold; font-size: 100px; color: red;'>0 points!</span><br><br></div>,,delaylearn,learning,feedback_image_window,rQ9DiOUUhRYGcjkGOTzgqnYzqoQ2,rQ9DiOUUhRYGcjkGOTzgqnYzqoQ2,,,,,,,,,,,,,,,,,,,,,,5cdef3d318f742000174cc23,16:33:06,27/03/2024
html-keyboard-response,208,436191,0.0-86.0,,"<div style=""font-size:100px;"">+</div>",,delaylearn,learning,ITI,rQ9DiOUUhRYGcjkGOTzgqnYzqoQ2,rQ9DiOUUhRYGcjkGOTzgqnYzqoQ2,,,,,,,,,,,,,,,,,,,1830.0,,,5cdef3d318f742000174cc23,16:33:06,27/03/2024
html-keyboard-response,209,436565,0.0-87.0-0.0,370.0,"<div style=""display: flex; flex-direction: column; align-items: center; margin-top: -40px;""><img src=""images/pattern_7.png"" style=""width: 234px; height: 230px; margin-top: -50px;""><div style=""display: flex; justify-content: space-between; margin-top: 33px;""><img src=""images/choice_trial_8.png"" style=""width: 408px; height: 417px; margin-right: 200px;""><img src=""images/choice_trial_15.png"" style=""width: 408px; height: 417px;""></div></div>",f,delaylearn,learning,trial,rQ9DiOUUhRYGcjkGOTzgqnYzqoQ2,rQ9DiOUUhRYGcjkGOTzgqnYzqoQ2,2.0,images/choice_trial_8.png,images/choice_trial_15.png,images/pattern_7.png,f,f,750.0,8.0,15.0,6.0,0.0,38.0,1.0,1.0,8.0,170.0,,,,,,5cdef3d318f742000174cc23,16:33:06,27/03/2024
html-keyboard-response,210,437582,0.0-87.0-1.0,,"<div style=""display: flex; flex-direction: column; align-items: center; margin-top: -40px;""><img src=""images/pattern_7.png"" style=""width: 234px; height: 230px; margin-top: -50px;""><div style=""display: flex; justify-content: space-between; margin-top: 33px;""><img src=""images/choice_trial_8.png"" style=""width: 408px; height: 417px; margin-right: 608px;""></div></div>",,delaylearn,learning,display_response,rQ9DiOUUhRYGcjkGOTzgqnYzqoQ2,rQ9DiOUUhRYGcjkGOTzgqnYzqoQ2,,,,,,,,,,,,,,,,,chosen stimuli: images/choice_trial_8.png,,,,,5cdef3d318f742000174cc23,16:33:06,27/03/2024
html-keyboard-response,211,438347,0.0-87.0-2.0,,,,delaylearn,learning,feedback_duration_window,rQ9DiOUUhRYGcjkGOTzgqnYzqoQ2,rQ9DiOUUhRYGcjkGOTzgqnYzqoQ2,,,,,,,,,,,,,,,,,,750.0,,,,5cdef3d318f742000174cc23,16:33:06,27/03/2024
html-keyboard-response,212,439854,0.0-87.0-3.0,,<div style='margin:auto;width: auto; font-size: 150%'><span style='font-weight: bold; font-size: 100px; color: green;'>+10 points!</span><br><br></div>,,delaylearn,learning,feedback_image_window,rQ9DiOUUhRYGcjkGOTzgqnYzqoQ2,rQ9DiOUUhRYGcjkGOTzgqnYzqoQ2,,,,,,,,,,,,,,,,,,,,,,5cdef3d318f742000174cc23,16:33:06,27/03/2024
html-keyboard-response,213,442145,0.0-88.0,,"<div style=""font-size:100px;"">+</div>",,delaylearn,learning,ITI,rQ9DiOUUhRYGcjkGOTzgqnYzqoQ2,rQ9DiOUUhRYGcjkGOTzgqnYzqoQ2,,,,,,,,,,,,,,,,,,,2290.0,,,5cdef3d318f742000174cc23,16:33:06,27/03/2024
html-keyboard-response,214,443586,0.0-89.0-0.0,1439.199999999255,"<div style=""display: flex; flex-direction: column; align-items: center; margin-top: -40px;""><img src=""images/pattern_1.png"" style=""width: 234px; height: 230px; margin-top: -50px;""><div style=""display: flex; justify-content: space-between; margin-top: 33px;""><img src=""images/choice_trial_3.png"" style=""width: 408px; height: 417px; margin-right: 200px;""><img src=""images/choice_trial_10.png"" style=""width: 408px; height: 417px;""></div></div>",j,delaylearn,learning,trial,rQ9DiOUUhRYGcjkGOTzgqnYzqoQ2,rQ9DiOUUhRYGcjkGOTzgqnYzqoQ2,2.0,images/choice_trial_3.png,images/choice_trial_10.png,images/pattern_1.png,f,f,7000.0,3.0,10.0,1.0,0.0,39.0,0.0,0.0,10.0,170.0,,,,,,5cdef3d318f742000174cc23,16:33:06,27/03/2024
html-keyboard-response,215,444603,0.0-89.0-1.0,,"<div style=""display: flex; flex-direction: column; align-items: center; margin-top: -40px;""><img src=""images/pattern_1.png"" style=""width: 234px; height: 230px; margin-top: -50px;""><div style=""display: flex; justify-content: space-between; margin-top: 33px;""><img src=""images/choice_trial_10.png"" style=""width: 408px; height: 417px; margin-left:608px;""></div></div>",,delaylearn,learning,display_response,rQ9DiOUUhRYGcjkGOTzgqnYzqoQ2,rQ9DiOUUhRYGcjkGOTzgqnYzqoQ2,,,,,,,,,,,,,,,,,chosen stimuli: images/choice_trial_10.png,,,,,5cdef3d318f742000174cc23,16:33:06,27/03/2024
html-keyboard-response,216,451613,0.0-89.0-2.0,,,,delaylearn,learning,feedback_duration_window,rQ9DiOUUhRYGcjkGOTzgqnYzqoQ2,rQ9DiOUUhRYGcjkGOTzgqnYzqoQ2,,,,,,,,,,,,,,,,,,7000.0,,,,5cdef3d318f742000174cc23,16:33:06,27/03/2024
html-keyboard-response,217,453119,0.0-89.0-3.0,,<div style='margin:auto;width: auto; font-size: 150%'><span style='font-weight: bold; font-size: 100px; color: red;'>0 points!</span><br><br></div>,,delaylearn,learning,feedback_image_window,rQ9DiOUUhRYGcjkGOTzgqnYzqoQ2,rQ9DiOUUhRYGcjkGOTzgqnYzqoQ2,,,,,,,,,,,,,,,,,,,,,,5cdef3d318f742000174cc23,16:33:06,27/03/2024
html-keyboard-response,218,453630,0.0-90.0-0.0,,,,,,mood_trial_fixation,rQ9DiOUUhRYGcjkGOTzgqnYzqoQ2,,,,,,,,,,,,,,,,,,,,,,,5cdef3d318f742000174cc23,16:33:06,27/03/2024
lmdlab-html-vas-response,219,460078,0.0-90.0-1.0,5442.0,How happy are you right now?,0.6759259259259259,delaylearn,learning,mood_trial,rQ9DiOUUhRYGcjkGOTzgqnYzqoQ2,rQ9DiOUUhRYGcjkGOTzgqnYzqoQ2,,,,,,,,,,,,,,,,,,,,"['Very unhappy', 'Very happy']",,5cdef3d318f742000174cc23,16:33:06,27/03/2024
html-keyboard-response,220,461827,0.0-91.0,,"<div style=""font-size:100px;"">+</div>",,delaylearn,learning,ITI,rQ9DiOUUhRYGcjkGOTzgqnYzqoQ2,rQ9DiOUUhRYGcjkGOTzgqnYzqoQ2,,,,,,,,,,,,,,,,,,,1740.0,,,5cdef3d318f742000174cc23,16:33:06,27/03/2024
html-keyboard-response,221,463082,0.0-92.0-0.0,1251.4000000022352,"<div style=""display: flex; flex-direction: column; align-items: center; margin-top: -40px;""><img src=""images/pattern_3.png"" style=""width: 234px; height: 230px; margin-top: -50px;""><div style=""display: flex; justify-content: space-between; margin-top: 33px;""><img src=""images/choice_trial_12.png"" style=""width: 408px; height: 417px; margin-right: 200px;""><img src=""images/choice_trial_14.png"" style=""width: 408px; height: 417px;""></div></div>",j,delaylearn,learning,trial,rQ9DiOUUhRYGcjkGOTzgqnYzqoQ2,rQ9DiOUUhRYGcjkGOTzgqnYzqoQ2,2.0,images/choice_trial_12.png,images/choice_trial_14.png,images/pattern_3.png,j,f,7000.0,12.0,14.0,2.0,0.0,40.0,0.0,1.0,14.0,180.0,,,,,,5cdef3d318f742000174cc23,16:33:06,27/03/2024
html-keyboard-response,222,464097,0.0-92.0-1.0,,"<div style=""display: flex; flex-direction: column; align-items: center; margin-top: -40px;""><img src=""images/pattern_3.png"" style=""width: 234px; height: 230px; margin-top: -50px;""><div style=""display: flex; justify-content: space-between; margin-top: 33px;""><img src=""images/choice_trial_14.png"" style=""width: 408px; height: 417px; margin-left:608px;""></div></div>",,delaylearn,learning,display_response,rQ9DiOUUhRYGcjkGOTzgqnYzqoQ2,rQ9DiOUUhRYGcjkGOTzgqnYzqoQ2,,,,,,,,,,,,,,,,,chosen stimuli: images/choice_trial_14.png,,,,,5cdef3d318f742000174cc23,16:33:06,27/03/2024
html-keyboard-response,223,471100,0.0-92.0-2.0,,,,delaylearn,learning,feedback_duration_window,rQ9DiOUUhRYGcjkGOTzgqnYzqoQ2,rQ9DiOUUhRYGcjkGOTzgqnYzqoQ2,,,,,,,,,,,,,,,,,,7000.0,,,,5cdef3d318f742000174cc23,16:33:06,27/03/2024
html-keyboard-response,224,472617,0.0-92.0-3.0,,<div style='margin:auto;width: auto; font-size: 150%'><span style='font-weight: bold; font-size: 100px; color: green;'>+10 points!</span><br><br></div>,,delaylearn,learning,feedback_image_window,rQ9DiOUUhRYGcjkGOTzgqnYzqoQ2,rQ9DiOUUhRYGcjkGOTzgqnYzqoQ2,,,,,,,,,,,,,,,,,,,,,,5cdef3d318f742000174cc23,16:33:06,27/03/2024
html-keyboard-response,225,474925,0.0-93.0,,"<div style=""font-size:100px;"">+</div>",,delaylearn,learning,ITI,rQ9DiOUUhRYGcjkGOTzgqnYzqoQ2,rQ9DiOUUhRYGcjkGOTzgqnYzqoQ2,,,,,,,,,,,,,,,,,,,2293.0,,,5cdef3d318f742000174cc23,16:33:06,27/03/2024
html-keyboard-response,226,475338,0.0-94.0-0.0,407.0,"<div style=""display: flex; flex-direction: column; align-items: center; margin-top: -40px;""><img src=""images/pattern_7.png"" style=""width: 234px; height: 230px; margin-top: -50px;""><div style=""display: flex; justify-content: space-between; margin-top: 33px;""><img src=""images/choice_trial_15.png"" style=""width: 408px; height: 417px; margin-right: 200px;""><img src=""images/choice_trial_8.png"" style=""width: 408px; height: 417px;""></div></div>",j,delaylearn,learning,trial,rQ9DiOUUhRYGcjkGOTzgqnYzqoQ2,rQ9DiOUUhRYGcjkGOTzgqnYzqoQ2,2.0,images/choice_trial_15.png,images/choice_trial_8.png,images/pattern_7.png,j,j,750.0,15.0,8.0,6.0,1.0,41.0,1.0,1.0,8.0,190.0,,,,,,5cdef3d318f742000174cc23,16:33:06,27/03/2024
html-keyboard-response,227,476340,0.0-94.0-1.0,,"<div style=""display: flex; flex-direction: column; align-items: center; margin-top: -40px;""><img src=""images/pattern_7.png"" style=""width: 234px; height: 230px; margin-top: -50px;""><div style=""display: flex; justify-content: space-between; margin-top: 33px;""><img src=""images/choice_trial_8.png"" style=""width: 408px; height: 417px; margin-left:608px;""></div></div>",,delaylearn,learning,display_response,rQ9DiOUUhRYGcjkGOTzgqnYzqoQ2,rQ9DiOUUhRYGcjkGOTzgqnYzqoQ2,,,,,,,,,,,,,,,,,chosen stimuli: images/choice_trial_8.png,,,,,5cdef3d318f742000174cc23,16:33:06,27/03/2024
html-keyboard-response,228,477103,0.0-94.0-2.0,,,,delaylearn,learning,feedback_duration_window,rQ9DiOUUhRYGcjkGOTzgqnYzqoQ2,rQ9DiOUUhRYGcjkGOTzgqnYzqoQ2,,,,,,,,,,,,,,,,,,750.0,,,,5cdef3d318f742000174cc23,16:33:06,27/03/2024
html-keyboard-response,229,478607,0.0-94.0-3.0,,<div style='margin:auto;width: auto; font-size: 150%'><span style='font-weight: bold; font-size: 100px; color: green;'>+10 points!</span><br><br></div>,,delaylearn,learning,feedback_image_window,rQ9DiOUUhRYGcjkGOTzgqnYzqoQ2,rQ9DiOUUhRYGcjkGOTzgqnYzqoQ2,,,,,,,,,,,,,,,,,,,,,,5cdef3d318f742000174cc23,16:33:06,27/03/2024
html-keyboard-response,230,480350,0.0-95.0,,"<div style=""font-size:100px;"">+</div>",,delaylearn,learning,ITI,rQ9DiOUUhRYGcjkGOTzgqnYzqoQ2,rQ9DiOUUhRYGcjkGOTzgqnYzqoQ2,,,,,,,,,,,,,,,,,,,1730.0,,,5cdef3d318f742000174cc23,16:33:06,27/03/2024
