trial_type,trial_index,time_elapsed,internal_node_id,rt,stimulus,response,exp_name,exp_stage,test_part,subjectID,databaseID,counterbal,choice_stimuli_1,choice_stimuli_2,pattern_stimuli,rewarded_answer,correct_answer,feedback_duration_times,stim_left,stim_right,pair,leftright_counter,trial,response_correct,response_rewarded,chosen_stim,counter,displayed_choice,feedback_durations,ITI_duration,labels,rest_warning,prolificID,start_time,date
pavlovia,0,519,0.0-0.0,,,,,,,OOiMxdf9dRUrVxQFfRCSBfGsATr1,,,,,,,,,,,,,,,,,,,,,,,6096eca15340fc49ef3f1ab3,16:56:22,27/03/2024
html-keyboard-response,1,3521,0.0-1.0,,"<div style=""font-size:100px;"">+</div>",,delaylearn,learning,pre_fixation,OOiMxdf9dRUrVxQFfRCSBfGsATr1,,,,,,,,,,,,,,,,,,,,,,,6096eca15340fc49ef3f1ab3,16:56:22,27/03/2024
html-keyboard-response,2,4427,0.0-2.0-0.0,903.0,"<div style=""display: flex; flex-direction: column; align-items: center; margin-top: -40px;""><img src=""images/demo_images/pattern_1.png"" style=""width: 234px; height: 230px; margin-top: -50px;""><div style=""display: flex; justify-content: space-between; margin-top: 33px;""><img src=""images/demo_images/choice_trial_2.png"" style=""width: 408px; height: 417px; margin-right: 200px;""><img src=""images/demo_images/choice_trial_1.png"" style=""width: 408px; height: 417px;""></div></div>",f,delaylearn,learning,trial,OOiMxdf9dRUrVxQFfRCSBfGsATr1,OOiMxdf9dRUrVxQFfRCSBfGsATr1,2.0,images/demo_images/choice_trial_2.png,images/demo_images/choice_trial_1.png,images/demo_images/pattern_1.png,j,j,3000.0,2.0,1.0,20.0,1.0,1.0,0.0,0.0,2.0,0.0,,,,,,6096eca15340fc49ef3f1ab3,16:56:22,27/03/2024
html-keyboard-response,3,5428,0.0-2.0-1.0,,"<div style=""display: flex; flex-direction: column; align-items: center; margin-top: -40px;""><img src=""images/demo_images/pattern_1.png"" style=""width: 234px; height: 230px; margin-top: -50px;""><div style=""display: flex; justify-content: space-between; margin-top: 33px;""><img src=""images/demo_images/choice_trial_2.png"" style=""width: 408px; height: 417px; margin-right: 608px;""></div></div>",,delaylearn,learning,display_response,OOiMxdf9dRUrVxQFfRCSBfGsATr1,OOiMxdf9dRUrVxQFfRCSBfGsATr1,,,,,,,,,,,,,,,,,chosen stimuli: images/demo_images/choice_trial_2.png,,,,,6096eca15340fc49ef3f1ab3,16:56:22,27/03/2024
html-keyboard-response,4,8430,0.0-2.0-2.0,,,,delaylearn,learning,feedback_duration_window,OOiMxdf9dRUrVxQFfRCSBfGsATr1,OOiMxdf9dRUrVxQFfRCSBfGsATr1,,,,,,,,,,,,,,,,,,3000.0,,,,6096eca15340fc49ef3f1ab3,16:56:22,27/03/2024
html-keyboard-response,5,9932,0.0-2.0-3.0,,<div style='margin:auto;width: auto; font-size: 150%'><span style='font-weight: bold; font-size: 100px; color: red;'>0 points!</span><br><br></div>,,delaylearn,learning,feedback_image_window,OOiMxdf9dRUrVxQFfRCSBfGsATr1,OOiMxdf9dRUrVxQFfRCSBfGsATr1,,,,,,,,,,,,,,,,,,,,,,6096eca15340fc49ef3f1ab3,16:56:22,27/03/2024
html-keyboard-response,6,11495,0.0-3.0,,"<div style=""font-size:100px;"">+</div>",,delaylearn,learning,ITI,OOiMxdf9dRUrVxQFfRCSBfGsATr1,OOiMxdf9dRUrVxQFfRCSBfGsATr1,,,,,,,,,,,,,,,,,,,1561.0,,,6096eca15340fc49ef3f1ab3,16:56:22,27/03/2024
html-keyboard-response,7,12594,0.0-4.0-0.0,1096.0,"<div style=""display: flex; flex-direction: column; align-items: center; margin-top: -40px;""><img src=""images/demo_images/pattern_1.png"" style=""width: 234px; height: 230px; margin-top: -50px;""><div style=""display: flex; justify-content: space-between; margin-top: 33px;""><img src=""images/demo_images/choice_trial_2.png"" style=""width: 408px; height: 417px; margin-right: 200px;""><img src=""images/demo_images/choice_trial_1.png"" style=""width: 408px; height: 417px;""></div></div>",j,delaylearn,learning,trial,OOiMxdf9dRUrVxQFfRCSBfGsATr1,OOiMxdf9dRUrVxQFfRCSBfGsATr1,2.0,images/demo_images/choice_trial_2.png,images/demo_images/choice_trial_1.png,images/demo_images/pattern_1.png,j,j,3000.0,2.0,1.0,20.0,1.0,2.0,1.0,1.0,1.0,10.0,,,,,,6096eca15340fc49ef3f1ab3,16:56:22,27/03/2024
html-keyboard-response,8,13597,0.0-4.0-1.0,,"<div style=""display: flex; flex-direction: column; align-items: center; margin-top: -40px;""><img src=""images/demo_images/pattern_1.png"" style=""width: 234px; height: 230px; margin-top: -50px;""><div style=""display: flex; justify-content: space-between; margin-top: 33px;""><img src=""images/demo_images/choice_trial_1.png"" style=""width: 408px; height: 417px; margin-left:608px;""></div></div>",,delaylearn,learning,display_response,OOiMxdf9dRUrVxQFfRCSBfGsATr1,OOiMxdf9dRUrVxQFfRCSBfGsATr1,,,,,,,,,,,,,,,,,chosen stimuli: images/demo_images/choice_trial_1.png,,,,,6096eca15340fc49ef3f1ab3,16:56:22,27/03/2024
html-keyboard-response,9,16598,0.0-4.0-2.0,,,,delaylearn,learning,feedback_duration_window,OOiMxdf9dRUrVxQFfRCSBfGsATr1,OOiMxdf9dRUrVxQFfRCSBfGsATr1,,,,,,,,,,,,,,,,,,3000.0,,,,6096eca15340fc49ef3f1ab3,16:56:22,27/03/2024
html-keyboard-response,10,18100,0.0-4.0-3.0,,<div style='margin:auto;width: auto; font-size: 150%'><span style='font-weight: bold; font-size: 100px; color: green;'>+10 points!</span><br><br></div>,,delaylearn,learning,feedback_image_window,OOiMxdf9dRUrVxQFfRCSBfGsATr1,OOiMxdf9dRUrVxQFfRCSBfGsATr1,,,,,,,,,,,,,,,,,,,,,,6096eca15340fc49ef3f1ab3,16:56:22,27/03/2024
html-keyboard-response,11,19845,0.0-5.0,,"<div style=""font-size:100px;"">+</div>",,delaylearn,learning,ITI,OOiMxdf9dRUrVxQFfRCSBfGsATr1,OOiMxdf9dRUrVxQFfRCSBfGsATr1,,,,,,,,,,,,,,,,,,,1743.0,,,6096eca15340fc49ef3f1ab3,16:56:22,27/03/2024
html-keyboard-response,12,20843,0.0-6.0-0.0,997.0,"<div style=""display: flex; flex-direction: column; align-items: center; margin-top: -40px;""><img src=""images/demo_images/pattern_1.png"" style=""width: 234px; height: 230px; margin-top: -50px;""><div style=""display: flex; justify-content: space-between; margin-top: 33px;""><img src=""images/demo_images/choice_trial_1.png"" style=""width: 408px; height: 417px; margin-right: 200px;""><img src=""images/demo_images/choice_trial_2.png"" style=""width: 408px; height: 417px;""></div></div>",f,delaylearn,learning,trial,OOiMxdf9dRUrVxQFfRCSBfGsATr1,OOiMxdf9dRUrVxQFfRCSBfGsATr1,2.0,images/demo_images/choice_trial_1.png,images/demo_images/choice_trial_2.png,images/demo_images/pattern_1.png,j,f,3000.0,1.0,2.0,20.0,0.0,3.0,1.0,0.0,1.0,10.0,,,,,,6096eca15340fc49ef3f1ab3,16:56:22,27/03/2024
html-keyboard-response,13,21860,0.0-6.0-1.0,,"<div style=""display: flex; flex-direction: column; align-items: center; margin-top: -40px;""><img src=""images/demo_images/pattern_1.png"" style=""width: 234px; height: 230px; margin-top: -50px;""><div style=""display: flex; justify-content: space-between; margin-top: 33px;""><img src=""images/demo_images/choice_trial_1.png"" style=""width: 408px; height: 417px; margin-right: 608px;""></div></div>",,delaylearn,learning,display_response,OOiMxdf9dRUrVxQFfRCSBfGsATr1,OOiMxdf9dRUrVxQFfRCSBfGsATr1,,,,,,,,,,,,,,,,,chosen stimuli: images/demo_images/choice_trial_1.png,,,,,6096eca15340fc49ef3f1ab3,16:56:22,27/03/2024
html-keyboard-response,14,24862,0.0-6.0-2.0,,,,delaylearn,learning,feedback_duration_window,OOiMxdf9dRUrVxQFfRCSBfGsATr1,OOiMxdf9dRUrVxQFfRCSBfGsATr1,,,,,,,,,,,,,,,,,,3000.0,,,,6096eca15340fc49ef3f1ab3,16:56:22,27/03/2024
html-keyboard-response,15,26364,0.0-6.0-3.0,,<div style='margin:auto;width: auto; font-size: 150%'><span style='font-weight: bold; font-size: 100px; color: red;'>0 points!</span><br><br></div>,,delaylearn,learning,feedback_image_window,OOiMxdf9dRUrVxQFfRCSBfGsATr1,OOiMxdf9dRUrVxQFfRCSBfGsATr1,,,,,,,,,,,,,,,,,,,,,,6096eca15340fc49ef3f1ab3,16:56:22,27/03/2024
html-keyboard-response,16,28492,0.0-7.0,,"<div style=""font-size:100px;"">+</div>",,delaylearn,learning,ITI,OOiMxdf9dRUrVxQFfRCSBfGsATr1,OOiMxdf9dRUrVxQFfRCSBfGsATr1,,,,,,,,,,,,,,,,,,,2127.0,,,6096eca15340fc49ef3f1ab3,16:56:22,27/03/2024
html-keyboard-response,17,29667,0.0-8.0-0.0,1172.0,"<div style=""display: flex; flex-direction: column; align-items: center; margin-top: -40px;""><img src=""images/demo_images/pattern_1.png"" style=""width: 234px; height: 230px; margin-top: -50px;""><div style=""display: flex; justify-content: space-between; margin-top: 33px;""><img src=""images/demo_images/choice_trial_1.png"" style=""width: 408px; height: 417px; margin-right: 200px;""><img src=""images/demo_images/choice_trial_2.png"" style=""width: 408px; height: 417px;""></div></div>",f,delaylearn,learning,trial,OOiMxdf9dRUrVxQFfRCSBfGsATr1,OOiMxdf9dRUrVxQFfRCSBfGsATr1,2.0,images/demo_images/choice_trial_1.png,images/demo_images/choice_trial_2.png,images/demo_images/pattern_1.png,f,f,3000.0,1.0,2.0,20.0,0.0,4.0,1.0,1.0,1.0,20.0,,,,,,6096eca15340fc49ef3f1ab3,16:56:22,27/03/2024
html-keyboard-response,18,30669,0.0-8.0-1.0,,"<div style=""display: flex; flex-direction: column; align-items: center; margin-top: -40px;""><img src=""images/demo_images/pattern_1.png"" style=""width: 234px; height: 230px; margin-top: -50px;""><div style=""display: flex; justify-content: space-between; margin-top: 33px;""><img src=""images/demo_images/choice_trial_1.png"" style=""width: 408px; height: 417px; margin-right: 608px;""></div></div>",,delaylearn,learning,display_response,OOiMxdf9dRUrVxQFfRCSBfGsATr1,OOiMxdf9dRUrVxQFfRCSBfGsATr1,,,,,,,,,,,,,,,,,chosen stimuli: images/demo_images/choice_trial_1.png,,,,,6096eca15340fc49ef3f1ab3,16:56:22,27/03/2024
html-keyboard-response,19,33671,0.0-8.0-2.0,,,,delaylearn,learning,feedback_duration_window,OOiMxdf9dRUrVxQFfRCSBfGsATr1,OOiMxdf9dRUrVxQFfRCSBfGsATr1,,,,,,,,,,,,,,,,,,3000.0,,,,6096eca15340fc49ef3f1ab3,16:56:22,27/03/2024
html-keyboard-response,20,35173,0.0-8.0-3.0,,<div style='margin:auto;width: auto; font-size: 150%'><span style='font-weight: bold; font-size: 100px; color: green;'>+10 points!</span><br><br></div>,,delaylearn,learning,feedback_image_window,OOiMxdf9dRUrVxQFfRCSBfGsATr1,OOiMxdf9dRUrVxQFfRCSBfGsATr1,,,,,,,,,,,,,,,,,,,,,,6096eca15340fc49ef3f1ab3,16:56:22,27/03/2024
html-keyboard-response,21,35675,0.0-9.0-0.0,,,,,,mood_trial_fixation,OOiMxdf9dRUrVxQFfRCSBfGsATr1,,,,,,,,,,,,,,,,,,,,,,,6096eca15340fc49ef3f1ab3,16:56:22,27/03/2024
lmdlab-html-vas-response,22,40034,0.0-9.0-1.0,3352.0,How happy are you right now?,0.4926215277777778,delaylearn,learning,mood_trial,OOiMxdf9dRUrVxQFfRCSBfGsATr1,OOiMxdf9dRUrVxQFfRCSBfGsATr1,,,,,,,,,,,,,,,,,,,,"['Very unhappy', 'Very happy']",,6096eca15340fc49ef3f1ab3,16:56:22,27/03/2024
html-keyboard-response,23,42343,0.0-10.0,,"<div style=""font-size:100px;"">+</div>",,delaylearn,learning,ITI,OOiMxdf9dRUrVxQFfRCSBfGsATr1,OOiMxdf9dRUrVxQFfRCSBfGsATr1,,,,,,,,,,,,,,,,,,,2308.0,,,6096eca15340fc49ef3f1ab3,16:56:22,27/03/2024
html-keyboard-response,24,43486,0.0-11.0-0.0,1141.0,"<div style=""display: flex; flex-direction: column; align-items: center; margin-top: -40px;""><img src=""images/demo_images/pattern_1.png"" style=""width: 234px; height: 230px; margin-top: -50px;""><div style=""display: flex; justify-content: space-between; margin-top: 33px;""><img src=""images/demo_images/choice_trial_2.png"" style=""width: 408px; height: 417px; margin-right: 200px;""><img src=""images/demo_images/choice_trial_1.png"" style=""width: 408px; height: 417px;""></div></div>",j,delaylearn,learning,trial,OOiMxdf9dRUrVxQFfRCSBfGsATr1,OOiMxdf9dRUrVxQFfRCSBfGsATr1,2.0,images/demo_images/choice_trial_2.png,images/demo_images/choice_trial_1.png,images/demo_images/pattern_1.png,j,j,3000.0,2.0,1.0,20.0,1.0,5.0,1.0,1.0,1.0,30.0,,,,,,6096eca15340fc49ef3f1ab3,16:56:22,27/03/2024
html-keyboard-response,25,44487,0.0-11.0-1.0,,"<div style=""display: flex; flex-direction: column; align-items: center; margin-top: -40px;""><img src=""images/demo_images/pattern_1.png"" style=""width: 234px; height: 230px; margin-top: -50px;""><div style=""display: flex; justify-content: space-between; margin-top: 33px;""><img src=""images/demo_images/choice_trial_1.png"" style=""width: 408px; height: 417px; margin-left:608px;""></div></div>",,delaylearn,learning,display_response,OOiMxdf9dRUrVxQFfRCSBfGsATr1,OOiMxdf9dRUrVxQFfRCSBfGsATr1,,,,,,,,,,,,,,,,,chosen stimuli: images/demo_images/choice_trial_1.png,,,,,6096eca15340fc49ef3f1ab3,16:56:22,27/03/2024
html-keyboard-response,26,47489,0.0-11.0-2.0,,,,delaylearn,learning,feedback_duration_window,OOiMxdf9dRUrVxQFfRCSBfGsATr1,OOiMxdf9dRUrVxQFfRCSBfGsATr1,,,,,,,,,,,,,,,,,,3000.0,,,,6096eca15340fc49ef3f1ab3,16:56:22,27/03/2024
html-keyboard-response,27,48991,0.0-11.0-3.0,,<div style='margin:auto;width: auto; font-size: 150%'><span style='font-weight: bold; font-size: 100px; color: green;'>+10 points!</span><br><br></div>,,delaylearn,learning,feedback_image_window,OOiMxdf9dRUrVxQFfRCSBfGsATr1,OOiMxdf9dRUrVxQFfRCSBfGsATr1,,,,,,,,,,,,,,,,,,,,,,6096eca15340fc49ef3f1ab3,16:56:22,27/03/2024
html-keyboard-response,28,51182,0.0-12.0,,"<div style=""font-size:100px;"">+</div>",,delaylearn,learning,ITI,OOiMxdf9dRUrVxQFfRCSBfGsATr1,OOiMxdf9dRUrVxQFfRCSBfGsATr1,,,,,,,,,,,,,,,,,,,2189.0,,,6096eca15340fc49ef3f1ab3,16:56:22,27/03/2024
html-keyboard-response,29,51781,0.0-13.0-0.0,596.0,"<div style=""display: flex; flex-direction: column; align-items: center; margin-top: -40px;""><img src=""images/demo_images/pattern_1.png"" style=""width: 234px; height: 230px; margin-top: -50px;""><div style=""display: flex; justify-content: space-between; margin-top: 33px;""><img src=""images/demo_images/choice_trial_1.png"" style=""width: 408px; height: 417px; margin-right: 200px;""><img src=""images/demo_images/choice_trial_2.png"" style=""width: 408px; height: 417px;""></div></div>",f,delaylearn,learning,trial,OOiMxdf9dRUrVxQFfRCSBfGsATr1,OOiMxdf9dRUrVxQFfRCSBfGsATr1,2.0,images/demo_images/choice_trial_1.png,images/demo_images/choice_trial_2.png,images/demo_images/pattern_1.png,f,f,3000.0,1.0,2.0,20.0,0.0,6.0,1.0,1.0,1.0,40.0,,,,,,6096eca15340fc49ef3f1ab3,16:56:22,27/03/2024
html-keyboard-response,30,52782,0.0-13.0-1.0,,"<div style=""display: flex; flex-direction: column; align-items: center; margin-top: -40px;""><img src=""images/demo_images/pattern_1.png"" style=""width: 234px; height: 230px; margin-top: -50px;""><div style=""display: flex; justify-content: space-between; margin-top: 33px;""><img src=""images/demo_images/choice_trial_1.png"" style=""width: 408px; height: 417px; margin-right: 608px;""></div></div>",,delaylearn,learning,display_response,OOiMxdf9dRUrVxQFfRCSBfGsATr1,OOiMxdf9dRUrVxQFfRCSBfGsATr1,,,,,,,,,,,,,,,,,chosen stimuli: images/demo_images/choice_trial_1.png,,,,,6096eca15340fc49ef3f1ab3,16:56:22,27/03/2024
html-keyboard-response,31,55784,0.0-13.0-2.0,,,,delaylearn,learning,feedback_duration_window,OOiMxdf9dRUrVxQFfRCSBfGsATr1,OOiMxdf9dRUrVxQFfRCSBfGsATr1,,,,,,,,,,,,,,,,,,3000.0,,,,6096eca15340fc49ef3f1ab3,16:56:22,27/03/2024
html-keyboard-response,32,57285,0.0-13.0-3.0,,<div style='margin:auto;width: auto; font-size: 150%'><span style='font-weight: bold; font-size: 100px; color: green;'>+10 points!</span><br><br></div>,,delaylearn,learning,feedback_image_window,OOiMxdf9dRUrVxQFfRCSBfGsATr1,OOiMxdf9dRUrVxQFfRCSBfGsATr1,,,,,,,,,,,,,,,,,,,,,,6096eca15340fc49ef3f1ab3,16:56:22,27/03/2024
html-keyboard-response,33,59717,0.0-14.0,,"<div style=""font-size:100px;"">+</div>",,delaylearn,learning,ITI,OOiMxdf9dRUrVxQFfRCSBfGsATr1,OOiMxdf9dRUrVxQFfRCSBfGsATr1,,,,,,,,,,,,,,,,,,,2430.0,,,6096eca15340fc49ef3f1ab3,16:56:22,27/03/2024
html-keyboard-response,34,60505,0.0-15.0-0.0,786.0,"<div style=""display: flex; flex-direction: column; align-items: center; margin-top: -40px;""><img src=""images/demo_images/pattern_1.png"" style=""width: 234px; height: 230px; margin-top: -50px;""><div style=""display: flex; justify-content: space-between; margin-top: 33px;""><img src=""images/demo_images/choice_trial_2.png"" style=""width: 408px; height: 417px; margin-right: 200px;""><img src=""images/demo_images/choice_trial_1.png"" style=""width: 408px; height: 417px;""></div></div>",j,delaylearn,learning,trial,OOiMxdf9dRUrVxQFfRCSBfGsATr1,OOiMxdf9dRUrVxQFfRCSBfGsATr1,2.0,images/demo_images/choice_trial_2.png,images/demo_images/choice_trial_1.png,images/demo_images/pattern_1.png,j,j,3000.0,2.0,1.0,20.0,1.0,7.0,1.0,1.0,1.0,50.0,,,,,,6096eca15340fc49ef3f1ab3,16:56:22,27/03/2024
html-keyboard-response,35,61507,0.0-15.0-1.0,,"<div style=""display: flex; flex-direction: column; align-items: center; margin-top: -40px;""><img src=""images/demo_images/pattern_1.png"" style=""width: 234px; height: 230px; margin-top: -50px;""><div style=""display: flex; justify-content: space-between; margin-top: 33px;""><img src=""images/demo_images/choice_trial_1.png"" style=""width: 408px; height: 417px; margin-left:608px;""></div></div>",,delaylearn,learning,display_response,OOiMxdf9dRUrVxQFfRCSBfGsATr1,OOiMxdf9dRUrVxQFfRCSBfGsATr1,,,,,,,,,,,,,,,,,chosen stimuli: images/demo_images/choice_trial_1.png,,,,,6096eca15340fc49ef3f1ab3,16:56:22,27/03/2024
html-keyboard-response,36,64509,0.0-15.0-2.0,,,,delaylearn,learning,feedback_duration_window,OOiMxdf9dRUrVxQFfRCSBfGsATr1,OOiMxdf9dRUrVxQFfRCSBfGsATr1,,,,,,,,,,,,,,,,,,3000.0,,,,6096eca15340fc49ef3f1ab3,16:56:22,27/03/2024
html-keyboard-response,37,66011,0.0-15.0-3.0,,<div style='margin:auto;width: auto; font-size: 150%'><span style='font-weight: bold; font-size: 100px; color: green;'>+10 points!</span><br><br></div>,,delaylearn,learning,feedback_image_window,OOiMxdf9dRUrVxQFfRCSBfGsATr1,OOiMxdf9dRUrVxQFfRCSBfGsATr1,,,,,,,,,,,,,,,,,,,,,,6096eca15340fc49ef3f1ab3,16:56:22,27/03/2024
html-keyboard-response,38,67805,0.0-16.0,,"<div style=""font-size:100px;"">+</div>",,delaylearn,learning,ITI,OOiMxdf9dRUrVxQFfRCSBfGsATr1,OOiMxdf9dRUrVxQFfRCSBfGsATr1,,,,,,,,,,,,,,,,,,,1793.0,,,6096eca15340fc49ef3f1ab3,16:56:22,27/03/2024
html-keyboard-response,39,68669,0.0-17.0-0.0,862.0,"<div style=""display: flex; flex-direction: column; align-items: center; margin-top: -40px;""><img src=""images/demo_images/pattern_1.png"" style=""width: 234px; height: 230px; margin-top: -50px;""><div style=""display: flex; justify-content: space-between; margin-top: 33px;""><img src=""images/demo_images/choice_trial_1.png"" style=""width: 408px; height: 417px; margin-right: 200px;""><img src=""images/demo_images/choice_trial_2.png"" style=""width: 408px; height: 417px;""></div></div>",f,delaylearn,learning,trial,OOiMxdf9dRUrVxQFfRCSBfGsATr1,OOiMxdf9dRUrVxQFfRCSBfGsATr1,2.0,images/demo_images/choice_trial_1.png,images/demo_images/choice_trial_2.png,images/demo_images/pattern_1.png,f,f,3000.0,1.0,2.0,20.0,0.0,8.0,1.0,1.0,1.0,60.0,,,,,,6096eca15340fc49ef3f1ab3,16:56:22,27/03/2024
html-keyboard-response,40,69670,0.0-17.0-1.0,,"<div style=""display: flex; flex-direction: column; align-items: center; margin-top: -40px;""><img src=""images/demo_images/pattern_1.png"" style=""width: 234px; height: 230px; margin-top: -50px;""><div style=""display: flex; justify-content: space-between; margin-top: 33px;""><img src=""images/demo_images/choice_trial_1.png"" style=""width: 408px; height: 417px; margin-right: 608px;""></div></div>",,delaylearn,learning,display_response,OOiMxdf9dRUrVxQFfRCSBfGsATr1,OOiMxdf9dRUrVxQFfRCSBfGsATr1,,,,,,,,,,,,,,,,,chosen stimuli: images/demo_images/choice_trial_1.png,,,,,6096eca15340fc49ef3f1ab3,16:56:22,27/03/2024
html-keyboard-response,41,72672,0.0-17.0-2.0,,,,delaylearn,learning,feedback_duration_window,OOiMxdf9dRUrVxQFfRCSBfGsATr1,OOiMxdf9dRUrVxQFfRCSBfGsATr1,,,,,,,,,,,,,,,,,,3000.0,,,,6096eca15340fc49ef3f1ab3,16:56:22,27/03/2024
html-keyboard-response,42,74174,0.0-17.0-3.0,,<div style='margin:auto;width: auto; font-size: 150%'><span style='font-weight: bold; font-size: 100px; color: green;'>+10 points!</span><br><br></div>,,delaylearn,learning,feedback_image_window,OOiMxdf9dRUrVxQFfRCSBfGsATr1,OOiMxdf9dRUrVxQFfRCSBfGsATr1,,,,,,,,,,,,,,,,,,,,,,6096eca15340fc49ef3f1ab3,16:56:22,27/03/2024
html-button-response,43,76534,0.0-18.0,2359.0,"
  <div style=""display: flex; align-items: center; justify-content: center; height: 80vh;"">
  <div>
          <img src=""images/inst_demo_finish.png"" style=""width: 80vw; height:auto;"">
          <br><br>
      </div>
      <br><br>
  </div>",0,,,,OOiMxdf9dRUrVxQFfRCSBfGsATr1,,,,,,,,,,,,,,,,,,,,,,,6096eca15340fc49ef3f1ab3,16:56:22,27/03/2024
html-keyboard-response,44,80600,0.0-19.0,4065.0,"
  <div style=""display: flex; align-items: center; justify-content: center; height: 80vh;"">
  <div>
          <img src=""images/inst_6.png"" style=""width: 80vw; height:auto;"">
          <br><br>
      </div>
      <br><br>
  </div>",j,,,,OOiMxdf9dRUrVxQFfRCSBfGsATr1,,,,,,,,,,,,,,,,,,,,,,,6096eca15340fc49ef3f1ab3,16:56:22,27/03/2024
html-keyboard-response,45,83601,0.0-20.0,,"<div style=""font-size:100px;"">+</div>",,delaylearn,learning,pre_fixation,OOiMxdf9dRUrVxQFfRCSBfGsATr1,,,,,,,,,,,,,,,,,,,,,,,6096eca15340fc49ef3f1ab3,16:56:22,27/03/2024
html-keyboard-response,46,85594,0.0-21.0,,"<div style=""font-size:100px;"">+</div>",,delaylearn,learning,ITI,OOiMxdf9dRUrVxQFfRCSBfGsATr1,OOiMxdf9dRUrVxQFfRCSBfGsATr1,,,,,,,,,,,,,,,,,,,1991.0,,,6096eca15340fc49ef3f1ab3,16:56:22,27/03/2024
html-keyboard-response,47,86924,0.0-22.0-0.0,1327.0,"<div style=""display: flex; flex-direction: column; align-items: center; margin-top: -40px;""><img src=""images/pattern_3.png"" style=""width: 234px; height: 230px; margin-top: -50px;""><div style=""display: flex; justify-content: space-between; margin-top: 33px;""><img src=""images/choice_trial_12.png"" style=""width: 408px; height: 417px; margin-right: 200px;""><img src=""images/choice_trial_14.png"" style=""width: 408px; height: 417px;""></div></div>",j,delaylearn,learning,trial,OOiMxdf9dRUrVxQFfRCSBfGsATr1,OOiMxdf9dRUrVxQFfRCSBfGsATr1,2.0,images/choice_trial_12.png,images/choice_trial_14.png,images/pattern_3.png,f,f,7000.0,12.0,14.0,2.0,0.0,9.0,0.0,0.0,14.0,60.0,,,,,,6096eca15340fc49ef3f1ab3,16:56:22,27/03/2024
html-keyboard-response,48,87926,0.0-22.0-1.0,,"<div style=""display: flex; flex-direction: column; align-items: center; margin-top: -40px;""><img src=""images/pattern_3.png"" style=""width: 234px; height: 230px; margin-top: -50px;""><div style=""display: flex; justify-content: space-between; margin-top: 33px;""><img src=""images/choice_trial_14.png"" style=""width: 408px; height: 417px; margin-left:608px;""></div></div>",,delaylearn,learning,display_response,OOiMxdf9dRUrVxQFfRCSBfGsATr1,OOiMxdf9dRUrVxQFfRCSBfGsATr1,,,,,,,,,,,,,,,,,chosen stimuli: images/choice_trial_14.png,,,,,6096eca15340fc49ef3f1ab3,16:56:22,27/03/2024
html-keyboard-response,49,94928,0.0-22.0-2.0,,,,delaylearn,learning,feedback_duration_window,OOiMxdf9dRUrVxQFfRCSBfGsATr1,OOiMxdf9dRUrVxQFfRCSBfGsATr1,,,,,,,,,,,,,,,,,,7000.0,,,,6096eca15340fc49ef3f1ab3,16:56:22,27/03/2024
html-keyboard-response,50,96430,0.0-22.0-3.0,,<div style='margin:auto;width: auto; font-size: 150%'><span style='font-weight: bold; font-size: 100px; color: red;'>0 points!</span><br><br></div>,,delaylearn,learning,feedback_image_window,OOiMxdf9dRUrVxQFfRCSBfGsATr1,OOiMxdf9dRUrVxQFfRCSBfGsATr1,,,,,,,,,,,,,,,,,,,,,,6096eca15340fc49ef3f1ab3,16:56:22,27/03/2024
html-keyboard-response,51,98134,0.0-23.0,,"<div style=""font-size:100px;"">+</div>",,delaylearn,learning,ITI,OOiMxdf9dRUrVxQFfRCSBfGsATr1,OOiMxdf9dRUrVxQFfRCSBfGsATr1,,,,,,,,,,,,,,,,,,,1702.0,,,6096eca15340fc49ef3f1ab3,16:56:22,27/03/2024
html-keyboard-response,52,99696,0.0-24.0-0.0,1561.0,"<div style=""display: flex; flex-direction: column; align-items: center; margin-top: -40px;""><img src=""images/pattern_7.png"" style=""width: 234px; height: 230px; margin-top: -50px;""><div style=""display: flex; justify-content: space-between; margin-top: 33px;""><img src=""images/choice_trial_15.png"" style=""width: 408px; height: 417px; margin-right: 200px;""><img src=""images/choice_trial_8.png"" style=""width: 408px; height: 417px;""></div></div>",f,delaylearn,learning,trial,OOiMxdf9dRUrVxQFfRCSBfGsATr1,OOiMxdf9dRUrVxQFfRCSBfGsATr1,2.0,images/choice_trial_15.png,images/choice_trial_8.png,images/pattern_7.png,j,j,750.0,15.0,8.0,6.0,1.0,10.0,0.0,0.0,15.0,60.0,,,,,,6096eca15340fc49ef3f1ab3,16:56:22,27/03/2024
html-keyboard-response,53,100697,0.0-24.0-1.0,,"<div style=""display: flex; flex-direction: column; align-items: center; margin-top: -40px;""><img src=""images/pattern_7.png"" style=""width: 234px; height: 230px; margin-top: -50px;""><div style=""display: flex; justify-content: space-between; margin-top: 33px;""><img src=""images/choice_trial_15.png"" style=""width: 408px; height: 417px; margin-right: 608px;""></div></div>",,delaylearn,learning,display_response,OOiMxdf9dRUrVxQFfRCSBfGsATr1,OOiMxdf9dRUrVxQFfRCSBfGsATr1,,,,,,,,,,,,,,,,,chosen stimuli: images/choice_trial_15.png,,,,,6096eca15340fc49ef3f1ab3,16:56:22,27/03/2024
html-keyboard-response,54,101449,0.0-24.0-2.0,,,,delaylearn,learning,feedback_duration_window,OOiMxdf9dRUrVxQFfRCSBfGsATr1,OOiMxdf9dRUrVxQFfRCSBfGsATr1,,,,,,,,,,,,,,,,,,750.0,,,,6096eca15340fc49ef3f1ab3,16:56:22,27/03/2024
html-keyboard-response,55,102951,0.0-24.0-3.0,,<div style='margin:auto;width: auto; font-size: 150%'><span style='font-weight: bold; font-size: 100px; color: red;'>0 points!</span><br><br></div>,,delaylearn,learning,feedback_image_window,OOiMxdf9dRUrVxQFfRCSBfGsATr1,OOiMxdf9dRUrVxQFfRCSBfGsATr1,,,,,,,,,,,,,,,,,,,,,,6096eca15340fc49ef3f1ab3,16:56:22,27/03/2024
html-keyboard-response,56,105120,0.0-25.0,,"<div style=""font-size:100px;"">+</div>",,delaylearn,learning,ITI,OOiMxdf9dRUrVxQFfRCSBfGsATr1,OOiMxdf9dRUrVxQFfRCSBfGsATr1,,,,,,,,,,,,,,,,,,,2167.0,,,6096eca15340fc49ef3f1ab3,16:56:22,27/03/2024
html-keyboard-response,57,106555,0.0-26.0-0.0,1433.0,"<div style=""display: flex; flex-direction: column; align-items: center; margin-top: -40px;""><img src=""images/pattern_4.png"" style=""width: 234px; height: 230px; margin-top: -50px;""><div style=""display: flex; justify-content: space-between; margin-top: 33px;""><img src=""images/choice_trial_4.png"" style=""width: 408px; height: 417px; margin-right: 200px;""><img src=""images/choice_trial_16.png"" style=""width: 408px; height: 417px;""></div></div>",f,delaylearn,learning,trial,OOiMxdf9dRUrVxQFfRCSBfGsATr1,OOiMxdf9dRUrVxQFfRCSBfGsATr1,2.0,images/choice_trial_4.png,images/choice_trial_16.png,images/pattern_4.png,f,f,7000.0,4.0,16.0,3.0,0.0,11.0,1.0,1.0,4.0,70.0,,,,,,6096eca15340fc49ef3f1ab3,16:56:22,27/03/2024
html-keyboard-response,58,107558,0.0-26.0-1.0,,"<div style=""display: flex; flex-direction: column; align-items: center; margin-top: -40px;""><img src=""images/pattern_4.png"" style=""width: 234px; height: 230px; margin-top: -50px;""><div style=""display: flex; justify-content: space-between; margin-top: 33px;""><img src=""images/choice_trial_4.png"" style=""width: 408px; height: 417px; margin-right: 608px;""></div></div>",,delaylearn,learning,display_response,OOiMxdf9dRUrVxQFfRCSBfGsATr1,OOiMxdf9dRUrVxQFfRCSBfGsATr1,,,,,,,,,,,,,,,,,chosen stimuli: images/choice_trial_4.png,,,,,6096eca15340fc49ef3f1ab3,16:56:22,27/03/2024
html-keyboard-response,59,114559,0.0-26.0-2.0,,,,delaylearn,learning,feedback_duration_window,OOiMxdf9dRUrVxQFfRCSBfGsATr1,OOiMxdf9dRUrVxQFfRCSBfGsATr1,,,,,,,,,,,,,,,,,,7000.0,,,,6096eca15340fc49ef3f1ab3,16:56:22,27/03/2024
html-keyboard-response,60,116061,0.0-26.0-3.0,,<div style='margin:auto;width: auto; font-size: 150%'><span style='font-weight: bold; font-size: 100px; color: green;'>+10 points!</span><br><br></div>,,delaylearn,learning,feedback_image_window,OOiMxdf9dRUrVxQFfRCSBfGsATr1,OOiMxdf9dRUrVxQFfRCSBfGsATr1,,,,,,,,,,,,,,,,,,,,,,6096eca15340fc49ef3f1ab3,16:56:22,27/03/2024
html-keyboard-response,61,118185,0.0-27.0,,"<div style=""font-size:100px;"">+</div>",,delaylearn,learning,ITI,OOiMxdf9dRUrVxQFfRCSBfGsATr1,OOiMxdf9dRUrVxQFfRCSBfGsATr1,,,,,,,,,,,,,,,,,,,2122.0,,,6096eca15340fc49ef3f1ab3,16:56:22,27/03/2024
html-keyboard-response,62,119421,0.0-28.0-0.0,1232.9999999998836,"<div style=""display: flex; flex-direction: column; align-items: center; margin-top: -40px;""><img src=""images/pattern_5.png"" style=""width: 234px; height: 230px; margin-top: -50px;""><div style=""display: flex; justify-content: space-between; margin-top: 33px;""><img src=""images/choice_trial_9.png"" style=""width: 408px; height: 417px; margin-right: 200px;""><img src=""images/choice_trial_2.png"" style=""width: 408px; height: 417px;""></div></div>",f,delaylearn,learning,trial,OOiMxdf9dRUrVxQFfRCSBfGsATr1,OOiMxdf9dRUrVxQFfRCSBfGsATr1,2.0,images/choice_trial_9.png,images/choice_trial_2.png,images/pattern_5.png,j,j,750.0,9.0,2.0,4.0,1.0,12.0,0.0,0.0,9.0,70.0,,,,,,6096eca15340fc49ef3f1ab3,16:56:22,27/03/2024
html-keyboard-response,63,120423,0.0-28.0-1.0,,"<div style=""display: flex; flex-direction: column; align-items: center; margin-top: -40px;""><img src=""images/pattern_5.png"" style=""width: 234px; height: 230px; margin-top: -50px;""><div style=""display: flex; justify-content: space-between; margin-top: 33px;""><img src=""images/choice_trial_9.png"" style=""width: 408px; height: 417px; margin-right: 608px;""></div></div>",,delaylearn,learning,display_response,OOiMxdf9dRUrVxQFfRCSBfGsATr1,OOiMxdf9dRUrVxQFfRCSBfGsATr1,,,,,,,,,,,,,,,,,chosen stimuli: images/choice_trial_9.png,,,,,6096eca15340fc49ef3f1ab3,16:56:22,27/03/2024
html-keyboard-response,64,121174,0.0-28.0-2.0,,,,delaylearn,learning,feedback_duration_window,OOiMxdf9dRUrVxQFfRCSBfGsATr1,OOiMxdf9dRUrVxQFfRCSBfGsATr1,,,,,,,,,,,,,,,,,,750.0,,,,6096eca15340fc49ef3f1ab3,16:56:22,27/03/2024
html-keyboard-response,65,122675,0.0-28.0-3.0,,<div style='margin:auto;width: auto; font-size: 150%'><span style='font-weight: bold; font-size: 100px; color: red;'>0 points!</span><br><br></div>,,delaylearn,learning,feedback_image_window,OOiMxdf9dRUrVxQFfRCSBfGsATr1,OOiMxdf9dRUrVxQFfRCSBfGsATr1,,,,,,,,,,,,,,,,,,,,,,6096eca15340fc49ef3f1ab3,16:56:22,27/03/2024
html-keyboard-response,66,124432,0.0-29.0,,"<div style=""font-size:100px;"">+</div>",,delaylearn,learning,ITI,OOiMxdf9dRUrVxQFfRCSBfGsATr1,OOiMxdf9dRUrVxQFfRCSBfGsATr1,,,,,,,,,,,,,,,,,,,1756.0,,,6096eca15340fc49ef3f1ab3,16:56:22,27/03/2024
html-keyboard-response,67,125811,0.0-30.0-0.0,1377.0,"<div style=""display: flex; flex-direction: column; align-items: center; margin-top: -40px;""><img src=""images/pattern_6.png"" style=""width: 234px; height: 230px; margin-top: -50px;""><div style=""display: flex; justify-content: space-between; margin-top: 33px;""><img src=""images/choice_trial_11.png"" style=""width: 408px; height: 417px; margin-right: 200px;""><img src=""images/choice_trial_5.png"" style=""width: 408px; height: 417px;""></div></div>",f,delaylearn,learning,trial,OOiMxdf9dRUrVxQFfRCSBfGsATr1,OOiMxdf9dRUrVxQFfRCSBfGsATr1,2.0,images/choice_trial_11.png,images/choice_trial_5.png,images/pattern_6.png,j,f,750.0,11.0,5.0,5.0,0.0,13.0,1.0,0.0,11.0,70.0,,,,,,6096eca15340fc49ef3f1ab3,16:56:22,27/03/2024
html-keyboard-response,68,126814,0.0-30.0-1.0,,"<div style=""display: flex; flex-direction: column; align-items: center; margin-top: -40px;""><img src=""images/pattern_6.png"" style=""width: 234px; height: 230px; margin-top: -50px;""><div style=""display: flex; justify-content: space-between; margin-top: 33px;""><img src=""images/choice_trial_11.png"" style=""width: 408px; height: 417px; margin-right: 608px;""></div></div>",,delaylearn,learning,display_response,OOiMxdf9dRUrVxQFfRCSBfGsATr1,OOiMxdf9dRUrVxQFfRCSBfGsATr1,,,,,,,,,,,,,,,,,chosen stimuli: images/choice_trial_11.png,,,,,6096eca15340fc49ef3f1ab3,16:56:22,27/03/2024
html-keyboard-response,69,127565,0.0-30.0-2.0,,,,delaylearn,learning,feedback_duration_window,OOiMxdf9dRUrVxQFfRCSBfGsATr1,OOiMxdf9dRUrVxQFfRCSBfGsATr1,,,,,,,,,,,,,,,,,,750.0,,,,6096eca15340fc49ef3f1ab3,16:56:22,27/03/2024
html-keyboard-response,70,129066,0.0-30.0-3.0,,<div style='margin:auto;width: auto; font-size: 150%'><span style='font-weight: bold; font-size: 100px; color: red;'>0 points!</span><br><br></div>,,delaylearn,learning,feedback_image_window,OOiMxdf9dRUrVxQFfRCSBfGsATr1,OOiMxdf9dRUrVxQFfRCSBfGsATr1,,,,,,,,,,,,,,,,,,,,,,6096eca15340fc49ef3f1ab3,16:56:22,27/03/2024
html-keyboard-response,71,129567,0.0-31.0-0.0,,,,,,mood_trial_fixation,OOiMxdf9dRUrVxQFfRCSBfGsATr1,,,,,,,,,,,,,,,,,,,,,,,6096eca15340fc49ef3f1ab3,16:56:22,27/03/2024
lmdlab-html-vas-response,72,133403,0.0-31.0-1.0,2831.0,How happy are you right now?,0.37410300925925927,delaylearn,learning,mood_trial,OOiMxdf9dRUrVxQFfRCSBfGsATr1,OOiMxdf9dRUrVxQFfRCSBfGsATr1,,,,,,,,,,,,,,,,,,,,"['Very unhappy', 'Very happy']",,6096eca15340fc49ef3f1ab3,16:56:22,27/03/2024
html-keyboard-response,73,135277,0.0-32.0,,"<div style=""font-size:100px;"">+</div>",,delaylearn,learning,ITI,OOiMxdf9dRUrVxQFfRCSBfGsATr1,OOiMxdf9dRUrVxQFfRCSBfGsATr1,,,,,,,,,,,,,,,,,,,1872.0,,,6096eca15340fc49ef3f1ab3,16:56:22,27/03/2024
html-keyboard-response,74,136634,0.0-33.0-0.0,1353.0,"<div style=""display: flex; flex-direction: column; align-items: center; margin-top: -40px;""><img src=""images/pattern_1.png"" style=""width: 234px; height: 230px; margin-top: -50px;""><div style=""display: flex; justify-content: space-between; margin-top: 33px;""><img src=""images/choice_trial_10.png"" style=""width: 408px; height: 417px; margin-right: 200px;""><img src=""images/choice_trial_3.png"" style=""width: 408px; height: 417px;""></div></div>",f,delaylearn,learning,trial,OOiMxdf9dRUrVxQFfRCSBfGsATr1,OOiMxdf9dRUrVxQFfRCSBfGsATr1,2.0,images/choice_trial_10.png,images/choice_trial_3.png,images/pattern_1.png,j,j,7000.0,10.0,3.0,1.0,1.0,14.0,0.0,0.0,10.0,70.0,,,,,,6096eca15340fc49ef3f1ab3,16:56:22,27/03/2024
html-keyboard-response,75,137636,0.0-33.0-1.0,,"<div style=""display: flex; flex-direction: column; align-items: center; margin-top: -40px;""><img src=""images/pattern_1.png"" style=""width: 234px; height: 230px; margin-top: -50px;""><div style=""display: flex; justify-content: space-between; margin-top: 33px;""><img src=""images/choice_trial_10.png"" style=""width: 408px; height: 417px; margin-right: 608px;""></div></div>",,delaylearn,learning,display_response,OOiMxdf9dRUrVxQFfRCSBfGsATr1,OOiMxdf9dRUrVxQFfRCSBfGsATr1,,,,,,,,,,,,,,,,,chosen stimuli: images/choice_trial_10.png,,,,,6096eca15340fc49ef3f1ab3,16:56:22,27/03/2024
html-keyboard-response,76,144637,0.0-33.0-2.0,,,,delaylearn,learning,feedback_duration_window,OOiMxdf9dRUrVxQFfRCSBfGsATr1,OOiMxdf9dRUrVxQFfRCSBfGsATr1,,,,,,,,,,,,,,,,,,7000.0,,,,6096eca15340fc49ef3f1ab3,16:56:22,27/03/2024
html-keyboard-response,77,146139,0.0-33.0-3.0,,<div style='margin:auto;width: auto; font-size: 150%'><span style='font-weight: bold; font-size: 100px; color: red;'>0 points!</span><br><br></div>,,delaylearn,learning,feedback_image_window,OOiMxdf9dRUrVxQFfRCSBfGsATr1,OOiMxdf9dRUrVxQFfRCSBfGsATr1,,,,,,,,,,,,,,,,,,,,,,6096eca15340fc49ef3f1ab3,16:56:22,27/03/2024
html-keyboard-response,78,147681,0.0-34.0,,"<div style=""font-size:100px;"">+</div>",,delaylearn,learning,ITI,OOiMxdf9dRUrVxQFfRCSBfGsATr1,OOiMxdf9dRUrVxQFfRCSBfGsATr1,,,,,,,,,,,,,,,,,,,1540.0,,,6096eca15340fc49ef3f1ab3,16:56:22,27/03/2024
html-keyboard-response,79,148913,0.0-35.0-0.0,1230.0,"<div style=""display: flex; flex-direction: column; align-items: center; margin-top: -40px;""><img src=""images/pattern_3.png"" style=""width: 234px; height: 230px; margin-top: -50px;""><div style=""display: flex; justify-content: space-between; margin-top: 33px;""><img src=""images/choice_trial_14.png"" style=""width: 408px; height: 417px; margin-right: 200px;""><img src=""images/choice_trial_12.png"" style=""width: 408px; height: 417px;""></div></div>",j,delaylearn,learning,trial,OOiMxdf9dRUrVxQFfRCSBfGsATr1,OOiMxdf9dRUrVxQFfRCSBfGsATr1,2.0,images/choice_trial_14.png,images/choice_trial_12.png,images/pattern_3.png,f,j,7000.0,14.0,12.0,2.0,1.0,15.0,1.0,0.0,12.0,70.0,,,,,,6096eca15340fc49ef3f1ab3,16:56:22,27/03/2024
html-keyboard-response,80,149915,0.0-35.0-1.0,,"<div style=""display: flex; flex-direction: column; align-items: center; margin-top: -40px;""><img src=""images/pattern_3.png"" style=""width: 234px; height: 230px; margin-top: -50px;""><div style=""display: flex; justify-content: space-between; margin-top: 33px;""><img src=""images/choice_trial_12.png"" style=""width: 408px; height: 417px; margin-left:608px;""></div></div>",,delaylearn,learning,display_response,OOiMxdf9dRUrVxQFfRCSBfGsATr1,OOiMxdf9dRUrVxQFfRCSBfGsATr1,,,,,,,,,,,,,,,,,chosen stimuli: images/choice_trial_12.png,,,,,6096eca15340fc49ef3f1ab3,16:56:22,27/03/2024
html-keyboard-response,81,156917,0.0-35.0-2.0,,,,delaylearn,learning,feedback_duration_window,OOiMxdf9dRUrVxQFfRCSBfGsATr1,OOiMxdf9dRUrVxQFfRCSBfGsATr1,,,,,,,,,,,,,,,,,,7000.0,,,,6096eca15340fc49ef3f1ab3,16:56:22,27/03/2024
html-keyboard-response,82,158419,0.0-35.0-3.0,,<div style='margin:auto;width: auto; font-size: 150%'><span style='font-weight: bold; font-size: 100px; color: red;'>0 points!</span><br><br></div>,,delaylearn,learning,feedback_image_window,OOiMxdf9dRUrVxQFfRCSBfGsATr1,OOiMxdf9dRUrVxQFfRCSBfGsATr1,,,,,,,,,,,,,,,,,,,,,,6096eca15340fc49ef3f1ab3,16:56:22,27/03/2024
html-keyboard-response,83,160223,0.0-36.0,,"<div style=""font-size:100px;"">+</div>",,delaylearn,learning,ITI,OOiMxdf9dRUrVxQFfRCSBfGsATr1,OOiMxdf9dRUrVxQFfRCSBfGsATr1,,,,,,,,,,,,,,,,,,,1803.0,,,6096eca15340fc49ef3f1ab3,16:56:22,27/03/2024
html-keyboard-response,84,161764,0.0-37.0-0.0,1539.0,"<div style=""display: flex; flex-direction: column; align-items: center; margin-top: -40px;""><img src=""images/pattern_5.png"" style=""width: 234px; height: 230px; margin-top: -50px;""><div style=""display: flex; justify-content: space-between; margin-top: 33px;""><img src=""images/choice_trial_2.png"" style=""width: 408px; height: 417px; margin-right: 200px;""><img src=""images/choice_trial_9.png"" style=""width: 408px; height: 417px;""></div></div>",f,delaylearn,learning,trial,OOiMxdf9dRUrVxQFfRCSBfGsATr1,OOiMxdf9dRUrVxQFfRCSBfGsATr1,2.0,images/choice_trial_2.png,images/choice_trial_9.png,images/pattern_5.png,f,f,750.0,2.0,9.0,4.0,0.0,16.0,1.0,1.0,2.0,80.0,,,,,,6096eca15340fc49ef3f1ab3,16:56:22,27/03/2024
html-keyboard-response,85,162765,0.0-37.0-1.0,,"<div style=""display: flex; flex-direction: column; align-items: center; margin-top: -40px;""><img src=""images/pattern_5.png"" style=""width: 234px; height: 230px; margin-top: -50px;""><div style=""display: flex; justify-content: space-between; margin-top: 33px;""><img src=""images/choice_trial_2.png"" style=""width: 408px; height: 417px; margin-right: 608px;""></div></div>",,delaylearn,learning,display_response,OOiMxdf9dRUrVxQFfRCSBfGsATr1,OOiMxdf9dRUrVxQFfRCSBfGsATr1,,,,,,,,,,,,,,,,,chosen stimuli: images/choice_trial_2.png,,,,,6096eca15340fc49ef3f1ab3,16:56:22,27/03/2024
html-keyboard-response,86,163517,0.0-37.0-2.0,,,,delaylearn,learning,feedback_duration_window,OOiMxdf9dRUrVxQFfRCSBfGsATr1,OOiMxdf9dRUrVxQFfRCSBfGsATr1,,,,,,,,,,,,,,,,,,750.0,,,,6096eca15340fc49ef3f1ab3,16:56:22,27/03/2024
html-keyboard-response,87,165019,0.0-37.0-3.0,,<div style='margin:auto;width: auto; font-size: 150%'><span style='font-weight: bold; font-size: 100px; color: green;'>+10 points!</span><br><br></div>,,delaylearn,learning,feedback_image_window,OOiMxdf9dRUrVxQFfRCSBfGsATr1,OOiMxdf9dRUrVxQFfRCSBfGsATr1,,,,,,,,,,,,,,,,,,,,,,6096eca15340fc49ef3f1ab3,16:56:22,27/03/2024
html-keyboard-response,88,165521,0.0-38.0-0.0,,,,,,mood_trial_fixation,OOiMxdf9dRUrVxQFfRCSBfGsATr1,,,,,,,,,,,,,,,,,,,,,,,6096eca15340fc49ef3f1ab3,16:56:22,27/03/2024
lmdlab-html-vas-response,89,168869,0.0-38.0-1.0,2343.0,How happy are you right now?,0.5166956018518518,delaylearn,learning,mood_trial,OOiMxdf9dRUrVxQFfRCSBfGsATr1,OOiMxdf9dRUrVxQFfRCSBfGsATr1,,,,,,,,,,,,,,,,,,,,"['Very unhappy', 'Very happy']",,6096eca15340fc49ef3f1ab3,16:56:22,27/03/2024
html-keyboard-response,90,170408,0.0-39.0,,"<div style=""font-size:100px;"">+</div>",,delaylearn,learning,ITI,OOiMxdf9dRUrVxQFfRCSBfGsATr1,OOiMxdf9dRUrVxQFfRCSBfGsATr1,,,,,,,,,,,,,,,,,,,1539.0,,,6096eca15340fc49ef3f1ab3,16:56:22,27/03/2024
html-keyboard-response,91,172069,0.0-40.0-0.0,1659.0,"<div style=""display: flex; flex-direction: column; align-items: center; margin-top: -40px;""><img src=""images/pattern_6.png"" style=""width: 234px; height: 230px; margin-top: -50px;""><div style=""display: flex; justify-content: space-between; margin-top: 33px;""><img src=""images/choice_trial_11.png"" style=""width: 408px; height: 417px; margin-right: 200px;""><img src=""images/choice_trial_5.png"" style=""width: 408px; height: 417px;""></div></div>",j,delaylearn,learning,trial,OOiMxdf9dRUrVxQFfRCSBfGsATr1,OOiMxdf9dRUrVxQFfRCSBfGsATr1,2.0,images/choice_trial_11.png,images/choice_trial_5.png,images/pattern_6.png,f,f,750.0,11.0,5.0,5.0,0.0,17.0,0.0,0.0,5.0,80.0,,,,,,6096eca15340fc49ef3f1ab3,16:56:22,27/03/2024
html-keyboard-response,92,173072,0.0-40.0-1.0,,"<div style=""display: flex; flex-direction: column; align-items: center; margin-top: -40px;""><img src=""images/pattern_6.png"" style=""width: 234px; height: 230px; margin-top: -50px;""><div style=""display: flex; justify-content: space-between; margin-top: 33px;""><img src=""images/choice_trial_5.png"" style=""width: 408px; height: 417px; margin-left:608px;""></div></div>",,delaylearn,learning,display_response,OOiMxdf9dRUrVxQFfRCSBfGsATr1,OOiMxdf9dRUrVxQFfRCSBfGsATr1,,,,,,,,,,,,,,,,,chosen stimuli: images/choice_trial_5.png,,,,,6096eca15340fc49ef3f1ab3,16:56:22,27/03/2024
html-keyboard-response,93,173824,0.0-40.0-2.0,,,,delaylearn,learning,feedback_duration_window,OOiMxdf9dRUrVxQFfRCSBfGsATr1,OOiMxdf9dRUrVxQFfRCSBfGsATr1,,,,,,,,,,,,,,,,,,750.0,,,,6096eca15340fc49ef3f1ab3,16:56:22,27/03/2024
html-keyboard-response,94,175325,0.0-40.0-3.0,,<div style='margin:auto;width: auto; font-size: 150%'><span style='font-weight: bold; font-size: 100px; color: red;'>0 points!</span><br><br></div>,,delaylearn,learning,feedback_image_window,OOiMxdf9dRUrVxQFfRCSBfGsATr1,OOiMxdf9dRUrVxQFfRCSBfGsATr1,,,,,,,,,,,,,,,,,,,,,,6096eca15340fc49ef3f1ab3,16:56:22,27/03/2024
html-keyboard-response,95,177622,0.0-41.0,,"<div style=""font-size:100px;"">+</div>",,delaylearn,learning,ITI,OOiMxdf9dRUrVxQFfRCSBfGsATr1,OOiMxdf9dRUrVxQFfRCSBfGsATr1,,,,,,,,,,,,,,,,,,,2296.0,,,6096eca15340fc49ef3f1ab3,16:56:22,27/03/2024
html-keyboard-response,96,178858,0.0-42.0-0.0,1234.0,"<div style=""display: flex; flex-direction: column; align-items: center; margin-top: -40px;""><img src=""images/pattern_4.png"" style=""width: 234px; height: 230px; margin-top: -50px;""><div style=""display: flex; justify-content: space-between; margin-top: 33px;""><img src=""images/choice_trial_16.png"" style=""width: 408px; height: 417px; margin-right: 200px;""><img src=""images/choice_trial_4.png"" style=""width: 408px; height: 417px;""></div></div>",j,delaylearn,learning,trial,OOiMxdf9dRUrVxQFfRCSBfGsATr1,OOiMxdf9dRUrVxQFfRCSBfGsATr1,2.0,images/choice_trial_16.png,images/choice_trial_4.png,images/pattern_4.png,j,j,7000.0,16.0,4.0,3.0,1.0,18.0,1.0,1.0,4.0,90.0,,,,,,6096eca15340fc49ef3f1ab3,16:56:22,27/03/2024
html-keyboard-response,97,179860,0.0-42.0-1.0,,"<div style=""display: flex; flex-direction: column; align-items: center; margin-top: -40px;""><img src=""images/pattern_4.png"" style=""width: 234px; height: 230px; margin-top: -50px;""><div style=""display: flex; justify-content: space-between; margin-top: 33px;""><img src=""images/choice_trial_4.png"" style=""width: 408px; height: 417px; margin-left:608px;""></div></div>",,delaylearn,learning,display_response,OOiMxdf9dRUrVxQFfRCSBfGsATr1,OOiMxdf9dRUrVxQFfRCSBfGsATr1,,,,,,,,,,,,,,,,,chosen stimuli: images/choice_trial_4.png,,,,,6096eca15340fc49ef3f1ab3,16:56:22,27/03/2024
html-keyboard-response,98,186861,0.0-42.0-2.0,,,,delaylearn,learning,feedback_duration_window,OOiMxdf9dRUrVxQFfRCSBfGsATr1,OOiMxdf9dRUrVxQFfRCSBfGsATr1,,,,,,,,,,,,,,,,,,7000.0,,,,6096eca15340fc49ef3f1ab3,16:56:22,27/03/2024
html-keyboard-response,99,188363,0.0-42.0-3.0,,<div style='margin:auto;width: auto; font-size: 150%'><span style='font-weight: bold; font-size: 100px; color: green;'>+10 points!</span><br><br></div>,,delaylearn,learning,feedback_image_window,OOiMxdf9dRUrVxQFfRCSBfGsATr1,OOiMxdf9dRUrVxQFfRCSBfGsATr1,,,,,,,,,,,,,,,,,,,,,,6096eca15340fc49ef3f1ab3,16:56:22,27/03/2024
html-keyboard-response,100,190032,0.0-43.0,,"<div style=""font-size:100px;"">+</div>",,delaylearn,learning,ITI,OOiMxdf9dRUrVxQFfRCSBfGsATr1,OOiMxdf9dRUrVxQFfRCSBfGsATr1,,,,,,,,,,,,,,,,,,,1667.0,,,6096eca15340fc49ef3f1ab3,16:56:22,27/03/2024
html-keyboard-response,101,191834,0.0-44.0-0.0,1799.9999999998836,"<div style=""display: flex; flex-direction: column; align-items: center; margin-top: -40px;""><img src=""images/pattern_7.png"" style=""width: 234px; height: 230px; margin-top: -50px;""><div style=""display: flex; justify-content: space-between; margin-top: 33px;""><img src=""images/choice_trial_8.png"" style=""width: 408px; height: 417px; margin-right: 200px;""><img src=""images/choice_trial_15.png"" style=""width: 408px; height: 417px;""></div></div>",f,delaylearn,learning,trial,OOiMxdf9dRUrVxQFfRCSBfGsATr1,OOiMxdf9dRUrVxQFfRCSBfGsATr1,2.0,images/choice_trial_8.png,images/choice_trial_15.png,images/pattern_7.png,j,f,750.0,8.0,15.0,6.0,0.0,19.0,1.0,0.0,8.0,90.0,,,,,,6096eca15340fc49ef3f1ab3,16:56:22,27/03/2024
html-keyboard-response,102,192837,0.0-44.0-1.0,,"<div style=""display: flex; flex-direction: column; align-items: center; margin-top: -40px;""><img src=""images/pattern_7.png"" style=""width: 234px; height: 230px; margin-top: -50px;""><div style=""display: flex; justify-content: space-between; margin-top: 33px;""><img src=""images/choice_trial_8.png"" style=""width: 408px; height: 417px; margin-right: 608px;""></div></div>",,delaylearn,learning,display_response,OOiMxdf9dRUrVxQFfRCSBfGsATr1,OOiMxdf9dRUrVxQFfRCSBfGsATr1,,,,,,,,,,,,,,,,,chosen stimuli: images/choice_trial_8.png,,,,,6096eca15340fc49ef3f1ab3,16:56:22,27/03/2024
html-keyboard-response,103,193588,0.0-44.0-2.0,,,,delaylearn,learning,feedback_duration_window,OOiMxdf9dRUrVxQFfRCSBfGsATr1,OOiMxdf9dRUrVxQFfRCSBfGsATr1,,,,,,,,,,,,,,,,,,750.0,,,,6096eca15340fc49ef3f1ab3,16:56:22,27/03/2024
html-keyboard-response,104,195090,0.0-44.0-3.0,,<div style='margin:auto;width: auto; font-size: 150%'><span style='font-weight: bold; font-size: 100px; color: red;'>0 points!</span><br><br></div>,,delaylearn,learning,feedback_image_window,OOiMxdf9dRUrVxQFfRCSBfGsATr1,OOiMxdf9dRUrVxQFfRCSBfGsATr1,,,,,,,,,,,,,,,,,,,,,,6096eca15340fc49ef3f1ab3,16:56:22,27/03/2024
html-keyboard-response,105,197386,0.0-45.0,,"<div style=""font-size:100px;"">+</div>",,delaylearn,learning,ITI,OOiMxdf9dRUrVxQFfRCSBfGsATr1,OOiMxdf9dRUrVxQFfRCSBfGsATr1,,,,,,,,,,,,,,,,,,,2295.0,,,6096eca15340fc49ef3f1ab3,16:56:22,27/03/2024
html-keyboard-response,106,198688,0.0-46.0-0.0,1299.0000000001164,"<div style=""display: flex; flex-direction: column; align-items: center; margin-top: -40px;""><img src=""images/pattern_1.png"" style=""width: 234px; height: 230px; margin-top: -50px;""><div style=""display: flex; justify-content: space-between; margin-top: 33px;""><img src=""images/choice_trial_3.png"" style=""width: 408px; height: 417px; margin-right: 200px;""><img src=""images/choice_trial_10.png"" style=""width: 408px; height: 417px;""></div></div>",f,delaylearn,learning,trial,OOiMxdf9dRUrVxQFfRCSBfGsATr1,OOiMxdf9dRUrVxQFfRCSBfGsATr1,2.0,images/choice_trial_3.png,images/choice_trial_10.png,images/pattern_1.png,f,f,7000.0,3.0,10.0,1.0,0.0,20.0,1.0,1.0,3.0,100.0,,,,,,6096eca15340fc49ef3f1ab3,16:56:22,27/03/2024
html-keyboard-response,107,199690,0.0-46.0-1.0,,"<div style=""display: flex; flex-direction: column; align-items: center; margin-top: -40px;""><img src=""images/pattern_1.png"" style=""width: 234px; height: 230px; margin-top: -50px;""><div style=""display: flex; justify-content: space-between; margin-top: 33px;""><img src=""images/choice_trial_3.png"" style=""width: 408px; height: 417px; margin-right: 608px;""></div></div>",,delaylearn,learning,display_response,OOiMxdf9dRUrVxQFfRCSBfGsATr1,OOiMxdf9dRUrVxQFfRCSBfGsATr1,,,,,,,,,,,,,,,,,chosen stimuli: images/choice_trial_3.png,,,,,6096eca15340fc49ef3f1ab3,16:56:22,27/03/2024
html-keyboard-response,108,206691,0.0-46.0-2.0,,,,delaylearn,learning,feedback_duration_window,OOiMxdf9dRUrVxQFfRCSBfGsATr1,OOiMxdf9dRUrVxQFfRCSBfGsATr1,,,,,,,,,,,,,,,,,,7000.0,,,,6096eca15340fc49ef3f1ab3,16:56:22,27/03/2024
html-keyboard-response,109,208193,0.0-46.0-3.0,,<div style='margin:auto;width: auto; font-size: 150%'><span style='font-weight: bold; font-size: 100px; color: green;'>+10 points!</span><br><br></div>,,delaylearn,learning,feedback_image_window,OOiMxdf9dRUrVxQFfRCSBfGsATr1,OOiMxdf9dRUrVxQFfRCSBfGsATr1,,,,,,,,,,,,,,,,,,,,,,6096eca15340fc49ef3f1ab3,16:56:22,27/03/2024
html-keyboard-response,110,210528,0.0-47.0,,"<div style=""font-size:100px;"">+</div>",,delaylearn,learning,ITI,OOiMxdf9dRUrVxQFfRCSBfGsATr1,OOiMxdf9dRUrVxQFfRCSBfGsATr1,,,,,,,,,,,,,,,,,,,2335.0,,,6096eca15340fc49ef3f1ab3,16:56:22,27/03/2024
html-keyboard-response,111,212272,0.0-48.0-0.0,1741.0,"<div style=""display: flex; flex-direction: column; align-items: center; margin-top: -40px;""><img src=""images/pattern_6.png"" style=""width: 234px; height: 230px; margin-top: -50px;""><div style=""display: flex; justify-content: space-between; margin-top: 33px;""><img src=""images/choice_trial_5.png"" style=""width: 408px; height: 417px; margin-right: 200px;""><img src=""images/choice_trial_11.png"" style=""width: 408px; height: 417px;""></div></div>",j,delaylearn,learning,trial,OOiMxdf9dRUrVxQFfRCSBfGsATr1,OOiMxdf9dRUrVxQFfRCSBfGsATr1,2.0,images/choice_trial_5.png,images/choice_trial_11.png,images/pattern_6.png,j,j,750.0,5.0,11.0,5.0,1.0,21.0,1.0,1.0,11.0,110.0,,,,,,6096eca15340fc49ef3f1ab3,16:56:22,27/03/2024
html-keyboard-response,112,213274,0.0-48.0-1.0,,"<div style=""display: flex; flex-direction: column; align-items: center; margin-top: -40px;""><img src=""images/pattern_6.png"" style=""width: 234px; height: 230px; margin-top: -50px;""><div style=""display: flex; justify-content: space-between; margin-top: 33px;""><img src=""images/choice_trial_11.png"" style=""width: 408px; height: 417px; margin-left:608px;""></div></div>",,delaylearn,learning,display_response,OOiMxdf9dRUrVxQFfRCSBfGsATr1,OOiMxdf9dRUrVxQFfRCSBfGsATr1,,,,,,,,,,,,,,,,,chosen stimuli: images/choice_trial_11.png,,,,,6096eca15340fc49ef3f1ab3,16:56:22,27/03/2024
html-keyboard-response,113,214025,0.0-48.0-2.0,,,,delaylearn,learning,feedback_duration_window,OOiMxdf9dRUrVxQFfRCSBfGsATr1,OOiMxdf9dRUrVxQFfRCSBfGsATr1,,,,,,,,,,,,,,,,,,750.0,,,,6096eca15340fc49ef3f1ab3,16:56:22,27/03/2024
html-keyboard-response,114,215527,0.0-48.0-3.0,,<div style='margin:auto;width: auto; font-size: 150%'><span style='font-weight: bold; font-size: 100px; color: green;'>+10 points!</span><br><br></div>,,delaylearn,learning,feedback_image_window,OOiMxdf9dRUrVxQFfRCSBfGsATr1,OOiMxdf9dRUrVxQFfRCSBfGsATr1,,,,,,,,,,,,,,,,,,,,,,6096eca15340fc49ef3f1ab3,16:56:22,27/03/2024
html-keyboard-response,115,217892,0.0-49.0,,"<div style=""font-size:100px;"">+</div>",,delaylearn,learning,ITI,OOiMxdf9dRUrVxQFfRCSBfGsATr1,OOiMxdf9dRUrVxQFfRCSBfGsATr1,,,,,,,,,,,,,,,,,,,2363.0,,,6096eca15340fc49ef3f1ab3,16:56:22,27/03/2024
html-keyboard-response,116,219048,0.0-50.0-0.0,1152.0,"<div style=""display: flex; flex-direction: column; align-items: center; margin-top: -40px;""><img src=""images/pattern_4.png"" style=""width: 234px; height: 230px; margin-top: -50px;""><div style=""display: flex; justify-content: space-between; margin-top: 33px;""><img src=""images/choice_trial_4.png"" style=""width: 408px; height: 417px; margin-right: 200px;""><img src=""images/choice_trial_16.png"" style=""width: 408px; height: 417px;""></div></div>",f,delaylearn,learning,trial,OOiMxdf9dRUrVxQFfRCSBfGsATr1,OOiMxdf9dRUrVxQFfRCSBfGsATr1,2.0,images/choice_trial_4.png,images/choice_trial_16.png,images/pattern_4.png,f,f,7000.0,4.0,16.0,3.0,0.0,22.0,1.0,1.0,4.0,120.0,,,,,,6096eca15340fc49ef3f1ab3,16:56:22,27/03/2024
html-keyboard-response,117,220050,0.0-50.0-1.0,,"<div style=""display: flex; flex-direction: column; align-items: center; margin-top: -40px;""><img src=""images/pattern_4.png"" style=""width: 234px; height: 230px; margin-top: -50px;""><div style=""display: flex; justify-content: space-between; margin-top: 33px;""><img src=""images/choice_trial_4.png"" style=""width: 408px; height: 417px; margin-right: 608px;""></div></div>",,delaylearn,learning,display_response,OOiMxdf9dRUrVxQFfRCSBfGsATr1,OOiMxdf9dRUrVxQFfRCSBfGsATr1,,,,,,,,,,,,,,,,,chosen stimuli: images/choice_trial_4.png,,,,,6096eca15340fc49ef3f1ab3,16:56:22,27/03/2024
html-keyboard-response,118,227051,0.0-50.0-2.0,,,,delaylearn,learning,feedback_duration_window,OOiMxdf9dRUrVxQFfRCSBfGsATr1,OOiMxdf9dRUrVxQFfRCSBfGsATr1,,,,,,,,,,,,,,,,,,7000.0,,,,6096eca15340fc49ef3f1ab3,16:56:22,27/03/2024
html-keyboard-response,119,228554,0.0-50.0-3.0,,<div style='margin:auto;width: auto; font-size: 150%'><span style='font-weight: bold; font-size: 100px; color: green;'>+10 points!</span><br><br></div>,,delaylearn,learning,feedback_image_window,OOiMxdf9dRUrVxQFfRCSBfGsATr1,OOiMxdf9dRUrVxQFfRCSBfGsATr1,,,,,,,,,,,,,,,,,,,,,,6096eca15340fc49ef3f1ab3,16:56:22,27/03/2024
html-keyboard-response,120,229055,0.0-51.0-0.0,,,,,,mood_trial_fixation,OOiMxdf9dRUrVxQFfRCSBfGsATr1,,,,,,,,,,,,,,,,,,,,,,,6096eca15340fc49ef3f1ab3,16:56:22,27/03/2024
lmdlab-html-vas-response,121,232486,0.0-51.0-1.0,2427.0,How happy are you right now?,0.5592881944444444,delaylearn,learning,mood_trial,OOiMxdf9dRUrVxQFfRCSBfGsATr1,OOiMxdf9dRUrVxQFfRCSBfGsATr1,,,,,,,,,,,,,,,,,,,,"['Very unhappy', 'Very happy']",,6096eca15340fc49ef3f1ab3,16:56:22,27/03/2024
html-keyboard-response,122,234197,0.0-52.0,,"<div style=""font-size:100px;"">+</div>",,delaylearn,learning,ITI,OOiMxdf9dRUrVxQFfRCSBfGsATr1,OOiMxdf9dRUrVxQFfRCSBfGsATr1,,,,,,,,,,,,,,,,,,,1709.0,,,6096eca15340fc49ef3f1ab3,16:56:22,27/03/2024
html-keyboard-response,123,236753,0.0-53.0-0.0,2555.0,"<div style=""display: flex; flex-direction: column; align-items: center; margin-top: -40px;""><img src=""images/pattern_7.png"" style=""width: 234px; height: 230px; margin-top: -50px;""><div style=""display: flex; justify-content: space-between; margin-top: 33px;""><img src=""images/choice_trial_15.png"" style=""width: 408px; height: 417px; margin-right: 200px;""><img src=""images/choice_trial_8.png"" style=""width: 408px; height: 417px;""></div></div>",f,delaylearn,learning,trial,OOiMxdf9dRUrVxQFfRCSBfGsATr1,OOiMxdf9dRUrVxQFfRCSBfGsATr1,2.0,images/choice_trial_15.png,images/choice_trial_8.png,images/pattern_7.png,j,j,750.0,15.0,8.0,6.0,1.0,23.0,0.0,0.0,15.0,120.0,,,,,,6096eca15340fc49ef3f1ab3,16:56:22,27/03/2024
html-keyboard-response,124,237754,0.0-53.0-1.0,,"<div style=""display: flex; flex-direction: column; align-items: center; margin-top: -40px;""><img src=""images/pattern_7.png"" style=""width: 234px; height: 230px; margin-top: -50px;""><div style=""display: flex; justify-content: space-between; margin-top: 33px;""><img src=""images/choice_trial_15.png"" style=""width: 408px; height: 417px; margin-right: 608px;""></div></div>",,delaylearn,learning,display_response,OOiMxdf9dRUrVxQFfRCSBfGsATr1,OOiMxdf9dRUrVxQFfRCSBfGsATr1,,,,,,,,,,,,,,,,,chosen stimuli: images/choice_trial_15.png,,,,,6096eca15340fc49ef3f1ab3,16:56:22,27/03/2024
html-keyboard-response,125,238505,0.0-53.0-2.0,,,,delaylearn,learning,feedback_duration_window,OOiMxdf9dRUrVxQFfRCSBfGsATr1,OOiMxdf9dRUrVxQFfRCSBfGsATr1,,,,,,,,,,,,,,,,,,750.0,,,,6096eca15340fc49ef3f1ab3,16:56:22,27/03/2024
html-keyboard-response,126,240008,0.0-53.0-3.0,,<div style='margin:auto;width: auto; font-size: 150%'><span style='font-weight: bold; font-size: 100px; color: red;'>0 points!</span><br><br></div>,,delaylearn,learning,feedback_image_window,OOiMxdf9dRUrVxQFfRCSBfGsATr1,OOiMxdf9dRUrVxQFfRCSBfGsATr1,,,,,,,,,,,,,,,,,,,,,,6096eca15340fc49ef3f1ab3,16:56:22,27/03/2024
html-keyboard-response,127,242230,0.0-54.0,,"<div style=""font-size:100px;"">+</div>",,delaylearn,learning,ITI,OOiMxdf9dRUrVxQFfRCSBfGsATr1,OOiMxdf9dRUrVxQFfRCSBfGsATr1,,,,,,,,,,,,,,,,,,,2221.0,,,6096eca15340fc49ef3f1ab3,16:56:22,27/03/2024
html-keyboard-response,128,243368,0.0-55.0-0.0,1136.0,"<div style=""display: flex; flex-direction: column; align-items: center; margin-top: -40px;""><img src=""images/pattern_1.png"" style=""width: 234px; height: 230px; margin-top: -50px;""><div style=""display: flex; justify-content: space-between; margin-top: 33px;""><img src=""images/choice_trial_10.png"" style=""width: 408px; height: 417px; margin-right: 200px;""><img src=""images/choice_trial_3.png"" style=""width: 408px; height: 417px;""></div></div>",j,delaylearn,learning,trial,OOiMxdf9dRUrVxQFfRCSBfGsATr1,OOiMxdf9dRUrVxQFfRCSBfGsATr1,2.0,images/choice_trial_10.png,images/choice_trial_3.png,images/pattern_1.png,f,j,7000.0,10.0,3.0,1.0,1.0,24.0,1.0,0.0,3.0,120.0,,,,,,6096eca15340fc49ef3f1ab3,16:56:22,27/03/2024
html-keyboard-response,129,244369,0.0-55.0-1.0,,"<div style=""display: flex; flex-direction: column; align-items: center; margin-top: -40px;""><img src=""images/pattern_1.png"" style=""width: 234px; height: 230px; margin-top: -50px;""><div style=""display: flex; justify-content: space-between; margin-top: 33px;""><img src=""images/choice_trial_3.png"" style=""width: 408px; height: 417px; margin-left:608px;""></div></div>",,delaylearn,learning,display_response,OOiMxdf9dRUrVxQFfRCSBfGsATr1,OOiMxdf9dRUrVxQFfRCSBfGsATr1,,,,,,,,,,,,,,,,,chosen stimuli: images/choice_trial_3.png,,,,,6096eca15340fc49ef3f1ab3,16:56:22,27/03/2024
html-keyboard-response,130,251371,0.0-55.0-2.0,,,,delaylearn,learning,feedback_duration_window,OOiMxdf9dRUrVxQFfRCSBfGsATr1,OOiMxdf9dRUrVxQFfRCSBfGsATr1,,,,,,,,,,,,,,,,,,7000.0,,,,6096eca15340fc49ef3f1ab3,16:56:22,27/03/2024
html-keyboard-response,131,252872,0.0-55.0-3.0,,<div style='margin:auto;width: auto; font-size: 150%'><span style='font-weight: bold; font-size: 100px; color: red;'>0 points!</span><br><br></div>,,delaylearn,learning,feedback_image_window,OOiMxdf9dRUrVxQFfRCSBfGsATr1,OOiMxdf9dRUrVxQFfRCSBfGsATr1,,,,,,,,,,,,,,,,,,,,,,6096eca15340fc49ef3f1ab3,16:56:22,27/03/2024
html-keyboard-response,132,255016,0.0-56.0,,"<div style=""font-size:100px;"">+</div>",,delaylearn,learning,ITI,OOiMxdf9dRUrVxQFfRCSBfGsATr1,OOiMxdf9dRUrVxQFfRCSBfGsATr1,,,,,,,,,,,,,,,,,,,2142.0,,,6096eca15340fc49ef3f1ab3,16:56:22,27/03/2024
html-keyboard-response,133,257217,0.0-57.0-0.0,2198.0,"<div style=""display: flex; flex-direction: column; align-items: center; margin-top: -40px;""><img src=""images/pattern_5.png"" style=""width: 234px; height: 230px; margin-top: -50px;""><div style=""display: flex; justify-content: space-between; margin-top: 33px;""><img src=""images/choice_trial_9.png"" style=""width: 408px; height: 417px; margin-right: 200px;""><img src=""images/choice_trial_2.png"" style=""width: 408px; height: 417px;""></div></div>",j,delaylearn,learning,trial,OOiMxdf9dRUrVxQFfRCSBfGsATr1,OOiMxdf9dRUrVxQFfRCSBfGsATr1,2.0,images/choice_trial_9.png,images/choice_trial_2.png,images/pattern_5.png,j,j,750.0,9.0,2.0,4.0,1.0,25.0,1.0,1.0,2.0,130.0,,,,,,6096eca15340fc49ef3f1ab3,16:56:22,27/03/2024
html-keyboard-response,134,258218,0.0-57.0-1.0,,"<div style=""display: flex; flex-direction: column; align-items: center; margin-top: -40px;""><img src=""images/pattern_5.png"" style=""width: 234px; height: 230px; margin-top: -50px;""><div style=""display: flex; justify-content: space-between; margin-top: 33px;""><img src=""images/choice_trial_2.png"" style=""width: 408px; height: 417px; margin-left:608px;""></div></div>",,delaylearn,learning,display_response,OOiMxdf9dRUrVxQFfRCSBfGsATr1,OOiMxdf9dRUrVxQFfRCSBfGsATr1,,,,,,,,,,,,,,,,,chosen stimuli: images/choice_trial_2.png,,,,,6096eca15340fc49ef3f1ab3,16:56:22,27/03/2024
html-keyboard-response,135,258970,0.0-57.0-2.0,,,,delaylearn,learning,feedback_duration_window,OOiMxdf9dRUrVxQFfRCSBfGsATr1,OOiMxdf9dRUrVxQFfRCSBfGsATr1,,,,,,,,,,,,,,,,,,750.0,,,,6096eca15340fc49ef3f1ab3,16:56:22,27/03/2024
html-keyboard-response,136,260471,0.0-57.0-3.0,,<div style='margin:auto;width: auto; font-size: 150%'><span style='font-weight: bold; font-size: 100px; color: green;'>+10 points!</span><br><br></div>,,delaylearn,learning,feedback_image_window,OOiMxdf9dRUrVxQFfRCSBfGsATr1,OOiMxdf9dRUrVxQFfRCSBfGsATr1,,,,,,,,,,,,,,,,,,,,,,6096eca15340fc49ef3f1ab3,16:56:22,27/03/2024
html-keyboard-response,137,262670,0.0-58.0,,"<div style=""font-size:100px;"">+</div>",,delaylearn,learning,ITI,OOiMxdf9dRUrVxQFfRCSBfGsATr1,OOiMxdf9dRUrVxQFfRCSBfGsATr1,,,,,,,,,,,,,,,,,,,2197.0,,,6096eca15340fc49ef3f1ab3,16:56:22,27/03/2024
html-keyboard-response,138,264221,0.0-59.0-0.0,1548.0,"<div style=""display: flex; flex-direction: column; align-items: center; margin-top: -40px;""><img src=""images/pattern_3.png"" style=""width: 234px; height: 230px; margin-top: -50px;""><div style=""display: flex; justify-content: space-between; margin-top: 33px;""><img src=""images/choice_trial_14.png"" style=""width: 408px; height: 417px; margin-right: 200px;""><img src=""images/choice_trial_12.png"" style=""width: 408px; height: 417px;""></div></div>",j,delaylearn,learning,trial,OOiMxdf9dRUrVxQFfRCSBfGsATr1,OOiMxdf9dRUrVxQFfRCSBfGsATr1,2.0,images/choice_trial_14.png,images/choice_trial_12.png,images/pattern_3.png,j,j,7000.0,14.0,12.0,2.0,1.0,26.0,1.0,1.0,12.0,140.0,,,,,,6096eca15340fc49ef3f1ab3,16:56:22,27/03/2024
html-keyboard-response,139,265223,0.0-59.0-1.0,,"<div style=""display: flex; flex-direction: column; align-items: center; margin-top: -40px;""><img src=""images/pattern_3.png"" style=""width: 234px; height: 230px; margin-top: -50px;""><div style=""display: flex; justify-content: space-between; margin-top: 33px;""><img src=""images/choice_trial_12.png"" style=""width: 408px; height: 417px; margin-left:608px;""></div></div>",,delaylearn,learning,display_response,OOiMxdf9dRUrVxQFfRCSBfGsATr1,OOiMxdf9dRUrVxQFfRCSBfGsATr1,,,,,,,,,,,,,,,,,chosen stimuli: images/choice_trial_12.png,,,,,6096eca15340fc49ef3f1ab3,16:56:22,27/03/2024
html-keyboard-response,140,272224,0.0-59.0-2.0,,,,delaylearn,learning,feedback_duration_window,OOiMxdf9dRUrVxQFfRCSBfGsATr1,OOiMxdf9dRUrVxQFfRCSBfGsATr1,,,,,,,,,,,,,,,,,,7000.0,,,,6096eca15340fc49ef3f1ab3,16:56:22,27/03/2024
html-keyboard-response,141,273726,0.0-59.0-3.0,,<div style='margin:auto;width: auto; font-size: 150%'><span style='font-weight: bold; font-size: 100px; color: green;'>+10 points!</span><br><br></div>,,delaylearn,learning,feedback_image_window,OOiMxdf9dRUrVxQFfRCSBfGsATr1,OOiMxdf9dRUrVxQFfRCSBfGsATr1,,,,,,,,,,,,,,,,,,,,,,6096eca15340fc49ef3f1ab3,16:56:22,27/03/2024
lmdlab-html-vas-response,142,278303,0.0-60.0-0.0,3073.0,*How <b><u>confident</u></b> are you feeling about your answers at this moment?*,0.24259259259259258,rewlearn,rate_confidence,,OOiMxdf9dRUrVxQFfRCSBfGsATr1,OOiMxdf9dRUrVxQFfRCSBfGsATr1,,,,,,,,,,,,,,,,,,,,"['No confidence', 'Complete confidence']",,6096eca15340fc49ef3f1ab3,16:56:22,27/03/2024
lmdlab-rest-trial-limit,143,347245,0.0-60.0-1.0,67353.0,"<div style=""font-size:40px;""><b>Please take a break!</b><br><br><br><br><p>Great work: you earned 140 points.<br><br><br><p>You have completed part(s) 1 of 5.<br><br><br><br>When you are ready to continue<br><br><br>please click the button.</p><br><br>",0,delaylearn,learning,break,OOiMxdf9dRUrVxQFfRCSBfGsATr1,OOiMxdf9dRUrVxQFfRCSBfGsATr1,,,,,,,,,,,,,,,,,,,,,0.0,6096eca15340fc49ef3f1ab3,16:56:22,27/03/2024
html-keyboard-response,144,350247,0.0-60.0-2.0,,"<div style=""font-size:100px;"">+</div>",,delaylearn,learning,pre_fixation,OOiMxdf9dRUrVxQFfRCSBfGsATr1,,,,,,,,,,,,,,,,,,,,,,,6096eca15340fc49ef3f1ab3,16:56:22,27/03/2024
lmdlab-html-vas-response,145,353812,0.0-60.0-3.0-0.0,2560.0,How happy are you right now?,0.540769675925926,delaylearn,learning,mood_baseline,OOiMxdf9dRUrVxQFfRCSBfGsATr1,OOiMxdf9dRUrVxQFfRCSBfGsATr1,,,,,,,,,,,,,,,,,,,,"['Very unhappy', 'Very happy']",,6096eca15340fc49ef3f1ab3,16:56:22,27/03/2024
html-keyboard-response,146,355314,0.0-60.0-3.0-1.0,,,,,,mood_baseline_fixation,OOiMxdf9dRUrVxQFfRCSBfGsATr1,,,,,,,,,,,,,,,,,,,,,,,6096eca15340fc49ef3f1ab3,16:56:22,27/03/2024
html-keyboard-response,147,357067,0.0-61.0,,"<div style=""font-size:100px;"">+</div>",,delaylearn,learning,ITI,OOiMxdf9dRUrVxQFfRCSBfGsATr1,OOiMxdf9dRUrVxQFfRCSBfGsATr1,,,,,,,,,,,,,,,,,,,1751.0,,,6096eca15340fc49ef3f1ab3,16:56:22,27/03/2024
html-keyboard-response,148,358962,0.0-62.0-0.0,1892.0,"<div style=""display: flex; flex-direction: column; align-items: center; margin-top: -40px;""><img src=""images/pattern_7.png"" style=""width: 234px; height: 230px; margin-top: -50px;""><div style=""display: flex; justify-content: space-between; margin-top: 33px;""><img src=""images/choice_trial_15.png"" style=""width: 408px; height: 417px; margin-right: 200px;""><img src=""images/choice_trial_8.png"" style=""width: 408px; height: 417px;""></div></div>",f,delaylearn,learning,trial,OOiMxdf9dRUrVxQFfRCSBfGsATr1,OOiMxdf9dRUrVxQFfRCSBfGsATr1,2.0,images/choice_trial_15.png,images/choice_trial_8.png,images/pattern_7.png,j,j,750.0,15.0,8.0,6.0,1.0,27.0,0.0,0.0,15.0,140.0,,,,,,6096eca15340fc49ef3f1ab3,16:56:22,27/03/2024
html-keyboard-response,149,359964,0.0-62.0-1.0,,"<div style=""display: flex; flex-direction: column; align-items: center; margin-top: -40px;""><img src=""images/pattern_7.png"" style=""width: 234px; height: 230px; margin-top: -50px;""><div style=""display: flex; justify-content: space-between; margin-top: 33px;""><img src=""images/choice_trial_15.png"" style=""width: 408px; height: 417px; margin-right: 608px;""></div></div>",,delaylearn,learning,display_response,OOiMxdf9dRUrVxQFfRCSBfGsATr1,OOiMxdf9dRUrVxQFfRCSBfGsATr1,,,,,,,,,,,,,,,,,chosen stimuli: images/choice_trial_15.png,,,,,6096eca15340fc49ef3f1ab3,16:56:22,27/03/2024
html-keyboard-response,150,360716,0.0-62.0-2.0,,,,delaylearn,learning,feedback_duration_window,OOiMxdf9dRUrVxQFfRCSBfGsATr1,OOiMxdf9dRUrVxQFfRCSBfGsATr1,,,,,,,,,,,,,,,,,,750.0,,,,6096eca15340fc49ef3f1ab3,16:56:22,27/03/2024
html-keyboard-response,151,362217,0.0-62.0-3.0,,<div style='margin:auto;width: auto; font-size: 150%'><span style='font-weight: bold; font-size: 100px; color: red;'>0 points!</span><br><br></div>,,delaylearn,learning,feedback_image_window,OOiMxdf9dRUrVxQFfRCSBfGsATr1,OOiMxdf9dRUrVxQFfRCSBfGsATr1,,,,,,,,,,,,,,,,,,,,,,6096eca15340fc49ef3f1ab3,16:56:22,27/03/2024
html-keyboard-response,152,362718,0.0-63.0-0.0,,,,,,mood_trial_fixation,OOiMxdf9dRUrVxQFfRCSBfGsATr1,,,,,,,,,,,,,,,,,,,,,,,6096eca15340fc49ef3f1ab3,16:56:22,27/03/2024
lmdlab-html-vas-response,153,365730,0.0-63.0-1.0,2006.0,How happy are you right now?,0.5018807870370371,delaylearn,learning,mood_trial,OOiMxdf9dRUrVxQFfRCSBfGsATr1,OOiMxdf9dRUrVxQFfRCSBfGsATr1,,,,,,,,,,,,,,,,,,,,"['Very unhappy', 'Very happy']",,6096eca15340fc49ef3f1ab3,16:56:22,27/03/2024
html-keyboard-response,154,367312,0.0-64.0,,"<div style=""font-size:100px;"">+</div>",,delaylearn,learning,ITI,OOiMxdf9dRUrVxQFfRCSBfGsATr1,OOiMxdf9dRUrVxQFfRCSBfGsATr1,,,,,,,,,,,,,,,,,,,1580.0,,,6096eca15340fc49ef3f1ab3,16:56:22,27/03/2024
html-keyboard-response,155,368686,0.0-65.0-0.0,1372.0,"<div style=""display: flex; flex-direction: column; align-items: center; margin-top: -40px;""><img src=""images/pattern_1.png"" style=""width: 234px; height: 230px; margin-top: -50px;""><div style=""display: flex; justify-content: space-between; margin-top: 33px;""><img src=""images/choice_trial_3.png"" style=""width: 408px; height: 417px; margin-right: 200px;""><img src=""images/choice_trial_10.png"" style=""width: 408px; height: 417px;""></div></div>",f,delaylearn,learning,trial,OOiMxdf9dRUrVxQFfRCSBfGsATr1,OOiMxdf9dRUrVxQFfRCSBfGsATr1,2.0,images/choice_trial_3.png,images/choice_trial_10.png,images/pattern_1.png,f,f,7000.0,3.0,10.0,1.0,0.0,28.0,1.0,1.0,3.0,150.0,,,,,,6096eca15340fc49ef3f1ab3,16:56:22,27/03/2024
html-keyboard-response,156,369688,0.0-65.0-1.0,,"<div style=""display: flex; flex-direction: column; align-items: center; margin-top: -40px;""><img src=""images/pattern_1.png"" style=""width: 234px; height: 230px; margin-top: -50px;""><div style=""display: flex; justify-content: space-between; margin-top: 33px;""><img src=""images/choice_trial_3.png"" style=""width: 408px; height: 417px; margin-right: 608px;""></div></div>",,delaylearn,learning,display_response,OOiMxdf9dRUrVxQFfRCSBfGsATr1,OOiMxdf9dRUrVxQFfRCSBfGsATr1,,,,,,,,,,,,,,,,,chosen stimuli: images/choice_trial_3.png,,,,,6096eca15340fc49ef3f1ab3,16:56:22,27/03/2024
html-keyboard-response,157,376690,0.0-65.0-2.0,,,,delaylearn,learning,feedback_duration_window,OOiMxdf9dRUrVxQFfRCSBfGsATr1,OOiMxdf9dRUrVxQFfRCSBfGsATr1,,,,,,,,,,,,,,,,,,7000.0,,,,6096eca15340fc49ef3f1ab3,16:56:22,27/03/2024
html-keyboard-response,158,378192,0.0-65.0-3.0,,<div style='margin:auto;width: auto; font-size: 150%'><span style='font-weight: bold; font-size: 100px; color: green;'>+10 points!</span><br><br></div>,,delaylearn,learning,feedback_image_window,OOiMxdf9dRUrVxQFfRCSBfGsATr1,OOiMxdf9dRUrVxQFfRCSBfGsATr1,,,,,,,,,,,,,,,,,,,,,,6096eca15340fc49ef3f1ab3,16:56:22,27/03/2024
html-keyboard-response,159,380435,0.0-66.0,,"<div style=""font-size:100px;"">+</div>",,delaylearn,learning,ITI,OOiMxdf9dRUrVxQFfRCSBfGsATr1,OOiMxdf9dRUrVxQFfRCSBfGsATr1,,,,,,,,,,,,,,,,,,,2242.0,,,6096eca15340fc49ef3f1ab3,16:56:22,27/03/2024
html-keyboard-response,160,381999,0.0-67.0-0.0,1562.0,"<div style=""display: flex; flex-direction: column; align-items: center; margin-top: -40px;""><img src=""images/pattern_5.png"" style=""width: 234px; height: 230px; margin-top: -50px;""><div style=""display: flex; justify-content: space-between; margin-top: 33px;""><img src=""images/choice_trial_2.png"" style=""width: 408px; height: 417px; margin-right: 200px;""><img src=""images/choice_trial_9.png"" style=""width: 408px; height: 417px;""></div></div>",f,delaylearn,learning,trial,OOiMxdf9dRUrVxQFfRCSBfGsATr1,OOiMxdf9dRUrVxQFfRCSBfGsATr1,2.0,images/choice_trial_2.png,images/choice_trial_9.png,images/pattern_5.png,f,f,750.0,2.0,9.0,4.0,0.0,29.0,1.0,1.0,2.0,160.0,,,,,,6096eca15340fc49ef3f1ab3,16:56:22,27/03/2024
html-keyboard-response,161,383001,0.0-67.0-1.0,,"<div style=""display: flex; flex-direction: column; align-items: center; margin-top: -40px;""><img src=""images/pattern_5.png"" style=""width: 234px; height: 230px; margin-top: -50px;""><div style=""display: flex; justify-content: space-between; margin-top: 33px;""><img src=""images/choice_trial_2.png"" style=""width: 408px; height: 417px; margin-right: 608px;""></div></div>",,delaylearn,learning,display_response,OOiMxdf9dRUrVxQFfRCSBfGsATr1,OOiMxdf9dRUrVxQFfRCSBfGsATr1,,,,,,,,,,,,,,,,,chosen stimuli: images/choice_trial_2.png,,,,,6096eca15340fc49ef3f1ab3,16:56:22,27/03/2024
html-keyboard-response,162,383753,0.0-67.0-2.0,,,,delaylearn,learning,feedback_duration_window,OOiMxdf9dRUrVxQFfRCSBfGsATr1,OOiMxdf9dRUrVxQFfRCSBfGsATr1,,,,,,,,,,,,,,,,,,750.0,,,,6096eca15340fc49ef3f1ab3,16:56:22,27/03/2024
html-keyboard-response,163,385255,0.0-67.0-3.0,,<div style='margin:auto;width: auto; font-size: 150%'><span style='font-weight: bold; font-size: 100px; color: green;'>+10 points!</span><br><br></div>,,delaylearn,learning,feedback_image_window,OOiMxdf9dRUrVxQFfRCSBfGsATr1,OOiMxdf9dRUrVxQFfRCSBfGsATr1,,,,,,,,,,,,,,,,,,,,,,6096eca15340fc49ef3f1ab3,16:56:22,27/03/2024
html-keyboard-response,164,387178,0.0-68.0,,"<div style=""font-size:100px;"">+</div>",,delaylearn,learning,ITI,OOiMxdf9dRUrVxQFfRCSBfGsATr1,OOiMxdf9dRUrVxQFfRCSBfGsATr1,,,,,,,,,,,,,,,,,,,1921.0,,,6096eca15340fc49ef3f1ab3,16:56:22,27/03/2024
html-keyboard-response,165,388428,0.0-69.0-0.0,1248.0,"<div style=""display: flex; flex-direction: column; align-items: center; margin-top: -40px;""><img src=""images/pattern_6.png"" style=""width: 234px; height: 230px; margin-top: -50px;""><div style=""display: flex; justify-content: space-between; margin-top: 33px;""><img src=""images/choice_trial_5.png"" style=""width: 408px; height: 417px; margin-right: 200px;""><img src=""images/choice_trial_11.png"" style=""width: 408px; height: 417px;""></div></div>",j,delaylearn,learning,trial,OOiMxdf9dRUrVxQFfRCSBfGsATr1,OOiMxdf9dRUrVxQFfRCSBfGsATr1,2.0,images/choice_trial_5.png,images/choice_trial_11.png,images/pattern_6.png,j,j,750.0,5.0,11.0,5.0,1.0,30.0,1.0,1.0,11.0,170.0,,,,,,6096eca15340fc49ef3f1ab3,16:56:22,27/03/2024
html-keyboard-response,166,389429,0.0-69.0-1.0,,"<div style=""display: flex; flex-direction: column; align-items: center; margin-top: -40px;""><img src=""images/pattern_6.png"" style=""width: 234px; height: 230px; margin-top: -50px;""><div style=""display: flex; justify-content: space-between; margin-top: 33px;""><img src=""images/choice_trial_11.png"" style=""width: 408px; height: 417px; margin-left:608px;""></div></div>",,delaylearn,learning,display_response,OOiMxdf9dRUrVxQFfRCSBfGsATr1,OOiMxdf9dRUrVxQFfRCSBfGsATr1,,,,,,,,,,,,,,,,,chosen stimuli: images/choice_trial_11.png,,,,,6096eca15340fc49ef3f1ab3,16:56:22,27/03/2024
html-keyboard-response,167,390180,0.0-69.0-2.0,,,,delaylearn,learning,feedback_duration_window,OOiMxdf9dRUrVxQFfRCSBfGsATr1,OOiMxdf9dRUrVxQFfRCSBfGsATr1,,,,,,,,,,,,,,,,,,750.0,,,,6096eca15340fc49ef3f1ab3,16:56:22,27/03/2024
html-keyboard-response,168,391681,0.0-69.0-3.0,,<div style='margin:auto;width: auto; font-size: 150%'><span style='font-weight: bold; font-size: 100px; color: green;'>+10 points!</span><br><br></div>,,delaylearn,learning,feedback_image_window,OOiMxdf9dRUrVxQFfRCSBfGsATr1,OOiMxdf9dRUrVxQFfRCSBfGsATr1,,,,,,,,,,,,,,,,,,,,,,6096eca15340fc49ef3f1ab3,16:56:22,27/03/2024
html-keyboard-response,169,392182,0.0-70.0-0.0,,,,,,mood_trial_fixation,OOiMxdf9dRUrVxQFfRCSBfGsATr1,,,,,,,,,,,,,,,,,,,,,,,6096eca15340fc49ef3f1ab3,16:56:22,27/03/2024
lmdlab-html-vas-response,170,395450,0.0-70.0-1.0,2264.0,How happy are you right now?,0.5000289351851852,delaylearn,learning,mood_trial,OOiMxdf9dRUrVxQFfRCSBfGsATr1,OOiMxdf9dRUrVxQFfRCSBfGsATr1,,,,,,,,,,,,,,,,,,,,"['Very unhappy', 'Very happy']",,6096eca15340fc49ef3f1ab3,16:56:22,27/03/2024
html-keyboard-response,171,397248,0.0-71.0,,"<div style=""font-size:100px;"">+</div>",,delaylearn,learning,ITI,OOiMxdf9dRUrVxQFfRCSBfGsATr1,OOiMxdf9dRUrVxQFfRCSBfGsATr1,,,,,,,,,,,,,,,,,,,1797.0,,,6096eca15340fc49ef3f1ab3,16:56:22,27/03/2024
html-keyboard-response,172,398311,0.0-72.0-0.0,1056.0,"<div style=""display: flex; flex-direction: column; align-items: center; margin-top: -40px;""><img src=""images/pattern_4.png"" style=""width: 234px; height: 230px; margin-top: -50px;""><div style=""display: flex; justify-content: space-between; margin-top: 33px;""><img src=""images/choice_trial_16.png"" style=""width: 408px; height: 417px; margin-right: 200px;""><img src=""images/choice_trial_4.png"" style=""width: 408px; height: 417px;""></div></div>",j,delaylearn,learning,trial,OOiMxdf9dRUrVxQFfRCSBfGsATr1,OOiMxdf9dRUrVxQFfRCSBfGsATr1,2.0,images/choice_trial_16.png,images/choice_trial_4.png,images/pattern_4.png,j,j,7000.0,16.0,4.0,3.0,1.0,31.0,1.0,1.0,4.0,180.0,,,,,,6096eca15340fc49ef3f1ab3,16:56:22,27/03/2024
html-keyboard-response,173,399312,0.0-72.0-1.0,,"<div style=""display: flex; flex-direction: column; align-items: center; margin-top: -40px;""><img src=""images/pattern_4.png"" style=""width: 234px; height: 230px; margin-top: -50px;""><div style=""display: flex; justify-content: space-between; margin-top: 33px;""><img src=""images/choice_trial_4.png"" style=""width: 408px; height: 417px; margin-left:608px;""></div></div>",,delaylearn,learning,display_response,OOiMxdf9dRUrVxQFfRCSBfGsATr1,OOiMxdf9dRUrVxQFfRCSBfGsATr1,,,,,,,,,,,,,,,,,chosen stimuli: images/choice_trial_4.png,,,,,6096eca15340fc49ef3f1ab3,16:56:22,27/03/2024
html-keyboard-response,174,406314,0.0-72.0-2.0,,,,delaylearn,learning,feedback_duration_window,OOiMxdf9dRUrVxQFfRCSBfGsATr1,OOiMxdf9dRUrVxQFfRCSBfGsATr1,,,,,,,,,,,,,,,,,,7000.0,,,,6096eca15340fc49ef3f1ab3,16:56:22,27/03/2024
html-keyboard-response,175,407816,0.0-72.0-3.0,,<div style='margin:auto;width: auto; font-size: 150%'><span style='font-weight: bold; font-size: 100px; color: green;'>+10 points!</span><br><br></div>,,delaylearn,learning,feedback_image_window,OOiMxdf9dRUrVxQFfRCSBfGsATr1,OOiMxdf9dRUrVxQFfRCSBfGsATr1,,,,,,,,,,,,,,,,,,,,,,6096eca15340fc49ef3f1ab3,16:56:22,27/03/2024
html-keyboard-response,176,409934,0.0-73.0,,"<div style=""font-size:100px;"">+</div>",,delaylearn,learning,ITI,OOiMxdf9dRUrVxQFfRCSBfGsATr1,OOiMxdf9dRUrVxQFfRCSBfGsATr1,,,,,,,,,,,,,,,,,,,2117.0,,,6096eca15340fc49ef3f1ab3,16:56:22,27/03/2024
html-keyboard-response,177,411822,0.0-74.0-0.0,1885.0,"<div style=""display: flex; flex-direction: column; align-items: center; margin-top: -40px;""><img src=""images/pattern_3.png"" style=""width: 234px; height: 230px; margin-top: -50px;""><div style=""display: flex; justify-content: space-between; margin-top: 33px;""><img src=""images/choice_trial_14.png"" style=""width: 408px; height: 417px; margin-right: 200px;""><img src=""images/choice_trial_12.png"" style=""width: 408px; height: 417px;""></div></div>",j,delaylearn,learning,trial,OOiMxdf9dRUrVxQFfRCSBfGsATr1,OOiMxdf9dRUrVxQFfRCSBfGsATr1,2.0,images/choice_trial_14.png,images/choice_trial_12.png,images/pattern_3.png,j,j,7000.0,14.0,12.0,2.0,1.0,32.0,1.0,1.0,12.0,190.0,,,,,,6096eca15340fc49ef3f1ab3,16:56:22,27/03/2024
html-keyboard-response,178,412823,0.0-74.0-1.0,,"<div style=""display: flex; flex-direction: column; align-items: center; margin-top: -40px;""><img src=""images/pattern_3.png"" style=""width: 234px; height: 230px; margin-top: -50px;""><div style=""display: flex; justify-content: space-between; margin-top: 33px;""><img src=""images/choice_trial_12.png"" style=""width: 408px; height: 417px; margin-left:608px;""></div></div>",,delaylearn,learning,display_response,OOiMxdf9dRUrVxQFfRCSBfGsATr1,OOiMxdf9dRUrVxQFfRCSBfGsATr1,,,,,,,,,,,,,,,,,chosen stimuli: images/choice_trial_12.png,,,,,6096eca15340fc49ef3f1ab3,16:56:22,27/03/2024
html-keyboard-response,179,419826,0.0-74.0-2.0,,,,delaylearn,learning,feedback_duration_window,OOiMxdf9dRUrVxQFfRCSBfGsATr1,OOiMxdf9dRUrVxQFfRCSBfGsATr1,,,,,,,,,,,,,,,,,,7000.0,,,,6096eca15340fc49ef3f1ab3,16:56:22,27/03/2024
html-keyboard-response,180,421327,0.0-74.0-3.0,,<div style='margin:auto;width: auto; font-size: 150%'><span style='font-weight: bold; font-size: 100px; color: green;'>+10 points!</span><br><br></div>,,delaylearn,learning,feedback_image_window,OOiMxdf9dRUrVxQFfRCSBfGsATr1,OOiMxdf9dRUrVxQFfRCSBfGsATr1,,,,,,,,,,,,,,,,,,,,,,6096eca15340fc49ef3f1ab3,16:56:22,27/03/2024
html-keyboard-response,181,423817,0.0-75.0,,"<div style=""font-size:100px;"">+</div>",,delaylearn,learning,ITI,OOiMxdf9dRUrVxQFfRCSBfGsATr1,OOiMxdf9dRUrVxQFfRCSBfGsATr1,,,,,,,,,,,,,,,,,,,2488.0,,,6096eca15340fc49ef3f1ab3,16:56:22,27/03/2024
html-keyboard-response,182,424786,0.0-76.0-0.0,964.9999999998836,"<div style=""display: flex; flex-direction: column; align-items: center; margin-top: -40px;""><img src=""images/pattern_5.png"" style=""width: 234px; height: 230px; margin-top: -50px;""><div style=""display: flex; justify-content: space-between; margin-top: 33px;""><img src=""images/choice_trial_2.png"" style=""width: 408px; height: 417px; margin-right: 200px;""><img src=""images/choice_trial_9.png"" style=""width: 408px; height: 417px;""></div></div>",f,delaylearn,learning,trial,OOiMxdf9dRUrVxQFfRCSBfGsATr1,OOiMxdf9dRUrVxQFfRCSBfGsATr1,2.0,images/choice_trial_2.png,images/choice_trial_9.png,images/pattern_5.png,j,f,750.0,2.0,9.0,4.0,0.0,33.0,1.0,0.0,2.0,190.0,,,,,,6096eca15340fc49ef3f1ab3,16:56:22,27/03/2024
html-keyboard-response,183,425788,0.0-76.0-1.0,,"<div style=""display: flex; flex-direction: column; align-items: center; margin-top: -40px;""><img src=""images/pattern_5.png"" style=""width: 234px; height: 230px; margin-top: -50px;""><div style=""display: flex; justify-content: space-between; margin-top: 33px;""><img src=""images/choice_trial_2.png"" style=""width: 408px; height: 417px; margin-right: 608px;""></div></div>",,delaylearn,learning,display_response,OOiMxdf9dRUrVxQFfRCSBfGsATr1,OOiMxdf9dRUrVxQFfRCSBfGsATr1,,,,,,,,,,,,,,,,,chosen stimuli: images/choice_trial_2.png,,,,,6096eca15340fc49ef3f1ab3,16:56:22,27/03/2024
html-keyboard-response,184,426540,0.0-76.0-2.0,,,,delaylearn,learning,feedback_duration_window,OOiMxdf9dRUrVxQFfRCSBfGsATr1,OOiMxdf9dRUrVxQFfRCSBfGsATr1,,,,,,,,,,,,,,,,,,750.0,,,,6096eca15340fc49ef3f1ab3,16:56:22,27/03/2024
html-keyboard-response,185,428042,0.0-76.0-3.0,,<div style='margin:auto;width: auto; font-size: 150%'><span style='font-weight: bold; font-size: 100px; color: red;'>0 points!</span><br><br></div>,,delaylearn,learning,feedback_image_window,OOiMxdf9dRUrVxQFfRCSBfGsATr1,OOiMxdf9dRUrVxQFfRCSBfGsATr1,,,,,,,,,,,,,,,,,,,,,,6096eca15340fc49ef3f1ab3,16:56:22,27/03/2024
html-keyboard-response,186,429775,0.0-77.0,,"<div style=""font-size:100px;"">+</div>",,delaylearn,learning,ITI,OOiMxdf9dRUrVxQFfRCSBfGsATr1,OOiMxdf9dRUrVxQFfRCSBfGsATr1,,,,,,,,,,,,,,,,,,,1731.0,,,6096eca15340fc49ef3f1ab3,16:56:22,27/03/2024
html-keyboard-response,187,431081,0.0-78.0-0.0,1304.0,"<div style=""display: flex; flex-direction: column; align-items: center; margin-top: -40px;""><img src=""images/pattern_1.png"" style=""width: 234px; height: 230px; margin-top: -50px;""><div style=""display: flex; justify-content: space-between; margin-top: 33px;""><img src=""images/choice_trial_3.png"" style=""width: 408px; height: 417px; margin-right: 200px;""><img src=""images/choice_trial_10.png"" style=""width: 408px; height: 417px;""></div></div>",f,delaylearn,learning,trial,OOiMxdf9dRUrVxQFfRCSBfGsATr1,OOiMxdf9dRUrVxQFfRCSBfGsATr1,2.0,images/choice_trial_3.png,images/choice_trial_10.png,images/pattern_1.png,f,f,7000.0,3.0,10.0,1.0,0.0,34.0,1.0,1.0,3.0,200.0,,,,,,6096eca15340fc49ef3f1ab3,16:56:22,27/03/2024
html-keyboard-response,188,432083,0.0-78.0-1.0,,"<div style=""display: flex; flex-direction: column; align-items: center; margin-top: -40px;""><img src=""images/pattern_1.png"" style=""width: 234px; height: 230px; margin-top: -50px;""><div style=""display: flex; justify-content: space-between; margin-top: 33px;""><img src=""images/choice_trial_3.png"" style=""width: 408px; height: 417px; margin-right: 608px;""></div></div>",,delaylearn,learning,display_response,OOiMxdf9dRUrVxQFfRCSBfGsATr1,OOiMxdf9dRUrVxQFfRCSBfGsATr1,,,,,,,,,,,,,,,,,chosen stimuli: images/choice_trial_3.png,,,,,6096eca15340fc49ef3f1ab3,16:56:22,27/03/2024
html-keyboard-response,189,439084,0.0-78.0-2.0,,,,delaylearn,learning,feedback_duration_window,OOiMxdf9dRUrVxQFfRCSBfGsATr1,OOiMxdf9dRUrVxQFfRCSBfGsATr1,,,,,,,,,,,,,,,,,,7000.0,,,,6096eca15340fc49ef3f1ab3,16:56:22,27/03/2024
html-keyboard-response,190,440586,0.0-78.0-3.0,,<div style='margin:auto;width: auto; font-size: 150%'><span style='font-weight: bold; font-size: 100px; color: green;'>+10 points!</span><br><br></div>,,delaylearn,learning,feedback_image_window,OOiMxdf9dRUrVxQFfRCSBfGsATr1,OOiMxdf9dRUrVxQFfRCSBfGsATr1,,,,,,,,,,,,,,,,,,,,,,6096eca15340fc49ef3f1ab3,16:56:22,27/03/2024
html-keyboard-response,191,441087,0.0-79.0-0.0,,,,,,mood_trial_fixation,OOiMxdf9dRUrVxQFfRCSBfGsATr1,,,,,,,,,,,,,,,,,,,,,,,6096eca15340fc49ef3f1ab3,16:56:22,27/03/2024
lmdlab-html-vas-response,192,444355,0.0-79.0-1.0,2263.0,How happy are you right now?,0.5018807870370371,delaylearn,learning,mood_trial,OOiMxdf9dRUrVxQFfRCSBfGsATr1,OOiMxdf9dRUrVxQFfRCSBfGsATr1,,,,,,,,,,,,,,,,,,,,"['Very unhappy', 'Very happy']",,6096eca15340fc49ef3f1ab3,16:56:22,27/03/2024
html-keyboard-response,193,446299,0.0-80.0,,"<div style=""font-size:100px;"">+</div>",,delaylearn,learning,ITI,OOiMxdf9dRUrVxQFfRCSBfGsATr1,OOiMxdf9dRUrVxQFfRCSBfGsATr1,,,,,,,,,,,,,,,,,,,1943.0,,,6096eca15340fc49ef3f1ab3,16:56:22,27/03/2024
html-keyboard-response,194,449302,0.0-81.0-0.0,,"<div style=""display: flex; flex-direction: column; align-items: center; margin-top: -40px;""><img src=""images/pattern_6.png"" style=""width: 234px; height: 230px; margin-top: -50px;""><div style=""display: flex; justify-content: space-between; margin-top: 33px;""><img src=""images/choice_trial_11.png"" style=""width: 408px; height: 417px; margin-right: 200px;""><img src=""images/choice_trial_5.png"" style=""width: 408px; height: 417px;""></div></div>",,delaylearn,learning,trial,OOiMxdf9dRUrVxQFfRCSBfGsATr1,OOiMxdf9dRUrVxQFfRCSBfGsATr1,2.0,images/choice_trial_11.png,images/choice_trial_5.png,images/pattern_6.png,j,f,750.0,11.0,5.0,5.0,0.0,35.0,0.0,0.0,0.0,200.0,,,,,,6096eca15340fc49ef3f1ab3,16:56:22,27/03/2024
html-keyboard-response,195,450304,0.0-81.0-1.0,,<div style='font-weight: bold; font-size: 75px; color: red;'>Missed Trial <br><br><br><br> Please respond faster</div>,,delaylearn,learning,display_response,OOiMxdf9dRUrVxQFfRCSBfGsATr1,OOiMxdf9dRUrVxQFfRCSBfGsATr1,,,,,,,,,,,,,,,,,Missed trial,,,,,6096eca15340fc49ef3f1ab3,16:56:22,27/03/2024
html-keyboard-response,196,450304,0.0-81.0-2.0,,,,delaylearn,learning,feedback_duration_window,OOiMxdf9dRUrVxQFfRCSBfGsATr1,OOiMxdf9dRUrVxQFfRCSBfGsATr1,,,,,,,,,,,,,,,,,,0.0,,,,6096eca15340fc49ef3f1ab3,16:56:22,27/03/2024
html-keyboard-response,197,450305,0.0-81.0-3.0,,,,delaylearn,learning,feedback_image_window,OOiMxdf9dRUrVxQFfRCSBfGsATr1,OOiMxdf9dRUrVxQFfRCSBfGsATr1,,,,,,,,,,,,,,,,,,,,,,6096eca15340fc49ef3f1ab3,16:56:22,27/03/2024
html-keyboard-response,198,452360,0.0-82.0,,"<div style=""font-size:100px;"">+</div>",,delaylearn,learning,ITI,OOiMxdf9dRUrVxQFfRCSBfGsATr1,OOiMxdf9dRUrVxQFfRCSBfGsATr1,,,,,,,,,,,,,,,,,,,2053.0,,,6096eca15340fc49ef3f1ab3,16:56:22,27/03/2024
html-keyboard-response,199,453230,0.0-83.0-0.0,867.0,"<div style=""display: flex; flex-direction: column; align-items: center; margin-top: -40px;""><img src=""images/pattern_3.png"" style=""width: 234px; height: 230px; margin-top: -50px;""><div style=""display: flex; justify-content: space-between; margin-top: 33px;""><img src=""images/choice_trial_14.png"" style=""width: 408px; height: 417px; margin-right: 200px;""><img src=""images/choice_trial_12.png"" style=""width: 408px; height: 417px;""></div></div>",j,delaylearn,learning,trial,OOiMxdf9dRUrVxQFfRCSBfGsATr1,OOiMxdf9dRUrVxQFfRCSBfGsATr1,2.0,images/choice_trial_14.png,images/choice_trial_12.png,images/pattern_3.png,j,j,7000.0,14.0,12.0,2.0,1.0,36.0,1.0,1.0,12.0,210.0,,,,,,6096eca15340fc49ef3f1ab3,16:56:22,27/03/2024
html-keyboard-response,200,454233,0.0-83.0-1.0,,"<div style=""display: flex; flex-direction: column; align-items: center; margin-top: -40px;""><img src=""images/pattern_3.png"" style=""width: 234px; height: 230px; margin-top: -50px;""><div style=""display: flex; justify-content: space-between; margin-top: 33px;""><img src=""images/choice_trial_12.png"" style=""width: 408px; height: 417px; margin-left:608px;""></div></div>",,delaylearn,learning,display_response,OOiMxdf9dRUrVxQFfRCSBfGsATr1,OOiMxdf9dRUrVxQFfRCSBfGsATr1,,,,,,,,,,,,,,,,,chosen stimuli: images/choice_trial_12.png,,,,,6096eca15340fc49ef3f1ab3,16:56:22,27/03/2024
html-keyboard-response,201,461235,0.0-83.0-2.0,,,,delaylearn,learning,feedback_duration_window,OOiMxdf9dRUrVxQFfRCSBfGsATr1,OOiMxdf9dRUrVxQFfRCSBfGsATr1,,,,,,,,,,,,,,,,,,7000.0,,,,6096eca15340fc49ef3f1ab3,16:56:22,27/03/2024
html-keyboard-response,202,462737,0.0-83.0-3.0,,<div style='margin:auto;width: auto; font-size: 150%'><span style='font-weight: bold; font-size: 100px; color: green;'>+10 points!</span><br><br></div>,,delaylearn,learning,feedback_image_window,OOiMxdf9dRUrVxQFfRCSBfGsATr1,OOiMxdf9dRUrVxQFfRCSBfGsATr1,,,,,,,,,,,,,,,,,,,,,,6096eca15340fc49ef3f1ab3,16:56:22,27/03/2024
html-keyboard-response,203,464475,0.0-84.0,,"<div style=""font-size:100px;"">+</div>",,delaylearn,learning,ITI,OOiMxdf9dRUrVxQFfRCSBfGsATr1,OOiMxdf9dRUrVxQFfRCSBfGsATr1,,,,,,,,,,,,,,,,,,,1736.0,,,6096eca15340fc49ef3f1ab3,16:56:22,27/03/2024
html-keyboard-response,204,465431,0.0-85.0-0.0,954.0,"<div style=""display: flex; flex-direction: column; align-items: center; margin-top: -40px;""><img src=""images/pattern_4.png"" style=""width: 234px; height: 230px; margin-top: -50px;""><div style=""display: flex; justify-content: space-between; margin-top: 33px;""><img src=""images/choice_trial_16.png"" style=""width: 408px; height: 417px; margin-right: 200px;""><img src=""images/choice_trial_4.png"" style=""width: 408px; height: 417px;""></div></div>",j,delaylearn,learning,trial,OOiMxdf9dRUrVxQFfRCSBfGsATr1,OOiMxdf9dRUrVxQFfRCSBfGsATr1,2.0,images/choice_trial_16.png,images/choice_trial_4.png,images/pattern_4.png,f,j,7000.0,16.0,4.0,3.0,1.0,37.0,1.0,0.0,4.0,210.0,,,,,,6096eca15340fc49ef3f1ab3,16:56:22,27/03/2024
html-keyboard-response,205,466433,0.0-85.0-1.0,,"<div style=""display: flex; flex-direction: column; align-items: center; margin-top: -40px;""><img src=""images/pattern_4.png"" style=""width: 234px; height: 230px; margin-top: -50px;""><div style=""display: flex; justify-content: space-between; margin-top: 33px;""><img src=""images/choice_trial_4.png"" style=""width: 408px; height: 417px; margin-left:608px;""></div></div>",,delaylearn,learning,display_response,OOiMxdf9dRUrVxQFfRCSBfGsATr1,OOiMxdf9dRUrVxQFfRCSBfGsATr1,,,,,,,,,,,,,,,,,chosen stimuli: images/choice_trial_4.png,,,,,6096eca15340fc49ef3f1ab3,16:56:22,27/03/2024
html-keyboard-response,206,473435,0.0-85.0-2.0,,,,delaylearn,learning,feedback_duration_window,OOiMxdf9dRUrVxQFfRCSBfGsATr1,OOiMxdf9dRUrVxQFfRCSBfGsATr1,,,,,,,,,,,,,,,,,,7000.0,,,,6096eca15340fc49ef3f1ab3,16:56:22,27/03/2024
html-keyboard-response,207,474937,0.0-85.0-3.0,,<div style='margin:auto;width: auto; font-size: 150%'><span style='font-weight: bold; font-size: 100px; color: red;'>0 points!</span><br><br></div>,,delaylearn,learning,feedback_image_window,OOiMxdf9dRUrVxQFfRCSBfGsATr1,OOiMxdf9dRUrVxQFfRCSBfGsATr1,,,,,,,,,,,,,,,,,,,,,,6096eca15340fc49ef3f1ab3,16:56:22,27/03/2024
html-keyboard-response,208,476550,0.0-86.0,,"<div style=""font-size:100px;"">+</div>",,delaylearn,learning,ITI,OOiMxdf9dRUrVxQFfRCSBfGsATr1,OOiMxdf9dRUrVxQFfRCSBfGsATr1,,,,,,,,,,,,,,,,,,,1612.0,,,6096eca15340fc49ef3f1ab3,16:56:22,27/03/2024
html-keyboard-response,209,477896,0.0-87.0-0.0,1344.0,"<div style=""display: flex; flex-direction: column; align-items: center; margin-top: -40px;""><img src=""images/pattern_7.png"" style=""width: 234px; height: 230px; margin-top: -50px;""><div style=""display: flex; justify-content: space-between; margin-top: 33px;""><img src=""images/choice_trial_8.png"" style=""width: 408px; height: 417px; margin-right: 200px;""><img src=""images/choice_trial_15.png"" style=""width: 408px; height: 417px;""></div></div>",j,delaylearn,learning,trial,OOiMxdf9dRUrVxQFfRCSBfGsATr1,OOiMxdf9dRUrVxQFfRCSBfGsATr1,2.0,images/choice_trial_8.png,images/choice_trial_15.png,images/pattern_7.png,f,f,750.0,8.0,15.0,6.0,0.0,38.0,0.0,0.0,15.0,210.0,,,,,,6096eca15340fc49ef3f1ab3,16:56:22,27/03/2024
html-keyboard-response,210,478897,0.0-87.0-1.0,,"<div style=""display: flex; flex-direction: column; align-items: center; margin-top: -40px;""><img src=""images/pattern_7.png"" style=""width: 234px; height: 230px; margin-top: -50px;""><div style=""display: flex; justify-content: space-between; margin-top: 33px;""><img src=""images/choice_trial_15.png"" style=""width: 408px; height: 417px; margin-left:608px;""></div></div>",,delaylearn,learning,display_response,OOiMxdf9dRUrVxQFfRCSBfGsATr1,OOiMxdf9dRUrVxQFfRCSBfGsATr1,,,,,,,,,,,,,,,,,chosen stimuli: images/choice_trial_15.png,,,,,6096eca15340fc49ef3f1ab3,16:56:22,27/03/2024
html-keyboard-response,211,479648,0.0-87.0-2.0,,,,delaylearn,learning,feedback_duration_window,OOiMxdf9dRUrVxQFfRCSBfGsATr1,OOiMxdf9dRUrVxQFfRCSBfGsATr1,,,,,,,,,,,,,,,,,,750.0,,,,6096eca15340fc49ef3f1ab3,16:56:22,27/03/2024
html-keyboard-response,212,481149,0.0-87.0-3.0,,<div style='margin:auto;width: auto; font-size: 150%'><span style='font-weight: bold; font-size: 100px; color: red;'>0 points!</span><br><br></div>,,delaylearn,learning,feedback_image_window,OOiMxdf9dRUrVxQFfRCSBfGsATr1,OOiMxdf9dRUrVxQFfRCSBfGsATr1,,,,,,,,,,,,,,,,,,,,,,6096eca15340fc49ef3f1ab3,16:56:22,27/03/2024
html-keyboard-response,213,483073,0.0-88.0,,"<div style=""font-size:100px;"">+</div>",,delaylearn,learning,ITI,OOiMxdf9dRUrVxQFfRCSBfGsATr1,OOiMxdf9dRUrVxQFfRCSBfGsATr1,,,,,,,,,,,,,,,,,,,1922.0,,,6096eca15340fc49ef3f1ab3,16:56:22,27/03/2024
html-keyboard-response,214,483857,0.0-89.0-0.0,777.0,"<div style=""display: flex; flex-direction: column; align-items: center; margin-top: -40px;""><img src=""images/pattern_1.png"" style=""width: 234px; height: 230px; margin-top: -50px;""><div style=""display: flex; justify-content: space-between; margin-top: 33px;""><img src=""images/choice_trial_3.png"" style=""width: 408px; height: 417px; margin-right: 200px;""><img src=""images/choice_trial_10.png"" style=""width: 408px; height: 417px;""></div></div>",f,delaylearn,learning,trial,OOiMxdf9dRUrVxQFfRCSBfGsATr1,OOiMxdf9dRUrVxQFfRCSBfGsATr1,2.0,images/choice_trial_3.png,images/choice_trial_10.png,images/pattern_1.png,f,f,7000.0,3.0,10.0,1.0,0.0,39.0,1.0,1.0,3.0,220.0,,,,,,6096eca15340fc49ef3f1ab3,16:56:22,27/03/2024
html-keyboard-response,215,484859,0.0-89.0-1.0,,"<div style=""display: flex; flex-direction: column; align-items: center; margin-top: -40px;""><img src=""images/pattern_1.png"" style=""width: 234px; height: 230px; margin-top: -50px;""><div style=""display: flex; justify-content: space-between; margin-top: 33px;""><img src=""images/choice_trial_3.png"" style=""width: 408px; height: 417px; margin-right: 608px;""></div></div>",,delaylearn,learning,display_response,OOiMxdf9dRUrVxQFfRCSBfGsATr1,OOiMxdf9dRUrVxQFfRCSBfGsATr1,,,,,,,,,,,,,,,,,chosen stimuli: images/choice_trial_3.png,,,,,6096eca15340fc49ef3f1ab3,16:56:22,27/03/2024
html-keyboard-response,216,491861,0.0-89.0-2.0,,,,delaylearn,learning,feedback_duration_window,OOiMxdf9dRUrVxQFfRCSBfGsATr1,OOiMxdf9dRUrVxQFfRCSBfGsATr1,,,,,,,,,,,,,,,,,,7000.0,,,,6096eca15340fc49ef3f1ab3,16:56:22,27/03/2024
html-keyboard-response,217,493363,0.0-89.0-3.0,,<div style='margin:auto;width: auto; font-size: 150%'><span style='font-weight: bold; font-size: 100px; color: green;'>+10 points!</span><br><br></div>,,delaylearn,learning,feedback_image_window,OOiMxdf9dRUrVxQFfRCSBfGsATr1,OOiMxdf9dRUrVxQFfRCSBfGsATr1,,,,,,,,,,,,,,,,,,,,,,6096eca15340fc49ef3f1ab3,16:56:22,27/03/2024
html-keyboard-response,218,493865,0.0-90.0-0.0,,,,,,mood_trial_fixation,OOiMxdf9dRUrVxQFfRCSBfGsATr1,,,,,,,,,,,,,,,,,,,,,,,6096eca15340fc49ef3f1ab3,16:56:22,27/03/2024
lmdlab-html-vas-response,219,497759,0.0-90.0-1.0,2890.0,How happy are you right now?,0.4574363425925926,delaylearn,learning,mood_trial,OOiMxdf9dRUrVxQFfRCSBfGsATr1,OOiMxdf9dRUrVxQFfRCSBfGsATr1,,,,,,,,,,,,,,,,,,,,"['Very unhappy', 'Very happy']",,6096eca15340fc49ef3f1ab3,16:56:22,27/03/2024
html-keyboard-response,220,499408,0.0-91.0,,"<div style=""font-size:100px;"">+</div>",,delaylearn,learning,ITI,OOiMxdf9dRUrVxQFfRCSBfGsATr1,OOiMxdf9dRUrVxQFfRCSBfGsATr1,,,,,,,,,,,,,,,,,,,1648.0,,,6096eca15340fc49ef3f1ab3,16:56:22,27/03/2024
html-keyboard-response,221,501198,0.0-92.0-0.0,1786.9999999997672,"<div style=""display: flex; flex-direction: column; align-items: center; margin-top: -40px;""><img src=""images/pattern_3.png"" style=""width: 234px; height: 230px; margin-top: -50px;""><div style=""display: flex; justify-content: space-between; margin-top: 33px;""><img src=""images/choice_trial_12.png"" style=""width: 408px; height: 417px; margin-right: 200px;""><img src=""images/choice_trial_14.png"" style=""width: 408px; height: 417px;""></div></div>",j,delaylearn,learning,trial,OOiMxdf9dRUrVxQFfRCSBfGsATr1,OOiMxdf9dRUrVxQFfRCSBfGsATr1,2.0,images/choice_trial_12.png,images/choice_trial_14.png,images/pattern_3.png,j,f,7000.0,12.0,14.0,2.0,0.0,40.0,0.0,1.0,14.0,230.0,,,,,,6096eca15340fc49ef3f1ab3,16:56:22,27/03/2024
html-keyboard-response,222,502201,0.0-92.0-1.0,,"<div style=""display: flex; flex-direction: column; align-items: center; margin-top: -40px;""><img src=""images/pattern_3.png"" style=""width: 234px; height: 230px; margin-top: -50px;""><div style=""display: flex; justify-content: space-between; margin-top: 33px;""><img src=""images/choice_trial_14.png"" style=""width: 408px; height: 417px; margin-left:608px;""></div></div>",,delaylearn,learning,display_response,OOiMxdf9dRUrVxQFfRCSBfGsATr1,OOiMxdf9dRUrVxQFfRCSBfGsATr1,,,,,,,,,,,,,,,,,chosen stimuli: images/choice_trial_14.png,,,,,6096eca15340fc49ef3f1ab3,16:56:22,27/03/2024
html-keyboard-response,223,509205,0.0-92.0-2.0,,,,delaylearn,learning,feedback_duration_window,OOiMxdf9dRUrVxQFfRCSBfGsATr1,OOiMxdf9dRUrVxQFfRCSBfGsATr1,,,,,,,,,,,,,,,,,,7000.0,,,,6096eca15340fc49ef3f1ab3,16:56:22,27/03/2024
html-keyboard-response,224,510707,0.0-92.0-3.0,,<div style='margin:auto;width: auto; font-size: 150%'><span style='font-weight: bold; font-size: 100px; color: green;'>+10 points!</span><br><br></div>,,delaylearn,learning,feedback_image_window,OOiMxdf9dRUrVxQFfRCSBfGsATr1,OOiMxdf9dRUrVxQFfRCSBfGsATr1,,,,,,,,,,,,,,,,,,,,,,6096eca15340fc49ef3f1ab3,16:56:22,27/03/2024
html-keyboard-response,225,512450,0.0-93.0,,"<div style=""font-size:100px;"">+</div>",,delaylearn,learning,ITI,OOiMxdf9dRUrVxQFfRCSBfGsATr1,OOiMxdf9dRUrVxQFfRCSBfGsATr1,,,,,,,,,,,,,,,,,,,1741.0,,,6096eca15340fc49ef3f1ab3,16:56:22,27/03/2024
html-keyboard-response,226,513440,0.0-94.0-0.0,986.9999999997672,"<div style=""display: flex; flex-direction: column; align-items: center; margin-top: -40px;""><img src=""images/pattern_7.png"" style=""width: 234px; height: 230px; margin-top: -50px;""><div style=""display: flex; justify-content: space-between; margin-top: 33px;""><img src=""images/choice_trial_15.png"" style=""width: 408px; height: 417px; margin-right: 200px;""><img src=""images/choice_trial_8.png"" style=""width: 408px; height: 417px;""></div></div>",j,delaylearn,learning,trial,OOiMxdf9dRUrVxQFfRCSBfGsATr1,OOiMxdf9dRUrVxQFfRCSBfGsATr1,2.0,images/choice_trial_15.png,images/choice_trial_8.png,images/pattern_7.png,j,j,750.0,15.0,8.0,6.0,1.0,41.0,1.0,1.0,8.0,240.0,,,,,,6096eca15340fc49ef3f1ab3,16:56:22,27/03/2024
html-keyboard-response,227,514446,0.0-94.0-1.0,,"<div style=""display: flex; flex-direction: column; align-items: center; margin-top: -40px;""><img src=""images/pattern_7.png"" style=""width: 234px; height: 230px; margin-top: -50px;""><div style=""display: flex; justify-content: space-between; margin-top: 33px;""><img src=""images/choice_trial_8.png"" style=""width: 408px; height: 417px; margin-left:608px;""></div></div>",,delaylearn,learning,display_response,OOiMxdf9dRUrVxQFfRCSBfGsATr1,OOiMxdf9dRUrVxQFfRCSBfGsATr1,,,,,,,,,,,,,,,,,chosen stimuli: images/choice_trial_8.png,,,,,6096eca15340fc49ef3f1ab3,16:56:22,27/03/2024
html-keyboard-response,228,515198,0.0-94.0-2.0,,,,delaylearn,learning,feedback_duration_window,OOiMxdf9dRUrVxQFfRCSBfGsATr1,OOiMxdf9dRUrVxQFfRCSBfGsATr1,,,,,,,,,,,,,,,,,,750.0,,,,6096eca15340fc49ef3f1ab3,16:56:22,27/03/2024
html-keyboard-response,229,516700,0.0-94.0-3.0,,<div style='margin:auto;width: auto; font-size: 150%'><span style='font-weight: bold; font-size: 100px; color: green;'>+10 points!</span><br><br></div>,,delaylearn,learning,feedback_image_window,OOiMxdf9dRUrVxQFfRCSBfGsATr1,OOiMxdf9dRUrVxQFfRCSBfGsATr1,,,,,,,,,,,,,,,,,,,,,,6096eca15340fc49ef3f1ab3,16:56:22,27/03/2024
html-keyboard-response,230,518657,0.0-95.0,,"<div style=""font-size:100px;"">+</div>",,delaylearn,learning,ITI,OOiMxdf9dRUrVxQFfRCSBfGsATr1,OOiMxdf9dRUrVxQFfRCSBfGsATr1,,,,,,,,,,,,,,,,,,,1955.0,,,6096eca15340fc49ef3f1ab3,16:56:22,27/03/2024
html-keyboard-response,231,519778,0.0-96.0-0.0,1118.0000000001164,"<div style=""display: flex; flex-direction: column; align-items: center; margin-top: -40px;""><img src=""images/pattern_5.png"" style=""width: 234px; height: 230px; margin-top: -50px;""><div style=""display: flex; justify-content: space-between; margin-top: 33px;""><img src=""images/choice_trial_9.png"" style=""width: 408px; height: 417px; margin-right: 200px;""><img src=""images/choice_trial_2.png"" style=""width: 408px; height: 417px;""></div></div>",j,delaylearn,learning,trial,OOiMxdf9dRUrVxQFfRCSBfGsATr1,OOiMxdf9dRUrVxQFfRCSBfGsATr1,2.0,images/choice_trial_9.png,images/choice_trial_2.png,images/pattern_5.png,j,j,750.0,9.0,2.0,4.0,1.0,42.0,1.0,1.0,2.0,250.0,,,,,,6096eca15340fc49ef3f1ab3,16:56:22,27/03/2024
