trial_type,trial_index,time_elapsed,internal_node_id,rt,stimulus,response,exp_name,exp_stage,test_part,subjectID,databaseID,counterbal,choice_stimuli_1,choice_stimuli_2,pattern_stimuli,rewarded_answer,correct_answer,feedback_duration_times,stim_left,stim_right,pair,leftright_counter,trial,response_correct,response_rewarded,chosen_stim,counter,displayed_choice,feedback_durations,ITI_duration,labels,rest_warning,prolificID,start_time,date
pavlovia,0,501,0.0-0.0,,,,,,,nfynK0tiVAg2JbfmoiXFEZHbxHi2,,,,,,,,,,,,,,,,,,,,,,,627a76b96bea55210aecbba9,09:05:59,27/02/2024
html-keyboard-response,1,3515,0.0-1.0,,"<div style=""font-size:100px;"">+</div>",,delaylearn,learning,pre_fixation,nfynK0tiVAg2JbfmoiXFEZHbxHi2,,,,,,,,,,,,,,,,,,,,,,,627a76b96bea55210aecbba9,09:05:59,27/02/2024
html-keyboard-response,2,4459,0.0-2.0-0.0,943.2000000029802,"<div style=""display: flex; flex-direction: column; align-items: center; margin-top: -40px;""><img src=""images/demo_images/pattern_1.png"" style=""width: 234px; height: 230px; margin-top: -50px;""><div style=""display: flex; justify-content: space-between; margin-top: 33px;""><img src=""images/demo_images/choice_trial_2.png"" style=""width: 408px; height: 417px; margin-right: 200px;""><img src=""images/demo_images/choice_trial_1.png"" style=""width: 408px; height: 417px;""></div></div>",f,delaylearn,learning,trial,nfynK0tiVAg2JbfmoiXFEZHbxHi2,nfynK0tiVAg2JbfmoiXFEZHbxHi2,3.0,images/demo_images/choice_trial_2.png,images/demo_images/choice_trial_1.png,images/demo_images/pattern_1.png,j,j,3000.0,2.0,1.0,20.0,1.0,1.0,0.0,0.0,2.0,0.0,,,,,,627a76b96bea55210aecbba9,09:05:59,27/02/2024
html-keyboard-response,3,5470,0.0-2.0-1.0,,"<div style=""display: flex; flex-direction: column; align-items: center; margin-top: -40px;""><img src=""images/demo_images/pattern_1.png"" style=""width: 234px; height: 230px; margin-top: -50px;""><div style=""display: flex; justify-content: space-between; margin-top: 33px;""><img src=""images/demo_images/choice_trial_2.png"" style=""width: 408px; height: 417px; margin-right: 608px;""></div></div>",,delaylearn,learning,display_response,nfynK0tiVAg2JbfmoiXFEZHbxHi2,nfynK0tiVAg2JbfmoiXFEZHbxHi2,,,,,,,,,,,,,,,,,chosen stimuli: images/demo_images/choice_trial_2.png,,,,,627a76b96bea55210aecbba9,09:05:59,27/02/2024
html-keyboard-response,4,8472,0.0-2.0-2.0,,,,delaylearn,learning,feedback_duration_window,nfynK0tiVAg2JbfmoiXFEZHbxHi2,nfynK0tiVAg2JbfmoiXFEZHbxHi2,,,,,,,,,,,,,,,,,,3000.0,,,,627a76b96bea55210aecbba9,09:05:59,27/02/2024
html-keyboard-response,5,9985,0.0-2.0-3.0,,<div style='margin:auto;width: auto; font-size: 150%'><span style='font-weight: bold; font-size: 100px; color: red;'>0 points!</span><br><br></div>,,delaylearn,learning,feedback_image_window,nfynK0tiVAg2JbfmoiXFEZHbxHi2,nfynK0tiVAg2JbfmoiXFEZHbxHi2,,,,,,,,,,,,,,,,,,,,,,627a76b96bea55210aecbba9,09:05:59,27/02/2024
html-keyboard-response,6,11595,0.0-3.0,,"<div style=""font-size:100px;"">+</div>",,delaylearn,learning,ITI,nfynK0tiVAg2JbfmoiXFEZHbxHi2,nfynK0tiVAg2JbfmoiXFEZHbxHi2,,,,,,,,,,,,,,,,,,,1603.0,,,627a76b96bea55210aecbba9,09:05:59,27/02/2024
html-keyboard-response,7,12779,0.0-4.0-0.0,1182.0,"<div style=""display: flex; flex-direction: column; align-items: center; margin-top: -40px;""><img src=""images/demo_images/pattern_1.png"" style=""width: 234px; height: 230px; margin-top: -50px;""><div style=""display: flex; justify-content: space-between; margin-top: 33px;""><img src=""images/demo_images/choice_trial_2.png"" style=""width: 408px; height: 417px; margin-right: 200px;""><img src=""images/demo_images/choice_trial_1.png"" style=""width: 408px; height: 417px;""></div></div>",j,delaylearn,learning,trial,nfynK0tiVAg2JbfmoiXFEZHbxHi2,nfynK0tiVAg2JbfmoiXFEZHbxHi2,3.0,images/demo_images/choice_trial_2.png,images/demo_images/choice_trial_1.png,images/demo_images/pattern_1.png,j,j,3000.0,2.0,1.0,20.0,1.0,2.0,1.0,1.0,1.0,10.0,,,,,,627a76b96bea55210aecbba9,09:05:59,27/02/2024
html-keyboard-response,8,13785,0.0-4.0-1.0,,"<div style=""display: flex; flex-direction: column; align-items: center; margin-top: -40px;""><img src=""images/demo_images/pattern_1.png"" style=""width: 234px; height: 230px; margin-top: -50px;""><div style=""display: flex; justify-content: space-between; margin-top: 33px;""><img src=""images/demo_images/choice_trial_1.png"" style=""width: 408px; height: 417px; margin-left:608px;""></div></div>",,delaylearn,learning,display_response,nfynK0tiVAg2JbfmoiXFEZHbxHi2,nfynK0tiVAg2JbfmoiXFEZHbxHi2,,,,,,,,,,,,,,,,,chosen stimuli: images/demo_images/choice_trial_1.png,,,,,627a76b96bea55210aecbba9,09:05:59,27/02/2024
html-keyboard-response,9,16787,0.0-4.0-2.0,,,,delaylearn,learning,feedback_duration_window,nfynK0tiVAg2JbfmoiXFEZHbxHi2,nfynK0tiVAg2JbfmoiXFEZHbxHi2,,,,,,,,,,,,,,,,,,3000.0,,,,627a76b96bea55210aecbba9,09:05:59,27/02/2024
html-keyboard-response,10,18288,0.0-4.0-3.0,,<div style='margin:auto;width: auto; font-size: 150%'><span style='font-weight: bold; font-size: 100px; color: green;'>+10 points!</span><br><br></div>,,delaylearn,learning,feedback_image_window,nfynK0tiVAg2JbfmoiXFEZHbxHi2,nfynK0tiVAg2JbfmoiXFEZHbxHi2,,,,,,,,,,,,,,,,,,,,,,627a76b96bea55210aecbba9,09:05:59,27/02/2024
html-keyboard-response,11,20369,0.0-5.0,,"<div style=""font-size:100px;"">+</div>",,delaylearn,learning,ITI,nfynK0tiVAg2JbfmoiXFEZHbxHi2,nfynK0tiVAg2JbfmoiXFEZHbxHi2,,,,,,,,,,,,,,,,,,,2073.0,,,627a76b96bea55210aecbba9,09:05:59,27/02/2024
html-keyboard-response,12,21843,0.0-6.0-0.0,1472.7000000029802,"<div style=""display: flex; flex-direction: column; align-items: center; margin-top: -40px;""><img src=""images/demo_images/pattern_1.png"" style=""width: 234px; height: 230px; margin-top: -50px;""><div style=""display: flex; justify-content: space-between; margin-top: 33px;""><img src=""images/demo_images/choice_trial_1.png"" style=""width: 408px; height: 417px; margin-right: 200px;""><img src=""images/demo_images/choice_trial_2.png"" style=""width: 408px; height: 417px;""></div></div>",f,delaylearn,learning,trial,nfynK0tiVAg2JbfmoiXFEZHbxHi2,nfynK0tiVAg2JbfmoiXFEZHbxHi2,3.0,images/demo_images/choice_trial_1.png,images/demo_images/choice_trial_2.png,images/demo_images/pattern_1.png,j,f,3000.0,1.0,2.0,20.0,0.0,3.0,1.0,0.0,1.0,10.0,,,,,,627a76b96bea55210aecbba9,09:05:59,27/02/2024
html-keyboard-response,13,22845,0.0-6.0-1.0,,"<div style=""display: flex; flex-direction: column; align-items: center; margin-top: -40px;""><img src=""images/demo_images/pattern_1.png"" style=""width: 234px; height: 230px; margin-top: -50px;""><div style=""display: flex; justify-content: space-between; margin-top: 33px;""><img src=""images/demo_images/choice_trial_1.png"" style=""width: 408px; height: 417px; margin-right: 608px;""></div></div>",,delaylearn,learning,display_response,nfynK0tiVAg2JbfmoiXFEZHbxHi2,nfynK0tiVAg2JbfmoiXFEZHbxHi2,,,,,,,,,,,,,,,,,chosen stimuli: images/demo_images/choice_trial_1.png,,,,,627a76b96bea55210aecbba9,09:05:59,27/02/2024
html-keyboard-response,14,25856,0.0-6.0-2.0,,,,delaylearn,learning,feedback_duration_window,nfynK0tiVAg2JbfmoiXFEZHbxHi2,nfynK0tiVAg2JbfmoiXFEZHbxHi2,,,,,,,,,,,,,,,,,,3000.0,,,,627a76b96bea55210aecbba9,09:05:59,27/02/2024
html-keyboard-response,15,27364,0.0-6.0-3.0,,<div style='margin:auto;width: auto; font-size: 150%'><span style='font-weight: bold; font-size: 100px; color: red;'>0 points!</span><br><br></div>,,delaylearn,learning,feedback_image_window,nfynK0tiVAg2JbfmoiXFEZHbxHi2,nfynK0tiVAg2JbfmoiXFEZHbxHi2,,,,,,,,,,,,,,,,,,,,,,627a76b96bea55210aecbba9,09:05:59,27/02/2024
html-keyboard-response,16,28966,0.0-7.0,,"<div style=""font-size:100px;"">+</div>",,delaylearn,learning,ITI,nfynK0tiVAg2JbfmoiXFEZHbxHi2,nfynK0tiVAg2JbfmoiXFEZHbxHi2,,,,,,,,,,,,,,,,,,,1599.0,,,627a76b96bea55210aecbba9,09:05:59,27/02/2024
html-keyboard-response,17,30259,0.0-8.0-0.0,1291.5,"<div style=""display: flex; flex-direction: column; align-items: center; margin-top: -40px;""><img src=""images/demo_images/pattern_1.png"" style=""width: 234px; height: 230px; margin-top: -50px;""><div style=""display: flex; justify-content: space-between; margin-top: 33px;""><img src=""images/demo_images/choice_trial_1.png"" style=""width: 408px; height: 417px; margin-right: 200px;""><img src=""images/demo_images/choice_trial_2.png"" style=""width: 408px; height: 417px;""></div></div>",j,delaylearn,learning,trial,nfynK0tiVAg2JbfmoiXFEZHbxHi2,nfynK0tiVAg2JbfmoiXFEZHbxHi2,3.0,images/demo_images/choice_trial_1.png,images/demo_images/choice_trial_2.png,images/demo_images/pattern_1.png,f,f,3000.0,1.0,2.0,20.0,0.0,4.0,0.0,0.0,2.0,10.0,,,,,,627a76b96bea55210aecbba9,09:05:59,27/02/2024
html-keyboard-response,18,31270,0.0-8.0-1.0,,"<div style=""display: flex; flex-direction: column; align-items: center; margin-top: -40px;""><img src=""images/demo_images/pattern_1.png"" style=""width: 234px; height: 230px; margin-top: -50px;""><div style=""display: flex; justify-content: space-between; margin-top: 33px;""><img src=""images/demo_images/choice_trial_2.png"" style=""width: 408px; height: 417px; margin-left:608px;""></div></div>",,delaylearn,learning,display_response,nfynK0tiVAg2JbfmoiXFEZHbxHi2,nfynK0tiVAg2JbfmoiXFEZHbxHi2,,,,,,,,,,,,,,,,,chosen stimuli: images/demo_images/choice_trial_2.png,,,,,627a76b96bea55210aecbba9,09:05:59,27/02/2024
html-keyboard-response,19,34286,0.0-8.0-2.0,,,,delaylearn,learning,feedback_duration_window,nfynK0tiVAg2JbfmoiXFEZHbxHi2,nfynK0tiVAg2JbfmoiXFEZHbxHi2,,,,,,,,,,,,,,,,,,3000.0,,,,627a76b96bea55210aecbba9,09:05:59,27/02/2024
html-keyboard-response,20,35793,0.0-8.0-3.0,,<div style='margin:auto;width: auto; font-size: 150%'><span style='font-weight: bold; font-size: 100px; color: red;'>0 points!</span><br><br></div>,,delaylearn,learning,feedback_image_window,nfynK0tiVAg2JbfmoiXFEZHbxHi2,nfynK0tiVAg2JbfmoiXFEZHbxHi2,,,,,,,,,,,,,,,,,,,,,,627a76b96bea55210aecbba9,09:05:59,27/02/2024
html-keyboard-response,21,36309,0.0-9.0-0.0,,,,,,mood_trial_fixation,nfynK0tiVAg2JbfmoiXFEZHbxHi2,,,,,,,,,,,,,,,,,,,,,,,627a76b96bea55210aecbba9,09:05:59,27/02/2024
lmdlab-html-vas-response,22,40992,0.0-9.0-1.0,3664.0,How happy are you right now?,0.5108024691358025,delaylearn,learning,mood_trial,nfynK0tiVAg2JbfmoiXFEZHbxHi2,nfynK0tiVAg2JbfmoiXFEZHbxHi2,,,,,,,,,,,,,,,,,,,,"['Very unhappy', 'Very happy']",,627a76b96bea55210aecbba9,09:05:59,27/02/2024
html-keyboard-response,23,43268,0.0-10.0,,"<div style=""font-size:100px;"">+</div>",,delaylearn,learning,ITI,nfynK0tiVAg2JbfmoiXFEZHbxHi2,nfynK0tiVAg2JbfmoiXFEZHbxHi2,,,,,,,,,,,,,,,,,,,2263.0,,,627a76b96bea55210aecbba9,09:05:59,27/02/2024
html-keyboard-response,24,44627,0.0-11.0-0.0,1358.2000000029802,"<div style=""display: flex; flex-direction: column; align-items: center; margin-top: -40px;""><img src=""images/demo_images/pattern_1.png"" style=""width: 234px; height: 230px; margin-top: -50px;""><div style=""display: flex; justify-content: space-between; margin-top: 33px;""><img src=""images/demo_images/choice_trial_2.png"" style=""width: 408px; height: 417px; margin-right: 200px;""><img src=""images/demo_images/choice_trial_1.png"" style=""width: 408px; height: 417px;""></div></div>",j,delaylearn,learning,trial,nfynK0tiVAg2JbfmoiXFEZHbxHi2,nfynK0tiVAg2JbfmoiXFEZHbxHi2,3.0,images/demo_images/choice_trial_2.png,images/demo_images/choice_trial_1.png,images/demo_images/pattern_1.png,j,j,3000.0,2.0,1.0,20.0,1.0,5.0,1.0,1.0,1.0,20.0,,,,,,627a76b96bea55210aecbba9,09:05:59,27/02/2024
html-keyboard-response,25,45638,0.0-11.0-1.0,,"<div style=""display: flex; flex-direction: column; align-items: center; margin-top: -40px;""><img src=""images/demo_images/pattern_1.png"" style=""width: 234px; height: 230px; margin-top: -50px;""><div style=""display: flex; justify-content: space-between; margin-top: 33px;""><img src=""images/demo_images/choice_trial_1.png"" style=""width: 408px; height: 417px; margin-left:608px;""></div></div>",,delaylearn,learning,display_response,nfynK0tiVAg2JbfmoiXFEZHbxHi2,nfynK0tiVAg2JbfmoiXFEZHbxHi2,,,,,,,,,,,,,,,,,chosen stimuli: images/demo_images/choice_trial_1.png,,,,,627a76b96bea55210aecbba9,09:05:59,27/02/2024
html-keyboard-response,26,48648,0.0-11.0-2.0,,,,delaylearn,learning,feedback_duration_window,nfynK0tiVAg2JbfmoiXFEZHbxHi2,nfynK0tiVAg2JbfmoiXFEZHbxHi2,,,,,,,,,,,,,,,,,,3000.0,,,,627a76b96bea55210aecbba9,09:05:59,27/02/2024
html-keyboard-response,27,50154,0.0-11.0-3.0,,<div style='margin:auto;width: auto; font-size: 150%'><span style='font-weight: bold; font-size: 100px; color: green;'>+10 points!</span><br><br></div>,,delaylearn,learning,feedback_image_window,nfynK0tiVAg2JbfmoiXFEZHbxHi2,nfynK0tiVAg2JbfmoiXFEZHbxHi2,,,,,,,,,,,,,,,,,,,,,,627a76b96bea55210aecbba9,09:05:59,27/02/2024
html-keyboard-response,28,52544,0.0-12.0,,"<div style=""font-size:100px;"">+</div>",,delaylearn,learning,ITI,nfynK0tiVAg2JbfmoiXFEZHbxHi2,nfynK0tiVAg2JbfmoiXFEZHbxHi2,,,,,,,,,,,,,,,,,,,2389.0,,,627a76b96bea55210aecbba9,09:05:59,27/02/2024
html-keyboard-response,29,53259,0.0-13.0-0.0,713.6999999955297,"<div style=""display: flex; flex-direction: column; align-items: center; margin-top: -40px;""><img src=""images/demo_images/pattern_1.png"" style=""width: 234px; height: 230px; margin-top: -50px;""><div style=""display: flex; justify-content: space-between; margin-top: 33px;""><img src=""images/demo_images/choice_trial_1.png"" style=""width: 408px; height: 417px; margin-right: 200px;""><img src=""images/demo_images/choice_trial_2.png"" style=""width: 408px; height: 417px;""></div></div>",f,delaylearn,learning,trial,nfynK0tiVAg2JbfmoiXFEZHbxHi2,nfynK0tiVAg2JbfmoiXFEZHbxHi2,3.0,images/demo_images/choice_trial_1.png,images/demo_images/choice_trial_2.png,images/demo_images/pattern_1.png,f,f,3000.0,1.0,2.0,20.0,0.0,6.0,1.0,1.0,1.0,30.0,,,,,,627a76b96bea55210aecbba9,09:05:59,27/02/2024
html-keyboard-response,30,54262,0.0-13.0-1.0,,"<div style=""display: flex; flex-direction: column; align-items: center; margin-top: -40px;""><img src=""images/demo_images/pattern_1.png"" style=""width: 234px; height: 230px; margin-top: -50px;""><div style=""display: flex; justify-content: space-between; margin-top: 33px;""><img src=""images/demo_images/choice_trial_1.png"" style=""width: 408px; height: 417px; margin-right: 608px;""></div></div>",,delaylearn,learning,display_response,nfynK0tiVAg2JbfmoiXFEZHbxHi2,nfynK0tiVAg2JbfmoiXFEZHbxHi2,,,,,,,,,,,,,,,,,chosen stimuli: images/demo_images/choice_trial_1.png,,,,,627a76b96bea55210aecbba9,09:05:59,27/02/2024
html-keyboard-response,31,57265,0.0-13.0-2.0,,,,delaylearn,learning,feedback_duration_window,nfynK0tiVAg2JbfmoiXFEZHbxHi2,nfynK0tiVAg2JbfmoiXFEZHbxHi2,,,,,,,,,,,,,,,,,,3000.0,,,,627a76b96bea55210aecbba9,09:05:59,27/02/2024
html-keyboard-response,32,58770,0.0-13.0-3.0,,<div style='margin:auto;width: auto; font-size: 150%'><span style='font-weight: bold; font-size: 100px; color: green;'>+10 points!</span><br><br></div>,,delaylearn,learning,feedback_image_window,nfynK0tiVAg2JbfmoiXFEZHbxHi2,nfynK0tiVAg2JbfmoiXFEZHbxHi2,,,,,,,,,,,,,,,,,,,,,,627a76b96bea55210aecbba9,09:05:59,27/02/2024
html-button-response,33,61341,0.0-14.0,2570.5,"
  <div style=""display: flex; align-items: center; justify-content: center; height: 80vh;"">
  <div>
          <img src=""images/inst_demo_finish.png"" style=""width: 80vw; height:auto;"">
          <br><br>
      </div>
      <br><br>
  </div>",0,,,,nfynK0tiVAg2JbfmoiXFEZHbxHi2,,,,,,,,,,,,,,,,,,,,,,,627a76b96bea55210aecbba9,09:05:59,27/02/2024
html-keyboard-response,34,65123,0.0-15.0,3781.7000000029802,"
  <div style=""display: flex; align-items: center; justify-content: center; height: 80vh;"">
  <div>
          <img src=""images/inst_6.png"" style=""width: 80vw; height:auto;"">
          <br><br>
      </div>
      <br><br>
  </div>",j,,,,nfynK0tiVAg2JbfmoiXFEZHbxHi2,,,,,,,,,,,,,,,,,,,,,,,627a76b96bea55210aecbba9,09:05:59,27/02/2024
html-keyboard-response,35,68130,0.0-16.0,,"<div style=""font-size:100px;"">+</div>",,delaylearn,learning,pre_fixation,nfynK0tiVAg2JbfmoiXFEZHbxHi2,,,,,,,,,,,,,,,,,,,,,,,627a76b96bea55210aecbba9,09:05:59,27/02/2024
html-keyboard-response,36,70591,0.0-17.0,,"<div style=""font-size:100px;"">+</div>",,delaylearn,learning,ITI,nfynK0tiVAg2JbfmoiXFEZHbxHi2,nfynK0tiVAg2JbfmoiXFEZHbxHi2,,,,,,,,,,,,,,,,,,,2452.0,,,627a76b96bea55210aecbba9,09:05:59,27/02/2024
html-keyboard-response,37,72355,0.0-18.0-0.0,1762.3999999985099,"<div style=""display: flex; flex-direction: column; align-items: center; margin-top: -40px;""><img src=""images/pattern_3.png"" style=""width: 234px; height: 230px; margin-top: -50px;""><div style=""display: flex; justify-content: space-between; margin-top: 33px;""><img src=""images/choice_trial_13.png"" style=""width: 408px; height: 417px; margin-right: 200px;""><img src=""images/choice_trial_10.png"" style=""width: 408px; height: 417px;""></div></div>",j,delaylearn,learning,trial,nfynK0tiVAg2JbfmoiXFEZHbxHi2,nfynK0tiVAg2JbfmoiXFEZHbxHi2,3.0,images/choice_trial_13.png,images/choice_trial_10.png,images/pattern_3.png,f,f,7000.0,13.0,10.0,2.0,0.0,7.0,0.0,0.0,10.0,30.0,,,,,,627a76b96bea55210aecbba9,09:05:59,27/02/2024
html-keyboard-response,38,73359,0.0-18.0-1.0,,"<div style=""display: flex; flex-direction: column; align-items: center; margin-top: -40px;""><img src=""images/pattern_3.png"" style=""width: 234px; height: 230px; margin-top: -50px;""><div style=""display: flex; justify-content: space-between; margin-top: 33px;""><img src=""images/choice_trial_10.png"" style=""width: 408px; height: 417px; margin-left:608px;""></div></div>",,delaylearn,learning,display_response,nfynK0tiVAg2JbfmoiXFEZHbxHi2,nfynK0tiVAg2JbfmoiXFEZHbxHi2,,,,,,,,,,,,,,,,,chosen stimuli: images/choice_trial_10.png,,,,,627a76b96bea55210aecbba9,09:05:59,27/02/2024
html-keyboard-response,39,80370,0.0-18.0-2.0,,,,delaylearn,learning,feedback_duration_window,nfynK0tiVAg2JbfmoiXFEZHbxHi2,nfynK0tiVAg2JbfmoiXFEZHbxHi2,,,,,,,,,,,,,,,,,,7000.0,,,,627a76b96bea55210aecbba9,09:05:59,27/02/2024
html-keyboard-response,40,81882,0.0-18.0-3.0,,<div style='margin:auto;width: auto; font-size: 150%'><span style='font-weight: bold; font-size: 100px; color: red;'>0 points!</span><br><br></div>,,delaylearn,learning,feedback_image_window,nfynK0tiVAg2JbfmoiXFEZHbxHi2,nfynK0tiVAg2JbfmoiXFEZHbxHi2,,,,,,,,,,,,,,,,,,,,,,627a76b96bea55210aecbba9,09:05:59,27/02/2024
html-keyboard-response,41,83771,0.0-19.0,,"<div style=""font-size:100px;"">+</div>",,delaylearn,learning,ITI,nfynK0tiVAg2JbfmoiXFEZHbxHi2,nfynK0tiVAg2JbfmoiXFEZHbxHi2,,,,,,,,,,,,,,,,,,,1875.0,,,627a76b96bea55210aecbba9,09:05:59,27/02/2024
html-keyboard-response,42,84835,0.0-20.0-0.0,1062.8999999985099,"<div style=""display: flex; flex-direction: column; align-items: center; margin-top: -40px;""><img src=""images/pattern_7.png"" style=""width: 234px; height: 230px; margin-top: -50px;""><div style=""display: flex; justify-content: space-between; margin-top: 33px;""><img src=""images/choice_trial_12.png"" style=""width: 408px; height: 417px; margin-right: 200px;""><img src=""images/choice_trial_6.png"" style=""width: 408px; height: 417px;""></div></div>",j,delaylearn,learning,trial,nfynK0tiVAg2JbfmoiXFEZHbxHi2,nfynK0tiVAg2JbfmoiXFEZHbxHi2,3.0,images/choice_trial_12.png,images/choice_trial_6.png,images/pattern_7.png,j,j,750.0,12.0,6.0,6.0,1.0,8.0,1.0,1.0,6.0,40.0,,,,,,627a76b96bea55210aecbba9,09:05:59,27/02/2024
html-keyboard-response,43,85841,0.0-20.0-1.0,,"<div style=""display: flex; flex-direction: column; align-items: center; margin-top: -40px;""><img src=""images/pattern_7.png"" style=""width: 234px; height: 230px; margin-top: -50px;""><div style=""display: flex; justify-content: space-between; margin-top: 33px;""><img src=""images/choice_trial_6.png"" style=""width: 408px; height: 417px; margin-left:608px;""></div></div>",,delaylearn,learning,display_response,nfynK0tiVAg2JbfmoiXFEZHbxHi2,nfynK0tiVAg2JbfmoiXFEZHbxHi2,,,,,,,,,,,,,,,,,chosen stimuli: images/choice_trial_6.png,,,,,627a76b96bea55210aecbba9,09:05:59,27/02/2024
html-keyboard-response,44,86595,0.0-20.0-2.0,,,,delaylearn,learning,feedback_duration_window,nfynK0tiVAg2JbfmoiXFEZHbxHi2,nfynK0tiVAg2JbfmoiXFEZHbxHi2,,,,,,,,,,,,,,,,,,750.0,,,,627a76b96bea55210aecbba9,09:05:59,27/02/2024
html-keyboard-response,45,88111,0.0-20.0-3.0,,<div style='margin:auto;width: auto; font-size: 150%'><span style='font-weight: bold; font-size: 100px; color: green;'>+10 points!</span><br><br></div>,,delaylearn,learning,feedback_image_window,nfynK0tiVAg2JbfmoiXFEZHbxHi2,nfynK0tiVAg2JbfmoiXFEZHbxHi2,,,,,,,,,,,,,,,,,,,,,,627a76b96bea55210aecbba9,09:05:59,27/02/2024
html-keyboard-response,46,90076,0.0-21.0,,"<div style=""font-size:100px;"">+</div>",,delaylearn,learning,ITI,nfynK0tiVAg2JbfmoiXFEZHbxHi2,nfynK0tiVAg2JbfmoiXFEZHbxHi2,,,,,,,,,,,,,,,,,,,1956.0,,,627a76b96bea55210aecbba9,09:05:59,27/02/2024
html-keyboard-response,47,91307,0.0-22.0-0.0,1229.2000000029802,"<div style=""display: flex; flex-direction: column; align-items: center; margin-top: -40px;""><img src=""images/pattern_4.png"" style=""width: 234px; height: 230px; margin-top: -50px;""><div style=""display: flex; justify-content: space-between; margin-top: 33px;""><img src=""images/choice_trial_15.png"" style=""width: 408px; height: 417px; margin-right: 200px;""><img src=""images/choice_trial_9.png"" style=""width: 408px; height: 417px;""></div></div>",f,delaylearn,learning,trial,nfynK0tiVAg2JbfmoiXFEZHbxHi2,nfynK0tiVAg2JbfmoiXFEZHbxHi2,3.0,images/choice_trial_15.png,images/choice_trial_9.png,images/pattern_4.png,f,f,7000.0,15.0,9.0,3.0,0.0,9.0,1.0,1.0,15.0,50.0,,,,,,627a76b96bea55210aecbba9,09:05:59,27/02/2024
html-keyboard-response,48,92320,0.0-22.0-1.0,,"<div style=""display: flex; flex-direction: column; align-items: center; margin-top: -40px;""><img src=""images/pattern_4.png"" style=""width: 234px; height: 230px; margin-top: -50px;""><div style=""display: flex; justify-content: space-between; margin-top: 33px;""><img src=""images/choice_trial_15.png"" style=""width: 408px; height: 417px; margin-right: 608px;""></div></div>",,delaylearn,learning,display_response,nfynK0tiVAg2JbfmoiXFEZHbxHi2,nfynK0tiVAg2JbfmoiXFEZHbxHi2,,,,,,,,,,,,,,,,,chosen stimuli: images/choice_trial_15.png,,,,,627a76b96bea55210aecbba9,09:05:59,27/02/2024
html-keyboard-response,49,99324,0.0-22.0-2.0,,,,delaylearn,learning,feedback_duration_window,nfynK0tiVAg2JbfmoiXFEZHbxHi2,nfynK0tiVAg2JbfmoiXFEZHbxHi2,,,,,,,,,,,,,,,,,,7000.0,,,,627a76b96bea55210aecbba9,09:05:59,27/02/2024
html-keyboard-response,50,100837,0.0-22.0-3.0,,<div style='margin:auto;width: auto; font-size: 150%'><span style='font-weight: bold; font-size: 100px; color: green;'>+10 points!</span><br><br></div>,,delaylearn,learning,feedback_image_window,nfynK0tiVAg2JbfmoiXFEZHbxHi2,nfynK0tiVAg2JbfmoiXFEZHbxHi2,,,,,,,,,,,,,,,,,,,,,,627a76b96bea55210aecbba9,09:05:59,27/02/2024
html-keyboard-response,51,102761,0.0-23.0,,"<div style=""font-size:100px;"">+</div>",,delaylearn,learning,ITI,nfynK0tiVAg2JbfmoiXFEZHbxHi2,nfynK0tiVAg2JbfmoiXFEZHbxHi2,,,,,,,,,,,,,,,,,,,1908.0,,,627a76b96bea55210aecbba9,09:05:59,27/02/2024
html-keyboard-response,52,104755,0.0-24.0-0.0,1993.5,"<div style=""display: flex; flex-direction: column; align-items: center; margin-top: -40px;""><img src=""images/pattern_5.png"" style=""width: 234px; height: 230px; margin-top: -50px;""><div style=""display: flex; justify-content: space-between; margin-top: 33px;""><img src=""images/choice_trial_2.png"" style=""width: 408px; height: 417px; margin-right: 200px;""><img src=""images/choice_trial_11.png"" style=""width: 408px; height: 417px;""></div></div>",j,delaylearn,learning,trial,nfynK0tiVAg2JbfmoiXFEZHbxHi2,nfynK0tiVAg2JbfmoiXFEZHbxHi2,3.0,images/choice_trial_2.png,images/choice_trial_11.png,images/pattern_5.png,j,j,750.0,2.0,11.0,4.0,1.0,10.0,1.0,1.0,11.0,60.0,,,,,,627a76b96bea55210aecbba9,09:05:59,27/02/2024
html-keyboard-response,53,105768,0.0-24.0-1.0,,"<div style=""display: flex; flex-direction: column; align-items: center; margin-top: -40px;""><img src=""images/pattern_5.png"" style=""width: 234px; height: 230px; margin-top: -50px;""><div style=""display: flex; justify-content: space-between; margin-top: 33px;""><img src=""images/choice_trial_11.png"" style=""width: 408px; height: 417px; margin-left:608px;""></div></div>",,delaylearn,learning,display_response,nfynK0tiVAg2JbfmoiXFEZHbxHi2,nfynK0tiVAg2JbfmoiXFEZHbxHi2,,,,,,,,,,,,,,,,,chosen stimuli: images/choice_trial_11.png,,,,,627a76b96bea55210aecbba9,09:05:59,27/02/2024
html-keyboard-response,54,106525,0.0-24.0-2.0,,,,delaylearn,learning,feedback_duration_window,nfynK0tiVAg2JbfmoiXFEZHbxHi2,nfynK0tiVAg2JbfmoiXFEZHbxHi2,,,,,,,,,,,,,,,,,,750.0,,,,627a76b96bea55210aecbba9,09:05:59,27/02/2024
html-keyboard-response,55,108041,0.0-24.0-3.0,,<div style='margin:auto;width: auto; font-size: 150%'><span style='font-weight: bold; font-size: 100px; color: green;'>+10 points!</span><br><br></div>,,delaylearn,learning,feedback_image_window,nfynK0tiVAg2JbfmoiXFEZHbxHi2,nfynK0tiVAg2JbfmoiXFEZHbxHi2,,,,,,,,,,,,,,,,,,,,,,627a76b96bea55210aecbba9,09:05:59,27/02/2024
html-keyboard-response,56,109935,0.0-25.0,,"<div style=""font-size:100px;"">+</div>",,delaylearn,learning,ITI,nfynK0tiVAg2JbfmoiXFEZHbxHi2,nfynK0tiVAg2JbfmoiXFEZHbxHi2,,,,,,,,,,,,,,,,,,,1893.0,,,627a76b96bea55210aecbba9,09:05:59,27/02/2024
html-keyboard-response,57,111219,0.0-26.0-0.0,1282.6000000014901,"<div style=""display: flex; flex-direction: column; align-items: center; margin-top: -40px;""><img src=""images/pattern_6.png"" style=""width: 234px; height: 230px; margin-top: -50px;""><div style=""display: flex; justify-content: space-between; margin-top: 33px;""><img src=""images/choice_trial_16.png"" style=""width: 408px; height: 417px; margin-right: 200px;""><img src=""images/choice_trial_3.png"" style=""width: 408px; height: 417px;""></div></div>",f,delaylearn,learning,trial,nfynK0tiVAg2JbfmoiXFEZHbxHi2,nfynK0tiVAg2JbfmoiXFEZHbxHi2,3.0,images/choice_trial_16.png,images/choice_trial_3.png,images/pattern_6.png,j,f,750.0,16.0,3.0,5.0,0.0,11.0,1.0,0.0,16.0,60.0,,,,,,627a76b96bea55210aecbba9,09:05:59,27/02/2024
html-keyboard-response,58,112221,0.0-26.0-1.0,,"<div style=""display: flex; flex-direction: column; align-items: center; margin-top: -40px;""><img src=""images/pattern_6.png"" style=""width: 234px; height: 230px; margin-top: -50px;""><div style=""display: flex; justify-content: space-between; margin-top: 33px;""><img src=""images/choice_trial_16.png"" style=""width: 408px; height: 417px; margin-right: 608px;""></div></div>",,delaylearn,learning,display_response,nfynK0tiVAg2JbfmoiXFEZHbxHi2,nfynK0tiVAg2JbfmoiXFEZHbxHi2,,,,,,,,,,,,,,,,,chosen stimuli: images/choice_trial_16.png,,,,,627a76b96bea55210aecbba9,09:05:59,27/02/2024
html-keyboard-response,59,112976,0.0-26.0-2.0,,,,delaylearn,learning,feedback_duration_window,nfynK0tiVAg2JbfmoiXFEZHbxHi2,nfynK0tiVAg2JbfmoiXFEZHbxHi2,,,,,,,,,,,,,,,,,,750.0,,,,627a76b96bea55210aecbba9,09:05:59,27/02/2024
html-keyboard-response,60,114485,0.0-26.0-3.0,,<div style='margin:auto;width: auto; font-size: 150%'><span style='font-weight: bold; font-size: 100px; color: red;'>0 points!</span><br><br></div>,,delaylearn,learning,feedback_image_window,nfynK0tiVAg2JbfmoiXFEZHbxHi2,nfynK0tiVAg2JbfmoiXFEZHbxHi2,,,,,,,,,,,,,,,,,,,,,,627a76b96bea55210aecbba9,09:05:59,27/02/2024
html-keyboard-response,61,114992,0.0-27.0-0.0,,,,,,mood_trial_fixation,nfynK0tiVAg2JbfmoiXFEZHbxHi2,,,,,,,,,,,,,,,,,,,,,,,627a76b96bea55210aecbba9,09:05:59,27/02/2024
lmdlab-html-vas-response,62,118927,0.0-27.0-1.0,2924.0,How happy are you right now?,0.5509259259259259,delaylearn,learning,mood_trial,nfynK0tiVAg2JbfmoiXFEZHbxHi2,nfynK0tiVAg2JbfmoiXFEZHbxHi2,,,,,,,,,,,,,,,,,,,,"['Very unhappy', 'Very happy']",,627a76b96bea55210aecbba9,09:05:59,27/02/2024
html-keyboard-response,63,120928,0.0-28.0,,"<div style=""font-size:100px;"">+</div>",,delaylearn,learning,ITI,nfynK0tiVAg2JbfmoiXFEZHbxHi2,nfynK0tiVAg2JbfmoiXFEZHbxHi2,,,,,,,,,,,,,,,,,,,1997.0,,,627a76b96bea55210aecbba9,09:05:59,27/02/2024
html-keyboard-response,64,122059,0.0-29.0-0.0,1129.3999999985099,"<div style=""display: flex; flex-direction: column; align-items: center; margin-top: -40px;""><img src=""images/pattern_1.png"" style=""width: 234px; height: 230px; margin-top: -50px;""><div style=""display: flex; justify-content: space-between; margin-top: 33px;""><img src=""images/choice_trial_8.png"" style=""width: 408px; height: 417px; margin-right: 200px;""><img src=""images/choice_trial_14.png"" style=""width: 408px; height: 417px;""></div></div>",j,delaylearn,learning,trial,nfynK0tiVAg2JbfmoiXFEZHbxHi2,nfynK0tiVAg2JbfmoiXFEZHbxHi2,3.0,images/choice_trial_8.png,images/choice_trial_14.png,images/pattern_1.png,j,j,7000.0,8.0,14.0,1.0,1.0,12.0,1.0,1.0,14.0,70.0,,,,,,627a76b96bea55210aecbba9,09:05:59,27/02/2024
html-keyboard-response,65,123070,0.0-29.0-1.0,,"<div style=""display: flex; flex-direction: column; align-items: center; margin-top: -40px;""><img src=""images/pattern_1.png"" style=""width: 234px; height: 230px; margin-top: -50px;""><div style=""display: flex; justify-content: space-between; margin-top: 33px;""><img src=""images/choice_trial_14.png"" style=""width: 408px; height: 417px; margin-left:608px;""></div></div>",,delaylearn,learning,display_response,nfynK0tiVAg2JbfmoiXFEZHbxHi2,nfynK0tiVAg2JbfmoiXFEZHbxHi2,,,,,,,,,,,,,,,,,chosen stimuli: images/choice_trial_14.png,,,,,627a76b96bea55210aecbba9,09:05:59,27/02/2024
html-keyboard-response,66,130081,0.0-29.0-2.0,,,,delaylearn,learning,feedback_duration_window,nfynK0tiVAg2JbfmoiXFEZHbxHi2,nfynK0tiVAg2JbfmoiXFEZHbxHi2,,,,,,,,,,,,,,,,,,7000.0,,,,627a76b96bea55210aecbba9,09:05:59,27/02/2024
html-keyboard-response,67,131596,0.0-29.0-3.0,,<div style='margin:auto;width: auto; font-size: 150%'><span style='font-weight: bold; font-size: 100px; color: green;'>+10 points!</span><br><br></div>,,delaylearn,learning,feedback_image_window,nfynK0tiVAg2JbfmoiXFEZHbxHi2,nfynK0tiVAg2JbfmoiXFEZHbxHi2,,,,,,,,,,,,,,,,,,,,,,627a76b96bea55210aecbba9,09:05:59,27/02/2024
html-keyboard-response,68,133275,0.0-30.0,,"<div style=""font-size:100px;"">+</div>",,delaylearn,learning,ITI,nfynK0tiVAg2JbfmoiXFEZHbxHi2,nfynK0tiVAg2JbfmoiXFEZHbxHi2,,,,,,,,,,,,,,,,,,,1670.0,,,627a76b96bea55210aecbba9,09:05:59,27/02/2024
html-keyboard-response,69,134675,0.0-31.0-0.0,1398.8999999985099,"<div style=""display: flex; flex-direction: column; align-items: center; margin-top: -40px;""><img src=""images/pattern_3.png"" style=""width: 234px; height: 230px; margin-top: -50px;""><div style=""display: flex; justify-content: space-between; margin-top: 33px;""><img src=""images/choice_trial_10.png"" style=""width: 408px; height: 417px; margin-right: 200px;""><img src=""images/choice_trial_13.png"" style=""width: 408px; height: 417px;""></div></div>",j,delaylearn,learning,trial,nfynK0tiVAg2JbfmoiXFEZHbxHi2,nfynK0tiVAg2JbfmoiXFEZHbxHi2,3.0,images/choice_trial_10.png,images/choice_trial_13.png,images/pattern_3.png,f,j,7000.0,10.0,13.0,2.0,1.0,13.0,1.0,0.0,13.0,70.0,,,,,,627a76b96bea55210aecbba9,09:05:59,27/02/2024
html-keyboard-response,70,135687,0.0-31.0-1.0,,"<div style=""display: flex; flex-direction: column; align-items: center; margin-top: -40px;""><img src=""images/pattern_3.png"" style=""width: 234px; height: 230px; margin-top: -50px;""><div style=""display: flex; justify-content: space-between; margin-top: 33px;""><img src=""images/choice_trial_13.png"" style=""width: 408px; height: 417px; margin-left:608px;""></div></div>",,delaylearn,learning,display_response,nfynK0tiVAg2JbfmoiXFEZHbxHi2,nfynK0tiVAg2JbfmoiXFEZHbxHi2,,,,,,,,,,,,,,,,,chosen stimuli: images/choice_trial_13.png,,,,,627a76b96bea55210aecbba9,09:05:59,27/02/2024
html-keyboard-response,71,142702,0.0-31.0-2.0,,,,delaylearn,learning,feedback_duration_window,nfynK0tiVAg2JbfmoiXFEZHbxHi2,nfynK0tiVAg2JbfmoiXFEZHbxHi2,,,,,,,,,,,,,,,,,,7000.0,,,,627a76b96bea55210aecbba9,09:05:59,27/02/2024
html-keyboard-response,72,144217,0.0-31.0-3.0,,<div style='margin:auto;width: auto; font-size: 150%'><span style='font-weight: bold; font-size: 100px; color: red;'>0 points!</span><br><br></div>,,delaylearn,learning,feedback_image_window,nfynK0tiVAg2JbfmoiXFEZHbxHi2,nfynK0tiVAg2JbfmoiXFEZHbxHi2,,,,,,,,,,,,,,,,,,,,,,627a76b96bea55210aecbba9,09:05:59,27/02/2024
html-keyboard-response,73,145984,0.0-32.0,,"<div style=""font-size:100px;"">+</div>",,delaylearn,learning,ITI,nfynK0tiVAg2JbfmoiXFEZHbxHi2,nfynK0tiVAg2JbfmoiXFEZHbxHi2,,,,,,,,,,,,,,,,,,,1750.0,,,627a76b96bea55210aecbba9,09:05:59,27/02/2024
html-keyboard-response,74,147595,0.0-33.0-0.0,1610.0,"<div style=""display: flex; flex-direction: column; align-items: center; margin-top: -40px;""><img src=""images/pattern_5.png"" style=""width: 234px; height: 230px; margin-top: -50px;""><div style=""display: flex; justify-content: space-between; margin-top: 33px;""><img src=""images/choice_trial_11.png"" style=""width: 408px; height: 417px; margin-right: 200px;""><img src=""images/choice_trial_2.png"" style=""width: 408px; height: 417px;""></div></div>",f,delaylearn,learning,trial,nfynK0tiVAg2JbfmoiXFEZHbxHi2,nfynK0tiVAg2JbfmoiXFEZHbxHi2,3.0,images/choice_trial_11.png,images/choice_trial_2.png,images/pattern_5.png,f,f,750.0,11.0,2.0,4.0,0.0,14.0,1.0,1.0,11.0,80.0,,,,,,627a76b96bea55210aecbba9,09:05:59,27/02/2024
html-keyboard-response,75,148602,0.0-33.0-1.0,,"<div style=""display: flex; flex-direction: column; align-items: center; margin-top: -40px;""><img src=""images/pattern_5.png"" style=""width: 234px; height: 230px; margin-top: -50px;""><div style=""display: flex; justify-content: space-between; margin-top: 33px;""><img src=""images/choice_trial_11.png"" style=""width: 408px; height: 417px; margin-right: 608px;""></div></div>",,delaylearn,learning,display_response,nfynK0tiVAg2JbfmoiXFEZHbxHi2,nfynK0tiVAg2JbfmoiXFEZHbxHi2,,,,,,,,,,,,,,,,,chosen stimuli: images/choice_trial_11.png,,,,,627a76b96bea55210aecbba9,09:05:59,27/02/2024
html-keyboard-response,76,149359,0.0-33.0-2.0,,,,delaylearn,learning,feedback_duration_window,nfynK0tiVAg2JbfmoiXFEZHbxHi2,nfynK0tiVAg2JbfmoiXFEZHbxHi2,,,,,,,,,,,,,,,,,,750.0,,,,627a76b96bea55210aecbba9,09:05:59,27/02/2024
html-keyboard-response,77,150873,0.0-33.0-3.0,,<div style='margin:auto;width: auto; font-size: 150%'><span style='font-weight: bold; font-size: 100px; color: green;'>+10 points!</span><br><br></div>,,delaylearn,learning,feedback_image_window,nfynK0tiVAg2JbfmoiXFEZHbxHi2,nfynK0tiVAg2JbfmoiXFEZHbxHi2,,,,,,,,,,,,,,,,,,,,,,627a76b96bea55210aecbba9,09:05:59,27/02/2024
html-keyboard-response,78,151380,0.0-34.0-0.0,,,,,,mood_trial_fixation,nfynK0tiVAg2JbfmoiXFEZHbxHi2,,,,,,,,,,,,,,,,,,,,,,,627a76b96bea55210aecbba9,09:05:59,27/02/2024
lmdlab-html-vas-response,79,155291,0.0-34.0-1.0,2898.0,How happy are you right now?,0.5354938271604939,delaylearn,learning,mood_trial,nfynK0tiVAg2JbfmoiXFEZHbxHi2,nfynK0tiVAg2JbfmoiXFEZHbxHi2,,,,,,,,,,,,,,,,,,,,"['Very unhappy', 'Very happy']",,627a76b96bea55210aecbba9,09:05:59,27/02/2024
html-keyboard-response,80,156902,0.0-35.0,,"<div style=""font-size:100px;"">+</div>",,delaylearn,learning,ITI,nfynK0tiVAg2JbfmoiXFEZHbxHi2,nfynK0tiVAg2JbfmoiXFEZHbxHi2,,,,,,,,,,,,,,,,,,,1599.0,,,627a76b96bea55210aecbba9,09:05:59,27/02/2024
html-keyboard-response,81,159163,0.0-36.0-0.0,2259.3000000044703,"<div style=""display: flex; flex-direction: column; align-items: center; margin-top: -40px;""><img src=""images/pattern_6.png"" style=""width: 234px; height: 230px; margin-top: -50px;""><div style=""display: flex; justify-content: space-between; margin-top: 33px;""><img src=""images/choice_trial_16.png"" style=""width: 408px; height: 417px; margin-right: 200px;""><img src=""images/choice_trial_3.png"" style=""width: 408px; height: 417px;""></div></div>",f,delaylearn,learning,trial,nfynK0tiVAg2JbfmoiXFEZHbxHi2,nfynK0tiVAg2JbfmoiXFEZHbxHi2,3.0,images/choice_trial_16.png,images/choice_trial_3.png,images/pattern_6.png,f,f,750.0,16.0,3.0,5.0,0.0,15.0,1.0,1.0,16.0,90.0,,,,,,627a76b96bea55210aecbba9,09:05:59,27/02/2024
html-keyboard-response,82,160177,0.0-36.0-1.0,,"<div style=""display: flex; flex-direction: column; align-items: center; margin-top: -40px;""><img src=""images/pattern_6.png"" style=""width: 234px; height: 230px; margin-top: -50px;""><div style=""display: flex; justify-content: space-between; margin-top: 33px;""><img src=""images/choice_trial_16.png"" style=""width: 408px; height: 417px; margin-right: 608px;""></div></div>",,delaylearn,learning,display_response,nfynK0tiVAg2JbfmoiXFEZHbxHi2,nfynK0tiVAg2JbfmoiXFEZHbxHi2,,,,,,,,,,,,,,,,,chosen stimuli: images/choice_trial_16.png,,,,,627a76b96bea55210aecbba9,09:05:59,27/02/2024
html-keyboard-response,83,160933,0.0-36.0-2.0,,,,delaylearn,learning,feedback_duration_window,nfynK0tiVAg2JbfmoiXFEZHbxHi2,nfynK0tiVAg2JbfmoiXFEZHbxHi2,,,,,,,,,,,,,,,,,,750.0,,,,627a76b96bea55210aecbba9,09:05:59,27/02/2024
html-keyboard-response,84,162448,0.0-36.0-3.0,,<div style='margin:auto;width: auto; font-size: 150%'><span style='font-weight: bold; font-size: 100px; color: green;'>+10 points!</span><br><br></div>,,delaylearn,learning,feedback_image_window,nfynK0tiVAg2JbfmoiXFEZHbxHi2,nfynK0tiVAg2JbfmoiXFEZHbxHi2,,,,,,,,,,,,,,,,,,,,,,627a76b96bea55210aecbba9,09:05:59,27/02/2024
html-keyboard-response,85,164960,0.0-37.0,,"<div style=""font-size:100px;"">+</div>",,delaylearn,learning,ITI,nfynK0tiVAg2JbfmoiXFEZHbxHi2,nfynK0tiVAg2JbfmoiXFEZHbxHi2,,,,,,,,,,,,,,,,,,,2497.0,,,627a76b96bea55210aecbba9,09:05:59,27/02/2024
html-keyboard-response,86,166323,0.0-38.0-0.0,1362.0,"<div style=""display: flex; flex-direction: column; align-items: center; margin-top: -40px;""><img src=""images/pattern_4.png"" style=""width: 234px; height: 230px; margin-top: -50px;""><div style=""display: flex; justify-content: space-between; margin-top: 33px;""><img src=""images/choice_trial_9.png"" style=""width: 408px; height: 417px; margin-right: 200px;""><img src=""images/choice_trial_15.png"" style=""width: 408px; height: 417px;""></div></div>",j,delaylearn,learning,trial,nfynK0tiVAg2JbfmoiXFEZHbxHi2,nfynK0tiVAg2JbfmoiXFEZHbxHi2,3.0,images/choice_trial_9.png,images/choice_trial_15.png,images/pattern_4.png,j,j,7000.0,9.0,15.0,3.0,1.0,16.0,1.0,1.0,15.0,100.0,,,,,,627a76b96bea55210aecbba9,09:05:59,27/02/2024
html-keyboard-response,87,167325,0.0-38.0-1.0,,"<div style=""display: flex; flex-direction: column; align-items: center; margin-top: -40px;""><img src=""images/pattern_4.png"" style=""width: 234px; height: 230px; margin-top: -50px;""><div style=""display: flex; justify-content: space-between; margin-top: 33px;""><img src=""images/choice_trial_15.png"" style=""width: 408px; height: 417px; margin-left:608px;""></div></div>",,delaylearn,learning,display_response,nfynK0tiVAg2JbfmoiXFEZHbxHi2,nfynK0tiVAg2JbfmoiXFEZHbxHi2,,,,,,,,,,,,,,,,,chosen stimuli: images/choice_trial_15.png,,,,,627a76b96bea55210aecbba9,09:05:59,27/02/2024
html-keyboard-response,88,174334,0.0-38.0-2.0,,,,delaylearn,learning,feedback_duration_window,nfynK0tiVAg2JbfmoiXFEZHbxHi2,nfynK0tiVAg2JbfmoiXFEZHbxHi2,,,,,,,,,,,,,,,,,,7000.0,,,,627a76b96bea55210aecbba9,09:05:59,27/02/2024
html-keyboard-response,89,175849,0.0-38.0-3.0,,<div style='margin:auto;width: auto; font-size: 150%'><span style='font-weight: bold; font-size: 100px; color: green;'>+10 points!</span><br><br></div>,,delaylearn,learning,feedback_image_window,nfynK0tiVAg2JbfmoiXFEZHbxHi2,nfynK0tiVAg2JbfmoiXFEZHbxHi2,,,,,,,,,,,,,,,,,,,,,,627a76b96bea55210aecbba9,09:05:59,27/02/2024
html-keyboard-response,90,177430,0.0-39.0,,"<div style=""font-size:100px;"">+</div>",,delaylearn,learning,ITI,nfynK0tiVAg2JbfmoiXFEZHbxHi2,nfynK0tiVAg2JbfmoiXFEZHbxHi2,,,,,,,,,,,,,,,,,,,1578.0,,,627a76b96bea55210aecbba9,09:05:59,27/02/2024
html-keyboard-response,91,179347,0.0-40.0-0.0,1915.3999999985099,"<div style=""display: flex; flex-direction: column; align-items: center; margin-top: -40px;""><img src=""images/pattern_7.png"" style=""width: 234px; height: 230px; margin-top: -50px;""><div style=""display: flex; justify-content: space-between; margin-top: 33px;""><img src=""images/choice_trial_6.png"" style=""width: 408px; height: 417px; margin-right: 200px;""><img src=""images/choice_trial_12.png"" style=""width: 408px; height: 417px;""></div></div>",j,delaylearn,learning,trial,nfynK0tiVAg2JbfmoiXFEZHbxHi2,nfynK0tiVAg2JbfmoiXFEZHbxHi2,3.0,images/choice_trial_6.png,images/choice_trial_12.png,images/pattern_7.png,j,f,750.0,6.0,12.0,6.0,0.0,17.0,0.0,1.0,12.0,110.0,,,,,,627a76b96bea55210aecbba9,09:05:59,27/02/2024
html-keyboard-response,92,180349,0.0-40.0-1.0,,"<div style=""display: flex; flex-direction: column; align-items: center; margin-top: -40px;""><img src=""images/pattern_7.png"" style=""width: 234px; height: 230px; margin-top: -50px;""><div style=""display: flex; justify-content: space-between; margin-top: 33px;""><img src=""images/choice_trial_12.png"" style=""width: 408px; height: 417px; margin-left:608px;""></div></div>",,delaylearn,learning,display_response,nfynK0tiVAg2JbfmoiXFEZHbxHi2,nfynK0tiVAg2JbfmoiXFEZHbxHi2,,,,,,,,,,,,,,,,,chosen stimuli: images/choice_trial_12.png,,,,,627a76b96bea55210aecbba9,09:05:59,27/02/2024
html-keyboard-response,93,181105,0.0-40.0-2.0,,,,delaylearn,learning,feedback_duration_window,nfynK0tiVAg2JbfmoiXFEZHbxHi2,nfynK0tiVAg2JbfmoiXFEZHbxHi2,,,,,,,,,,,,,,,,,,750.0,,,,627a76b96bea55210aecbba9,09:05:59,27/02/2024
html-keyboard-response,94,182619,0.0-40.0-3.0,,<div style='margin:auto;width: auto; font-size: 150%'><span style='font-weight: bold; font-size: 100px; color: green;'>+10 points!</span><br><br></div>,,delaylearn,learning,feedback_image_window,nfynK0tiVAg2JbfmoiXFEZHbxHi2,nfynK0tiVAg2JbfmoiXFEZHbxHi2,,,,,,,,,,,,,,,,,,,,,,627a76b96bea55210aecbba9,09:05:59,27/02/2024
html-keyboard-response,95,184812,0.0-41.0,,"<div style=""font-size:100px;"">+</div>",,delaylearn,learning,ITI,nfynK0tiVAg2JbfmoiXFEZHbxHi2,nfynK0tiVAg2JbfmoiXFEZHbxHi2,,,,,,,,,,,,,,,,,,,2191.0,,,627a76b96bea55210aecbba9,09:05:59,27/02/2024
html-keyboard-response,96,186619,0.0-42.0-0.0,1805.6000000014901,"<div style=""display: flex; flex-direction: column; align-items: center; margin-top: -40px;""><img src=""images/pattern_1.png"" style=""width: 234px; height: 230px; margin-top: -50px;""><div style=""display: flex; justify-content: space-between; margin-top: 33px;""><img src=""images/choice_trial_14.png"" style=""width: 408px; height: 417px; margin-right: 200px;""><img src=""images/choice_trial_8.png"" style=""width: 408px; height: 417px;""></div></div>",j,delaylearn,learning,trial,nfynK0tiVAg2JbfmoiXFEZHbxHi2,nfynK0tiVAg2JbfmoiXFEZHbxHi2,3.0,images/choice_trial_14.png,images/choice_trial_8.png,images/pattern_1.png,f,f,7000.0,14.0,8.0,1.0,0.0,18.0,0.0,0.0,8.0,110.0,,,,,,627a76b96bea55210aecbba9,09:05:59,27/02/2024
html-keyboard-response,97,187629,0.0-42.0-1.0,,"<div style=""display: flex; flex-direction: column; align-items: center; margin-top: -40px;""><img src=""images/pattern_1.png"" style=""width: 234px; height: 230px; margin-top: -50px;""><div style=""display: flex; justify-content: space-between; margin-top: 33px;""><img src=""images/choice_trial_8.png"" style=""width: 408px; height: 417px; margin-left:608px;""></div></div>",,delaylearn,learning,display_response,nfynK0tiVAg2JbfmoiXFEZHbxHi2,nfynK0tiVAg2JbfmoiXFEZHbxHi2,,,,,,,,,,,,,,,,,chosen stimuli: images/choice_trial_8.png,,,,,627a76b96bea55210aecbba9,09:05:59,27/02/2024
html-keyboard-response,98,194637,0.0-42.0-2.0,,,,delaylearn,learning,feedback_duration_window,nfynK0tiVAg2JbfmoiXFEZHbxHi2,nfynK0tiVAg2JbfmoiXFEZHbxHi2,,,,,,,,,,,,,,,,,,7000.0,,,,627a76b96bea55210aecbba9,09:05:59,27/02/2024
html-keyboard-response,99,196141,0.0-42.0-3.0,,<div style='margin:auto;width: auto; font-size: 150%'><span style='font-weight: bold; font-size: 100px; color: red;'>0 points!</span><br><br></div>,,delaylearn,learning,feedback_image_window,nfynK0tiVAg2JbfmoiXFEZHbxHi2,nfynK0tiVAg2JbfmoiXFEZHbxHi2,,,,,,,,,,,,,,,,,,,,,,627a76b96bea55210aecbba9,09:05:59,27/02/2024
html-keyboard-response,100,197800,0.0-43.0,,"<div style=""font-size:100px;"">+</div>",,delaylearn,learning,ITI,nfynK0tiVAg2JbfmoiXFEZHbxHi2,nfynK0tiVAg2JbfmoiXFEZHbxHi2,,,,,,,,,,,,,,,,,,,1646.0,,,627a76b96bea55210aecbba9,09:05:59,27/02/2024
html-keyboard-response,101,199059,0.0-44.0-0.0,1258.3000000044703,"<div style=""display: flex; flex-direction: column; align-items: center; margin-top: -40px;""><img src=""images/pattern_6.png"" style=""width: 234px; height: 230px; margin-top: -50px;""><div style=""display: flex; justify-content: space-between; margin-top: 33px;""><img src=""images/choice_trial_3.png"" style=""width: 408px; height: 417px; margin-right: 200px;""><img src=""images/choice_trial_16.png"" style=""width: 408px; height: 417px;""></div></div>",j,delaylearn,learning,trial,nfynK0tiVAg2JbfmoiXFEZHbxHi2,nfynK0tiVAg2JbfmoiXFEZHbxHi2,3.0,images/choice_trial_3.png,images/choice_trial_16.png,images/pattern_6.png,j,j,750.0,3.0,16.0,5.0,1.0,19.0,1.0,1.0,16.0,120.0,,,,,,627a76b96bea55210aecbba9,09:05:59,27/02/2024
html-keyboard-response,102,200071,0.0-44.0-1.0,,"<div style=""display: flex; flex-direction: column; align-items: center; margin-top: -40px;""><img src=""images/pattern_6.png"" style=""width: 234px; height: 230px; margin-top: -50px;""><div style=""display: flex; justify-content: space-between; margin-top: 33px;""><img src=""images/choice_trial_16.png"" style=""width: 408px; height: 417px; margin-left:608px;""></div></div>",,delaylearn,learning,display_response,nfynK0tiVAg2JbfmoiXFEZHbxHi2,nfynK0tiVAg2JbfmoiXFEZHbxHi2,,,,,,,,,,,,,,,,,chosen stimuli: images/choice_trial_16.png,,,,,627a76b96bea55210aecbba9,09:05:59,27/02/2024
html-keyboard-response,103,200832,0.0-44.0-2.0,,,,delaylearn,learning,feedback_duration_window,nfynK0tiVAg2JbfmoiXFEZHbxHi2,nfynK0tiVAg2JbfmoiXFEZHbxHi2,,,,,,,,,,,,,,,,,,750.0,,,,627a76b96bea55210aecbba9,09:05:59,27/02/2024
html-keyboard-response,104,202345,0.0-44.0-3.0,,<div style='margin:auto;width: auto; font-size: 150%'><span style='font-weight: bold; font-size: 100px; color: green;'>+10 points!</span><br><br></div>,,delaylearn,learning,feedback_image_window,nfynK0tiVAg2JbfmoiXFEZHbxHi2,nfynK0tiVAg2JbfmoiXFEZHbxHi2,,,,,,,,,,,,,,,,,,,,,,627a76b96bea55210aecbba9,09:05:59,27/02/2024
html-keyboard-response,105,204099,0.0-45.0,,"<div style=""font-size:100px;"">+</div>",,delaylearn,learning,ITI,nfynK0tiVAg2JbfmoiXFEZHbxHi2,nfynK0tiVAg2JbfmoiXFEZHbxHi2,,,,,,,,,,,,,,,,,,,1750.0,,,627a76b96bea55210aecbba9,09:05:59,27/02/2024
html-keyboard-response,106,205219,0.0-46.0-0.0,1118.1999999955297,"<div style=""display: flex; flex-direction: column; align-items: center; margin-top: -40px;""><img src=""images/pattern_4.png"" style=""width: 234px; height: 230px; margin-top: -50px;""><div style=""display: flex; justify-content: space-between; margin-top: 33px;""><img src=""images/choice_trial_15.png"" style=""width: 408px; height: 417px; margin-right: 200px;""><img src=""images/choice_trial_9.png"" style=""width: 408px; height: 417px;""></div></div>",f,delaylearn,learning,trial,nfynK0tiVAg2JbfmoiXFEZHbxHi2,nfynK0tiVAg2JbfmoiXFEZHbxHi2,3.0,images/choice_trial_15.png,images/choice_trial_9.png,images/pattern_4.png,f,f,7000.0,15.0,9.0,3.0,0.0,20.0,1.0,1.0,15.0,130.0,,,,,,627a76b96bea55210aecbba9,09:05:59,27/02/2024
html-keyboard-response,107,206230,0.0-46.0-1.0,,"<div style=""display: flex; flex-direction: column; align-items: center; margin-top: -40px;""><img src=""images/pattern_4.png"" style=""width: 234px; height: 230px; margin-top: -50px;""><div style=""display: flex; justify-content: space-between; margin-top: 33px;""><img src=""images/choice_trial_15.png"" style=""width: 408px; height: 417px; margin-right: 608px;""></div></div>",,delaylearn,learning,display_response,nfynK0tiVAg2JbfmoiXFEZHbxHi2,nfynK0tiVAg2JbfmoiXFEZHbxHi2,,,,,,,,,,,,,,,,,chosen stimuli: images/choice_trial_15.png,,,,,627a76b96bea55210aecbba9,09:05:59,27/02/2024
html-keyboard-response,108,213245,0.0-46.0-2.0,,,,delaylearn,learning,feedback_duration_window,nfynK0tiVAg2JbfmoiXFEZHbxHi2,nfynK0tiVAg2JbfmoiXFEZHbxHi2,,,,,,,,,,,,,,,,,,7000.0,,,,627a76b96bea55210aecbba9,09:05:59,27/02/2024
html-keyboard-response,109,214746,0.0-46.0-3.0,,<div style='margin:auto;width: auto; font-size: 150%'><span style='font-weight: bold; font-size: 100px; color: green;'>+10 points!</span><br><br></div>,,delaylearn,learning,feedback_image_window,nfynK0tiVAg2JbfmoiXFEZHbxHi2,nfynK0tiVAg2JbfmoiXFEZHbxHi2,,,,,,,,,,,,,,,,,,,,,,627a76b96bea55210aecbba9,09:05:59,27/02/2024
html-keyboard-response,110,215252,0.0-47.0-0.0,,,,,,mood_trial_fixation,nfynK0tiVAg2JbfmoiXFEZHbxHi2,,,,,,,,,,,,,,,,,,,,,,,627a76b96bea55210aecbba9,09:05:59,27/02/2024
lmdlab-html-vas-response,111,219735,0.0-47.0-1.0,3471.0,How happy are you right now?,0.6327160493827161,delaylearn,learning,mood_trial,nfynK0tiVAg2JbfmoiXFEZHbxHi2,nfynK0tiVAg2JbfmoiXFEZHbxHi2,,,,,,,,,,,,,,,,,,,,"['Very unhappy', 'Very happy']",,627a76b96bea55210aecbba9,09:05:59,27/02/2024
html-keyboard-response,112,222114,0.0-48.0,,"<div style=""font-size:100px;"">+</div>",,delaylearn,learning,ITI,nfynK0tiVAg2JbfmoiXFEZHbxHi2,nfynK0tiVAg2JbfmoiXFEZHbxHi2,,,,,,,,,,,,,,,,,,,2373.0,,,627a76b96bea55210aecbba9,09:05:59,27/02/2024
html-keyboard-response,113,223771,0.0-49.0-0.0,1656.5,"<div style=""display: flex; flex-direction: column; align-items: center; margin-top: -40px;""><img src=""images/pattern_7.png"" style=""width: 234px; height: 230px; margin-top: -50px;""><div style=""display: flex; justify-content: space-between; margin-top: 33px;""><img src=""images/choice_trial_12.png"" style=""width: 408px; height: 417px; margin-right: 200px;""><img src=""images/choice_trial_6.png"" style=""width: 408px; height: 417px;""></div></div>",f,delaylearn,learning,trial,nfynK0tiVAg2JbfmoiXFEZHbxHi2,nfynK0tiVAg2JbfmoiXFEZHbxHi2,3.0,images/choice_trial_12.png,images/choice_trial_6.png,images/pattern_7.png,j,j,750.0,12.0,6.0,6.0,1.0,21.0,0.0,0.0,12.0,130.0,,,,,,627a76b96bea55210aecbba9,09:05:59,27/02/2024
html-keyboard-response,114,224779,0.0-49.0-1.0,,"<div style=""display: flex; flex-direction: column; align-items: center; margin-top: -40px;""><img src=""images/pattern_7.png"" style=""width: 234px; height: 230px; margin-top: -50px;""><div style=""display: flex; justify-content: space-between; margin-top: 33px;""><img src=""images/choice_trial_12.png"" style=""width: 408px; height: 417px; margin-right: 608px;""></div></div>",,delaylearn,learning,display_response,nfynK0tiVAg2JbfmoiXFEZHbxHi2,nfynK0tiVAg2JbfmoiXFEZHbxHi2,,,,,,,,,,,,,,,,,chosen stimuli: images/choice_trial_12.png,,,,,627a76b96bea55210aecbba9,09:05:59,27/02/2024
html-keyboard-response,115,225535,0.0-49.0-2.0,,,,delaylearn,learning,feedback_duration_window,nfynK0tiVAg2JbfmoiXFEZHbxHi2,nfynK0tiVAg2JbfmoiXFEZHbxHi2,,,,,,,,,,,,,,,,,,750.0,,,,627a76b96bea55210aecbba9,09:05:59,27/02/2024
html-keyboard-response,116,227050,0.0-49.0-3.0,,<div style='margin:auto;width: auto; font-size: 150%'><span style='font-weight: bold; font-size: 100px; color: red;'>0 points!</span><br><br></div>,,delaylearn,learning,feedback_image_window,nfynK0tiVAg2JbfmoiXFEZHbxHi2,nfynK0tiVAg2JbfmoiXFEZHbxHi2,,,,,,,,,,,,,,,,,,,,,,627a76b96bea55210aecbba9,09:05:59,27/02/2024
html-keyboard-response,117,228707,0.0-50.0,,"<div style=""font-size:100px;"">+</div>",,delaylearn,learning,ITI,nfynK0tiVAg2JbfmoiXFEZHbxHi2,nfynK0tiVAg2JbfmoiXFEZHbxHi2,,,,,,,,,,,,,,,,,,,1653.0,,,627a76b96bea55210aecbba9,09:05:59,27/02/2024
html-keyboard-response,118,230290,0.0-51.0-0.0,1582.1000000014901,"<div style=""display: flex; flex-direction: column; align-items: center; margin-top: -40px;""><img src=""images/pattern_1.png"" style=""width: 234px; height: 230px; margin-top: -50px;""><div style=""display: flex; justify-content: space-between; margin-top: 33px;""><img src=""images/choice_trial_8.png"" style=""width: 408px; height: 417px; margin-right: 200px;""><img src=""images/choice_trial_14.png"" style=""width: 408px; height: 417px;""></div></div>",f,delaylearn,learning,trial,nfynK0tiVAg2JbfmoiXFEZHbxHi2,nfynK0tiVAg2JbfmoiXFEZHbxHi2,3.0,images/choice_trial_8.png,images/choice_trial_14.png,images/pattern_1.png,f,j,7000.0,8.0,14.0,1.0,1.0,22.0,0.0,1.0,8.0,140.0,,,,,,627a76b96bea55210aecbba9,09:05:59,27/02/2024
html-keyboard-response,119,231297,0.0-51.0-1.0,,"<div style=""display: flex; flex-direction: column; align-items: center; margin-top: -40px;""><img src=""images/pattern_1.png"" style=""width: 234px; height: 230px; margin-top: -50px;""><div style=""display: flex; justify-content: space-between; margin-top: 33px;""><img src=""images/choice_trial_8.png"" style=""width: 408px; height: 417px; margin-right: 608px;""></div></div>",,delaylearn,learning,display_response,nfynK0tiVAg2JbfmoiXFEZHbxHi2,nfynK0tiVAg2JbfmoiXFEZHbxHi2,,,,,,,,,,,,,,,,,chosen stimuli: images/choice_trial_8.png,,,,,627a76b96bea55210aecbba9,09:05:59,27/02/2024
html-keyboard-response,120,238302,0.0-51.0-2.0,,,,delaylearn,learning,feedback_duration_window,nfynK0tiVAg2JbfmoiXFEZHbxHi2,nfynK0tiVAg2JbfmoiXFEZHbxHi2,,,,,,,,,,,,,,,,,,7000.0,,,,627a76b96bea55210aecbba9,09:05:59,27/02/2024
html-keyboard-response,121,239817,0.0-51.0-3.0,,<div style='margin:auto;width: auto; font-size: 150%'><span style='font-weight: bold; font-size: 100px; color: green;'>+10 points!</span><br><br></div>,,delaylearn,learning,feedback_image_window,nfynK0tiVAg2JbfmoiXFEZHbxHi2,nfynK0tiVAg2JbfmoiXFEZHbxHi2,,,,,,,,,,,,,,,,,,,,,,627a76b96bea55210aecbba9,09:05:59,27/02/2024
html-keyboard-response,122,241328,0.0-52.0,,"<div style=""font-size:100px;"">+</div>",,delaylearn,learning,ITI,nfynK0tiVAg2JbfmoiXFEZHbxHi2,nfynK0tiVAg2JbfmoiXFEZHbxHi2,,,,,,,,,,,,,,,,,,,1500.0,,,627a76b96bea55210aecbba9,09:05:59,27/02/2024
html-keyboard-response,123,243147,0.0-53.0-0.0,1817.5,"<div style=""display: flex; flex-direction: column; align-items: center; margin-top: -40px;""><img src=""images/pattern_5.png"" style=""width: 234px; height: 230px; margin-top: -50px;""><div style=""display: flex; justify-content: space-between; margin-top: 33px;""><img src=""images/choice_trial_2.png"" style=""width: 408px; height: 417px; margin-right: 200px;""><img src=""images/choice_trial_11.png"" style=""width: 408px; height: 417px;""></div></div>",j,delaylearn,learning,trial,nfynK0tiVAg2JbfmoiXFEZHbxHi2,nfynK0tiVAg2JbfmoiXFEZHbxHi2,3.0,images/choice_trial_2.png,images/choice_trial_11.png,images/pattern_5.png,j,j,750.0,2.0,11.0,4.0,1.0,23.0,1.0,1.0,11.0,150.0,,,,,,627a76b96bea55210aecbba9,09:05:59,27/02/2024
html-keyboard-response,124,244150,0.0-53.0-1.0,,"<div style=""display: flex; flex-direction: column; align-items: center; margin-top: -40px;""><img src=""images/pattern_5.png"" style=""width: 234px; height: 230px; margin-top: -50px;""><div style=""display: flex; justify-content: space-between; margin-top: 33px;""><img src=""images/choice_trial_11.png"" style=""width: 408px; height: 417px; margin-left:608px;""></div></div>",,delaylearn,learning,display_response,nfynK0tiVAg2JbfmoiXFEZHbxHi2,nfynK0tiVAg2JbfmoiXFEZHbxHi2,,,,,,,,,,,,,,,,,chosen stimuli: images/choice_trial_11.png,,,,,627a76b96bea55210aecbba9,09:05:59,27/02/2024
html-keyboard-response,125,244907,0.0-53.0-2.0,,,,delaylearn,learning,feedback_duration_window,nfynK0tiVAg2JbfmoiXFEZHbxHi2,nfynK0tiVAg2JbfmoiXFEZHbxHi2,,,,,,,,,,,,,,,,,,750.0,,,,627a76b96bea55210aecbba9,09:05:59,27/02/2024
html-keyboard-response,126,246409,0.0-53.0-3.0,,<div style='margin:auto;width: auto; font-size: 150%'><span style='font-weight: bold; font-size: 100px; color: green;'>+10 points!</span><br><br></div>,,delaylearn,learning,feedback_image_window,nfynK0tiVAg2JbfmoiXFEZHbxHi2,nfynK0tiVAg2JbfmoiXFEZHbxHi2,,,,,,,,,,,,,,,,,,,,,,627a76b96bea55210aecbba9,09:05:59,27/02/2024
html-keyboard-response,127,248308,0.0-54.0,,"<div style=""font-size:100px;"">+</div>",,delaylearn,learning,ITI,nfynK0tiVAg2JbfmoiXFEZHbxHi2,nfynK0tiVAg2JbfmoiXFEZHbxHi2,,,,,,,,,,,,,,,,,,,1895.0,,,627a76b96bea55210aecbba9,09:05:59,27/02/2024
html-keyboard-response,128,249435,0.0-55.0-0.0,1125.0,"<div style=""display: flex; flex-direction: column; align-items: center; margin-top: -40px;""><img src=""images/pattern_3.png"" style=""width: 234px; height: 230px; margin-top: -50px;""><div style=""display: flex; justify-content: space-between; margin-top: 33px;""><img src=""images/choice_trial_10.png"" style=""width: 408px; height: 417px; margin-right: 200px;""><img src=""images/choice_trial_13.png"" style=""width: 408px; height: 417px;""></div></div>",j,delaylearn,learning,trial,nfynK0tiVAg2JbfmoiXFEZHbxHi2,nfynK0tiVAg2JbfmoiXFEZHbxHi2,3.0,images/choice_trial_10.png,images/choice_trial_13.png,images/pattern_3.png,j,j,7000.0,10.0,13.0,2.0,1.0,24.0,1.0,1.0,13.0,160.0,,,,,,627a76b96bea55210aecbba9,09:05:59,27/02/2024
html-keyboard-response,129,250441,0.0-55.0-1.0,,"<div style=""display: flex; flex-direction: column; align-items: center; margin-top: -40px;""><img src=""images/pattern_3.png"" style=""width: 234px; height: 230px; margin-top: -50px;""><div style=""display: flex; justify-content: space-between; margin-top: 33px;""><img src=""images/choice_trial_13.png"" style=""width: 408px; height: 417px; margin-left:608px;""></div></div>",,delaylearn,learning,display_response,nfynK0tiVAg2JbfmoiXFEZHbxHi2,nfynK0tiVAg2JbfmoiXFEZHbxHi2,,,,,,,,,,,,,,,,,chosen stimuli: images/choice_trial_13.png,,,,,627a76b96bea55210aecbba9,09:05:59,27/02/2024
html-keyboard-response,130,257453,0.0-55.0-2.0,,,,delaylearn,learning,feedback_duration_window,nfynK0tiVAg2JbfmoiXFEZHbxHi2,nfynK0tiVAg2JbfmoiXFEZHbxHi2,,,,,,,,,,,,,,,,,,7000.0,,,,627a76b96bea55210aecbba9,09:05:59,27/02/2024
html-keyboard-response,131,258967,0.0-55.0-3.0,,<div style='margin:auto;width: auto; font-size: 150%'><span style='font-weight: bold; font-size: 100px; color: green;'>+10 points!</span><br><br></div>,,delaylearn,learning,feedback_image_window,nfynK0tiVAg2JbfmoiXFEZHbxHi2,nfynK0tiVAg2JbfmoiXFEZHbxHi2,,,,,,,,,,,,,,,,,,,,,,627a76b96bea55210aecbba9,09:05:59,27/02/2024
lmdlab-html-vas-response,132,266237,0.0-56.0-0.0,5759.0,*How <b><u>confident</u></b> are you feeling about your answers at this moment?*,0.6697530864197531,rewlearn,rate_confidence,,nfynK0tiVAg2JbfmoiXFEZHbxHi2,nfynK0tiVAg2JbfmoiXFEZHbxHi2,,,,,,,,,,,,,,,,,,,,"['No confidence', 'Complete confidence']",,627a76b96bea55210aecbba9,09:05:59,27/02/2024
lmdlab-rest-trial-limit,133,387331,0.0-56.0-1.0,119580.5,"<div style=""font-size:40px;""><b>Please take a break!</b><br><br><br><br><p>Great work: you earned undefined points.<br><br><br><p>You have completed part(s) 1 of 6.<br><br><br><br>When you are ready to continue<br><br><br>please click the button.</p><br><br>",0,delaylearn,learning,break,nfynK0tiVAg2JbfmoiXFEZHbxHi2,nfynK0tiVAg2JbfmoiXFEZHbxHi2,,,,,,,,,,,,,,,,,,,,,0.0,627a76b96bea55210aecbba9,09:05:59,27/02/2024
html-keyboard-response,134,390343,0.0-56.0-2.0,,"<div style=""font-size:100px;"">+</div>",,delaylearn,learning,pre_fixation,nfynK0tiVAg2JbfmoiXFEZHbxHi2,,,,,,,,,,,,,,,,,,,,,,,627a76b96bea55210aecbba9,09:05:59,27/02/2024
lmdlab-html-vas-response,135,394295,0.0-56.0-3.0-0.0,2944.0,How happy are you right now?,0.6265432098765432,delaylearn,learning,mood_baseline,nfynK0tiVAg2JbfmoiXFEZHbxHi2,nfynK0tiVAg2JbfmoiXFEZHbxHi2,,,,,,,,,,,,,,,,,,,,"['Very unhappy', 'Very happy']",,627a76b96bea55210aecbba9,09:05:59,27/02/2024
html-keyboard-response,136,395809,0.0-56.0-3.0-1.0,,,,,,mood_baseline_fixation,nfynK0tiVAg2JbfmoiXFEZHbxHi2,,,,,,,,,,,,,,,,,,,,,,,627a76b96bea55210aecbba9,09:05:59,27/02/2024
html-keyboard-response,137,397652,0.0-57.0,,"<div style=""font-size:100px;"">+</div>",,delaylearn,learning,ITI,nfynK0tiVAg2JbfmoiXFEZHbxHi2,nfynK0tiVAg2JbfmoiXFEZHbxHi2,,,,,,,,,,,,,,,,,,,1842.0,,,627a76b96bea55210aecbba9,09:05:59,27/02/2024
html-keyboard-response,138,399131,0.0-58.0-0.0,1477.1000000014901,"<div style=""display: flex; flex-direction: column; align-items: center; margin-top: -40px;""><img src=""images/pattern_7.png"" style=""width: 234px; height: 230px; margin-top: -50px;""><div style=""display: flex; justify-content: space-between; margin-top: 33px;""><img src=""images/choice_trial_12.png"" style=""width: 408px; height: 417px; margin-right: 200px;""><img src=""images/choice_trial_6.png"" style=""width: 408px; height: 417px;""></div></div>",f,delaylearn,learning,trial,nfynK0tiVAg2JbfmoiXFEZHbxHi2,nfynK0tiVAg2JbfmoiXFEZHbxHi2,3.0,images/choice_trial_12.png,images/choice_trial_6.png,images/pattern_7.png,j,j,750.0,12.0,6.0,6.0,1.0,25.0,0.0,0.0,12.0,160.0,,,,,,627a76b96bea55210aecbba9,09:05:59,27/02/2024
html-keyboard-response,139,400143,0.0-58.0-1.0,,"<div style=""display: flex; flex-direction: column; align-items: center; margin-top: -40px;""><img src=""images/pattern_7.png"" style=""width: 234px; height: 230px; margin-top: -50px;""><div style=""display: flex; justify-content: space-between; margin-top: 33px;""><img src=""images/choice_trial_12.png"" style=""width: 408px; height: 417px; margin-right: 608px;""></div></div>",,delaylearn,learning,display_response,nfynK0tiVAg2JbfmoiXFEZHbxHi2,nfynK0tiVAg2JbfmoiXFEZHbxHi2,,,,,,,,,,,,,,,,,chosen stimuli: images/choice_trial_12.png,,,,,627a76b96bea55210aecbba9,09:05:59,27/02/2024
html-keyboard-response,140,400898,0.0-58.0-2.0,,,,delaylearn,learning,feedback_duration_window,nfynK0tiVAg2JbfmoiXFEZHbxHi2,nfynK0tiVAg2JbfmoiXFEZHbxHi2,,,,,,,,,,,,,,,,,,750.0,,,,627a76b96bea55210aecbba9,09:05:59,27/02/2024
html-keyboard-response,141,402408,0.0-58.0-3.0,,<div style='margin:auto;width: auto; font-size: 150%'><span style='font-weight: bold; font-size: 100px; color: red;'>0 points!</span><br><br></div>,,delaylearn,learning,feedback_image_window,nfynK0tiVAg2JbfmoiXFEZHbxHi2,nfynK0tiVAg2JbfmoiXFEZHbxHi2,,,,,,,,,,,,,,,,,,,,,,627a76b96bea55210aecbba9,09:05:59,27/02/2024
html-keyboard-response,142,402911,0.0-59.0-0.0,,,,,,mood_trial_fixation,nfynK0tiVAg2JbfmoiXFEZHbxHi2,,,,,,,,,,,,,,,,,,,,,,,627a76b96bea55210aecbba9,09:05:59,27/02/2024
lmdlab-html-vas-response,143,408447,0.0-59.0-1.0,4524.0,How happy are you right now?,0.46296296296296297,delaylearn,learning,mood_trial,nfynK0tiVAg2JbfmoiXFEZHbxHi2,nfynK0tiVAg2JbfmoiXFEZHbxHi2,,,,,,,,,,,,,,,,,,,,"['Very unhappy', 'Very happy']",,627a76b96bea55210aecbba9,09:05:59,27/02/2024
html-keyboard-response,144,410244,0.0-60.0,,"<div style=""font-size:100px;"">+</div>",,delaylearn,learning,ITI,nfynK0tiVAg2JbfmoiXFEZHbxHi2,nfynK0tiVAg2JbfmoiXFEZHbxHi2,,,,,,,,,,,,,,,,,,,1788.0,,,627a76b96bea55210aecbba9,09:05:59,27/02/2024
html-keyboard-response,145,411851,0.0-61.0-0.0,1605.7000000029802,"<div style=""display: flex; flex-direction: column; align-items: center; margin-top: -40px;""><img src=""images/pattern_1.png"" style=""width: 234px; height: 230px; margin-top: -50px;""><div style=""display: flex; justify-content: space-between; margin-top: 33px;""><img src=""images/choice_trial_14.png"" style=""width: 408px; height: 417px; margin-right: 200px;""><img src=""images/choice_trial_8.png"" style=""width: 408px; height: 417px;""></div></div>",j,delaylearn,learning,trial,nfynK0tiVAg2JbfmoiXFEZHbxHi2,nfynK0tiVAg2JbfmoiXFEZHbxHi2,3.0,images/choice_trial_14.png,images/choice_trial_8.png,images/pattern_1.png,f,f,7000.0,14.0,8.0,1.0,0.0,26.0,0.0,0.0,8.0,160.0,,,,,,627a76b96bea55210aecbba9,09:05:59,27/02/2024
html-keyboard-response,146,412864,0.0-61.0-1.0,,"<div style=""display: flex; flex-direction: column; align-items: center; margin-top: -40px;""><img src=""images/pattern_1.png"" style=""width: 234px; height: 230px; margin-top: -50px;""><div style=""display: flex; justify-content: space-between; margin-top: 33px;""><img src=""images/choice_trial_8.png"" style=""width: 408px; height: 417px; margin-left:608px;""></div></div>",,delaylearn,learning,display_response,nfynK0tiVAg2JbfmoiXFEZHbxHi2,nfynK0tiVAg2JbfmoiXFEZHbxHi2,,,,,,,,,,,,,,,,,chosen stimuli: images/choice_trial_8.png,,,,,627a76b96bea55210aecbba9,09:05:59,27/02/2024
html-keyboard-response,147,419875,0.0-61.0-2.0,,,,delaylearn,learning,feedback_duration_window,nfynK0tiVAg2JbfmoiXFEZHbxHi2,nfynK0tiVAg2JbfmoiXFEZHbxHi2,,,,,,,,,,,,,,,,,,7000.0,,,,627a76b96bea55210aecbba9,09:05:59,27/02/2024
html-keyboard-response,148,421384,0.0-61.0-3.0,,<div style='margin:auto;width: auto; font-size: 150%'><span style='font-weight: bold; font-size: 100px; color: red;'>0 points!</span><br><br></div>,,delaylearn,learning,feedback_image_window,nfynK0tiVAg2JbfmoiXFEZHbxHi2,nfynK0tiVAg2JbfmoiXFEZHbxHi2,,,,,,,,,,,,,,,,,,,,,,627a76b96bea55210aecbba9,09:05:59,27/02/2024
html-keyboard-response,149,423737,0.0-62.0,,"<div style=""font-size:100px;"">+</div>",,delaylearn,learning,ITI,nfynK0tiVAg2JbfmoiXFEZHbxHi2,nfynK0tiVAg2JbfmoiXFEZHbxHi2,,,,,,,,,,,,,,,,,,,2337.0,,,627a76b96bea55210aecbba9,09:05:59,27/02/2024
html-keyboard-response,150,424939,0.0-63.0-0.0,1200.3999999985099,"<div style=""display: flex; flex-direction: column; align-items: center; margin-top: -40px;""><img src=""images/pattern_5.png"" style=""width: 234px; height: 230px; margin-top: -50px;""><div style=""display: flex; justify-content: space-between; margin-top: 33px;""><img src=""images/choice_trial_11.png"" style=""width: 408px; height: 417px; margin-right: 200px;""><img src=""images/choice_trial_2.png"" style=""width: 408px; height: 417px;""></div></div>",f,delaylearn,learning,trial,nfynK0tiVAg2JbfmoiXFEZHbxHi2,nfynK0tiVAg2JbfmoiXFEZHbxHi2,3.0,images/choice_trial_11.png,images/choice_trial_2.png,images/pattern_5.png,f,f,750.0,11.0,2.0,4.0,0.0,27.0,1.0,1.0,11.0,170.0,,,,,,627a76b96bea55210aecbba9,09:05:59,27/02/2024
html-keyboard-response,151,425946,0.0-63.0-1.0,,"<div style=""display: flex; flex-direction: column; align-items: center; margin-top: -40px;""><img src=""images/pattern_5.png"" style=""width: 234px; height: 230px; margin-top: -50px;""><div style=""display: flex; justify-content: space-between; margin-top: 33px;""><img src=""images/choice_trial_11.png"" style=""width: 408px; height: 417px; margin-right: 608px;""></div></div>",,delaylearn,learning,display_response,nfynK0tiVAg2JbfmoiXFEZHbxHi2,nfynK0tiVAg2JbfmoiXFEZHbxHi2,,,,,,,,,,,,,,,,,chosen stimuli: images/choice_trial_11.png,,,,,627a76b96bea55210aecbba9,09:05:59,27/02/2024
html-keyboard-response,152,426703,0.0-63.0-2.0,,,,delaylearn,learning,feedback_duration_window,nfynK0tiVAg2JbfmoiXFEZHbxHi2,nfynK0tiVAg2JbfmoiXFEZHbxHi2,,,,,,,,,,,,,,,,,,750.0,,,,627a76b96bea55210aecbba9,09:05:59,27/02/2024
html-keyboard-response,153,428220,0.0-63.0-3.0,,<div style='margin:auto;width: auto; font-size: 150%'><span style='font-weight: bold; font-size: 100px; color: green;'>+10 points!</span><br><br></div>,,delaylearn,learning,feedback_image_window,nfynK0tiVAg2JbfmoiXFEZHbxHi2,nfynK0tiVAg2JbfmoiXFEZHbxHi2,,,,,,,,,,,,,,,,,,,,,,627a76b96bea55210aecbba9,09:05:59,27/02/2024
html-keyboard-response,154,430129,0.0-64.0,,"<div style=""font-size:100px;"">+</div>",,delaylearn,learning,ITI,nfynK0tiVAg2JbfmoiXFEZHbxHi2,nfynK0tiVAg2JbfmoiXFEZHbxHi2,,,,,,,,,,,,,,,,,,,1900.0,,,627a76b96bea55210aecbba9,09:05:59,27/02/2024
html-keyboard-response,155,431394,0.0-65.0-0.0,1264.3999999985099,"<div style=""display: flex; flex-direction: column; align-items: center; margin-top: -40px;""><img src=""images/pattern_6.png"" style=""width: 234px; height: 230px; margin-top: -50px;""><div style=""display: flex; justify-content: space-between; margin-top: 33px;""><img src=""images/choice_trial_3.png"" style=""width: 408px; height: 417px; margin-right: 200px;""><img src=""images/choice_trial_16.png"" style=""width: 408px; height: 417px;""></div></div>",j,delaylearn,learning,trial,nfynK0tiVAg2JbfmoiXFEZHbxHi2,nfynK0tiVAg2JbfmoiXFEZHbxHi2,3.0,images/choice_trial_3.png,images/choice_trial_16.png,images/pattern_6.png,j,j,750.0,3.0,16.0,5.0,1.0,28.0,1.0,1.0,16.0,180.0,,,,,,627a76b96bea55210aecbba9,09:05:59,27/02/2024
html-keyboard-response,156,432399,0.0-65.0-1.0,,"<div style=""display: flex; flex-direction: column; align-items: center; margin-top: -40px;""><img src=""images/pattern_6.png"" style=""width: 234px; height: 230px; margin-top: -50px;""><div style=""display: flex; justify-content: space-between; margin-top: 33px;""><img src=""images/choice_trial_16.png"" style=""width: 408px; height: 417px; margin-left:608px;""></div></div>",,delaylearn,learning,display_response,nfynK0tiVAg2JbfmoiXFEZHbxHi2,nfynK0tiVAg2JbfmoiXFEZHbxHi2,,,,,,,,,,,,,,,,,chosen stimuli: images/choice_trial_16.png,,,,,627a76b96bea55210aecbba9,09:05:59,27/02/2024
html-keyboard-response,157,433156,0.0-65.0-2.0,,,,delaylearn,learning,feedback_duration_window,nfynK0tiVAg2JbfmoiXFEZHbxHi2,nfynK0tiVAg2JbfmoiXFEZHbxHi2,,,,,,,,,,,,,,,,,,750.0,,,,627a76b96bea55210aecbba9,09:05:59,27/02/2024
html-keyboard-response,158,434668,0.0-65.0-3.0,,<div style='margin:auto;width: auto; font-size: 150%'><span style='font-weight: bold; font-size: 100px; color: green;'>+10 points!</span><br><br></div>,,delaylearn,learning,feedback_image_window,nfynK0tiVAg2JbfmoiXFEZHbxHi2,nfynK0tiVAg2JbfmoiXFEZHbxHi2,,,,,,,,,,,,,,,,,,,,,,627a76b96bea55210aecbba9,09:05:59,27/02/2024
html-keyboard-response,159,435172,0.0-66.0-0.0,,,,,,mood_trial_fixation,nfynK0tiVAg2JbfmoiXFEZHbxHi2,,,,,,,,,,,,,,,,,,,,,,,627a76b96bea55210aecbba9,09:05:59,27/02/2024
lmdlab-html-vas-response,160,439087,0.0-66.0-1.0,2909.0,How happy are you right now?,0.49228395061728397,delaylearn,learning,mood_trial,nfynK0tiVAg2JbfmoiXFEZHbxHi2,nfynK0tiVAg2JbfmoiXFEZHbxHi2,,,,,,,,,,,,,,,,,,,,"['Very unhappy', 'Very happy']",,627a76b96bea55210aecbba9,09:05:59,27/02/2024
html-keyboard-response,161,440623,0.0-67.0,,"<div style=""font-size:100px;"">+</div>",,delaylearn,learning,ITI,nfynK0tiVAg2JbfmoiXFEZHbxHi2,nfynK0tiVAg2JbfmoiXFEZHbxHi2,,,,,,,,,,,,,,,,,,,1531.0,,,627a76b96bea55210aecbba9,09:05:59,27/02/2024
html-keyboard-response,162,441475,0.0-68.0-0.0,850.1000000014901,"<div style=""display: flex; flex-direction: column; align-items: center; margin-top: -40px;""><img src=""images/pattern_4.png"" style=""width: 234px; height: 230px; margin-top: -50px;""><div style=""display: flex; justify-content: space-between; margin-top: 33px;""><img src=""images/choice_trial_9.png"" style=""width: 408px; height: 417px; margin-right: 200px;""><img src=""images/choice_trial_15.png"" style=""width: 408px; height: 417px;""></div></div>",j,delaylearn,learning,trial,nfynK0tiVAg2JbfmoiXFEZHbxHi2,nfynK0tiVAg2JbfmoiXFEZHbxHi2,3.0,images/choice_trial_9.png,images/choice_trial_15.png,images/pattern_4.png,j,j,7000.0,9.0,15.0,3.0,1.0,29.0,1.0,1.0,15.0,190.0,,,,,,627a76b96bea55210aecbba9,09:05:59,27/02/2024
html-keyboard-response,163,442485,0.0-68.0-1.0,,"<div style=""display: flex; flex-direction: column; align-items: center; margin-top: -40px;""><img src=""images/pattern_4.png"" style=""width: 234px; height: 230px; margin-top: -50px;""><div style=""display: flex; justify-content: space-between; margin-top: 33px;""><img src=""images/choice_trial_15.png"" style=""width: 408px; height: 417px; margin-left:608px;""></div></div>",,delaylearn,learning,display_response,nfynK0tiVAg2JbfmoiXFEZHbxHi2,nfynK0tiVAg2JbfmoiXFEZHbxHi2,,,,,,,,,,,,,,,,,chosen stimuli: images/choice_trial_15.png,,,,,627a76b96bea55210aecbba9,09:05:59,27/02/2024
html-keyboard-response,164,449490,0.0-68.0-2.0,,,,delaylearn,learning,feedback_duration_window,nfynK0tiVAg2JbfmoiXFEZHbxHi2,nfynK0tiVAg2JbfmoiXFEZHbxHi2,,,,,,,,,,,,,,,,,,7000.0,,,,627a76b96bea55210aecbba9,09:05:59,27/02/2024
html-keyboard-response,165,450995,0.0-68.0-3.0,,<div style='margin:auto;width: auto; font-size: 150%'><span style='font-weight: bold; font-size: 100px; color: green;'>+10 points!</span><br><br></div>,,delaylearn,learning,feedback_image_window,nfynK0tiVAg2JbfmoiXFEZHbxHi2,nfynK0tiVAg2JbfmoiXFEZHbxHi2,,,,,,,,,,,,,,,,,,,,,,627a76b96bea55210aecbba9,09:05:59,27/02/2024
html-keyboard-response,166,452635,0.0-69.0,,"<div style=""font-size:100px;"">+</div>",,delaylearn,learning,ITI,nfynK0tiVAg2JbfmoiXFEZHbxHi2,nfynK0tiVAg2JbfmoiXFEZHbxHi2,,,,,,,,,,,,,,,,,,,1631.0,,,627a76b96bea55210aecbba9,09:05:59,27/02/2024
html-keyboard-response,167,454091,0.0-70.0-0.0,1454.2999999970198,"<div style=""display: flex; flex-direction: column; align-items: center; margin-top: -40px;""><img src=""images/pattern_3.png"" style=""width: 234px; height: 230px; margin-top: -50px;""><div style=""display: flex; justify-content: space-between; margin-top: 33px;""><img src=""images/choice_trial_10.png"" style=""width: 408px; height: 417px; margin-right: 200px;""><img src=""images/choice_trial_13.png"" style=""width: 408px; height: 417px;""></div></div>",j,delaylearn,learning,trial,nfynK0tiVAg2JbfmoiXFEZHbxHi2,nfynK0tiVAg2JbfmoiXFEZHbxHi2,3.0,images/choice_trial_10.png,images/choice_trial_13.png,images/pattern_3.png,j,j,7000.0,10.0,13.0,2.0,1.0,30.0,1.0,1.0,13.0,200.0,,,,,,627a76b96bea55210aecbba9,09:05:59,27/02/2024
html-keyboard-response,168,455093,0.0-70.0-1.0,,"<div style=""display: flex; flex-direction: column; align-items: center; margin-top: -40px;""><img src=""images/pattern_3.png"" style=""width: 234px; height: 230px; margin-top: -50px;""><div style=""display: flex; justify-content: space-between; margin-top: 33px;""><img src=""images/choice_trial_13.png"" style=""width: 408px; height: 417px; margin-left:608px;""></div></div>",,delaylearn,learning,display_response,nfynK0tiVAg2JbfmoiXFEZHbxHi2,nfynK0tiVAg2JbfmoiXFEZHbxHi2,,,,,,,,,,,,,,,,,chosen stimuli: images/choice_trial_13.png,,,,,627a76b96bea55210aecbba9,09:05:59,27/02/2024
html-keyboard-response,169,462094,0.0-70.0-2.0,,,,delaylearn,learning,feedback_duration_window,nfynK0tiVAg2JbfmoiXFEZHbxHi2,nfynK0tiVAg2JbfmoiXFEZHbxHi2,,,,,,,,,,,,,,,,,,7000.0,,,,627a76b96bea55210aecbba9,09:05:59,27/02/2024
html-keyboard-response,170,463609,0.0-70.0-3.0,,<div style='margin:auto;width: auto; font-size: 150%'><span style='font-weight: bold; font-size: 100px; color: green;'>+10 points!</span><br><br></div>,,delaylearn,learning,feedback_image_window,nfynK0tiVAg2JbfmoiXFEZHbxHi2,nfynK0tiVAg2JbfmoiXFEZHbxHi2,,,,,,,,,,,,,,,,,,,,,,627a76b96bea55210aecbba9,09:05:59,27/02/2024
html-keyboard-response,171,465944,0.0-71.0,,"<div style=""font-size:100px;"">+</div>",,delaylearn,learning,ITI,nfynK0tiVAg2JbfmoiXFEZHbxHi2,nfynK0tiVAg2JbfmoiXFEZHbxHi2,,,,,,,,,,,,,,,,,,,2328.0,,,627a76b96bea55210aecbba9,09:05:59,27/02/2024
html-keyboard-response,172,467195,0.0-72.0-0.0,1249.0,"<div style=""display: flex; flex-direction: column; align-items: center; margin-top: -40px;""><img src=""images/pattern_5.png"" style=""width: 234px; height: 230px; margin-top: -50px;""><div style=""display: flex; justify-content: space-between; margin-top: 33px;""><img src=""images/choice_trial_11.png"" style=""width: 408px; height: 417px; margin-right: 200px;""><img src=""images/choice_trial_2.png"" style=""width: 408px; height: 417px;""></div></div>",f,delaylearn,learning,trial,nfynK0tiVAg2JbfmoiXFEZHbxHi2,nfynK0tiVAg2JbfmoiXFEZHbxHi2,3.0,images/choice_trial_11.png,images/choice_trial_2.png,images/pattern_5.png,j,f,750.0,11.0,2.0,4.0,0.0,31.0,1.0,0.0,11.0,200.0,,,,,,627a76b96bea55210aecbba9,09:05:59,27/02/2024
html-keyboard-response,173,468212,0.0-72.0-1.0,,"<div style=""display: flex; flex-direction: column; align-items: center; margin-top: -40px;""><img src=""images/pattern_5.png"" style=""width: 234px; height: 230px; margin-top: -50px;""><div style=""display: flex; justify-content: space-between; margin-top: 33px;""><img src=""images/choice_trial_11.png"" style=""width: 408px; height: 417px; margin-right: 608px;""></div></div>",,delaylearn,learning,display_response,nfynK0tiVAg2JbfmoiXFEZHbxHi2,nfynK0tiVAg2JbfmoiXFEZHbxHi2,,,,,,,,,,,,,,,,,chosen stimuli: images/choice_trial_11.png,,,,,627a76b96bea55210aecbba9,09:05:59,27/02/2024
html-keyboard-response,174,468974,0.0-72.0-2.0,,,,delaylearn,learning,feedback_duration_window,nfynK0tiVAg2JbfmoiXFEZHbxHi2,nfynK0tiVAg2JbfmoiXFEZHbxHi2,,,,,,,,,,,,,,,,,,750.0,,,,627a76b96bea55210aecbba9,09:05:59,27/02/2024
html-keyboard-response,175,470483,0.0-72.0-3.0,,<div style='margin:auto;width: auto; font-size: 150%'><span style='font-weight: bold; font-size: 100px; color: red;'>0 points!</span><br><br></div>,,delaylearn,learning,feedback_image_window,nfynK0tiVAg2JbfmoiXFEZHbxHi2,nfynK0tiVAg2JbfmoiXFEZHbxHi2,,,,,,,,,,,,,,,,,,,,,,627a76b96bea55210aecbba9,09:05:59,27/02/2024
html-keyboard-response,176,472970,0.0-73.0,,"<div style=""font-size:100px;"">+</div>",,delaylearn,learning,ITI,nfynK0tiVAg2JbfmoiXFEZHbxHi2,nfynK0tiVAg2JbfmoiXFEZHbxHi2,,,,,,,,,,,,,,,,,,,2479.0,,,627a76b96bea55210aecbba9,09:05:59,27/02/2024
html-keyboard-response,177,474650,0.0-74.0-0.0,1679.0,"<div style=""display: flex; flex-direction: column; align-items: center; margin-top: -40px;""><img src=""images/pattern_1.png"" style=""width: 234px; height: 230px; margin-top: -50px;""><div style=""display: flex; justify-content: space-between; margin-top: 33px;""><img src=""images/choice_trial_14.png"" style=""width: 408px; height: 417px; margin-right: 200px;""><img src=""images/choice_trial_8.png"" style=""width: 408px; height: 417px;""></div></div>",j,delaylearn,learning,trial,nfynK0tiVAg2JbfmoiXFEZHbxHi2,nfynK0tiVAg2JbfmoiXFEZHbxHi2,3.0,images/choice_trial_14.png,images/choice_trial_8.png,images/pattern_1.png,f,f,7000.0,14.0,8.0,1.0,0.0,32.0,0.0,0.0,8.0,200.0,,,,,,627a76b96bea55210aecbba9,09:05:59,27/02/2024
html-keyboard-response,178,475660,0.0-74.0-1.0,,"<div style=""display: flex; flex-direction: column; align-items: center; margin-top: -40px;""><img src=""images/pattern_1.png"" style=""width: 234px; height: 230px; margin-top: -50px;""><div style=""display: flex; justify-content: space-between; margin-top: 33px;""><img src=""images/choice_trial_8.png"" style=""width: 408px; height: 417px; margin-left:608px;""></div></div>",,delaylearn,learning,display_response,nfynK0tiVAg2JbfmoiXFEZHbxHi2,nfynK0tiVAg2JbfmoiXFEZHbxHi2,,,,,,,,,,,,,,,,,chosen stimuli: images/choice_trial_8.png,,,,,627a76b96bea55210aecbba9,09:05:59,27/02/2024
html-keyboard-response,179,482667,0.0-74.0-2.0,,,,delaylearn,learning,feedback_duration_window,nfynK0tiVAg2JbfmoiXFEZHbxHi2,nfynK0tiVAg2JbfmoiXFEZHbxHi2,,,,,,,,,,,,,,,,,,7000.0,,,,627a76b96bea55210aecbba9,09:05:59,27/02/2024
html-keyboard-response,180,484176,0.0-74.0-3.0,,<div style='margin:auto;width: auto; font-size: 150%'><span style='font-weight: bold; font-size: 100px; color: red;'>0 points!</span><br><br></div>,,delaylearn,learning,feedback_image_window,nfynK0tiVAg2JbfmoiXFEZHbxHi2,nfynK0tiVAg2JbfmoiXFEZHbxHi2,,,,,,,,,,,,,,,,,,,,,,627a76b96bea55210aecbba9,09:05:59,27/02/2024
html-keyboard-response,181,484686,0.0-75.0-0.0,,,,,,mood_trial_fixation,nfynK0tiVAg2JbfmoiXFEZHbxHi2,,,,,,,,,,,,,,,,,,,,,,,627a76b96bea55210aecbba9,09:05:59,27/02/2024
lmdlab-html-vas-response,182,488167,0.0-75.0-1.0,2469.0,How happy are you right now?,0.5385802469135802,delaylearn,learning,mood_trial,nfynK0tiVAg2JbfmoiXFEZHbxHi2,nfynK0tiVAg2JbfmoiXFEZHbxHi2,,,,,,,,,,,,,,,,,,,,"['Very unhappy', 'Very happy']",,627a76b96bea55210aecbba9,09:05:59,27/02/2024
html-keyboard-response,183,489992,0.0-76.0,,"<div style=""font-size:100px;"">+</div>",,delaylearn,learning,ITI,nfynK0tiVAg2JbfmoiXFEZHbxHi2,nfynK0tiVAg2JbfmoiXFEZHbxHi2,,,,,,,,,,,,,,,,,,,1810.0,,,627a76b96bea55210aecbba9,09:05:59,27/02/2024
html-keyboard-response,184,491075,0.0-77.0-0.0,1081.6000000014901,"<div style=""display: flex; flex-direction: column; align-items: center; margin-top: -40px;""><img src=""images/pattern_6.png"" style=""width: 234px; height: 230px; margin-top: -50px;""><div style=""display: flex; justify-content: space-between; margin-top: 33px;""><img src=""images/choice_trial_16.png"" style=""width: 408px; height: 417px; margin-right: 200px;""><img src=""images/choice_trial_3.png"" style=""width: 408px; height: 417px;""></div></div>",f,delaylearn,learning,trial,nfynK0tiVAg2JbfmoiXFEZHbxHi2,nfynK0tiVAg2JbfmoiXFEZHbxHi2,3.0,images/choice_trial_16.png,images/choice_trial_3.png,images/pattern_6.png,j,f,750.0,16.0,3.0,5.0,0.0,33.0,1.0,0.0,16.0,200.0,,,,,,627a76b96bea55210aecbba9,09:05:59,27/02/2024
html-keyboard-response,185,492088,0.0-77.0-1.0,,"<div style=""display: flex; flex-direction: column; align-items: center; margin-top: -40px;""><img src=""images/pattern_6.png"" style=""width: 234px; height: 230px; margin-top: -50px;""><div style=""display: flex; justify-content: space-between; margin-top: 33px;""><img src=""images/choice_trial_16.png"" style=""width: 408px; height: 417px; margin-right: 608px;""></div></div>",,delaylearn,learning,display_response,nfynK0tiVAg2JbfmoiXFEZHbxHi2,nfynK0tiVAg2JbfmoiXFEZHbxHi2,,,,,,,,,,,,,,,,,chosen stimuli: images/choice_trial_16.png,,,,,627a76b96bea55210aecbba9,09:05:59,27/02/2024
html-keyboard-response,186,492850,0.0-77.0-2.0,,,,delaylearn,learning,feedback_duration_window,nfynK0tiVAg2JbfmoiXFEZHbxHi2,nfynK0tiVAg2JbfmoiXFEZHbxHi2,,,,,,,,,,,,,,,,,,750.0,,,,627a76b96bea55210aecbba9,09:05:59,27/02/2024
html-keyboard-response,187,494352,0.0-77.0-3.0,,<div style='margin:auto;width: auto; font-size: 150%'><span style='font-weight: bold; font-size: 100px; color: red;'>0 points!</span><br><br></div>,,delaylearn,learning,feedback_image_window,nfynK0tiVAg2JbfmoiXFEZHbxHi2,nfynK0tiVAg2JbfmoiXFEZHbxHi2,,,,,,,,,,,,,,,,,,,,,,627a76b96bea55210aecbba9,09:05:59,27/02/2024
html-keyboard-response,188,496048,0.0-78.0,,"<div style=""font-size:100px;"">+</div>",,delaylearn,learning,ITI,nfynK0tiVAg2JbfmoiXFEZHbxHi2,nfynK0tiVAg2JbfmoiXFEZHbxHi2,,,,,,,,,,,,,,,,,,,1694.0,,,627a76b96bea55210aecbba9,09:05:59,27/02/2024
html-keyboard-response,189,497010,0.0-79.0-0.0,960.6999999955297,"<div style=""display: flex; flex-direction: column; align-items: center; margin-top: -40px;""><img src=""images/pattern_3.png"" style=""width: 234px; height: 230px; margin-top: -50px;""><div style=""display: flex; justify-content: space-between; margin-top: 33px;""><img src=""images/choice_trial_10.png"" style=""width: 408px; height: 417px; margin-right: 200px;""><img src=""images/choice_trial_13.png"" style=""width: 408px; height: 417px;""></div></div>",j,delaylearn,learning,trial,nfynK0tiVAg2JbfmoiXFEZHbxHi2,nfynK0tiVAg2JbfmoiXFEZHbxHi2,3.0,images/choice_trial_10.png,images/choice_trial_13.png,images/pattern_3.png,j,j,7000.0,10.0,13.0,2.0,1.0,34.0,1.0,1.0,13.0,210.0,,,,,,627a76b96bea55210aecbba9,09:05:59,27/02/2024
html-keyboard-response,190,498022,0.0-79.0-1.0,,"<div style=""display: flex; flex-direction: column; align-items: center; margin-top: -40px;""><img src=""images/pattern_3.png"" style=""width: 234px; height: 230px; margin-top: -50px;""><div style=""display: flex; justify-content: space-between; margin-top: 33px;""><img src=""images/choice_trial_13.png"" style=""width: 408px; height: 417px; margin-left:608px;""></div></div>",,delaylearn,learning,display_response,nfynK0tiVAg2JbfmoiXFEZHbxHi2,nfynK0tiVAg2JbfmoiXFEZHbxHi2,,,,,,,,,,,,,,,,,chosen stimuli: images/choice_trial_13.png,,,,,627a76b96bea55210aecbba9,09:05:59,27/02/2024
html-keyboard-response,191,505025,0.0-79.0-2.0,,,,delaylearn,learning,feedback_duration_window,nfynK0tiVAg2JbfmoiXFEZHbxHi2,nfynK0tiVAg2JbfmoiXFEZHbxHi2,,,,,,,,,,,,,,,,,,7000.0,,,,627a76b96bea55210aecbba9,09:05:59,27/02/2024
html-keyboard-response,192,506540,0.0-79.0-3.0,,<div style='margin:auto;width: auto; font-size: 150%'><span style='font-weight: bold; font-size: 100px; color: green;'>+10 points!</span><br><br></div>,,delaylearn,learning,feedback_image_window,nfynK0tiVAg2JbfmoiXFEZHbxHi2,nfynK0tiVAg2JbfmoiXFEZHbxHi2,,,,,,,,,,,,,,,,,,,,,,627a76b96bea55210aecbba9,09:05:59,27/02/2024
html-keyboard-response,193,508716,0.0-80.0,,"<div style=""font-size:100px;"">+</div>",,delaylearn,learning,ITI,nfynK0tiVAg2JbfmoiXFEZHbxHi2,nfynK0tiVAg2JbfmoiXFEZHbxHi2,,,,,,,,,,,,,,,,,,,2166.0,,,627a76b96bea55210aecbba9,09:05:59,27/02/2024
html-keyboard-response,194,509763,0.0-81.0-0.0,1045.0999999940395,"<div style=""display: flex; flex-direction: column; align-items: center; margin-top: -40px;""><img src=""images/pattern_4.png"" style=""width: 234px; height: 230px; margin-top: -50px;""><div style=""display: flex; justify-content: space-between; margin-top: 33px;""><img src=""images/choice_trial_9.png"" style=""width: 408px; height: 417px; margin-right: 200px;""><img src=""images/choice_trial_15.png"" style=""width: 408px; height: 417px;""></div></div>",j,delaylearn,learning,trial,nfynK0tiVAg2JbfmoiXFEZHbxHi2,nfynK0tiVAg2JbfmoiXFEZHbxHi2,3.0,images/choice_trial_9.png,images/choice_trial_15.png,images/pattern_4.png,f,j,7000.0,9.0,15.0,3.0,1.0,35.0,1.0,0.0,15.0,210.0,,,,,,627a76b96bea55210aecbba9,09:05:59,27/02/2024
html-keyboard-response,195,510765,0.0-81.0-1.0,,"<div style=""display: flex; flex-direction: column; align-items: center; margin-top: -40px;""><img src=""images/pattern_4.png"" style=""width: 234px; height: 230px; margin-top: -50px;""><div style=""display: flex; justify-content: space-between; margin-top: 33px;""><img src=""images/choice_trial_15.png"" style=""width: 408px; height: 417px; margin-left:608px;""></div></div>",,delaylearn,learning,display_response,nfynK0tiVAg2JbfmoiXFEZHbxHi2,nfynK0tiVAg2JbfmoiXFEZHbxHi2,,,,,,,,,,,,,,,,,chosen stimuli: images/choice_trial_15.png,,,,,627a76b96bea55210aecbba9,09:05:59,27/02/2024
html-keyboard-response,196,517775,0.0-81.0-2.0,,,,delaylearn,learning,feedback_duration_window,nfynK0tiVAg2JbfmoiXFEZHbxHi2,nfynK0tiVAg2JbfmoiXFEZHbxHi2,,,,,,,,,,,,,,,,,,7000.0,,,,627a76b96bea55210aecbba9,09:05:59,27/02/2024
html-keyboard-response,197,519288,0.0-81.0-3.0,,<div style='margin:auto;width: auto; font-size: 150%'><span style='font-weight: bold; font-size: 100px; color: red;'>0 points!</span><br><br></div>,,delaylearn,learning,feedback_image_window,nfynK0tiVAg2JbfmoiXFEZHbxHi2,nfynK0tiVAg2JbfmoiXFEZHbxHi2,,,,,,,,,,,,,,,,,,,,,,627a76b96bea55210aecbba9,09:05:59,27/02/2024
html-keyboard-response,198,521118,0.0-82.0,,"<div style=""font-size:100px;"">+</div>",,delaylearn,learning,ITI,nfynK0tiVAg2JbfmoiXFEZHbxHi2,nfynK0tiVAg2JbfmoiXFEZHbxHi2,,,,,,,,,,,,,,,,,,,1816.0,,,627a76b96bea55210aecbba9,09:05:59,27/02/2024
html-keyboard-response,199,524075,0.0-83.0-0.0,2955.39999999851,"<div style=""display: flex; flex-direction: column; align-items: center; margin-top: -40px;""><img src=""images/pattern_7.png"" style=""width: 234px; height: 230px; margin-top: -50px;""><div style=""display: flex; justify-content: space-between; margin-top: 33px;""><img src=""images/choice_trial_6.png"" style=""width: 408px; height: 417px; margin-right: 200px;""><img src=""images/choice_trial_12.png"" style=""width: 408px; height: 417px;""></div></div>",f,delaylearn,learning,trial,nfynK0tiVAg2JbfmoiXFEZHbxHi2,nfynK0tiVAg2JbfmoiXFEZHbxHi2,3.0,images/choice_trial_6.png,images/choice_trial_12.png,images/pattern_7.png,f,f,750.0,6.0,12.0,6.0,0.0,36.0,1.0,1.0,6.0,220.0,,,,,,627a76b96bea55210aecbba9,09:05:59,27/02/2024
html-keyboard-response,200,525077,0.0-83.0-1.0,,"<div style=""display: flex; flex-direction: column; align-items: center; margin-top: -40px;""><img src=""images/pattern_7.png"" style=""width: 234px; height: 230px; margin-top: -50px;""><div style=""display: flex; justify-content: space-between; margin-top: 33px;""><img src=""images/choice_trial_6.png"" style=""width: 408px; height: 417px; margin-right: 608px;""></div></div>",,delaylearn,learning,display_response,nfynK0tiVAg2JbfmoiXFEZHbxHi2,nfynK0tiVAg2JbfmoiXFEZHbxHi2,,,,,,,,,,,,,,,,,chosen stimuli: images/choice_trial_6.png,,,,,627a76b96bea55210aecbba9,09:05:59,27/02/2024
html-keyboard-response,201,525835,0.0-83.0-2.0,,,,delaylearn,learning,feedback_duration_window,nfynK0tiVAg2JbfmoiXFEZHbxHi2,nfynK0tiVAg2JbfmoiXFEZHbxHi2,,,,,,,,,,,,,,,,,,750.0,,,,627a76b96bea55210aecbba9,09:05:59,27/02/2024
html-keyboard-response,202,527352,0.0-83.0-3.0,,<div style='margin:auto;width: auto; font-size: 150%'><span style='font-weight: bold; font-size: 100px; color: green;'>+10 points!</span><br><br></div>,,delaylearn,learning,feedback_image_window,nfynK0tiVAg2JbfmoiXFEZHbxHi2,nfynK0tiVAg2JbfmoiXFEZHbxHi2,,,,,,,,,,,,,,,,,,,,,,627a76b96bea55210aecbba9,09:05:59,27/02/2024
html-keyboard-response,203,529372,0.0-84.0,,"<div style=""font-size:100px;"">+</div>",,delaylearn,learning,ITI,nfynK0tiVAg2JbfmoiXFEZHbxHi2,nfynK0tiVAg2JbfmoiXFEZHbxHi2,,,,,,,,,,,,,,,,,,,2017.0,,,627a76b96bea55210aecbba9,09:05:59,27/02/2024
html-keyboard-response,204,530355,0.0-85.0-0.0,981.1000000014901,"<div style=""display: flex; flex-direction: column; align-items: center; margin-top: -40px;""><img src=""images/pattern_1.png"" style=""width: 234px; height: 230px; margin-top: -50px;""><div style=""display: flex; justify-content: space-between; margin-top: 33px;""><img src=""images/choice_trial_14.png"" style=""width: 408px; height: 417px; margin-right: 200px;""><img src=""images/choice_trial_8.png"" style=""width: 408px; height: 417px;""></div></div>",f,delaylearn,learning,trial,nfynK0tiVAg2JbfmoiXFEZHbxHi2,nfynK0tiVAg2JbfmoiXFEZHbxHi2,3.0,images/choice_trial_14.png,images/choice_trial_8.png,images/pattern_1.png,f,f,7000.0,14.0,8.0,1.0,0.0,37.0,1.0,1.0,14.0,230.0,,,,,,627a76b96bea55210aecbba9,09:05:59,27/02/2024
html-keyboard-response,205,531358,0.0-85.0-1.0,,"<div style=""display: flex; flex-direction: column; align-items: center; margin-top: -40px;""><img src=""images/pattern_1.png"" style=""width: 234px; height: 230px; margin-top: -50px;""><div style=""display: flex; justify-content: space-between; margin-top: 33px;""><img src=""images/choice_trial_14.png"" style=""width: 408px; height: 417px; margin-right: 608px;""></div></div>",,delaylearn,learning,display_response,nfynK0tiVAg2JbfmoiXFEZHbxHi2,nfynK0tiVAg2JbfmoiXFEZHbxHi2,,,,,,,,,,,,,,,,,chosen stimuli: images/choice_trial_14.png,,,,,627a76b96bea55210aecbba9,09:05:59,27/02/2024
html-keyboard-response,206,538375,0.0-85.0-2.0,,,,delaylearn,learning,feedback_duration_window,nfynK0tiVAg2JbfmoiXFEZHbxHi2,nfynK0tiVAg2JbfmoiXFEZHbxHi2,,,,,,,,,,,,,,,,,,7000.0,,,,627a76b96bea55210aecbba9,09:05:59,27/02/2024
html-keyboard-response,207,539891,0.0-85.0-3.0,,<div style='margin:auto;width: auto; font-size: 150%'><span style='font-weight: bold; font-size: 100px; color: green;'>+10 points!</span><br><br></div>,,delaylearn,learning,feedback_image_window,nfynK0tiVAg2JbfmoiXFEZHbxHi2,nfynK0tiVAg2JbfmoiXFEZHbxHi2,,,,,,,,,,,,,,,,,,,,,,627a76b96bea55210aecbba9,09:05:59,27/02/2024
html-keyboard-response,208,540397,0.0-86.0-0.0,,,,,,mood_trial_fixation,nfynK0tiVAg2JbfmoiXFEZHbxHi2,,,,,,,,,,,,,,,,,,,,,,,627a76b96bea55210aecbba9,09:05:59,27/02/2024
lmdlab-html-vas-response,209,544269,0.0-86.0-1.0,2859.0,How happy are you right now?,0.5941358024691358,delaylearn,learning,mood_trial,nfynK0tiVAg2JbfmoiXFEZHbxHi2,nfynK0tiVAg2JbfmoiXFEZHbxHi2,,,,,,,,,,,,,,,,,,,,"['Very unhappy', 'Very happy']",,627a76b96bea55210aecbba9,09:05:59,27/02/2024
html-keyboard-response,210,546555,0.0-87.0,,"<div style=""font-size:100px;"">+</div>",,delaylearn,learning,ITI,nfynK0tiVAg2JbfmoiXFEZHbxHi2,nfynK0tiVAg2JbfmoiXFEZHbxHi2,,,,,,,,,,,,,,,,,,,2273.0,,,627a76b96bea55210aecbba9,09:05:59,27/02/2024
html-keyboard-response,211,547738,0.0-88.0-0.0,1182.2000000029802,"<div style=""display: flex; flex-direction: column; align-items: center; margin-top: -40px;""><img src=""images/pattern_3.png"" style=""width: 234px; height: 230px; margin-top: -50px;""><div style=""display: flex; justify-content: space-between; margin-top: 33px;""><img src=""images/choice_trial_13.png"" style=""width: 408px; height: 417px; margin-right: 200px;""><img src=""images/choice_trial_10.png"" style=""width: 408px; height: 417px;""></div></div>",f,delaylearn,learning,trial,nfynK0tiVAg2JbfmoiXFEZHbxHi2,nfynK0tiVAg2JbfmoiXFEZHbxHi2,3.0,images/choice_trial_13.png,images/choice_trial_10.png,images/pattern_3.png,j,f,7000.0,13.0,10.0,2.0,0.0,38.0,1.0,0.0,13.0,230.0,,,,,,627a76b96bea55210aecbba9,09:05:59,27/02/2024
html-keyboard-response,212,548746,0.0-88.0-1.0,,"<div style=""display: flex; flex-direction: column; align-items: center; margin-top: -40px;""><img src=""images/pattern_3.png"" style=""width: 234px; height: 230px; margin-top: -50px;""><div style=""display: flex; justify-content: space-between; margin-top: 33px;""><img src=""images/choice_trial_13.png"" style=""width: 408px; height: 417px; margin-right: 608px;""></div></div>",,delaylearn,learning,display_response,nfynK0tiVAg2JbfmoiXFEZHbxHi2,nfynK0tiVAg2JbfmoiXFEZHbxHi2,,,,,,,,,,,,,,,,,chosen stimuli: images/choice_trial_13.png,,,,,627a76b96bea55210aecbba9,09:05:59,27/02/2024
html-keyboard-response,213,555760,0.0-88.0-2.0,,,,delaylearn,learning,feedback_duration_window,nfynK0tiVAg2JbfmoiXFEZHbxHi2,nfynK0tiVAg2JbfmoiXFEZHbxHi2,,,,,,,,,,,,,,,,,,7000.0,,,,627a76b96bea55210aecbba9,09:05:59,27/02/2024
html-keyboard-response,214,557275,0.0-88.0-3.0,,<div style='margin:auto;width: auto; font-size: 150%'><span style='font-weight: bold; font-size: 100px; color: red;'>0 points!</span><br><br></div>,,delaylearn,learning,feedback_image_window,nfynK0tiVAg2JbfmoiXFEZHbxHi2,nfynK0tiVAg2JbfmoiXFEZHbxHi2,,,,,,,,,,,,,,,,,,,,,,627a76b96bea55210aecbba9,09:05:59,27/02/2024
html-keyboard-response,215,558977,0.0-89.0,,"<div style=""font-size:100px;"">+</div>",,delaylearn,learning,ITI,nfynK0tiVAg2JbfmoiXFEZHbxHi2,nfynK0tiVAg2JbfmoiXFEZHbxHi2,,,,,,,,,,,,,,,,,,,1698.0,,,627a76b96bea55210aecbba9,09:05:59,27/02/2024
html-keyboard-response,216,560346,0.0-90.0-0.0,1367.8999999985099,"<div style=""display: flex; flex-direction: column; align-items: center; margin-top: -40px;""><img src=""images/pattern_7.png"" style=""width: 234px; height: 230px; margin-top: -50px;""><div style=""display: flex; justify-content: space-between; margin-top: 33px;""><img src=""images/choice_trial_12.png"" style=""width: 408px; height: 417px; margin-right: 200px;""><img src=""images/choice_trial_6.png"" style=""width: 408px; height: 417px;""></div></div>",j,delaylearn,learning,trial,nfynK0tiVAg2JbfmoiXFEZHbxHi2,nfynK0tiVAg2JbfmoiXFEZHbxHi2,3.0,images/choice_trial_12.png,images/choice_trial_6.png,images/pattern_7.png,j,j,750.0,12.0,6.0,6.0,1.0,39.0,1.0,1.0,6.0,240.0,,,,,,627a76b96bea55210aecbba9,09:05:59,27/02/2024
html-keyboard-response,217,561358,0.0-90.0-1.0,,"<div style=""display: flex; flex-direction: column; align-items: center; margin-top: -40px;""><img src=""images/pattern_7.png"" style=""width: 234px; height: 230px; margin-top: -50px;""><div style=""display: flex; justify-content: space-between; margin-top: 33px;""><img src=""images/choice_trial_6.png"" style=""width: 408px; height: 417px; margin-left:608px;""></div></div>",,delaylearn,learning,display_response,nfynK0tiVAg2JbfmoiXFEZHbxHi2,nfynK0tiVAg2JbfmoiXFEZHbxHi2,,,,,,,,,,,,,,,,,chosen stimuli: images/choice_trial_6.png,,,,,627a76b96bea55210aecbba9,09:05:59,27/02/2024
html-keyboard-response,218,562117,0.0-90.0-2.0,,,,delaylearn,learning,feedback_duration_window,nfynK0tiVAg2JbfmoiXFEZHbxHi2,nfynK0tiVAg2JbfmoiXFEZHbxHi2,,,,,,,,,,,,,,,,,,750.0,,,,627a76b96bea55210aecbba9,09:05:59,27/02/2024
html-keyboard-response,219,563633,0.0-90.0-3.0,,<div style='margin:auto;width: auto; font-size: 150%'><span style='font-weight: bold; font-size: 100px; color: green;'>+10 points!</span><br><br></div>,,delaylearn,learning,feedback_image_window,nfynK0tiVAg2JbfmoiXFEZHbxHi2,nfynK0tiVAg2JbfmoiXFEZHbxHi2,,,,,,,,,,,,,,,,,,,,,,627a76b96bea55210aecbba9,09:05:59,27/02/2024
html-keyboard-response,220,565541,0.0-91.0,,"<div style=""font-size:100px;"">+</div>",,delaylearn,learning,ITI,nfynK0tiVAg2JbfmoiXFEZHbxHi2,nfynK0tiVAg2JbfmoiXFEZHbxHi2,,,,,,,,,,,,,,,,,,,1898.0,,,627a76b96bea55210aecbba9,09:05:59,27/02/2024
html-keyboard-response,221,567050,0.0-92.0-0.0,1507.5,"<div style=""display: flex; flex-direction: column; align-items: center; margin-top: -40px;""><img src=""images/pattern_5.png"" style=""width: 234px; height: 230px; margin-top: -50px;""><div style=""display: flex; justify-content: space-between; margin-top: 33px;""><img src=""images/choice_trial_2.png"" style=""width: 408px; height: 417px; margin-right: 200px;""><img src=""images/choice_trial_11.png"" style=""width: 408px; height: 417px;""></div></div>",j,delaylearn,learning,trial,nfynK0tiVAg2JbfmoiXFEZHbxHi2,nfynK0tiVAg2JbfmoiXFEZHbxHi2,3.0,images/choice_trial_2.png,images/choice_trial_11.png,images/pattern_5.png,j,j,750.0,2.0,11.0,4.0,1.0,40.0,1.0,1.0,11.0,250.0,,,,,,627a76b96bea55210aecbba9,09:05:59,27/02/2024
html-keyboard-response,222,568067,0.0-92.0-1.0,,"<div style=""display: flex; flex-direction: column; align-items: center; margin-top: -40px;""><img src=""images/pattern_5.png"" style=""width: 234px; height: 230px; margin-top: -50px;""><div style=""display: flex; justify-content: space-between; margin-top: 33px;""><img src=""images/choice_trial_11.png"" style=""width: 408px; height: 417px; margin-left:608px;""></div></div>",,delaylearn,learning,display_response,nfynK0tiVAg2JbfmoiXFEZHbxHi2,nfynK0tiVAg2JbfmoiXFEZHbxHi2,,,,,,,,,,,,,,,,,chosen stimuli: images/choice_trial_11.png,,,,,627a76b96bea55210aecbba9,09:05:59,27/02/2024
html-keyboard-response,223,568827,0.0-92.0-2.0,,,,delaylearn,learning,feedback_duration_window,nfynK0tiVAg2JbfmoiXFEZHbxHi2,nfynK0tiVAg2JbfmoiXFEZHbxHi2,,,,,,,,,,,,,,,,,,750.0,,,,627a76b96bea55210aecbba9,09:05:59,27/02/2024
html-keyboard-response,224,570342,0.0-92.0-3.0,,<div style='margin:auto;width: auto; font-size: 150%'><span style='font-weight: bold; font-size: 100px; color: green;'>+10 points!</span><br><br></div>,,delaylearn,learning,feedback_image_window,nfynK0tiVAg2JbfmoiXFEZHbxHi2,nfynK0tiVAg2JbfmoiXFEZHbxHi2,,,,,,,,,,,,,,,,,,,,,,627a76b96bea55210aecbba9,09:05:59,27/02/2024
html-keyboard-response,225,570845,0.0-93.0-0.0,,,,,,mood_trial_fixation,nfynK0tiVAg2JbfmoiXFEZHbxHi2,,,,,,,,,,,,,,,,,,,,,,,627a76b96bea55210aecbba9,09:05:59,27/02/2024
lmdlab-html-vas-response,226,575803,0.0-93.0-1.0,3947.0,How happy are you right now?,0.5864197530864198,delaylearn,learning,mood_trial,nfynK0tiVAg2JbfmoiXFEZHbxHi2,nfynK0tiVAg2JbfmoiXFEZHbxHi2,,,,,,,,,,,,,,,,,,,,"['Very unhappy', 'Very happy']",,627a76b96bea55210aecbba9,09:05:59,27/02/2024
html-keyboard-response,227,577593,0.0-94.0,,"<div style=""font-size:100px;"">+</div>",,delaylearn,learning,ITI,nfynK0tiVAg2JbfmoiXFEZHbxHi2,nfynK0tiVAg2JbfmoiXFEZHbxHi2,,,,,,,,,,,,,,,,,,,1787.0,,,627a76b96bea55210aecbba9,09:05:59,27/02/2024
html-keyboard-response,228,578746,0.0-95.0-0.0,1151.3999999985099,"<div style=""display: flex; flex-direction: column; align-items: center; margin-top: -40px;""><img src=""images/pattern_4.png"" style=""width: 234px; height: 230px; margin-top: -50px;""><div style=""display: flex; justify-content: space-between; margin-top: 33px;""><img src=""images/choice_trial_15.png"" style=""width: 408px; height: 417px; margin-right: 200px;""><img src=""images/choice_trial_9.png"" style=""width: 408px; height: 417px;""></div></div>",f,delaylearn,learning,trial,nfynK0tiVAg2JbfmoiXFEZHbxHi2,nfynK0tiVAg2JbfmoiXFEZHbxHi2,3.0,images/choice_trial_15.png,images/choice_trial_9.png,images/pattern_4.png,f,f,7000.0,15.0,9.0,3.0,0.0,41.0,1.0,1.0,15.0,260.0,,,,,,627a76b96bea55210aecbba9,09:05:59,27/02/2024
html-keyboard-response,229,579752,0.0-95.0-1.0,,"<div style=""display: flex; flex-direction: column; align-items: center; margin-top: -40px;""><img src=""images/pattern_4.png"" style=""width: 234px; height: 230px; margin-top: -50px;""><div style=""display: flex; justify-content: space-between; margin-top: 33px;""><img src=""images/choice_trial_15.png"" style=""width: 408px; height: 417px; margin-right: 608px;""></div></div>",,delaylearn,learning,display_response,nfynK0tiVAg2JbfmoiXFEZHbxHi2,nfynK0tiVAg2JbfmoiXFEZHbxHi2,,,,,,,,,,,,,,,,,chosen stimuli: images/choice_trial_15.png,,,,,627a76b96bea55210aecbba9,09:05:59,27/02/2024
html-keyboard-response,230,586755,0.0-95.0-2.0,,,,delaylearn,learning,feedback_duration_window,nfynK0tiVAg2JbfmoiXFEZHbxHi2,nfynK0tiVAg2JbfmoiXFEZHbxHi2,,,,,,,,,,,,,,,,,,7000.0,,,,627a76b96bea55210aecbba9,09:05:59,27/02/2024
html-keyboard-response,231,588271,0.0-95.0-3.0,,<div style='margin:auto;width: auto; font-size: 150%'><span style='font-weight: bold; font-size: 100px; color: green;'>+10 points!</span><br><br></div>,,delaylearn,learning,feedback_image_window,nfynK0tiVAg2JbfmoiXFEZHbxHi2,nfynK0tiVAg2JbfmoiXFEZHbxHi2,,,,,,,,,,,,,,,,,,,,,,627a76b96bea55210aecbba9,09:05:59,27/02/2024
