trial_type,trial_index,time_elapsed,internal_node_id,rt,stimulus,response,exp_name,exp_stage,test_part,subjectID,databaseID,counterbal,choice_stimuli_1,choice_stimuli_2,pattern_stimuli,rewarded_answer,correct_answer,feedback_duration_times,stim_left,stim_right,pair,leftright_counter,trial,response_correct,response_rewarded,chosen_stim,counter,displayed_choice,feedback_durations,ITI_duration,labels,rest_warning,prolificID,start_time,date
pavlovia,0,448,0.0-0.0,,,,,,,Dl73zh18fRdsJbtZA2oNp6MRTua2,,,,,,,,,,,,,,,,,,,,,,,5ee5defbfe74a3000d106f51,09:05:19,27/02/2024
html-keyboard-response,1,3464,0.0-1.0,,"<div style=""font-size:100px;"">+</div>",,delaylearn,learning,pre_fixation,Dl73zh18fRdsJbtZA2oNp6MRTua2,,,,,,,,,,,,,,,,,,,,,,,5ee5defbfe74a3000d106f51,09:05:19,27/02/2024
html-keyboard-response,2,4523,0.0-2.0-0.0,1056.300000011921,"<div style=""display: flex; flex-direction: column; align-items: center; margin-top: -40px;""><img src=""images/demo_images/pattern_1.png"" style=""width: 234px; height: 230px; margin-top: -50px;""><div style=""display: flex; justify-content: space-between; margin-top: 33px;""><img src=""images/demo_images/choice_trial_2.png"" style=""width: 408px; height: 417px; margin-right: 200px;""><img src=""images/demo_images/choice_trial_1.png"" style=""width: 408px; height: 417px;""></div></div>",f,delaylearn,learning,trial,Dl73zh18fRdsJbtZA2oNp6MRTua2,Dl73zh18fRdsJbtZA2oNp6MRTua2,5.0,images/demo_images/choice_trial_2.png,images/demo_images/choice_trial_1.png,images/demo_images/pattern_1.png,j,j,3000.0,2.0,1.0,20.0,1.0,1.0,0.0,0.0,2.0,0.0,,,,,,5ee5defbfe74a3000d106f51,09:05:19,27/02/2024
html-keyboard-response,3,5536,0.0-2.0-1.0,,"<div style=""display: flex; flex-direction: column; align-items: center; margin-top: -40px;""><img src=""images/demo_images/pattern_1.png"" style=""width: 234px; height: 230px; margin-top: -50px;""><div style=""display: flex; justify-content: space-between; margin-top: 33px;""><img src=""images/demo_images/choice_trial_2.png"" style=""width: 408px; height: 417px; margin-right: 608px;""></div></div>",,delaylearn,learning,display_response,Dl73zh18fRdsJbtZA2oNp6MRTua2,Dl73zh18fRdsJbtZA2oNp6MRTua2,,,,,,,,,,,,,,,,,chosen stimuli: images/demo_images/choice_trial_2.png,,,,,5ee5defbfe74a3000d106f51,09:05:19,27/02/2024
html-keyboard-response,4,8544,0.0-2.0-2.0,,,,delaylearn,learning,feedback_duration_window,Dl73zh18fRdsJbtZA2oNp6MRTua2,Dl73zh18fRdsJbtZA2oNp6MRTua2,,,,,,,,,,,,,,,,,,3000.0,,,,5ee5defbfe74a3000d106f51,09:05:19,27/02/2024
html-keyboard-response,5,10061,0.0-2.0-3.0,,<div style='margin:auto;width: auto; font-size: 150%'><span style='font-weight: bold; font-size: 100px; color: red;'>0 points!</span><br><br></div>,,delaylearn,learning,feedback_image_window,Dl73zh18fRdsJbtZA2oNp6MRTua2,Dl73zh18fRdsJbtZA2oNp6MRTua2,,,,,,,,,,,,,,,,,,,,,,5ee5defbfe74a3000d106f51,09:05:19,27/02/2024
html-keyboard-response,6,11667,0.0-3.0,,"<div style=""font-size:100px;"">+</div>",,delaylearn,learning,ITI,Dl73zh18fRdsJbtZA2oNp6MRTua2,Dl73zh18fRdsJbtZA2oNp6MRTua2,,,,,,,,,,,,,,,,,,,1595.0,,,5ee5defbfe74a3000d106f51,09:05:19,27/02/2024
html-keyboard-response,7,12243,0.0-4.0-0.0,573.8999999761581,"<div style=""display: flex; flex-direction: column; align-items: center; margin-top: -40px;""><img src=""images/demo_images/pattern_1.png"" style=""width: 234px; height: 230px; margin-top: -50px;""><div style=""display: flex; justify-content: space-between; margin-top: 33px;""><img src=""images/demo_images/choice_trial_2.png"" style=""width: 408px; height: 417px; margin-right: 200px;""><img src=""images/demo_images/choice_trial_1.png"" style=""width: 408px; height: 417px;""></div></div>",j,delaylearn,learning,trial,Dl73zh18fRdsJbtZA2oNp6MRTua2,Dl73zh18fRdsJbtZA2oNp6MRTua2,5.0,images/demo_images/choice_trial_2.png,images/demo_images/choice_trial_1.png,images/demo_images/pattern_1.png,j,j,3000.0,2.0,1.0,20.0,1.0,2.0,1.0,1.0,1.0,10.0,,,,,,5ee5defbfe74a3000d106f51,09:05:19,27/02/2024
html-keyboard-response,8,13245,0.0-4.0-1.0,,"<div style=""display: flex; flex-direction: column; align-items: center; margin-top: -40px;""><img src=""images/demo_images/pattern_1.png"" style=""width: 234px; height: 230px; margin-top: -50px;""><div style=""display: flex; justify-content: space-between; margin-top: 33px;""><img src=""images/demo_images/choice_trial_1.png"" style=""width: 408px; height: 417px; margin-left:608px;""></div></div>",,delaylearn,learning,display_response,Dl73zh18fRdsJbtZA2oNp6MRTua2,Dl73zh18fRdsJbtZA2oNp6MRTua2,,,,,,,,,,,,,,,,,chosen stimuli: images/demo_images/choice_trial_1.png,,,,,5ee5defbfe74a3000d106f51,09:05:19,27/02/2024
html-keyboard-response,9,16253,0.0-4.0-2.0,,,,delaylearn,learning,feedback_duration_window,Dl73zh18fRdsJbtZA2oNp6MRTua2,Dl73zh18fRdsJbtZA2oNp6MRTua2,,,,,,,,,,,,,,,,,,3000.0,,,,5ee5defbfe74a3000d106f51,09:05:19,27/02/2024
html-keyboard-response,10,17768,0.0-4.0-3.0,,<div style='margin:auto;width: auto; font-size: 150%'><span style='font-weight: bold; font-size: 100px; color: green;'>+10 points!</span><br><br></div>,,delaylearn,learning,feedback_image_window,Dl73zh18fRdsJbtZA2oNp6MRTua2,Dl73zh18fRdsJbtZA2oNp6MRTua2,,,,,,,,,,,,,,,,,,,,,,5ee5defbfe74a3000d106f51,09:05:19,27/02/2024
html-keyboard-response,11,19796,0.0-5.0,,"<div style=""font-size:100px;"">+</div>",,delaylearn,learning,ITI,Dl73zh18fRdsJbtZA2oNp6MRTua2,Dl73zh18fRdsJbtZA2oNp6MRTua2,,,,,,,,,,,,,,,,,,,2019.0,,,5ee5defbfe74a3000d106f51,09:05:19,27/02/2024
html-keyboard-response,12,20315,0.0-6.0-0.0,517.1999999880791,"<div style=""display: flex; flex-direction: column; align-items: center; margin-top: -40px;""><img src=""images/demo_images/pattern_1.png"" style=""width: 234px; height: 230px; margin-top: -50px;""><div style=""display: flex; justify-content: space-between; margin-top: 33px;""><img src=""images/demo_images/choice_trial_1.png"" style=""width: 408px; height: 417px; margin-right: 200px;""><img src=""images/demo_images/choice_trial_2.png"" style=""width: 408px; height: 417px;""></div></div>",j,delaylearn,learning,trial,Dl73zh18fRdsJbtZA2oNp6MRTua2,Dl73zh18fRdsJbtZA2oNp6MRTua2,5.0,images/demo_images/choice_trial_1.png,images/demo_images/choice_trial_2.png,images/demo_images/pattern_1.png,j,f,3000.0,1.0,2.0,20.0,0.0,3.0,0.0,1.0,2.0,20.0,,,,,,5ee5defbfe74a3000d106f51,09:05:19,27/02/2024
html-keyboard-response,13,21332,0.0-6.0-1.0,,"<div style=""display: flex; flex-direction: column; align-items: center; margin-top: -40px;""><img src=""images/demo_images/pattern_1.png"" style=""width: 234px; height: 230px; margin-top: -50px;""><div style=""display: flex; justify-content: space-between; margin-top: 33px;""><img src=""images/demo_images/choice_trial_2.png"" style=""width: 408px; height: 417px; margin-left:608px;""></div></div>",,delaylearn,learning,display_response,Dl73zh18fRdsJbtZA2oNp6MRTua2,Dl73zh18fRdsJbtZA2oNp6MRTua2,,,,,,,,,,,,,,,,,chosen stimuli: images/demo_images/choice_trial_2.png,,,,,5ee5defbfe74a3000d106f51,09:05:19,27/02/2024
html-keyboard-response,14,24338,0.0-6.0-2.0,,,,delaylearn,learning,feedback_duration_window,Dl73zh18fRdsJbtZA2oNp6MRTua2,Dl73zh18fRdsJbtZA2oNp6MRTua2,,,,,,,,,,,,,,,,,,3000.0,,,,5ee5defbfe74a3000d106f51,09:05:19,27/02/2024
html-keyboard-response,15,25846,0.0-6.0-3.0,,<div style='margin:auto;width: auto; font-size: 150%'><span style='font-weight: bold; font-size: 100px; color: green;'>+10 points!</span><br><br></div>,,delaylearn,learning,feedback_image_window,Dl73zh18fRdsJbtZA2oNp6MRTua2,Dl73zh18fRdsJbtZA2oNp6MRTua2,,,,,,,,,,,,,,,,,,,,,,5ee5defbfe74a3000d106f51,09:05:19,27/02/2024
html-keyboard-response,16,27985,0.0-7.0,,"<div style=""font-size:100px;"">+</div>",,delaylearn,learning,ITI,Dl73zh18fRdsJbtZA2oNp6MRTua2,Dl73zh18fRdsJbtZA2oNp6MRTua2,,,,,,,,,,,,,,,,,,,2124.0,,,5ee5defbfe74a3000d106f51,09:05:19,27/02/2024
html-keyboard-response,17,28586,0.0-8.0-0.0,600.3000000119209,"<div style=""display: flex; flex-direction: column; align-items: center; margin-top: -40px;""><img src=""images/demo_images/pattern_1.png"" style=""width: 234px; height: 230px; margin-top: -50px;""><div style=""display: flex; justify-content: space-between; margin-top: 33px;""><img src=""images/demo_images/choice_trial_1.png"" style=""width: 408px; height: 417px; margin-right: 200px;""><img src=""images/demo_images/choice_trial_2.png"" style=""width: 408px; height: 417px;""></div></div>",j,delaylearn,learning,trial,Dl73zh18fRdsJbtZA2oNp6MRTua2,Dl73zh18fRdsJbtZA2oNp6MRTua2,5.0,images/demo_images/choice_trial_1.png,images/demo_images/choice_trial_2.png,images/demo_images/pattern_1.png,f,f,3000.0,1.0,2.0,20.0,0.0,4.0,0.0,0.0,2.0,20.0,,,,,,5ee5defbfe74a3000d106f51,09:05:19,27/02/2024
html-keyboard-response,18,29597,0.0-8.0-1.0,,"<div style=""display: flex; flex-direction: column; align-items: center; margin-top: -40px;""><img src=""images/demo_images/pattern_1.png"" style=""width: 234px; height: 230px; margin-top: -50px;""><div style=""display: flex; justify-content: space-between; margin-top: 33px;""><img src=""images/demo_images/choice_trial_2.png"" style=""width: 408px; height: 417px; margin-left:608px;""></div></div>",,delaylearn,learning,display_response,Dl73zh18fRdsJbtZA2oNp6MRTua2,Dl73zh18fRdsJbtZA2oNp6MRTua2,,,,,,,,,,,,,,,,,chosen stimuli: images/demo_images/choice_trial_2.png,,,,,5ee5defbfe74a3000d106f51,09:05:19,27/02/2024
html-keyboard-response,19,32606,0.0-8.0-2.0,,,,delaylearn,learning,feedback_duration_window,Dl73zh18fRdsJbtZA2oNp6MRTua2,Dl73zh18fRdsJbtZA2oNp6MRTua2,,,,,,,,,,,,,,,,,,3000.0,,,,5ee5defbfe74a3000d106f51,09:05:19,27/02/2024
html-keyboard-response,20,34117,0.0-8.0-3.0,,<div style='margin:auto;width: auto; font-size: 150%'><span style='font-weight: bold; font-size: 100px; color: red;'>0 points!</span><br><br></div>,,delaylearn,learning,feedback_image_window,Dl73zh18fRdsJbtZA2oNp6MRTua2,Dl73zh18fRdsJbtZA2oNp6MRTua2,,,,,,,,,,,,,,,,,,,,,,5ee5defbfe74a3000d106f51,09:05:19,27/02/2024
html-keyboard-response,21,34632,0.0-9.0-0.0,,,,,,mood_trial_fixation,Dl73zh18fRdsJbtZA2oNp6MRTua2,,,,,,,,,,,,,,,,,,,,,,,5ee5defbfe74a3000d106f51,09:05:19,27/02/2024
lmdlab-html-vas-response,22,38267,0.0-9.0-1.0,2623.0,How happy are you right now?,0.8364197530864198,delaylearn,learning,mood_trial,Dl73zh18fRdsJbtZA2oNp6MRTua2,Dl73zh18fRdsJbtZA2oNp6MRTua2,,,,,,,,,,,,,,,,,,,,"['Very unhappy', 'Very happy']",,5ee5defbfe74a3000d106f51,09:05:19,27/02/2024
html-keyboard-response,23,40413,0.0-10.0,,"<div style=""font-size:100px;"">+</div>",,delaylearn,learning,ITI,Dl73zh18fRdsJbtZA2oNp6MRTua2,Dl73zh18fRdsJbtZA2oNp6MRTua2,,,,,,,,,,,,,,,,,,,2133.0,,,5ee5defbfe74a3000d106f51,09:05:19,27/02/2024
html-keyboard-response,24,40836,0.0-11.0-0.0,420.5,"<div style=""display: flex; flex-direction: column; align-items: center; margin-top: -40px;""><img src=""images/demo_images/pattern_1.png"" style=""width: 234px; height: 230px; margin-top: -50px;""><div style=""display: flex; justify-content: space-between; margin-top: 33px;""><img src=""images/demo_images/choice_trial_2.png"" style=""width: 408px; height: 417px; margin-right: 200px;""><img src=""images/demo_images/choice_trial_1.png"" style=""width: 408px; height: 417px;""></div></div>",f,delaylearn,learning,trial,Dl73zh18fRdsJbtZA2oNp6MRTua2,Dl73zh18fRdsJbtZA2oNp6MRTua2,5.0,images/demo_images/choice_trial_2.png,images/demo_images/choice_trial_1.png,images/demo_images/pattern_1.png,j,j,3000.0,2.0,1.0,20.0,1.0,5.0,0.0,0.0,2.0,20.0,,,,,,5ee5defbfe74a3000d106f51,09:05:19,27/02/2024
html-keyboard-response,25,41842,0.0-11.0-1.0,,"<div style=""display: flex; flex-direction: column; align-items: center; margin-top: -40px;""><img src=""images/demo_images/pattern_1.png"" style=""width: 234px; height: 230px; margin-top: -50px;""><div style=""display: flex; justify-content: space-between; margin-top: 33px;""><img src=""images/demo_images/choice_trial_2.png"" style=""width: 408px; height: 417px; margin-right: 608px;""></div></div>",,delaylearn,learning,display_response,Dl73zh18fRdsJbtZA2oNp6MRTua2,Dl73zh18fRdsJbtZA2oNp6MRTua2,,,,,,,,,,,,,,,,,chosen stimuli: images/demo_images/choice_trial_2.png,,,,,5ee5defbfe74a3000d106f51,09:05:19,27/02/2024
html-keyboard-response,26,44854,0.0-11.0-2.0,,,,delaylearn,learning,feedback_duration_window,Dl73zh18fRdsJbtZA2oNp6MRTua2,Dl73zh18fRdsJbtZA2oNp6MRTua2,,,,,,,,,,,,,,,,,,3000.0,,,,5ee5defbfe74a3000d106f51,09:05:19,27/02/2024
html-keyboard-response,27,46363,0.0-11.0-3.0,,<div style='margin:auto;width: auto; font-size: 150%'><span style='font-weight: bold; font-size: 100px; color: red;'>0 points!</span><br><br></div>,,delaylearn,learning,feedback_image_window,Dl73zh18fRdsJbtZA2oNp6MRTua2,Dl73zh18fRdsJbtZA2oNp6MRTua2,,,,,,,,,,,,,,,,,,,,,,5ee5defbfe74a3000d106f51,09:05:19,27/02/2024
html-keyboard-response,28,48186,0.0-12.0,,"<div style=""font-size:100px;"">+</div>",,delaylearn,learning,ITI,Dl73zh18fRdsJbtZA2oNp6MRTua2,Dl73zh18fRdsJbtZA2oNp6MRTua2,,,,,,,,,,,,,,,,,,,1819.0,,,5ee5defbfe74a3000d106f51,09:05:19,27/02/2024
html-keyboard-response,29,49028,0.0-13.0-0.0,838.3999999761581,"<div style=""display: flex; flex-direction: column; align-items: center; margin-top: -40px;""><img src=""images/demo_images/pattern_1.png"" style=""width: 234px; height: 230px; margin-top: -50px;""><div style=""display: flex; justify-content: space-between; margin-top: 33px;""><img src=""images/demo_images/choice_trial_1.png"" style=""width: 408px; height: 417px; margin-right: 200px;""><img src=""images/demo_images/choice_trial_2.png"" style=""width: 408px; height: 417px;""></div></div>",j,delaylearn,learning,trial,Dl73zh18fRdsJbtZA2oNp6MRTua2,Dl73zh18fRdsJbtZA2oNp6MRTua2,5.0,images/demo_images/choice_trial_1.png,images/demo_images/choice_trial_2.png,images/demo_images/pattern_1.png,f,f,3000.0,1.0,2.0,20.0,0.0,6.0,0.0,0.0,2.0,20.0,,,,,,5ee5defbfe74a3000d106f51,09:05:19,27/02/2024
html-keyboard-response,30,50044,0.0-13.0-1.0,,"<div style=""display: flex; flex-direction: column; align-items: center; margin-top: -40px;""><img src=""images/demo_images/pattern_1.png"" style=""width: 234px; height: 230px; margin-top: -50px;""><div style=""display: flex; justify-content: space-between; margin-top: 33px;""><img src=""images/demo_images/choice_trial_2.png"" style=""width: 408px; height: 417px; margin-left:608px;""></div></div>",,delaylearn,learning,display_response,Dl73zh18fRdsJbtZA2oNp6MRTua2,Dl73zh18fRdsJbtZA2oNp6MRTua2,,,,,,,,,,,,,,,,,chosen stimuli: images/demo_images/choice_trial_2.png,,,,,5ee5defbfe74a3000d106f51,09:05:19,27/02/2024
html-keyboard-response,31,53058,0.0-13.0-2.0,,,,delaylearn,learning,feedback_duration_window,Dl73zh18fRdsJbtZA2oNp6MRTua2,Dl73zh18fRdsJbtZA2oNp6MRTua2,,,,,,,,,,,,,,,,,,3000.0,,,,5ee5defbfe74a3000d106f51,09:05:19,27/02/2024
html-keyboard-response,32,54560,0.0-13.0-3.0,,<div style='margin:auto;width: auto; font-size: 150%'><span style='font-weight: bold; font-size: 100px; color: red;'>0 points!</span><br><br></div>,,delaylearn,learning,feedback_image_window,Dl73zh18fRdsJbtZA2oNp6MRTua2,Dl73zh18fRdsJbtZA2oNp6MRTua2,,,,,,,,,,,,,,,,,,,,,,5ee5defbfe74a3000d106f51,09:05:19,27/02/2024
html-button-response,33,56699,0.0-14.0,2136.600000023842,"
  <div style=""display: flex; align-items: center; justify-content: center; height: 80vh;"">
  <div>
          <img src=""images/inst_demo_finish.png"" style=""width: 80vw; height:auto;"">
          <br><br>
      </div>
      <br><br>
  </div>",0,,,,Dl73zh18fRdsJbtZA2oNp6MRTua2,,,,,,,,,,,,,,,,,,,,,,,5ee5defbfe74a3000d106f51,09:05:19,27/02/2024
html-keyboard-response,34,87403,0.0-15.0,30703.69999998808,"
  <div style=""display: flex; align-items: center; justify-content: center; height: 80vh;"">
  <div>
          <img src=""images/inst_6.png"" style=""width: 80vw; height:auto;"">
          <br><br>
      </div>
      <br><br>
  </div>",f,,,,Dl73zh18fRdsJbtZA2oNp6MRTua2,,,,,,,,,,,,,,,,,,,,,,,5ee5defbfe74a3000d106f51,09:05:19,27/02/2024
html-keyboard-response,35,90419,0.0-16.0,,"<div style=""font-size:100px;"">+</div>",,delaylearn,learning,pre_fixation,Dl73zh18fRdsJbtZA2oNp6MRTua2,,,,,,,,,,,,,,,,,,,,,,,5ee5defbfe74a3000d106f51,09:05:19,27/02/2024
html-keyboard-response,36,91986,0.0-17.0,,"<div style=""font-size:100px;"">+</div>",,delaylearn,learning,ITI,Dl73zh18fRdsJbtZA2oNp6MRTua2,Dl73zh18fRdsJbtZA2oNp6MRTua2,,,,,,,,,,,,,,,,,,,1559.0,,,5ee5defbfe74a3000d106f51,09:05:19,27/02/2024
html-keyboard-response,37,92578,0.0-18.0-0.0,589.1999999880791,"<div style=""display: flex; flex-direction: column; align-items: center; margin-top: -40px;""><img src=""images/pattern_3.png"" style=""width: 234px; height: 230px; margin-top: -50px;""><div style=""display: flex; justify-content: space-between; margin-top: 33px;""><img src=""images/choice_trial_16.png"" style=""width: 408px; height: 417px; margin-right: 200px;""><img src=""images/choice_trial_2.png"" style=""width: 408px; height: 417px;""></div></div>",f,delaylearn,learning,trial,Dl73zh18fRdsJbtZA2oNp6MRTua2,Dl73zh18fRdsJbtZA2oNp6MRTua2,5.0,images/choice_trial_16.png,images/choice_trial_2.png,images/pattern_3.png,f,f,7000.0,16.0,2.0,2.0,0.0,7.0,1.0,1.0,16.0,30.0,,,,,,5ee5defbfe74a3000d106f51,09:05:19,27/02/2024
html-keyboard-response,38,93581,0.0-18.0-1.0,,"<div style=""display: flex; flex-direction: column; align-items: center; margin-top: -40px;""><img src=""images/pattern_3.png"" style=""width: 234px; height: 230px; margin-top: -50px;""><div style=""display: flex; justify-content: space-between; margin-top: 33px;""><img src=""images/choice_trial_16.png"" style=""width: 408px; height: 417px; margin-right: 608px;""></div></div>",,delaylearn,learning,display_response,Dl73zh18fRdsJbtZA2oNp6MRTua2,Dl73zh18fRdsJbtZA2oNp6MRTua2,,,,,,,,,,,,,,,,,chosen stimuli: images/choice_trial_16.png,,,,,5ee5defbfe74a3000d106f51,09:05:19,27/02/2024
html-keyboard-response,39,100584,0.0-18.0-2.0,,,,delaylearn,learning,feedback_duration_window,Dl73zh18fRdsJbtZA2oNp6MRTua2,Dl73zh18fRdsJbtZA2oNp6MRTua2,,,,,,,,,,,,,,,,,,7000.0,,,,5ee5defbfe74a3000d106f51,09:05:19,27/02/2024
html-keyboard-response,40,102092,0.0-18.0-3.0,,<div style='margin:auto;width: auto; font-size: 150%'><span style='font-weight: bold; font-size: 100px; color: green;'>+10 points!</span><br><br></div>,,delaylearn,learning,feedback_image_window,Dl73zh18fRdsJbtZA2oNp6MRTua2,Dl73zh18fRdsJbtZA2oNp6MRTua2,,,,,,,,,,,,,,,,,,,,,,5ee5defbfe74a3000d106f51,09:05:19,27/02/2024
html-keyboard-response,41,104417,0.0-19.0,,"<div style=""font-size:100px;"">+</div>",,delaylearn,learning,ITI,Dl73zh18fRdsJbtZA2oNp6MRTua2,Dl73zh18fRdsJbtZA2oNp6MRTua2,,,,,,,,,,,,,,,,,,,2310.0,,,5ee5defbfe74a3000d106f51,09:05:19,27/02/2024
html-keyboard-response,42,105356,0.0-20.0-0.0,936.0,"<div style=""display: flex; flex-direction: column; align-items: center; margin-top: -40px;""><img src=""images/pattern_7.png"" style=""width: 234px; height: 230px; margin-top: -50px;""><div style=""display: flex; justify-content: space-between; margin-top: 33px;""><img src=""images/choice_trial_10.png"" style=""width: 408px; height: 417px; margin-right: 200px;""><img src=""images/choice_trial_8.png"" style=""width: 408px; height: 417px;""></div></div>",f,delaylearn,learning,trial,Dl73zh18fRdsJbtZA2oNp6MRTua2,Dl73zh18fRdsJbtZA2oNp6MRTua2,5.0,images/choice_trial_10.png,images/choice_trial_8.png,images/pattern_7.png,j,j,750.0,10.0,8.0,6.0,1.0,8.0,0.0,0.0,10.0,30.0,,,,,,5ee5defbfe74a3000d106f51,09:05:19,27/02/2024
html-keyboard-response,43,106363,0.0-20.0-1.0,,"<div style=""display: flex; flex-direction: column; align-items: center; margin-top: -40px;""><img src=""images/pattern_7.png"" style=""width: 234px; height: 230px; margin-top: -50px;""><div style=""display: flex; justify-content: space-between; margin-top: 33px;""><img src=""images/choice_trial_10.png"" style=""width: 408px; height: 417px; margin-right: 608px;""></div></div>",,delaylearn,learning,display_response,Dl73zh18fRdsJbtZA2oNp6MRTua2,Dl73zh18fRdsJbtZA2oNp6MRTua2,,,,,,,,,,,,,,,,,chosen stimuli: images/choice_trial_10.png,,,,,5ee5defbfe74a3000d106f51,09:05:19,27/02/2024
html-keyboard-response,44,107117,0.0-20.0-2.0,,,,delaylearn,learning,feedback_duration_window,Dl73zh18fRdsJbtZA2oNp6MRTua2,Dl73zh18fRdsJbtZA2oNp6MRTua2,,,,,,,,,,,,,,,,,,750.0,,,,5ee5defbfe74a3000d106f51,09:05:19,27/02/2024
html-keyboard-response,45,108623,0.0-20.0-3.0,,<div style='margin:auto;width: auto; font-size: 150%'><span style='font-weight: bold; font-size: 100px; color: red;'>0 points!</span><br><br></div>,,delaylearn,learning,feedback_image_window,Dl73zh18fRdsJbtZA2oNp6MRTua2,Dl73zh18fRdsJbtZA2oNp6MRTua2,,,,,,,,,,,,,,,,,,,,,,5ee5defbfe74a3000d106f51,09:05:19,27/02/2024
html-keyboard-response,46,110298,0.0-21.0,,"<div style=""font-size:100px;"">+</div>",,delaylearn,learning,ITI,Dl73zh18fRdsJbtZA2oNp6MRTua2,Dl73zh18fRdsJbtZA2oNp6MRTua2,,,,,,,,,,,,,,,,,,,1670.0,,,5ee5defbfe74a3000d106f51,09:05:19,27/02/2024
html-keyboard-response,47,112346,0.0-22.0-0.0,2045.2000000476837,"<div style=""display: flex; flex-direction: column; align-items: center; margin-top: -40px;""><img src=""images/pattern_4.png"" style=""width: 234px; height: 230px; margin-top: -50px;""><div style=""display: flex; justify-content: space-between; margin-top: 33px;""><img src=""images/choice_trial_11.png"" style=""width: 408px; height: 417px; margin-right: 200px;""><img src=""images/choice_trial_4.png"" style=""width: 408px; height: 417px;""></div></div>",j,delaylearn,learning,trial,Dl73zh18fRdsJbtZA2oNp6MRTua2,Dl73zh18fRdsJbtZA2oNp6MRTua2,5.0,images/choice_trial_11.png,images/choice_trial_4.png,images/pattern_4.png,f,f,7000.0,11.0,4.0,3.0,0.0,9.0,0.0,0.0,4.0,30.0,,,,,,5ee5defbfe74a3000d106f51,09:05:19,27/02/2024
html-keyboard-response,48,113356,0.0-22.0-1.0,,"<div style=""display: flex; flex-direction: column; align-items: center; margin-top: -40px;""><img src=""images/pattern_4.png"" style=""width: 234px; height: 230px; margin-top: -50px;""><div style=""display: flex; justify-content: space-between; margin-top: 33px;""><img src=""images/choice_trial_4.png"" style=""width: 408px; height: 417px; margin-left:608px;""></div></div>",,delaylearn,learning,display_response,Dl73zh18fRdsJbtZA2oNp6MRTua2,Dl73zh18fRdsJbtZA2oNp6MRTua2,,,,,,,,,,,,,,,,,chosen stimuli: images/choice_trial_4.png,,,,,5ee5defbfe74a3000d106f51,09:05:19,27/02/2024
html-keyboard-response,49,120364,0.0-22.0-2.0,,,,delaylearn,learning,feedback_duration_window,Dl73zh18fRdsJbtZA2oNp6MRTua2,Dl73zh18fRdsJbtZA2oNp6MRTua2,,,,,,,,,,,,,,,,,,7000.0,,,,5ee5defbfe74a3000d106f51,09:05:19,27/02/2024
html-keyboard-response,50,121872,0.0-22.0-3.0,,<div style='margin:auto;width: auto; font-size: 150%'><span style='font-weight: bold; font-size: 100px; color: red;'>0 points!</span><br><br></div>,,delaylearn,learning,feedback_image_window,Dl73zh18fRdsJbtZA2oNp6MRTua2,Dl73zh18fRdsJbtZA2oNp6MRTua2,,,,,,,,,,,,,,,,,,,,,,5ee5defbfe74a3000d106f51,09:05:19,27/02/2024
html-keyboard-response,51,123558,0.0-23.0,,"<div style=""font-size:100px;"">+</div>",,delaylearn,learning,ITI,Dl73zh18fRdsJbtZA2oNp6MRTua2,Dl73zh18fRdsJbtZA2oNp6MRTua2,,,,,,,,,,,,,,,,,,,1678.0,,,5ee5defbfe74a3000d106f51,09:05:19,27/02/2024
html-keyboard-response,52,124699,0.0-24.0-0.0,1138.0999999642372,"<div style=""display: flex; flex-direction: column; align-items: center; margin-top: -40px;""><img src=""images/pattern_5.png"" style=""width: 234px; height: 230px; margin-top: -50px;""><div style=""display: flex; justify-content: space-between; margin-top: 33px;""><img src=""images/choice_trial_13.png"" style=""width: 408px; height: 417px; margin-right: 200px;""><img src=""images/choice_trial_7.png"" style=""width: 408px; height: 417px;""></div></div>",f,delaylearn,learning,trial,Dl73zh18fRdsJbtZA2oNp6MRTua2,Dl73zh18fRdsJbtZA2oNp6MRTua2,5.0,images/choice_trial_13.png,images/choice_trial_7.png,images/pattern_5.png,j,j,750.0,13.0,7.0,4.0,1.0,10.0,0.0,0.0,13.0,30.0,,,,,,5ee5defbfe74a3000d106f51,09:05:19,27/02/2024
html-keyboard-response,53,125713,0.0-24.0-1.0,,"<div style=""display: flex; flex-direction: column; align-items: center; margin-top: -40px;""><img src=""images/pattern_5.png"" style=""width: 234px; height: 230px; margin-top: -50px;""><div style=""display: flex; justify-content: space-between; margin-top: 33px;""><img src=""images/choice_trial_13.png"" style=""width: 408px; height: 417px; margin-right: 608px;""></div></div>",,delaylearn,learning,display_response,Dl73zh18fRdsJbtZA2oNp6MRTua2,Dl73zh18fRdsJbtZA2oNp6MRTua2,,,,,,,,,,,,,,,,,chosen stimuli: images/choice_trial_13.png,,,,,5ee5defbfe74a3000d106f51,09:05:19,27/02/2024
html-keyboard-response,54,126465,0.0-24.0-2.0,,,,delaylearn,learning,feedback_duration_window,Dl73zh18fRdsJbtZA2oNp6MRTua2,Dl73zh18fRdsJbtZA2oNp6MRTua2,,,,,,,,,,,,,,,,,,750.0,,,,5ee5defbfe74a3000d106f51,09:05:19,27/02/2024
html-keyboard-response,55,127972,0.0-24.0-3.0,,<div style='margin:auto;width: auto; font-size: 150%'><span style='font-weight: bold; font-size: 100px; color: red;'>0 points!</span><br><br></div>,,delaylearn,learning,feedback_image_window,Dl73zh18fRdsJbtZA2oNp6MRTua2,Dl73zh18fRdsJbtZA2oNp6MRTua2,,,,,,,,,,,,,,,,,,,,,,5ee5defbfe74a3000d106f51,09:05:19,27/02/2024
html-keyboard-response,56,129511,0.0-25.0,,"<div style=""font-size:100px;"">+</div>",,delaylearn,learning,ITI,Dl73zh18fRdsJbtZA2oNp6MRTua2,Dl73zh18fRdsJbtZA2oNp6MRTua2,,,,,,,,,,,,,,,,,,,1536.0,,,5ee5defbfe74a3000d106f51,09:05:19,27/02/2024
html-keyboard-response,57,130499,0.0-26.0-0.0,984.9000000357628,"<div style=""display: flex; flex-direction: column; align-items: center; margin-top: -40px;""><img src=""images/pattern_6.png"" style=""width: 234px; height: 230px; margin-top: -50px;""><div style=""display: flex; justify-content: space-between; margin-top: 33px;""><img src=""images/choice_trial_14.png"" style=""width: 408px; height: 417px; margin-right: 200px;""><img src=""images/choice_trial_9.png"" style=""width: 408px; height: 417px;""></div></div>",f,delaylearn,learning,trial,Dl73zh18fRdsJbtZA2oNp6MRTua2,Dl73zh18fRdsJbtZA2oNp6MRTua2,5.0,images/choice_trial_14.png,images/choice_trial_9.png,images/pattern_6.png,j,f,750.0,14.0,9.0,5.0,0.0,11.0,1.0,0.0,14.0,30.0,,,,,,5ee5defbfe74a3000d106f51,09:05:19,27/02/2024
html-keyboard-response,58,131504,0.0-26.0-1.0,,"<div style=""display: flex; flex-direction: column; align-items: center; margin-top: -40px;""><img src=""images/pattern_6.png"" style=""width: 234px; height: 230px; margin-top: -50px;""><div style=""display: flex; justify-content: space-between; margin-top: 33px;""><img src=""images/choice_trial_14.png"" style=""width: 408px; height: 417px; margin-right: 608px;""></div></div>",,delaylearn,learning,display_response,Dl73zh18fRdsJbtZA2oNp6MRTua2,Dl73zh18fRdsJbtZA2oNp6MRTua2,,,,,,,,,,,,,,,,,chosen stimuli: images/choice_trial_14.png,,,,,5ee5defbfe74a3000d106f51,09:05:19,27/02/2024
html-keyboard-response,59,132262,0.0-26.0-2.0,,,,delaylearn,learning,feedback_duration_window,Dl73zh18fRdsJbtZA2oNp6MRTua2,Dl73zh18fRdsJbtZA2oNp6MRTua2,,,,,,,,,,,,,,,,,,750.0,,,,5ee5defbfe74a3000d106f51,09:05:19,27/02/2024
html-keyboard-response,60,133779,0.0-26.0-3.0,,<div style='margin:auto;width: auto; font-size: 150%'><span style='font-weight: bold; font-size: 100px; color: red;'>0 points!</span><br><br></div>,,delaylearn,learning,feedback_image_window,Dl73zh18fRdsJbtZA2oNp6MRTua2,Dl73zh18fRdsJbtZA2oNp6MRTua2,,,,,,,,,,,,,,,,,,,,,,5ee5defbfe74a3000d106f51,09:05:19,27/02/2024
html-keyboard-response,61,134286,0.0-27.0-0.0,,,,,,mood_trial_fixation,Dl73zh18fRdsJbtZA2oNp6MRTua2,,,,,,,,,,,,,,,,,,,,,,,5ee5defbfe74a3000d106f51,09:05:19,27/02/2024
lmdlab-html-vas-response,62,138876,0.0-27.0-1.0,3575.0,How happy are you right now?,0.6820987654320988,delaylearn,learning,mood_trial,Dl73zh18fRdsJbtZA2oNp6MRTua2,Dl73zh18fRdsJbtZA2oNp6MRTua2,,,,,,,,,,,,,,,,,,,,"['Very unhappy', 'Very happy']",,5ee5defbfe74a3000d106f51,09:05:19,27/02/2024
html-keyboard-response,63,140613,0.0-28.0,,"<div style=""font-size:100px;"">+</div>",,delaylearn,learning,ITI,Dl73zh18fRdsJbtZA2oNp6MRTua2,Dl73zh18fRdsJbtZA2oNp6MRTua2,,,,,,,,,,,,,,,,,,,1729.0,,,5ee5defbfe74a3000d106f51,09:05:19,27/02/2024
html-keyboard-response,64,141396,0.0-29.0-0.0,782.2999999523163,"<div style=""display: flex; flex-direction: column; align-items: center; margin-top: -40px;""><img src=""images/pattern_1.png"" style=""width: 234px; height: 230px; margin-top: -50px;""><div style=""display: flex; justify-content: space-between; margin-top: 33px;""><img src=""images/choice_trial_15.png"" style=""width: 408px; height: 417px; margin-right: 200px;""><img src=""images/choice_trial_6.png"" style=""width: 408px; height: 417px;""></div></div>",j,delaylearn,learning,trial,Dl73zh18fRdsJbtZA2oNp6MRTua2,Dl73zh18fRdsJbtZA2oNp6MRTua2,5.0,images/choice_trial_15.png,images/choice_trial_6.png,images/pattern_1.png,j,j,7000.0,15.0,6.0,1.0,1.0,12.0,1.0,1.0,6.0,40.0,,,,,,5ee5defbfe74a3000d106f51,09:05:19,27/02/2024
html-keyboard-response,65,142411,0.0-29.0-1.0,,"<div style=""display: flex; flex-direction: column; align-items: center; margin-top: -40px;""><img src=""images/pattern_1.png"" style=""width: 234px; height: 230px; margin-top: -50px;""><div style=""display: flex; justify-content: space-between; margin-top: 33px;""><img src=""images/choice_trial_6.png"" style=""width: 408px; height: 417px; margin-left:608px;""></div></div>",,delaylearn,learning,display_response,Dl73zh18fRdsJbtZA2oNp6MRTua2,Dl73zh18fRdsJbtZA2oNp6MRTua2,,,,,,,,,,,,,,,,,chosen stimuli: images/choice_trial_6.png,,,,,5ee5defbfe74a3000d106f51,09:05:19,27/02/2024
html-keyboard-response,66,149417,0.0-29.0-2.0,,,,delaylearn,learning,feedback_duration_window,Dl73zh18fRdsJbtZA2oNp6MRTua2,Dl73zh18fRdsJbtZA2oNp6MRTua2,,,,,,,,,,,,,,,,,,7000.0,,,,5ee5defbfe74a3000d106f51,09:05:19,27/02/2024
html-keyboard-response,67,150929,0.0-29.0-3.0,,<div style='margin:auto;width: auto; font-size: 150%'><span style='font-weight: bold; font-size: 100px; color: green;'>+10 points!</span><br><br></div>,,delaylearn,learning,feedback_image_window,Dl73zh18fRdsJbtZA2oNp6MRTua2,Dl73zh18fRdsJbtZA2oNp6MRTua2,,,,,,,,,,,,,,,,,,,,,,5ee5defbfe74a3000d106f51,09:05:19,27/02/2024
html-keyboard-response,68,153401,0.0-30.0,,"<div style=""font-size:100px;"">+</div>",,delaylearn,learning,ITI,Dl73zh18fRdsJbtZA2oNp6MRTua2,Dl73zh18fRdsJbtZA2oNp6MRTua2,,,,,,,,,,,,,,,,,,,2466.0,,,5ee5defbfe74a3000d106f51,09:05:19,27/02/2024
html-keyboard-response,69,154933,0.0-31.0-0.0,1528.1000000238419,"<div style=""display: flex; flex-direction: column; align-items: center; margin-top: -40px;""><img src=""images/pattern_3.png"" style=""width: 234px; height: 230px; margin-top: -50px;""><div style=""display: flex; justify-content: space-between; margin-top: 33px;""><img src=""images/choice_trial_2.png"" style=""width: 408px; height: 417px; margin-right: 200px;""><img src=""images/choice_trial_16.png"" style=""width: 408px; height: 417px;""></div></div>",f,delaylearn,learning,trial,Dl73zh18fRdsJbtZA2oNp6MRTua2,Dl73zh18fRdsJbtZA2oNp6MRTua2,5.0,images/choice_trial_2.png,images/choice_trial_16.png,images/pattern_3.png,f,j,7000.0,2.0,16.0,2.0,1.0,13.0,0.0,1.0,2.0,50.0,,,,,,5ee5defbfe74a3000d106f51,09:05:19,27/02/2024
html-keyboard-response,70,155935,0.0-31.0-1.0,,"<div style=""display: flex; flex-direction: column; align-items: center; margin-top: -40px;""><img src=""images/pattern_3.png"" style=""width: 234px; height: 230px; margin-top: -50px;""><div style=""display: flex; justify-content: space-between; margin-top: 33px;""><img src=""images/choice_trial_2.png"" style=""width: 408px; height: 417px; margin-right: 608px;""></div></div>",,delaylearn,learning,display_response,Dl73zh18fRdsJbtZA2oNp6MRTua2,Dl73zh18fRdsJbtZA2oNp6MRTua2,,,,,,,,,,,,,,,,,chosen stimuli: images/choice_trial_2.png,,,,,5ee5defbfe74a3000d106f51,09:05:19,27/02/2024
html-keyboard-response,71,162940,0.0-31.0-2.0,,,,delaylearn,learning,feedback_duration_window,Dl73zh18fRdsJbtZA2oNp6MRTua2,Dl73zh18fRdsJbtZA2oNp6MRTua2,,,,,,,,,,,,,,,,,,7000.0,,,,5ee5defbfe74a3000d106f51,09:05:19,27/02/2024
html-keyboard-response,72,164444,0.0-31.0-3.0,,<div style='margin:auto;width: auto; font-size: 150%'><span style='font-weight: bold; font-size: 100px; color: green;'>+10 points!</span><br><br></div>,,delaylearn,learning,feedback_image_window,Dl73zh18fRdsJbtZA2oNp6MRTua2,Dl73zh18fRdsJbtZA2oNp6MRTua2,,,,,,,,,,,,,,,,,,,,,,5ee5defbfe74a3000d106f51,09:05:19,27/02/2024
html-keyboard-response,73,166280,0.0-32.0,,"<div style=""font-size:100px;"">+</div>",,delaylearn,learning,ITI,Dl73zh18fRdsJbtZA2oNp6MRTua2,Dl73zh18fRdsJbtZA2oNp6MRTua2,,,,,,,,,,,,,,,,,,,1824.0,,,5ee5defbfe74a3000d106f51,09:05:19,27/02/2024
html-keyboard-response,74,166989,0.0-33.0-0.0,706.1000000238419,"<div style=""display: flex; flex-direction: column; align-items: center; margin-top: -40px;""><img src=""images/pattern_5.png"" style=""width: 234px; height: 230px; margin-top: -50px;""><div style=""display: flex; justify-content: space-between; margin-top: 33px;""><img src=""images/choice_trial_7.png"" style=""width: 408px; height: 417px; margin-right: 200px;""><img src=""images/choice_trial_13.png"" style=""width: 408px; height: 417px;""></div></div>",f,delaylearn,learning,trial,Dl73zh18fRdsJbtZA2oNp6MRTua2,Dl73zh18fRdsJbtZA2oNp6MRTua2,5.0,images/choice_trial_7.png,images/choice_trial_13.png,images/pattern_5.png,f,f,750.0,7.0,13.0,4.0,0.0,14.0,1.0,1.0,7.0,60.0,,,,,,5ee5defbfe74a3000d106f51,09:05:19,27/02/2024
html-keyboard-response,75,168004,0.0-33.0-1.0,,"<div style=""display: flex; flex-direction: column; align-items: center; margin-top: -40px;""><img src=""images/pattern_5.png"" style=""width: 234px; height: 230px; margin-top: -50px;""><div style=""display: flex; justify-content: space-between; margin-top: 33px;""><img src=""images/choice_trial_7.png"" style=""width: 408px; height: 417px; margin-right: 608px;""></div></div>",,delaylearn,learning,display_response,Dl73zh18fRdsJbtZA2oNp6MRTua2,Dl73zh18fRdsJbtZA2oNp6MRTua2,,,,,,,,,,,,,,,,,chosen stimuli: images/choice_trial_7.png,,,,,5ee5defbfe74a3000d106f51,09:05:19,27/02/2024
html-keyboard-response,76,168759,0.0-33.0-2.0,,,,delaylearn,learning,feedback_duration_window,Dl73zh18fRdsJbtZA2oNp6MRTua2,Dl73zh18fRdsJbtZA2oNp6MRTua2,,,,,,,,,,,,,,,,,,750.0,,,,5ee5defbfe74a3000d106f51,09:05:19,27/02/2024
html-keyboard-response,77,170270,0.0-33.0-3.0,,<div style='margin:auto;width: auto; font-size: 150%'><span style='font-weight: bold; font-size: 100px; color: green;'>+10 points!</span><br><br></div>,,delaylearn,learning,feedback_image_window,Dl73zh18fRdsJbtZA2oNp6MRTua2,Dl73zh18fRdsJbtZA2oNp6MRTua2,,,,,,,,,,,,,,,,,,,,,,5ee5defbfe74a3000d106f51,09:05:19,27/02/2024
html-keyboard-response,78,170776,0.0-34.0-0.0,,,,,,mood_trial_fixation,Dl73zh18fRdsJbtZA2oNp6MRTua2,,,,,,,,,,,,,,,,,,,,,,,5ee5defbfe74a3000d106f51,09:05:19,27/02/2024
lmdlab-html-vas-response,79,176084,0.0-34.0-1.0,4301.0,How happy are you right now?,0.7083333333333334,delaylearn,learning,mood_trial,Dl73zh18fRdsJbtZA2oNp6MRTua2,Dl73zh18fRdsJbtZA2oNp6MRTua2,,,,,,,,,,,,,,,,,,,,"['Very unhappy', 'Very happy']",,5ee5defbfe74a3000d106f51,09:05:19,27/02/2024
html-keyboard-response,80,178497,0.0-35.0,,"<div style=""font-size:100px;"">+</div>",,delaylearn,learning,ITI,Dl73zh18fRdsJbtZA2oNp6MRTua2,Dl73zh18fRdsJbtZA2oNp6MRTua2,,,,,,,,,,,,,,,,,,,2406.0,,,5ee5defbfe74a3000d106f51,09:05:19,27/02/2024
html-keyboard-response,81,179917,0.0-36.0-0.0,1417.5,"<div style=""display: flex; flex-direction: column; align-items: center; margin-top: -40px;""><img src=""images/pattern_6.png"" style=""width: 234px; height: 230px; margin-top: -50px;""><div style=""display: flex; justify-content: space-between; margin-top: 33px;""><img src=""images/choice_trial_14.png"" style=""width: 408px; height: 417px; margin-right: 200px;""><img src=""images/choice_trial_9.png"" style=""width: 408px; height: 417px;""></div></div>",j,delaylearn,learning,trial,Dl73zh18fRdsJbtZA2oNp6MRTua2,Dl73zh18fRdsJbtZA2oNp6MRTua2,5.0,images/choice_trial_14.png,images/choice_trial_9.png,images/pattern_6.png,f,f,750.0,14.0,9.0,5.0,0.0,15.0,0.0,0.0,9.0,60.0,,,,,,5ee5defbfe74a3000d106f51,09:05:19,27/02/2024
html-keyboard-response,82,180926,0.0-36.0-1.0,,"<div style=""display: flex; flex-direction: column; align-items: center; margin-top: -40px;""><img src=""images/pattern_6.png"" style=""width: 234px; height: 230px; margin-top: -50px;""><div style=""display: flex; justify-content: space-between; margin-top: 33px;""><img src=""images/choice_trial_9.png"" style=""width: 408px; height: 417px; margin-left:608px;""></div></div>",,delaylearn,learning,display_response,Dl73zh18fRdsJbtZA2oNp6MRTua2,Dl73zh18fRdsJbtZA2oNp6MRTua2,,,,,,,,,,,,,,,,,chosen stimuli: images/choice_trial_9.png,,,,,5ee5defbfe74a3000d106f51,09:05:19,27/02/2024
html-keyboard-response,83,181685,0.0-36.0-2.0,,,,delaylearn,learning,feedback_duration_window,Dl73zh18fRdsJbtZA2oNp6MRTua2,Dl73zh18fRdsJbtZA2oNp6MRTua2,,,,,,,,,,,,,,,,,,750.0,,,,5ee5defbfe74a3000d106f51,09:05:19,27/02/2024
html-keyboard-response,84,183190,0.0-36.0-3.0,,<div style='margin:auto;width: auto; font-size: 150%'><span style='font-weight: bold; font-size: 100px; color: red;'>0 points!</span><br><br></div>,,delaylearn,learning,feedback_image_window,Dl73zh18fRdsJbtZA2oNp6MRTua2,Dl73zh18fRdsJbtZA2oNp6MRTua2,,,,,,,,,,,,,,,,,,,,,,5ee5defbfe74a3000d106f51,09:05:19,27/02/2024
html-keyboard-response,85,185551,0.0-37.0,,"<div style=""font-size:100px;"">+</div>",,delaylearn,learning,ITI,Dl73zh18fRdsJbtZA2oNp6MRTua2,Dl73zh18fRdsJbtZA2oNp6MRTua2,,,,,,,,,,,,,,,,,,,2359.0,,,5ee5defbfe74a3000d106f51,09:05:19,27/02/2024
html-keyboard-response,86,186892,0.0-38.0-0.0,1338.0,"<div style=""display: flex; flex-direction: column; align-items: center; margin-top: -40px;""><img src=""images/pattern_4.png"" style=""width: 234px; height: 230px; margin-top: -50px;""><div style=""display: flex; justify-content: space-between; margin-top: 33px;""><img src=""images/choice_trial_4.png"" style=""width: 408px; height: 417px; margin-right: 200px;""><img src=""images/choice_trial_11.png"" style=""width: 408px; height: 417px;""></div></div>",f,delaylearn,learning,trial,Dl73zh18fRdsJbtZA2oNp6MRTua2,Dl73zh18fRdsJbtZA2oNp6MRTua2,5.0,images/choice_trial_4.png,images/choice_trial_11.png,images/pattern_4.png,j,j,7000.0,4.0,11.0,3.0,1.0,16.0,0.0,0.0,4.0,60.0,,,,,,5ee5defbfe74a3000d106f51,09:05:19,27/02/2024
html-keyboard-response,87,187900,0.0-38.0-1.0,,"<div style=""display: flex; flex-direction: column; align-items: center; margin-top: -40px;""><img src=""images/pattern_4.png"" style=""width: 234px; height: 230px; margin-top: -50px;""><div style=""display: flex; justify-content: space-between; margin-top: 33px;""><img src=""images/choice_trial_4.png"" style=""width: 408px; height: 417px; margin-right: 608px;""></div></div>",,delaylearn,learning,display_response,Dl73zh18fRdsJbtZA2oNp6MRTua2,Dl73zh18fRdsJbtZA2oNp6MRTua2,,,,,,,,,,,,,,,,,chosen stimuli: images/choice_trial_4.png,,,,,5ee5defbfe74a3000d106f51,09:05:19,27/02/2024
html-keyboard-response,88,194904,0.0-38.0-2.0,,,,delaylearn,learning,feedback_duration_window,Dl73zh18fRdsJbtZA2oNp6MRTua2,Dl73zh18fRdsJbtZA2oNp6MRTua2,,,,,,,,,,,,,,,,,,7000.0,,,,5ee5defbfe74a3000d106f51,09:05:19,27/02/2024
html-keyboard-response,89,196421,0.0-38.0-3.0,,<div style='margin:auto;width: auto; font-size: 150%'><span style='font-weight: bold; font-size: 100px; color: red;'>0 points!</span><br><br></div>,,delaylearn,learning,feedback_image_window,Dl73zh18fRdsJbtZA2oNp6MRTua2,Dl73zh18fRdsJbtZA2oNp6MRTua2,,,,,,,,,,,,,,,,,,,,,,5ee5defbfe74a3000d106f51,09:05:19,27/02/2024
html-keyboard-response,90,198851,0.0-39.0,,"<div style=""font-size:100px;"">+</div>",,delaylearn,learning,ITI,Dl73zh18fRdsJbtZA2oNp6MRTua2,Dl73zh18fRdsJbtZA2oNp6MRTua2,,,,,,,,,,,,,,,,,,,2421.0,,,5ee5defbfe74a3000d106f51,09:05:19,27/02/2024
html-keyboard-response,91,200422,0.0-40.0-0.0,1567.5999999642372,"<div style=""display: flex; flex-direction: column; align-items: center; margin-top: -40px;""><img src=""images/pattern_7.png"" style=""width: 234px; height: 230px; margin-top: -50px;""><div style=""display: flex; justify-content: space-between; margin-top: 33px;""><img src=""images/choice_trial_8.png"" style=""width: 408px; height: 417px; margin-right: 200px;""><img src=""images/choice_trial_10.png"" style=""width: 408px; height: 417px;""></div></div>",f,delaylearn,learning,trial,Dl73zh18fRdsJbtZA2oNp6MRTua2,Dl73zh18fRdsJbtZA2oNp6MRTua2,5.0,images/choice_trial_8.png,images/choice_trial_10.png,images/pattern_7.png,j,f,750.0,8.0,10.0,6.0,0.0,17.0,1.0,0.0,8.0,60.0,,,,,,5ee5defbfe74a3000d106f51,09:05:19,27/02/2024
html-keyboard-response,92,201434,0.0-40.0-1.0,,"<div style=""display: flex; flex-direction: column; align-items: center; margin-top: -40px;""><img src=""images/pattern_7.png"" style=""width: 234px; height: 230px; margin-top: -50px;""><div style=""display: flex; justify-content: space-between; margin-top: 33px;""><img src=""images/choice_trial_8.png"" style=""width: 408px; height: 417px; margin-right: 608px;""></div></div>",,delaylearn,learning,display_response,Dl73zh18fRdsJbtZA2oNp6MRTua2,Dl73zh18fRdsJbtZA2oNp6MRTua2,,,,,,,,,,,,,,,,,chosen stimuli: images/choice_trial_8.png,,,,,5ee5defbfe74a3000d106f51,09:05:19,27/02/2024
html-keyboard-response,93,202187,0.0-40.0-2.0,,,,delaylearn,learning,feedback_duration_window,Dl73zh18fRdsJbtZA2oNp6MRTua2,Dl73zh18fRdsJbtZA2oNp6MRTua2,,,,,,,,,,,,,,,,,,750.0,,,,5ee5defbfe74a3000d106f51,09:05:19,27/02/2024
html-keyboard-response,94,203698,0.0-40.0-3.0,,<div style='margin:auto;width: auto; font-size: 150%'><span style='font-weight: bold; font-size: 100px; color: red;'>0 points!</span><br><br></div>,,delaylearn,learning,feedback_image_window,Dl73zh18fRdsJbtZA2oNp6MRTua2,Dl73zh18fRdsJbtZA2oNp6MRTua2,,,,,,,,,,,,,,,,,,,,,,5ee5defbfe74a3000d106f51,09:05:19,27/02/2024
html-keyboard-response,95,205461,0.0-41.0,,"<div style=""font-size:100px;"">+</div>",,delaylearn,learning,ITI,Dl73zh18fRdsJbtZA2oNp6MRTua2,Dl73zh18fRdsJbtZA2oNp6MRTua2,,,,,,,,,,,,,,,,,,,1756.0,,,5ee5defbfe74a3000d106f51,09:05:19,27/02/2024
html-keyboard-response,96,207677,0.0-42.0-0.0,2212.300000011921,"<div style=""display: flex; flex-direction: column; align-items: center; margin-top: -40px;""><img src=""images/pattern_1.png"" style=""width: 234px; height: 230px; margin-top: -50px;""><div style=""display: flex; justify-content: space-between; margin-top: 33px;""><img src=""images/choice_trial_6.png"" style=""width: 408px; height: 417px; margin-right: 200px;""><img src=""images/choice_trial_15.png"" style=""width: 408px; height: 417px;""></div></div>",j,delaylearn,learning,trial,Dl73zh18fRdsJbtZA2oNp6MRTua2,Dl73zh18fRdsJbtZA2oNp6MRTua2,5.0,images/choice_trial_6.png,images/choice_trial_15.png,images/pattern_1.png,f,f,7000.0,6.0,15.0,1.0,0.0,18.0,0.0,0.0,15.0,60.0,,,,,,5ee5defbfe74a3000d106f51,09:05:19,27/02/2024
html-keyboard-response,97,208693,0.0-42.0-1.0,,"<div style=""display: flex; flex-direction: column; align-items: center; margin-top: -40px;""><img src=""images/pattern_1.png"" style=""width: 234px; height: 230px; margin-top: -50px;""><div style=""display: flex; justify-content: space-between; margin-top: 33px;""><img src=""images/choice_trial_15.png"" style=""width: 408px; height: 417px; margin-left:608px;""></div></div>",,delaylearn,learning,display_response,Dl73zh18fRdsJbtZA2oNp6MRTua2,Dl73zh18fRdsJbtZA2oNp6MRTua2,,,,,,,,,,,,,,,,,chosen stimuli: images/choice_trial_15.png,,,,,5ee5defbfe74a3000d106f51,09:05:19,27/02/2024
html-keyboard-response,98,215705,0.0-42.0-2.0,,,,delaylearn,learning,feedback_duration_window,Dl73zh18fRdsJbtZA2oNp6MRTua2,Dl73zh18fRdsJbtZA2oNp6MRTua2,,,,,,,,,,,,,,,,,,7000.0,,,,5ee5defbfe74a3000d106f51,09:05:19,27/02/2024
html-keyboard-response,99,217209,0.0-42.0-3.0,,<div style='margin:auto;width: auto; font-size: 150%'><span style='font-weight: bold; font-size: 100px; color: red;'>0 points!</span><br><br></div>,,delaylearn,learning,feedback_image_window,Dl73zh18fRdsJbtZA2oNp6MRTua2,Dl73zh18fRdsJbtZA2oNp6MRTua2,,,,,,,,,,,,,,,,,,,,,,5ee5defbfe74a3000d106f51,09:05:19,27/02/2024
html-keyboard-response,100,219647,0.0-43.0,,"<div style=""font-size:100px;"">+</div>",,delaylearn,learning,ITI,Dl73zh18fRdsJbtZA2oNp6MRTua2,Dl73zh18fRdsJbtZA2oNp6MRTua2,,,,,,,,,,,,,,,,,,,2421.0,,,5ee5defbfe74a3000d106f51,09:05:19,27/02/2024
html-keyboard-response,101,221028,0.0-44.0-0.0,1379.8999999761581,"<div style=""display: flex; flex-direction: column; align-items: center; margin-top: -40px;""><img src=""images/pattern_6.png"" style=""width: 234px; height: 230px; margin-top: -50px;""><div style=""display: flex; justify-content: space-between; margin-top: 33px;""><img src=""images/choice_trial_9.png"" style=""width: 408px; height: 417px; margin-right: 200px;""><img src=""images/choice_trial_14.png"" style=""width: 408px; height: 417px;""></div></div>",f,delaylearn,learning,trial,Dl73zh18fRdsJbtZA2oNp6MRTua2,Dl73zh18fRdsJbtZA2oNp6MRTua2,5.0,images/choice_trial_9.png,images/choice_trial_14.png,images/pattern_6.png,j,j,750.0,9.0,14.0,5.0,1.0,19.0,0.0,0.0,9.0,60.0,,,,,,5ee5defbfe74a3000d106f51,09:05:19,27/02/2024
html-keyboard-response,102,222041,0.0-44.0-1.0,,"<div style=""display: flex; flex-direction: column; align-items: center; margin-top: -40px;""><img src=""images/pattern_6.png"" style=""width: 234px; height: 230px; margin-top: -50px;""><div style=""display: flex; justify-content: space-between; margin-top: 33px;""><img src=""images/choice_trial_9.png"" style=""width: 408px; height: 417px; margin-right: 608px;""></div></div>",,delaylearn,learning,display_response,Dl73zh18fRdsJbtZA2oNp6MRTua2,Dl73zh18fRdsJbtZA2oNp6MRTua2,,,,,,,,,,,,,,,,,chosen stimuli: images/choice_trial_9.png,,,,,5ee5defbfe74a3000d106f51,09:05:19,27/02/2024
html-keyboard-response,103,222807,0.0-44.0-2.0,,,,delaylearn,learning,feedback_duration_window,Dl73zh18fRdsJbtZA2oNp6MRTua2,Dl73zh18fRdsJbtZA2oNp6MRTua2,,,,,,,,,,,,,,,,,,750.0,,,,5ee5defbfe74a3000d106f51,09:05:19,27/02/2024
html-keyboard-response,104,224313,0.0-44.0-3.0,,<div style='margin:auto;width: auto; font-size: 150%'><span style='font-weight: bold; font-size: 100px; color: red;'>0 points!</span><br><br></div>,,delaylearn,learning,feedback_image_window,Dl73zh18fRdsJbtZA2oNp6MRTua2,Dl73zh18fRdsJbtZA2oNp6MRTua2,,,,,,,,,,,,,,,,,,,,,,5ee5defbfe74a3000d106f51,09:05:19,27/02/2024
html-keyboard-response,105,226159,0.0-45.0,,"<div style=""font-size:100px;"">+</div>",,delaylearn,learning,ITI,Dl73zh18fRdsJbtZA2oNp6MRTua2,Dl73zh18fRdsJbtZA2oNp6MRTua2,,,,,,,,,,,,,,,,,,,1844.0,,,5ee5defbfe74a3000d106f51,09:05:19,27/02/2024
html-keyboard-response,106,227709,0.0-46.0-0.0,1546.6000000238419,"<div style=""display: flex; flex-direction: column; align-items: center; margin-top: -40px;""><img src=""images/pattern_4.png"" style=""width: 234px; height: 230px; margin-top: -50px;""><div style=""display: flex; justify-content: space-between; margin-top: 33px;""><img src=""images/choice_trial_11.png"" style=""width: 408px; height: 417px; margin-right: 200px;""><img src=""images/choice_trial_4.png"" style=""width: 408px; height: 417px;""></div></div>",j,delaylearn,learning,trial,Dl73zh18fRdsJbtZA2oNp6MRTua2,Dl73zh18fRdsJbtZA2oNp6MRTua2,5.0,images/choice_trial_11.png,images/choice_trial_4.png,images/pattern_4.png,f,f,7000.0,11.0,4.0,3.0,0.0,20.0,0.0,0.0,4.0,60.0,,,,,,5ee5defbfe74a3000d106f51,09:05:19,27/02/2024
html-keyboard-response,107,228726,0.0-46.0-1.0,,"<div style=""display: flex; flex-direction: column; align-items: center; margin-top: -40px;""><img src=""images/pattern_4.png"" style=""width: 234px; height: 230px; margin-top: -50px;""><div style=""display: flex; justify-content: space-between; margin-top: 33px;""><img src=""images/choice_trial_4.png"" style=""width: 408px; height: 417px; margin-left:608px;""></div></div>",,delaylearn,learning,display_response,Dl73zh18fRdsJbtZA2oNp6MRTua2,Dl73zh18fRdsJbtZA2oNp6MRTua2,,,,,,,,,,,,,,,,,chosen stimuli: images/choice_trial_4.png,,,,,5ee5defbfe74a3000d106f51,09:05:19,27/02/2024
html-keyboard-response,108,235728,0.0-46.0-2.0,,,,delaylearn,learning,feedback_duration_window,Dl73zh18fRdsJbtZA2oNp6MRTua2,Dl73zh18fRdsJbtZA2oNp6MRTua2,,,,,,,,,,,,,,,,,,7000.0,,,,5ee5defbfe74a3000d106f51,09:05:19,27/02/2024
html-keyboard-response,109,237234,0.0-46.0-3.0,,<div style='margin:auto;width: auto; font-size: 150%'><span style='font-weight: bold; font-size: 100px; color: red;'>0 points!</span><br><br></div>,,delaylearn,learning,feedback_image_window,Dl73zh18fRdsJbtZA2oNp6MRTua2,Dl73zh18fRdsJbtZA2oNp6MRTua2,,,,,,,,,,,,,,,,,,,,,,5ee5defbfe74a3000d106f51,09:05:19,27/02/2024
html-keyboard-response,110,237741,0.0-47.0-0.0,,,,,,mood_trial_fixation,Dl73zh18fRdsJbtZA2oNp6MRTua2,,,,,,,,,,,,,,,,,,,,,,,5ee5defbfe74a3000d106f51,09:05:19,27/02/2024
lmdlab-html-vas-response,111,242621,0.0-47.0-1.0,3876.0,How happy are you right now?,0.7098765432098766,delaylearn,learning,mood_trial,Dl73zh18fRdsJbtZA2oNp6MRTua2,Dl73zh18fRdsJbtZA2oNp6MRTua2,,,,,,,,,,,,,,,,,,,,"['Very unhappy', 'Very happy']",,5ee5defbfe74a3000d106f51,09:05:19,27/02/2024
html-keyboard-response,112,245067,0.0-48.0,,"<div style=""font-size:100px;"">+</div>",,delaylearn,learning,ITI,Dl73zh18fRdsJbtZA2oNp6MRTua2,Dl73zh18fRdsJbtZA2oNp6MRTua2,,,,,,,,,,,,,,,,,,,2443.0,,,5ee5defbfe74a3000d106f51,09:05:19,27/02/2024
html-keyboard-response,113,246861,0.0-49.0-0.0,1790.800000011921,"<div style=""display: flex; flex-direction: column; align-items: center; margin-top: -40px;""><img src=""images/pattern_7.png"" style=""width: 234px; height: 230px; margin-top: -50px;""><div style=""display: flex; justify-content: space-between; margin-top: 33px;""><img src=""images/choice_trial_10.png"" style=""width: 408px; height: 417px; margin-right: 200px;""><img src=""images/choice_trial_8.png"" style=""width: 408px; height: 417px;""></div></div>",f,delaylearn,learning,trial,Dl73zh18fRdsJbtZA2oNp6MRTua2,Dl73zh18fRdsJbtZA2oNp6MRTua2,5.0,images/choice_trial_10.png,images/choice_trial_8.png,images/pattern_7.png,j,j,750.0,10.0,8.0,6.0,1.0,21.0,0.0,0.0,10.0,60.0,,,,,,5ee5defbfe74a3000d106f51,09:05:19,27/02/2024
html-keyboard-response,114,247866,0.0-49.0-1.0,,"<div style=""display: flex; flex-direction: column; align-items: center; margin-top: -40px;""><img src=""images/pattern_7.png"" style=""width: 234px; height: 230px; margin-top: -50px;""><div style=""display: flex; justify-content: space-between; margin-top: 33px;""><img src=""images/choice_trial_10.png"" style=""width: 408px; height: 417px; margin-right: 608px;""></div></div>",,delaylearn,learning,display_response,Dl73zh18fRdsJbtZA2oNp6MRTua2,Dl73zh18fRdsJbtZA2oNp6MRTua2,,,,,,,,,,,,,,,,,chosen stimuli: images/choice_trial_10.png,,,,,5ee5defbfe74a3000d106f51,09:05:19,27/02/2024
html-keyboard-response,115,248619,0.0-49.0-2.0,,,,delaylearn,learning,feedback_duration_window,Dl73zh18fRdsJbtZA2oNp6MRTua2,Dl73zh18fRdsJbtZA2oNp6MRTua2,,,,,,,,,,,,,,,,,,750.0,,,,5ee5defbfe74a3000d106f51,09:05:19,27/02/2024
html-keyboard-response,116,250134,0.0-49.0-3.0,,<div style='margin:auto;width: auto; font-size: 150%'><span style='font-weight: bold; font-size: 100px; color: red;'>0 points!</span><br><br></div>,,delaylearn,learning,feedback_image_window,Dl73zh18fRdsJbtZA2oNp6MRTua2,Dl73zh18fRdsJbtZA2oNp6MRTua2,,,,,,,,,,,,,,,,,,,,,,5ee5defbfe74a3000d106f51,09:05:19,27/02/2024
html-keyboard-response,117,252224,0.0-50.0,,"<div style=""font-size:100px;"">+</div>",,delaylearn,learning,ITI,Dl73zh18fRdsJbtZA2oNp6MRTua2,Dl73zh18fRdsJbtZA2oNp6MRTua2,,,,,,,,,,,,,,,,,,,2082.0,,,5ee5defbfe74a3000d106f51,09:05:19,27/02/2024
html-keyboard-response,118,253612,0.0-51.0-0.0,1384.7000000476837,"<div style=""display: flex; flex-direction: column; align-items: center; margin-top: -40px;""><img src=""images/pattern_1.png"" style=""width: 234px; height: 230px; margin-top: -50px;""><div style=""display: flex; justify-content: space-between; margin-top: 33px;""><img src=""images/choice_trial_15.png"" style=""width: 408px; height: 417px; margin-right: 200px;""><img src=""images/choice_trial_6.png"" style=""width: 408px; height: 417px;""></div></div>",f,delaylearn,learning,trial,Dl73zh18fRdsJbtZA2oNp6MRTua2,Dl73zh18fRdsJbtZA2oNp6MRTua2,5.0,images/choice_trial_15.png,images/choice_trial_6.png,images/pattern_1.png,f,j,7000.0,15.0,6.0,1.0,1.0,22.0,0.0,1.0,15.0,70.0,,,,,,5ee5defbfe74a3000d106f51,09:05:19,27/02/2024
html-keyboard-response,119,254619,0.0-51.0-1.0,,"<div style=""display: flex; flex-direction: column; align-items: center; margin-top: -40px;""><img src=""images/pattern_1.png"" style=""width: 234px; height: 230px; margin-top: -50px;""><div style=""display: flex; justify-content: space-between; margin-top: 33px;""><img src=""images/choice_trial_15.png"" style=""width: 408px; height: 417px; margin-right: 608px;""></div></div>",,delaylearn,learning,display_response,Dl73zh18fRdsJbtZA2oNp6MRTua2,Dl73zh18fRdsJbtZA2oNp6MRTua2,,,,,,,,,,,,,,,,,chosen stimuli: images/choice_trial_15.png,,,,,5ee5defbfe74a3000d106f51,09:05:19,27/02/2024
html-keyboard-response,120,261633,0.0-51.0-2.0,,,,delaylearn,learning,feedback_duration_window,Dl73zh18fRdsJbtZA2oNp6MRTua2,Dl73zh18fRdsJbtZA2oNp6MRTua2,,,,,,,,,,,,,,,,,,7000.0,,,,5ee5defbfe74a3000d106f51,09:05:19,27/02/2024
html-keyboard-response,121,263135,0.0-51.0-3.0,,<div style='margin:auto;width: auto; font-size: 150%'><span style='font-weight: bold; font-size: 100px; color: green;'>+10 points!</span><br><br></div>,,delaylearn,learning,feedback_image_window,Dl73zh18fRdsJbtZA2oNp6MRTua2,Dl73zh18fRdsJbtZA2oNp6MRTua2,,,,,,,,,,,,,,,,,,,,,,5ee5defbfe74a3000d106f51,09:05:19,27/02/2024
html-keyboard-response,122,264696,0.0-52.0,,"<div style=""font-size:100px;"">+</div>",,delaylearn,learning,ITI,Dl73zh18fRdsJbtZA2oNp6MRTua2,Dl73zh18fRdsJbtZA2oNp6MRTua2,,,,,,,,,,,,,,,,,,,1555.0,,,5ee5defbfe74a3000d106f51,09:05:19,27/02/2024
html-keyboard-response,123,266230,0.0-53.0-0.0,1530.5,"<div style=""display: flex; flex-direction: column; align-items: center; margin-top: -40px;""><img src=""images/pattern_5.png"" style=""width: 234px; height: 230px; margin-top: -50px;""><div style=""display: flex; justify-content: space-between; margin-top: 33px;""><img src=""images/choice_trial_13.png"" style=""width: 408px; height: 417px; margin-right: 200px;""><img src=""images/choice_trial_7.png"" style=""width: 408px; height: 417px;""></div></div>",j,delaylearn,learning,trial,Dl73zh18fRdsJbtZA2oNp6MRTua2,Dl73zh18fRdsJbtZA2oNp6MRTua2,5.0,images/choice_trial_13.png,images/choice_trial_7.png,images/pattern_5.png,j,j,750.0,13.0,7.0,4.0,1.0,23.0,1.0,1.0,7.0,80.0,,,,,,5ee5defbfe74a3000d106f51,09:05:19,27/02/2024
html-keyboard-response,124,267233,0.0-53.0-1.0,,"<div style=""display: flex; flex-direction: column; align-items: center; margin-top: -40px;""><img src=""images/pattern_5.png"" style=""width: 234px; height: 230px; margin-top: -50px;""><div style=""display: flex; justify-content: space-between; margin-top: 33px;""><img src=""images/choice_trial_7.png"" style=""width: 408px; height: 417px; margin-left:608px;""></div></div>",,delaylearn,learning,display_response,Dl73zh18fRdsJbtZA2oNp6MRTua2,Dl73zh18fRdsJbtZA2oNp6MRTua2,,,,,,,,,,,,,,,,,chosen stimuli: images/choice_trial_7.png,,,,,5ee5defbfe74a3000d106f51,09:05:19,27/02/2024
html-keyboard-response,125,267999,0.0-53.0-2.0,,,,delaylearn,learning,feedback_duration_window,Dl73zh18fRdsJbtZA2oNp6MRTua2,Dl73zh18fRdsJbtZA2oNp6MRTua2,,,,,,,,,,,,,,,,,,750.0,,,,5ee5defbfe74a3000d106f51,09:05:19,27/02/2024
html-keyboard-response,126,269506,0.0-53.0-3.0,,<div style='margin:auto;width: auto; font-size: 150%'><span style='font-weight: bold; font-size: 100px; color: green;'>+10 points!</span><br><br></div>,,delaylearn,learning,feedback_image_window,Dl73zh18fRdsJbtZA2oNp6MRTua2,Dl73zh18fRdsJbtZA2oNp6MRTua2,,,,,,,,,,,,,,,,,,,,,,5ee5defbfe74a3000d106f51,09:05:19,27/02/2024
html-keyboard-response,127,271546,0.0-54.0,,"<div style=""font-size:100px;"">+</div>",,delaylearn,learning,ITI,Dl73zh18fRdsJbtZA2oNp6MRTua2,Dl73zh18fRdsJbtZA2oNp6MRTua2,,,,,,,,,,,,,,,,,,,2036.0,,,5ee5defbfe74a3000d106f51,09:05:19,27/02/2024
html-keyboard-response,128,272149,0.0-55.0-0.0,601.4000000357628,"<div style=""display: flex; flex-direction: column; align-items: center; margin-top: -40px;""><img src=""images/pattern_3.png"" style=""width: 234px; height: 230px; margin-top: -50px;""><div style=""display: flex; justify-content: space-between; margin-top: 33px;""><img src=""images/choice_trial_2.png"" style=""width: 408px; height: 417px; margin-right: 200px;""><img src=""images/choice_trial_16.png"" style=""width: 408px; height: 417px;""></div></div>",j,delaylearn,learning,trial,Dl73zh18fRdsJbtZA2oNp6MRTua2,Dl73zh18fRdsJbtZA2oNp6MRTua2,5.0,images/choice_trial_2.png,images/choice_trial_16.png,images/pattern_3.png,j,j,7000.0,2.0,16.0,2.0,1.0,24.0,1.0,1.0,16.0,90.0,,,,,,5ee5defbfe74a3000d106f51,09:05:19,27/02/2024
html-keyboard-response,129,273155,0.0-55.0-1.0,,"<div style=""display: flex; flex-direction: column; align-items: center; margin-top: -40px;""><img src=""images/pattern_3.png"" style=""width: 234px; height: 230px; margin-top: -50px;""><div style=""display: flex; justify-content: space-between; margin-top: 33px;""><img src=""images/choice_trial_16.png"" style=""width: 408px; height: 417px; margin-left:608px;""></div></div>",,delaylearn,learning,display_response,Dl73zh18fRdsJbtZA2oNp6MRTua2,Dl73zh18fRdsJbtZA2oNp6MRTua2,,,,,,,,,,,,,,,,,chosen stimuli: images/choice_trial_16.png,,,,,5ee5defbfe74a3000d106f51,09:05:19,27/02/2024
html-keyboard-response,130,280165,0.0-55.0-2.0,,,,delaylearn,learning,feedback_duration_window,Dl73zh18fRdsJbtZA2oNp6MRTua2,Dl73zh18fRdsJbtZA2oNp6MRTua2,,,,,,,,,,,,,,,,,,7000.0,,,,5ee5defbfe74a3000d106f51,09:05:19,27/02/2024
html-keyboard-response,131,281683,0.0-55.0-3.0,,<div style='margin:auto;width: auto; font-size: 150%'><span style='font-weight: bold; font-size: 100px; color: green;'>+10 points!</span><br><br></div>,,delaylearn,learning,feedback_image_window,Dl73zh18fRdsJbtZA2oNp6MRTua2,Dl73zh18fRdsJbtZA2oNp6MRTua2,,,,,,,,,,,,,,,,,,,,,,5ee5defbfe74a3000d106f51,09:05:19,27/02/2024
lmdlab-html-vas-response,132,285994,0.0-56.0-0.0,2790.0,*How <b><u>confident</u></b> are you feeling about your answers at this moment?*,0.5910493827160493,rewlearn,rate_confidence,,Dl73zh18fRdsJbtZA2oNp6MRTua2,Dl73zh18fRdsJbtZA2oNp6MRTua2,,,,,,,,,,,,,,,,,,,,"['No confidence', 'Complete confidence']",,5ee5defbfe74a3000d106f51,09:05:19,27/02/2024
lmdlab-rest-trial-limit,133,295663,0.0-56.0-1.0,8160.400000035763,"<div style=""font-size:40px;""><b>Please take a break!</b><br><br><br><br><p>Great work: you earned undefined points.<br><br><br><p>You have completed part(s) 1 of 6.<br><br><br><br>When you are ready to continue<br><br><br>please click the button.</p><br><br>",0,delaylearn,learning,break,Dl73zh18fRdsJbtZA2oNp6MRTua2,Dl73zh18fRdsJbtZA2oNp6MRTua2,,,,,,,,,,,,,,,,,,,,,0.0,5ee5defbfe74a3000d106f51,09:05:19,27/02/2024
html-keyboard-response,134,298671,0.0-56.0-2.0,,"<div style=""font-size:100px;"">+</div>",,delaylearn,learning,pre_fixation,Dl73zh18fRdsJbtZA2oNp6MRTua2,,,,,,,,,,,,,,,,,,,,,,,5ee5defbfe74a3000d106f51,09:05:19,27/02/2024
lmdlab-html-vas-response,135,302381,0.0-56.0-3.0-0.0,2691.0,How happy are you right now?,0.7515432098765432,delaylearn,learning,mood_baseline,Dl73zh18fRdsJbtZA2oNp6MRTua2,Dl73zh18fRdsJbtZA2oNp6MRTua2,,,,,,,,,,,,,,,,,,,,"['Very unhappy', 'Very happy']",,5ee5defbfe74a3000d106f51,09:05:19,27/02/2024
html-keyboard-response,136,303892,0.0-56.0-3.0-1.0,,,,,,mood_baseline_fixation,Dl73zh18fRdsJbtZA2oNp6MRTua2,,,,,,,,,,,,,,,,,,,,,,,5ee5defbfe74a3000d106f51,09:05:19,27/02/2024
html-keyboard-response,137,306096,0.0-57.0,,"<div style=""font-size:100px;"">+</div>",,delaylearn,learning,ITI,Dl73zh18fRdsJbtZA2oNp6MRTua2,Dl73zh18fRdsJbtZA2oNp6MRTua2,,,,,,,,,,,,,,,,,,,2192.0,,,5ee5defbfe74a3000d106f51,09:05:19,27/02/2024
html-keyboard-response,138,307038,0.0-58.0-0.0,937.0,"<div style=""display: flex; flex-direction: column; align-items: center; margin-top: -40px;""><img src=""images/pattern_7.png"" style=""width: 234px; height: 230px; margin-top: -50px;""><div style=""display: flex; justify-content: space-between; margin-top: 33px;""><img src=""images/choice_trial_10.png"" style=""width: 408px; height: 417px; margin-right: 200px;""><img src=""images/choice_trial_8.png"" style=""width: 408px; height: 417px;""></div></div>",f,delaylearn,learning,trial,Dl73zh18fRdsJbtZA2oNp6MRTua2,Dl73zh18fRdsJbtZA2oNp6MRTua2,5.0,images/choice_trial_10.png,images/choice_trial_8.png,images/pattern_7.png,j,j,750.0,10.0,8.0,6.0,1.0,25.0,0.0,0.0,10.0,90.0,,,,,,5ee5defbfe74a3000d106f51,09:05:19,27/02/2024
html-keyboard-response,139,308044,0.0-58.0-1.0,,"<div style=""display: flex; flex-direction: column; align-items: center; margin-top: -40px;""><img src=""images/pattern_7.png"" style=""width: 234px; height: 230px; margin-top: -50px;""><div style=""display: flex; justify-content: space-between; margin-top: 33px;""><img src=""images/choice_trial_10.png"" style=""width: 408px; height: 417px; margin-right: 608px;""></div></div>",,delaylearn,learning,display_response,Dl73zh18fRdsJbtZA2oNp6MRTua2,Dl73zh18fRdsJbtZA2oNp6MRTua2,,,,,,,,,,,,,,,,,chosen stimuli: images/choice_trial_10.png,,,,,5ee5defbfe74a3000d106f51,09:05:19,27/02/2024
html-keyboard-response,140,308807,0.0-58.0-2.0,,,,delaylearn,learning,feedback_duration_window,Dl73zh18fRdsJbtZA2oNp6MRTua2,Dl73zh18fRdsJbtZA2oNp6MRTua2,,,,,,,,,,,,,,,,,,750.0,,,,5ee5defbfe74a3000d106f51,09:05:19,27/02/2024
html-keyboard-response,141,310316,0.0-58.0-3.0,,<div style='margin:auto;width: auto; font-size: 150%'><span style='font-weight: bold; font-size: 100px; color: red;'>0 points!</span><br><br></div>,,delaylearn,learning,feedback_image_window,Dl73zh18fRdsJbtZA2oNp6MRTua2,Dl73zh18fRdsJbtZA2oNp6MRTua2,,,,,,,,,,,,,,,,,,,,,,5ee5defbfe74a3000d106f51,09:05:19,27/02/2024
html-keyboard-response,142,310824,0.0-59.0-0.0,,,,,,mood_trial_fixation,Dl73zh18fRdsJbtZA2oNp6MRTua2,,,,,,,,,,,,,,,,,,,,,,,5ee5defbfe74a3000d106f51,09:05:19,27/02/2024
lmdlab-html-vas-response,143,314454,0.0-59.0-1.0,2619.0,How happy are you right now?,0.7191358024691358,delaylearn,learning,mood_trial,Dl73zh18fRdsJbtZA2oNp6MRTua2,Dl73zh18fRdsJbtZA2oNp6MRTua2,,,,,,,,,,,,,,,,,,,,"['Very unhappy', 'Very happy']",,5ee5defbfe74a3000d106f51,09:05:19,27/02/2024
html-keyboard-response,144,316799,0.0-60.0,,"<div style=""font-size:100px;"">+</div>",,delaylearn,learning,ITI,Dl73zh18fRdsJbtZA2oNp6MRTua2,Dl73zh18fRdsJbtZA2oNp6MRTua2,,,,,,,,,,,,,,,,,,,2343.0,,,5ee5defbfe74a3000d106f51,09:05:19,27/02/2024
html-keyboard-response,145,317919,0.0-61.0-0.0,1116.300000011921,"<div style=""display: flex; flex-direction: column; align-items: center; margin-top: -40px;""><img src=""images/pattern_1.png"" style=""width: 234px; height: 230px; margin-top: -50px;""><div style=""display: flex; justify-content: space-between; margin-top: 33px;""><img src=""images/choice_trial_6.png"" style=""width: 408px; height: 417px; margin-right: 200px;""><img src=""images/choice_trial_15.png"" style=""width: 408px; height: 417px;""></div></div>",f,delaylearn,learning,trial,Dl73zh18fRdsJbtZA2oNp6MRTua2,Dl73zh18fRdsJbtZA2oNp6MRTua2,5.0,images/choice_trial_6.png,images/choice_trial_15.png,images/pattern_1.png,f,f,7000.0,6.0,15.0,1.0,0.0,26.0,1.0,1.0,6.0,100.0,,,,,,5ee5defbfe74a3000d106f51,09:05:19,27/02/2024
html-keyboard-response,146,318935,0.0-61.0-1.0,,"<div style=""display: flex; flex-direction: column; align-items: center; margin-top: -40px;""><img src=""images/pattern_1.png"" style=""width: 234px; height: 230px; margin-top: -50px;""><div style=""display: flex; justify-content: space-between; margin-top: 33px;""><img src=""images/choice_trial_6.png"" style=""width: 408px; height: 417px; margin-right: 608px;""></div></div>",,delaylearn,learning,display_response,Dl73zh18fRdsJbtZA2oNp6MRTua2,Dl73zh18fRdsJbtZA2oNp6MRTua2,,,,,,,,,,,,,,,,,chosen stimuli: images/choice_trial_6.png,,,,,5ee5defbfe74a3000d106f51,09:05:19,27/02/2024
html-keyboard-response,147,325949,0.0-61.0-2.0,,,,delaylearn,learning,feedback_duration_window,Dl73zh18fRdsJbtZA2oNp6MRTua2,Dl73zh18fRdsJbtZA2oNp6MRTua2,,,,,,,,,,,,,,,,,,7000.0,,,,5ee5defbfe74a3000d106f51,09:05:19,27/02/2024
html-keyboard-response,148,327454,0.0-61.0-3.0,,<div style='margin:auto;width: auto; font-size: 150%'><span style='font-weight: bold; font-size: 100px; color: green;'>+10 points!</span><br><br></div>,,delaylearn,learning,feedback_image_window,Dl73zh18fRdsJbtZA2oNp6MRTua2,Dl73zh18fRdsJbtZA2oNp6MRTua2,,,,,,,,,,,,,,,,,,,,,,5ee5defbfe74a3000d106f51,09:05:19,27/02/2024
html-keyboard-response,149,329183,0.0-62.0,,"<div style=""font-size:100px;"">+</div>",,delaylearn,learning,ITI,Dl73zh18fRdsJbtZA2oNp6MRTua2,Dl73zh18fRdsJbtZA2oNp6MRTua2,,,,,,,,,,,,,,,,,,,1724.0,,,5ee5defbfe74a3000d106f51,09:05:19,27/02/2024
html-keyboard-response,150,330214,0.0-63.0-0.0,1027.699999988079,"<div style=""display: flex; flex-direction: column; align-items: center; margin-top: -40px;""><img src=""images/pattern_5.png"" style=""width: 234px; height: 230px; margin-top: -50px;""><div style=""display: flex; justify-content: space-between; margin-top: 33px;""><img src=""images/choice_trial_7.png"" style=""width: 408px; height: 417px; margin-right: 200px;""><img src=""images/choice_trial_13.png"" style=""width: 408px; height: 417px;""></div></div>",f,delaylearn,learning,trial,Dl73zh18fRdsJbtZA2oNp6MRTua2,Dl73zh18fRdsJbtZA2oNp6MRTua2,5.0,images/choice_trial_7.png,images/choice_trial_13.png,images/pattern_5.png,f,f,750.0,7.0,13.0,4.0,0.0,27.0,1.0,1.0,7.0,110.0,,,,,,5ee5defbfe74a3000d106f51,09:05:19,27/02/2024
html-keyboard-response,151,331218,0.0-63.0-1.0,,"<div style=""display: flex; flex-direction: column; align-items: center; margin-top: -40px;""><img src=""images/pattern_5.png"" style=""width: 234px; height: 230px; margin-top: -50px;""><div style=""display: flex; justify-content: space-between; margin-top: 33px;""><img src=""images/choice_trial_7.png"" style=""width: 408px; height: 417px; margin-right: 608px;""></div></div>",,delaylearn,learning,display_response,Dl73zh18fRdsJbtZA2oNp6MRTua2,Dl73zh18fRdsJbtZA2oNp6MRTua2,,,,,,,,,,,,,,,,,chosen stimuli: images/choice_trial_7.png,,,,,5ee5defbfe74a3000d106f51,09:05:19,27/02/2024
html-keyboard-response,152,331981,0.0-63.0-2.0,,,,delaylearn,learning,feedback_duration_window,Dl73zh18fRdsJbtZA2oNp6MRTua2,Dl73zh18fRdsJbtZA2oNp6MRTua2,,,,,,,,,,,,,,,,,,750.0,,,,5ee5defbfe74a3000d106f51,09:05:19,27/02/2024
html-keyboard-response,153,333492,0.0-63.0-3.0,,<div style='margin:auto;width: auto; font-size: 150%'><span style='font-weight: bold; font-size: 100px; color: green;'>+10 points!</span><br><br></div>,,delaylearn,learning,feedback_image_window,Dl73zh18fRdsJbtZA2oNp6MRTua2,Dl73zh18fRdsJbtZA2oNp6MRTua2,,,,,,,,,,,,,,,,,,,,,,5ee5defbfe74a3000d106f51,09:05:19,27/02/2024
html-keyboard-response,154,335791,0.0-64.0,,"<div style=""font-size:100px;"">+</div>",,delaylearn,learning,ITI,Dl73zh18fRdsJbtZA2oNp6MRTua2,Dl73zh18fRdsJbtZA2oNp6MRTua2,,,,,,,,,,,,,,,,,,,2296.0,,,5ee5defbfe74a3000d106f51,09:05:19,27/02/2024
html-keyboard-response,155,336758,0.0-65.0-0.0,963.3000000119209,"<div style=""display: flex; flex-direction: column; align-items: center; margin-top: -40px;""><img src=""images/pattern_6.png"" style=""width: 234px; height: 230px; margin-top: -50px;""><div style=""display: flex; justify-content: space-between; margin-top: 33px;""><img src=""images/choice_trial_9.png"" style=""width: 408px; height: 417px; margin-right: 200px;""><img src=""images/choice_trial_14.png"" style=""width: 408px; height: 417px;""></div></div>",f,delaylearn,learning,trial,Dl73zh18fRdsJbtZA2oNp6MRTua2,Dl73zh18fRdsJbtZA2oNp6MRTua2,5.0,images/choice_trial_9.png,images/choice_trial_14.png,images/pattern_6.png,j,j,750.0,9.0,14.0,5.0,1.0,28.0,0.0,0.0,9.0,110.0,,,,,,5ee5defbfe74a3000d106f51,09:05:19,27/02/2024
html-keyboard-response,156,337773,0.0-65.0-1.0,,"<div style=""display: flex; flex-direction: column; align-items: center; margin-top: -40px;""><img src=""images/pattern_6.png"" style=""width: 234px; height: 230px; margin-top: -50px;""><div style=""display: flex; justify-content: space-between; margin-top: 33px;""><img src=""images/choice_trial_9.png"" style=""width: 408px; height: 417px; margin-right: 608px;""></div></div>",,delaylearn,learning,display_response,Dl73zh18fRdsJbtZA2oNp6MRTua2,Dl73zh18fRdsJbtZA2oNp6MRTua2,,,,,,,,,,,,,,,,,chosen stimuli: images/choice_trial_9.png,,,,,5ee5defbfe74a3000d106f51,09:05:19,27/02/2024
html-keyboard-response,157,338526,0.0-65.0-2.0,,,,delaylearn,learning,feedback_duration_window,Dl73zh18fRdsJbtZA2oNp6MRTua2,Dl73zh18fRdsJbtZA2oNp6MRTua2,,,,,,,,,,,,,,,,,,750.0,,,,5ee5defbfe74a3000d106f51,09:05:19,27/02/2024
html-keyboard-response,158,340038,0.0-65.0-3.0,,<div style='margin:auto;width: auto; font-size: 150%'><span style='font-weight: bold; font-size: 100px; color: red;'>0 points!</span><br><br></div>,,delaylearn,learning,feedback_image_window,Dl73zh18fRdsJbtZA2oNp6MRTua2,Dl73zh18fRdsJbtZA2oNp6MRTua2,,,,,,,,,,,,,,,,,,,,,,5ee5defbfe74a3000d106f51,09:05:19,27/02/2024
html-keyboard-response,159,340540,0.0-66.0-0.0,,,,,,mood_trial_fixation,Dl73zh18fRdsJbtZA2oNp6MRTua2,,,,,,,,,,,,,,,,,,,,,,,5ee5defbfe74a3000d106f51,09:05:19,27/02/2024
lmdlab-html-vas-response,160,343837,0.0-66.0-1.0,2288.0,How happy are you right now?,0.6651234567901234,delaylearn,learning,mood_trial,Dl73zh18fRdsJbtZA2oNp6MRTua2,Dl73zh18fRdsJbtZA2oNp6MRTua2,,,,,,,,,,,,,,,,,,,,"['Very unhappy', 'Very happy']",,5ee5defbfe74a3000d106f51,09:05:19,27/02/2024
html-keyboard-response,161,346008,0.0-67.0,,"<div style=""font-size:100px;"">+</div>",,delaylearn,learning,ITI,Dl73zh18fRdsJbtZA2oNp6MRTua2,Dl73zh18fRdsJbtZA2oNp6MRTua2,,,,,,,,,,,,,,,,,,,2158.0,,,5ee5defbfe74a3000d106f51,09:05:19,27/02/2024
html-keyboard-response,162,346718,0.0-68.0-0.0,707.2999999523163,"<div style=""display: flex; flex-direction: column; align-items: center; margin-top: -40px;""><img src=""images/pattern_4.png"" style=""width: 234px; height: 230px; margin-top: -50px;""><div style=""display: flex; justify-content: space-between; margin-top: 33px;""><img src=""images/choice_trial_4.png"" style=""width: 408px; height: 417px; margin-right: 200px;""><img src=""images/choice_trial_11.png"" style=""width: 408px; height: 417px;""></div></div>",j,delaylearn,learning,trial,Dl73zh18fRdsJbtZA2oNp6MRTua2,Dl73zh18fRdsJbtZA2oNp6MRTua2,5.0,images/choice_trial_4.png,images/choice_trial_11.png,images/pattern_4.png,j,j,7000.0,4.0,11.0,3.0,1.0,29.0,1.0,1.0,11.0,120.0,,,,,,5ee5defbfe74a3000d106f51,09:05:19,27/02/2024
html-keyboard-response,163,347735,0.0-68.0-1.0,,"<div style=""display: flex; flex-direction: column; align-items: center; margin-top: -40px;""><img src=""images/pattern_4.png"" style=""width: 234px; height: 230px; margin-top: -50px;""><div style=""display: flex; justify-content: space-between; margin-top: 33px;""><img src=""images/choice_trial_11.png"" style=""width: 408px; height: 417px; margin-left:608px;""></div></div>",,delaylearn,learning,display_response,Dl73zh18fRdsJbtZA2oNp6MRTua2,Dl73zh18fRdsJbtZA2oNp6MRTua2,,,,,,,,,,,,,,,,,chosen stimuli: images/choice_trial_11.png,,,,,5ee5defbfe74a3000d106f51,09:05:19,27/02/2024
html-keyboard-response,164,354737,0.0-68.0-2.0,,,,delaylearn,learning,feedback_duration_window,Dl73zh18fRdsJbtZA2oNp6MRTua2,Dl73zh18fRdsJbtZA2oNp6MRTua2,,,,,,,,,,,,,,,,,,7000.0,,,,5ee5defbfe74a3000d106f51,09:05:19,27/02/2024
html-keyboard-response,165,356244,0.0-68.0-3.0,,<div style='margin:auto;width: auto; font-size: 150%'><span style='font-weight: bold; font-size: 100px; color: green;'>+10 points!</span><br><br></div>,,delaylearn,learning,feedback_image_window,Dl73zh18fRdsJbtZA2oNp6MRTua2,Dl73zh18fRdsJbtZA2oNp6MRTua2,,,,,,,,,,,,,,,,,,,,,,5ee5defbfe74a3000d106f51,09:05:19,27/02/2024
html-keyboard-response,166,357986,0.0-69.0,,"<div style=""font-size:100px;"">+</div>",,delaylearn,learning,ITI,Dl73zh18fRdsJbtZA2oNp6MRTua2,Dl73zh18fRdsJbtZA2oNp6MRTua2,,,,,,,,,,,,,,,,,,,1726.0,,,5ee5defbfe74a3000d106f51,09:05:19,27/02/2024
html-keyboard-response,167,359191,0.0-70.0-0.0,1200.699999988079,"<div style=""display: flex; flex-direction: column; align-items: center; margin-top: -40px;""><img src=""images/pattern_3.png"" style=""width: 234px; height: 230px; margin-top: -50px;""><div style=""display: flex; justify-content: space-between; margin-top: 33px;""><img src=""images/choice_trial_2.png"" style=""width: 408px; height: 417px; margin-right: 200px;""><img src=""images/choice_trial_16.png"" style=""width: 408px; height: 417px;""></div></div>",f,delaylearn,learning,trial,Dl73zh18fRdsJbtZA2oNp6MRTua2,Dl73zh18fRdsJbtZA2oNp6MRTua2,5.0,images/choice_trial_2.png,images/choice_trial_16.png,images/pattern_3.png,j,j,7000.0,2.0,16.0,2.0,1.0,30.0,0.0,0.0,2.0,120.0,,,,,,5ee5defbfe74a3000d106f51,09:05:19,27/02/2024
html-keyboard-response,168,360202,0.0-70.0-1.0,,"<div style=""display: flex; flex-direction: column; align-items: center; margin-top: -40px;""><img src=""images/pattern_3.png"" style=""width: 234px; height: 230px; margin-top: -50px;""><div style=""display: flex; justify-content: space-between; margin-top: 33px;""><img src=""images/choice_trial_2.png"" style=""width: 408px; height: 417px; margin-right: 608px;""></div></div>",,delaylearn,learning,display_response,Dl73zh18fRdsJbtZA2oNp6MRTua2,Dl73zh18fRdsJbtZA2oNp6MRTua2,,,,,,,,,,,,,,,,,chosen stimuli: images/choice_trial_2.png,,,,,5ee5defbfe74a3000d106f51,09:05:19,27/02/2024
html-keyboard-response,169,367206,0.0-70.0-2.0,,,,delaylearn,learning,feedback_duration_window,Dl73zh18fRdsJbtZA2oNp6MRTua2,Dl73zh18fRdsJbtZA2oNp6MRTua2,,,,,,,,,,,,,,,,,,7000.0,,,,5ee5defbfe74a3000d106f51,09:05:19,27/02/2024
html-keyboard-response,170,368712,0.0-70.0-3.0,,<div style='margin:auto;width: auto; font-size: 150%'><span style='font-weight: bold; font-size: 100px; color: red;'>0 points!</span><br><br></div>,,delaylearn,learning,feedback_image_window,Dl73zh18fRdsJbtZA2oNp6MRTua2,Dl73zh18fRdsJbtZA2oNp6MRTua2,,,,,,,,,,,,,,,,,,,,,,5ee5defbfe74a3000d106f51,09:05:19,27/02/2024
html-keyboard-response,171,370301,0.0-71.0,,"<div style=""font-size:100px;"">+</div>",,delaylearn,learning,ITI,Dl73zh18fRdsJbtZA2oNp6MRTua2,Dl73zh18fRdsJbtZA2oNp6MRTua2,,,,,,,,,,,,,,,,,,,1582.0,,,5ee5defbfe74a3000d106f51,09:05:19,27/02/2024
html-keyboard-response,172,371191,0.0-72.0-0.0,886.0,"<div style=""display: flex; flex-direction: column; align-items: center; margin-top: -40px;""><img src=""images/pattern_5.png"" style=""width: 234px; height: 230px; margin-top: -50px;""><div style=""display: flex; justify-content: space-between; margin-top: 33px;""><img src=""images/choice_trial_7.png"" style=""width: 408px; height: 417px; margin-right: 200px;""><img src=""images/choice_trial_13.png"" style=""width: 408px; height: 417px;""></div></div>",f,delaylearn,learning,trial,Dl73zh18fRdsJbtZA2oNp6MRTua2,Dl73zh18fRdsJbtZA2oNp6MRTua2,5.0,images/choice_trial_7.png,images/choice_trial_13.png,images/pattern_5.png,j,f,750.0,7.0,13.0,4.0,0.0,31.0,1.0,0.0,7.0,120.0,,,,,,5ee5defbfe74a3000d106f51,09:05:19,27/02/2024
html-keyboard-response,173,372199,0.0-72.0-1.0,,"<div style=""display: flex; flex-direction: column; align-items: center; margin-top: -40px;""><img src=""images/pattern_5.png"" style=""width: 234px; height: 230px; margin-top: -50px;""><div style=""display: flex; justify-content: space-between; margin-top: 33px;""><img src=""images/choice_trial_7.png"" style=""width: 408px; height: 417px; margin-right: 608px;""></div></div>",,delaylearn,learning,display_response,Dl73zh18fRdsJbtZA2oNp6MRTua2,Dl73zh18fRdsJbtZA2oNp6MRTua2,,,,,,,,,,,,,,,,,chosen stimuli: images/choice_trial_7.png,,,,,5ee5defbfe74a3000d106f51,09:05:19,27/02/2024
html-keyboard-response,174,372962,0.0-72.0-2.0,,,,delaylearn,learning,feedback_duration_window,Dl73zh18fRdsJbtZA2oNp6MRTua2,Dl73zh18fRdsJbtZA2oNp6MRTua2,,,,,,,,,,,,,,,,,,750.0,,,,5ee5defbfe74a3000d106f51,09:05:19,27/02/2024
html-keyboard-response,175,374474,0.0-72.0-3.0,,<div style='margin:auto;width: auto; font-size: 150%'><span style='font-weight: bold; font-size: 100px; color: red;'>0 points!</span><br><br></div>,,delaylearn,learning,feedback_image_window,Dl73zh18fRdsJbtZA2oNp6MRTua2,Dl73zh18fRdsJbtZA2oNp6MRTua2,,,,,,,,,,,,,,,,,,,,,,5ee5defbfe74a3000d106f51,09:05:19,27/02/2024
html-keyboard-response,176,376297,0.0-73.0,,"<div style=""font-size:100px;"">+</div>",,delaylearn,learning,ITI,Dl73zh18fRdsJbtZA2oNp6MRTua2,Dl73zh18fRdsJbtZA2oNp6MRTua2,,,,,,,,,,,,,,,,,,,1818.0,,,5ee5defbfe74a3000d106f51,09:05:19,27/02/2024
html-keyboard-response,177,376765,0.0-74.0-0.0,464.10000002384186,"<div style=""display: flex; flex-direction: column; align-items: center; margin-top: -40px;""><img src=""images/pattern_1.png"" style=""width: 234px; height: 230px; margin-top: -50px;""><div style=""display: flex; justify-content: space-between; margin-top: 33px;""><img src=""images/choice_trial_6.png"" style=""width: 408px; height: 417px; margin-right: 200px;""><img src=""images/choice_trial_15.png"" style=""width: 408px; height: 417px;""></div></div>",j,delaylearn,learning,trial,Dl73zh18fRdsJbtZA2oNp6MRTua2,Dl73zh18fRdsJbtZA2oNp6MRTua2,5.0,images/choice_trial_6.png,images/choice_trial_15.png,images/pattern_1.png,f,f,7000.0,6.0,15.0,1.0,0.0,32.0,0.0,0.0,15.0,120.0,,,,,,5ee5defbfe74a3000d106f51,09:05:19,27/02/2024
html-keyboard-response,178,377768,0.0-74.0-1.0,,"<div style=""display: flex; flex-direction: column; align-items: center; margin-top: -40px;""><img src=""images/pattern_1.png"" style=""width: 234px; height: 230px; margin-top: -50px;""><div style=""display: flex; justify-content: space-between; margin-top: 33px;""><img src=""images/choice_trial_15.png"" style=""width: 408px; height: 417px; margin-left:608px;""></div></div>",,delaylearn,learning,display_response,Dl73zh18fRdsJbtZA2oNp6MRTua2,Dl73zh18fRdsJbtZA2oNp6MRTua2,,,,,,,,,,,,,,,,,chosen stimuli: images/choice_trial_15.png,,,,,5ee5defbfe74a3000d106f51,09:05:19,27/02/2024
html-keyboard-response,179,384774,0.0-74.0-2.0,,,,delaylearn,learning,feedback_duration_window,Dl73zh18fRdsJbtZA2oNp6MRTua2,Dl73zh18fRdsJbtZA2oNp6MRTua2,,,,,,,,,,,,,,,,,,7000.0,,,,5ee5defbfe74a3000d106f51,09:05:19,27/02/2024
html-keyboard-response,180,386292,0.0-74.0-3.0,,<div style='margin:auto;width: auto; font-size: 150%'><span style='font-weight: bold; font-size: 100px; color: red;'>0 points!</span><br><br></div>,,delaylearn,learning,feedback_image_window,Dl73zh18fRdsJbtZA2oNp6MRTua2,Dl73zh18fRdsJbtZA2oNp6MRTua2,,,,,,,,,,,,,,,,,,,,,,5ee5defbfe74a3000d106f51,09:05:19,27/02/2024
html-keyboard-response,181,386806,0.0-75.0-0.0,,,,,,mood_trial_fixation,Dl73zh18fRdsJbtZA2oNp6MRTua2,,,,,,,,,,,,,,,,,,,,,,,5ee5defbfe74a3000d106f51,09:05:19,27/02/2024
lmdlab-html-vas-response,182,390341,0.0-75.0-1.0,2517.0,How happy are you right now?,0.529320987654321,delaylearn,learning,mood_trial,Dl73zh18fRdsJbtZA2oNp6MRTua2,Dl73zh18fRdsJbtZA2oNp6MRTua2,,,,,,,,,,,,,,,,,,,,"['Very unhappy', 'Very happy']",,5ee5defbfe74a3000d106f51,09:05:19,27/02/2024
html-keyboard-response,183,392703,0.0-76.0,,"<div style=""font-size:100px;"">+</div>",,delaylearn,learning,ITI,Dl73zh18fRdsJbtZA2oNp6MRTua2,Dl73zh18fRdsJbtZA2oNp6MRTua2,,,,,,,,,,,,,,,,,,,2358.0,,,5ee5defbfe74a3000d106f51,09:05:19,27/02/2024
html-keyboard-response,184,393421,0.0-77.0-0.0,713.8999999761581,"<div style=""display: flex; flex-direction: column; align-items: center; margin-top: -40px;""><img src=""images/pattern_6.png"" style=""width: 234px; height: 230px; margin-top: -50px;""><div style=""display: flex; justify-content: space-between; margin-top: 33px;""><img src=""images/choice_trial_14.png"" style=""width: 408px; height: 417px; margin-right: 200px;""><img src=""images/choice_trial_9.png"" style=""width: 408px; height: 417px;""></div></div>",f,delaylearn,learning,trial,Dl73zh18fRdsJbtZA2oNp6MRTua2,Dl73zh18fRdsJbtZA2oNp6MRTua2,5.0,images/choice_trial_14.png,images/choice_trial_9.png,images/pattern_6.png,j,f,750.0,14.0,9.0,5.0,0.0,33.0,1.0,0.0,14.0,120.0,,,,,,5ee5defbfe74a3000d106f51,09:05:19,27/02/2024
html-keyboard-response,185,394429,0.0-77.0-1.0,,"<div style=""display: flex; flex-direction: column; align-items: center; margin-top: -40px;""><img src=""images/pattern_6.png"" style=""width: 234px; height: 230px; margin-top: -50px;""><div style=""display: flex; justify-content: space-between; margin-top: 33px;""><img src=""images/choice_trial_14.png"" style=""width: 408px; height: 417px; margin-right: 608px;""></div></div>",,delaylearn,learning,display_response,Dl73zh18fRdsJbtZA2oNp6MRTua2,Dl73zh18fRdsJbtZA2oNp6MRTua2,,,,,,,,,,,,,,,,,chosen stimuli: images/choice_trial_14.png,,,,,5ee5defbfe74a3000d106f51,09:05:19,27/02/2024
html-keyboard-response,186,395185,0.0-77.0-2.0,,,,delaylearn,learning,feedback_duration_window,Dl73zh18fRdsJbtZA2oNp6MRTua2,Dl73zh18fRdsJbtZA2oNp6MRTua2,,,,,,,,,,,,,,,,,,750.0,,,,5ee5defbfe74a3000d106f51,09:05:19,27/02/2024
html-keyboard-response,187,396698,0.0-77.0-3.0,,<div style='margin:auto;width: auto; font-size: 150%'><span style='font-weight: bold; font-size: 100px; color: red;'>0 points!</span><br><br></div>,,delaylearn,learning,feedback_image_window,Dl73zh18fRdsJbtZA2oNp6MRTua2,Dl73zh18fRdsJbtZA2oNp6MRTua2,,,,,,,,,,,,,,,,,,,,,,5ee5defbfe74a3000d106f51,09:05:19,27/02/2024
html-keyboard-response,188,398432,0.0-78.0,,"<div style=""font-size:100px;"">+</div>",,delaylearn,learning,ITI,Dl73zh18fRdsJbtZA2oNp6MRTua2,Dl73zh18fRdsJbtZA2oNp6MRTua2,,,,,,,,,,,,,,,,,,,1730.0,,,5ee5defbfe74a3000d106f51,09:05:19,27/02/2024
html-keyboard-response,189,399677,0.0-79.0-0.0,1241.1000000238419,"<div style=""display: flex; flex-direction: column; align-items: center; margin-top: -40px;""><img src=""images/pattern_3.png"" style=""width: 234px; height: 230px; margin-top: -50px;""><div style=""display: flex; justify-content: space-between; margin-top: 33px;""><img src=""images/choice_trial_2.png"" style=""width: 408px; height: 417px; margin-right: 200px;""><img src=""images/choice_trial_16.png"" style=""width: 408px; height: 417px;""></div></div>",j,delaylearn,learning,trial,Dl73zh18fRdsJbtZA2oNp6MRTua2,Dl73zh18fRdsJbtZA2oNp6MRTua2,5.0,images/choice_trial_2.png,images/choice_trial_16.png,images/pattern_3.png,j,j,7000.0,2.0,16.0,2.0,1.0,34.0,1.0,1.0,16.0,130.0,,,,,,5ee5defbfe74a3000d106f51,09:05:19,27/02/2024
html-keyboard-response,190,400691,0.0-79.0-1.0,,"<div style=""display: flex; flex-direction: column; align-items: center; margin-top: -40px;""><img src=""images/pattern_3.png"" style=""width: 234px; height: 230px; margin-top: -50px;""><div style=""display: flex; justify-content: space-between; margin-top: 33px;""><img src=""images/choice_trial_16.png"" style=""width: 408px; height: 417px; margin-left:608px;""></div></div>",,delaylearn,learning,display_response,Dl73zh18fRdsJbtZA2oNp6MRTua2,Dl73zh18fRdsJbtZA2oNp6MRTua2,,,,,,,,,,,,,,,,,chosen stimuli: images/choice_trial_16.png,,,,,5ee5defbfe74a3000d106f51,09:05:19,27/02/2024
html-keyboard-response,191,407693,0.0-79.0-2.0,,,,delaylearn,learning,feedback_duration_window,Dl73zh18fRdsJbtZA2oNp6MRTua2,Dl73zh18fRdsJbtZA2oNp6MRTua2,,,,,,,,,,,,,,,,,,7000.0,,,,5ee5defbfe74a3000d106f51,09:05:19,27/02/2024
html-keyboard-response,192,409205,0.0-79.0-3.0,,<div style='margin:auto;width: auto; font-size: 150%'><span style='font-weight: bold; font-size: 100px; color: green;'>+10 points!</span><br><br></div>,,delaylearn,learning,feedback_image_window,Dl73zh18fRdsJbtZA2oNp6MRTua2,Dl73zh18fRdsJbtZA2oNp6MRTua2,,,,,,,,,,,,,,,,,,,,,,5ee5defbfe74a3000d106f51,09:05:19,27/02/2024
html-keyboard-response,193,410775,0.0-80.0,,"<div style=""font-size:100px;"">+</div>",,delaylearn,learning,ITI,Dl73zh18fRdsJbtZA2oNp6MRTua2,Dl73zh18fRdsJbtZA2oNp6MRTua2,,,,,,,,,,,,,,,,,,,1563.0,,,5ee5defbfe74a3000d106f51,09:05:19,27/02/2024
html-keyboard-response,194,411854,0.0-81.0-0.0,1078.0,"<div style=""display: flex; flex-direction: column; align-items: center; margin-top: -40px;""><img src=""images/pattern_4.png"" style=""width: 234px; height: 230px; margin-top: -50px;""><div style=""display: flex; justify-content: space-between; margin-top: 33px;""><img src=""images/choice_trial_4.png"" style=""width: 408px; height: 417px; margin-right: 200px;""><img src=""images/choice_trial_11.png"" style=""width: 408px; height: 417px;""></div></div>",f,delaylearn,learning,trial,Dl73zh18fRdsJbtZA2oNp6MRTua2,Dl73zh18fRdsJbtZA2oNp6MRTua2,5.0,images/choice_trial_4.png,images/choice_trial_11.png,images/pattern_4.png,f,j,7000.0,4.0,11.0,3.0,1.0,35.0,0.0,1.0,4.0,140.0,,,,,,5ee5defbfe74a3000d106f51,09:05:19,27/02/2024
html-keyboard-response,195,412858,0.0-81.0-1.0,,"<div style=""display: flex; flex-direction: column; align-items: center; margin-top: -40px;""><img src=""images/pattern_4.png"" style=""width: 234px; height: 230px; margin-top: -50px;""><div style=""display: flex; justify-content: space-between; margin-top: 33px;""><img src=""images/choice_trial_4.png"" style=""width: 408px; height: 417px; margin-right: 608px;""></div></div>",,delaylearn,learning,display_response,Dl73zh18fRdsJbtZA2oNp6MRTua2,Dl73zh18fRdsJbtZA2oNp6MRTua2,,,,,,,,,,,,,,,,,chosen stimuli: images/choice_trial_4.png,,,,,5ee5defbfe74a3000d106f51,09:05:19,27/02/2024
html-keyboard-response,196,419875,0.0-81.0-2.0,,,,delaylearn,learning,feedback_duration_window,Dl73zh18fRdsJbtZA2oNp6MRTua2,Dl73zh18fRdsJbtZA2oNp6MRTua2,,,,,,,,,,,,,,,,,,7000.0,,,,5ee5defbfe74a3000d106f51,09:05:19,27/02/2024
html-keyboard-response,197,421391,0.0-81.0-3.0,,<div style='margin:auto;width: auto; font-size: 150%'><span style='font-weight: bold; font-size: 100px; color: green;'>+10 points!</span><br><br></div>,,delaylearn,learning,feedback_image_window,Dl73zh18fRdsJbtZA2oNp6MRTua2,Dl73zh18fRdsJbtZA2oNp6MRTua2,,,,,,,,,,,,,,,,,,,,,,5ee5defbfe74a3000d106f51,09:05:19,27/02/2024
html-keyboard-response,198,423451,0.0-82.0,,"<div style=""font-size:100px;"">+</div>",,delaylearn,learning,ITI,Dl73zh18fRdsJbtZA2oNp6MRTua2,Dl73zh18fRdsJbtZA2oNp6MRTua2,,,,,,,,,,,,,,,,,,,2055.0,,,5ee5defbfe74a3000d106f51,09:05:19,27/02/2024
html-keyboard-response,199,424966,0.0-83.0-0.0,1510.6000000238419,"<div style=""display: flex; flex-direction: column; align-items: center; margin-top: -40px;""><img src=""images/pattern_7.png"" style=""width: 234px; height: 230px; margin-top: -50px;""><div style=""display: flex; justify-content: space-between; margin-top: 33px;""><img src=""images/choice_trial_8.png"" style=""width: 408px; height: 417px; margin-right: 200px;""><img src=""images/choice_trial_10.png"" style=""width: 408px; height: 417px;""></div></div>",f,delaylearn,learning,trial,Dl73zh18fRdsJbtZA2oNp6MRTua2,Dl73zh18fRdsJbtZA2oNp6MRTua2,5.0,images/choice_trial_8.png,images/choice_trial_10.png,images/pattern_7.png,f,f,750.0,8.0,10.0,6.0,0.0,36.0,1.0,1.0,8.0,150.0,,,,,,5ee5defbfe74a3000d106f51,09:05:19,27/02/2024
html-keyboard-response,200,425972,0.0-83.0-1.0,,"<div style=""display: flex; flex-direction: column; align-items: center; margin-top: -40px;""><img src=""images/pattern_7.png"" style=""width: 234px; height: 230px; margin-top: -50px;""><div style=""display: flex; justify-content: space-between; margin-top: 33px;""><img src=""images/choice_trial_8.png"" style=""width: 408px; height: 417px; margin-right: 608px;""></div></div>",,delaylearn,learning,display_response,Dl73zh18fRdsJbtZA2oNp6MRTua2,Dl73zh18fRdsJbtZA2oNp6MRTua2,,,,,,,,,,,,,,,,,chosen stimuli: images/choice_trial_8.png,,,,,5ee5defbfe74a3000d106f51,09:05:19,27/02/2024
html-keyboard-response,201,426732,0.0-83.0-2.0,,,,delaylearn,learning,feedback_duration_window,Dl73zh18fRdsJbtZA2oNp6MRTua2,Dl73zh18fRdsJbtZA2oNp6MRTua2,,,,,,,,,,,,,,,,,,750.0,,,,5ee5defbfe74a3000d106f51,09:05:19,27/02/2024
html-keyboard-response,202,428234,0.0-83.0-3.0,,<div style='margin:auto;width: auto; font-size: 150%'><span style='font-weight: bold; font-size: 100px; color: green;'>+10 points!</span><br><br></div>,,delaylearn,learning,feedback_image_window,Dl73zh18fRdsJbtZA2oNp6MRTua2,Dl73zh18fRdsJbtZA2oNp6MRTua2,,,,,,,,,,,,,,,,,,,,,,5ee5defbfe74a3000d106f51,09:05:19,27/02/2024
html-keyboard-response,203,430551,0.0-84.0,,"<div style=""font-size:100px;"">+</div>",,delaylearn,learning,ITI,Dl73zh18fRdsJbtZA2oNp6MRTua2,Dl73zh18fRdsJbtZA2oNp6MRTua2,,,,,,,,,,,,,,,,,,,2301.0,,,5ee5defbfe74a3000d106f51,09:05:19,27/02/2024
html-keyboard-response,204,431397,0.0-85.0-0.0,842.3999999761581,"<div style=""display: flex; flex-direction: column; align-items: center; margin-top: -40px;""><img src=""images/pattern_1.png"" style=""width: 234px; height: 230px; margin-top: -50px;""><div style=""display: flex; justify-content: space-between; margin-top: 33px;""><img src=""images/choice_trial_6.png"" style=""width: 408px; height: 417px; margin-right: 200px;""><img src=""images/choice_trial_15.png"" style=""width: 408px; height: 417px;""></div></div>",j,delaylearn,learning,trial,Dl73zh18fRdsJbtZA2oNp6MRTua2,Dl73zh18fRdsJbtZA2oNp6MRTua2,5.0,images/choice_trial_6.png,images/choice_trial_15.png,images/pattern_1.png,f,f,7000.0,6.0,15.0,1.0,0.0,37.0,0.0,0.0,15.0,150.0,,,,,,5ee5defbfe74a3000d106f51,09:05:19,27/02/2024
html-keyboard-response,205,432404,0.0-85.0-1.0,,"<div style=""display: flex; flex-direction: column; align-items: center; margin-top: -40px;""><img src=""images/pattern_1.png"" style=""width: 234px; height: 230px; margin-top: -50px;""><div style=""display: flex; justify-content: space-between; margin-top: 33px;""><img src=""images/choice_trial_15.png"" style=""width: 408px; height: 417px; margin-left:608px;""></div></div>",,delaylearn,learning,display_response,Dl73zh18fRdsJbtZA2oNp6MRTua2,Dl73zh18fRdsJbtZA2oNp6MRTua2,,,,,,,,,,,,,,,,,chosen stimuli: images/choice_trial_15.png,,,,,5ee5defbfe74a3000d106f51,09:05:19,27/02/2024
html-keyboard-response,206,439421,0.0-85.0-2.0,,,,delaylearn,learning,feedback_duration_window,Dl73zh18fRdsJbtZA2oNp6MRTua2,Dl73zh18fRdsJbtZA2oNp6MRTua2,,,,,,,,,,,,,,,,,,7000.0,,,,5ee5defbfe74a3000d106f51,09:05:19,27/02/2024
html-keyboard-response,207,440936,0.0-85.0-3.0,,<div style='margin:auto;width: auto; font-size: 150%'><span style='font-weight: bold; font-size: 100px; color: red;'>0 points!</span><br><br></div>,,delaylearn,learning,feedback_image_window,Dl73zh18fRdsJbtZA2oNp6MRTua2,Dl73zh18fRdsJbtZA2oNp6MRTua2,,,,,,,,,,,,,,,,,,,,,,5ee5defbfe74a3000d106f51,09:05:19,27/02/2024
html-keyboard-response,208,441451,0.0-86.0-0.0,,,,,,mood_trial_fixation,Dl73zh18fRdsJbtZA2oNp6MRTua2,,,,,,,,,,,,,,,,,,,,,,,5ee5defbfe74a3000d106f51,09:05:19,27/02/2024
lmdlab-html-vas-response,209,445142,0.0-86.0-1.0,2676.0,How happy are you right now?,0.7345679012345679,delaylearn,learning,mood_trial,Dl73zh18fRdsJbtZA2oNp6MRTua2,Dl73zh18fRdsJbtZA2oNp6MRTua2,,,,,,,,,,,,,,,,,,,,"['Very unhappy', 'Very happy']",,5ee5defbfe74a3000d106f51,09:05:19,27/02/2024
html-keyboard-response,210,447603,0.0-87.0,,"<div style=""font-size:100px;"">+</div>",,delaylearn,learning,ITI,Dl73zh18fRdsJbtZA2oNp6MRTua2,Dl73zh18fRdsJbtZA2oNp6MRTua2,,,,,,,,,,,,,,,,,,,2454.0,,,5ee5defbfe74a3000d106f51,09:05:19,27/02/2024
html-keyboard-response,211,450610,0.0-88.0-0.0,,"<div style=""display: flex; flex-direction: column; align-items: center; margin-top: -40px;""><img src=""images/pattern_3.png"" style=""width: 234px; height: 230px; margin-top: -50px;""><div style=""display: flex; justify-content: space-between; margin-top: 33px;""><img src=""images/choice_trial_16.png"" style=""width: 408px; height: 417px; margin-right: 200px;""><img src=""images/choice_trial_2.png"" style=""width: 408px; height: 417px;""></div></div>",,delaylearn,learning,trial,Dl73zh18fRdsJbtZA2oNp6MRTua2,Dl73zh18fRdsJbtZA2oNp6MRTua2,5.0,images/choice_trial_16.png,images/choice_trial_2.png,images/pattern_3.png,j,f,7000.0,16.0,2.0,2.0,0.0,38.0,0.0,0.0,0.0,150.0,,,,,,5ee5defbfe74a3000d106f51,09:05:19,27/02/2024
html-keyboard-response,212,451618,0.0-88.0-1.0,,<div style='font-weight: bold; font-size: 75px; color: red;'>Missed Trial <br><br><br><br> Please respond faster</div>,,delaylearn,learning,display_response,Dl73zh18fRdsJbtZA2oNp6MRTua2,Dl73zh18fRdsJbtZA2oNp6MRTua2,,,,,,,,,,,,,,,,,Missed trial,,,,,5ee5defbfe74a3000d106f51,09:05:19,27/02/2024
html-keyboard-response,213,451623,0.0-88.0-2.0,,,,delaylearn,learning,feedback_duration_window,Dl73zh18fRdsJbtZA2oNp6MRTua2,Dl73zh18fRdsJbtZA2oNp6MRTua2,,,,,,,,,,,,,,,,,,0.0,,,,5ee5defbfe74a3000d106f51,09:05:19,27/02/2024
html-keyboard-response,214,451628,0.0-88.0-3.0,,,,delaylearn,learning,feedback_image_window,Dl73zh18fRdsJbtZA2oNp6MRTua2,Dl73zh18fRdsJbtZA2oNp6MRTua2,,,,,,,,,,,,,,,,,,,,,,5ee5defbfe74a3000d106f51,09:05:19,27/02/2024
html-keyboard-response,215,453970,0.0-89.0,,"<div style=""font-size:100px;"">+</div>",,delaylearn,learning,ITI,Dl73zh18fRdsJbtZA2oNp6MRTua2,Dl73zh18fRdsJbtZA2oNp6MRTua2,,,,,,,,,,,,,,,,,,,2338.0,,,5ee5defbfe74a3000d106f51,09:05:19,27/02/2024
html-keyboard-response,216,454390,0.0-90.0-0.0,416.0,"<div style=""display: flex; flex-direction: column; align-items: center; margin-top: -40px;""><img src=""images/pattern_7.png"" style=""width: 234px; height: 230px; margin-top: -50px;""><div style=""display: flex; justify-content: space-between; margin-top: 33px;""><img src=""images/choice_trial_10.png"" style=""width: 408px; height: 417px; margin-right: 200px;""><img src=""images/choice_trial_8.png"" style=""width: 408px; height: 417px;""></div></div>",f,delaylearn,learning,trial,Dl73zh18fRdsJbtZA2oNp6MRTua2,Dl73zh18fRdsJbtZA2oNp6MRTua2,5.0,images/choice_trial_10.png,images/choice_trial_8.png,images/pattern_7.png,j,j,750.0,10.0,8.0,6.0,1.0,39.0,0.0,0.0,10.0,150.0,,,,,,5ee5defbfe74a3000d106f51,09:05:19,27/02/2024
html-keyboard-response,217,455396,0.0-90.0-1.0,,"<div style=""display: flex; flex-direction: column; align-items: center; margin-top: -40px;""><img src=""images/pattern_7.png"" style=""width: 234px; height: 230px; margin-top: -50px;""><div style=""display: flex; justify-content: space-between; margin-top: 33px;""><img src=""images/choice_trial_10.png"" style=""width: 408px; height: 417px; margin-right: 608px;""></div></div>",,delaylearn,learning,display_response,Dl73zh18fRdsJbtZA2oNp6MRTua2,Dl73zh18fRdsJbtZA2oNp6MRTua2,,,,,,,,,,,,,,,,,chosen stimuli: images/choice_trial_10.png,,,,,5ee5defbfe74a3000d106f51,09:05:19,27/02/2024
html-keyboard-response,218,456161,0.0-90.0-2.0,,,,delaylearn,learning,feedback_duration_window,Dl73zh18fRdsJbtZA2oNp6MRTua2,Dl73zh18fRdsJbtZA2oNp6MRTua2,,,,,,,,,,,,,,,,,,750.0,,,,5ee5defbfe74a3000d106f51,09:05:19,27/02/2024
html-keyboard-response,219,457674,0.0-90.0-3.0,,<div style='margin:auto;width: auto; font-size: 150%'><span style='font-weight: bold; font-size: 100px; color: red;'>0 points!</span><br><br></div>,,delaylearn,learning,feedback_image_window,Dl73zh18fRdsJbtZA2oNp6MRTua2,Dl73zh18fRdsJbtZA2oNp6MRTua2,,,,,,,,,,,,,,,,,,,,,,5ee5defbfe74a3000d106f51,09:05:19,27/02/2024
html-keyboard-response,220,459187,0.0-91.0,,"<div style=""font-size:100px;"">+</div>",,delaylearn,learning,ITI,Dl73zh18fRdsJbtZA2oNp6MRTua2,Dl73zh18fRdsJbtZA2oNp6MRTua2,,,,,,,,,,,,,,,,,,,1504.0,,,5ee5defbfe74a3000d106f51,09:05:19,27/02/2024
html-keyboard-response,221,460543,0.0-92.0-0.0,1351.6000000238419,"<div style=""display: flex; flex-direction: column; align-items: center; margin-top: -40px;""><img src=""images/pattern_5.png"" style=""width: 234px; height: 230px; margin-top: -50px;""><div style=""display: flex; justify-content: space-between; margin-top: 33px;""><img src=""images/choice_trial_13.png"" style=""width: 408px; height: 417px; margin-right: 200px;""><img src=""images/choice_trial_7.png"" style=""width: 408px; height: 417px;""></div></div>",j,delaylearn,learning,trial,Dl73zh18fRdsJbtZA2oNp6MRTua2,Dl73zh18fRdsJbtZA2oNp6MRTua2,5.0,images/choice_trial_13.png,images/choice_trial_7.png,images/pattern_5.png,j,j,750.0,13.0,7.0,4.0,1.0,40.0,1.0,1.0,7.0,160.0,,,,,,5ee5defbfe74a3000d106f51,09:05:19,27/02/2024
html-keyboard-response,222,461545,0.0-92.0-1.0,,"<div style=""display: flex; flex-direction: column; align-items: center; margin-top: -40px;""><img src=""images/pattern_5.png"" style=""width: 234px; height: 230px; margin-top: -50px;""><div style=""display: flex; justify-content: space-between; margin-top: 33px;""><img src=""images/choice_trial_7.png"" style=""width: 408px; height: 417px; margin-left:608px;""></div></div>",,delaylearn,learning,display_response,Dl73zh18fRdsJbtZA2oNp6MRTua2,Dl73zh18fRdsJbtZA2oNp6MRTua2,,,,,,,,,,,,,,,,,chosen stimuli: images/choice_trial_7.png,,,,,5ee5defbfe74a3000d106f51,09:05:19,27/02/2024
html-keyboard-response,223,462298,0.0-92.0-2.0,,,,delaylearn,learning,feedback_duration_window,Dl73zh18fRdsJbtZA2oNp6MRTua2,Dl73zh18fRdsJbtZA2oNp6MRTua2,,,,,,,,,,,,,,,,,,750.0,,,,5ee5defbfe74a3000d106f51,09:05:19,27/02/2024
html-keyboard-response,224,463811,0.0-92.0-3.0,,<div style='margin:auto;width: auto; font-size: 150%'><span style='font-weight: bold; font-size: 100px; color: green;'>+10 points!</span><br><br></div>,,delaylearn,learning,feedback_image_window,Dl73zh18fRdsJbtZA2oNp6MRTua2,Dl73zh18fRdsJbtZA2oNp6MRTua2,,,,,,,,,,,,,,,,,,,,,,5ee5defbfe74a3000d106f51,09:05:19,27/02/2024
html-keyboard-response,225,464313,0.0-93.0-0.0,,,,,,mood_trial_fixation,Dl73zh18fRdsJbtZA2oNp6MRTua2,,,,,,,,,,,,,,,,,,,,,,,5ee5defbfe74a3000d106f51,09:05:19,27/02/2024
lmdlab-html-vas-response,226,467622,0.0-93.0-1.0,2301.0,How happy are you right now?,0.5432098765432098,delaylearn,learning,mood_trial,Dl73zh18fRdsJbtZA2oNp6MRTua2,Dl73zh18fRdsJbtZA2oNp6MRTua2,,,,,,,,,,,,,,,,,,,,"['Very unhappy', 'Very happy']",,5ee5defbfe74a3000d106f51,09:05:19,27/02/2024
html-keyboard-response,227,469152,0.0-94.0,,"<div style=""font-size:100px;"">+</div>",,delaylearn,learning,ITI,Dl73zh18fRdsJbtZA2oNp6MRTua2,Dl73zh18fRdsJbtZA2oNp6MRTua2,,,,,,,,,,,,,,,,,,,1520.0,,,5ee5defbfe74a3000d106f51,09:05:19,27/02/2024
html-keyboard-response,228,469733,0.0-95.0-0.0,576.6000000238419,"<div style=""display: flex; flex-direction: column; align-items: center; margin-top: -40px;""><img src=""images/pattern_4.png"" style=""width: 234px; height: 230px; margin-top: -50px;""><div style=""display: flex; justify-content: space-between; margin-top: 33px;""><img src=""images/choice_trial_11.png"" style=""width: 408px; height: 417px; margin-right: 200px;""><img src=""images/choice_trial_4.png"" style=""width: 408px; height: 417px;""></div></div>",f,delaylearn,learning,trial,Dl73zh18fRdsJbtZA2oNp6MRTua2,Dl73zh18fRdsJbtZA2oNp6MRTua2,5.0,images/choice_trial_11.png,images/choice_trial_4.png,images/pattern_4.png,f,f,7000.0,11.0,4.0,3.0,0.0,41.0,1.0,1.0,11.0,170.0,,,,,,5ee5defbfe74a3000d106f51,09:05:19,27/02/2024
html-keyboard-response,229,470746,0.0-95.0-1.0,,"<div style=""display: flex; flex-direction: column; align-items: center; margin-top: -40px;""><img src=""images/pattern_4.png"" style=""width: 234px; height: 230px; margin-top: -50px;""><div style=""display: flex; justify-content: space-between; margin-top: 33px;""><img src=""images/choice_trial_11.png"" style=""width: 408px; height: 417px; margin-right: 608px;""></div></div>",,delaylearn,learning,display_response,Dl73zh18fRdsJbtZA2oNp6MRTua2,Dl73zh18fRdsJbtZA2oNp6MRTua2,,,,,,,,,,,,,,,,,chosen stimuli: images/choice_trial_11.png,,,,,5ee5defbfe74a3000d106f51,09:05:19,27/02/2024
html-keyboard-response,230,477763,0.0-95.0-2.0,,,,delaylearn,learning,feedback_duration_window,Dl73zh18fRdsJbtZA2oNp6MRTua2,Dl73zh18fRdsJbtZA2oNp6MRTua2,,,,,,,,,,,,,,,,,,7000.0,,,,5ee5defbfe74a3000d106f51,09:05:19,27/02/2024
html-keyboard-response,231,479266,0.0-95.0-3.0,,<div style='margin:auto;width: auto; font-size: 150%'><span style='font-weight: bold; font-size: 100px; color: green;'>+10 points!</span><br><br></div>,,delaylearn,learning,feedback_image_window,Dl73zh18fRdsJbtZA2oNp6MRTua2,Dl73zh18fRdsJbtZA2oNp6MRTua2,,,,,,,,,,,,,,,,,,,,,,5ee5defbfe74a3000d106f51,09:05:19,27/02/2024
html-keyboard-response,232,481144,0.0-96.0,,"<div style=""font-size:100px;"">+</div>",,delaylearn,learning,ITI,Dl73zh18fRdsJbtZA2oNp6MRTua2,Dl73zh18fRdsJbtZA2oNp6MRTua2,,,,,,,,,,,,,,,,,,,1863.0,,,5ee5defbfe74a3000d106f51,09:05:19,27/02/2024
