trial_type,trial_index,time_elapsed,internal_node_id,rt,stimulus,response,exp_name,exp_stage,test_part,subjectID,databaseID,counterbal,choice_stimuli_1,choice_stimuli_2,pattern_stimuli,rewarded_answer,correct_answer,feedback_duration_times,stim_left,stim_right,pair,leftright_counter,trial,response_correct,response_rewarded,chosen_stim,counter,displayed_choice,feedback_durations,ITI_duration,labels,rest_warning,prolificID,start_time,date
pavlovia,0,613,0.0-0.0,,,,,,,xemAxAXZ26VnlBlobgUxjViuD6s1,,,,,,,,,,,,,,,,,,,,,,,608b0f7f4699c09aa348c57f,16:47:59,27/03/2024
html-keyboard-response,1,3618,0.0-1.0,,"<div style=""font-size:100px;"">+</div>",,delaylearn,learning,pre_fixation,xemAxAXZ26VnlBlobgUxjViuD6s1,,,,,,,,,,,,,,,,,,,,,,,608b0f7f4699c09aa348c57f,16:47:59,27/03/2024
html-keyboard-response,2,4737,0.0-2.0-0.0,1111.2000007629395,"<div style=""display: flex; flex-direction: column; align-items: center; margin-top: -40px;""><img src=""images/demo_images/pattern_1.png"" style=""width: 234px; height: 230px; margin-top: -50px;""><div style=""display: flex; justify-content: space-between; margin-top: 33px;""><img src=""images/demo_images/choice_trial_2.png"" style=""width: 408px; height: 417px; margin-right: 200px;""><img src=""images/demo_images/choice_trial_1.png"" style=""width: 408px; height: 417px;""></div></div>",j,delaylearn,learning,trial,xemAxAXZ26VnlBlobgUxjViuD6s1,xemAxAXZ26VnlBlobgUxjViuD6s1,3.0,images/demo_images/choice_trial_2.png,images/demo_images/choice_trial_1.png,images/demo_images/pattern_1.png,j,j,3000.0,2.0,1.0,20.0,1.0,1.0,1.0,1.0,1.0,10.0,,,,,,608b0f7f4699c09aa348c57f,16:47:59,27/03/2024
html-keyboard-response,3,5751,0.0-2.0-1.0,,"<div style=""display: flex; flex-direction: column; align-items: center; margin-top: -40px;""><img src=""images/demo_images/pattern_1.png"" style=""width: 234px; height: 230px; margin-top: -50px;""><div style=""display: flex; justify-content: space-between; margin-top: 33px;""><img src=""images/demo_images/choice_trial_1.png"" style=""width: 408px; height: 417px; margin-left:608px;""></div></div>",,delaylearn,learning,display_response,xemAxAXZ26VnlBlobgUxjViuD6s1,xemAxAXZ26VnlBlobgUxjViuD6s1,,,,,,,,,,,,,,,,,chosen stimuli: images/demo_images/choice_trial_1.png,,,,,608b0f7f4699c09aa348c57f,16:47:59,27/03/2024
html-keyboard-response,4,8758,0.0-2.0-2.0,,,,delaylearn,learning,feedback_duration_window,xemAxAXZ26VnlBlobgUxjViuD6s1,xemAxAXZ26VnlBlobgUxjViuD6s1,,,,,,,,,,,,,,,,,,3000.0,,,,608b0f7f4699c09aa348c57f,16:47:59,27/03/2024
html-keyboard-response,5,10277,0.0-2.0-3.0,,<div style='margin:auto;width: auto; font-size: 150%'><span style='font-weight: bold; font-size: 100px; color: green;'>+10 points!</span><br><br></div>,,delaylearn,learning,feedback_image_window,xemAxAXZ26VnlBlobgUxjViuD6s1,xemAxAXZ26VnlBlobgUxjViuD6s1,,,,,,,,,,,,,,,,,,,,,,608b0f7f4699c09aa348c57f,16:47:59,27/03/2024
html-keyboard-response,6,12768,0.0-3.0,,"<div style=""font-size:100px;"">+</div>",,delaylearn,learning,ITI,xemAxAXZ26VnlBlobgUxjViuD6s1,xemAxAXZ26VnlBlobgUxjViuD6s1,,,,,,,,,,,,,,,,,,,2485.0,,,608b0f7f4699c09aa348c57f,16:47:59,27/03/2024
html-keyboard-response,7,14052,0.0-4.0-0.0,1273.7999992370605,"<div style=""display: flex; flex-direction: column; align-items: center; margin-top: -40px;""><img src=""images/demo_images/pattern_1.png"" style=""width: 234px; height: 230px; margin-top: -50px;""><div style=""display: flex; justify-content: space-between; margin-top: 33px;""><img src=""images/demo_images/choice_trial_2.png"" style=""width: 408px; height: 417px; margin-right: 200px;""><img src=""images/demo_images/choice_trial_1.png"" style=""width: 408px; height: 417px;""></div></div>",j,delaylearn,learning,trial,xemAxAXZ26VnlBlobgUxjViuD6s1,xemAxAXZ26VnlBlobgUxjViuD6s1,3.0,images/demo_images/choice_trial_2.png,images/demo_images/choice_trial_1.png,images/demo_images/pattern_1.png,j,j,3000.0,2.0,1.0,20.0,1.0,2.0,1.0,1.0,1.0,20.0,,,,,,608b0f7f4699c09aa348c57f,16:47:59,27/03/2024
html-keyboard-response,8,15068,0.0-4.0-1.0,,"<div style=""display: flex; flex-direction: column; align-items: center; margin-top: -40px;""><img src=""images/demo_images/pattern_1.png"" style=""width: 234px; height: 230px; margin-top: -50px;""><div style=""display: flex; justify-content: space-between; margin-top: 33px;""><img src=""images/demo_images/choice_trial_1.png"" style=""width: 408px; height: 417px; margin-left:608px;""></div></div>",,delaylearn,learning,display_response,xemAxAXZ26VnlBlobgUxjViuD6s1,xemAxAXZ26VnlBlobgUxjViuD6s1,,,,,,,,,,,,,,,,,chosen stimuli: images/demo_images/choice_trial_1.png,,,,,608b0f7f4699c09aa348c57f,16:47:59,27/03/2024
html-keyboard-response,9,18076,0.0-4.0-2.0,,,,delaylearn,learning,feedback_duration_window,xemAxAXZ26VnlBlobgUxjViuD6s1,xemAxAXZ26VnlBlobgUxjViuD6s1,,,,,,,,,,,,,,,,,,3000.0,,,,608b0f7f4699c09aa348c57f,16:47:59,27/03/2024
html-keyboard-response,10,19581,0.0-4.0-3.0,,<div style='margin:auto;width: auto; font-size: 150%'><span style='font-weight: bold; font-size: 100px; color: green;'>+10 points!</span><br><br></div>,,delaylearn,learning,feedback_image_window,xemAxAXZ26VnlBlobgUxjViuD6s1,xemAxAXZ26VnlBlobgUxjViuD6s1,,,,,,,,,,,,,,,,,,,,,,608b0f7f4699c09aa348c57f,16:47:59,27/03/2024
html-keyboard-response,11,22092,0.0-5.0,,"<div style=""font-size:100px;"">+</div>",,delaylearn,learning,ITI,xemAxAXZ26VnlBlobgUxjViuD6s1,xemAxAXZ26VnlBlobgUxjViuD6s1,,,,,,,,,,,,,,,,,,,2498.0,,,608b0f7f4699c09aa348c57f,16:47:59,27/03/2024
html-keyboard-response,12,22562,0.0-6.0-0.0,462.6000003814697,"<div style=""display: flex; flex-direction: column; align-items: center; margin-top: -40px;""><img src=""images/demo_images/pattern_1.png"" style=""width: 234px; height: 230px; margin-top: -50px;""><div style=""display: flex; justify-content: space-between; margin-top: 33px;""><img src=""images/demo_images/choice_trial_1.png"" style=""width: 408px; height: 417px; margin-right: 200px;""><img src=""images/demo_images/choice_trial_2.png"" style=""width: 408px; height: 417px;""></div></div>",f,delaylearn,learning,trial,xemAxAXZ26VnlBlobgUxjViuD6s1,xemAxAXZ26VnlBlobgUxjViuD6s1,3.0,images/demo_images/choice_trial_1.png,images/demo_images/choice_trial_2.png,images/demo_images/pattern_1.png,j,f,3000.0,1.0,2.0,20.0,0.0,3.0,1.0,0.0,1.0,20.0,,,,,,608b0f7f4699c09aa348c57f,16:47:59,27/03/2024
html-keyboard-response,13,23577,0.0-6.0-1.0,,"<div style=""display: flex; flex-direction: column; align-items: center; margin-top: -40px;""><img src=""images/demo_images/pattern_1.png"" style=""width: 234px; height: 230px; margin-top: -50px;""><div style=""display: flex; justify-content: space-between; margin-top: 33px;""><img src=""images/demo_images/choice_trial_1.png"" style=""width: 408px; height: 417px; margin-right: 608px;""></div></div>",,delaylearn,learning,display_response,xemAxAXZ26VnlBlobgUxjViuD6s1,xemAxAXZ26VnlBlobgUxjViuD6s1,,,,,,,,,,,,,,,,,chosen stimuli: images/demo_images/choice_trial_1.png,,,,,608b0f7f4699c09aa348c57f,16:47:59,27/03/2024
html-keyboard-response,14,26584,0.0-6.0-2.0,,,,delaylearn,learning,feedback_duration_window,xemAxAXZ26VnlBlobgUxjViuD6s1,xemAxAXZ26VnlBlobgUxjViuD6s1,,,,,,,,,,,,,,,,,,3000.0,,,,608b0f7f4699c09aa348c57f,16:47:59,27/03/2024
html-keyboard-response,15,28093,0.0-6.0-3.0,,<div style='margin:auto;width: auto; font-size: 150%'><span style='font-weight: bold; font-size: 100px; color: red;'>0 points!</span><br><br></div>,,delaylearn,learning,feedback_image_window,xemAxAXZ26VnlBlobgUxjViuD6s1,xemAxAXZ26VnlBlobgUxjViuD6s1,,,,,,,,,,,,,,,,,,,,,,608b0f7f4699c09aa348c57f,16:47:59,27/03/2024
html-keyboard-response,16,29766,0.0-7.0,,"<div style=""font-size:100px;"">+</div>",,delaylearn,learning,ITI,xemAxAXZ26VnlBlobgUxjViuD6s1,xemAxAXZ26VnlBlobgUxjViuD6s1,,,,,,,,,,,,,,,,,,,1657.0,,,608b0f7f4699c09aa348c57f,16:47:59,27/03/2024
html-keyboard-response,17,30734,0.0-8.0-0.0,961.7999992370605,"<div style=""display: flex; flex-direction: column; align-items: center; margin-top: -40px;""><img src=""images/demo_images/pattern_1.png"" style=""width: 234px; height: 230px; margin-top: -50px;""><div style=""display: flex; justify-content: space-between; margin-top: 33px;""><img src=""images/demo_images/choice_trial_1.png"" style=""width: 408px; height: 417px; margin-right: 200px;""><img src=""images/demo_images/choice_trial_2.png"" style=""width: 408px; height: 417px;""></div></div>",j,delaylearn,learning,trial,xemAxAXZ26VnlBlobgUxjViuD6s1,xemAxAXZ26VnlBlobgUxjViuD6s1,3.0,images/demo_images/choice_trial_1.png,images/demo_images/choice_trial_2.png,images/demo_images/pattern_1.png,f,f,3000.0,1.0,2.0,20.0,0.0,4.0,0.0,0.0,2.0,20.0,,,,,,608b0f7f4699c09aa348c57f,16:47:59,27/03/2024
html-keyboard-response,18,31752,0.0-8.0-1.0,,"<div style=""display: flex; flex-direction: column; align-items: center; margin-top: -40px;""><img src=""images/demo_images/pattern_1.png"" style=""width: 234px; height: 230px; margin-top: -50px;""><div style=""display: flex; justify-content: space-between; margin-top: 33px;""><img src=""images/demo_images/choice_trial_2.png"" style=""width: 408px; height: 417px; margin-left:608px;""></div></div>",,delaylearn,learning,display_response,xemAxAXZ26VnlBlobgUxjViuD6s1,xemAxAXZ26VnlBlobgUxjViuD6s1,,,,,,,,,,,,,,,,,chosen stimuli: images/demo_images/choice_trial_2.png,,,,,608b0f7f4699c09aa348c57f,16:47:59,27/03/2024
html-keyboard-response,19,34759,0.0-8.0-2.0,,,,delaylearn,learning,feedback_duration_window,xemAxAXZ26VnlBlobgUxjViuD6s1,xemAxAXZ26VnlBlobgUxjViuD6s1,,,,,,,,,,,,,,,,,,3000.0,,,,608b0f7f4699c09aa348c57f,16:47:59,27/03/2024
html-keyboard-response,20,36269,0.0-8.0-3.0,,<div style='margin:auto;width: auto; font-size: 150%'><span style='font-weight: bold; font-size: 100px; color: red;'>0 points!</span><br><br></div>,,delaylearn,learning,feedback_image_window,xemAxAXZ26VnlBlobgUxjViuD6s1,xemAxAXZ26VnlBlobgUxjViuD6s1,,,,,,,,,,,,,,,,,,,,,,608b0f7f4699c09aa348c57f,16:47:59,27/03/2024
html-keyboard-response,21,36785,0.0-9.0-0.0,,,,,,mood_trial_fixation,xemAxAXZ26VnlBlobgUxjViuD6s1,,,,,,,,,,,,,,,,,,,,,,,608b0f7f4699c09aa348c57f,16:47:59,27/03/2024
lmdlab-html-vas-response,22,43956,0.0-9.0-1.0,6108.0,How happy are you right now?,0.4722222222222222,delaylearn,learning,mood_trial,xemAxAXZ26VnlBlobgUxjViuD6s1,xemAxAXZ26VnlBlobgUxjViuD6s1,,,,,,,,,,,,,,,,,,,,"['Very unhappy', 'Very happy']",,608b0f7f4699c09aa348c57f,16:47:59,27/03/2024
html-keyboard-response,23,46410,0.0-10.0,,"<div style=""font-size:100px;"">+</div>",,delaylearn,learning,ITI,xemAxAXZ26VnlBlobgUxjViuD6s1,xemAxAXZ26VnlBlobgUxjViuD6s1,,,,,,,,,,,,,,,,,,,2445.0,,,608b0f7f4699c09aa348c57f,16:47:59,27/03/2024
html-keyboard-response,24,47337,0.0-11.0-0.0,920.5,"<div style=""display: flex; flex-direction: column; align-items: center; margin-top: -40px;""><img src=""images/demo_images/pattern_1.png"" style=""width: 234px; height: 230px; margin-top: -50px;""><div style=""display: flex; justify-content: space-between; margin-top: 33px;""><img src=""images/demo_images/choice_trial_2.png"" style=""width: 408px; height: 417px; margin-right: 200px;""><img src=""images/demo_images/choice_trial_1.png"" style=""width: 408px; height: 417px;""></div></div>",j,delaylearn,learning,trial,xemAxAXZ26VnlBlobgUxjViuD6s1,xemAxAXZ26VnlBlobgUxjViuD6s1,3.0,images/demo_images/choice_trial_2.png,images/demo_images/choice_trial_1.png,images/demo_images/pattern_1.png,j,j,3000.0,2.0,1.0,20.0,1.0,5.0,1.0,1.0,1.0,30.0,,,,,,608b0f7f4699c09aa348c57f,16:47:59,27/03/2024
html-keyboard-response,25,48351,0.0-11.0-1.0,,"<div style=""display: flex; flex-direction: column; align-items: center; margin-top: -40px;""><img src=""images/demo_images/pattern_1.png"" style=""width: 234px; height: 230px; margin-top: -50px;""><div style=""display: flex; justify-content: space-between; margin-top: 33px;""><img src=""images/demo_images/choice_trial_1.png"" style=""width: 408px; height: 417px; margin-left:608px;""></div></div>",,delaylearn,learning,display_response,xemAxAXZ26VnlBlobgUxjViuD6s1,xemAxAXZ26VnlBlobgUxjViuD6s1,,,,,,,,,,,,,,,,,chosen stimuli: images/demo_images/choice_trial_1.png,,,,,608b0f7f4699c09aa348c57f,16:47:59,27/03/2024
html-keyboard-response,26,51366,0.0-11.0-2.0,,,,delaylearn,learning,feedback_duration_window,xemAxAXZ26VnlBlobgUxjViuD6s1,xemAxAXZ26VnlBlobgUxjViuD6s1,,,,,,,,,,,,,,,,,,3000.0,,,,608b0f7f4699c09aa348c57f,16:47:59,27/03/2024
html-keyboard-response,27,52884,0.0-11.0-3.0,,<div style='margin:auto;width: auto; font-size: 150%'><span style='font-weight: bold; font-size: 100px; color: green;'>+10 points!</span><br><br></div>,,delaylearn,learning,feedback_image_window,xemAxAXZ26VnlBlobgUxjViuD6s1,xemAxAXZ26VnlBlobgUxjViuD6s1,,,,,,,,,,,,,,,,,,,,,,608b0f7f4699c09aa348c57f,16:47:59,27/03/2024
html-keyboard-response,28,54402,0.0-12.0,,"<div style=""font-size:100px;"">+</div>",,delaylearn,learning,ITI,xemAxAXZ26VnlBlobgUxjViuD6s1,xemAxAXZ26VnlBlobgUxjViuD6s1,,,,,,,,,,,,,,,,,,,1510.0,,,608b0f7f4699c09aa348c57f,16:47:59,27/03/2024
html-keyboard-response,29,55485,0.0-13.0-0.0,1075.2000007629395,"<div style=""display: flex; flex-direction: column; align-items: center; margin-top: -40px;""><img src=""images/demo_images/pattern_1.png"" style=""width: 234px; height: 230px; margin-top: -50px;""><div style=""display: flex; justify-content: space-between; margin-top: 33px;""><img src=""images/demo_images/choice_trial_1.png"" style=""width: 408px; height: 417px; margin-right: 200px;""><img src=""images/demo_images/choice_trial_2.png"" style=""width: 408px; height: 417px;""></div></div>",f,delaylearn,learning,trial,xemAxAXZ26VnlBlobgUxjViuD6s1,xemAxAXZ26VnlBlobgUxjViuD6s1,3.0,images/demo_images/choice_trial_1.png,images/demo_images/choice_trial_2.png,images/demo_images/pattern_1.png,f,f,3000.0,1.0,2.0,20.0,0.0,6.0,1.0,1.0,1.0,40.0,,,,,,608b0f7f4699c09aa348c57f,16:47:59,27/03/2024
html-keyboard-response,30,56500,0.0-13.0-1.0,,"<div style=""display: flex; flex-direction: column; align-items: center; margin-top: -40px;""><img src=""images/demo_images/pattern_1.png"" style=""width: 234px; height: 230px; margin-top: -50px;""><div style=""display: flex; justify-content: space-between; margin-top: 33px;""><img src=""images/demo_images/choice_trial_1.png"" style=""width: 408px; height: 417px; margin-right: 608px;""></div></div>",,delaylearn,learning,display_response,xemAxAXZ26VnlBlobgUxjViuD6s1,xemAxAXZ26VnlBlobgUxjViuD6s1,,,,,,,,,,,,,,,,,chosen stimuli: images/demo_images/choice_trial_1.png,,,,,608b0f7f4699c09aa348c57f,16:47:59,27/03/2024
html-keyboard-response,31,59509,0.0-13.0-2.0,,,,delaylearn,learning,feedback_duration_window,xemAxAXZ26VnlBlobgUxjViuD6s1,xemAxAXZ26VnlBlobgUxjViuD6s1,,,,,,,,,,,,,,,,,,3000.0,,,,608b0f7f4699c09aa348c57f,16:47:59,27/03/2024
html-keyboard-response,32,61018,0.0-13.0-3.0,,<div style='margin:auto;width: auto; font-size: 150%'><span style='font-weight: bold; font-size: 100px; color: green;'>+10 points!</span><br><br></div>,,delaylearn,learning,feedback_image_window,xemAxAXZ26VnlBlobgUxjViuD6s1,xemAxAXZ26VnlBlobgUxjViuD6s1,,,,,,,,,,,,,,,,,,,,,,608b0f7f4699c09aa348c57f,16:47:59,27/03/2024
html-keyboard-response,33,62542,0.0-14.0,,"<div style=""font-size:100px;"">+</div>",,delaylearn,learning,ITI,xemAxAXZ26VnlBlobgUxjViuD6s1,xemAxAXZ26VnlBlobgUxjViuD6s1,,,,,,,,,,,,,,,,,,,1517.0,,,608b0f7f4699c09aa348c57f,16:47:59,27/03/2024
html-keyboard-response,34,63193,0.0-15.0-0.0,641.2000007629395,"<div style=""display: flex; flex-direction: column; align-items: center; margin-top: -40px;""><img src=""images/demo_images/pattern_1.png"" style=""width: 234px; height: 230px; margin-top: -50px;""><div style=""display: flex; justify-content: space-between; margin-top: 33px;""><img src=""images/demo_images/choice_trial_2.png"" style=""width: 408px; height: 417px; margin-right: 200px;""><img src=""images/demo_images/choice_trial_1.png"" style=""width: 408px; height: 417px;""></div></div>",j,delaylearn,learning,trial,xemAxAXZ26VnlBlobgUxjViuD6s1,xemAxAXZ26VnlBlobgUxjViuD6s1,3.0,images/demo_images/choice_trial_2.png,images/demo_images/choice_trial_1.png,images/demo_images/pattern_1.png,j,j,3000.0,2.0,1.0,20.0,1.0,7.0,1.0,1.0,1.0,50.0,,,,,,608b0f7f4699c09aa348c57f,16:47:59,27/03/2024
html-keyboard-response,35,64210,0.0-15.0-1.0,,"<div style=""display: flex; flex-direction: column; align-items: center; margin-top: -40px;""><img src=""images/demo_images/pattern_1.png"" style=""width: 234px; height: 230px; margin-top: -50px;""><div style=""display: flex; justify-content: space-between; margin-top: 33px;""><img src=""images/demo_images/choice_trial_1.png"" style=""width: 408px; height: 417px; margin-left:608px;""></div></div>",,delaylearn,learning,display_response,xemAxAXZ26VnlBlobgUxjViuD6s1,xemAxAXZ26VnlBlobgUxjViuD6s1,,,,,,,,,,,,,,,,,chosen stimuli: images/demo_images/choice_trial_1.png,,,,,608b0f7f4699c09aa348c57f,16:47:59,27/03/2024
html-keyboard-response,36,67226,0.0-15.0-2.0,,,,delaylearn,learning,feedback_duration_window,xemAxAXZ26VnlBlobgUxjViuD6s1,xemAxAXZ26VnlBlobgUxjViuD6s1,,,,,,,,,,,,,,,,,,3000.0,,,,608b0f7f4699c09aa348c57f,16:47:59,27/03/2024
html-keyboard-response,37,68743,0.0-15.0-3.0,,<div style='margin:auto;width: auto; font-size: 150%'><span style='font-weight: bold; font-size: 100px; color: green;'>+10 points!</span><br><br></div>,,delaylearn,learning,feedback_image_window,xemAxAXZ26VnlBlobgUxjViuD6s1,xemAxAXZ26VnlBlobgUxjViuD6s1,,,,,,,,,,,,,,,,,,,,,,608b0f7f4699c09aa348c57f,16:47:59,27/03/2024
html-keyboard-response,38,70682,0.0-16.0,,"<div style=""font-size:100px;"">+</div>",,delaylearn,learning,ITI,xemAxAXZ26VnlBlobgUxjViuD6s1,xemAxAXZ26VnlBlobgUxjViuD6s1,,,,,,,,,,,,,,,,,,,1920.0,,,608b0f7f4699c09aa348c57f,16:47:59,27/03/2024
html-keyboard-response,39,71421,0.0-17.0-0.0,731.8999996185303,"<div style=""display: flex; flex-direction: column; align-items: center; margin-top: -40px;""><img src=""images/demo_images/pattern_1.png"" style=""width: 234px; height: 230px; margin-top: -50px;""><div style=""display: flex; justify-content: space-between; margin-top: 33px;""><img src=""images/demo_images/choice_trial_1.png"" style=""width: 408px; height: 417px; margin-right: 200px;""><img src=""images/demo_images/choice_trial_2.png"" style=""width: 408px; height: 417px;""></div></div>",f,delaylearn,learning,trial,xemAxAXZ26VnlBlobgUxjViuD6s1,xemAxAXZ26VnlBlobgUxjViuD6s1,3.0,images/demo_images/choice_trial_1.png,images/demo_images/choice_trial_2.png,images/demo_images/pattern_1.png,f,f,3000.0,1.0,2.0,20.0,0.0,8.0,1.0,1.0,1.0,60.0,,,,,,608b0f7f4699c09aa348c57f,16:47:59,27/03/2024
html-keyboard-response,40,72436,0.0-17.0-1.0,,"<div style=""display: flex; flex-direction: column; align-items: center; margin-top: -40px;""><img src=""images/demo_images/pattern_1.png"" style=""width: 234px; height: 230px; margin-top: -50px;""><div style=""display: flex; justify-content: space-between; margin-top: 33px;""><img src=""images/demo_images/choice_trial_1.png"" style=""width: 408px; height: 417px; margin-right: 608px;""></div></div>",,delaylearn,learning,display_response,xemAxAXZ26VnlBlobgUxjViuD6s1,xemAxAXZ26VnlBlobgUxjViuD6s1,,,,,,,,,,,,,,,,,chosen stimuli: images/demo_images/choice_trial_1.png,,,,,608b0f7f4699c09aa348c57f,16:47:59,27/03/2024
html-keyboard-response,41,75443,0.0-17.0-2.0,,,,delaylearn,learning,feedback_duration_window,xemAxAXZ26VnlBlobgUxjViuD6s1,xemAxAXZ26VnlBlobgUxjViuD6s1,,,,,,,,,,,,,,,,,,3000.0,,,,608b0f7f4699c09aa348c57f,16:47:59,27/03/2024
html-keyboard-response,42,76960,0.0-17.0-3.0,,<div style='margin:auto;width: auto; font-size: 150%'><span style='font-weight: bold; font-size: 100px; color: green;'>+10 points!</span><br><br></div>,,delaylearn,learning,feedback_image_window,xemAxAXZ26VnlBlobgUxjViuD6s1,xemAxAXZ26VnlBlobgUxjViuD6s1,,,,,,,,,,,,,,,,,,,,,,608b0f7f4699c09aa348c57f,16:47:59,27/03/2024
html-button-response,43,80445,0.0-18.0,3478.3999996185303,"
  <div style=""display: flex; align-items: center; justify-content: center; height: 80vh;"">
  <div>
          <img src=""images/inst_demo_finish.png"" style=""width: 80vw; height:auto;"">
          <br><br>
      </div>
      <br><br>
  </div>",0,,,,xemAxAXZ26VnlBlobgUxjViuD6s1,,,,,,,,,,,,,,,,,,,,,,,608b0f7f4699c09aa348c57f,16:47:59,27/03/2024
html-keyboard-response,44,89318,0.0-19.0,8869.89999961853,"
  <div style=""display: flex; align-items: center; justify-content: center; height: 80vh;"">
  <div>
          <img src=""images/inst_6.png"" style=""width: 80vw; height:auto;"">
          <br><br>
      </div>
      <br><br>
  </div>",j,,,,xemAxAXZ26VnlBlobgUxjViuD6s1,,,,,,,,,,,,,,,,,,,,,,,608b0f7f4699c09aa348c57f,16:47:59,27/03/2024
html-keyboard-response,45,92331,0.0-20.0,,"<div style=""font-size:100px;"">+</div>",,delaylearn,learning,pre_fixation,xemAxAXZ26VnlBlobgUxjViuD6s1,,,,,,,,,,,,,,,,,,,,,,,608b0f7f4699c09aa348c57f,16:47:59,27/03/2024
html-keyboard-response,46,94692,0.0-21.0,,"<div style=""font-size:100px;"">+</div>",,delaylearn,learning,ITI,xemAxAXZ26VnlBlobgUxjViuD6s1,xemAxAXZ26VnlBlobgUxjViuD6s1,,,,,,,,,,,,,,,,,,,2342.0,,,608b0f7f4699c09aa348c57f,16:47:59,27/03/2024
html-keyboard-response,47,95731,0.0-22.0-0.0,1032.1999988555908,"<div style=""display: flex; flex-direction: column; align-items: center; margin-top: -40px;""><img src=""images/pattern_3.png"" style=""width: 234px; height: 230px; margin-top: -50px;""><div style=""display: flex; justify-content: space-between; margin-top: 33px;""><img src=""images/choice_trial_13.png"" style=""width: 408px; height: 417px; margin-right: 200px;""><img src=""images/choice_trial_10.png"" style=""width: 408px; height: 417px;""></div></div>",j,delaylearn,learning,trial,xemAxAXZ26VnlBlobgUxjViuD6s1,xemAxAXZ26VnlBlobgUxjViuD6s1,3.0,images/choice_trial_13.png,images/choice_trial_10.png,images/pattern_3.png,f,f,7000.0,13.0,10.0,2.0,0.0,9.0,0.0,0.0,10.0,60.0,,,,,,608b0f7f4699c09aa348c57f,16:47:59,27/03/2024
html-keyboard-response,48,96739,0.0-22.0-1.0,,"<div style=""display: flex; flex-direction: column; align-items: center; margin-top: -40px;""><img src=""images/pattern_3.png"" style=""width: 234px; height: 230px; margin-top: -50px;""><div style=""display: flex; justify-content: space-between; margin-top: 33px;""><img src=""images/choice_trial_10.png"" style=""width: 408px; height: 417px; margin-left:608px;""></div></div>",,delaylearn,learning,display_response,xemAxAXZ26VnlBlobgUxjViuD6s1,xemAxAXZ26VnlBlobgUxjViuD6s1,,,,,,,,,,,,,,,,,chosen stimuli: images/choice_trial_10.png,,,,,608b0f7f4699c09aa348c57f,16:47:59,27/03/2024
html-keyboard-response,49,103746,0.0-22.0-2.0,,,,delaylearn,learning,feedback_duration_window,xemAxAXZ26VnlBlobgUxjViuD6s1,xemAxAXZ26VnlBlobgUxjViuD6s1,,,,,,,,,,,,,,,,,,7000.0,,,,608b0f7f4699c09aa348c57f,16:47:59,27/03/2024
html-keyboard-response,50,105257,0.0-22.0-3.0,,<div style='margin:auto;width: auto; font-size: 150%'><span style='font-weight: bold; font-size: 100px; color: red;'>0 points!</span><br><br></div>,,delaylearn,learning,feedback_image_window,xemAxAXZ26VnlBlobgUxjViuD6s1,xemAxAXZ26VnlBlobgUxjViuD6s1,,,,,,,,,,,,,,,,,,,,,,608b0f7f4699c09aa348c57f,16:47:59,27/03/2024
html-keyboard-response,51,107359,0.0-23.0,,"<div style=""font-size:100px;"">+</div>",,delaylearn,learning,ITI,xemAxAXZ26VnlBlobgUxjViuD6s1,xemAxAXZ26VnlBlobgUxjViuD6s1,,,,,,,,,,,,,,,,,,,2087.0,,,608b0f7f4699c09aa348c57f,16:47:59,27/03/2024
html-keyboard-response,52,108710,0.0-24.0-0.0,1344.6000003814697,"<div style=""display: flex; flex-direction: column; align-items: center; margin-top: -40px;""><img src=""images/pattern_7.png"" style=""width: 234px; height: 230px; margin-top: -50px;""><div style=""display: flex; justify-content: space-between; margin-top: 33px;""><img src=""images/choice_trial_12.png"" style=""width: 408px; height: 417px; margin-right: 200px;""><img src=""images/choice_trial_6.png"" style=""width: 408px; height: 417px;""></div></div>",j,delaylearn,learning,trial,xemAxAXZ26VnlBlobgUxjViuD6s1,xemAxAXZ26VnlBlobgUxjViuD6s1,3.0,images/choice_trial_12.png,images/choice_trial_6.png,images/pattern_7.png,j,j,750.0,12.0,6.0,6.0,1.0,10.0,1.0,1.0,6.0,70.0,,,,,,608b0f7f4699c09aa348c57f,16:47:59,27/03/2024
html-keyboard-response,53,109731,0.0-24.0-1.0,,"<div style=""display: flex; flex-direction: column; align-items: center; margin-top: -40px;""><img src=""images/pattern_7.png"" style=""width: 234px; height: 230px; margin-top: -50px;""><div style=""display: flex; justify-content: space-between; margin-top: 33px;""><img src=""images/choice_trial_6.png"" style=""width: 408px; height: 417px; margin-left:608px;""></div></div>",,delaylearn,learning,display_response,xemAxAXZ26VnlBlobgUxjViuD6s1,xemAxAXZ26VnlBlobgUxjViuD6s1,,,,,,,,,,,,,,,,,chosen stimuli: images/choice_trial_6.png,,,,,608b0f7f4699c09aa348c57f,16:47:59,27/03/2024
html-keyboard-response,54,110490,0.0-24.0-2.0,,,,delaylearn,learning,feedback_duration_window,xemAxAXZ26VnlBlobgUxjViuD6s1,xemAxAXZ26VnlBlobgUxjViuD6s1,,,,,,,,,,,,,,,,,,750.0,,,,608b0f7f4699c09aa348c57f,16:47:59,27/03/2024
html-keyboard-response,55,112000,0.0-24.0-3.0,,<div style='margin:auto;width: auto; font-size: 150%'><span style='font-weight: bold; font-size: 100px; color: green;'>+10 points!</span><br><br></div>,,delaylearn,learning,feedback_image_window,xemAxAXZ26VnlBlobgUxjViuD6s1,xemAxAXZ26VnlBlobgUxjViuD6s1,,,,,,,,,,,,,,,,,,,,,,608b0f7f4699c09aa348c57f,16:47:59,27/03/2024
html-keyboard-response,56,113750,0.0-25.0,,"<div style=""font-size:100px;"">+</div>",,delaylearn,learning,ITI,xemAxAXZ26VnlBlobgUxjViuD6s1,xemAxAXZ26VnlBlobgUxjViuD6s1,,,,,,,,,,,,,,,,,,,1741.0,,,608b0f7f4699c09aa348c57f,16:47:59,27/03/2024
html-keyboard-response,57,115222,0.0-26.0-0.0,1465.5,"<div style=""display: flex; flex-direction: column; align-items: center; margin-top: -40px;""><img src=""images/pattern_4.png"" style=""width: 234px; height: 230px; margin-top: -50px;""><div style=""display: flex; justify-content: space-between; margin-top: 33px;""><img src=""images/choice_trial_15.png"" style=""width: 408px; height: 417px; margin-right: 200px;""><img src=""images/choice_trial_9.png"" style=""width: 408px; height: 417px;""></div></div>",j,delaylearn,learning,trial,xemAxAXZ26VnlBlobgUxjViuD6s1,xemAxAXZ26VnlBlobgUxjViuD6s1,3.0,images/choice_trial_15.png,images/choice_trial_9.png,images/pattern_4.png,f,f,7000.0,15.0,9.0,3.0,0.0,11.0,0.0,0.0,9.0,70.0,,,,,,608b0f7f4699c09aa348c57f,16:47:59,27/03/2024
html-keyboard-response,58,116233,0.0-26.0-1.0,,"<div style=""display: flex; flex-direction: column; align-items: center; margin-top: -40px;""><img src=""images/pattern_4.png"" style=""width: 234px; height: 230px; margin-top: -50px;""><div style=""display: flex; justify-content: space-between; margin-top: 33px;""><img src=""images/choice_trial_9.png"" style=""width: 408px; height: 417px; margin-left:608px;""></div></div>",,delaylearn,learning,display_response,xemAxAXZ26VnlBlobgUxjViuD6s1,xemAxAXZ26VnlBlobgUxjViuD6s1,,,,,,,,,,,,,,,,,chosen stimuli: images/choice_trial_9.png,,,,,608b0f7f4699c09aa348c57f,16:47:59,27/03/2024
html-keyboard-response,59,123246,0.0-26.0-2.0,,,,delaylearn,learning,feedback_duration_window,xemAxAXZ26VnlBlobgUxjViuD6s1,xemAxAXZ26VnlBlobgUxjViuD6s1,,,,,,,,,,,,,,,,,,7000.0,,,,608b0f7f4699c09aa348c57f,16:47:59,27/03/2024
html-keyboard-response,60,124766,0.0-26.0-3.0,,<div style='margin:auto;width: auto; font-size: 150%'><span style='font-weight: bold; font-size: 100px; color: red;'>0 points!</span><br><br></div>,,delaylearn,learning,feedback_image_window,xemAxAXZ26VnlBlobgUxjViuD6s1,xemAxAXZ26VnlBlobgUxjViuD6s1,,,,,,,,,,,,,,,,,,,,,,608b0f7f4699c09aa348c57f,16:47:59,27/03/2024
html-keyboard-response,61,127031,0.0-27.0,,"<div style=""font-size:100px;"">+</div>",,delaylearn,learning,ITI,xemAxAXZ26VnlBlobgUxjViuD6s1,xemAxAXZ26VnlBlobgUxjViuD6s1,,,,,,,,,,,,,,,,,,,2254.0,,,608b0f7f4699c09aa348c57f,16:47:59,27/03/2024
html-keyboard-response,62,128093,0.0-28.0-0.0,1053.7999992370605,"<div style=""display: flex; flex-direction: column; align-items: center; margin-top: -40px;""><img src=""images/pattern_5.png"" style=""width: 234px; height: 230px; margin-top: -50px;""><div style=""display: flex; justify-content: space-between; margin-top: 33px;""><img src=""images/choice_trial_2.png"" style=""width: 408px; height: 417px; margin-right: 200px;""><img src=""images/choice_trial_11.png"" style=""width: 408px; height: 417px;""></div></div>",f,delaylearn,learning,trial,xemAxAXZ26VnlBlobgUxjViuD6s1,xemAxAXZ26VnlBlobgUxjViuD6s1,3.0,images/choice_trial_2.png,images/choice_trial_11.png,images/pattern_5.png,j,j,750.0,2.0,11.0,4.0,1.0,12.0,0.0,0.0,2.0,70.0,,,,,,608b0f7f4699c09aa348c57f,16:47:59,27/03/2024
html-keyboard-response,63,129100,0.0-28.0-1.0,,"<div style=""display: flex; flex-direction: column; align-items: center; margin-top: -40px;""><img src=""images/pattern_5.png"" style=""width: 234px; height: 230px; margin-top: -50px;""><div style=""display: flex; justify-content: space-between; margin-top: 33px;""><img src=""images/choice_trial_2.png"" style=""width: 408px; height: 417px; margin-right: 608px;""></div></div>",,delaylearn,learning,display_response,xemAxAXZ26VnlBlobgUxjViuD6s1,xemAxAXZ26VnlBlobgUxjViuD6s1,,,,,,,,,,,,,,,,,chosen stimuli: images/choice_trial_2.png,,,,,608b0f7f4699c09aa348c57f,16:47:59,27/03/2024
html-keyboard-response,64,129857,0.0-28.0-2.0,,,,delaylearn,learning,feedback_duration_window,xemAxAXZ26VnlBlobgUxjViuD6s1,xemAxAXZ26VnlBlobgUxjViuD6s1,,,,,,,,,,,,,,,,,,750.0,,,,608b0f7f4699c09aa348c57f,16:47:59,27/03/2024
html-keyboard-response,65,131366,0.0-28.0-3.0,,<div style='margin:auto;width: auto; font-size: 150%'><span style='font-weight: bold; font-size: 100px; color: red;'>0 points!</span><br><br></div>,,delaylearn,learning,feedback_image_window,xemAxAXZ26VnlBlobgUxjViuD6s1,xemAxAXZ26VnlBlobgUxjViuD6s1,,,,,,,,,,,,,,,,,,,,,,608b0f7f4699c09aa348c57f,16:47:59,27/03/2024
html-keyboard-response,66,133647,0.0-29.0,,"<div style=""font-size:100px;"">+</div>",,delaylearn,learning,ITI,xemAxAXZ26VnlBlobgUxjViuD6s1,xemAxAXZ26VnlBlobgUxjViuD6s1,,,,,,,,,,,,,,,,,,,2277.0,,,608b0f7f4699c09aa348c57f,16:47:59,27/03/2024
html-keyboard-response,67,134693,0.0-30.0-0.0,1038.2000007629395,"<div style=""display: flex; flex-direction: column; align-items: center; margin-top: -40px;""><img src=""images/pattern_6.png"" style=""width: 234px; height: 230px; margin-top: -50px;""><div style=""display: flex; justify-content: space-between; margin-top: 33px;""><img src=""images/choice_trial_16.png"" style=""width: 408px; height: 417px; margin-right: 200px;""><img src=""images/choice_trial_3.png"" style=""width: 408px; height: 417px;""></div></div>",j,delaylearn,learning,trial,xemAxAXZ26VnlBlobgUxjViuD6s1,xemAxAXZ26VnlBlobgUxjViuD6s1,3.0,images/choice_trial_16.png,images/choice_trial_3.png,images/pattern_6.png,j,f,750.0,16.0,3.0,5.0,0.0,13.0,0.0,1.0,3.0,80.0,,,,,,608b0f7f4699c09aa348c57f,16:47:59,27/03/2024
html-keyboard-response,68,135699,0.0-30.0-1.0,,"<div style=""display: flex; flex-direction: column; align-items: center; margin-top: -40px;""><img src=""images/pattern_6.png"" style=""width: 234px; height: 230px; margin-top: -50px;""><div style=""display: flex; justify-content: space-between; margin-top: 33px;""><img src=""images/choice_trial_3.png"" style=""width: 408px; height: 417px; margin-left:608px;""></div></div>",,delaylearn,learning,display_response,xemAxAXZ26VnlBlobgUxjViuD6s1,xemAxAXZ26VnlBlobgUxjViuD6s1,,,,,,,,,,,,,,,,,chosen stimuli: images/choice_trial_3.png,,,,,608b0f7f4699c09aa348c57f,16:47:59,27/03/2024
html-keyboard-response,69,136465,0.0-30.0-2.0,,,,delaylearn,learning,feedback_duration_window,xemAxAXZ26VnlBlobgUxjViuD6s1,xemAxAXZ26VnlBlobgUxjViuD6s1,,,,,,,,,,,,,,,,,,750.0,,,,608b0f7f4699c09aa348c57f,16:47:59,27/03/2024
html-keyboard-response,70,137982,0.0-30.0-3.0,,<div style='margin:auto;width: auto; font-size: 150%'><span style='font-weight: bold; font-size: 100px; color: green;'>+10 points!</span><br><br></div>,,delaylearn,learning,feedback_image_window,xemAxAXZ26VnlBlobgUxjViuD6s1,xemAxAXZ26VnlBlobgUxjViuD6s1,,,,,,,,,,,,,,,,,,,,,,608b0f7f4699c09aa348c57f,16:47:59,27/03/2024
html-keyboard-response,71,138499,0.0-31.0-0.0,,,,,,mood_trial_fixation,xemAxAXZ26VnlBlobgUxjViuD6s1,,,,,,,,,,,,,,,,,,,,,,,608b0f7f4699c09aa348c57f,16:47:59,27/03/2024
lmdlab-html-vas-response,72,145183,0.0-31.0-1.0,5658.0,How happy are you right now?,0.33796296296296297,delaylearn,learning,mood_trial,xemAxAXZ26VnlBlobgUxjViuD6s1,xemAxAXZ26VnlBlobgUxjViuD6s1,,,,,,,,,,,,,,,,,,,,"['Very unhappy', 'Very happy']",,608b0f7f4699c09aa348c57f,16:47:59,27/03/2024
html-keyboard-response,73,146835,0.0-32.0,,"<div style=""font-size:100px;"">+</div>",,delaylearn,learning,ITI,xemAxAXZ26VnlBlobgUxjViuD6s1,xemAxAXZ26VnlBlobgUxjViuD6s1,,,,,,,,,,,,,,,,,,,1642.0,,,608b0f7f4699c09aa348c57f,16:47:59,27/03/2024
html-keyboard-response,74,147998,0.0-33.0-0.0,1156.1999988555908,"<div style=""display: flex; flex-direction: column; align-items: center; margin-top: -40px;""><img src=""images/pattern_1.png"" style=""width: 234px; height: 230px; margin-top: -50px;""><div style=""display: flex; justify-content: space-between; margin-top: 33px;""><img src=""images/choice_trial_8.png"" style=""width: 408px; height: 417px; margin-right: 200px;""><img src=""images/choice_trial_14.png"" style=""width: 408px; height: 417px;""></div></div>",j,delaylearn,learning,trial,xemAxAXZ26VnlBlobgUxjViuD6s1,xemAxAXZ26VnlBlobgUxjViuD6s1,3.0,images/choice_trial_8.png,images/choice_trial_14.png,images/pattern_1.png,j,j,7000.0,8.0,14.0,1.0,1.0,14.0,1.0,1.0,14.0,90.0,,,,,,608b0f7f4699c09aa348c57f,16:47:59,27/03/2024
html-keyboard-response,75,149012,0.0-33.0-1.0,,"<div style=""display: flex; flex-direction: column; align-items: center; margin-top: -40px;""><img src=""images/pattern_1.png"" style=""width: 234px; height: 230px; margin-top: -50px;""><div style=""display: flex; justify-content: space-between; margin-top: 33px;""><img src=""images/choice_trial_14.png"" style=""width: 408px; height: 417px; margin-left:608px;""></div></div>",,delaylearn,learning,display_response,xemAxAXZ26VnlBlobgUxjViuD6s1,xemAxAXZ26VnlBlobgUxjViuD6s1,,,,,,,,,,,,,,,,,chosen stimuli: images/choice_trial_14.png,,,,,608b0f7f4699c09aa348c57f,16:47:59,27/03/2024
html-keyboard-response,76,156027,0.0-33.0-2.0,,,,delaylearn,learning,feedback_duration_window,xemAxAXZ26VnlBlobgUxjViuD6s1,xemAxAXZ26VnlBlobgUxjViuD6s1,,,,,,,,,,,,,,,,,,7000.0,,,,608b0f7f4699c09aa348c57f,16:47:59,27/03/2024
html-keyboard-response,77,157537,0.0-33.0-3.0,,<div style='margin:auto;width: auto; font-size: 150%'><span style='font-weight: bold; font-size: 100px; color: green;'>+10 points!</span><br><br></div>,,delaylearn,learning,feedback_image_window,xemAxAXZ26VnlBlobgUxjViuD6s1,xemAxAXZ26VnlBlobgUxjViuD6s1,,,,,,,,,,,,,,,,,,,,,,608b0f7f4699c09aa348c57f,16:47:59,27/03/2024
html-keyboard-response,78,159349,0.0-34.0,,"<div style=""font-size:100px;"">+</div>",,delaylearn,learning,ITI,xemAxAXZ26VnlBlobgUxjViuD6s1,xemAxAXZ26VnlBlobgUxjViuD6s1,,,,,,,,,,,,,,,,,,,1806.0,,,608b0f7f4699c09aa348c57f,16:47:59,27/03/2024
html-keyboard-response,79,160962,0.0-35.0-0.0,1605.7000007629395,"<div style=""display: flex; flex-direction: column; align-items: center; margin-top: -40px;""><img src=""images/pattern_3.png"" style=""width: 234px; height: 230px; margin-top: -50px;""><div style=""display: flex; justify-content: space-between; margin-top: 33px;""><img src=""images/choice_trial_10.png"" style=""width: 408px; height: 417px; margin-right: 200px;""><img src=""images/choice_trial_13.png"" style=""width: 408px; height: 417px;""></div></div>",j,delaylearn,learning,trial,xemAxAXZ26VnlBlobgUxjViuD6s1,xemAxAXZ26VnlBlobgUxjViuD6s1,3.0,images/choice_trial_10.png,images/choice_trial_13.png,images/pattern_3.png,f,j,7000.0,10.0,13.0,2.0,1.0,15.0,1.0,0.0,13.0,90.0,,,,,,608b0f7f4699c09aa348c57f,16:47:59,27/03/2024
html-keyboard-response,80,161971,0.0-35.0-1.0,,"<div style=""display: flex; flex-direction: column; align-items: center; margin-top: -40px;""><img src=""images/pattern_3.png"" style=""width: 234px; height: 230px; margin-top: -50px;""><div style=""display: flex; justify-content: space-between; margin-top: 33px;""><img src=""images/choice_trial_13.png"" style=""width: 408px; height: 417px; margin-left:608px;""></div></div>",,delaylearn,learning,display_response,xemAxAXZ26VnlBlobgUxjViuD6s1,xemAxAXZ26VnlBlobgUxjViuD6s1,,,,,,,,,,,,,,,,,chosen stimuli: images/choice_trial_13.png,,,,,608b0f7f4699c09aa348c57f,16:47:59,27/03/2024
html-keyboard-response,81,168985,0.0-35.0-2.0,,,,delaylearn,learning,feedback_duration_window,xemAxAXZ26VnlBlobgUxjViuD6s1,xemAxAXZ26VnlBlobgUxjViuD6s1,,,,,,,,,,,,,,,,,,7000.0,,,,608b0f7f4699c09aa348c57f,16:47:59,27/03/2024
html-keyboard-response,82,170495,0.0-35.0-3.0,,<div style='margin:auto;width: auto; font-size: 150%'><span style='font-weight: bold; font-size: 100px; color: red;'>0 points!</span><br><br></div>,,delaylearn,learning,feedback_image_window,xemAxAXZ26VnlBlobgUxjViuD6s1,xemAxAXZ26VnlBlobgUxjViuD6s1,,,,,,,,,,,,,,,,,,,,,,608b0f7f4699c09aa348c57f,16:47:59,27/03/2024
html-keyboard-response,83,172293,0.0-36.0,,"<div style=""font-size:100px;"">+</div>",,delaylearn,learning,ITI,xemAxAXZ26VnlBlobgUxjViuD6s1,xemAxAXZ26VnlBlobgUxjViuD6s1,,,,,,,,,,,,,,,,,,,1793.0,,,608b0f7f4699c09aa348c57f,16:47:59,27/03/2024
html-keyboard-response,84,173663,0.0-37.0-0.0,1363.6000003814697,"<div style=""display: flex; flex-direction: column; align-items: center; margin-top: -40px;""><img src=""images/pattern_5.png"" style=""width: 234px; height: 230px; margin-top: -50px;""><div style=""display: flex; justify-content: space-between; margin-top: 33px;""><img src=""images/choice_trial_11.png"" style=""width: 408px; height: 417px; margin-right: 200px;""><img src=""images/choice_trial_2.png"" style=""width: 408px; height: 417px;""></div></div>",f,delaylearn,learning,trial,xemAxAXZ26VnlBlobgUxjViuD6s1,xemAxAXZ26VnlBlobgUxjViuD6s1,3.0,images/choice_trial_11.png,images/choice_trial_2.png,images/pattern_5.png,f,f,750.0,11.0,2.0,4.0,0.0,16.0,1.0,1.0,11.0,100.0,,,,,,608b0f7f4699c09aa348c57f,16:47:59,27/03/2024
html-keyboard-response,85,174671,0.0-37.0-1.0,,"<div style=""display: flex; flex-direction: column; align-items: center; margin-top: -40px;""><img src=""images/pattern_5.png"" style=""width: 234px; height: 230px; margin-top: -50px;""><div style=""display: flex; justify-content: space-between; margin-top: 33px;""><img src=""images/choice_trial_11.png"" style=""width: 408px; height: 417px; margin-right: 608px;""></div></div>",,delaylearn,learning,display_response,xemAxAXZ26VnlBlobgUxjViuD6s1,xemAxAXZ26VnlBlobgUxjViuD6s1,,,,,,,,,,,,,,,,,chosen stimuli: images/choice_trial_11.png,,,,,608b0f7f4699c09aa348c57f,16:47:59,27/03/2024
html-keyboard-response,86,175429,0.0-37.0-2.0,,,,delaylearn,learning,feedback_duration_window,xemAxAXZ26VnlBlobgUxjViuD6s1,xemAxAXZ26VnlBlobgUxjViuD6s1,,,,,,,,,,,,,,,,,,750.0,,,,608b0f7f4699c09aa348c57f,16:47:59,27/03/2024
html-keyboard-response,87,176937,0.0-37.0-3.0,,<div style='margin:auto;width: auto; font-size: 150%'><span style='font-weight: bold; font-size: 100px; color: green;'>+10 points!</span><br><br></div>,,delaylearn,learning,feedback_image_window,xemAxAXZ26VnlBlobgUxjViuD6s1,xemAxAXZ26VnlBlobgUxjViuD6s1,,,,,,,,,,,,,,,,,,,,,,608b0f7f4699c09aa348c57f,16:47:59,27/03/2024
html-keyboard-response,88,177452,0.0-38.0-0.0,,,,,,mood_trial_fixation,xemAxAXZ26VnlBlobgUxjViuD6s1,,,,,,,,,,,,,,,,,,,,,,,608b0f7f4699c09aa348c57f,16:47:59,27/03/2024
lmdlab-html-vas-response,89,187233,0.0-38.0-1.0,8758.0,How happy are you right now?,0.3194444444444444,delaylearn,learning,mood_trial,xemAxAXZ26VnlBlobgUxjViuD6s1,xemAxAXZ26VnlBlobgUxjViuD6s1,,,,,,,,,,,,,,,,,,,,"['Very unhappy', 'Very happy']",,608b0f7f4699c09aa348c57f,16:47:59,27/03/2024
html-keyboard-response,90,189179,0.0-39.0,,"<div style=""font-size:100px;"">+</div>",,delaylearn,learning,ITI,xemAxAXZ26VnlBlobgUxjViuD6s1,xemAxAXZ26VnlBlobgUxjViuD6s1,,,,,,,,,,,,,,,,,,,1935.0,,,608b0f7f4699c09aa348c57f,16:47:59,27/03/2024
html-keyboard-response,91,190295,0.0-40.0-0.0,1107.3000011444092,"<div style=""display: flex; flex-direction: column; align-items: center; margin-top: -40px;""><img src=""images/pattern_6.png"" style=""width: 234px; height: 230px; margin-top: -50px;""><div style=""display: flex; justify-content: space-between; margin-top: 33px;""><img src=""images/choice_trial_16.png"" style=""width: 408px; height: 417px; margin-right: 200px;""><img src=""images/choice_trial_3.png"" style=""width: 408px; height: 417px;""></div></div>",j,delaylearn,learning,trial,xemAxAXZ26VnlBlobgUxjViuD6s1,xemAxAXZ26VnlBlobgUxjViuD6s1,3.0,images/choice_trial_16.png,images/choice_trial_3.png,images/pattern_6.png,f,f,750.0,16.0,3.0,5.0,0.0,17.0,0.0,0.0,3.0,100.0,,,,,,608b0f7f4699c09aa348c57f,16:47:59,27/03/2024
html-keyboard-response,92,191305,0.0-40.0-1.0,,"<div style=""display: flex; flex-direction: column; align-items: center; margin-top: -40px;""><img src=""images/pattern_6.png"" style=""width: 234px; height: 230px; margin-top: -50px;""><div style=""display: flex; justify-content: space-between; margin-top: 33px;""><img src=""images/choice_trial_3.png"" style=""width: 408px; height: 417px; margin-left:608px;""></div></div>",,delaylearn,learning,display_response,xemAxAXZ26VnlBlobgUxjViuD6s1,xemAxAXZ26VnlBlobgUxjViuD6s1,,,,,,,,,,,,,,,,,chosen stimuli: images/choice_trial_3.png,,,,,608b0f7f4699c09aa348c57f,16:47:59,27/03/2024
html-keyboard-response,93,192070,0.0-40.0-2.0,,,,delaylearn,learning,feedback_duration_window,xemAxAXZ26VnlBlobgUxjViuD6s1,xemAxAXZ26VnlBlobgUxjViuD6s1,,,,,,,,,,,,,,,,,,750.0,,,,608b0f7f4699c09aa348c57f,16:47:59,27/03/2024
html-keyboard-response,94,193586,0.0-40.0-3.0,,<div style='margin:auto;width: auto; font-size: 150%'><span style='font-weight: bold; font-size: 100px; color: red;'>0 points!</span><br><br></div>,,delaylearn,learning,feedback_image_window,xemAxAXZ26VnlBlobgUxjViuD6s1,xemAxAXZ26VnlBlobgUxjViuD6s1,,,,,,,,,,,,,,,,,,,,,,608b0f7f4699c09aa348c57f,16:47:59,27/03/2024
html-keyboard-response,95,195353,0.0-41.0,,"<div style=""font-size:100px;"">+</div>",,delaylearn,learning,ITI,xemAxAXZ26VnlBlobgUxjViuD6s1,xemAxAXZ26VnlBlobgUxjViuD6s1,,,,,,,,,,,,,,,,,,,1763.0,,,608b0f7f4699c09aa348c57f,16:47:59,27/03/2024
html-keyboard-response,96,196408,0.0-42.0-0.0,1047.5,"<div style=""display: flex; flex-direction: column; align-items: center; margin-top: -40px;""><img src=""images/pattern_4.png"" style=""width: 234px; height: 230px; margin-top: -50px;""><div style=""display: flex; justify-content: space-between; margin-top: 33px;""><img src=""images/choice_trial_9.png"" style=""width: 408px; height: 417px; margin-right: 200px;""><img src=""images/choice_trial_15.png"" style=""width: 408px; height: 417px;""></div></div>",j,delaylearn,learning,trial,xemAxAXZ26VnlBlobgUxjViuD6s1,xemAxAXZ26VnlBlobgUxjViuD6s1,3.0,images/choice_trial_9.png,images/choice_trial_15.png,images/pattern_4.png,j,j,7000.0,9.0,15.0,3.0,1.0,18.0,1.0,1.0,15.0,110.0,,,,,,608b0f7f4699c09aa348c57f,16:47:59,27/03/2024
html-keyboard-response,97,197421,0.0-42.0-1.0,,"<div style=""display: flex; flex-direction: column; align-items: center; margin-top: -40px;""><img src=""images/pattern_4.png"" style=""width: 234px; height: 230px; margin-top: -50px;""><div style=""display: flex; justify-content: space-between; margin-top: 33px;""><img src=""images/choice_trial_15.png"" style=""width: 408px; height: 417px; margin-left:608px;""></div></div>",,delaylearn,learning,display_response,xemAxAXZ26VnlBlobgUxjViuD6s1,xemAxAXZ26VnlBlobgUxjViuD6s1,,,,,,,,,,,,,,,,,chosen stimuli: images/choice_trial_15.png,,,,,608b0f7f4699c09aa348c57f,16:47:59,27/03/2024
html-keyboard-response,98,204425,0.0-42.0-2.0,,,,delaylearn,learning,feedback_duration_window,xemAxAXZ26VnlBlobgUxjViuD6s1,xemAxAXZ26VnlBlobgUxjViuD6s1,,,,,,,,,,,,,,,,,,7000.0,,,,608b0f7f4699c09aa348c57f,16:47:59,27/03/2024
html-keyboard-response,99,205937,0.0-42.0-3.0,,<div style='margin:auto;width: auto; font-size: 150%'><span style='font-weight: bold; font-size: 100px; color: green;'>+10 points!</span><br><br></div>,,delaylearn,learning,feedback_image_window,xemAxAXZ26VnlBlobgUxjViuD6s1,xemAxAXZ26VnlBlobgUxjViuD6s1,,,,,,,,,,,,,,,,,,,,,,608b0f7f4699c09aa348c57f,16:47:59,27/03/2024
html-keyboard-response,100,208047,0.0-43.0,,"<div style=""font-size:100px;"">+</div>",,delaylearn,learning,ITI,xemAxAXZ26VnlBlobgUxjViuD6s1,xemAxAXZ26VnlBlobgUxjViuD6s1,,,,,,,,,,,,,,,,,,,2100.0,,,608b0f7f4699c09aa348c57f,16:47:59,27/03/2024
html-keyboard-response,101,209369,0.0-44.0-0.0,1313.900001525879,"<div style=""display: flex; flex-direction: column; align-items: center; margin-top: -40px;""><img src=""images/pattern_7.png"" style=""width: 234px; height: 230px; margin-top: -50px;""><div style=""display: flex; justify-content: space-between; margin-top: 33px;""><img src=""images/choice_trial_6.png"" style=""width: 408px; height: 417px; margin-right: 200px;""><img src=""images/choice_trial_12.png"" style=""width: 408px; height: 417px;""></div></div>",j,delaylearn,learning,trial,xemAxAXZ26VnlBlobgUxjViuD6s1,xemAxAXZ26VnlBlobgUxjViuD6s1,3.0,images/choice_trial_6.png,images/choice_trial_12.png,images/pattern_7.png,j,f,750.0,6.0,12.0,6.0,0.0,19.0,0.0,1.0,12.0,120.0,,,,,,608b0f7f4699c09aa348c57f,16:47:59,27/03/2024
html-keyboard-response,102,210379,0.0-44.0-1.0,,"<div style=""display: flex; flex-direction: column; align-items: center; margin-top: -40px;""><img src=""images/pattern_7.png"" style=""width: 234px; height: 230px; margin-top: -50px;""><div style=""display: flex; justify-content: space-between; margin-top: 33px;""><img src=""images/choice_trial_12.png"" style=""width: 408px; height: 417px; margin-left:608px;""></div></div>",,delaylearn,learning,display_response,xemAxAXZ26VnlBlobgUxjViuD6s1,xemAxAXZ26VnlBlobgUxjViuD6s1,,,,,,,,,,,,,,,,,chosen stimuli: images/choice_trial_12.png,,,,,608b0f7f4699c09aa348c57f,16:47:59,27/03/2024
html-keyboard-response,103,211138,0.0-44.0-2.0,,,,delaylearn,learning,feedback_duration_window,xemAxAXZ26VnlBlobgUxjViuD6s1,xemAxAXZ26VnlBlobgUxjViuD6s1,,,,,,,,,,,,,,,,,,750.0,,,,608b0f7f4699c09aa348c57f,16:47:59,27/03/2024
html-keyboard-response,104,212653,0.0-44.0-3.0,,<div style='margin:auto;width: auto; font-size: 150%'><span style='font-weight: bold; font-size: 100px; color: green;'>+10 points!</span><br><br></div>,,delaylearn,learning,feedback_image_window,xemAxAXZ26VnlBlobgUxjViuD6s1,xemAxAXZ26VnlBlobgUxjViuD6s1,,,,,,,,,,,,,,,,,,,,,,608b0f7f4699c09aa348c57f,16:47:59,27/03/2024
html-keyboard-response,105,214709,0.0-45.0,,"<div style=""font-size:100px;"">+</div>",,delaylearn,learning,ITI,xemAxAXZ26VnlBlobgUxjViuD6s1,xemAxAXZ26VnlBlobgUxjViuD6s1,,,,,,,,,,,,,,,,,,,2039.0,,,608b0f7f4699c09aa348c57f,16:47:59,27/03/2024
html-keyboard-response,106,215737,0.0-46.0-0.0,1020.5,"<div style=""display: flex; flex-direction: column; align-items: center; margin-top: -40px;""><img src=""images/pattern_1.png"" style=""width: 234px; height: 230px; margin-top: -50px;""><div style=""display: flex; justify-content: space-between; margin-top: 33px;""><img src=""images/choice_trial_14.png"" style=""width: 408px; height: 417px; margin-right: 200px;""><img src=""images/choice_trial_8.png"" style=""width: 408px; height: 417px;""></div></div>",f,delaylearn,learning,trial,xemAxAXZ26VnlBlobgUxjViuD6s1,xemAxAXZ26VnlBlobgUxjViuD6s1,3.0,images/choice_trial_14.png,images/choice_trial_8.png,images/pattern_1.png,f,f,7000.0,14.0,8.0,1.0,0.0,20.0,1.0,1.0,14.0,130.0,,,,,,608b0f7f4699c09aa348c57f,16:47:59,27/03/2024
html-keyboard-response,107,216746,0.0-46.0-1.0,,"<div style=""display: flex; flex-direction: column; align-items: center; margin-top: -40px;""><img src=""images/pattern_1.png"" style=""width: 234px; height: 230px; margin-top: -50px;""><div style=""display: flex; justify-content: space-between; margin-top: 33px;""><img src=""images/choice_trial_14.png"" style=""width: 408px; height: 417px; margin-right: 608px;""></div></div>",,delaylearn,learning,display_response,xemAxAXZ26VnlBlobgUxjViuD6s1,xemAxAXZ26VnlBlobgUxjViuD6s1,,,,,,,,,,,,,,,,,chosen stimuli: images/choice_trial_14.png,,,,,608b0f7f4699c09aa348c57f,16:47:59,27/03/2024
html-keyboard-response,108,223752,0.0-46.0-2.0,,,,delaylearn,learning,feedback_duration_window,xemAxAXZ26VnlBlobgUxjViuD6s1,xemAxAXZ26VnlBlobgUxjViuD6s1,,,,,,,,,,,,,,,,,,7000.0,,,,608b0f7f4699c09aa348c57f,16:47:59,27/03/2024
html-keyboard-response,109,225271,0.0-46.0-3.0,,<div style='margin:auto;width: auto; font-size: 150%'><span style='font-weight: bold; font-size: 100px; color: green;'>+10 points!</span><br><br></div>,,delaylearn,learning,feedback_image_window,xemAxAXZ26VnlBlobgUxjViuD6s1,xemAxAXZ26VnlBlobgUxjViuD6s1,,,,,,,,,,,,,,,,,,,,,,608b0f7f4699c09aa348c57f,16:47:59,27/03/2024
html-keyboard-response,110,226802,0.0-47.0,,"<div style=""font-size:100px;"">+</div>",,delaylearn,learning,ITI,xemAxAXZ26VnlBlobgUxjViuD6s1,xemAxAXZ26VnlBlobgUxjViuD6s1,,,,,,,,,,,,,,,,,,,1525.0,,,608b0f7f4699c09aa348c57f,16:47:59,27/03/2024
html-keyboard-response,111,227620,0.0-48.0-0.0,810.6000003814697,"<div style=""display: flex; flex-direction: column; align-items: center; margin-top: -40px;""><img src=""images/pattern_6.png"" style=""width: 234px; height: 230px; margin-top: -50px;""><div style=""display: flex; justify-content: space-between; margin-top: 33px;""><img src=""images/choice_trial_3.png"" style=""width: 408px; height: 417px; margin-right: 200px;""><img src=""images/choice_trial_16.png"" style=""width: 408px; height: 417px;""></div></div>",f,delaylearn,learning,trial,xemAxAXZ26VnlBlobgUxjViuD6s1,xemAxAXZ26VnlBlobgUxjViuD6s1,3.0,images/choice_trial_3.png,images/choice_trial_16.png,images/pattern_6.png,j,j,750.0,3.0,16.0,5.0,1.0,21.0,0.0,0.0,3.0,130.0,,,,,,608b0f7f4699c09aa348c57f,16:47:59,27/03/2024
html-keyboard-response,112,228637,0.0-48.0-1.0,,"<div style=""display: flex; flex-direction: column; align-items: center; margin-top: -40px;""><img src=""images/pattern_6.png"" style=""width: 234px; height: 230px; margin-top: -50px;""><div style=""display: flex; justify-content: space-between; margin-top: 33px;""><img src=""images/choice_trial_3.png"" style=""width: 408px; height: 417px; margin-right: 608px;""></div></div>",,delaylearn,learning,display_response,xemAxAXZ26VnlBlobgUxjViuD6s1,xemAxAXZ26VnlBlobgUxjViuD6s1,,,,,,,,,,,,,,,,,chosen stimuli: images/choice_trial_3.png,,,,,608b0f7f4699c09aa348c57f,16:47:59,27/03/2024
html-keyboard-response,113,229396,0.0-48.0-2.0,,,,delaylearn,learning,feedback_duration_window,xemAxAXZ26VnlBlobgUxjViuD6s1,xemAxAXZ26VnlBlobgUxjViuD6s1,,,,,,,,,,,,,,,,,,750.0,,,,608b0f7f4699c09aa348c57f,16:47:59,27/03/2024
html-keyboard-response,114,230913,0.0-48.0-3.0,,<div style='margin:auto;width: auto; font-size: 150%'><span style='font-weight: bold; font-size: 100px; color: red;'>0 points!</span><br><br></div>,,delaylearn,learning,feedback_image_window,xemAxAXZ26VnlBlobgUxjViuD6s1,xemAxAXZ26VnlBlobgUxjViuD6s1,,,,,,,,,,,,,,,,,,,,,,608b0f7f4699c09aa348c57f,16:47:59,27/03/2024
html-keyboard-response,115,232804,0.0-49.0,,"<div style=""font-size:100px;"">+</div>",,delaylearn,learning,ITI,xemAxAXZ26VnlBlobgUxjViuD6s1,xemAxAXZ26VnlBlobgUxjViuD6s1,,,,,,,,,,,,,,,,,,,1885.0,,,608b0f7f4699c09aa348c57f,16:47:59,27/03/2024
html-keyboard-response,116,233987,0.0-50.0-0.0,1175.2999992370605,"<div style=""display: flex; flex-direction: column; align-items: center; margin-top: -40px;""><img src=""images/pattern_4.png"" style=""width: 234px; height: 230px; margin-top: -50px;""><div style=""display: flex; justify-content: space-between; margin-top: 33px;""><img src=""images/choice_trial_15.png"" style=""width: 408px; height: 417px; margin-right: 200px;""><img src=""images/choice_trial_9.png"" style=""width: 408px; height: 417px;""></div></div>",f,delaylearn,learning,trial,xemAxAXZ26VnlBlobgUxjViuD6s1,xemAxAXZ26VnlBlobgUxjViuD6s1,3.0,images/choice_trial_15.png,images/choice_trial_9.png,images/pattern_4.png,f,f,7000.0,15.0,9.0,3.0,0.0,22.0,1.0,1.0,15.0,140.0,,,,,,608b0f7f4699c09aa348c57f,16:47:59,27/03/2024
html-keyboard-response,117,235004,0.0-50.0-1.0,,"<div style=""display: flex; flex-direction: column; align-items: center; margin-top: -40px;""><img src=""images/pattern_4.png"" style=""width: 234px; height: 230px; margin-top: -50px;""><div style=""display: flex; justify-content: space-between; margin-top: 33px;""><img src=""images/choice_trial_15.png"" style=""width: 408px; height: 417px; margin-right: 608px;""></div></div>",,delaylearn,learning,display_response,xemAxAXZ26VnlBlobgUxjViuD6s1,xemAxAXZ26VnlBlobgUxjViuD6s1,,,,,,,,,,,,,,,,,chosen stimuli: images/choice_trial_15.png,,,,,608b0f7f4699c09aa348c57f,16:47:59,27/03/2024
html-keyboard-response,118,242011,0.0-50.0-2.0,,,,delaylearn,learning,feedback_duration_window,xemAxAXZ26VnlBlobgUxjViuD6s1,xemAxAXZ26VnlBlobgUxjViuD6s1,,,,,,,,,,,,,,,,,,7000.0,,,,608b0f7f4699c09aa348c57f,16:47:59,27/03/2024
html-keyboard-response,119,243522,0.0-50.0-3.0,,<div style='margin:auto;width: auto; font-size: 150%'><span style='font-weight: bold; font-size: 100px; color: green;'>+10 points!</span><br><br></div>,,delaylearn,learning,feedback_image_window,xemAxAXZ26VnlBlobgUxjViuD6s1,xemAxAXZ26VnlBlobgUxjViuD6s1,,,,,,,,,,,,,,,,,,,,,,608b0f7f4699c09aa348c57f,16:47:59,27/03/2024
html-keyboard-response,120,244030,0.0-51.0-0.0,,,,,,mood_trial_fixation,xemAxAXZ26VnlBlobgUxjViuD6s1,,,,,,,,,,,,,,,,,,,,,,,608b0f7f4699c09aa348c57f,16:47:59,27/03/2024
lmdlab-html-vas-response,121,251029,0.0-51.0-1.0,5979.0,How happy are you right now?,0.4583333333333333,delaylearn,learning,mood_trial,xemAxAXZ26VnlBlobgUxjViuD6s1,xemAxAXZ26VnlBlobgUxjViuD6s1,,,,,,,,,,,,,,,,,,,,"['Very unhappy', 'Very happy']",,608b0f7f4699c09aa348c57f,16:47:59,27/03/2024
html-keyboard-response,122,252573,0.0-52.0,,"<div style=""font-size:100px;"">+</div>",,delaylearn,learning,ITI,xemAxAXZ26VnlBlobgUxjViuD6s1,xemAxAXZ26VnlBlobgUxjViuD6s1,,,,,,,,,,,,,,,,,,,1526.0,,,608b0f7f4699c09aa348c57f,16:47:59,27/03/2024
html-keyboard-response,123,253910,0.0-53.0-0.0,1329.2999992370605,"<div style=""display: flex; flex-direction: column; align-items: center; margin-top: -40px;""><img src=""images/pattern_7.png"" style=""width: 234px; height: 230px; margin-top: -50px;""><div style=""display: flex; justify-content: space-between; margin-top: 33px;""><img src=""images/choice_trial_12.png"" style=""width: 408px; height: 417px; margin-right: 200px;""><img src=""images/choice_trial_6.png"" style=""width: 408px; height: 417px;""></div></div>",j,delaylearn,learning,trial,xemAxAXZ26VnlBlobgUxjViuD6s1,xemAxAXZ26VnlBlobgUxjViuD6s1,3.0,images/choice_trial_12.png,images/choice_trial_6.png,images/pattern_7.png,j,j,750.0,12.0,6.0,6.0,1.0,23.0,1.0,1.0,6.0,150.0,,,,,,608b0f7f4699c09aa348c57f,16:47:59,27/03/2024
html-keyboard-response,124,254922,0.0-53.0-1.0,,"<div style=""display: flex; flex-direction: column; align-items: center; margin-top: -40px;""><img src=""images/pattern_7.png"" style=""width: 234px; height: 230px; margin-top: -50px;""><div style=""display: flex; justify-content: space-between; margin-top: 33px;""><img src=""images/choice_trial_6.png"" style=""width: 408px; height: 417px; margin-left:608px;""></div></div>",,delaylearn,learning,display_response,xemAxAXZ26VnlBlobgUxjViuD6s1,xemAxAXZ26VnlBlobgUxjViuD6s1,,,,,,,,,,,,,,,,,chosen stimuli: images/choice_trial_6.png,,,,,608b0f7f4699c09aa348c57f,16:47:59,27/03/2024
html-keyboard-response,125,255690,0.0-53.0-2.0,,,,delaylearn,learning,feedback_duration_window,xemAxAXZ26VnlBlobgUxjViuD6s1,xemAxAXZ26VnlBlobgUxjViuD6s1,,,,,,,,,,,,,,,,,,750.0,,,,608b0f7f4699c09aa348c57f,16:47:59,27/03/2024
html-keyboard-response,126,257198,0.0-53.0-3.0,,<div style='margin:auto;width: auto; font-size: 150%'><span style='font-weight: bold; font-size: 100px; color: green;'>+10 points!</span><br><br></div>,,delaylearn,learning,feedback_image_window,xemAxAXZ26VnlBlobgUxjViuD6s1,xemAxAXZ26VnlBlobgUxjViuD6s1,,,,,,,,,,,,,,,,,,,,,,608b0f7f4699c09aa348c57f,16:47:59,27/03/2024
html-keyboard-response,127,258799,0.0-54.0,,"<div style=""font-size:100px;"">+</div>",,delaylearn,learning,ITI,xemAxAXZ26VnlBlobgUxjViuD6s1,xemAxAXZ26VnlBlobgUxjViuD6s1,,,,,,,,,,,,,,,,,,,1593.0,,,608b0f7f4699c09aa348c57f,16:47:59,27/03/2024
html-keyboard-response,128,260207,0.0-55.0-0.0,1400.2000007629395,"<div style=""display: flex; flex-direction: column; align-items: center; margin-top: -40px;""><img src=""images/pattern_1.png"" style=""width: 234px; height: 230px; margin-top: -50px;""><div style=""display: flex; justify-content: space-between; margin-top: 33px;""><img src=""images/choice_trial_8.png"" style=""width: 408px; height: 417px; margin-right: 200px;""><img src=""images/choice_trial_14.png"" style=""width: 408px; height: 417px;""></div></div>",j,delaylearn,learning,trial,xemAxAXZ26VnlBlobgUxjViuD6s1,xemAxAXZ26VnlBlobgUxjViuD6s1,3.0,images/choice_trial_8.png,images/choice_trial_14.png,images/pattern_1.png,f,j,7000.0,8.0,14.0,1.0,1.0,24.0,1.0,0.0,14.0,150.0,,,,,,608b0f7f4699c09aa348c57f,16:47:59,27/03/2024
html-keyboard-response,129,261214,0.0-55.0-1.0,,"<div style=""display: flex; flex-direction: column; align-items: center; margin-top: -40px;""><img src=""images/pattern_1.png"" style=""width: 234px; height: 230px; margin-top: -50px;""><div style=""display: flex; justify-content: space-between; margin-top: 33px;""><img src=""images/choice_trial_14.png"" style=""width: 408px; height: 417px; margin-left:608px;""></div></div>",,delaylearn,learning,display_response,xemAxAXZ26VnlBlobgUxjViuD6s1,xemAxAXZ26VnlBlobgUxjViuD6s1,,,,,,,,,,,,,,,,,chosen stimuli: images/choice_trial_14.png,,,,,608b0f7f4699c09aa348c57f,16:47:59,27/03/2024
html-keyboard-response,130,268220,0.0-55.0-2.0,,,,delaylearn,learning,feedback_duration_window,xemAxAXZ26VnlBlobgUxjViuD6s1,xemAxAXZ26VnlBlobgUxjViuD6s1,,,,,,,,,,,,,,,,,,7000.0,,,,608b0f7f4699c09aa348c57f,16:47:59,27/03/2024
html-keyboard-response,131,269729,0.0-55.0-3.0,,<div style='margin:auto;width: auto; font-size: 150%'><span style='font-weight: bold; font-size: 100px; color: red;'>0 points!</span><br><br></div>,,delaylearn,learning,feedback_image_window,xemAxAXZ26VnlBlobgUxjViuD6s1,xemAxAXZ26VnlBlobgUxjViuD6s1,,,,,,,,,,,,,,,,,,,,,,608b0f7f4699c09aa348c57f,16:47:59,27/03/2024
html-keyboard-response,132,271996,0.0-56.0,,"<div style=""font-size:100px;"">+</div>",,delaylearn,learning,ITI,xemAxAXZ26VnlBlobgUxjViuD6s1,xemAxAXZ26VnlBlobgUxjViuD6s1,,,,,,,,,,,,,,,,,,,2254.0,,,608b0f7f4699c09aa348c57f,16:47:59,27/03/2024
html-keyboard-response,133,273566,0.0-57.0-0.0,1561.3999996185303,"<div style=""display: flex; flex-direction: column; align-items: center; margin-top: -40px;""><img src=""images/pattern_5.png"" style=""width: 234px; height: 230px; margin-top: -50px;""><div style=""display: flex; justify-content: space-between; margin-top: 33px;""><img src=""images/choice_trial_2.png"" style=""width: 408px; height: 417px; margin-right: 200px;""><img src=""images/choice_trial_11.png"" style=""width: 408px; height: 417px;""></div></div>",j,delaylearn,learning,trial,xemAxAXZ26VnlBlobgUxjViuD6s1,xemAxAXZ26VnlBlobgUxjViuD6s1,3.0,images/choice_trial_2.png,images/choice_trial_11.png,images/pattern_5.png,j,j,750.0,2.0,11.0,4.0,1.0,25.0,1.0,1.0,11.0,160.0,,,,,,608b0f7f4699c09aa348c57f,16:47:59,27/03/2024
html-keyboard-response,134,274573,0.0-57.0-1.0,,"<div style=""display: flex; flex-direction: column; align-items: center; margin-top: -40px;""><img src=""images/pattern_5.png"" style=""width: 234px; height: 230px; margin-top: -50px;""><div style=""display: flex; justify-content: space-between; margin-top: 33px;""><img src=""images/choice_trial_11.png"" style=""width: 408px; height: 417px; margin-left:608px;""></div></div>",,delaylearn,learning,display_response,xemAxAXZ26VnlBlobgUxjViuD6s1,xemAxAXZ26VnlBlobgUxjViuD6s1,,,,,,,,,,,,,,,,,chosen stimuli: images/choice_trial_11.png,,,,,608b0f7f4699c09aa348c57f,16:47:59,27/03/2024
html-keyboard-response,135,275338,0.0-57.0-2.0,,,,delaylearn,learning,feedback_duration_window,xemAxAXZ26VnlBlobgUxjViuD6s1,xemAxAXZ26VnlBlobgUxjViuD6s1,,,,,,,,,,,,,,,,,,750.0,,,,608b0f7f4699c09aa348c57f,16:47:59,27/03/2024
html-keyboard-response,136,276855,0.0-57.0-3.0,,<div style='margin:auto;width: auto; font-size: 150%'><span style='font-weight: bold; font-size: 100px; color: green;'>+10 points!</span><br><br></div>,,delaylearn,learning,feedback_image_window,xemAxAXZ26VnlBlobgUxjViuD6s1,xemAxAXZ26VnlBlobgUxjViuD6s1,,,,,,,,,,,,,,,,,,,,,,608b0f7f4699c09aa348c57f,16:47:59,27/03/2024
html-keyboard-response,137,278918,0.0-58.0,,"<div style=""font-size:100px;"">+</div>",,delaylearn,learning,ITI,xemAxAXZ26VnlBlobgUxjViuD6s1,xemAxAXZ26VnlBlobgUxjViuD6s1,,,,,,,,,,,,,,,,,,,2048.0,,,608b0f7f4699c09aa348c57f,16:47:59,27/03/2024
html-keyboard-response,138,280156,0.0-59.0-0.0,1230.5,"<div style=""display: flex; flex-direction: column; align-items: center; margin-top: -40px;""><img src=""images/pattern_3.png"" style=""width: 234px; height: 230px; margin-top: -50px;""><div style=""display: flex; justify-content: space-between; margin-top: 33px;""><img src=""images/choice_trial_10.png"" style=""width: 408px; height: 417px; margin-right: 200px;""><img src=""images/choice_trial_13.png"" style=""width: 408px; height: 417px;""></div></div>",j,delaylearn,learning,trial,xemAxAXZ26VnlBlobgUxjViuD6s1,xemAxAXZ26VnlBlobgUxjViuD6s1,3.0,images/choice_trial_10.png,images/choice_trial_13.png,images/pattern_3.png,j,j,7000.0,10.0,13.0,2.0,1.0,26.0,1.0,1.0,13.0,170.0,,,,,,608b0f7f4699c09aa348c57f,16:47:59,27/03/2024
html-keyboard-response,139,281172,0.0-59.0-1.0,,"<div style=""display: flex; flex-direction: column; align-items: center; margin-top: -40px;""><img src=""images/pattern_3.png"" style=""width: 234px; height: 230px; margin-top: -50px;""><div style=""display: flex; justify-content: space-between; margin-top: 33px;""><img src=""images/choice_trial_13.png"" style=""width: 408px; height: 417px; margin-left:608px;""></div></div>",,delaylearn,learning,display_response,xemAxAXZ26VnlBlobgUxjViuD6s1,xemAxAXZ26VnlBlobgUxjViuD6s1,,,,,,,,,,,,,,,,,chosen stimuli: images/choice_trial_13.png,,,,,608b0f7f4699c09aa348c57f,16:47:59,27/03/2024
html-keyboard-response,140,288178,0.0-59.0-2.0,,,,delaylearn,learning,feedback_duration_window,xemAxAXZ26VnlBlobgUxjViuD6s1,xemAxAXZ26VnlBlobgUxjViuD6s1,,,,,,,,,,,,,,,,,,7000.0,,,,608b0f7f4699c09aa348c57f,16:47:59,27/03/2024
html-keyboard-response,141,289689,0.0-59.0-3.0,,<div style='margin:auto;width: auto; font-size: 150%'><span style='font-weight: bold; font-size: 100px; color: green;'>+10 points!</span><br><br></div>,,delaylearn,learning,feedback_image_window,xemAxAXZ26VnlBlobgUxjViuD6s1,xemAxAXZ26VnlBlobgUxjViuD6s1,,,,,,,,,,,,,,,,,,,,,,608b0f7f4699c09aa348c57f,16:47:59,27/03/2024
lmdlab-html-vas-response,142,298556,0.0-60.0-0.0,7275.0,*How <b><u>confident</u></b> are you feeling about your answers at this moment?*,0.08796296296296297,rewlearn,rate_confidence,,xemAxAXZ26VnlBlobgUxjViuD6s1,xemAxAXZ26VnlBlobgUxjViuD6s1,,,,,,,,,,,,,,,,,,,,"['No confidence', 'Complete confidence']",,608b0f7f4699c09aa348c57f,16:47:59,27/03/2024
lmdlab-rest-trial-limit,143,335340,0.0-60.0-1.0,35237.10000038147,"<div style=""font-size:40px;""><b>Please take a break!</b><br><br><br><br><p>Great work: you earned 170 points.<br><br><br><p>You have completed part(s) 1 of 5.<br><br><br><br>When you are ready to continue<br><br><br>please click the button.</p><br><br>",0,delaylearn,learning,break,xemAxAXZ26VnlBlobgUxjViuD6s1,xemAxAXZ26VnlBlobgUxjViuD6s1,,,,,,,,,,,,,,,,,,,,,0.0,608b0f7f4699c09aa348c57f,16:47:59,27/03/2024
html-keyboard-response,144,338354,0.0-60.0-2.0,,"<div style=""font-size:100px;"">+</div>",,delaylearn,learning,pre_fixation,xemAxAXZ26VnlBlobgUxjViuD6s1,,,,,,,,,,,,,,,,,,,,,,,608b0f7f4699c09aa348c57f,16:47:59,27/03/2024
lmdlab-html-vas-response,145,344714,0.0-60.0-3.0-0.0,5319.0,How happy are you right now?,0.48148148148148145,delaylearn,learning,mood_baseline,xemAxAXZ26VnlBlobgUxjViuD6s1,xemAxAXZ26VnlBlobgUxjViuD6s1,,,,,,,,,,,,,,,,,,,,"['Very unhappy', 'Very happy']",,608b0f7f4699c09aa348c57f,16:47:59,27/03/2024
html-keyboard-response,146,346227,0.0-60.0-3.0-1.0,,,,,,mood_baseline_fixation,xemAxAXZ26VnlBlobgUxjViuD6s1,,,,,,,,,,,,,,,,,,,,,,,608b0f7f4699c09aa348c57f,16:47:59,27/03/2024
html-keyboard-response,147,348515,0.0-61.0,,"<div style=""font-size:100px;"">+</div>",,delaylearn,learning,ITI,xemAxAXZ26VnlBlobgUxjViuD6s1,xemAxAXZ26VnlBlobgUxjViuD6s1,,,,,,,,,,,,,,,,,,,2282.0,,,608b0f7f4699c09aa348c57f,16:47:59,27/03/2024
html-keyboard-response,148,349899,0.0-62.0-0.0,1378.2000007629395,"<div style=""display: flex; flex-direction: column; align-items: center; margin-top: -40px;""><img src=""images/pattern_7.png"" style=""width: 234px; height: 230px; margin-top: -50px;""><div style=""display: flex; justify-content: space-between; margin-top: 33px;""><img src=""images/choice_trial_12.png"" style=""width: 408px; height: 417px; margin-right: 200px;""><img src=""images/choice_trial_6.png"" style=""width: 408px; height: 417px;""></div></div>",j,delaylearn,learning,trial,xemAxAXZ26VnlBlobgUxjViuD6s1,xemAxAXZ26VnlBlobgUxjViuD6s1,3.0,images/choice_trial_12.png,images/choice_trial_6.png,images/pattern_7.png,j,j,750.0,12.0,6.0,6.0,1.0,27.0,1.0,1.0,6.0,180.0,,,,,,608b0f7f4699c09aa348c57f,16:47:59,27/03/2024
html-keyboard-response,149,350907,0.0-62.0-1.0,,"<div style=""display: flex; flex-direction: column; align-items: center; margin-top: -40px;""><img src=""images/pattern_7.png"" style=""width: 234px; height: 230px; margin-top: -50px;""><div style=""display: flex; justify-content: space-between; margin-top: 33px;""><img src=""images/choice_trial_6.png"" style=""width: 408px; height: 417px; margin-left:608px;""></div></div>",,delaylearn,learning,display_response,xemAxAXZ26VnlBlobgUxjViuD6s1,xemAxAXZ26VnlBlobgUxjViuD6s1,,,,,,,,,,,,,,,,,chosen stimuli: images/choice_trial_6.png,,,,,608b0f7f4699c09aa348c57f,16:47:59,27/03/2024
html-keyboard-response,150,351669,0.0-62.0-2.0,,,,delaylearn,learning,feedback_duration_window,xemAxAXZ26VnlBlobgUxjViuD6s1,xemAxAXZ26VnlBlobgUxjViuD6s1,,,,,,,,,,,,,,,,,,750.0,,,,608b0f7f4699c09aa348c57f,16:47:59,27/03/2024
html-keyboard-response,151,353175,0.0-62.0-3.0,,<div style='margin:auto;width: auto; font-size: 150%'><span style='font-weight: bold; font-size: 100px; color: green;'>+10 points!</span><br><br></div>,,delaylearn,learning,feedback_image_window,xemAxAXZ26VnlBlobgUxjViuD6s1,xemAxAXZ26VnlBlobgUxjViuD6s1,,,,,,,,,,,,,,,,,,,,,,608b0f7f4699c09aa348c57f,16:47:59,27/03/2024
html-keyboard-response,152,353690,0.0-63.0-0.0,,,,,,mood_trial_fixation,xemAxAXZ26VnlBlobgUxjViuD6s1,,,,,,,,,,,,,,,,,,,,,,,608b0f7f4699c09aa348c57f,16:47:59,27/03/2024
lmdlab-html-vas-response,153,360263,0.0-63.0-1.0,5550.0,How happy are you right now?,0.46296296296296297,delaylearn,learning,mood_trial,xemAxAXZ26VnlBlobgUxjViuD6s1,xemAxAXZ26VnlBlobgUxjViuD6s1,,,,,,,,,,,,,,,,,,,,"['Very unhappy', 'Very happy']",,608b0f7f4699c09aa348c57f,16:47:59,27/03/2024
html-keyboard-response,154,362578,0.0-64.0,,"<div style=""font-size:100px;"">+</div>",,delaylearn,learning,ITI,xemAxAXZ26VnlBlobgUxjViuD6s1,xemAxAXZ26VnlBlobgUxjViuD6s1,,,,,,,,,,,,,,,,,,,2307.0,,,608b0f7f4699c09aa348c57f,16:47:59,27/03/2024
html-keyboard-response,155,364048,0.0-65.0-0.0,1462.7999992370605,"<div style=""display: flex; flex-direction: column; align-items: center; margin-top: -40px;""><img src=""images/pattern_1.png"" style=""width: 234px; height: 230px; margin-top: -50px;""><div style=""display: flex; justify-content: space-between; margin-top: 33px;""><img src=""images/choice_trial_14.png"" style=""width: 408px; height: 417px; margin-right: 200px;""><img src=""images/choice_trial_8.png"" style=""width: 408px; height: 417px;""></div></div>",j,delaylearn,learning,trial,xemAxAXZ26VnlBlobgUxjViuD6s1,xemAxAXZ26VnlBlobgUxjViuD6s1,3.0,images/choice_trial_14.png,images/choice_trial_8.png,images/pattern_1.png,f,f,7000.0,14.0,8.0,1.0,0.0,28.0,0.0,0.0,8.0,180.0,,,,,,608b0f7f4699c09aa348c57f,16:47:59,27/03/2024
html-keyboard-response,156,365057,0.0-65.0-1.0,,"<div style=""display: flex; flex-direction: column; align-items: center; margin-top: -40px;""><img src=""images/pattern_1.png"" style=""width: 234px; height: 230px; margin-top: -50px;""><div style=""display: flex; justify-content: space-between; margin-top: 33px;""><img src=""images/choice_trial_8.png"" style=""width: 408px; height: 417px; margin-left:608px;""></div></div>",,delaylearn,learning,display_response,xemAxAXZ26VnlBlobgUxjViuD6s1,xemAxAXZ26VnlBlobgUxjViuD6s1,,,,,,,,,,,,,,,,,chosen stimuli: images/choice_trial_8.png,,,,,608b0f7f4699c09aa348c57f,16:47:59,27/03/2024
html-keyboard-response,157,372071,0.0-65.0-2.0,,,,delaylearn,learning,feedback_duration_window,xemAxAXZ26VnlBlobgUxjViuD6s1,xemAxAXZ26VnlBlobgUxjViuD6s1,,,,,,,,,,,,,,,,,,7000.0,,,,608b0f7f4699c09aa348c57f,16:47:59,27/03/2024
html-keyboard-response,158,373589,0.0-65.0-3.0,,<div style='margin:auto;width: auto; font-size: 150%'><span style='font-weight: bold; font-size: 100px; color: red;'>0 points!</span><br><br></div>,,delaylearn,learning,feedback_image_window,xemAxAXZ26VnlBlobgUxjViuD6s1,xemAxAXZ26VnlBlobgUxjViuD6s1,,,,,,,,,,,,,,,,,,,,,,608b0f7f4699c09aa348c57f,16:47:59,27/03/2024
html-keyboard-response,159,375263,0.0-66.0,,"<div style=""font-size:100px;"">+</div>",,delaylearn,learning,ITI,xemAxAXZ26VnlBlobgUxjViuD6s1,xemAxAXZ26VnlBlobgUxjViuD6s1,,,,,,,,,,,,,,,,,,,1656.0,,,608b0f7f4699c09aa348c57f,16:47:59,27/03/2024
html-keyboard-response,160,376489,0.0-67.0-0.0,1216.6000003814697,"<div style=""display: flex; flex-direction: column; align-items: center; margin-top: -40px;""><img src=""images/pattern_5.png"" style=""width: 234px; height: 230px; margin-top: -50px;""><div style=""display: flex; justify-content: space-between; margin-top: 33px;""><img src=""images/choice_trial_11.png"" style=""width: 408px; height: 417px; margin-right: 200px;""><img src=""images/choice_trial_2.png"" style=""width: 408px; height: 417px;""></div></div>",f,delaylearn,learning,trial,xemAxAXZ26VnlBlobgUxjViuD6s1,xemAxAXZ26VnlBlobgUxjViuD6s1,3.0,images/choice_trial_11.png,images/choice_trial_2.png,images/pattern_5.png,f,f,750.0,11.0,2.0,4.0,0.0,29.0,1.0,1.0,11.0,190.0,,,,,,608b0f7f4699c09aa348c57f,16:47:59,27/03/2024
html-keyboard-response,161,377507,0.0-67.0-1.0,,"<div style=""display: flex; flex-direction: column; align-items: center; margin-top: -40px;""><img src=""images/pattern_5.png"" style=""width: 234px; height: 230px; margin-top: -50px;""><div style=""display: flex; justify-content: space-between; margin-top: 33px;""><img src=""images/choice_trial_11.png"" style=""width: 408px; height: 417px; margin-right: 608px;""></div></div>",,delaylearn,learning,display_response,xemAxAXZ26VnlBlobgUxjViuD6s1,xemAxAXZ26VnlBlobgUxjViuD6s1,,,,,,,,,,,,,,,,,chosen stimuli: images/choice_trial_11.png,,,,,608b0f7f4699c09aa348c57f,16:47:59,27/03/2024
html-keyboard-response,162,378273,0.0-67.0-2.0,,,,delaylearn,learning,feedback_duration_window,xemAxAXZ26VnlBlobgUxjViuD6s1,xemAxAXZ26VnlBlobgUxjViuD6s1,,,,,,,,,,,,,,,,,,750.0,,,,608b0f7f4699c09aa348c57f,16:47:59,27/03/2024
html-keyboard-response,163,379790,0.0-67.0-3.0,,<div style='margin:auto;width: auto; font-size: 150%'><span style='font-weight: bold; font-size: 100px; color: green;'>+10 points!</span><br><br></div>,,delaylearn,learning,feedback_image_window,xemAxAXZ26VnlBlobgUxjViuD6s1,xemAxAXZ26VnlBlobgUxjViuD6s1,,,,,,,,,,,,,,,,,,,,,,608b0f7f4699c09aa348c57f,16:47:59,27/03/2024
html-keyboard-response,164,381713,0.0-68.0,,"<div style=""font-size:100px;"">+</div>",,delaylearn,learning,ITI,xemAxAXZ26VnlBlobgUxjViuD6s1,xemAxAXZ26VnlBlobgUxjViuD6s1,,,,,,,,,,,,,,,,,,,1917.0,,,608b0f7f4699c09aa348c57f,16:47:59,27/03/2024
html-keyboard-response,165,383626,0.0-69.0-0.0,1901.6000003814697,"<div style=""display: flex; flex-direction: column; align-items: center; margin-top: -40px;""><img src=""images/pattern_6.png"" style=""width: 234px; height: 230px; margin-top: -50px;""><div style=""display: flex; justify-content: space-between; margin-top: 33px;""><img src=""images/choice_trial_3.png"" style=""width: 408px; height: 417px; margin-right: 200px;""><img src=""images/choice_trial_16.png"" style=""width: 408px; height: 417px;""></div></div>",f,delaylearn,learning,trial,xemAxAXZ26VnlBlobgUxjViuD6s1,xemAxAXZ26VnlBlobgUxjViuD6s1,3.0,images/choice_trial_3.png,images/choice_trial_16.png,images/pattern_6.png,j,j,750.0,3.0,16.0,5.0,1.0,30.0,0.0,0.0,3.0,190.0,,,,,,608b0f7f4699c09aa348c57f,16:47:59,27/03/2024
html-keyboard-response,166,384641,0.0-69.0-1.0,,"<div style=""display: flex; flex-direction: column; align-items: center; margin-top: -40px;""><img src=""images/pattern_6.png"" style=""width: 234px; height: 230px; margin-top: -50px;""><div style=""display: flex; justify-content: space-between; margin-top: 33px;""><img src=""images/choice_trial_3.png"" style=""width: 408px; height: 417px; margin-right: 608px;""></div></div>",,delaylearn,learning,display_response,xemAxAXZ26VnlBlobgUxjViuD6s1,xemAxAXZ26VnlBlobgUxjViuD6s1,,,,,,,,,,,,,,,,,chosen stimuli: images/choice_trial_3.png,,,,,608b0f7f4699c09aa348c57f,16:47:59,27/03/2024
html-keyboard-response,167,385407,0.0-69.0-2.0,,,,delaylearn,learning,feedback_duration_window,xemAxAXZ26VnlBlobgUxjViuD6s1,xemAxAXZ26VnlBlobgUxjViuD6s1,,,,,,,,,,,,,,,,,,750.0,,,,608b0f7f4699c09aa348c57f,16:47:59,27/03/2024
html-keyboard-response,168,386923,0.0-69.0-3.0,,<div style='margin:auto;width: auto; font-size: 150%'><span style='font-weight: bold; font-size: 100px; color: red;'>0 points!</span><br><br></div>,,delaylearn,learning,feedback_image_window,xemAxAXZ26VnlBlobgUxjViuD6s1,xemAxAXZ26VnlBlobgUxjViuD6s1,,,,,,,,,,,,,,,,,,,,,,608b0f7f4699c09aa348c57f,16:47:59,27/03/2024
html-keyboard-response,169,387428,0.0-70.0-0.0,,,,,,mood_trial_fixation,xemAxAXZ26VnlBlobgUxjViuD6s1,,,,,,,,,,,,,,,,,,,,,,,608b0f7f4699c09aa348c57f,16:47:59,27/03/2024
lmdlab-html-vas-response,170,394362,0.0-70.0-1.0,5911.0,How happy are you right now?,0.4699074074074074,delaylearn,learning,mood_trial,xemAxAXZ26VnlBlobgUxjViuD6s1,xemAxAXZ26VnlBlobgUxjViuD6s1,,,,,,,,,,,,,,,,,,,,"['Very unhappy', 'Very happy']",,608b0f7f4699c09aa348c57f,16:47:59,27/03/2024
html-keyboard-response,171,396619,0.0-71.0,,"<div style=""font-size:100px;"">+</div>",,delaylearn,learning,ITI,xemAxAXZ26VnlBlobgUxjViuD6s1,xemAxAXZ26VnlBlobgUxjViuD6s1,,,,,,,,,,,,,,,,,,,2244.0,,,608b0f7f4699c09aa348c57f,16:47:59,27/03/2024
html-keyboard-response,172,398119,0.0-72.0-0.0,1492.5,"<div style=""display: flex; flex-direction: column; align-items: center; margin-top: -40px;""><img src=""images/pattern_4.png"" style=""width: 234px; height: 230px; margin-top: -50px;""><div style=""display: flex; justify-content: space-between; margin-top: 33px;""><img src=""images/choice_trial_9.png"" style=""width: 408px; height: 417px; margin-right: 200px;""><img src=""images/choice_trial_15.png"" style=""width: 408px; height: 417px;""></div></div>",f,delaylearn,learning,trial,xemAxAXZ26VnlBlobgUxjViuD6s1,xemAxAXZ26VnlBlobgUxjViuD6s1,3.0,images/choice_trial_9.png,images/choice_trial_15.png,images/pattern_4.png,j,j,7000.0,9.0,15.0,3.0,1.0,31.0,0.0,0.0,9.0,190.0,,,,,,608b0f7f4699c09aa348c57f,16:47:59,27/03/2024
html-keyboard-response,173,399140,0.0-72.0-1.0,,"<div style=""display: flex; flex-direction: column; align-items: center; margin-top: -40px;""><img src=""images/pattern_4.png"" style=""width: 234px; height: 230px; margin-top: -50px;""><div style=""display: flex; justify-content: space-between; margin-top: 33px;""><img src=""images/choice_trial_9.png"" style=""width: 408px; height: 417px; margin-right: 608px;""></div></div>",,delaylearn,learning,display_response,xemAxAXZ26VnlBlobgUxjViuD6s1,xemAxAXZ26VnlBlobgUxjViuD6s1,,,,,,,,,,,,,,,,,chosen stimuli: images/choice_trial_9.png,,,,,608b0f7f4699c09aa348c57f,16:47:59,27/03/2024
html-keyboard-response,174,406155,0.0-72.0-2.0,,,,delaylearn,learning,feedback_duration_window,xemAxAXZ26VnlBlobgUxjViuD6s1,xemAxAXZ26VnlBlobgUxjViuD6s1,,,,,,,,,,,,,,,,,,7000.0,,,,608b0f7f4699c09aa348c57f,16:47:59,27/03/2024
html-keyboard-response,175,407675,0.0-72.0-3.0,,<div style='margin:auto;width: auto; font-size: 150%'><span style='font-weight: bold; font-size: 100px; color: red;'>0 points!</span><br><br></div>,,delaylearn,learning,feedback_image_window,xemAxAXZ26VnlBlobgUxjViuD6s1,xemAxAXZ26VnlBlobgUxjViuD6s1,,,,,,,,,,,,,,,,,,,,,,608b0f7f4699c09aa348c57f,16:47:59,27/03/2024
html-keyboard-response,176,409752,0.0-73.0,,"<div style=""font-size:100px;"">+</div>",,delaylearn,learning,ITI,xemAxAXZ26VnlBlobgUxjViuD6s1,xemAxAXZ26VnlBlobgUxjViuD6s1,,,,,,,,,,,,,,,,,,,2063.0,,,608b0f7f4699c09aa348c57f,16:47:59,27/03/2024
html-keyboard-response,177,410715,0.0-74.0-0.0,953.5,"<div style=""display: flex; flex-direction: column; align-items: center; margin-top: -40px;""><img src=""images/pattern_3.png"" style=""width: 234px; height: 230px; margin-top: -50px;""><div style=""display: flex; justify-content: space-between; margin-top: 33px;""><img src=""images/choice_trial_10.png"" style=""width: 408px; height: 417px; margin-right: 200px;""><img src=""images/choice_trial_13.png"" style=""width: 408px; height: 417px;""></div></div>",j,delaylearn,learning,trial,xemAxAXZ26VnlBlobgUxjViuD6s1,xemAxAXZ26VnlBlobgUxjViuD6s1,3.0,images/choice_trial_10.png,images/choice_trial_13.png,images/pattern_3.png,j,j,7000.0,10.0,13.0,2.0,1.0,32.0,1.0,1.0,13.0,200.0,,,,,,608b0f7f4699c09aa348c57f,16:47:59,27/03/2024
html-keyboard-response,178,411725,0.0-74.0-1.0,,"<div style=""display: flex; flex-direction: column; align-items: center; margin-top: -40px;""><img src=""images/pattern_3.png"" style=""width: 234px; height: 230px; margin-top: -50px;""><div style=""display: flex; justify-content: space-between; margin-top: 33px;""><img src=""images/choice_trial_13.png"" style=""width: 408px; height: 417px; margin-left:608px;""></div></div>",,delaylearn,learning,display_response,xemAxAXZ26VnlBlobgUxjViuD6s1,xemAxAXZ26VnlBlobgUxjViuD6s1,,,,,,,,,,,,,,,,,chosen stimuli: images/choice_trial_13.png,,,,,608b0f7f4699c09aa348c57f,16:47:59,27/03/2024
html-keyboard-response,179,418739,0.0-74.0-2.0,,,,delaylearn,learning,feedback_duration_window,xemAxAXZ26VnlBlobgUxjViuD6s1,xemAxAXZ26VnlBlobgUxjViuD6s1,,,,,,,,,,,,,,,,,,7000.0,,,,608b0f7f4699c09aa348c57f,16:47:59,27/03/2024
html-keyboard-response,180,420259,0.0-74.0-3.0,,<div style='margin:auto;width: auto; font-size: 150%'><span style='font-weight: bold; font-size: 100px; color: green;'>+10 points!</span><br><br></div>,,delaylearn,learning,feedback_image_window,xemAxAXZ26VnlBlobgUxjViuD6s1,xemAxAXZ26VnlBlobgUxjViuD6s1,,,,,,,,,,,,,,,,,,,,,,608b0f7f4699c09aa348c57f,16:47:59,27/03/2024
html-keyboard-response,181,422227,0.0-75.0,,"<div style=""font-size:100px;"">+</div>",,delaylearn,learning,ITI,xemAxAXZ26VnlBlobgUxjViuD6s1,xemAxAXZ26VnlBlobgUxjViuD6s1,,,,,,,,,,,,,,,,,,,1957.0,,,608b0f7f4699c09aa348c57f,16:47:59,27/03/2024
html-keyboard-response,182,423094,0.0-76.0-0.0,858.6000003814697,"<div style=""display: flex; flex-direction: column; align-items: center; margin-top: -40px;""><img src=""images/pattern_5.png"" style=""width: 234px; height: 230px; margin-top: -50px;""><div style=""display: flex; justify-content: space-between; margin-top: 33px;""><img src=""images/choice_trial_11.png"" style=""width: 408px; height: 417px; margin-right: 200px;""><img src=""images/choice_trial_2.png"" style=""width: 408px; height: 417px;""></div></div>",f,delaylearn,learning,trial,xemAxAXZ26VnlBlobgUxjViuD6s1,xemAxAXZ26VnlBlobgUxjViuD6s1,3.0,images/choice_trial_11.png,images/choice_trial_2.png,images/pattern_5.png,j,f,750.0,11.0,2.0,4.0,0.0,33.0,1.0,0.0,11.0,200.0,,,,,,608b0f7f4699c09aa348c57f,16:47:59,27/03/2024
html-keyboard-response,183,424108,0.0-76.0-1.0,,"<div style=""display: flex; flex-direction: column; align-items: center; margin-top: -40px;""><img src=""images/pattern_5.png"" style=""width: 234px; height: 230px; margin-top: -50px;""><div style=""display: flex; justify-content: space-between; margin-top: 33px;""><img src=""images/choice_trial_11.png"" style=""width: 408px; height: 417px; margin-right: 608px;""></div></div>",,delaylearn,learning,display_response,xemAxAXZ26VnlBlobgUxjViuD6s1,xemAxAXZ26VnlBlobgUxjViuD6s1,,,,,,,,,,,,,,,,,chosen stimuli: images/choice_trial_11.png,,,,,608b0f7f4699c09aa348c57f,16:47:59,27/03/2024
html-keyboard-response,184,424875,0.0-76.0-2.0,,,,delaylearn,learning,feedback_duration_window,xemAxAXZ26VnlBlobgUxjViuD6s1,xemAxAXZ26VnlBlobgUxjViuD6s1,,,,,,,,,,,,,,,,,,750.0,,,,608b0f7f4699c09aa348c57f,16:47:59,27/03/2024
html-keyboard-response,185,426391,0.0-76.0-3.0,,<div style='margin:auto;width: auto; font-size: 150%'><span style='font-weight: bold; font-size: 100px; color: red;'>0 points!</span><br><br></div>,,delaylearn,learning,feedback_image_window,xemAxAXZ26VnlBlobgUxjViuD6s1,xemAxAXZ26VnlBlobgUxjViuD6s1,,,,,,,,,,,,,,,,,,,,,,608b0f7f4699c09aa348c57f,16:47:59,27/03/2024
html-keyboard-response,186,428173,0.0-77.0,,"<div style=""font-size:100px;"">+</div>",,delaylearn,learning,ITI,xemAxAXZ26VnlBlobgUxjViuD6s1,xemAxAXZ26VnlBlobgUxjViuD6s1,,,,,,,,,,,,,,,,,,,1765.0,,,608b0f7f4699c09aa348c57f,16:47:59,27/03/2024
html-keyboard-response,187,429574,0.0-78.0-0.0,1392.099998474121,"<div style=""display: flex; flex-direction: column; align-items: center; margin-top: -40px;""><img src=""images/pattern_1.png"" style=""width: 234px; height: 230px; margin-top: -50px;""><div style=""display: flex; justify-content: space-between; margin-top: 33px;""><img src=""images/choice_trial_14.png"" style=""width: 408px; height: 417px; margin-right: 200px;""><img src=""images/choice_trial_8.png"" style=""width: 408px; height: 417px;""></div></div>",f,delaylearn,learning,trial,xemAxAXZ26VnlBlobgUxjViuD6s1,xemAxAXZ26VnlBlobgUxjViuD6s1,3.0,images/choice_trial_14.png,images/choice_trial_8.png,images/pattern_1.png,f,f,7000.0,14.0,8.0,1.0,0.0,34.0,1.0,1.0,14.0,210.0,,,,,,608b0f7f4699c09aa348c57f,16:47:59,27/03/2024
html-keyboard-response,188,430592,0.0-78.0-1.0,,"<div style=""display: flex; flex-direction: column; align-items: center; margin-top: -40px;""><img src=""images/pattern_1.png"" style=""width: 234px; height: 230px; margin-top: -50px;""><div style=""display: flex; justify-content: space-between; margin-top: 33px;""><img src=""images/choice_trial_14.png"" style=""width: 408px; height: 417px; margin-right: 608px;""></div></div>",,delaylearn,learning,display_response,xemAxAXZ26VnlBlobgUxjViuD6s1,xemAxAXZ26VnlBlobgUxjViuD6s1,,,,,,,,,,,,,,,,,chosen stimuli: images/choice_trial_14.png,,,,,608b0f7f4699c09aa348c57f,16:47:59,27/03/2024
html-keyboard-response,189,437606,0.0-78.0-2.0,,,,delaylearn,learning,feedback_duration_window,xemAxAXZ26VnlBlobgUxjViuD6s1,xemAxAXZ26VnlBlobgUxjViuD6s1,,,,,,,,,,,,,,,,,,7000.0,,,,608b0f7f4699c09aa348c57f,16:47:59,27/03/2024
html-keyboard-response,190,439126,0.0-78.0-3.0,,<div style='margin:auto;width: auto; font-size: 150%'><span style='font-weight: bold; font-size: 100px; color: green;'>+10 points!</span><br><br></div>,,delaylearn,learning,feedback_image_window,xemAxAXZ26VnlBlobgUxjViuD6s1,xemAxAXZ26VnlBlobgUxjViuD6s1,,,,,,,,,,,,,,,,,,,,,,608b0f7f4699c09aa348c57f,16:47:59,27/03/2024
html-keyboard-response,191,439642,0.0-79.0-0.0,,,,,,mood_trial_fixation,xemAxAXZ26VnlBlobgUxjViuD6s1,,,,,,,,,,,,,,,,,,,,,,,608b0f7f4699c09aa348c57f,16:47:59,27/03/2024
lmdlab-html-vas-response,192,446442,0.0-79.0-1.0,5780.0,How happy are you right now?,0.4791666666666667,delaylearn,learning,mood_trial,xemAxAXZ26VnlBlobgUxjViuD6s1,xemAxAXZ26VnlBlobgUxjViuD6s1,,,,,,,,,,,,,,,,,,,,"['Very unhappy', 'Very happy']",,608b0f7f4699c09aa348c57f,16:47:59,27/03/2024
html-keyboard-response,193,448835,0.0-80.0,,"<div style=""font-size:100px;"">+</div>",,delaylearn,learning,ITI,xemAxAXZ26VnlBlobgUxjViuD6s1,xemAxAXZ26VnlBlobgUxjViuD6s1,,,,,,,,,,,,,,,,,,,2385.0,,,608b0f7f4699c09aa348c57f,16:47:59,27/03/2024
html-keyboard-response,194,450026,0.0-81.0-0.0,1181.900001525879,"<div style=""display: flex; flex-direction: column; align-items: center; margin-top: -40px;""><img src=""images/pattern_6.png"" style=""width: 234px; height: 230px; margin-top: -50px;""><div style=""display: flex; justify-content: space-between; margin-top: 33px;""><img src=""images/choice_trial_16.png"" style=""width: 408px; height: 417px; margin-right: 200px;""><img src=""images/choice_trial_3.png"" style=""width: 408px; height: 417px;""></div></div>",j,delaylearn,learning,trial,xemAxAXZ26VnlBlobgUxjViuD6s1,xemAxAXZ26VnlBlobgUxjViuD6s1,3.0,images/choice_trial_16.png,images/choice_trial_3.png,images/pattern_6.png,j,f,750.0,16.0,3.0,5.0,0.0,35.0,0.0,1.0,3.0,220.0,,,,,,608b0f7f4699c09aa348c57f,16:47:59,27/03/2024
html-keyboard-response,195,451043,0.0-81.0-1.0,,"<div style=""display: flex; flex-direction: column; align-items: center; margin-top: -40px;""><img src=""images/pattern_6.png"" style=""width: 234px; height: 230px; margin-top: -50px;""><div style=""display: flex; justify-content: space-between; margin-top: 33px;""><img src=""images/choice_trial_3.png"" style=""width: 408px; height: 417px; margin-left:608px;""></div></div>",,delaylearn,learning,display_response,xemAxAXZ26VnlBlobgUxjViuD6s1,xemAxAXZ26VnlBlobgUxjViuD6s1,,,,,,,,,,,,,,,,,chosen stimuli: images/choice_trial_3.png,,,,,608b0f7f4699c09aa348c57f,16:47:59,27/03/2024
html-keyboard-response,196,451809,0.0-81.0-2.0,,,,delaylearn,learning,feedback_duration_window,xemAxAXZ26VnlBlobgUxjViuD6s1,xemAxAXZ26VnlBlobgUxjViuD6s1,,,,,,,,,,,,,,,,,,750.0,,,,608b0f7f4699c09aa348c57f,16:47:59,27/03/2024
html-keyboard-response,197,453325,0.0-81.0-3.0,,<div style='margin:auto;width: auto; font-size: 150%'><span style='font-weight: bold; font-size: 100px; color: green;'>+10 points!</span><br><br></div>,,delaylearn,learning,feedback_image_window,xemAxAXZ26VnlBlobgUxjViuD6s1,xemAxAXZ26VnlBlobgUxjViuD6s1,,,,,,,,,,,,,,,,,,,,,,608b0f7f4699c09aa348c57f,16:47:59,27/03/2024
html-keyboard-response,198,454951,0.0-82.0,,"<div style=""font-size:100px;"">+</div>",,delaylearn,learning,ITI,xemAxAXZ26VnlBlobgUxjViuD6s1,xemAxAXZ26VnlBlobgUxjViuD6s1,,,,,,,,,,,,,,,,,,,1608.0,,,608b0f7f4699c09aa348c57f,16:47:59,27/03/2024
html-keyboard-response,199,455799,0.0-83.0-0.0,838.8999996185303,"<div style=""display: flex; flex-direction: column; align-items: center; margin-top: -40px;""><img src=""images/pattern_3.png"" style=""width: 234px; height: 230px; margin-top: -50px;""><div style=""display: flex; justify-content: space-between; margin-top: 33px;""><img src=""images/choice_trial_10.png"" style=""width: 408px; height: 417px; margin-right: 200px;""><img src=""images/choice_trial_13.png"" style=""width: 408px; height: 417px;""></div></div>",j,delaylearn,learning,trial,xemAxAXZ26VnlBlobgUxjViuD6s1,xemAxAXZ26VnlBlobgUxjViuD6s1,3.0,images/choice_trial_10.png,images/choice_trial_13.png,images/pattern_3.png,j,j,7000.0,10.0,13.0,2.0,1.0,36.0,1.0,1.0,13.0,230.0,,,,,,608b0f7f4699c09aa348c57f,16:47:59,27/03/2024
html-keyboard-response,200,456810,0.0-83.0-1.0,,"<div style=""display: flex; flex-direction: column; align-items: center; margin-top: -40px;""><img src=""images/pattern_3.png"" style=""width: 234px; height: 230px; margin-top: -50px;""><div style=""display: flex; justify-content: space-between; margin-top: 33px;""><img src=""images/choice_trial_13.png"" style=""width: 408px; height: 417px; margin-left:608px;""></div></div>",,delaylearn,learning,display_response,xemAxAXZ26VnlBlobgUxjViuD6s1,xemAxAXZ26VnlBlobgUxjViuD6s1,,,,,,,,,,,,,,,,,chosen stimuli: images/choice_trial_13.png,,,,,608b0f7f4699c09aa348c57f,16:47:59,27/03/2024
html-keyboard-response,201,463824,0.0-83.0-2.0,,,,delaylearn,learning,feedback_duration_window,xemAxAXZ26VnlBlobgUxjViuD6s1,xemAxAXZ26VnlBlobgUxjViuD6s1,,,,,,,,,,,,,,,,,,7000.0,,,,608b0f7f4699c09aa348c57f,16:47:59,27/03/2024
html-keyboard-response,202,465342,0.0-83.0-3.0,,<div style='margin:auto;width: auto; font-size: 150%'><span style='font-weight: bold; font-size: 100px; color: green;'>+10 points!</span><br><br></div>,,delaylearn,learning,feedback_image_window,xemAxAXZ26VnlBlobgUxjViuD6s1,xemAxAXZ26VnlBlobgUxjViuD6s1,,,,,,,,,,,,,,,,,,,,,,608b0f7f4699c09aa348c57f,16:47:59,27/03/2024
html-keyboard-response,203,467124,0.0-84.0,,"<div style=""font-size:100px;"">+</div>",,delaylearn,learning,ITI,xemAxAXZ26VnlBlobgUxjViuD6s1,xemAxAXZ26VnlBlobgUxjViuD6s1,,,,,,,,,,,,,,,,,,,1778.0,,,608b0f7f4699c09aa348c57f,16:47:59,27/03/2024
html-keyboard-response,204,468560,0.0-85.0-0.0,1427.2999992370605,"<div style=""display: flex; flex-direction: column; align-items: center; margin-top: -40px;""><img src=""images/pattern_4.png"" style=""width: 234px; height: 230px; margin-top: -50px;""><div style=""display: flex; justify-content: space-between; margin-top: 33px;""><img src=""images/choice_trial_9.png"" style=""width: 408px; height: 417px; margin-right: 200px;""><img src=""images/choice_trial_15.png"" style=""width: 408px; height: 417px;""></div></div>",j,delaylearn,learning,trial,xemAxAXZ26VnlBlobgUxjViuD6s1,xemAxAXZ26VnlBlobgUxjViuD6s1,3.0,images/choice_trial_9.png,images/choice_trial_15.png,images/pattern_4.png,f,j,7000.0,9.0,15.0,3.0,1.0,37.0,1.0,0.0,15.0,230.0,,,,,,608b0f7f4699c09aa348c57f,16:47:59,27/03/2024
html-keyboard-response,205,469577,0.0-85.0-1.0,,"<div style=""display: flex; flex-direction: column; align-items: center; margin-top: -40px;""><img src=""images/pattern_4.png"" style=""width: 234px; height: 230px; margin-top: -50px;""><div style=""display: flex; justify-content: space-between; margin-top: 33px;""><img src=""images/choice_trial_15.png"" style=""width: 408px; height: 417px; margin-left:608px;""></div></div>",,delaylearn,learning,display_response,xemAxAXZ26VnlBlobgUxjViuD6s1,xemAxAXZ26VnlBlobgUxjViuD6s1,,,,,,,,,,,,,,,,,chosen stimuli: images/choice_trial_15.png,,,,,608b0f7f4699c09aa348c57f,16:47:59,27/03/2024
html-keyboard-response,206,476591,0.0-85.0-2.0,,,,delaylearn,learning,feedback_duration_window,xemAxAXZ26VnlBlobgUxjViuD6s1,xemAxAXZ26VnlBlobgUxjViuD6s1,,,,,,,,,,,,,,,,,,7000.0,,,,608b0f7f4699c09aa348c57f,16:47:59,27/03/2024
html-keyboard-response,207,478110,0.0-85.0-3.0,,<div style='margin:auto;width: auto; font-size: 150%'><span style='font-weight: bold; font-size: 100px; color: red;'>0 points!</span><br><br></div>,,delaylearn,learning,feedback_image_window,xemAxAXZ26VnlBlobgUxjViuD6s1,xemAxAXZ26VnlBlobgUxjViuD6s1,,,,,,,,,,,,,,,,,,,,,,608b0f7f4699c09aa348c57f,16:47:59,27/03/2024
html-keyboard-response,208,480064,0.0-86.0,,"<div style=""font-size:100px;"">+</div>",,delaylearn,learning,ITI,xemAxAXZ26VnlBlobgUxjViuD6s1,xemAxAXZ26VnlBlobgUxjViuD6s1,,,,,,,,,,,,,,,,,,,1946.0,,,608b0f7f4699c09aa348c57f,16:47:59,27/03/2024
html-keyboard-response,209,481212,0.0-87.0-0.0,1137.2000007629395,"<div style=""display: flex; flex-direction: column; align-items: center; margin-top: -40px;""><img src=""images/pattern_7.png"" style=""width: 234px; height: 230px; margin-top: -50px;""><div style=""display: flex; justify-content: space-between; margin-top: 33px;""><img src=""images/choice_trial_6.png"" style=""width: 408px; height: 417px; margin-right: 200px;""><img src=""images/choice_trial_12.png"" style=""width: 408px; height: 417px;""></div></div>",f,delaylearn,learning,trial,xemAxAXZ26VnlBlobgUxjViuD6s1,xemAxAXZ26VnlBlobgUxjViuD6s1,3.0,images/choice_trial_6.png,images/choice_trial_12.png,images/pattern_7.png,f,f,750.0,6.0,12.0,6.0,0.0,38.0,1.0,1.0,6.0,240.0,,,,,,608b0f7f4699c09aa348c57f,16:47:59,27/03/2024
html-keyboard-response,210,482227,0.0-87.0-1.0,,"<div style=""display: flex; flex-direction: column; align-items: center; margin-top: -40px;""><img src=""images/pattern_7.png"" style=""width: 234px; height: 230px; margin-top: -50px;""><div style=""display: flex; justify-content: space-between; margin-top: 33px;""><img src=""images/choice_trial_6.png"" style=""width: 408px; height: 417px; margin-right: 608px;""></div></div>",,delaylearn,learning,display_response,xemAxAXZ26VnlBlobgUxjViuD6s1,xemAxAXZ26VnlBlobgUxjViuD6s1,,,,,,,,,,,,,,,,,chosen stimuli: images/choice_trial_6.png,,,,,608b0f7f4699c09aa348c57f,16:47:59,27/03/2024
html-keyboard-response,211,482993,0.0-87.0-2.0,,,,delaylearn,learning,feedback_duration_window,xemAxAXZ26VnlBlobgUxjViuD6s1,xemAxAXZ26VnlBlobgUxjViuD6s1,,,,,,,,,,,,,,,,,,750.0,,,,608b0f7f4699c09aa348c57f,16:47:59,27/03/2024
html-keyboard-response,212,484509,0.0-87.0-3.0,,<div style='margin:auto;width: auto; font-size: 150%'><span style='font-weight: bold; font-size: 100px; color: green;'>+10 points!</span><br><br></div>,,delaylearn,learning,feedback_image_window,xemAxAXZ26VnlBlobgUxjViuD6s1,xemAxAXZ26VnlBlobgUxjViuD6s1,,,,,,,,,,,,,,,,,,,,,,608b0f7f4699c09aa348c57f,16:47:59,27/03/2024
html-keyboard-response,213,486385,0.0-88.0,,"<div style=""font-size:100px;"">+</div>",,delaylearn,learning,ITI,xemAxAXZ26VnlBlobgUxjViuD6s1,xemAxAXZ26VnlBlobgUxjViuD6s1,,,,,,,,,,,,,,,,,,,1869.0,,,608b0f7f4699c09aa348c57f,16:47:59,27/03/2024
html-keyboard-response,214,487734,0.0-89.0-0.0,1338.8999996185303,"<div style=""display: flex; flex-direction: column; align-items: center; margin-top: -40px;""><img src=""images/pattern_1.png"" style=""width: 234px; height: 230px; margin-top: -50px;""><div style=""display: flex; justify-content: space-between; margin-top: 33px;""><img src=""images/choice_trial_14.png"" style=""width: 408px; height: 417px; margin-right: 200px;""><img src=""images/choice_trial_8.png"" style=""width: 408px; height: 417px;""></div></div>",f,delaylearn,learning,trial,xemAxAXZ26VnlBlobgUxjViuD6s1,xemAxAXZ26VnlBlobgUxjViuD6s1,3.0,images/choice_trial_14.png,images/choice_trial_8.png,images/pattern_1.png,f,f,7000.0,14.0,8.0,1.0,0.0,39.0,1.0,1.0,14.0,250.0,,,,,,608b0f7f4699c09aa348c57f,16:47:59,27/03/2024
html-keyboard-response,215,488745,0.0-89.0-1.0,,"<div style=""display: flex; flex-direction: column; align-items: center; margin-top: -40px;""><img src=""images/pattern_1.png"" style=""width: 234px; height: 230px; margin-top: -50px;""><div style=""display: flex; justify-content: space-between; margin-top: 33px;""><img src=""images/choice_trial_14.png"" style=""width: 408px; height: 417px; margin-right: 608px;""></div></div>",,delaylearn,learning,display_response,xemAxAXZ26VnlBlobgUxjViuD6s1,xemAxAXZ26VnlBlobgUxjViuD6s1,,,,,,,,,,,,,,,,,chosen stimuli: images/choice_trial_14.png,,,,,608b0f7f4699c09aa348c57f,16:47:59,27/03/2024
html-keyboard-response,216,495758,0.0-89.0-2.0,,,,delaylearn,learning,feedback_duration_window,xemAxAXZ26VnlBlobgUxjViuD6s1,xemAxAXZ26VnlBlobgUxjViuD6s1,,,,,,,,,,,,,,,,,,7000.0,,,,608b0f7f4699c09aa348c57f,16:47:59,27/03/2024
html-keyboard-response,217,497276,0.0-89.0-3.0,,<div style='margin:auto;width: auto; font-size: 150%'><span style='font-weight: bold; font-size: 100px; color: green;'>+10 points!</span><br><br></div>,,delaylearn,learning,feedback_image_window,xemAxAXZ26VnlBlobgUxjViuD6s1,xemAxAXZ26VnlBlobgUxjViuD6s1,,,,,,,,,,,,,,,,,,,,,,608b0f7f4699c09aa348c57f,16:47:59,27/03/2024
html-keyboard-response,218,497793,0.0-90.0-0.0,,,,,,mood_trial_fixation,xemAxAXZ26VnlBlobgUxjViuD6s1,,,,,,,,,,,,,,,,,,,,,,,608b0f7f4699c09aa348c57f,16:47:59,27/03/2024
lmdlab-html-vas-response,219,504215,0.0-90.0-1.0,5400.0,How happy are you right now?,0.5,delaylearn,learning,mood_trial,xemAxAXZ26VnlBlobgUxjViuD6s1,xemAxAXZ26VnlBlobgUxjViuD6s1,,,,,,,,,,,,,,,,,,,,"['Very unhappy', 'Very happy']",,608b0f7f4699c09aa348c57f,16:47:59,27/03/2024
html-keyboard-response,220,506155,0.0-91.0,,"<div style=""font-size:100px;"">+</div>",,delaylearn,learning,ITI,xemAxAXZ26VnlBlobgUxjViuD6s1,xemAxAXZ26VnlBlobgUxjViuD6s1,,,,,,,,,,,,,,,,,,,1922.0,,,608b0f7f4699c09aa348c57f,16:47:59,27/03/2024
html-keyboard-response,221,507195,0.0-92.0-0.0,1030.6000003814697,"<div style=""display: flex; flex-direction: column; align-items: center; margin-top: -40px;""><img src=""images/pattern_3.png"" style=""width: 234px; height: 230px; margin-top: -50px;""><div style=""display: flex; justify-content: space-between; margin-top: 33px;""><img src=""images/choice_trial_13.png"" style=""width: 408px; height: 417px; margin-right: 200px;""><img src=""images/choice_trial_10.png"" style=""width: 408px; height: 417px;""></div></div>",f,delaylearn,learning,trial,xemAxAXZ26VnlBlobgUxjViuD6s1,xemAxAXZ26VnlBlobgUxjViuD6s1,3.0,images/choice_trial_13.png,images/choice_trial_10.png,images/pattern_3.png,j,f,7000.0,13.0,10.0,2.0,0.0,40.0,1.0,0.0,13.0,250.0,,,,,,608b0f7f4699c09aa348c57f,16:47:59,27/03/2024
html-keyboard-response,222,508210,0.0-92.0-1.0,,"<div style=""display: flex; flex-direction: column; align-items: center; margin-top: -40px;""><img src=""images/pattern_3.png"" style=""width: 234px; height: 230px; margin-top: -50px;""><div style=""display: flex; justify-content: space-between; margin-top: 33px;""><img src=""images/choice_trial_13.png"" style=""width: 408px; height: 417px; margin-right: 608px;""></div></div>",,delaylearn,learning,display_response,xemAxAXZ26VnlBlobgUxjViuD6s1,xemAxAXZ26VnlBlobgUxjViuD6s1,,,,,,,,,,,,,,,,,chosen stimuli: images/choice_trial_13.png,,,,,608b0f7f4699c09aa348c57f,16:47:59,27/03/2024
html-keyboard-response,223,515224,0.0-92.0-2.0,,,,delaylearn,learning,feedback_duration_window,xemAxAXZ26VnlBlobgUxjViuD6s1,xemAxAXZ26VnlBlobgUxjViuD6s1,,,,,,,,,,,,,,,,,,7000.0,,,,608b0f7f4699c09aa348c57f,16:47:59,27/03/2024
html-keyboard-response,224,516744,0.0-92.0-3.0,,<div style='margin:auto;width: auto; font-size: 150%'><span style='font-weight: bold; font-size: 100px; color: red;'>0 points!</span><br><br></div>,,delaylearn,learning,feedback_image_window,xemAxAXZ26VnlBlobgUxjViuD6s1,xemAxAXZ26VnlBlobgUxjViuD6s1,,,,,,,,,,,,,,,,,,,,,,608b0f7f4699c09aa348c57f,16:47:59,27/03/2024
html-keyboard-response,225,518525,0.0-93.0,,"<div style=""font-size:100px;"">+</div>",,delaylearn,learning,ITI,xemAxAXZ26VnlBlobgUxjViuD6s1,xemAxAXZ26VnlBlobgUxjViuD6s1,,,,,,,,,,,,,,,,,,,1777.0,,,608b0f7f4699c09aa348c57f,16:47:59,27/03/2024
html-keyboard-response,226,519210,0.0-94.0-0.0,675.5,"<div style=""display: flex; flex-direction: column; align-items: center; margin-top: -40px;""><img src=""images/pattern_7.png"" style=""width: 234px; height: 230px; margin-top: -50px;""><div style=""display: flex; justify-content: space-between; margin-top: 33px;""><img src=""images/choice_trial_12.png"" style=""width: 408px; height: 417px; margin-right: 200px;""><img src=""images/choice_trial_6.png"" style=""width: 408px; height: 417px;""></div></div>",j,delaylearn,learning,trial,xemAxAXZ26VnlBlobgUxjViuD6s1,xemAxAXZ26VnlBlobgUxjViuD6s1,3.0,images/choice_trial_12.png,images/choice_trial_6.png,images/pattern_7.png,j,j,750.0,12.0,6.0,6.0,1.0,41.0,1.0,1.0,6.0,260.0,,,,,,608b0f7f4699c09aa348c57f,16:47:59,27/03/2024
html-keyboard-response,227,520227,0.0-94.0-1.0,,"<div style=""display: flex; flex-direction: column; align-items: center; margin-top: -40px;""><img src=""images/pattern_7.png"" style=""width: 234px; height: 230px; margin-top: -50px;""><div style=""display: flex; justify-content: space-between; margin-top: 33px;""><img src=""images/choice_trial_6.png"" style=""width: 408px; height: 417px; margin-left:608px;""></div></div>",,delaylearn,learning,display_response,xemAxAXZ26VnlBlobgUxjViuD6s1,xemAxAXZ26VnlBlobgUxjViuD6s1,,,,,,,,,,,,,,,,,chosen stimuli: images/choice_trial_6.png,,,,,608b0f7f4699c09aa348c57f,16:47:59,27/03/2024
html-keyboard-response,228,520993,0.0-94.0-2.0,,,,delaylearn,learning,feedback_duration_window,xemAxAXZ26VnlBlobgUxjViuD6s1,xemAxAXZ26VnlBlobgUxjViuD6s1,,,,,,,,,,,,,,,,,,750.0,,,,608b0f7f4699c09aa348c57f,16:47:59,27/03/2024
html-keyboard-response,229,522510,0.0-94.0-3.0,,<div style='margin:auto;width: auto; font-size: 150%'><span style='font-weight: bold; font-size: 100px; color: green;'>+10 points!</span><br><br></div>,,delaylearn,learning,feedback_image_window,xemAxAXZ26VnlBlobgUxjViuD6s1,xemAxAXZ26VnlBlobgUxjViuD6s1,,,,,,,,,,,,,,,,,,,,,,608b0f7f4699c09aa348c57f,16:47:59,27/03/2024
html-keyboard-response,230,524589,0.0-95.0,,"<div style=""font-size:100px;"">+</div>",,delaylearn,learning,ITI,xemAxAXZ26VnlBlobgUxjViuD6s1,xemAxAXZ26VnlBlobgUxjViuD6s1,,,,,,,,,,,,,,,,,,,2075.0,,,608b0f7f4699c09aa348c57f,16:47:59,27/03/2024
