trial_type,trial_index,time_elapsed,internal_node_id,rt,stimulus,response,exp_name,exp_stage,test_part,subjectID,databaseID,counterbal,choice_stimuli_1,choice_stimuli_2,pattern_stimuli,rewarded_answer,correct_answer,feedback_duration_times,stim_left,stim_right,pair,leftright_counter,trial,response_correct,response_rewarded,chosen_stim,counter,displayed_choice,feedback_durations,ITI_duration,labels,rest_warning,prolificID,start_time,date
pavlovia,0,570,0.0-0.0,,,,,,,b250hcFRbhaXARsyCqNWyvWrJ2L2,,,,,,,,,,,,,,,,,,,,,,,567f59e0d18c640011e7ac0b,09:05:46,27/02/2024
html-keyboard-response,1,3593,0.0-1.0,,"<div style=""font-size:100px;"">+</div>",,delaylearn,learning,pre_fixation,b250hcFRbhaXARsyCqNWyvWrJ2L2,,,,,,,,,,,,,,,,,,,,,,,567f59e0d18c640011e7ac0b,09:05:46,27/02/2024
html-keyboard-response,2,4430,0.0-2.0-0.0,834.1999999992549,"<div style=""display: flex; flex-direction: column; align-items: center; margin-top: -40px;""><img src=""images/demo_images/pattern_1.png"" style=""width: 234px; height: 230px; margin-top: -50px;""><div style=""display: flex; justify-content: space-between; margin-top: 33px;""><img src=""images/demo_images/choice_trial_2.png"" style=""width: 408px; height: 417px; margin-right: 200px;""><img src=""images/demo_images/choice_trial_1.png"" style=""width: 408px; height: 417px;""></div></div>",f,delaylearn,learning,trial,b250hcFRbhaXARsyCqNWyvWrJ2L2,b250hcFRbhaXARsyCqNWyvWrJ2L2,4.0,images/demo_images/choice_trial_2.png,images/demo_images/choice_trial_1.png,images/demo_images/pattern_1.png,j,j,3000.0,2.0,1.0,20.0,1.0,1.0,0.0,0.0,2.0,0.0,,,,,,567f59e0d18c640011e7ac0b,09:05:46,27/02/2024
html-keyboard-response,3,5436,0.0-2.0-1.0,,"<div style=""display: flex; flex-direction: column; align-items: center; margin-top: -40px;""><img src=""images/demo_images/pattern_1.png"" style=""width: 234px; height: 230px; margin-top: -50px;""><div style=""display: flex; justify-content: space-between; margin-top: 33px;""><img src=""images/demo_images/choice_trial_2.png"" style=""width: 408px; height: 417px; margin-right: 608px;""></div></div>",,delaylearn,learning,display_response,b250hcFRbhaXARsyCqNWyvWrJ2L2,b250hcFRbhaXARsyCqNWyvWrJ2L2,,,,,,,,,,,,,,,,,chosen stimuli: images/demo_images/choice_trial_2.png,,,,,567f59e0d18c640011e7ac0b,09:05:46,27/02/2024
html-keyboard-response,4,8451,0.0-2.0-2.0,,,,delaylearn,learning,feedback_duration_window,b250hcFRbhaXARsyCqNWyvWrJ2L2,b250hcFRbhaXARsyCqNWyvWrJ2L2,,,,,,,,,,,,,,,,,,3000.0,,,,567f59e0d18c640011e7ac0b,09:05:46,27/02/2024
html-keyboard-response,5,9967,0.0-2.0-3.0,,<div style='margin:auto;width: auto; font-size: 150%'><span style='font-weight: bold; font-size: 100px; color: red;'>0 points!</span><br><br></div>,,delaylearn,learning,feedback_image_window,b250hcFRbhaXARsyCqNWyvWrJ2L2,b250hcFRbhaXARsyCqNWyvWrJ2L2,,,,,,,,,,,,,,,,,,,,,,567f59e0d18c640011e7ac0b,09:05:46,27/02/2024
html-keyboard-response,6,12092,0.0-3.0,,"<div style=""font-size:100px;"">+</div>",,delaylearn,learning,ITI,b250hcFRbhaXARsyCqNWyvWrJ2L2,b250hcFRbhaXARsyCqNWyvWrJ2L2,,,,,,,,,,,,,,,,,,,2110.0,,,567f59e0d18c640011e7ac0b,09:05:46,27/02/2024
html-keyboard-response,7,12823,0.0-4.0-0.0,726.8999999994412,"<div style=""display: flex; flex-direction: column; align-items: center; margin-top: -40px;""><img src=""images/demo_images/pattern_1.png"" style=""width: 234px; height: 230px; margin-top: -50px;""><div style=""display: flex; justify-content: space-between; margin-top: 33px;""><img src=""images/demo_images/choice_trial_2.png"" style=""width: 408px; height: 417px; margin-right: 200px;""><img src=""images/demo_images/choice_trial_1.png"" style=""width: 408px; height: 417px;""></div></div>",j,delaylearn,learning,trial,b250hcFRbhaXARsyCqNWyvWrJ2L2,b250hcFRbhaXARsyCqNWyvWrJ2L2,4.0,images/demo_images/choice_trial_2.png,images/demo_images/choice_trial_1.png,images/demo_images/pattern_1.png,j,j,3000.0,2.0,1.0,20.0,1.0,2.0,1.0,1.0,1.0,10.0,,,,,,567f59e0d18c640011e7ac0b,09:05:46,27/02/2024
html-keyboard-response,8,13826,0.0-4.0-1.0,,"<div style=""display: flex; flex-direction: column; align-items: center; margin-top: -40px;""><img src=""images/demo_images/pattern_1.png"" style=""width: 234px; height: 230px; margin-top: -50px;""><div style=""display: flex; justify-content: space-between; margin-top: 33px;""><img src=""images/demo_images/choice_trial_1.png"" style=""width: 408px; height: 417px; margin-left:608px;""></div></div>",,delaylearn,learning,display_response,b250hcFRbhaXARsyCqNWyvWrJ2L2,b250hcFRbhaXARsyCqNWyvWrJ2L2,,,,,,,,,,,,,,,,,chosen stimuli: images/demo_images/choice_trial_1.png,,,,,567f59e0d18c640011e7ac0b,09:05:46,27/02/2024
html-keyboard-response,9,16842,0.0-4.0-2.0,,,,delaylearn,learning,feedback_duration_window,b250hcFRbhaXARsyCqNWyvWrJ2L2,b250hcFRbhaXARsyCqNWyvWrJ2L2,,,,,,,,,,,,,,,,,,3000.0,,,,567f59e0d18c640011e7ac0b,09:05:46,27/02/2024
html-keyboard-response,10,18358,0.0-4.0-3.0,,<div style='margin:auto;width: auto; font-size: 150%'><span style='font-weight: bold; font-size: 100px; color: green;'>+10 points!</span><br><br></div>,,delaylearn,learning,feedback_image_window,b250hcFRbhaXARsyCqNWyvWrJ2L2,b250hcFRbhaXARsyCqNWyvWrJ2L2,,,,,,,,,,,,,,,,,,,,,,567f59e0d18c640011e7ac0b,09:05:46,27/02/2024
html-keyboard-response,11,20529,0.0-5.0,,"<div style=""font-size:100px;"">+</div>",,delaylearn,learning,ITI,b250hcFRbhaXARsyCqNWyvWrJ2L2,b250hcFRbhaXARsyCqNWyvWrJ2L2,,,,,,,,,,,,,,,,,,,2166.0,,,567f59e0d18c640011e7ac0b,09:05:46,27/02/2024
html-keyboard-response,12,21269,0.0-6.0-0.0,736.8000000007451,"<div style=""display: flex; flex-direction: column; align-items: center; margin-top: -40px;""><img src=""images/demo_images/pattern_1.png"" style=""width: 234px; height: 230px; margin-top: -50px;""><div style=""display: flex; justify-content: space-between; margin-top: 33px;""><img src=""images/demo_images/choice_trial_1.png"" style=""width: 408px; height: 417px; margin-right: 200px;""><img src=""images/demo_images/choice_trial_2.png"" style=""width: 408px; height: 417px;""></div></div>",j,delaylearn,learning,trial,b250hcFRbhaXARsyCqNWyvWrJ2L2,b250hcFRbhaXARsyCqNWyvWrJ2L2,4.0,images/demo_images/choice_trial_1.png,images/demo_images/choice_trial_2.png,images/demo_images/pattern_1.png,j,f,3000.0,1.0,2.0,20.0,0.0,3.0,0.0,1.0,2.0,20.0,,,,,,567f59e0d18c640011e7ac0b,09:05:46,27/02/2024
html-keyboard-response,13,22280,0.0-6.0-1.0,,"<div style=""display: flex; flex-direction: column; align-items: center; margin-top: -40px;""><img src=""images/demo_images/pattern_1.png"" style=""width: 234px; height: 230px; margin-top: -50px;""><div style=""display: flex; justify-content: space-between; margin-top: 33px;""><img src=""images/demo_images/choice_trial_2.png"" style=""width: 408px; height: 417px; margin-left:608px;""></div></div>",,delaylearn,learning,display_response,b250hcFRbhaXARsyCqNWyvWrJ2L2,b250hcFRbhaXARsyCqNWyvWrJ2L2,,,,,,,,,,,,,,,,,chosen stimuli: images/demo_images/choice_trial_2.png,,,,,567f59e0d18c640011e7ac0b,09:05:46,27/02/2024
html-keyboard-response,14,25295,0.0-6.0-2.0,,,,delaylearn,learning,feedback_duration_window,b250hcFRbhaXARsyCqNWyvWrJ2L2,b250hcFRbhaXARsyCqNWyvWrJ2L2,,,,,,,,,,,,,,,,,,3000.0,,,,567f59e0d18c640011e7ac0b,09:05:46,27/02/2024
html-keyboard-response,15,26810,0.0-6.0-3.0,,<div style='margin:auto;width: auto; font-size: 150%'><span style='font-weight: bold; font-size: 100px; color: green;'>+10 points!</span><br><br></div>,,delaylearn,learning,feedback_image_window,b250hcFRbhaXARsyCqNWyvWrJ2L2,b250hcFRbhaXARsyCqNWyvWrJ2L2,,,,,,,,,,,,,,,,,,,,,,567f59e0d18c640011e7ac0b,09:05:46,27/02/2024
html-keyboard-response,16,28326,0.0-7.0,,"<div style=""font-size:100px;"">+</div>",,delaylearn,learning,ITI,b250hcFRbhaXARsyCqNWyvWrJ2L2,b250hcFRbhaXARsyCqNWyvWrJ2L2,,,,,,,,,,,,,,,,,,,1505.0,,,567f59e0d18c640011e7ac0b,09:05:46,27/02/2024
html-keyboard-response,17,28812,0.0-8.0-0.0,482.5,"<div style=""display: flex; flex-direction: column; align-items: center; margin-top: -40px;""><img src=""images/demo_images/pattern_1.png"" style=""width: 234px; height: 230px; margin-top: -50px;""><div style=""display: flex; justify-content: space-between; margin-top: 33px;""><img src=""images/demo_images/choice_trial_1.png"" style=""width: 408px; height: 417px; margin-right: 200px;""><img src=""images/demo_images/choice_trial_2.png"" style=""width: 408px; height: 417px;""></div></div>",f,delaylearn,learning,trial,b250hcFRbhaXARsyCqNWyvWrJ2L2,b250hcFRbhaXARsyCqNWyvWrJ2L2,4.0,images/demo_images/choice_trial_1.png,images/demo_images/choice_trial_2.png,images/demo_images/pattern_1.png,f,f,3000.0,1.0,2.0,20.0,0.0,4.0,1.0,1.0,1.0,30.0,,,,,,567f59e0d18c640011e7ac0b,09:05:46,27/02/2024
html-keyboard-response,18,29826,0.0-8.0-1.0,,"<div style=""display: flex; flex-direction: column; align-items: center; margin-top: -40px;""><img src=""images/demo_images/pattern_1.png"" style=""width: 234px; height: 230px; margin-top: -50px;""><div style=""display: flex; justify-content: space-between; margin-top: 33px;""><img src=""images/demo_images/choice_trial_1.png"" style=""width: 408px; height: 417px; margin-right: 608px;""></div></div>",,delaylearn,learning,display_response,b250hcFRbhaXARsyCqNWyvWrJ2L2,b250hcFRbhaXARsyCqNWyvWrJ2L2,,,,,,,,,,,,,,,,,chosen stimuli: images/demo_images/choice_trial_1.png,,,,,567f59e0d18c640011e7ac0b,09:05:46,27/02/2024
html-keyboard-response,19,32842,0.0-8.0-2.0,,,,delaylearn,learning,feedback_duration_window,b250hcFRbhaXARsyCqNWyvWrJ2L2,b250hcFRbhaXARsyCqNWyvWrJ2L2,,,,,,,,,,,,,,,,,,3000.0,,,,567f59e0d18c640011e7ac0b,09:05:46,27/02/2024
html-keyboard-response,20,34358,0.0-8.0-3.0,,<div style='margin:auto;width: auto; font-size: 150%'><span style='font-weight: bold; font-size: 100px; color: green;'>+10 points!</span><br><br></div>,,delaylearn,learning,feedback_image_window,b250hcFRbhaXARsyCqNWyvWrJ2L2,b250hcFRbhaXARsyCqNWyvWrJ2L2,,,,,,,,,,,,,,,,,,,,,,567f59e0d18c640011e7ac0b,09:05:46,27/02/2024
html-keyboard-response,21,34873,0.0-9.0-0.0,,,,,,mood_trial_fixation,b250hcFRbhaXARsyCqNWyvWrJ2L2,,,,,,,,,,,,,,,,,,,,,,,567f59e0d18c640011e7ac0b,09:05:46,27/02/2024
lmdlab-html-vas-response,22,39831,0.0-9.0-1.0,3925.0,How happy are you right now?,0.9514089044115154,delaylearn,learning,mood_trial,b250hcFRbhaXARsyCqNWyvWrJ2L2,b250hcFRbhaXARsyCqNWyvWrJ2L2,,,,,,,,,,,,,,,,,,,,"['Very unhappy', 'Very happy']",,567f59e0d18c640011e7ac0b,09:05:46,27/02/2024
html-keyboard-response,23,42186,0.0-10.0,,"<div style=""font-size:100px;"">+</div>",,delaylearn,learning,ITI,b250hcFRbhaXARsyCqNWyvWrJ2L2,b250hcFRbhaXARsyCqNWyvWrJ2L2,,,,,,,,,,,,,,,,,,,2352.0,,,567f59e0d18c640011e7ac0b,09:05:46,27/02/2024
html-keyboard-response,24,42766,0.0-11.0-0.0,577.8999999994412,"<div style=""display: flex; flex-direction: column; align-items: center; margin-top: -40px;""><img src=""images/demo_images/pattern_1.png"" style=""width: 234px; height: 230px; margin-top: -50px;""><div style=""display: flex; justify-content: space-between; margin-top: 33px;""><img src=""images/demo_images/choice_trial_2.png"" style=""width: 408px; height: 417px; margin-right: 200px;""><img src=""images/demo_images/choice_trial_1.png"" style=""width: 408px; height: 417px;""></div></div>",j,delaylearn,learning,trial,b250hcFRbhaXARsyCqNWyvWrJ2L2,b250hcFRbhaXARsyCqNWyvWrJ2L2,4.0,images/demo_images/choice_trial_2.png,images/demo_images/choice_trial_1.png,images/demo_images/pattern_1.png,j,j,3000.0,2.0,1.0,20.0,1.0,5.0,1.0,1.0,1.0,40.0,,,,,,567f59e0d18c640011e7ac0b,09:05:46,27/02/2024
html-keyboard-response,25,43780,0.0-11.0-1.0,,"<div style=""display: flex; flex-direction: column; align-items: center; margin-top: -40px;""><img src=""images/demo_images/pattern_1.png"" style=""width: 234px; height: 230px; margin-top: -50px;""><div style=""display: flex; justify-content: space-between; margin-top: 33px;""><img src=""images/demo_images/choice_trial_1.png"" style=""width: 408px; height: 417px; margin-left:608px;""></div></div>",,delaylearn,learning,display_response,b250hcFRbhaXARsyCqNWyvWrJ2L2,b250hcFRbhaXARsyCqNWyvWrJ2L2,,,,,,,,,,,,,,,,,chosen stimuli: images/demo_images/choice_trial_1.png,,,,,567f59e0d18c640011e7ac0b,09:05:46,27/02/2024
html-keyboard-response,26,46795,0.0-11.0-2.0,,,,delaylearn,learning,feedback_duration_window,b250hcFRbhaXARsyCqNWyvWrJ2L2,b250hcFRbhaXARsyCqNWyvWrJ2L2,,,,,,,,,,,,,,,,,,3000.0,,,,567f59e0d18c640011e7ac0b,09:05:46,27/02/2024
html-keyboard-response,27,48310,0.0-11.0-3.0,,<div style='margin:auto;width: auto; font-size: 150%'><span style='font-weight: bold; font-size: 100px; color: green;'>+10 points!</span><br><br></div>,,delaylearn,learning,feedback_image_window,b250hcFRbhaXARsyCqNWyvWrJ2L2,b250hcFRbhaXARsyCqNWyvWrJ2L2,,,,,,,,,,,,,,,,,,,,,,567f59e0d18c640011e7ac0b,09:05:46,27/02/2024
html-keyboard-response,28,50186,0.0-12.0,,"<div style=""font-size:100px;"">+</div>",,delaylearn,learning,ITI,b250hcFRbhaXARsyCqNWyvWrJ2L2,b250hcFRbhaXARsyCqNWyvWrJ2L2,,,,,,,,,,,,,,,,,,,1871.0,,,567f59e0d18c640011e7ac0b,09:05:46,27/02/2024
html-keyboard-response,29,51117,0.0-13.0-0.0,928.2000000001863,"<div style=""display: flex; flex-direction: column; align-items: center; margin-top: -40px;""><img src=""images/demo_images/pattern_1.png"" style=""width: 234px; height: 230px; margin-top: -50px;""><div style=""display: flex; justify-content: space-between; margin-top: 33px;""><img src=""images/demo_images/choice_trial_1.png"" style=""width: 408px; height: 417px; margin-right: 200px;""><img src=""images/demo_images/choice_trial_2.png"" style=""width: 408px; height: 417px;""></div></div>",f,delaylearn,learning,trial,b250hcFRbhaXARsyCqNWyvWrJ2L2,b250hcFRbhaXARsyCqNWyvWrJ2L2,4.0,images/demo_images/choice_trial_1.png,images/demo_images/choice_trial_2.png,images/demo_images/pattern_1.png,f,f,3000.0,1.0,2.0,20.0,0.0,6.0,1.0,1.0,1.0,50.0,,,,,,567f59e0d18c640011e7ac0b,09:05:46,27/02/2024
html-keyboard-response,30,52122,0.0-13.0-1.0,,"<div style=""display: flex; flex-direction: column; align-items: center; margin-top: -40px;""><img src=""images/demo_images/pattern_1.png"" style=""width: 234px; height: 230px; margin-top: -50px;""><div style=""display: flex; justify-content: space-between; margin-top: 33px;""><img src=""images/demo_images/choice_trial_1.png"" style=""width: 408px; height: 417px; margin-right: 608px;""></div></div>",,delaylearn,learning,display_response,b250hcFRbhaXARsyCqNWyvWrJ2L2,b250hcFRbhaXARsyCqNWyvWrJ2L2,,,,,,,,,,,,,,,,,chosen stimuli: images/demo_images/choice_trial_1.png,,,,,567f59e0d18c640011e7ac0b,09:05:46,27/02/2024
html-keyboard-response,31,55139,0.0-13.0-2.0,,,,delaylearn,learning,feedback_duration_window,b250hcFRbhaXARsyCqNWyvWrJ2L2,b250hcFRbhaXARsyCqNWyvWrJ2L2,,,,,,,,,,,,,,,,,,3000.0,,,,567f59e0d18c640011e7ac0b,09:05:46,27/02/2024
html-keyboard-response,32,56655,0.0-13.0-3.0,,<div style='margin:auto;width: auto; font-size: 150%'><span style='font-weight: bold; font-size: 100px; color: green;'>+10 points!</span><br><br></div>,,delaylearn,learning,feedback_image_window,b250hcFRbhaXARsyCqNWyvWrJ2L2,b250hcFRbhaXARsyCqNWyvWrJ2L2,,,,,,,,,,,,,,,,,,,,,,567f59e0d18c640011e7ac0b,09:05:46,27/02/2024
html-button-response,33,59556,0.0-14.0,2899.7999999998137,"
  <div style=""display: flex; align-items: center; justify-content: center; height: 80vh;"">
  <div>
          <img src=""images/inst_demo_finish.png"" style=""width: 80vw; height:auto;"">
          <br><br>
      </div>
      <br><br>
  </div>",0,,,,b250hcFRbhaXARsyCqNWyvWrJ2L2,,,,,,,,,,,,,,,,,,,,,,,567f59e0d18c640011e7ac0b,09:05:46,27/02/2024
html-keyboard-response,34,63777,0.0-15.0,4219.200000000186,"
  <div style=""display: flex; align-items: center; justify-content: center; height: 80vh;"">
  <div>
          <img src=""images/inst_6.png"" style=""width: 80vw; height:auto;"">
          <br><br>
      </div>
      <br><br>
  </div>",j,,,,b250hcFRbhaXARsyCqNWyvWrJ2L2,,,,,,,,,,,,,,,,,,,,,,,567f59e0d18c640011e7ac0b,09:05:46,27/02/2024
html-keyboard-response,35,66780,0.0-16.0,,"<div style=""font-size:100px;"">+</div>",,delaylearn,learning,pre_fixation,b250hcFRbhaXARsyCqNWyvWrJ2L2,,,,,,,,,,,,,,,,,,,,,,,567f59e0d18c640011e7ac0b,09:05:46,27/02/2024
html-keyboard-response,36,69061,0.0-17.0,,"<div style=""font-size:100px;"">+</div>",,delaylearn,learning,ITI,b250hcFRbhaXARsyCqNWyvWrJ2L2,b250hcFRbhaXARsyCqNWyvWrJ2L2,,,,,,,,,,,,,,,,,,,2276.0,,,567f59e0d18c640011e7ac0b,09:05:46,27/02/2024
html-keyboard-response,37,71026,0.0-18.0-0.0,1962.800000000745,"<div style=""display: flex; flex-direction: column; align-items: center; margin-top: -40px;""><img src=""images/pattern_3.png"" style=""width: 234px; height: 230px; margin-top: -50px;""><div style=""display: flex; justify-content: space-between; margin-top: 33px;""><img src=""images/choice_trial_16.png"" style=""width: 408px; height: 417px; margin-right: 200px;""><img src=""images/choice_trial_6.png"" style=""width: 408px; height: 417px;""></div></div>",j,delaylearn,learning,trial,b250hcFRbhaXARsyCqNWyvWrJ2L2,b250hcFRbhaXARsyCqNWyvWrJ2L2,4.0,images/choice_trial_16.png,images/choice_trial_6.png,images/pattern_3.png,f,f,7000.0,16.0,6.0,2.0,0.0,7.0,0.0,0.0,6.0,50.0,,,,,,567f59e0d18c640011e7ac0b,09:05:46,27/02/2024
html-keyboard-response,38,72037,0.0-18.0-1.0,,"<div style=""display: flex; flex-direction: column; align-items: center; margin-top: -40px;""><img src=""images/pattern_3.png"" style=""width: 234px; height: 230px; margin-top: -50px;""><div style=""display: flex; justify-content: space-between; margin-top: 33px;""><img src=""images/choice_trial_6.png"" style=""width: 408px; height: 417px; margin-left:608px;""></div></div>",,delaylearn,learning,display_response,b250hcFRbhaXARsyCqNWyvWrJ2L2,b250hcFRbhaXARsyCqNWyvWrJ2L2,,,,,,,,,,,,,,,,,chosen stimuli: images/choice_trial_6.png,,,,,567f59e0d18c640011e7ac0b,09:05:46,27/02/2024
html-keyboard-response,39,79061,0.0-18.0-2.0,,,,delaylearn,learning,feedback_duration_window,b250hcFRbhaXARsyCqNWyvWrJ2L2,b250hcFRbhaXARsyCqNWyvWrJ2L2,,,,,,,,,,,,,,,,,,7000.0,,,,567f59e0d18c640011e7ac0b,09:05:46,27/02/2024
html-keyboard-response,40,80576,0.0-18.0-3.0,,<div style='margin:auto;width: auto; font-size: 150%'><span style='font-weight: bold; font-size: 100px; color: red;'>0 points!</span><br><br></div>,,delaylearn,learning,feedback_image_window,b250hcFRbhaXARsyCqNWyvWrJ2L2,b250hcFRbhaXARsyCqNWyvWrJ2L2,,,,,,,,,,,,,,,,,,,,,,567f59e0d18c640011e7ac0b,09:05:46,27/02/2024
html-keyboard-response,41,82966,0.0-19.0,,"<div style=""font-size:100px;"">+</div>",,delaylearn,learning,ITI,b250hcFRbhaXARsyCqNWyvWrJ2L2,b250hcFRbhaXARsyCqNWyvWrJ2L2,,,,,,,,,,,,,,,,,,,2374.0,,,567f59e0d18c640011e7ac0b,09:05:46,27/02/2024
html-keyboard-response,42,85086,0.0-20.0-0.0,2117.2999999998137,"<div style=""display: flex; flex-direction: column; align-items: center; margin-top: -40px;""><img src=""images/pattern_7.png"" style=""width: 234px; height: 230px; margin-top: -50px;""><div style=""display: flex; justify-content: space-between; margin-top: 33px;""><img src=""images/choice_trial_4.png"" style=""width: 408px; height: 417px; margin-right: 200px;""><img src=""images/choice_trial_13.png"" style=""width: 408px; height: 417px;""></div></div>",f,delaylearn,learning,trial,b250hcFRbhaXARsyCqNWyvWrJ2L2,b250hcFRbhaXARsyCqNWyvWrJ2L2,4.0,images/choice_trial_4.png,images/choice_trial_13.png,images/pattern_7.png,j,j,750.0,4.0,13.0,6.0,1.0,8.0,0.0,0.0,4.0,50.0,,,,,,567f59e0d18c640011e7ac0b,09:05:46,27/02/2024
html-keyboard-response,43,86091,0.0-20.0-1.0,,"<div style=""display: flex; flex-direction: column; align-items: center; margin-top: -40px;""><img src=""images/pattern_7.png"" style=""width: 234px; height: 230px; margin-top: -50px;""><div style=""display: flex; justify-content: space-between; margin-top: 33px;""><img src=""images/choice_trial_4.png"" style=""width: 408px; height: 417px; margin-right: 608px;""></div></div>",,delaylearn,learning,display_response,b250hcFRbhaXARsyCqNWyvWrJ2L2,b250hcFRbhaXARsyCqNWyvWrJ2L2,,,,,,,,,,,,,,,,,chosen stimuli: images/choice_trial_4.png,,,,,567f59e0d18c640011e7ac0b,09:05:46,27/02/2024
html-keyboard-response,44,86843,0.0-20.0-2.0,,,,delaylearn,learning,feedback_duration_window,b250hcFRbhaXARsyCqNWyvWrJ2L2,b250hcFRbhaXARsyCqNWyvWrJ2L2,,,,,,,,,,,,,,,,,,750.0,,,,567f59e0d18c640011e7ac0b,09:05:46,27/02/2024
html-keyboard-response,45,88359,0.0-20.0-3.0,,<div style='margin:auto;width: auto; font-size: 150%'><span style='font-weight: bold; font-size: 100px; color: red;'>0 points!</span><br><br></div>,,delaylearn,learning,feedback_image_window,b250hcFRbhaXARsyCqNWyvWrJ2L2,b250hcFRbhaXARsyCqNWyvWrJ2L2,,,,,,,,,,,,,,,,,,,,,,567f59e0d18c640011e7ac0b,09:05:46,27/02/2024
html-keyboard-response,46,90795,0.0-21.0,,"<div style=""font-size:100px;"">+</div>",,delaylearn,learning,ITI,b250hcFRbhaXARsyCqNWyvWrJ2L2,b250hcFRbhaXARsyCqNWyvWrJ2L2,,,,,,,,,,,,,,,,,,,2435.0,,,567f59e0d18c640011e7ac0b,09:05:46,27/02/2024
html-keyboard-response,47,92396,0.0-22.0-0.0,1598.5,"<div style=""display: flex; flex-direction: column; align-items: center; margin-top: -40px;""><img src=""images/pattern_4.png"" style=""width: 234px; height: 230px; margin-top: -50px;""><div style=""display: flex; justify-content: space-between; margin-top: 33px;""><img src=""images/choice_trial_8.png"" style=""width: 408px; height: 417px; margin-right: 200px;""><img src=""images/choice_trial_7.png"" style=""width: 408px; height: 417px;""></div></div>",j,delaylearn,learning,trial,b250hcFRbhaXARsyCqNWyvWrJ2L2,b250hcFRbhaXARsyCqNWyvWrJ2L2,4.0,images/choice_trial_8.png,images/choice_trial_7.png,images/pattern_4.png,f,f,7000.0,8.0,7.0,3.0,0.0,9.0,0.0,0.0,7.0,50.0,,,,,,567f59e0d18c640011e7ac0b,09:05:46,27/02/2024
html-keyboard-response,48,93404,0.0-22.0-1.0,,"<div style=""display: flex; flex-direction: column; align-items: center; margin-top: -40px;""><img src=""images/pattern_4.png"" style=""width: 234px; height: 230px; margin-top: -50px;""><div style=""display: flex; justify-content: space-between; margin-top: 33px;""><img src=""images/choice_trial_7.png"" style=""width: 408px; height: 417px; margin-left:608px;""></div></div>",,delaylearn,learning,display_response,b250hcFRbhaXARsyCqNWyvWrJ2L2,b250hcFRbhaXARsyCqNWyvWrJ2L2,,,,,,,,,,,,,,,,,chosen stimuli: images/choice_trial_7.png,,,,,567f59e0d18c640011e7ac0b,09:05:46,27/02/2024
html-keyboard-response,49,100421,0.0-22.0-2.0,,,,delaylearn,learning,feedback_duration_window,b250hcFRbhaXARsyCqNWyvWrJ2L2,b250hcFRbhaXARsyCqNWyvWrJ2L2,,,,,,,,,,,,,,,,,,7000.0,,,,567f59e0d18c640011e7ac0b,09:05:46,27/02/2024
html-keyboard-response,50,101936,0.0-22.0-3.0,,<div style='margin:auto;width: auto; font-size: 150%'><span style='font-weight: bold; font-size: 100px; color: red;'>0 points!</span><br><br></div>,,delaylearn,learning,feedback_image_window,b250hcFRbhaXARsyCqNWyvWrJ2L2,b250hcFRbhaXARsyCqNWyvWrJ2L2,,,,,,,,,,,,,,,,,,,,,,567f59e0d18c640011e7ac0b,09:05:46,27/02/2024
html-keyboard-response,51,103873,0.0-23.0,,"<div style=""font-size:100px;"">+</div>",,delaylearn,learning,ITI,b250hcFRbhaXARsyCqNWyvWrJ2L2,b250hcFRbhaXARsyCqNWyvWrJ2L2,,,,,,,,,,,,,,,,,,,1923.0,,,567f59e0d18c640011e7ac0b,09:05:46,27/02/2024
html-keyboard-response,52,105403,0.0-24.0-0.0,1527.5,"<div style=""display: flex; flex-direction: column; align-items: center; margin-top: -40px;""><img src=""images/pattern_5.png"" style=""width: 234px; height: 230px; margin-top: -50px;""><div style=""display: flex; justify-content: space-between; margin-top: 33px;""><img src=""images/choice_trial_15.png"" style=""width: 408px; height: 417px; margin-right: 200px;""><img src=""images/choice_trial_5.png"" style=""width: 408px; height: 417px;""></div></div>",f,delaylearn,learning,trial,b250hcFRbhaXARsyCqNWyvWrJ2L2,b250hcFRbhaXARsyCqNWyvWrJ2L2,4.0,images/choice_trial_15.png,images/choice_trial_5.png,images/pattern_5.png,j,j,750.0,15.0,5.0,4.0,1.0,10.0,0.0,0.0,15.0,50.0,,,,,,567f59e0d18c640011e7ac0b,09:05:46,27/02/2024
html-keyboard-response,53,106420,0.0-24.0-1.0,,"<div style=""display: flex; flex-direction: column; align-items: center; margin-top: -40px;""><img src=""images/pattern_5.png"" style=""width: 234px; height: 230px; margin-top: -50px;""><div style=""display: flex; justify-content: space-between; margin-top: 33px;""><img src=""images/choice_trial_15.png"" style=""width: 408px; height: 417px; margin-right: 608px;""></div></div>",,delaylearn,learning,display_response,b250hcFRbhaXARsyCqNWyvWrJ2L2,b250hcFRbhaXARsyCqNWyvWrJ2L2,,,,,,,,,,,,,,,,,chosen stimuli: images/choice_trial_15.png,,,,,567f59e0d18c640011e7ac0b,09:05:46,27/02/2024
html-keyboard-response,54,107185,0.0-24.0-2.0,,,,delaylearn,learning,feedback_duration_window,b250hcFRbhaXARsyCqNWyvWrJ2L2,b250hcFRbhaXARsyCqNWyvWrJ2L2,,,,,,,,,,,,,,,,,,750.0,,,,567f59e0d18c640011e7ac0b,09:05:46,27/02/2024
html-keyboard-response,55,108701,0.0-24.0-3.0,,<div style='margin:auto;width: auto; font-size: 150%'><span style='font-weight: bold; font-size: 100px; color: red;'>0 points!</span><br><br></div>,,delaylearn,learning,feedback_image_window,b250hcFRbhaXARsyCqNWyvWrJ2L2,b250hcFRbhaXARsyCqNWyvWrJ2L2,,,,,,,,,,,,,,,,,,,,,,567f59e0d18c640011e7ac0b,09:05:46,27/02/2024
html-keyboard-response,56,110920,0.0-25.0,,"<div style=""font-size:100px;"">+</div>",,delaylearn,learning,ITI,b250hcFRbhaXARsyCqNWyvWrJ2L2,b250hcFRbhaXARsyCqNWyvWrJ2L2,,,,,,,,,,,,,,,,,,,2207.0,,,567f59e0d18c640011e7ac0b,09:05:46,27/02/2024
html-keyboard-response,57,112297,0.0-26.0-0.0,1374.5,"<div style=""display: flex; flex-direction: column; align-items: center; margin-top: -40px;""><img src=""images/pattern_6.png"" style=""width: 234px; height: 230px; margin-top: -50px;""><div style=""display: flex; justify-content: space-between; margin-top: 33px;""><img src=""images/choice_trial_10.png"" style=""width: 408px; height: 417px; margin-right: 200px;""><img src=""images/choice_trial_3.png"" style=""width: 408px; height: 417px;""></div></div>",j,delaylearn,learning,trial,b250hcFRbhaXARsyCqNWyvWrJ2L2,b250hcFRbhaXARsyCqNWyvWrJ2L2,4.0,images/choice_trial_10.png,images/choice_trial_3.png,images/pattern_6.png,j,f,750.0,10.0,3.0,5.0,0.0,11.0,0.0,1.0,3.0,60.0,,,,,,567f59e0d18c640011e7ac0b,09:05:46,27/02/2024
html-keyboard-response,58,113310,0.0-26.0-1.0,,"<div style=""display: flex; flex-direction: column; align-items: center; margin-top: -40px;""><img src=""images/pattern_6.png"" style=""width: 234px; height: 230px; margin-top: -50px;""><div style=""display: flex; justify-content: space-between; margin-top: 33px;""><img src=""images/choice_trial_3.png"" style=""width: 408px; height: 417px; margin-left:608px;""></div></div>",,delaylearn,learning,display_response,b250hcFRbhaXARsyCqNWyvWrJ2L2,b250hcFRbhaXARsyCqNWyvWrJ2L2,,,,,,,,,,,,,,,,,chosen stimuli: images/choice_trial_3.png,,,,,567f59e0d18c640011e7ac0b,09:05:46,27/02/2024
html-keyboard-response,59,114076,0.0-26.0-2.0,,,,delaylearn,learning,feedback_duration_window,b250hcFRbhaXARsyCqNWyvWrJ2L2,b250hcFRbhaXARsyCqNWyvWrJ2L2,,,,,,,,,,,,,,,,,,750.0,,,,567f59e0d18c640011e7ac0b,09:05:46,27/02/2024
html-keyboard-response,60,115592,0.0-26.0-3.0,,<div style='margin:auto;width: auto; font-size: 150%'><span style='font-weight: bold; font-size: 100px; color: green;'>+10 points!</span><br><br></div>,,delaylearn,learning,feedback_image_window,b250hcFRbhaXARsyCqNWyvWrJ2L2,b250hcFRbhaXARsyCqNWyvWrJ2L2,,,,,,,,,,,,,,,,,,,,,,567f59e0d18c640011e7ac0b,09:05:46,27/02/2024
html-keyboard-response,61,116107,0.0-27.0-0.0,,,,,,mood_trial_fixation,b250hcFRbhaXARsyCqNWyvWrJ2L2,,,,,,,,,,,,,,,,,,,,,,,567f59e0d18c640011e7ac0b,09:05:46,27/02/2024
lmdlab-html-vas-response,62,122858,0.0-27.0-1.0,5745.0,How happy are you right now?,0.9883015157166594,delaylearn,learning,mood_trial,b250hcFRbhaXARsyCqNWyvWrJ2L2,b250hcFRbhaXARsyCqNWyvWrJ2L2,,,,,,,,,,,,,,,,,,,,"['Very unhappy', 'Very happy']",,567f59e0d18c640011e7ac0b,09:05:46,27/02/2024
html-keyboard-response,63,124433,0.0-28.0,,"<div style=""font-size:100px;"">+</div>",,delaylearn,learning,ITI,b250hcFRbhaXARsyCqNWyvWrJ2L2,b250hcFRbhaXARsyCqNWyvWrJ2L2,,,,,,,,,,,,,,,,,,,1561.0,,,567f59e0d18c640011e7ac0b,09:05:46,27/02/2024
html-keyboard-response,64,125558,0.0-29.0-0.0,1122.0,"<div style=""display: flex; flex-direction: column; align-items: center; margin-top: -40px;""><img src=""images/pattern_1.png"" style=""width: 234px; height: 230px; margin-top: -50px;""><div style=""display: flex; justify-content: space-between; margin-top: 33px;""><img src=""images/choice_trial_9.png"" style=""width: 408px; height: 417px; margin-right: 200px;""><img src=""images/choice_trial_1.png"" style=""width: 408px; height: 417px;""></div></div>",f,delaylearn,learning,trial,b250hcFRbhaXARsyCqNWyvWrJ2L2,b250hcFRbhaXARsyCqNWyvWrJ2L2,4.0,images/choice_trial_9.png,images/choice_trial_1.png,images/pattern_1.png,j,j,7000.0,9.0,1.0,1.0,1.0,12.0,0.0,0.0,9.0,60.0,,,,,,567f59e0d18c640011e7ac0b,09:05:46,27/02/2024
html-keyboard-response,65,126574,0.0-29.0-1.0,,"<div style=""display: flex; flex-direction: column; align-items: center; margin-top: -40px;""><img src=""images/pattern_1.png"" style=""width: 234px; height: 230px; margin-top: -50px;""><div style=""display: flex; justify-content: space-between; margin-top: 33px;""><img src=""images/choice_trial_9.png"" style=""width: 408px; height: 417px; margin-right: 608px;""></div></div>",,delaylearn,learning,display_response,b250hcFRbhaXARsyCqNWyvWrJ2L2,b250hcFRbhaXARsyCqNWyvWrJ2L2,,,,,,,,,,,,,,,,,chosen stimuli: images/choice_trial_9.png,,,,,567f59e0d18c640011e7ac0b,09:05:46,27/02/2024
html-keyboard-response,66,133590,0.0-29.0-2.0,,,,delaylearn,learning,feedback_duration_window,b250hcFRbhaXARsyCqNWyvWrJ2L2,b250hcFRbhaXARsyCqNWyvWrJ2L2,,,,,,,,,,,,,,,,,,7000.0,,,,567f59e0d18c640011e7ac0b,09:05:46,27/02/2024
html-keyboard-response,67,135105,0.0-29.0-3.0,,<div style='margin:auto;width: auto; font-size: 150%'><span style='font-weight: bold; font-size: 100px; color: red;'>0 points!</span><br><br></div>,,delaylearn,learning,feedback_image_window,b250hcFRbhaXARsyCqNWyvWrJ2L2,b250hcFRbhaXARsyCqNWyvWrJ2L2,,,,,,,,,,,,,,,,,,,,,,567f59e0d18c640011e7ac0b,09:05:46,27/02/2024
html-keyboard-response,68,136980,0.0-30.0,,"<div style=""font-size:100px;"">+</div>",,delaylearn,learning,ITI,b250hcFRbhaXARsyCqNWyvWrJ2L2,b250hcFRbhaXARsyCqNWyvWrJ2L2,,,,,,,,,,,,,,,,,,,1862.0,,,567f59e0d18c640011e7ac0b,09:05:46,27/02/2024
html-keyboard-response,69,138389,0.0-31.0-0.0,1405.7999999998137,"<div style=""display: flex; flex-direction: column; align-items: center; margin-top: -40px;""><img src=""images/pattern_3.png"" style=""width: 234px; height: 230px; margin-top: -50px;""><div style=""display: flex; justify-content: space-between; margin-top: 33px;""><img src=""images/choice_trial_6.png"" style=""width: 408px; height: 417px; margin-right: 200px;""><img src=""images/choice_trial_16.png"" style=""width: 408px; height: 417px;""></div></div>",j,delaylearn,learning,trial,b250hcFRbhaXARsyCqNWyvWrJ2L2,b250hcFRbhaXARsyCqNWyvWrJ2L2,4.0,images/choice_trial_6.png,images/choice_trial_16.png,images/pattern_3.png,f,j,7000.0,6.0,16.0,2.0,1.0,13.0,1.0,0.0,16.0,60.0,,,,,,567f59e0d18c640011e7ac0b,09:05:46,27/02/2024
html-keyboard-response,70,139402,0.0-31.0-1.0,,"<div style=""display: flex; flex-direction: column; align-items: center; margin-top: -40px;""><img src=""images/pattern_3.png"" style=""width: 234px; height: 230px; margin-top: -50px;""><div style=""display: flex; justify-content: space-between; margin-top: 33px;""><img src=""images/choice_trial_16.png"" style=""width: 408px; height: 417px; margin-left:608px;""></div></div>",,delaylearn,learning,display_response,b250hcFRbhaXARsyCqNWyvWrJ2L2,b250hcFRbhaXARsyCqNWyvWrJ2L2,,,,,,,,,,,,,,,,,chosen stimuli: images/choice_trial_16.png,,,,,567f59e0d18c640011e7ac0b,09:05:46,27/02/2024
html-keyboard-response,71,146418,0.0-31.0-2.0,,,,delaylearn,learning,feedback_duration_window,b250hcFRbhaXARsyCqNWyvWrJ2L2,b250hcFRbhaXARsyCqNWyvWrJ2L2,,,,,,,,,,,,,,,,,,7000.0,,,,567f59e0d18c640011e7ac0b,09:05:46,27/02/2024
html-keyboard-response,72,147933,0.0-31.0-3.0,,<div style='margin:auto;width: auto; font-size: 150%'><span style='font-weight: bold; font-size: 100px; color: red;'>0 points!</span><br><br></div>,,delaylearn,learning,feedback_image_window,b250hcFRbhaXARsyCqNWyvWrJ2L2,b250hcFRbhaXARsyCqNWyvWrJ2L2,,,,,,,,,,,,,,,,,,,,,,567f59e0d18c640011e7ac0b,09:05:46,27/02/2024
html-keyboard-response,73,150417,0.0-32.0,,"<div style=""font-size:100px;"">+</div>",,delaylearn,learning,ITI,b250hcFRbhaXARsyCqNWyvWrJ2L2,b250hcFRbhaXARsyCqNWyvWrJ2L2,,,,,,,,,,,,,,,,,,,2463.0,,,567f59e0d18c640011e7ac0b,09:05:46,27/02/2024
html-keyboard-response,74,151539,0.0-33.0-0.0,1118.2999999998137,"<div style=""display: flex; flex-direction: column; align-items: center; margin-top: -40px;""><img src=""images/pattern_5.png"" style=""width: 234px; height: 230px; margin-top: -50px;""><div style=""display: flex; justify-content: space-between; margin-top: 33px;""><img src=""images/choice_trial_5.png"" style=""width: 408px; height: 417px; margin-right: 200px;""><img src=""images/choice_trial_15.png"" style=""width: 408px; height: 417px;""></div></div>",f,delaylearn,learning,trial,b250hcFRbhaXARsyCqNWyvWrJ2L2,b250hcFRbhaXARsyCqNWyvWrJ2L2,4.0,images/choice_trial_5.png,images/choice_trial_15.png,images/pattern_5.png,f,f,750.0,5.0,15.0,4.0,0.0,14.0,1.0,1.0,5.0,70.0,,,,,,567f59e0d18c640011e7ac0b,09:05:46,27/02/2024
html-keyboard-response,75,152542,0.0-33.0-1.0,,"<div style=""display: flex; flex-direction: column; align-items: center; margin-top: -40px;""><img src=""images/pattern_5.png"" style=""width: 234px; height: 230px; margin-top: -50px;""><div style=""display: flex; justify-content: space-between; margin-top: 33px;""><img src=""images/choice_trial_5.png"" style=""width: 408px; height: 417px; margin-right: 608px;""></div></div>",,delaylearn,learning,display_response,b250hcFRbhaXARsyCqNWyvWrJ2L2,b250hcFRbhaXARsyCqNWyvWrJ2L2,,,,,,,,,,,,,,,,,chosen stimuli: images/choice_trial_5.png,,,,,567f59e0d18c640011e7ac0b,09:05:46,27/02/2024
html-keyboard-response,76,153308,0.0-33.0-2.0,,,,delaylearn,learning,feedback_duration_window,b250hcFRbhaXARsyCqNWyvWrJ2L2,b250hcFRbhaXARsyCqNWyvWrJ2L2,,,,,,,,,,,,,,,,,,750.0,,,,567f59e0d18c640011e7ac0b,09:05:46,27/02/2024
html-keyboard-response,77,154824,0.0-33.0-3.0,,<div style='margin:auto;width: auto; font-size: 150%'><span style='font-weight: bold; font-size: 100px; color: green;'>+10 points!</span><br><br></div>,,delaylearn,learning,feedback_image_window,b250hcFRbhaXARsyCqNWyvWrJ2L2,b250hcFRbhaXARsyCqNWyvWrJ2L2,,,,,,,,,,,,,,,,,,,,,,567f59e0d18c640011e7ac0b,09:05:46,27/02/2024
html-keyboard-response,78,155340,0.0-34.0-0.0,,,,,,mood_trial_fixation,b250hcFRbhaXARsyCqNWyvWrJ2L2,,,,,,,,,,,,,,,,,,,,,,,567f59e0d18c640011e7ac0b,09:05:46,27/02/2024
lmdlab-html-vas-response,79,161350,0.0-34.0-1.0,4990.0,How happy are you right now?,0.9883015157166594,delaylearn,learning,mood_trial,b250hcFRbhaXARsyCqNWyvWrJ2L2,b250hcFRbhaXARsyCqNWyvWrJ2L2,,,,,,,,,,,,,,,,,,,,"['Very unhappy', 'Very happy']",,567f59e0d18c640011e7ac0b,09:05:46,27/02/2024
html-keyboard-response,80,163746,0.0-35.0,,"<div style=""font-size:100px;"">+</div>",,delaylearn,learning,ITI,b250hcFRbhaXARsyCqNWyvWrJ2L2,b250hcFRbhaXARsyCqNWyvWrJ2L2,,,,,,,,,,,,,,,,,,,2389.0,,,567f59e0d18c640011e7ac0b,09:05:46,27/02/2024
html-keyboard-response,81,164513,0.0-36.0-0.0,764.3999999994412,"<div style=""display: flex; flex-direction: column; align-items: center; margin-top: -40px;""><img src=""images/pattern_6.png"" style=""width: 234px; height: 230px; margin-top: -50px;""><div style=""display: flex; justify-content: space-between; margin-top: 33px;""><img src=""images/choice_trial_10.png"" style=""width: 408px; height: 417px; margin-right: 200px;""><img src=""images/choice_trial_3.png"" style=""width: 408px; height: 417px;""></div></div>",j,delaylearn,learning,trial,b250hcFRbhaXARsyCqNWyvWrJ2L2,b250hcFRbhaXARsyCqNWyvWrJ2L2,4.0,images/choice_trial_10.png,images/choice_trial_3.png,images/pattern_6.png,f,f,750.0,10.0,3.0,5.0,0.0,15.0,0.0,0.0,3.0,70.0,,,,,,567f59e0d18c640011e7ac0b,09:05:46,27/02/2024
html-keyboard-response,82,165527,0.0-36.0-1.0,,"<div style=""display: flex; flex-direction: column; align-items: center; margin-top: -40px;""><img src=""images/pattern_6.png"" style=""width: 234px; height: 230px; margin-top: -50px;""><div style=""display: flex; justify-content: space-between; margin-top: 33px;""><img src=""images/choice_trial_3.png"" style=""width: 408px; height: 417px; margin-left:608px;""></div></div>",,delaylearn,learning,display_response,b250hcFRbhaXARsyCqNWyvWrJ2L2,b250hcFRbhaXARsyCqNWyvWrJ2L2,,,,,,,,,,,,,,,,,chosen stimuli: images/choice_trial_3.png,,,,,567f59e0d18c640011e7ac0b,09:05:46,27/02/2024
html-keyboard-response,83,166293,0.0-36.0-2.0,,,,delaylearn,learning,feedback_duration_window,b250hcFRbhaXARsyCqNWyvWrJ2L2,b250hcFRbhaXARsyCqNWyvWrJ2L2,,,,,,,,,,,,,,,,,,750.0,,,,567f59e0d18c640011e7ac0b,09:05:46,27/02/2024
html-keyboard-response,84,167809,0.0-36.0-3.0,,<div style='margin:auto;width: auto; font-size: 150%'><span style='font-weight: bold; font-size: 100px; color: red;'>0 points!</span><br><br></div>,,delaylearn,learning,feedback_image_window,b250hcFRbhaXARsyCqNWyvWrJ2L2,b250hcFRbhaXARsyCqNWyvWrJ2L2,,,,,,,,,,,,,,,,,,,,,,567f59e0d18c640011e7ac0b,09:05:46,27/02/2024
html-keyboard-response,85,169808,0.0-37.0,,"<div style=""font-size:100px;"">+</div>",,delaylearn,learning,ITI,b250hcFRbhaXARsyCqNWyvWrJ2L2,b250hcFRbhaXARsyCqNWyvWrJ2L2,,,,,,,,,,,,,,,,,,,1984.0,,,567f59e0d18c640011e7ac0b,09:05:46,27/02/2024
html-keyboard-response,86,170861,0.0-38.0-0.0,1049.800000000745,"<div style=""display: flex; flex-direction: column; align-items: center; margin-top: -40px;""><img src=""images/pattern_4.png"" style=""width: 234px; height: 230px; margin-top: -50px;""><div style=""display: flex; justify-content: space-between; margin-top: 33px;""><img src=""images/choice_trial_7.png"" style=""width: 408px; height: 417px; margin-right: 200px;""><img src=""images/choice_trial_8.png"" style=""width: 408px; height: 417px;""></div></div>",f,delaylearn,learning,trial,b250hcFRbhaXARsyCqNWyvWrJ2L2,b250hcFRbhaXARsyCqNWyvWrJ2L2,4.0,images/choice_trial_7.png,images/choice_trial_8.png,images/pattern_4.png,j,j,7000.0,7.0,8.0,3.0,1.0,16.0,0.0,0.0,7.0,70.0,,,,,,567f59e0d18c640011e7ac0b,09:05:46,27/02/2024
html-keyboard-response,87,171886,0.0-38.0-1.0,,"<div style=""display: flex; flex-direction: column; align-items: center; margin-top: -40px;""><img src=""images/pattern_4.png"" style=""width: 234px; height: 230px; margin-top: -50px;""><div style=""display: flex; justify-content: space-between; margin-top: 33px;""><img src=""images/choice_trial_7.png"" style=""width: 408px; height: 417px; margin-right: 608px;""></div></div>",,delaylearn,learning,display_response,b250hcFRbhaXARsyCqNWyvWrJ2L2,b250hcFRbhaXARsyCqNWyvWrJ2L2,,,,,,,,,,,,,,,,,chosen stimuli: images/choice_trial_7.png,,,,,567f59e0d18c640011e7ac0b,09:05:46,27/02/2024
html-keyboard-response,88,178902,0.0-38.0-2.0,,,,delaylearn,learning,feedback_duration_window,b250hcFRbhaXARsyCqNWyvWrJ2L2,b250hcFRbhaXARsyCqNWyvWrJ2L2,,,,,,,,,,,,,,,,,,7000.0,,,,567f59e0d18c640011e7ac0b,09:05:46,27/02/2024
html-keyboard-response,89,180418,0.0-38.0-3.0,,<div style='margin:auto;width: auto; font-size: 150%'><span style='font-weight: bold; font-size: 100px; color: red;'>0 points!</span><br><br></div>,,delaylearn,learning,feedback_image_window,b250hcFRbhaXARsyCqNWyvWrJ2L2,b250hcFRbhaXARsyCqNWyvWrJ2L2,,,,,,,,,,,,,,,,,,,,,,567f59e0d18c640011e7ac0b,09:05:46,27/02/2024
html-keyboard-response,90,182355,0.0-39.0,,"<div style=""font-size:100px;"">+</div>",,delaylearn,learning,ITI,b250hcFRbhaXARsyCqNWyvWrJ2L2,b250hcFRbhaXARsyCqNWyvWrJ2L2,,,,,,,,,,,,,,,,,,,1922.0,,,567f59e0d18c640011e7ac0b,09:05:46,27/02/2024
html-keyboard-response,91,183366,0.0-40.0-0.0,1007.9000000003725,"<div style=""display: flex; flex-direction: column; align-items: center; margin-top: -40px;""><img src=""images/pattern_7.png"" style=""width: 234px; height: 230px; margin-top: -50px;""><div style=""display: flex; justify-content: space-between; margin-top: 33px;""><img src=""images/choice_trial_13.png"" style=""width: 408px; height: 417px; margin-right: 200px;""><img src=""images/choice_trial_4.png"" style=""width: 408px; height: 417px;""></div></div>",j,delaylearn,learning,trial,b250hcFRbhaXARsyCqNWyvWrJ2L2,b250hcFRbhaXARsyCqNWyvWrJ2L2,4.0,images/choice_trial_13.png,images/choice_trial_4.png,images/pattern_7.png,j,f,750.0,13.0,4.0,6.0,0.0,17.0,0.0,1.0,4.0,80.0,,,,,,567f59e0d18c640011e7ac0b,09:05:46,27/02/2024
html-keyboard-response,92,184373,0.0-40.0-1.0,,"<div style=""display: flex; flex-direction: column; align-items: center; margin-top: -40px;""><img src=""images/pattern_7.png"" style=""width: 234px; height: 230px; margin-top: -50px;""><div style=""display: flex; justify-content: space-between; margin-top: 33px;""><img src=""images/choice_trial_4.png"" style=""width: 408px; height: 417px; margin-left:608px;""></div></div>",,delaylearn,learning,display_response,b250hcFRbhaXARsyCqNWyvWrJ2L2,b250hcFRbhaXARsyCqNWyvWrJ2L2,,,,,,,,,,,,,,,,,chosen stimuli: images/choice_trial_4.png,,,,,567f59e0d18c640011e7ac0b,09:05:46,27/02/2024
html-keyboard-response,93,185138,0.0-40.0-2.0,,,,delaylearn,learning,feedback_duration_window,b250hcFRbhaXARsyCqNWyvWrJ2L2,b250hcFRbhaXARsyCqNWyvWrJ2L2,,,,,,,,,,,,,,,,,,750.0,,,,567f59e0d18c640011e7ac0b,09:05:46,27/02/2024
html-keyboard-response,94,186653,0.0-40.0-3.0,,<div style='margin:auto;width: auto; font-size: 150%'><span style='font-weight: bold; font-size: 100px; color: green;'>+10 points!</span><br><br></div>,,delaylearn,learning,feedback_image_window,b250hcFRbhaXARsyCqNWyvWrJ2L2,b250hcFRbhaXARsyCqNWyvWrJ2L2,,,,,,,,,,,,,,,,,,,,,,567f59e0d18c640011e7ac0b,09:05:46,27/02/2024
html-keyboard-response,95,189138,0.0-41.0,,"<div style=""font-size:100px;"">+</div>",,delaylearn,learning,ITI,b250hcFRbhaXARsyCqNWyvWrJ2L2,b250hcFRbhaXARsyCqNWyvWrJ2L2,,,,,,,,,,,,,,,,,,,2471.0,,,567f59e0d18c640011e7ac0b,09:05:46,27/02/2024
html-keyboard-response,96,190544,0.0-42.0-0.0,1404.1000000005588,"<div style=""display: flex; flex-direction: column; align-items: center; margin-top: -40px;""><img src=""images/pattern_1.png"" style=""width: 234px; height: 230px; margin-top: -50px;""><div style=""display: flex; justify-content: space-between; margin-top: 33px;""><img src=""images/choice_trial_1.png"" style=""width: 408px; height: 417px; margin-right: 200px;""><img src=""images/choice_trial_9.png"" style=""width: 408px; height: 417px;""></div></div>",j,delaylearn,learning,trial,b250hcFRbhaXARsyCqNWyvWrJ2L2,b250hcFRbhaXARsyCqNWyvWrJ2L2,4.0,images/choice_trial_1.png,images/choice_trial_9.png,images/pattern_1.png,f,f,7000.0,1.0,9.0,1.0,0.0,18.0,0.0,0.0,9.0,80.0,,,,,,567f59e0d18c640011e7ac0b,09:05:46,27/02/2024
html-keyboard-response,97,191561,0.0-42.0-1.0,,"<div style=""display: flex; flex-direction: column; align-items: center; margin-top: -40px;""><img src=""images/pattern_1.png"" style=""width: 234px; height: 230px; margin-top: -50px;""><div style=""display: flex; justify-content: space-between; margin-top: 33px;""><img src=""images/choice_trial_9.png"" style=""width: 408px; height: 417px; margin-left:608px;""></div></div>",,delaylearn,learning,display_response,b250hcFRbhaXARsyCqNWyvWrJ2L2,b250hcFRbhaXARsyCqNWyvWrJ2L2,,,,,,,,,,,,,,,,,chosen stimuli: images/choice_trial_9.png,,,,,567f59e0d18c640011e7ac0b,09:05:46,27/02/2024
html-keyboard-response,98,198576,0.0-42.0-2.0,,,,delaylearn,learning,feedback_duration_window,b250hcFRbhaXARsyCqNWyvWrJ2L2,b250hcFRbhaXARsyCqNWyvWrJ2L2,,,,,,,,,,,,,,,,,,7000.0,,,,567f59e0d18c640011e7ac0b,09:05:46,27/02/2024
html-keyboard-response,99,200091,0.0-42.0-3.0,,<div style='margin:auto;width: auto; font-size: 150%'><span style='font-weight: bold; font-size: 100px; color: red;'>0 points!</span><br><br></div>,,delaylearn,learning,feedback_image_window,b250hcFRbhaXARsyCqNWyvWrJ2L2,b250hcFRbhaXARsyCqNWyvWrJ2L2,,,,,,,,,,,,,,,,,,,,,,567f59e0d18c640011e7ac0b,09:05:46,27/02/2024
html-keyboard-response,100,201826,0.0-43.0,,"<div style=""font-size:100px;"">+</div>",,delaylearn,learning,ITI,b250hcFRbhaXARsyCqNWyvWrJ2L2,b250hcFRbhaXARsyCqNWyvWrJ2L2,,,,,,,,,,,,,,,,,,,1723.0,,,567f59e0d18c640011e7ac0b,09:05:46,27/02/2024
html-keyboard-response,101,203245,0.0-44.0-0.0,1416.7000000001863,"<div style=""display: flex; flex-direction: column; align-items: center; margin-top: -40px;""><img src=""images/pattern_6.png"" style=""width: 234px; height: 230px; margin-top: -50px;""><div style=""display: flex; justify-content: space-between; margin-top: 33px;""><img src=""images/choice_trial_3.png"" style=""width: 408px; height: 417px; margin-right: 200px;""><img src=""images/choice_trial_10.png"" style=""width: 408px; height: 417px;""></div></div>",j,delaylearn,learning,trial,b250hcFRbhaXARsyCqNWyvWrJ2L2,b250hcFRbhaXARsyCqNWyvWrJ2L2,4.0,images/choice_trial_3.png,images/choice_trial_10.png,images/pattern_6.png,j,j,750.0,3.0,10.0,5.0,1.0,19.0,1.0,1.0,10.0,90.0,,,,,,567f59e0d18c640011e7ac0b,09:05:46,27/02/2024
html-keyboard-response,102,204248,0.0-44.0-1.0,,"<div style=""display: flex; flex-direction: column; align-items: center; margin-top: -40px;""><img src=""images/pattern_6.png"" style=""width: 234px; height: 230px; margin-top: -50px;""><div style=""display: flex; justify-content: space-between; margin-top: 33px;""><img src=""images/choice_trial_10.png"" style=""width: 408px; height: 417px; margin-left:608px;""></div></div>",,delaylearn,learning,display_response,b250hcFRbhaXARsyCqNWyvWrJ2L2,b250hcFRbhaXARsyCqNWyvWrJ2L2,,,,,,,,,,,,,,,,,chosen stimuli: images/choice_trial_10.png,,,,,567f59e0d18c640011e7ac0b,09:05:46,27/02/2024
html-keyboard-response,103,205013,0.0-44.0-2.0,,,,delaylearn,learning,feedback_duration_window,b250hcFRbhaXARsyCqNWyvWrJ2L2,b250hcFRbhaXARsyCqNWyvWrJ2L2,,,,,,,,,,,,,,,,,,750.0,,,,567f59e0d18c640011e7ac0b,09:05:46,27/02/2024
html-keyboard-response,104,206545,0.0-44.0-3.0,,<div style='margin:auto;width: auto; font-size: 150%'><span style='font-weight: bold; font-size: 100px; color: green;'>+10 points!</span><br><br></div>,,delaylearn,learning,feedback_image_window,b250hcFRbhaXARsyCqNWyvWrJ2L2,b250hcFRbhaXARsyCqNWyvWrJ2L2,,,,,,,,,,,,,,,,,,,,,,567f59e0d18c640011e7ac0b,09:05:46,27/02/2024
html-keyboard-response,105,208435,0.0-45.0,,"<div style=""font-size:100px;"">+</div>",,delaylearn,learning,ITI,b250hcFRbhaXARsyCqNWyvWrJ2L2,b250hcFRbhaXARsyCqNWyvWrJ2L2,,,,,,,,,,,,,,,,,,,1880.0,,,567f59e0d18c640011e7ac0b,09:05:46,27/02/2024
html-keyboard-response,106,209620,0.0-46.0-0.0,1181.3999999994412,"<div style=""display: flex; flex-direction: column; align-items: center; margin-top: -40px;""><img src=""images/pattern_4.png"" style=""width: 234px; height: 230px; margin-top: -50px;""><div style=""display: flex; justify-content: space-between; margin-top: 33px;""><img src=""images/choice_trial_8.png"" style=""width: 408px; height: 417px; margin-right: 200px;""><img src=""images/choice_trial_7.png"" style=""width: 408px; height: 417px;""></div></div>",f,delaylearn,learning,trial,b250hcFRbhaXARsyCqNWyvWrJ2L2,b250hcFRbhaXARsyCqNWyvWrJ2L2,4.0,images/choice_trial_8.png,images/choice_trial_7.png,images/pattern_4.png,f,f,7000.0,8.0,7.0,3.0,0.0,20.0,1.0,1.0,8.0,100.0,,,,,,567f59e0d18c640011e7ac0b,09:05:46,27/02/2024
html-keyboard-response,107,210623,0.0-46.0-1.0,,"<div style=""display: flex; flex-direction: column; align-items: center; margin-top: -40px;""><img src=""images/pattern_4.png"" style=""width: 234px; height: 230px; margin-top: -50px;""><div style=""display: flex; justify-content: space-between; margin-top: 33px;""><img src=""images/choice_trial_8.png"" style=""width: 408px; height: 417px; margin-right: 608px;""></div></div>",,delaylearn,learning,display_response,b250hcFRbhaXARsyCqNWyvWrJ2L2,b250hcFRbhaXARsyCqNWyvWrJ2L2,,,,,,,,,,,,,,,,,chosen stimuli: images/choice_trial_8.png,,,,,567f59e0d18c640011e7ac0b,09:05:46,27/02/2024
html-keyboard-response,108,217638,0.0-46.0-2.0,,,,delaylearn,learning,feedback_duration_window,b250hcFRbhaXARsyCqNWyvWrJ2L2,b250hcFRbhaXARsyCqNWyvWrJ2L2,,,,,,,,,,,,,,,,,,7000.0,,,,567f59e0d18c640011e7ac0b,09:05:46,27/02/2024
html-keyboard-response,109,219154,0.0-46.0-3.0,,<div style='margin:auto;width: auto; font-size: 150%'><span style='font-weight: bold; font-size: 100px; color: green;'>+10 points!</span><br><br></div>,,delaylearn,learning,feedback_image_window,b250hcFRbhaXARsyCqNWyvWrJ2L2,b250hcFRbhaXARsyCqNWyvWrJ2L2,,,,,,,,,,,,,,,,,,,,,,567f59e0d18c640011e7ac0b,09:05:46,27/02/2024
html-keyboard-response,110,219685,0.0-47.0-0.0,,,,,,mood_trial_fixation,b250hcFRbhaXARsyCqNWyvWrJ2L2,,,,,,,,,,,,,,,,,,,,,,,567f59e0d18c640011e7ac0b,09:05:46,27/02/2024
lmdlab-html-vas-response,111,225367,0.0-47.0-1.0,4661.0,How happy are you right now?,0.9948119765352141,delaylearn,learning,mood_trial,b250hcFRbhaXARsyCqNWyvWrJ2L2,b250hcFRbhaXARsyCqNWyvWrJ2L2,,,,,,,,,,,,,,,,,,,,"['Very unhappy', 'Very happy']",,567f59e0d18c640011e7ac0b,09:05:46,27/02/2024
html-keyboard-response,112,227497,0.0-48.0,,"<div style=""font-size:100px;"">+</div>",,delaylearn,learning,ITI,b250hcFRbhaXARsyCqNWyvWrJ2L2,b250hcFRbhaXARsyCqNWyvWrJ2L2,,,,,,,,,,,,,,,,,,,2120.0,,,567f59e0d18c640011e7ac0b,09:05:46,27/02/2024
html-keyboard-response,113,228517,0.0-49.0-0.0,1016.5,"<div style=""display: flex; flex-direction: column; align-items: center; margin-top: -40px;""><img src=""images/pattern_7.png"" style=""width: 234px; height: 230px; margin-top: -50px;""><div style=""display: flex; justify-content: space-between; margin-top: 33px;""><img src=""images/choice_trial_4.png"" style=""width: 408px; height: 417px; margin-right: 200px;""><img src=""images/choice_trial_13.png"" style=""width: 408px; height: 417px;""></div></div>",j,delaylearn,learning,trial,b250hcFRbhaXARsyCqNWyvWrJ2L2,b250hcFRbhaXARsyCqNWyvWrJ2L2,4.0,images/choice_trial_4.png,images/choice_trial_13.png,images/pattern_7.png,j,j,750.0,4.0,13.0,6.0,1.0,21.0,1.0,1.0,13.0,110.0,,,,,,567f59e0d18c640011e7ac0b,09:05:46,27/02/2024
html-keyboard-response,114,229529,0.0-49.0-1.0,,"<div style=""display: flex; flex-direction: column; align-items: center; margin-top: -40px;""><img src=""images/pattern_7.png"" style=""width: 234px; height: 230px; margin-top: -50px;""><div style=""display: flex; justify-content: space-between; margin-top: 33px;""><img src=""images/choice_trial_13.png"" style=""width: 408px; height: 417px; margin-left:608px;""></div></div>",,delaylearn,learning,display_response,b250hcFRbhaXARsyCqNWyvWrJ2L2,b250hcFRbhaXARsyCqNWyvWrJ2L2,,,,,,,,,,,,,,,,,chosen stimuli: images/choice_trial_13.png,,,,,567f59e0d18c640011e7ac0b,09:05:46,27/02/2024
html-keyboard-response,115,230295,0.0-49.0-2.0,,,,delaylearn,learning,feedback_duration_window,b250hcFRbhaXARsyCqNWyvWrJ2L2,b250hcFRbhaXARsyCqNWyvWrJ2L2,,,,,,,,,,,,,,,,,,750.0,,,,567f59e0d18c640011e7ac0b,09:05:46,27/02/2024
html-keyboard-response,116,231810,0.0-49.0-3.0,,<div style='margin:auto;width: auto; font-size: 150%'><span style='font-weight: bold; font-size: 100px; color: green;'>+10 points!</span><br><br></div>,,delaylearn,learning,feedback_image_window,b250hcFRbhaXARsyCqNWyvWrJ2L2,b250hcFRbhaXARsyCqNWyvWrJ2L2,,,,,,,,,,,,,,,,,,,,,,567f59e0d18c640011e7ac0b,09:05:46,27/02/2024
html-keyboard-response,117,233560,0.0-50.0,,"<div style=""font-size:100px;"">+</div>",,delaylearn,learning,ITI,b250hcFRbhaXARsyCqNWyvWrJ2L2,b250hcFRbhaXARsyCqNWyvWrJ2L2,,,,,,,,,,,,,,,,,,,1737.0,,,567f59e0d18c640011e7ac0b,09:05:46,27/02/2024
html-keyboard-response,118,234747,0.0-51.0-0.0,1184.2999999998137,"<div style=""display: flex; flex-direction: column; align-items: center; margin-top: -40px;""><img src=""images/pattern_1.png"" style=""width: 234px; height: 230px; margin-top: -50px;""><div style=""display: flex; justify-content: space-between; margin-top: 33px;""><img src=""images/choice_trial_9.png"" style=""width: 408px; height: 417px; margin-right: 200px;""><img src=""images/choice_trial_1.png"" style=""width: 408px; height: 417px;""></div></div>",j,delaylearn,learning,trial,b250hcFRbhaXARsyCqNWyvWrJ2L2,b250hcFRbhaXARsyCqNWyvWrJ2L2,4.0,images/choice_trial_9.png,images/choice_trial_1.png,images/pattern_1.png,f,j,7000.0,9.0,1.0,1.0,1.0,22.0,1.0,0.0,1.0,110.0,,,,,,567f59e0d18c640011e7ac0b,09:05:46,27/02/2024
html-keyboard-response,119,235764,0.0-51.0-1.0,,"<div style=""display: flex; flex-direction: column; align-items: center; margin-top: -40px;""><img src=""images/pattern_1.png"" style=""width: 234px; height: 230px; margin-top: -50px;""><div style=""display: flex; justify-content: space-between; margin-top: 33px;""><img src=""images/choice_trial_1.png"" style=""width: 408px; height: 417px; margin-left:608px;""></div></div>",,delaylearn,learning,display_response,b250hcFRbhaXARsyCqNWyvWrJ2L2,b250hcFRbhaXARsyCqNWyvWrJ2L2,,,,,,,,,,,,,,,,,chosen stimuli: images/choice_trial_1.png,,,,,567f59e0d18c640011e7ac0b,09:05:46,27/02/2024
html-keyboard-response,120,242779,0.0-51.0-2.0,,,,delaylearn,learning,feedback_duration_window,b250hcFRbhaXARsyCqNWyvWrJ2L2,b250hcFRbhaXARsyCqNWyvWrJ2L2,,,,,,,,,,,,,,,,,,7000.0,,,,567f59e0d18c640011e7ac0b,09:05:46,27/02/2024
html-keyboard-response,121,244294,0.0-51.0-3.0,,<div style='margin:auto;width: auto; font-size: 150%'><span style='font-weight: bold; font-size: 100px; color: red;'>0 points!</span><br><br></div>,,delaylearn,learning,feedback_image_window,b250hcFRbhaXARsyCqNWyvWrJ2L2,b250hcFRbhaXARsyCqNWyvWrJ2L2,,,,,,,,,,,,,,,,,,,,,,567f59e0d18c640011e7ac0b,09:05:46,27/02/2024
html-keyboard-response,122,246467,0.0-52.0,,"<div style=""font-size:100px;"">+</div>",,delaylearn,learning,ITI,b250hcFRbhaXARsyCqNWyvWrJ2L2,b250hcFRbhaXARsyCqNWyvWrJ2L2,,,,,,,,,,,,,,,,,,,2169.0,,,567f59e0d18c640011e7ac0b,09:05:46,27/02/2024
html-keyboard-response,123,247746,0.0-53.0-0.0,1277.199999999255,"<div style=""display: flex; flex-direction: column; align-items: center; margin-top: -40px;""><img src=""images/pattern_5.png"" style=""width: 234px; height: 230px; margin-top: -50px;""><div style=""display: flex; justify-content: space-between; margin-top: 33px;""><img src=""images/choice_trial_15.png"" style=""width: 408px; height: 417px; margin-right: 200px;""><img src=""images/choice_trial_5.png"" style=""width: 408px; height: 417px;""></div></div>",f,delaylearn,learning,trial,b250hcFRbhaXARsyCqNWyvWrJ2L2,b250hcFRbhaXARsyCqNWyvWrJ2L2,4.0,images/choice_trial_15.png,images/choice_trial_5.png,images/pattern_5.png,j,j,750.0,15.0,5.0,4.0,1.0,23.0,0.0,0.0,15.0,110.0,,,,,,567f59e0d18c640011e7ac0b,09:05:46,27/02/2024
html-keyboard-response,124,248764,0.0-53.0-1.0,,"<div style=""display: flex; flex-direction: column; align-items: center; margin-top: -40px;""><img src=""images/pattern_5.png"" style=""width: 234px; height: 230px; margin-top: -50px;""><div style=""display: flex; justify-content: space-between; margin-top: 33px;""><img src=""images/choice_trial_15.png"" style=""width: 408px; height: 417px; margin-right: 608px;""></div></div>",,delaylearn,learning,display_response,b250hcFRbhaXARsyCqNWyvWrJ2L2,b250hcFRbhaXARsyCqNWyvWrJ2L2,,,,,,,,,,,,,,,,,chosen stimuli: images/choice_trial_15.png,,,,,567f59e0d18c640011e7ac0b,09:05:46,27/02/2024
html-keyboard-response,125,249529,0.0-53.0-2.0,,,,delaylearn,learning,feedback_duration_window,b250hcFRbhaXARsyCqNWyvWrJ2L2,b250hcFRbhaXARsyCqNWyvWrJ2L2,,,,,,,,,,,,,,,,,,750.0,,,,567f59e0d18c640011e7ac0b,09:05:46,27/02/2024
html-keyboard-response,126,251045,0.0-53.0-3.0,,<div style='margin:auto;width: auto; font-size: 150%'><span style='font-weight: bold; font-size: 100px; color: red;'>0 points!</span><br><br></div>,,delaylearn,learning,feedback_image_window,b250hcFRbhaXARsyCqNWyvWrJ2L2,b250hcFRbhaXARsyCqNWyvWrJ2L2,,,,,,,,,,,,,,,,,,,,,,567f59e0d18c640011e7ac0b,09:05:46,27/02/2024
html-keyboard-response,127,253248,0.0-54.0,,"<div style=""font-size:100px;"">+</div>",,delaylearn,learning,ITI,b250hcFRbhaXARsyCqNWyvWrJ2L2,b250hcFRbhaXARsyCqNWyvWrJ2L2,,,,,,,,,,,,,,,,,,,2196.0,,,567f59e0d18c640011e7ac0b,09:05:46,27/02/2024
html-keyboard-response,128,254242,0.0-55.0-0.0,991.1999999992549,"<div style=""display: flex; flex-direction: column; align-items: center; margin-top: -40px;""><img src=""images/pattern_3.png"" style=""width: 234px; height: 230px; margin-top: -50px;""><div style=""display: flex; justify-content: space-between; margin-top: 33px;""><img src=""images/choice_trial_6.png"" style=""width: 408px; height: 417px; margin-right: 200px;""><img src=""images/choice_trial_16.png"" style=""width: 408px; height: 417px;""></div></div>",j,delaylearn,learning,trial,b250hcFRbhaXARsyCqNWyvWrJ2L2,b250hcFRbhaXARsyCqNWyvWrJ2L2,4.0,images/choice_trial_6.png,images/choice_trial_16.png,images/pattern_3.png,j,j,7000.0,6.0,16.0,2.0,1.0,24.0,1.0,1.0,16.0,120.0,,,,,,567f59e0d18c640011e7ac0b,09:05:46,27/02/2024
html-keyboard-response,129,255248,0.0-55.0-1.0,,"<div style=""display: flex; flex-direction: column; align-items: center; margin-top: -40px;""><img src=""images/pattern_3.png"" style=""width: 234px; height: 230px; margin-top: -50px;""><div style=""display: flex; justify-content: space-between; margin-top: 33px;""><img src=""images/choice_trial_16.png"" style=""width: 408px; height: 417px; margin-left:608px;""></div></div>",,delaylearn,learning,display_response,b250hcFRbhaXARsyCqNWyvWrJ2L2,b250hcFRbhaXARsyCqNWyvWrJ2L2,,,,,,,,,,,,,,,,,chosen stimuli: images/choice_trial_16.png,,,,,567f59e0d18c640011e7ac0b,09:05:46,27/02/2024
html-keyboard-response,130,262263,0.0-55.0-2.0,,,,delaylearn,learning,feedback_duration_window,b250hcFRbhaXARsyCqNWyvWrJ2L2,b250hcFRbhaXARsyCqNWyvWrJ2L2,,,,,,,,,,,,,,,,,,7000.0,,,,567f59e0d18c640011e7ac0b,09:05:46,27/02/2024
html-keyboard-response,131,263779,0.0-55.0-3.0,,<div style='margin:auto;width: auto; font-size: 150%'><span style='font-weight: bold; font-size: 100px; color: green;'>+10 points!</span><br><br></div>,,delaylearn,learning,feedback_image_window,b250hcFRbhaXARsyCqNWyvWrJ2L2,b250hcFRbhaXARsyCqNWyvWrJ2L2,,,,,,,,,,,,,,,,,,,,,,567f59e0d18c640011e7ac0b,09:05:46,27/02/2024
lmdlab-html-vas-response,132,270966,0.0-56.0-0.0,5660.0,*How <b><u>confident</u></b> are you feeling about your answers at this moment?*,0.9253670611372962,rewlearn,rate_confidence,,b250hcFRbhaXARsyCqNWyvWrJ2L2,b250hcFRbhaXARsyCqNWyvWrJ2L2,,,,,,,,,,,,,,,,,,,,"['No confidence', 'Complete confidence']",,567f59e0d18c640011e7ac0b,09:05:46,27/02/2024
lmdlab-rest-trial-limit,133,282654,0.0-56.0-1.0,10167.400000000373,"<div style=""font-size:40px;""><b>Please take a break!</b><br><br><br><br><p>Great work: you earned undefined points.<br><br><br><p>You have completed part(s) 1 of 6.<br><br><br><br>When you are ready to continue<br><br><br>please click the button.</p><br><br>",0,delaylearn,learning,break,b250hcFRbhaXARsyCqNWyvWrJ2L2,b250hcFRbhaXARsyCqNWyvWrJ2L2,,,,,,,,,,,,,,,,,,,,,0.0,567f59e0d18c640011e7ac0b,09:05:46,27/02/2024
html-keyboard-response,134,285670,0.0-56.0-2.0,,"<div style=""font-size:100px;"">+</div>",,delaylearn,learning,pre_fixation,b250hcFRbhaXARsyCqNWyvWrJ2L2,,,,,,,,,,,,,,,,,,,,,,,567f59e0d18c640011e7ac0b,09:05:46,27/02/2024
lmdlab-html-vas-response,135,290614,0.0-56.0-3.0-0.0,3907.0,How happy are you right now?,0.9839612085042895,delaylearn,learning,mood_baseline,b250hcFRbhaXARsyCqNWyvWrJ2L2,b250hcFRbhaXARsyCqNWyvWrJ2L2,,,,,,,,,,,,,,,,,,,,"['Very unhappy', 'Very happy']",,567f59e0d18c640011e7ac0b,09:05:46,27/02/2024
html-keyboard-response,136,292123,0.0-56.0-3.0-1.0,,,,,,mood_baseline_fixation,b250hcFRbhaXARsyCqNWyvWrJ2L2,,,,,,,,,,,,,,,,,,,,,,,567f59e0d18c640011e7ac0b,09:05:46,27/02/2024
html-keyboard-response,137,294138,0.0-57.0,,"<div style=""font-size:100px;"">+</div>",,delaylearn,learning,ITI,b250hcFRbhaXARsyCqNWyvWrJ2L2,b250hcFRbhaXARsyCqNWyvWrJ2L2,,,,,,,,,,,,,,,,,,,2009.0,,,567f59e0d18c640011e7ac0b,09:05:46,27/02/2024
html-keyboard-response,138,295323,0.0-58.0-0.0,1182.1000000005588,"<div style=""display: flex; flex-direction: column; align-items: center; margin-top: -40px;""><img src=""images/pattern_7.png"" style=""width: 234px; height: 230px; margin-top: -50px;""><div style=""display: flex; justify-content: space-between; margin-top: 33px;""><img src=""images/choice_trial_4.png"" style=""width: 408px; height: 417px; margin-right: 200px;""><img src=""images/choice_trial_13.png"" style=""width: 408px; height: 417px;""></div></div>",j,delaylearn,learning,trial,b250hcFRbhaXARsyCqNWyvWrJ2L2,b250hcFRbhaXARsyCqNWyvWrJ2L2,4.0,images/choice_trial_4.png,images/choice_trial_13.png,images/pattern_7.png,j,j,750.0,4.0,13.0,6.0,1.0,25.0,1.0,1.0,13.0,130.0,,,,,,567f59e0d18c640011e7ac0b,09:05:46,27/02/2024
html-keyboard-response,139,296326,0.0-58.0-1.0,,"<div style=""display: flex; flex-direction: column; align-items: center; margin-top: -40px;""><img src=""images/pattern_7.png"" style=""width: 234px; height: 230px; margin-top: -50px;""><div style=""display: flex; justify-content: space-between; margin-top: 33px;""><img src=""images/choice_trial_13.png"" style=""width: 408px; height: 417px; margin-left:608px;""></div></div>",,delaylearn,learning,display_response,b250hcFRbhaXARsyCqNWyvWrJ2L2,b250hcFRbhaXARsyCqNWyvWrJ2L2,,,,,,,,,,,,,,,,,chosen stimuli: images/choice_trial_13.png,,,,,567f59e0d18c640011e7ac0b,09:05:46,27/02/2024
html-keyboard-response,140,297093,0.0-58.0-2.0,,,,delaylearn,learning,feedback_duration_window,b250hcFRbhaXARsyCqNWyvWrJ2L2,b250hcFRbhaXARsyCqNWyvWrJ2L2,,,,,,,,,,,,,,,,,,750.0,,,,567f59e0d18c640011e7ac0b,09:05:46,27/02/2024
html-keyboard-response,141,298607,0.0-58.0-3.0,,<div style='margin:auto;width: auto; font-size: 150%'><span style='font-weight: bold; font-size: 100px; color: green;'>+10 points!</span><br><br></div>,,delaylearn,learning,feedback_image_window,b250hcFRbhaXARsyCqNWyvWrJ2L2,b250hcFRbhaXARsyCqNWyvWrJ2L2,,,,,,,,,,,,,,,,,,,,,,567f59e0d18c640011e7ac0b,09:05:46,27/02/2024
html-keyboard-response,142,299123,0.0-59.0-0.0,,,,,,mood_trial_fixation,b250hcFRbhaXARsyCqNWyvWrJ2L2,,,,,,,,,,,,,,,,,,,,,,,567f59e0d18c640011e7ac0b,09:05:46,27/02/2024
lmdlab-html-vas-response,143,303984,0.0-59.0-1.0,3842.0,How happy are you right now?,0.9883015157166594,delaylearn,learning,mood_trial,b250hcFRbhaXARsyCqNWyvWrJ2L2,b250hcFRbhaXARsyCqNWyvWrJ2L2,,,,,,,,,,,,,,,,,,,,"['Very unhappy', 'Very happy']",,567f59e0d18c640011e7ac0b,09:05:46,27/02/2024
html-keyboard-response,144,305967,0.0-60.0,,"<div style=""font-size:100px;"">+</div>",,delaylearn,learning,ITI,b250hcFRbhaXARsyCqNWyvWrJ2L2,b250hcFRbhaXARsyCqNWyvWrJ2L2,,,,,,,,,,,,,,,,,,,1971.0,,,567f59e0d18c640011e7ac0b,09:05:46,27/02/2024
html-keyboard-response,145,307112,0.0-61.0-0.0,1146.5,"<div style=""display: flex; flex-direction: column; align-items: center; margin-top: -40px;""><img src=""images/pattern_1.png"" style=""width: 234px; height: 230px; margin-top: -50px;""><div style=""display: flex; justify-content: space-between; margin-top: 33px;""><img src=""images/choice_trial_1.png"" style=""width: 408px; height: 417px; margin-right: 200px;""><img src=""images/choice_trial_9.png"" style=""width: 408px; height: 417px;""></div></div>",f,delaylearn,learning,trial,b250hcFRbhaXARsyCqNWyvWrJ2L2,b250hcFRbhaXARsyCqNWyvWrJ2L2,4.0,images/choice_trial_1.png,images/choice_trial_9.png,images/pattern_1.png,f,f,7000.0,1.0,9.0,1.0,0.0,26.0,1.0,1.0,1.0,140.0,,,,,,567f59e0d18c640011e7ac0b,09:05:46,27/02/2024
html-keyboard-response,146,308118,0.0-61.0-1.0,,"<div style=""display: flex; flex-direction: column; align-items: center; margin-top: -40px;""><img src=""images/pattern_1.png"" style=""width: 234px; height: 230px; margin-top: -50px;""><div style=""display: flex; justify-content: space-between; margin-top: 33px;""><img src=""images/choice_trial_1.png"" style=""width: 408px; height: 417px; margin-right: 608px;""></div></div>",,delaylearn,learning,display_response,b250hcFRbhaXARsyCqNWyvWrJ2L2,b250hcFRbhaXARsyCqNWyvWrJ2L2,,,,,,,,,,,,,,,,,chosen stimuli: images/choice_trial_1.png,,,,,567f59e0d18c640011e7ac0b,09:05:46,27/02/2024
html-keyboard-response,147,315133,0.0-61.0-2.0,,,,delaylearn,learning,feedback_duration_window,b250hcFRbhaXARsyCqNWyvWrJ2L2,b250hcFRbhaXARsyCqNWyvWrJ2L2,,,,,,,,,,,,,,,,,,7000.0,,,,567f59e0d18c640011e7ac0b,09:05:46,27/02/2024
html-keyboard-response,148,316649,0.0-61.0-3.0,,<div style='margin:auto;width: auto; font-size: 150%'><span style='font-weight: bold; font-size: 100px; color: green;'>+10 points!</span><br><br></div>,,delaylearn,learning,feedback_image_window,b250hcFRbhaXARsyCqNWyvWrJ2L2,b250hcFRbhaXARsyCqNWyvWrJ2L2,,,,,,,,,,,,,,,,,,,,,,567f59e0d18c640011e7ac0b,09:05:46,27/02/2024
html-keyboard-response,149,318227,0.0-62.0,,"<div style=""font-size:100px;"">+</div>",,delaylearn,learning,ITI,b250hcFRbhaXARsyCqNWyvWrJ2L2,b250hcFRbhaXARsyCqNWyvWrJ2L2,,,,,,,,,,,,,,,,,,,1571.0,,,567f59e0d18c640011e7ac0b,09:05:46,27/02/2024
html-keyboard-response,150,319708,0.0-63.0-0.0,1477.7999999998137,"<div style=""display: flex; flex-direction: column; align-items: center; margin-top: -40px;""><img src=""images/pattern_5.png"" style=""width: 234px; height: 230px; margin-top: -50px;""><div style=""display: flex; justify-content: space-between; margin-top: 33px;""><img src=""images/choice_trial_5.png"" style=""width: 408px; height: 417px; margin-right: 200px;""><img src=""images/choice_trial_15.png"" style=""width: 408px; height: 417px;""></div></div>",j,delaylearn,learning,trial,b250hcFRbhaXARsyCqNWyvWrJ2L2,b250hcFRbhaXARsyCqNWyvWrJ2L2,4.0,images/choice_trial_5.png,images/choice_trial_15.png,images/pattern_5.png,f,f,750.0,5.0,15.0,4.0,0.0,27.0,0.0,0.0,15.0,140.0,,,,,,567f59e0d18c640011e7ac0b,09:05:46,27/02/2024
html-keyboard-response,151,320712,0.0-63.0-1.0,,"<div style=""display: flex; flex-direction: column; align-items: center; margin-top: -40px;""><img src=""images/pattern_5.png"" style=""width: 234px; height: 230px; margin-top: -50px;""><div style=""display: flex; justify-content: space-between; margin-top: 33px;""><img src=""images/choice_trial_15.png"" style=""width: 408px; height: 417px; margin-left:608px;""></div></div>",,delaylearn,learning,display_response,b250hcFRbhaXARsyCqNWyvWrJ2L2,b250hcFRbhaXARsyCqNWyvWrJ2L2,,,,,,,,,,,,,,,,,chosen stimuli: images/choice_trial_15.png,,,,,567f59e0d18c640011e7ac0b,09:05:46,27/02/2024
html-keyboard-response,152,321477,0.0-63.0-2.0,,,,delaylearn,learning,feedback_duration_window,b250hcFRbhaXARsyCqNWyvWrJ2L2,b250hcFRbhaXARsyCqNWyvWrJ2L2,,,,,,,,,,,,,,,,,,750.0,,,,567f59e0d18c640011e7ac0b,09:05:46,27/02/2024
html-keyboard-response,153,322993,0.0-63.0-3.0,,<div style='margin:auto;width: auto; font-size: 150%'><span style='font-weight: bold; font-size: 100px; color: red;'>0 points!</span><br><br></div>,,delaylearn,learning,feedback_image_window,b250hcFRbhaXARsyCqNWyvWrJ2L2,b250hcFRbhaXARsyCqNWyvWrJ2L2,,,,,,,,,,,,,,,,,,,,,,567f59e0d18c640011e7ac0b,09:05:46,27/02/2024
html-keyboard-response,154,325352,0.0-64.0,,"<div style=""font-size:100px;"">+</div>",,delaylearn,learning,ITI,b250hcFRbhaXARsyCqNWyvWrJ2L2,b250hcFRbhaXARsyCqNWyvWrJ2L2,,,,,,,,,,,,,,,,,,,2344.0,,,567f59e0d18c640011e7ac0b,09:05:46,27/02/2024
html-keyboard-response,155,326589,0.0-65.0-0.0,1234.0,"<div style=""display: flex; flex-direction: column; align-items: center; margin-top: -40px;""><img src=""images/pattern_6.png"" style=""width: 234px; height: 230px; margin-top: -50px;""><div style=""display: flex; justify-content: space-between; margin-top: 33px;""><img src=""images/choice_trial_3.png"" style=""width: 408px; height: 417px; margin-right: 200px;""><img src=""images/choice_trial_10.png"" style=""width: 408px; height: 417px;""></div></div>",j,delaylearn,learning,trial,b250hcFRbhaXARsyCqNWyvWrJ2L2,b250hcFRbhaXARsyCqNWyvWrJ2L2,4.0,images/choice_trial_3.png,images/choice_trial_10.png,images/pattern_6.png,j,j,750.0,3.0,10.0,5.0,1.0,28.0,1.0,1.0,10.0,150.0,,,,,,567f59e0d18c640011e7ac0b,09:05:46,27/02/2024
html-keyboard-response,156,327603,0.0-65.0-1.0,,"<div style=""display: flex; flex-direction: column; align-items: center; margin-top: -40px;""><img src=""images/pattern_6.png"" style=""width: 234px; height: 230px; margin-top: -50px;""><div style=""display: flex; justify-content: space-between; margin-top: 33px;""><img src=""images/choice_trial_10.png"" style=""width: 408px; height: 417px; margin-left:608px;""></div></div>",,delaylearn,learning,display_response,b250hcFRbhaXARsyCqNWyvWrJ2L2,b250hcFRbhaXARsyCqNWyvWrJ2L2,,,,,,,,,,,,,,,,,chosen stimuli: images/choice_trial_10.png,,,,,567f59e0d18c640011e7ac0b,09:05:46,27/02/2024
html-keyboard-response,157,328368,0.0-65.0-2.0,,,,delaylearn,learning,feedback_duration_window,b250hcFRbhaXARsyCqNWyvWrJ2L2,b250hcFRbhaXARsyCqNWyvWrJ2L2,,,,,,,,,,,,,,,,,,750.0,,,,567f59e0d18c640011e7ac0b,09:05:46,27/02/2024
html-keyboard-response,158,329884,0.0-65.0-3.0,,<div style='margin:auto;width: auto; font-size: 150%'><span style='font-weight: bold; font-size: 100px; color: green;'>+10 points!</span><br><br></div>,,delaylearn,learning,feedback_image_window,b250hcFRbhaXARsyCqNWyvWrJ2L2,b250hcFRbhaXARsyCqNWyvWrJ2L2,,,,,,,,,,,,,,,,,,,,,,567f59e0d18c640011e7ac0b,09:05:46,27/02/2024
html-keyboard-response,159,330399,0.0-66.0-0.0,,,,,,mood_trial_fixation,b250hcFRbhaXARsyCqNWyvWrJ2L2,,,,,,,,,,,,,,,,,,,,,,,567f59e0d18c640011e7ac0b,09:05:46,27/02/2024
lmdlab-html-vas-response,160,334779,0.0-66.0-1.0,3359.0,How happy are you right now?,0.9904716693228443,delaylearn,learning,mood_trial,b250hcFRbhaXARsyCqNWyvWrJ2L2,b250hcFRbhaXARsyCqNWyvWrJ2L2,,,,,,,,,,,,,,,,,,,,"['Very unhappy', 'Very happy']",,567f59e0d18c640011e7ac0b,09:05:46,27/02/2024
html-keyboard-response,161,336633,0.0-67.0,,"<div style=""font-size:100px;"">+</div>",,delaylearn,learning,ITI,b250hcFRbhaXARsyCqNWyvWrJ2L2,b250hcFRbhaXARsyCqNWyvWrJ2L2,,,,,,,,,,,,,,,,,,,1841.0,,,567f59e0d18c640011e7ac0b,09:05:46,27/02/2024
html-keyboard-response,162,337863,0.0-68.0-0.0,1226.3999999994412,"<div style=""display: flex; flex-direction: column; align-items: center; margin-top: -40px;""><img src=""images/pattern_4.png"" style=""width: 234px; height: 230px; margin-top: -50px;""><div style=""display: flex; justify-content: space-between; margin-top: 33px;""><img src=""images/choice_trial_7.png"" style=""width: 408px; height: 417px; margin-right: 200px;""><img src=""images/choice_trial_8.png"" style=""width: 408px; height: 417px;""></div></div>",f,delaylearn,learning,trial,b250hcFRbhaXARsyCqNWyvWrJ2L2,b250hcFRbhaXARsyCqNWyvWrJ2L2,4.0,images/choice_trial_7.png,images/choice_trial_8.png,images/pattern_4.png,j,j,7000.0,7.0,8.0,3.0,1.0,29.0,0.0,0.0,7.0,150.0,,,,,,567f59e0d18c640011e7ac0b,09:05:46,27/02/2024
html-keyboard-response,163,338869,0.0-68.0-1.0,,"<div style=""display: flex; flex-direction: column; align-items: center; margin-top: -40px;""><img src=""images/pattern_4.png"" style=""width: 234px; height: 230px; margin-top: -50px;""><div style=""display: flex; justify-content: space-between; margin-top: 33px;""><img src=""images/choice_trial_7.png"" style=""width: 408px; height: 417px; margin-right: 608px;""></div></div>",,delaylearn,learning,display_response,b250hcFRbhaXARsyCqNWyvWrJ2L2,b250hcFRbhaXARsyCqNWyvWrJ2L2,,,,,,,,,,,,,,,,,chosen stimuli: images/choice_trial_7.png,,,,,567f59e0d18c640011e7ac0b,09:05:46,27/02/2024
html-keyboard-response,164,345883,0.0-68.0-2.0,,,,delaylearn,learning,feedback_duration_window,b250hcFRbhaXARsyCqNWyvWrJ2L2,b250hcFRbhaXARsyCqNWyvWrJ2L2,,,,,,,,,,,,,,,,,,7000.0,,,,567f59e0d18c640011e7ac0b,09:05:46,27/02/2024
html-keyboard-response,165,347399,0.0-68.0-3.0,,<div style='margin:auto;width: auto; font-size: 150%'><span style='font-weight: bold; font-size: 100px; color: red;'>0 points!</span><br><br></div>,,delaylearn,learning,feedback_image_window,b250hcFRbhaXARsyCqNWyvWrJ2L2,b250hcFRbhaXARsyCqNWyvWrJ2L2,,,,,,,,,,,,,,,,,,,,,,567f59e0d18c640011e7ac0b,09:05:46,27/02/2024
html-keyboard-response,166,348975,0.0-69.0,,"<div style=""font-size:100px;"">+</div>",,delaylearn,learning,ITI,b250hcFRbhaXARsyCqNWyvWrJ2L2,b250hcFRbhaXARsyCqNWyvWrJ2L2,,,,,,,,,,,,,,,,,,,1560.0,,,567f59e0d18c640011e7ac0b,09:05:46,27/02/2024
html-keyboard-response,167,350021,0.0-70.0-0.0,1042.1000000005588,"<div style=""display: flex; flex-direction: column; align-items: center; margin-top: -40px;""><img src=""images/pattern_3.png"" style=""width: 234px; height: 230px; margin-top: -50px;""><div style=""display: flex; justify-content: space-between; margin-top: 33px;""><img src=""images/choice_trial_6.png"" style=""width: 408px; height: 417px; margin-right: 200px;""><img src=""images/choice_trial_16.png"" style=""width: 408px; height: 417px;""></div></div>",j,delaylearn,learning,trial,b250hcFRbhaXARsyCqNWyvWrJ2L2,b250hcFRbhaXARsyCqNWyvWrJ2L2,4.0,images/choice_trial_6.png,images/choice_trial_16.png,images/pattern_3.png,j,j,7000.0,6.0,16.0,2.0,1.0,30.0,1.0,1.0,16.0,160.0,,,,,,567f59e0d18c640011e7ac0b,09:05:46,27/02/2024
html-keyboard-response,168,351040,0.0-70.0-1.0,,"<div style=""display: flex; flex-direction: column; align-items: center; margin-top: -40px;""><img src=""images/pattern_3.png"" style=""width: 234px; height: 230px; margin-top: -50px;""><div style=""display: flex; justify-content: space-between; margin-top: 33px;""><img src=""images/choice_trial_16.png"" style=""width: 408px; height: 417px; margin-left:608px;""></div></div>",,delaylearn,learning,display_response,b250hcFRbhaXARsyCqNWyvWrJ2L2,b250hcFRbhaXARsyCqNWyvWrJ2L2,,,,,,,,,,,,,,,,,chosen stimuli: images/choice_trial_16.png,,,,,567f59e0d18c640011e7ac0b,09:05:46,27/02/2024
html-keyboard-response,169,358055,0.0-70.0-2.0,,,,delaylearn,learning,feedback_duration_window,b250hcFRbhaXARsyCqNWyvWrJ2L2,b250hcFRbhaXARsyCqNWyvWrJ2L2,,,,,,,,,,,,,,,,,,7000.0,,,,567f59e0d18c640011e7ac0b,09:05:46,27/02/2024
html-keyboard-response,170,359572,0.0-70.0-3.0,,<div style='margin:auto;width: auto; font-size: 150%'><span style='font-weight: bold; font-size: 100px; color: green;'>+10 points!</span><br><br></div>,,delaylearn,learning,feedback_image_window,b250hcFRbhaXARsyCqNWyvWrJ2L2,b250hcFRbhaXARsyCqNWyvWrJ2L2,,,,,,,,,,,,,,,,,,,,,,567f59e0d18c640011e7ac0b,09:05:46,27/02/2024
html-keyboard-response,171,361399,0.0-71.0,,"<div style=""font-size:100px;"">+</div>",,delaylearn,learning,ITI,b250hcFRbhaXARsyCqNWyvWrJ2L2,b250hcFRbhaXARsyCqNWyvWrJ2L2,,,,,,,,,,,,,,,,,,,1811.0,,,567f59e0d18c640011e7ac0b,09:05:46,27/02/2024
html-keyboard-response,172,362641,0.0-72.0-0.0,1239.5,"<div style=""display: flex; flex-direction: column; align-items: center; margin-top: -40px;""><img src=""images/pattern_5.png"" style=""width: 234px; height: 230px; margin-top: -50px;""><div style=""display: flex; justify-content: space-between; margin-top: 33px;""><img src=""images/choice_trial_5.png"" style=""width: 408px; height: 417px; margin-right: 200px;""><img src=""images/choice_trial_15.png"" style=""width: 408px; height: 417px;""></div></div>",f,delaylearn,learning,trial,b250hcFRbhaXARsyCqNWyvWrJ2L2,b250hcFRbhaXARsyCqNWyvWrJ2L2,4.0,images/choice_trial_5.png,images/choice_trial_15.png,images/pattern_5.png,j,f,750.0,5.0,15.0,4.0,0.0,31.0,1.0,0.0,5.0,160.0,,,,,,567f59e0d18c640011e7ac0b,09:05:46,27/02/2024
html-keyboard-response,173,363649,0.0-72.0-1.0,,"<div style=""display: flex; flex-direction: column; align-items: center; margin-top: -40px;""><img src=""images/pattern_5.png"" style=""width: 234px; height: 230px; margin-top: -50px;""><div style=""display: flex; justify-content: space-between; margin-top: 33px;""><img src=""images/choice_trial_5.png"" style=""width: 408px; height: 417px; margin-right: 608px;""></div></div>",,delaylearn,learning,display_response,b250hcFRbhaXARsyCqNWyvWrJ2L2,b250hcFRbhaXARsyCqNWyvWrJ2L2,,,,,,,,,,,,,,,,,chosen stimuli: images/choice_trial_5.png,,,,,567f59e0d18c640011e7ac0b,09:05:46,27/02/2024
html-keyboard-response,174,364415,0.0-72.0-2.0,,,,delaylearn,learning,feedback_duration_window,b250hcFRbhaXARsyCqNWyvWrJ2L2,b250hcFRbhaXARsyCqNWyvWrJ2L2,,,,,,,,,,,,,,,,,,750.0,,,,567f59e0d18c640011e7ac0b,09:05:46,27/02/2024
html-keyboard-response,175,365930,0.0-72.0-3.0,,<div style='margin:auto;width: auto; font-size: 150%'><span style='font-weight: bold; font-size: 100px; color: red;'>0 points!</span><br><br></div>,,delaylearn,learning,feedback_image_window,b250hcFRbhaXARsyCqNWyvWrJ2L2,b250hcFRbhaXARsyCqNWyvWrJ2L2,,,,,,,,,,,,,,,,,,,,,,567f59e0d18c640011e7ac0b,09:05:46,27/02/2024
html-keyboard-response,176,367942,0.0-73.0,,"<div style=""font-size:100px;"">+</div>",,delaylearn,learning,ITI,b250hcFRbhaXARsyCqNWyvWrJ2L2,b250hcFRbhaXARsyCqNWyvWrJ2L2,,,,,,,,,,,,,,,,,,,2003.0,,,567f59e0d18c640011e7ac0b,09:05:46,27/02/2024
html-keyboard-response,177,369115,0.0-74.0-0.0,1169.5999999996275,"<div style=""display: flex; flex-direction: column; align-items: center; margin-top: -40px;""><img src=""images/pattern_1.png"" style=""width: 234px; height: 230px; margin-top: -50px;""><div style=""display: flex; justify-content: space-between; margin-top: 33px;""><img src=""images/choice_trial_1.png"" style=""width: 408px; height: 417px; margin-right: 200px;""><img src=""images/choice_trial_9.png"" style=""width: 408px; height: 417px;""></div></div>",j,delaylearn,learning,trial,b250hcFRbhaXARsyCqNWyvWrJ2L2,b250hcFRbhaXARsyCqNWyvWrJ2L2,4.0,images/choice_trial_1.png,images/choice_trial_9.png,images/pattern_1.png,f,f,7000.0,1.0,9.0,1.0,0.0,32.0,0.0,0.0,9.0,160.0,,,,,,567f59e0d18c640011e7ac0b,09:05:46,27/02/2024
html-keyboard-response,178,370130,0.0-74.0-1.0,,"<div style=""display: flex; flex-direction: column; align-items: center; margin-top: -40px;""><img src=""images/pattern_1.png"" style=""width: 234px; height: 230px; margin-top: -50px;""><div style=""display: flex; justify-content: space-between; margin-top: 33px;""><img src=""images/choice_trial_9.png"" style=""width: 408px; height: 417px; margin-left:608px;""></div></div>",,delaylearn,learning,display_response,b250hcFRbhaXARsyCqNWyvWrJ2L2,b250hcFRbhaXARsyCqNWyvWrJ2L2,,,,,,,,,,,,,,,,,chosen stimuli: images/choice_trial_9.png,,,,,567f59e0d18c640011e7ac0b,09:05:46,27/02/2024
html-keyboard-response,179,377146,0.0-74.0-2.0,,,,delaylearn,learning,feedback_duration_window,b250hcFRbhaXARsyCqNWyvWrJ2L2,b250hcFRbhaXARsyCqNWyvWrJ2L2,,,,,,,,,,,,,,,,,,7000.0,,,,567f59e0d18c640011e7ac0b,09:05:46,27/02/2024
html-keyboard-response,180,378662,0.0-74.0-3.0,,<div style='margin:auto;width: auto; font-size: 150%'><span style='font-weight: bold; font-size: 100px; color: red;'>0 points!</span><br><br></div>,,delaylearn,learning,feedback_image_window,b250hcFRbhaXARsyCqNWyvWrJ2L2,b250hcFRbhaXARsyCqNWyvWrJ2L2,,,,,,,,,,,,,,,,,,,,,,567f59e0d18c640011e7ac0b,09:05:46,27/02/2024
html-keyboard-response,181,379176,0.0-75.0-0.0,,,,,,mood_trial_fixation,b250hcFRbhaXARsyCqNWyvWrJ2L2,,,,,,,,,,,,,,,,,,,,,,,567f59e0d18c640011e7ac0b,09:05:46,27/02/2024
lmdlab-html-vas-response,182,383841,0.0-75.0-1.0,3649.0,How happy are you right now?,0.9774507476857346,delaylearn,learning,mood_trial,b250hcFRbhaXARsyCqNWyvWrJ2L2,b250hcFRbhaXARsyCqNWyvWrJ2L2,,,,,,,,,,,,,,,,,,,,"['Very unhappy', 'Very happy']",,567f59e0d18c640011e7ac0b,09:05:46,27/02/2024
html-keyboard-response,183,385567,0.0-76.0,,"<div style=""font-size:100px;"">+</div>",,delaylearn,learning,ITI,b250hcFRbhaXARsyCqNWyvWrJ2L2,b250hcFRbhaXARsyCqNWyvWrJ2L2,,,,,,,,,,,,,,,,,,,1723.0,,,567f59e0d18c640011e7ac0b,09:05:46,27/02/2024
html-keyboard-response,184,386555,0.0-77.0-0.0,984.9000000003725,"<div style=""display: flex; flex-direction: column; align-items: center; margin-top: -40px;""><img src=""images/pattern_6.png"" style=""width: 234px; height: 230px; margin-top: -50px;""><div style=""display: flex; justify-content: space-between; margin-top: 33px;""><img src=""images/choice_trial_10.png"" style=""width: 408px; height: 417px; margin-right: 200px;""><img src=""images/choice_trial_3.png"" style=""width: 408px; height: 417px;""></div></div>",j,delaylearn,learning,trial,b250hcFRbhaXARsyCqNWyvWrJ2L2,b250hcFRbhaXARsyCqNWyvWrJ2L2,4.0,images/choice_trial_10.png,images/choice_trial_3.png,images/pattern_6.png,j,f,750.0,10.0,3.0,5.0,0.0,33.0,0.0,1.0,3.0,170.0,,,,,,567f59e0d18c640011e7ac0b,09:05:46,27/02/2024
html-keyboard-response,185,387567,0.0-77.0-1.0,,"<div style=""display: flex; flex-direction: column; align-items: center; margin-top: -40px;""><img src=""images/pattern_6.png"" style=""width: 234px; height: 230px; margin-top: -50px;""><div style=""display: flex; justify-content: space-between; margin-top: 33px;""><img src=""images/choice_trial_3.png"" style=""width: 408px; height: 417px; margin-left:608px;""></div></div>",,delaylearn,learning,display_response,b250hcFRbhaXARsyCqNWyvWrJ2L2,b250hcFRbhaXARsyCqNWyvWrJ2L2,,,,,,,,,,,,,,,,,chosen stimuli: images/choice_trial_3.png,,,,,567f59e0d18c640011e7ac0b,09:05:46,27/02/2024
html-keyboard-response,186,388333,0.0-77.0-2.0,,,,delaylearn,learning,feedback_duration_window,b250hcFRbhaXARsyCqNWyvWrJ2L2,b250hcFRbhaXARsyCqNWyvWrJ2L2,,,,,,,,,,,,,,,,,,750.0,,,,567f59e0d18c640011e7ac0b,09:05:46,27/02/2024
html-keyboard-response,187,389849,0.0-77.0-3.0,,<div style='margin:auto;width: auto; font-size: 150%'><span style='font-weight: bold; font-size: 100px; color: green;'>+10 points!</span><br><br></div>,,delaylearn,learning,feedback_image_window,b250hcFRbhaXARsyCqNWyvWrJ2L2,b250hcFRbhaXARsyCqNWyvWrJ2L2,,,,,,,,,,,,,,,,,,,,,,567f59e0d18c640011e7ac0b,09:05:46,27/02/2024
html-keyboard-response,188,391396,0.0-78.0,,"<div style=""font-size:100px;"">+</div>",,delaylearn,learning,ITI,b250hcFRbhaXARsyCqNWyvWrJ2L2,b250hcFRbhaXARsyCqNWyvWrJ2L2,,,,,,,,,,,,,,,,,,,1533.0,,,567f59e0d18c640011e7ac0b,09:05:46,27/02/2024
html-keyboard-response,189,392555,0.0-79.0-0.0,1155.5999999996275,"<div style=""display: flex; flex-direction: column; align-items: center; margin-top: -40px;""><img src=""images/pattern_3.png"" style=""width: 234px; height: 230px; margin-top: -50px;""><div style=""display: flex; justify-content: space-between; margin-top: 33px;""><img src=""images/choice_trial_6.png"" style=""width: 408px; height: 417px; margin-right: 200px;""><img src=""images/choice_trial_16.png"" style=""width: 408px; height: 417px;""></div></div>",j,delaylearn,learning,trial,b250hcFRbhaXARsyCqNWyvWrJ2L2,b250hcFRbhaXARsyCqNWyvWrJ2L2,4.0,images/choice_trial_6.png,images/choice_trial_16.png,images/pattern_3.png,j,j,7000.0,6.0,16.0,2.0,1.0,34.0,1.0,1.0,16.0,180.0,,,,,,567f59e0d18c640011e7ac0b,09:05:46,27/02/2024
html-keyboard-response,190,393568,0.0-79.0-1.0,,"<div style=""display: flex; flex-direction: column; align-items: center; margin-top: -40px;""><img src=""images/pattern_3.png"" style=""width: 234px; height: 230px; margin-top: -50px;""><div style=""display: flex; justify-content: space-between; margin-top: 33px;""><img src=""images/choice_trial_16.png"" style=""width: 408px; height: 417px; margin-left:608px;""></div></div>",,delaylearn,learning,display_response,b250hcFRbhaXARsyCqNWyvWrJ2L2,b250hcFRbhaXARsyCqNWyvWrJ2L2,,,,,,,,,,,,,,,,,chosen stimuli: images/choice_trial_16.png,,,,,567f59e0d18c640011e7ac0b,09:05:46,27/02/2024
html-keyboard-response,191,400582,0.0-79.0-2.0,,,,delaylearn,learning,feedback_duration_window,b250hcFRbhaXARsyCqNWyvWrJ2L2,b250hcFRbhaXARsyCqNWyvWrJ2L2,,,,,,,,,,,,,,,,,,7000.0,,,,567f59e0d18c640011e7ac0b,09:05:46,27/02/2024
html-keyboard-response,192,402099,0.0-79.0-3.0,,<div style='margin:auto;width: auto; font-size: 150%'><span style='font-weight: bold; font-size: 100px; color: green;'>+10 points!</span><br><br></div>,,delaylearn,learning,feedback_image_window,b250hcFRbhaXARsyCqNWyvWrJ2L2,b250hcFRbhaXARsyCqNWyvWrJ2L2,,,,,,,,,,,,,,,,,,,,,,567f59e0d18c640011e7ac0b,09:05:46,27/02/2024
html-keyboard-response,193,403755,0.0-80.0,,"<div style=""font-size:100px;"">+</div>",,delaylearn,learning,ITI,b250hcFRbhaXARsyCqNWyvWrJ2L2,b250hcFRbhaXARsyCqNWyvWrJ2L2,,,,,,,,,,,,,,,,,,,1654.0,,,567f59e0d18c640011e7ac0b,09:05:46,27/02/2024
html-keyboard-response,194,404964,0.0-81.0-0.0,1205.1000000005588,"<div style=""display: flex; flex-direction: column; align-items: center; margin-top: -40px;""><img src=""images/pattern_4.png"" style=""width: 234px; height: 230px; margin-top: -50px;""><div style=""display: flex; justify-content: space-between; margin-top: 33px;""><img src=""images/choice_trial_7.png"" style=""width: 408px; height: 417px; margin-right: 200px;""><img src=""images/choice_trial_8.png"" style=""width: 408px; height: 417px;""></div></div>",f,delaylearn,learning,trial,b250hcFRbhaXARsyCqNWyvWrJ2L2,b250hcFRbhaXARsyCqNWyvWrJ2L2,4.0,images/choice_trial_7.png,images/choice_trial_8.png,images/pattern_4.png,f,j,7000.0,7.0,8.0,3.0,1.0,35.0,0.0,1.0,7.0,190.0,,,,,,567f59e0d18c640011e7ac0b,09:05:46,27/02/2024
html-keyboard-response,195,405974,0.0-81.0-1.0,,"<div style=""display: flex; flex-direction: column; align-items: center; margin-top: -40px;""><img src=""images/pattern_4.png"" style=""width: 234px; height: 230px; margin-top: -50px;""><div style=""display: flex; justify-content: space-between; margin-top: 33px;""><img src=""images/choice_trial_7.png"" style=""width: 408px; height: 417px; margin-right: 608px;""></div></div>",,delaylearn,learning,display_response,b250hcFRbhaXARsyCqNWyvWrJ2L2,b250hcFRbhaXARsyCqNWyvWrJ2L2,,,,,,,,,,,,,,,,,chosen stimuli: images/choice_trial_7.png,,,,,567f59e0d18c640011e7ac0b,09:05:46,27/02/2024
html-keyboard-response,196,412989,0.0-81.0-2.0,,,,delaylearn,learning,feedback_duration_window,b250hcFRbhaXARsyCqNWyvWrJ2L2,b250hcFRbhaXARsyCqNWyvWrJ2L2,,,,,,,,,,,,,,,,,,7000.0,,,,567f59e0d18c640011e7ac0b,09:05:46,27/02/2024
html-keyboard-response,197,414503,0.0-81.0-3.0,,<div style='margin:auto;width: auto; font-size: 150%'><span style='font-weight: bold; font-size: 100px; color: green;'>+10 points!</span><br><br></div>,,delaylearn,learning,feedback_image_window,b250hcFRbhaXARsyCqNWyvWrJ2L2,b250hcFRbhaXARsyCqNWyvWrJ2L2,,,,,,,,,,,,,,,,,,,,,,567f59e0d18c640011e7ac0b,09:05:46,27/02/2024
html-keyboard-response,198,416537,0.0-82.0,,"<div style=""font-size:100px;"">+</div>",,delaylearn,learning,ITI,b250hcFRbhaXARsyCqNWyvWrJ2L2,b250hcFRbhaXARsyCqNWyvWrJ2L2,,,,,,,,,,,,,,,,,,,2030.0,,,567f59e0d18c640011e7ac0b,09:05:46,27/02/2024
html-keyboard-response,199,417929,0.0-83.0-0.0,1388.5999999996275,"<div style=""display: flex; flex-direction: column; align-items: center; margin-top: -40px;""><img src=""images/pattern_7.png"" style=""width: 234px; height: 230px; margin-top: -50px;""><div style=""display: flex; justify-content: space-between; margin-top: 33px;""><img src=""images/choice_trial_13.png"" style=""width: 408px; height: 417px; margin-right: 200px;""><img src=""images/choice_trial_4.png"" style=""width: 408px; height: 417px;""></div></div>",j,delaylearn,learning,trial,b250hcFRbhaXARsyCqNWyvWrJ2L2,b250hcFRbhaXARsyCqNWyvWrJ2L2,4.0,images/choice_trial_13.png,images/choice_trial_4.png,images/pattern_7.png,f,f,750.0,13.0,4.0,6.0,0.0,36.0,0.0,0.0,4.0,190.0,,,,,,567f59e0d18c640011e7ac0b,09:05:46,27/02/2024
html-keyboard-response,200,418943,0.0-83.0-1.0,,"<div style=""display: flex; flex-direction: column; align-items: center; margin-top: -40px;""><img src=""images/pattern_7.png"" style=""width: 234px; height: 230px; margin-top: -50px;""><div style=""display: flex; justify-content: space-between; margin-top: 33px;""><img src=""images/choice_trial_4.png"" style=""width: 408px; height: 417px; margin-left:608px;""></div></div>",,delaylearn,learning,display_response,b250hcFRbhaXARsyCqNWyvWrJ2L2,b250hcFRbhaXARsyCqNWyvWrJ2L2,,,,,,,,,,,,,,,,,chosen stimuli: images/choice_trial_4.png,,,,,567f59e0d18c640011e7ac0b,09:05:46,27/02/2024
html-keyboard-response,201,419704,0.0-83.0-2.0,,,,delaylearn,learning,feedback_duration_window,b250hcFRbhaXARsyCqNWyvWrJ2L2,b250hcFRbhaXARsyCqNWyvWrJ2L2,,,,,,,,,,,,,,,,,,750.0,,,,567f59e0d18c640011e7ac0b,09:05:46,27/02/2024
html-keyboard-response,202,421221,0.0-83.0-3.0,,<div style='margin:auto;width: auto; font-size: 150%'><span style='font-weight: bold; font-size: 100px; color: red;'>0 points!</span><br><br></div>,,delaylearn,learning,feedback_image_window,b250hcFRbhaXARsyCqNWyvWrJ2L2,b250hcFRbhaXARsyCqNWyvWrJ2L2,,,,,,,,,,,,,,,,,,,,,,567f59e0d18c640011e7ac0b,09:05:46,27/02/2024
html-keyboard-response,203,422740,0.0-84.0,,"<div style=""font-size:100px;"">+</div>",,delaylearn,learning,ITI,b250hcFRbhaXARsyCqNWyvWrJ2L2,b250hcFRbhaXARsyCqNWyvWrJ2L2,,,,,,,,,,,,,,,,,,,1503.0,,,567f59e0d18c640011e7ac0b,09:05:46,27/02/2024
html-keyboard-response,204,423891,0.0-85.0-0.0,1148.5,"<div style=""display: flex; flex-direction: column; align-items: center; margin-top: -40px;""><img src=""images/pattern_1.png"" style=""width: 234px; height: 230px; margin-top: -50px;""><div style=""display: flex; justify-content: space-between; margin-top: 33px;""><img src=""images/choice_trial_1.png"" style=""width: 408px; height: 417px; margin-right: 200px;""><img src=""images/choice_trial_9.png"" style=""width: 408px; height: 417px;""></div></div>",f,delaylearn,learning,trial,b250hcFRbhaXARsyCqNWyvWrJ2L2,b250hcFRbhaXARsyCqNWyvWrJ2L2,4.0,images/choice_trial_1.png,images/choice_trial_9.png,images/pattern_1.png,f,f,7000.0,1.0,9.0,1.0,0.0,37.0,1.0,1.0,1.0,200.0,,,,,,567f59e0d18c640011e7ac0b,09:05:46,27/02/2024
html-keyboard-response,205,424896,0.0-85.0-1.0,,"<div style=""display: flex; flex-direction: column; align-items: center; margin-top: -40px;""><img src=""images/pattern_1.png"" style=""width: 234px; height: 230px; margin-top: -50px;""><div style=""display: flex; justify-content: space-between; margin-top: 33px;""><img src=""images/choice_trial_1.png"" style=""width: 408px; height: 417px; margin-right: 608px;""></div></div>",,delaylearn,learning,display_response,b250hcFRbhaXARsyCqNWyvWrJ2L2,b250hcFRbhaXARsyCqNWyvWrJ2L2,,,,,,,,,,,,,,,,,chosen stimuli: images/choice_trial_1.png,,,,,567f59e0d18c640011e7ac0b,09:05:46,27/02/2024
html-keyboard-response,206,431919,0.0-85.0-2.0,,,,delaylearn,learning,feedback_duration_window,b250hcFRbhaXARsyCqNWyvWrJ2L2,b250hcFRbhaXARsyCqNWyvWrJ2L2,,,,,,,,,,,,,,,,,,7000.0,,,,567f59e0d18c640011e7ac0b,09:05:46,27/02/2024
html-keyboard-response,207,433435,0.0-85.0-3.0,,<div style='margin:auto;width: auto; font-size: 150%'><span style='font-weight: bold; font-size: 100px; color: green;'>+10 points!</span><br><br></div>,,delaylearn,learning,feedback_image_window,b250hcFRbhaXARsyCqNWyvWrJ2L2,b250hcFRbhaXARsyCqNWyvWrJ2L2,,,,,,,,,,,,,,,,,,,,,,567f59e0d18c640011e7ac0b,09:05:46,27/02/2024
html-keyboard-response,208,433951,0.0-86.0-0.0,,,,,,mood_trial_fixation,b250hcFRbhaXARsyCqNWyvWrJ2L2,,,,,,,,,,,,,,,,,,,,,,,567f59e0d18c640011e7ac0b,09:05:46,27/02/2024
lmdlab-html-vas-response,209,439577,0.0-86.0-1.0,4606.0,How happy are you right now?,0.9796209012919196,delaylearn,learning,mood_trial,b250hcFRbhaXARsyCqNWyvWrJ2L2,b250hcFRbhaXARsyCqNWyvWrJ2L2,,,,,,,,,,,,,,,,,,,,"['Very unhappy', 'Very happy']",,567f59e0d18c640011e7ac0b,09:05:46,27/02/2024
html-keyboard-response,210,441738,0.0-87.0,,"<div style=""font-size:100px;"">+</div>",,delaylearn,learning,ITI,b250hcFRbhaXARsyCqNWyvWrJ2L2,b250hcFRbhaXARsyCqNWyvWrJ2L2,,,,,,,,,,,,,,,,,,,2145.0,,,567f59e0d18c640011e7ac0b,09:05:46,27/02/2024
html-keyboard-response,211,443188,0.0-88.0-0.0,1446.9000000003725,"<div style=""display: flex; flex-direction: column; align-items: center; margin-top: -40px;""><img src=""images/pattern_3.png"" style=""width: 234px; height: 230px; margin-top: -50px;""><div style=""display: flex; justify-content: space-between; margin-top: 33px;""><img src=""images/choice_trial_16.png"" style=""width: 408px; height: 417px; margin-right: 200px;""><img src=""images/choice_trial_6.png"" style=""width: 408px; height: 417px;""></div></div>",f,delaylearn,learning,trial,b250hcFRbhaXARsyCqNWyvWrJ2L2,b250hcFRbhaXARsyCqNWyvWrJ2L2,4.0,images/choice_trial_16.png,images/choice_trial_6.png,images/pattern_3.png,j,f,7000.0,16.0,6.0,2.0,0.0,38.0,1.0,0.0,16.0,200.0,,,,,,567f59e0d18c640011e7ac0b,09:05:46,27/02/2024
html-keyboard-response,212,444217,0.0-88.0-1.0,,"<div style=""display: flex; flex-direction: column; align-items: center; margin-top: -40px;""><img src=""images/pattern_3.png"" style=""width: 234px; height: 230px; margin-top: -50px;""><div style=""display: flex; justify-content: space-between; margin-top: 33px;""><img src=""images/choice_trial_16.png"" style=""width: 408px; height: 417px; margin-right: 608px;""></div></div>",,delaylearn,learning,display_response,b250hcFRbhaXARsyCqNWyvWrJ2L2,b250hcFRbhaXARsyCqNWyvWrJ2L2,,,,,,,,,,,,,,,,,chosen stimuli: images/choice_trial_16.png,,,,,567f59e0d18c640011e7ac0b,09:05:46,27/02/2024
html-keyboard-response,213,451233,0.0-88.0-2.0,,,,delaylearn,learning,feedback_duration_window,b250hcFRbhaXARsyCqNWyvWrJ2L2,b250hcFRbhaXARsyCqNWyvWrJ2L2,,,,,,,,,,,,,,,,,,7000.0,,,,567f59e0d18c640011e7ac0b,09:05:46,27/02/2024
html-keyboard-response,214,452747,0.0-88.0-3.0,,<div style='margin:auto;width: auto; font-size: 150%'><span style='font-weight: bold; font-size: 100px; color: red;'>0 points!</span><br><br></div>,,delaylearn,learning,feedback_image_window,b250hcFRbhaXARsyCqNWyvWrJ2L2,b250hcFRbhaXARsyCqNWyvWrJ2L2,,,,,,,,,,,,,,,,,,,,,,567f59e0d18c640011e7ac0b,09:05:46,27/02/2024
html-keyboard-response,215,454341,0.0-89.0,,"<div style=""font-size:100px;"">+</div>",,delaylearn,learning,ITI,b250hcFRbhaXARsyCqNWyvWrJ2L2,b250hcFRbhaXARsyCqNWyvWrJ2L2,,,,,,,,,,,,,,,,,,,1584.0,,,567f59e0d18c640011e7ac0b,09:05:46,27/02/2024
html-keyboard-response,216,455505,0.0-90.0-0.0,1160.7000000001863,"<div style=""display: flex; flex-direction: column; align-items: center; margin-top: -40px;""><img src=""images/pattern_7.png"" style=""width: 234px; height: 230px; margin-top: -50px;""><div style=""display: flex; justify-content: space-between; margin-top: 33px;""><img src=""images/choice_trial_4.png"" style=""width: 408px; height: 417px; margin-right: 200px;""><img src=""images/choice_trial_13.png"" style=""width: 408px; height: 417px;""></div></div>",f,delaylearn,learning,trial,b250hcFRbhaXARsyCqNWyvWrJ2L2,b250hcFRbhaXARsyCqNWyvWrJ2L2,4.0,images/choice_trial_4.png,images/choice_trial_13.png,images/pattern_7.png,j,j,750.0,4.0,13.0,6.0,1.0,39.0,0.0,0.0,4.0,200.0,,,,,,567f59e0d18c640011e7ac0b,09:05:46,27/02/2024
html-keyboard-response,217,456513,0.0-90.0-1.0,,"<div style=""display: flex; flex-direction: column; align-items: center; margin-top: -40px;""><img src=""images/pattern_7.png"" style=""width: 234px; height: 230px; margin-top: -50px;""><div style=""display: flex; justify-content: space-between; margin-top: 33px;""><img src=""images/choice_trial_4.png"" style=""width: 408px; height: 417px; margin-right: 608px;""></div></div>",,delaylearn,learning,display_response,b250hcFRbhaXARsyCqNWyvWrJ2L2,b250hcFRbhaXARsyCqNWyvWrJ2L2,,,,,,,,,,,,,,,,,chosen stimuli: images/choice_trial_4.png,,,,,567f59e0d18c640011e7ac0b,09:05:46,27/02/2024
html-keyboard-response,218,457280,0.0-90.0-2.0,,,,delaylearn,learning,feedback_duration_window,b250hcFRbhaXARsyCqNWyvWrJ2L2,b250hcFRbhaXARsyCqNWyvWrJ2L2,,,,,,,,,,,,,,,,,,750.0,,,,567f59e0d18c640011e7ac0b,09:05:46,27/02/2024
html-keyboard-response,219,458788,0.0-90.0-3.0,,<div style='margin:auto;width: auto; font-size: 150%'><span style='font-weight: bold; font-size: 100px; color: red;'>0 points!</span><br><br></div>,,delaylearn,learning,feedback_image_window,b250hcFRbhaXARsyCqNWyvWrJ2L2,b250hcFRbhaXARsyCqNWyvWrJ2L2,,,,,,,,,,,,,,,,,,,,,,567f59e0d18c640011e7ac0b,09:05:46,27/02/2024
html-keyboard-response,220,460764,0.0-91.0,,"<div style=""font-size:100px;"">+</div>",,delaylearn,learning,ITI,b250hcFRbhaXARsyCqNWyvWrJ2L2,b250hcFRbhaXARsyCqNWyvWrJ2L2,,,,,,,,,,,,,,,,,,,1969.0,,,567f59e0d18c640011e7ac0b,09:05:46,27/02/2024
html-keyboard-response,221,461790,0.0-92.0-0.0,1023.5999999996275,"<div style=""display: flex; flex-direction: column; align-items: center; margin-top: -40px;""><img src=""images/pattern_5.png"" style=""width: 234px; height: 230px; margin-top: -50px;""><div style=""display: flex; justify-content: space-between; margin-top: 33px;""><img src=""images/choice_trial_15.png"" style=""width: 408px; height: 417px; margin-right: 200px;""><img src=""images/choice_trial_5.png"" style=""width: 408px; height: 417px;""></div></div>",j,delaylearn,learning,trial,b250hcFRbhaXARsyCqNWyvWrJ2L2,b250hcFRbhaXARsyCqNWyvWrJ2L2,4.0,images/choice_trial_15.png,images/choice_trial_5.png,images/pattern_5.png,j,j,750.0,15.0,5.0,4.0,1.0,40.0,1.0,1.0,5.0,210.0,,,,,,567f59e0d18c640011e7ac0b,09:05:46,27/02/2024
html-keyboard-response,222,462795,0.0-92.0-1.0,,"<div style=""display: flex; flex-direction: column; align-items: center; margin-top: -40px;""><img src=""images/pattern_5.png"" style=""width: 234px; height: 230px; margin-top: -50px;""><div style=""display: flex; justify-content: space-between; margin-top: 33px;""><img src=""images/choice_trial_5.png"" style=""width: 408px; height: 417px; margin-left:608px;""></div></div>",,delaylearn,learning,display_response,b250hcFRbhaXARsyCqNWyvWrJ2L2,b250hcFRbhaXARsyCqNWyvWrJ2L2,,,,,,,,,,,,,,,,,chosen stimuli: images/choice_trial_5.png,,,,,567f59e0d18c640011e7ac0b,09:05:46,27/02/2024
html-keyboard-response,223,463576,0.0-92.0-2.0,,,,delaylearn,learning,feedback_duration_window,b250hcFRbhaXARsyCqNWyvWrJ2L2,b250hcFRbhaXARsyCqNWyvWrJ2L2,,,,,,,,,,,,,,,,,,750.0,,,,567f59e0d18c640011e7ac0b,09:05:46,27/02/2024
html-keyboard-response,224,465091,0.0-92.0-3.0,,<div style='margin:auto;width: auto; font-size: 150%'><span style='font-weight: bold; font-size: 100px; color: green;'>+10 points!</span><br><br></div>,,delaylearn,learning,feedback_image_window,b250hcFRbhaXARsyCqNWyvWrJ2L2,b250hcFRbhaXARsyCqNWyvWrJ2L2,,,,,,,,,,,,,,,,,,,,,,567f59e0d18c640011e7ac0b,09:05:46,27/02/2024
html-keyboard-response,225,465608,0.0-93.0-0.0,,,,,,mood_trial_fixation,b250hcFRbhaXARsyCqNWyvWrJ2L2,,,,,,,,,,,,,,,,,,,,,,,567f59e0d18c640011e7ac0b,09:05:46,27/02/2024
lmdlab-html-vas-response,226,470560,0.0-93.0-1.0,3933.0,How happy are you right now?,0.9926418229290292,delaylearn,learning,mood_trial,b250hcFRbhaXARsyCqNWyvWrJ2L2,b250hcFRbhaXARsyCqNWyvWrJ2L2,,,,,,,,,,,,,,,,,,,,"['Very unhappy', 'Very happy']",,567f59e0d18c640011e7ac0b,09:05:46,27/02/2024
html-keyboard-response,227,473060,0.0-94.0,,"<div style=""font-size:100px;"">+</div>",,delaylearn,learning,ITI,b250hcFRbhaXARsyCqNWyvWrJ2L2,b250hcFRbhaXARsyCqNWyvWrJ2L2,,,,,,,,,,,,,,,,,,,2495.0,,,567f59e0d18c640011e7ac0b,09:05:46,27/02/2024
html-keyboard-response,228,474702,0.0-95.0-0.0,1638.5999999996275,"<div style=""display: flex; flex-direction: column; align-items: center; margin-top: -40px;""><img src=""images/pattern_4.png"" style=""width: 234px; height: 230px; margin-top: -50px;""><div style=""display: flex; justify-content: space-between; margin-top: 33px;""><img src=""images/choice_trial_8.png"" style=""width: 408px; height: 417px; margin-right: 200px;""><img src=""images/choice_trial_7.png"" style=""width: 408px; height: 417px;""></div></div>",j,delaylearn,learning,trial,b250hcFRbhaXARsyCqNWyvWrJ2L2,b250hcFRbhaXARsyCqNWyvWrJ2L2,4.0,images/choice_trial_8.png,images/choice_trial_7.png,images/pattern_4.png,f,f,7000.0,8.0,7.0,3.0,0.0,41.0,0.0,0.0,7.0,210.0,,,,,,567f59e0d18c640011e7ac0b,09:05:46,27/02/2024
html-keyboard-response,229,475717,0.0-95.0-1.0,,"<div style=""display: flex; flex-direction: column; align-items: center; margin-top: -40px;""><img src=""images/pattern_4.png"" style=""width: 234px; height: 230px; margin-top: -50px;""><div style=""display: flex; justify-content: space-between; margin-top: 33px;""><img src=""images/choice_trial_7.png"" style=""width: 408px; height: 417px; margin-left:608px;""></div></div>",,delaylearn,learning,display_response,b250hcFRbhaXARsyCqNWyvWrJ2L2,b250hcFRbhaXARsyCqNWyvWrJ2L2,,,,,,,,,,,,,,,,,chosen stimuli: images/choice_trial_7.png,,,,,567f59e0d18c640011e7ac0b,09:05:46,27/02/2024
html-keyboard-response,230,482731,0.0-95.0-2.0,,,,delaylearn,learning,feedback_duration_window,b250hcFRbhaXARsyCqNWyvWrJ2L2,b250hcFRbhaXARsyCqNWyvWrJ2L2,,,,,,,,,,,,,,,,,,7000.0,,,,567f59e0d18c640011e7ac0b,09:05:46,27/02/2024
html-keyboard-response,231,484249,0.0-95.0-3.0,,<div style='margin:auto;width: auto; font-size: 150%'><span style='font-weight: bold; font-size: 100px; color: red;'>0 points!</span><br><br></div>,,delaylearn,learning,feedback_image_window,b250hcFRbhaXARsyCqNWyvWrJ2L2,b250hcFRbhaXARsyCqNWyvWrJ2L2,,,,,,,,,,,,,,,,,,,,,,567f59e0d18c640011e7ac0b,09:05:46,27/02/2024
