trial_type,trial_index,time_elapsed,internal_node_id,rt,stimulus,response,exp_name,exp_stage,test_part,subjectID,databaseID,counterbal,choice_stimuli_1,choice_stimuli_2,pattern_stimuli,rewarded_answer,correct_answer,feedback_duration_times,stim_left,stim_right,pair,leftright_counter,trial,response_correct,response_rewarded,chosen_stim,counter,displayed_choice,feedback_durations,ITI_duration,labels,rest_warning,prolificID,start_time,date
pavlovia,0,507,0.0-0.0,,,,,,,hk5Rs5yNsDNSud4Z6ziYql9O0JV2,,,,,,,,,,,,,,,,,,,,,,,5cdd2e2a8b39ba00191a227e,16:40:22,27/03/2024
html-keyboard-response,1,3521,0.0-1.0,,"<div style=""font-size:100px;"">+</div>",,delaylearn,learning,pre_fixation,hk5Rs5yNsDNSud4Z6ziYql9O0JV2,,,,,,,,,,,,,,,,,,,,,,,5cdd2e2a8b39ba00191a227e,16:40:22,27/03/2024
html-keyboard-response,2,4648,0.0-2.0-0.0,1124.9000000953674,"<div style=""display: flex; flex-direction: column; align-items: center; margin-top: -40px;""><img src=""images/demo_images/pattern_1.png"" style=""width: 234px; height: 230px; margin-top: -50px;""><div style=""display: flex; justify-content: space-between; margin-top: 33px;""><img src=""images/demo_images/choice_trial_2.png"" style=""width: 408px; height: 417px; margin-right: 200px;""><img src=""images/demo_images/choice_trial_1.png"" style=""width: 408px; height: 417px;""></div></div>",f,delaylearn,learning,trial,hk5Rs5yNsDNSud4Z6ziYql9O0JV2,hk5Rs5yNsDNSud4Z6ziYql9O0JV2,2.0,images/demo_images/choice_trial_2.png,images/demo_images/choice_trial_1.png,images/demo_images/pattern_1.png,j,j,3000.0,2.0,1.0,20.0,1.0,1.0,0.0,0.0,2.0,0.0,,,,,,5cdd2e2a8b39ba00191a227e,16:40:22,27/03/2024
html-keyboard-response,3,5653,0.0-2.0-1.0,,"<div style=""display: flex; flex-direction: column; align-items: center; margin-top: -40px;""><img src=""images/demo_images/pattern_1.png"" style=""width: 234px; height: 230px; margin-top: -50px;""><div style=""display: flex; justify-content: space-between; margin-top: 33px;""><img src=""images/demo_images/choice_trial_2.png"" style=""width: 408px; height: 417px; margin-right: 608px;""></div></div>",,delaylearn,learning,display_response,hk5Rs5yNsDNSud4Z6ziYql9O0JV2,hk5Rs5yNsDNSud4Z6ziYql9O0JV2,,,,,,,,,,,,,,,,,chosen stimuli: images/demo_images/choice_trial_2.png,,,,,5cdd2e2a8b39ba00191a227e,16:40:22,27/03/2024
html-keyboard-response,4,8658,0.0-2.0-2.0,,,,delaylearn,learning,feedback_duration_window,hk5Rs5yNsDNSud4Z6ziYql9O0JV2,hk5Rs5yNsDNSud4Z6ziYql9O0JV2,,,,,,,,,,,,,,,,,,3000.0,,,,5cdd2e2a8b39ba00191a227e,16:40:22,27/03/2024
html-keyboard-response,5,10161,0.0-2.0-3.0,,<div style='margin:auto;width: auto; font-size: 150%'><span style='font-weight: bold; font-size: 100px; color: red;'>0 points!</span><br><br></div>,,delaylearn,learning,feedback_image_window,hk5Rs5yNsDNSud4Z6ziYql9O0JV2,hk5Rs5yNsDNSud4Z6ziYql9O0JV2,,,,,,,,,,,,,,,,,,,,,,5cdd2e2a8b39ba00191a227e,16:40:22,27/03/2024
html-keyboard-response,6,11684,0.0-3.0,,"<div style=""font-size:100px;"">+</div>",,delaylearn,learning,ITI,hk5Rs5yNsDNSud4Z6ziYql9O0JV2,hk5Rs5yNsDNSud4Z6ziYql9O0JV2,,,,,,,,,,,,,,,,,,,1517.0,,,5cdd2e2a8b39ba00191a227e,16:40:22,27/03/2024
html-keyboard-response,7,12753,0.0-4.0-0.0,1064.5,"<div style=""display: flex; flex-direction: column; align-items: center; margin-top: -40px;""><img src=""images/demo_images/pattern_1.png"" style=""width: 234px; height: 230px; margin-top: -50px;""><div style=""display: flex; justify-content: space-between; margin-top: 33px;""><img src=""images/demo_images/choice_trial_2.png"" style=""width: 408px; height: 417px; margin-right: 200px;""><img src=""images/demo_images/choice_trial_1.png"" style=""width: 408px; height: 417px;""></div></div>",j,delaylearn,learning,trial,hk5Rs5yNsDNSud4Z6ziYql9O0JV2,hk5Rs5yNsDNSud4Z6ziYql9O0JV2,2.0,images/demo_images/choice_trial_2.png,images/demo_images/choice_trial_1.png,images/demo_images/pattern_1.png,j,j,3000.0,2.0,1.0,20.0,1.0,2.0,1.0,1.0,1.0,10.0,,,,,,5cdd2e2a8b39ba00191a227e,16:40:22,27/03/2024
html-keyboard-response,8,13756,0.0-4.0-1.0,,"<div style=""display: flex; flex-direction: column; align-items: center; margin-top: -40px;""><img src=""images/demo_images/pattern_1.png"" style=""width: 234px; height: 230px; margin-top: -50px;""><div style=""display: flex; justify-content: space-between; margin-top: 33px;""><img src=""images/demo_images/choice_trial_1.png"" style=""width: 408px; height: 417px; margin-left:608px;""></div></div>",,delaylearn,learning,display_response,hk5Rs5yNsDNSud4Z6ziYql9O0JV2,hk5Rs5yNsDNSud4Z6ziYql9O0JV2,,,,,,,,,,,,,,,,,chosen stimuli: images/demo_images/choice_trial_1.png,,,,,5cdd2e2a8b39ba00191a227e,16:40:22,27/03/2024
html-keyboard-response,9,16759,0.0-4.0-2.0,,,,delaylearn,learning,feedback_duration_window,hk5Rs5yNsDNSud4Z6ziYql9O0JV2,hk5Rs5yNsDNSud4Z6ziYql9O0JV2,,,,,,,,,,,,,,,,,,3000.0,,,,5cdd2e2a8b39ba00191a227e,16:40:22,27/03/2024
html-keyboard-response,10,18271,0.0-4.0-3.0,,<div style='margin:auto;width: auto; font-size: 150%'><span style='font-weight: bold; font-size: 100px; color: green;'>+10 points!</span><br><br></div>,,delaylearn,learning,feedback_image_window,hk5Rs5yNsDNSud4Z6ziYql9O0JV2,hk5Rs5yNsDNSud4Z6ziYql9O0JV2,,,,,,,,,,,,,,,,,,,,,,5cdd2e2a8b39ba00191a227e,16:40:22,27/03/2024
html-keyboard-response,11,20443,0.0-5.0,,"<div style=""font-size:100px;"">+</div>",,delaylearn,learning,ITI,hk5Rs5yNsDNSud4Z6ziYql9O0JV2,hk5Rs5yNsDNSud4Z6ziYql9O0JV2,,,,,,,,,,,,,,,,,,,2158.0,,,5cdd2e2a8b39ba00191a227e,16:40:22,27/03/2024
html-keyboard-response,12,21356,0.0-6.0-0.0,909.1000000238419,"<div style=""display: flex; flex-direction: column; align-items: center; margin-top: -40px;""><img src=""images/demo_images/pattern_1.png"" style=""width: 234px; height: 230px; margin-top: -50px;""><div style=""display: flex; justify-content: space-between; margin-top: 33px;""><img src=""images/demo_images/choice_trial_1.png"" style=""width: 408px; height: 417px; margin-right: 200px;""><img src=""images/demo_images/choice_trial_2.png"" style=""width: 408px; height: 417px;""></div></div>",f,delaylearn,learning,trial,hk5Rs5yNsDNSud4Z6ziYql9O0JV2,hk5Rs5yNsDNSud4Z6ziYql9O0JV2,2.0,images/demo_images/choice_trial_1.png,images/demo_images/choice_trial_2.png,images/demo_images/pattern_1.png,j,f,3000.0,1.0,2.0,20.0,0.0,3.0,1.0,0.0,1.0,10.0,,,,,,5cdd2e2a8b39ba00191a227e,16:40:22,27/03/2024
html-keyboard-response,13,22365,0.0-6.0-1.0,,"<div style=""display: flex; flex-direction: column; align-items: center; margin-top: -40px;""><img src=""images/demo_images/pattern_1.png"" style=""width: 234px; height: 230px; margin-top: -50px;""><div style=""display: flex; justify-content: space-between; margin-top: 33px;""><img src=""images/demo_images/choice_trial_1.png"" style=""width: 408px; height: 417px; margin-right: 608px;""></div></div>",,delaylearn,learning,display_response,hk5Rs5yNsDNSud4Z6ziYql9O0JV2,hk5Rs5yNsDNSud4Z6ziYql9O0JV2,,,,,,,,,,,,,,,,,chosen stimuli: images/demo_images/choice_trial_1.png,,,,,5cdd2e2a8b39ba00191a227e,16:40:22,27/03/2024
html-keyboard-response,14,25367,0.0-6.0-2.0,,,,delaylearn,learning,feedback_duration_window,hk5Rs5yNsDNSud4Z6ziYql9O0JV2,hk5Rs5yNsDNSud4Z6ziYql9O0JV2,,,,,,,,,,,,,,,,,,3000.0,,,,5cdd2e2a8b39ba00191a227e,16:40:22,27/03/2024
html-keyboard-response,15,26883,0.0-6.0-3.0,,<div style='margin:auto;width: auto; font-size: 150%'><span style='font-weight: bold; font-size: 100px; color: red;'>0 points!</span><br><br></div>,,delaylearn,learning,feedback_image_window,hk5Rs5yNsDNSud4Z6ziYql9O0JV2,hk5Rs5yNsDNSud4Z6ziYql9O0JV2,,,,,,,,,,,,,,,,,,,,,,5cdd2e2a8b39ba00191a227e,16:40:22,27/03/2024
html-keyboard-response,16,29260,0.0-7.0,,"<div style=""font-size:100px;"">+</div>",,delaylearn,learning,ITI,hk5Rs5yNsDNSud4Z6ziYql9O0JV2,hk5Rs5yNsDNSud4Z6ziYql9O0JV2,,,,,,,,,,,,,,,,,,,2372.0,,,5cdd2e2a8b39ba00191a227e,16:40:22,27/03/2024
html-keyboard-response,17,30727,0.0-8.0-0.0,1464.0,"<div style=""display: flex; flex-direction: column; align-items: center; margin-top: -40px;""><img src=""images/demo_images/pattern_1.png"" style=""width: 234px; height: 230px; margin-top: -50px;""><div style=""display: flex; justify-content: space-between; margin-top: 33px;""><img src=""images/demo_images/choice_trial_1.png"" style=""width: 408px; height: 417px; margin-right: 200px;""><img src=""images/demo_images/choice_trial_2.png"" style=""width: 408px; height: 417px;""></div></div>",f,delaylearn,learning,trial,hk5Rs5yNsDNSud4Z6ziYql9O0JV2,hk5Rs5yNsDNSud4Z6ziYql9O0JV2,2.0,images/demo_images/choice_trial_1.png,images/demo_images/choice_trial_2.png,images/demo_images/pattern_1.png,f,f,3000.0,1.0,2.0,20.0,0.0,4.0,1.0,1.0,1.0,20.0,,,,,,5cdd2e2a8b39ba00191a227e,16:40:22,27/03/2024
html-keyboard-response,18,31743,0.0-8.0-1.0,,"<div style=""display: flex; flex-direction: column; align-items: center; margin-top: -40px;""><img src=""images/demo_images/pattern_1.png"" style=""width: 234px; height: 230px; margin-top: -50px;""><div style=""display: flex; justify-content: space-between; margin-top: 33px;""><img src=""images/demo_images/choice_trial_1.png"" style=""width: 408px; height: 417px; margin-right: 608px;""></div></div>",,delaylearn,learning,display_response,hk5Rs5yNsDNSud4Z6ziYql9O0JV2,hk5Rs5yNsDNSud4Z6ziYql9O0JV2,,,,,,,,,,,,,,,,,chosen stimuli: images/demo_images/choice_trial_1.png,,,,,5cdd2e2a8b39ba00191a227e,16:40:22,27/03/2024
html-keyboard-response,19,34760,0.0-8.0-2.0,,,,delaylearn,learning,feedback_duration_window,hk5Rs5yNsDNSud4Z6ziYql9O0JV2,hk5Rs5yNsDNSud4Z6ziYql9O0JV2,,,,,,,,,,,,,,,,,,3000.0,,,,5cdd2e2a8b39ba00191a227e,16:40:22,27/03/2024
html-keyboard-response,20,36274,0.0-8.0-3.0,,<div style='margin:auto;width: auto; font-size: 150%'><span style='font-weight: bold; font-size: 100px; color: green;'>+10 points!</span><br><br></div>,,delaylearn,learning,feedback_image_window,hk5Rs5yNsDNSud4Z6ziYql9O0JV2,hk5Rs5yNsDNSud4Z6ziYql9O0JV2,,,,,,,,,,,,,,,,,,,,,,5cdd2e2a8b39ba00191a227e,16:40:22,27/03/2024
html-keyboard-response,21,36789,0.0-9.0-0.0,,,,,,mood_trial_fixation,hk5Rs5yNsDNSud4Z6ziYql9O0JV2,,,,,,,,,,,,,,,,,,,,,,,5cdd2e2a8b39ba00191a227e,16:40:22,27/03/2024
lmdlab-html-vas-response,22,41996,0.0-9.0-1.0,4182.0,How happy are you right now?,0.44907407407407407,delaylearn,learning,mood_trial,hk5Rs5yNsDNSud4Z6ziYql9O0JV2,hk5Rs5yNsDNSud4Z6ziYql9O0JV2,,,,,,,,,,,,,,,,,,,,"['Very unhappy', 'Very happy']",,5cdd2e2a8b39ba00191a227e,16:40:22,27/03/2024
html-keyboard-response,23,44040,0.0-10.0,,"<div style=""font-size:100px;"">+</div>",,delaylearn,learning,ITI,hk5Rs5yNsDNSud4Z6ziYql9O0JV2,hk5Rs5yNsDNSud4Z6ziYql9O0JV2,,,,,,,,,,,,,,,,,,,2035.0,,,5cdd2e2a8b39ba00191a227e,16:40:22,27/03/2024
html-keyboard-response,24,44925,0.0-11.0-0.0,882.7999999523163,"<div style=""display: flex; flex-direction: column; align-items: center; margin-top: -40px;""><img src=""images/demo_images/pattern_1.png"" style=""width: 234px; height: 230px; margin-top: -50px;""><div style=""display: flex; justify-content: space-between; margin-top: 33px;""><img src=""images/demo_images/choice_trial_2.png"" style=""width: 408px; height: 417px; margin-right: 200px;""><img src=""images/demo_images/choice_trial_1.png"" style=""width: 408px; height: 417px;""></div></div>",j,delaylearn,learning,trial,hk5Rs5yNsDNSud4Z6ziYql9O0JV2,hk5Rs5yNsDNSud4Z6ziYql9O0JV2,2.0,images/demo_images/choice_trial_2.png,images/demo_images/choice_trial_1.png,images/demo_images/pattern_1.png,j,j,3000.0,2.0,1.0,20.0,1.0,5.0,1.0,1.0,1.0,30.0,,,,,,5cdd2e2a8b39ba00191a227e,16:40:22,27/03/2024
html-keyboard-response,25,45931,0.0-11.0-1.0,,"<div style=""display: flex; flex-direction: column; align-items: center; margin-top: -40px;""><img src=""images/demo_images/pattern_1.png"" style=""width: 234px; height: 230px; margin-top: -50px;""><div style=""display: flex; justify-content: space-between; margin-top: 33px;""><img src=""images/demo_images/choice_trial_1.png"" style=""width: 408px; height: 417px; margin-left:608px;""></div></div>",,delaylearn,learning,display_response,hk5Rs5yNsDNSud4Z6ziYql9O0JV2,hk5Rs5yNsDNSud4Z6ziYql9O0JV2,,,,,,,,,,,,,,,,,chosen stimuli: images/demo_images/choice_trial_1.png,,,,,5cdd2e2a8b39ba00191a227e,16:40:22,27/03/2024
html-keyboard-response,26,48948,0.0-11.0-2.0,,,,delaylearn,learning,feedback_duration_window,hk5Rs5yNsDNSud4Z6ziYql9O0JV2,hk5Rs5yNsDNSud4Z6ziYql9O0JV2,,,,,,,,,,,,,,,,,,3000.0,,,,5cdd2e2a8b39ba00191a227e,16:40:22,27/03/2024
html-keyboard-response,27,50463,0.0-11.0-3.0,,<div style='margin:auto;width: auto; font-size: 150%'><span style='font-weight: bold; font-size: 100px; color: green;'>+10 points!</span><br><br></div>,,delaylearn,learning,feedback_image_window,hk5Rs5yNsDNSud4Z6ziYql9O0JV2,hk5Rs5yNsDNSud4Z6ziYql9O0JV2,,,,,,,,,,,,,,,,,,,,,,5cdd2e2a8b39ba00191a227e,16:40:22,27/03/2024
html-keyboard-response,28,52112,0.0-12.0,,"<div style=""font-size:100px;"">+</div>",,delaylearn,learning,ITI,hk5Rs5yNsDNSud4Z6ziYql9O0JV2,hk5Rs5yNsDNSud4Z6ziYql9O0JV2,,,,,,,,,,,,,,,,,,,1638.0,,,5cdd2e2a8b39ba00191a227e,16:40:22,27/03/2024
html-keyboard-response,29,53399,0.0-13.0-0.0,1283.3000000715256,"<div style=""display: flex; flex-direction: column; align-items: center; margin-top: -40px;""><img src=""images/demo_images/pattern_1.png"" style=""width: 234px; height: 230px; margin-top: -50px;""><div style=""display: flex; justify-content: space-between; margin-top: 33px;""><img src=""images/demo_images/choice_trial_1.png"" style=""width: 408px; height: 417px; margin-right: 200px;""><img src=""images/demo_images/choice_trial_2.png"" style=""width: 408px; height: 417px;""></div></div>",f,delaylearn,learning,trial,hk5Rs5yNsDNSud4Z6ziYql9O0JV2,hk5Rs5yNsDNSud4Z6ziYql9O0JV2,2.0,images/demo_images/choice_trial_1.png,images/demo_images/choice_trial_2.png,images/demo_images/pattern_1.png,f,f,3000.0,1.0,2.0,20.0,0.0,6.0,1.0,1.0,1.0,40.0,,,,,,5cdd2e2a8b39ba00191a227e,16:40:22,27/03/2024
html-keyboard-response,30,54406,0.0-13.0-1.0,,"<div style=""display: flex; flex-direction: column; align-items: center; margin-top: -40px;""><img src=""images/demo_images/pattern_1.png"" style=""width: 234px; height: 230px; margin-top: -50px;""><div style=""display: flex; justify-content: space-between; margin-top: 33px;""><img src=""images/demo_images/choice_trial_1.png"" style=""width: 408px; height: 417px; margin-right: 608px;""></div></div>",,delaylearn,learning,display_response,hk5Rs5yNsDNSud4Z6ziYql9O0JV2,hk5Rs5yNsDNSud4Z6ziYql9O0JV2,,,,,,,,,,,,,,,,,chosen stimuli: images/demo_images/choice_trial_1.png,,,,,5cdd2e2a8b39ba00191a227e,16:40:22,27/03/2024
html-keyboard-response,31,57412,0.0-13.0-2.0,,,,delaylearn,learning,feedback_duration_window,hk5Rs5yNsDNSud4Z6ziYql9O0JV2,hk5Rs5yNsDNSud4Z6ziYql9O0JV2,,,,,,,,,,,,,,,,,,3000.0,,,,5cdd2e2a8b39ba00191a227e,16:40:22,27/03/2024
html-keyboard-response,32,58927,0.0-13.0-3.0,,<div style='margin:auto;width: auto; font-size: 150%'><span style='font-weight: bold; font-size: 100px; color: green;'>+10 points!</span><br><br></div>,,delaylearn,learning,feedback_image_window,hk5Rs5yNsDNSud4Z6ziYql9O0JV2,hk5Rs5yNsDNSud4Z6ziYql9O0JV2,,,,,,,,,,,,,,,,,,,,,,5cdd2e2a8b39ba00191a227e,16:40:22,27/03/2024
html-keyboard-response,33,60505,0.0-14.0,,"<div style=""font-size:100px;"">+</div>",,delaylearn,learning,ITI,hk5Rs5yNsDNSud4Z6ziYql9O0JV2,hk5Rs5yNsDNSud4Z6ziYql9O0JV2,,,,,,,,,,,,,,,,,,,1576.0,,,5cdd2e2a8b39ba00191a227e,16:40:22,27/03/2024
html-keyboard-response,34,61825,0.0-15.0-0.0,1317.1000000238419,"<div style=""display: flex; flex-direction: column; align-items: center; margin-top: -40px;""><img src=""images/demo_images/pattern_1.png"" style=""width: 234px; height: 230px; margin-top: -50px;""><div style=""display: flex; justify-content: space-between; margin-top: 33px;""><img src=""images/demo_images/choice_trial_2.png"" style=""width: 408px; height: 417px; margin-right: 200px;""><img src=""images/demo_images/choice_trial_1.png"" style=""width: 408px; height: 417px;""></div></div>",j,delaylearn,learning,trial,hk5Rs5yNsDNSud4Z6ziYql9O0JV2,hk5Rs5yNsDNSud4Z6ziYql9O0JV2,2.0,images/demo_images/choice_trial_2.png,images/demo_images/choice_trial_1.png,images/demo_images/pattern_1.png,j,j,3000.0,2.0,1.0,20.0,1.0,7.0,1.0,1.0,1.0,50.0,,,,,,5cdd2e2a8b39ba00191a227e,16:40:22,27/03/2024
html-keyboard-response,35,62830,0.0-15.0-1.0,,"<div style=""display: flex; flex-direction: column; align-items: center; margin-top: -40px;""><img src=""images/demo_images/pattern_1.png"" style=""width: 234px; height: 230px; margin-top: -50px;""><div style=""display: flex; justify-content: space-between; margin-top: 33px;""><img src=""images/demo_images/choice_trial_1.png"" style=""width: 408px; height: 417px; margin-left:608px;""></div></div>",,delaylearn,learning,display_response,hk5Rs5yNsDNSud4Z6ziYql9O0JV2,hk5Rs5yNsDNSud4Z6ziYql9O0JV2,,,,,,,,,,,,,,,,,chosen stimuli: images/demo_images/choice_trial_1.png,,,,,5cdd2e2a8b39ba00191a227e,16:40:22,27/03/2024
html-keyboard-response,36,65843,0.0-15.0-2.0,,,,delaylearn,learning,feedback_duration_window,hk5Rs5yNsDNSud4Z6ziYql9O0JV2,hk5Rs5yNsDNSud4Z6ziYql9O0JV2,,,,,,,,,,,,,,,,,,3000.0,,,,5cdd2e2a8b39ba00191a227e,16:40:22,27/03/2024
html-keyboard-response,37,67348,0.0-15.0-3.0,,<div style='margin:auto;width: auto; font-size: 150%'><span style='font-weight: bold; font-size: 100px; color: green;'>+10 points!</span><br><br></div>,,delaylearn,learning,feedback_image_window,hk5Rs5yNsDNSud4Z6ziYql9O0JV2,hk5Rs5yNsDNSud4Z6ziYql9O0JV2,,,,,,,,,,,,,,,,,,,,,,5cdd2e2a8b39ba00191a227e,16:40:22,27/03/2024
html-keyboard-response,38,69299,0.0-16.0,,"<div style=""font-size:100px;"">+</div>",,delaylearn,learning,ITI,hk5Rs5yNsDNSud4Z6ziYql9O0JV2,hk5Rs5yNsDNSud4Z6ziYql9O0JV2,,,,,,,,,,,,,,,,,,,1940.0,,,5cdd2e2a8b39ba00191a227e,16:40:22,27/03/2024
html-keyboard-response,39,70307,0.0-17.0-0.0,1005.1000000238419,"<div style=""display: flex; flex-direction: column; align-items: center; margin-top: -40px;""><img src=""images/demo_images/pattern_1.png"" style=""width: 234px; height: 230px; margin-top: -50px;""><div style=""display: flex; justify-content: space-between; margin-top: 33px;""><img src=""images/demo_images/choice_trial_1.png"" style=""width: 408px; height: 417px; margin-right: 200px;""><img src=""images/demo_images/choice_trial_2.png"" style=""width: 408px; height: 417px;""></div></div>",f,delaylearn,learning,trial,hk5Rs5yNsDNSud4Z6ziYql9O0JV2,hk5Rs5yNsDNSud4Z6ziYql9O0JV2,2.0,images/demo_images/choice_trial_1.png,images/demo_images/choice_trial_2.png,images/demo_images/pattern_1.png,f,f,3000.0,1.0,2.0,20.0,0.0,8.0,1.0,1.0,1.0,60.0,,,,,,5cdd2e2a8b39ba00191a227e,16:40:22,27/03/2024
html-keyboard-response,40,71313,0.0-17.0-1.0,,"<div style=""display: flex; flex-direction: column; align-items: center; margin-top: -40px;""><img src=""images/demo_images/pattern_1.png"" style=""width: 234px; height: 230px; margin-top: -50px;""><div style=""display: flex; justify-content: space-between; margin-top: 33px;""><img src=""images/demo_images/choice_trial_1.png"" style=""width: 408px; height: 417px; margin-right: 608px;""></div></div>",,delaylearn,learning,display_response,hk5Rs5yNsDNSud4Z6ziYql9O0JV2,hk5Rs5yNsDNSud4Z6ziYql9O0JV2,,,,,,,,,,,,,,,,,chosen stimuli: images/demo_images/choice_trial_1.png,,,,,5cdd2e2a8b39ba00191a227e,16:40:22,27/03/2024
html-keyboard-response,41,74327,0.0-17.0-2.0,,,,delaylearn,learning,feedback_duration_window,hk5Rs5yNsDNSud4Z6ziYql9O0JV2,hk5Rs5yNsDNSud4Z6ziYql9O0JV2,,,,,,,,,,,,,,,,,,3000.0,,,,5cdd2e2a8b39ba00191a227e,16:40:22,27/03/2024
html-keyboard-response,42,75835,0.0-17.0-3.0,,<div style='margin:auto;width: auto; font-size: 150%'><span style='font-weight: bold; font-size: 100px; color: green;'>+10 points!</span><br><br></div>,,delaylearn,learning,feedback_image_window,hk5Rs5yNsDNSud4Z6ziYql9O0JV2,hk5Rs5yNsDNSud4Z6ziYql9O0JV2,,,,,,,,,,,,,,,,,,,,,,5cdd2e2a8b39ba00191a227e,16:40:22,27/03/2024
html-button-response,43,78764,0.0-18.0,2928.100000023842,"
  <div style=""display: flex; align-items: center; justify-content: center; height: 80vh;"">
  <div>
          <img src=""images/inst_demo_finish.png"" style=""width: 80vw; height:auto;"">
          <br><br>
      </div>
      <br><br>
  </div>",0,,,,hk5Rs5yNsDNSud4Z6ziYql9O0JV2,,,,,,,,,,,,,,,,,,,,,,,5cdd2e2a8b39ba00191a227e,16:40:22,27/03/2024
html-keyboard-response,44,84045,0.0-19.0,5280.399999976158,"
  <div style=""display: flex; align-items: center; justify-content: center; height: 80vh;"">
  <div>
          <img src=""images/inst_6.png"" style=""width: 80vw; height:auto;"">
          <br><br>
      </div>
      <br><br>
  </div>",j,,,,hk5Rs5yNsDNSud4Z6ziYql9O0JV2,,,,,,,,,,,,,,,,,,,,,,,5cdd2e2a8b39ba00191a227e,16:40:22,27/03/2024
html-keyboard-response,45,87054,0.0-20.0,,"<div style=""font-size:100px;"">+</div>",,delaylearn,learning,pre_fixation,hk5Rs5yNsDNSud4Z6ziYql9O0JV2,,,,,,,,,,,,,,,,,,,,,,,5cdd2e2a8b39ba00191a227e,16:40:22,27/03/2024
html-keyboard-response,46,88989,0.0-21.0,,"<div style=""font-size:100px;"">+</div>",,delaylearn,learning,ITI,hk5Rs5yNsDNSud4Z6ziYql9O0JV2,hk5Rs5yNsDNSud4Z6ziYql9O0JV2,,,,,,,,,,,,,,,,,,,1925.0,,,5cdd2e2a8b39ba00191a227e,16:40:22,27/03/2024
html-keyboard-response,47,91276,0.0-22.0-0.0,2285.7000000476837,"<div style=""display: flex; flex-direction: column; align-items: center; margin-top: -40px;""><img src=""images/pattern_3.png"" style=""width: 234px; height: 230px; margin-top: -50px;""><div style=""display: flex; justify-content: space-between; margin-top: 33px;""><img src=""images/choice_trial_12.png"" style=""width: 408px; height: 417px; margin-right: 200px;""><img src=""images/choice_trial_14.png"" style=""width: 408px; height: 417px;""></div></div>",j,delaylearn,learning,trial,hk5Rs5yNsDNSud4Z6ziYql9O0JV2,hk5Rs5yNsDNSud4Z6ziYql9O0JV2,2.0,images/choice_trial_12.png,images/choice_trial_14.png,images/pattern_3.png,f,f,7000.0,12.0,14.0,2.0,0.0,9.0,0.0,0.0,14.0,60.0,,,,,,5cdd2e2a8b39ba00191a227e,16:40:22,27/03/2024
html-keyboard-response,48,92282,0.0-22.0-1.0,,"<div style=""display: flex; flex-direction: column; align-items: center; margin-top: -40px;""><img src=""images/pattern_3.png"" style=""width: 234px; height: 230px; margin-top: -50px;""><div style=""display: flex; justify-content: space-between; margin-top: 33px;""><img src=""images/choice_trial_14.png"" style=""width: 408px; height: 417px; margin-left:608px;""></div></div>",,delaylearn,learning,display_response,hk5Rs5yNsDNSud4Z6ziYql9O0JV2,hk5Rs5yNsDNSud4Z6ziYql9O0JV2,,,,,,,,,,,,,,,,,chosen stimuli: images/choice_trial_14.png,,,,,5cdd2e2a8b39ba00191a227e,16:40:22,27/03/2024
html-keyboard-response,49,99287,0.0-22.0-2.0,,,,delaylearn,learning,feedback_duration_window,hk5Rs5yNsDNSud4Z6ziYql9O0JV2,hk5Rs5yNsDNSud4Z6ziYql9O0JV2,,,,,,,,,,,,,,,,,,7000.0,,,,5cdd2e2a8b39ba00191a227e,16:40:22,27/03/2024
html-keyboard-response,50,100804,0.0-22.0-3.0,,<div style='margin:auto;width: auto; font-size: 150%'><span style='font-weight: bold; font-size: 100px; color: red;'>0 points!</span><br><br></div>,,delaylearn,learning,feedback_image_window,hk5Rs5yNsDNSud4Z6ziYql9O0JV2,hk5Rs5yNsDNSud4Z6ziYql9O0JV2,,,,,,,,,,,,,,,,,,,,,,5cdd2e2a8b39ba00191a227e,16:40:22,27/03/2024
html-keyboard-response,51,102544,0.0-23.0,,"<div style=""font-size:100px;"">+</div>",,delaylearn,learning,ITI,hk5Rs5yNsDNSud4Z6ziYql9O0JV2,hk5Rs5yNsDNSud4Z6ziYql9O0JV2,,,,,,,,,,,,,,,,,,,1727.0,,,5cdd2e2a8b39ba00191a227e,16:40:22,27/03/2024
html-keyboard-response,52,104820,0.0-24.0-0.0,2273.899999976158,"<div style=""display: flex; flex-direction: column; align-items: center; margin-top: -40px;""><img src=""images/pattern_7.png"" style=""width: 234px; height: 230px; margin-top: -50px;""><div style=""display: flex; justify-content: space-between; margin-top: 33px;""><img src=""images/choice_trial_15.png"" style=""width: 408px; height: 417px; margin-right: 200px;""><img src=""images/choice_trial_8.png"" style=""width: 408px; height: 417px;""></div></div>",f,delaylearn,learning,trial,hk5Rs5yNsDNSud4Z6ziYql9O0JV2,hk5Rs5yNsDNSud4Z6ziYql9O0JV2,2.0,images/choice_trial_15.png,images/choice_trial_8.png,images/pattern_7.png,j,j,750.0,15.0,8.0,6.0,1.0,10.0,0.0,0.0,15.0,60.0,,,,,,5cdd2e2a8b39ba00191a227e,16:40:22,27/03/2024
html-keyboard-response,53,105838,0.0-24.0-1.0,,"<div style=""display: flex; flex-direction: column; align-items: center; margin-top: -40px;""><img src=""images/pattern_7.png"" style=""width: 234px; height: 230px; margin-top: -50px;""><div style=""display: flex; justify-content: space-between; margin-top: 33px;""><img src=""images/choice_trial_15.png"" style=""width: 408px; height: 417px; margin-right: 608px;""></div></div>",,delaylearn,learning,display_response,hk5Rs5yNsDNSud4Z6ziYql9O0JV2,hk5Rs5yNsDNSud4Z6ziYql9O0JV2,,,,,,,,,,,,,,,,,chosen stimuli: images/choice_trial_15.png,,,,,5cdd2e2a8b39ba00191a227e,16:40:22,27/03/2024
html-keyboard-response,54,106592,0.0-24.0-2.0,,,,delaylearn,learning,feedback_duration_window,hk5Rs5yNsDNSud4Z6ziYql9O0JV2,hk5Rs5yNsDNSud4Z6ziYql9O0JV2,,,,,,,,,,,,,,,,,,750.0,,,,5cdd2e2a8b39ba00191a227e,16:40:22,27/03/2024
html-keyboard-response,55,108098,0.0-24.0-3.0,,<div style='margin:auto;width: auto; font-size: 150%'><span style='font-weight: bold; font-size: 100px; color: red;'>0 points!</span><br><br></div>,,delaylearn,learning,feedback_image_window,hk5Rs5yNsDNSud4Z6ziYql9O0JV2,hk5Rs5yNsDNSud4Z6ziYql9O0JV2,,,,,,,,,,,,,,,,,,,,,,5cdd2e2a8b39ba00191a227e,16:40:22,27/03/2024
html-keyboard-response,56,109753,0.0-25.0,,"<div style=""font-size:100px;"">+</div>",,delaylearn,learning,ITI,hk5Rs5yNsDNSud4Z6ziYql9O0JV2,hk5Rs5yNsDNSud4Z6ziYql9O0JV2,,,,,,,,,,,,,,,,,,,1650.0,,,5cdd2e2a8b39ba00191a227e,16:40:22,27/03/2024
html-keyboard-response,57,111682,0.0-26.0-0.0,1924.7999999523163,"<div style=""display: flex; flex-direction: column; align-items: center; margin-top: -40px;""><img src=""images/pattern_4.png"" style=""width: 234px; height: 230px; margin-top: -50px;""><div style=""display: flex; justify-content: space-between; margin-top: 33px;""><img src=""images/choice_trial_4.png"" style=""width: 408px; height: 417px; margin-right: 200px;""><img src=""images/choice_trial_16.png"" style=""width: 408px; height: 417px;""></div></div>",f,delaylearn,learning,trial,hk5Rs5yNsDNSud4Z6ziYql9O0JV2,hk5Rs5yNsDNSud4Z6ziYql9O0JV2,2.0,images/choice_trial_4.png,images/choice_trial_16.png,images/pattern_4.png,f,f,7000.0,4.0,16.0,3.0,0.0,11.0,1.0,1.0,4.0,70.0,,,,,,5cdd2e2a8b39ba00191a227e,16:40:22,27/03/2024
html-keyboard-response,58,112691,0.0-26.0-1.0,,"<div style=""display: flex; flex-direction: column; align-items: center; margin-top: -40px;""><img src=""images/pattern_4.png"" style=""width: 234px; height: 230px; margin-top: -50px;""><div style=""display: flex; justify-content: space-between; margin-top: 33px;""><img src=""images/choice_trial_4.png"" style=""width: 408px; height: 417px; margin-right: 608px;""></div></div>",,delaylearn,learning,display_response,hk5Rs5yNsDNSud4Z6ziYql9O0JV2,hk5Rs5yNsDNSud4Z6ziYql9O0JV2,,,,,,,,,,,,,,,,,chosen stimuli: images/choice_trial_4.png,,,,,5cdd2e2a8b39ba00191a227e,16:40:22,27/03/2024
html-keyboard-response,59,119695,0.0-26.0-2.0,,,,delaylearn,learning,feedback_duration_window,hk5Rs5yNsDNSud4Z6ziYql9O0JV2,hk5Rs5yNsDNSud4Z6ziYql9O0JV2,,,,,,,,,,,,,,,,,,7000.0,,,,5cdd2e2a8b39ba00191a227e,16:40:22,27/03/2024
html-keyboard-response,60,121209,0.0-26.0-3.0,,<div style='margin:auto;width: auto; font-size: 150%'><span style='font-weight: bold; font-size: 100px; color: green;'>+10 points!</span><br><br></div>,,delaylearn,learning,feedback_image_window,hk5Rs5yNsDNSud4Z6ziYql9O0JV2,hk5Rs5yNsDNSud4Z6ziYql9O0JV2,,,,,,,,,,,,,,,,,,,,,,5cdd2e2a8b39ba00191a227e,16:40:22,27/03/2024
html-keyboard-response,61,123153,0.0-27.0,,"<div style=""font-size:100px;"">+</div>",,delaylearn,learning,ITI,hk5Rs5yNsDNSud4Z6ziYql9O0JV2,hk5Rs5yNsDNSud4Z6ziYql9O0JV2,,,,,,,,,,,,,,,,,,,1940.0,,,5cdd2e2a8b39ba00191a227e,16:40:22,27/03/2024
html-keyboard-response,62,125406,0.0-28.0-0.0,2249.7000000476837,"<div style=""display: flex; flex-direction: column; align-items: center; margin-top: -40px;""><img src=""images/pattern_5.png"" style=""width: 234px; height: 230px; margin-top: -50px;""><div style=""display: flex; justify-content: space-between; margin-top: 33px;""><img src=""images/choice_trial_9.png"" style=""width: 408px; height: 417px; margin-right: 200px;""><img src=""images/choice_trial_2.png"" style=""width: 408px; height: 417px;""></div></div>",j,delaylearn,learning,trial,hk5Rs5yNsDNSud4Z6ziYql9O0JV2,hk5Rs5yNsDNSud4Z6ziYql9O0JV2,2.0,images/choice_trial_9.png,images/choice_trial_2.png,images/pattern_5.png,j,j,750.0,9.0,2.0,4.0,1.0,12.0,1.0,1.0,2.0,80.0,,,,,,5cdd2e2a8b39ba00191a227e,16:40:22,27/03/2024
html-keyboard-response,63,126420,0.0-28.0-1.0,,"<div style=""display: flex; flex-direction: column; align-items: center; margin-top: -40px;""><img src=""images/pattern_5.png"" style=""width: 234px; height: 230px; margin-top: -50px;""><div style=""display: flex; justify-content: space-between; margin-top: 33px;""><img src=""images/choice_trial_2.png"" style=""width: 408px; height: 417px; margin-left:608px;""></div></div>",,delaylearn,learning,display_response,hk5Rs5yNsDNSud4Z6ziYql9O0JV2,hk5Rs5yNsDNSud4Z6ziYql9O0JV2,,,,,,,,,,,,,,,,,chosen stimuli: images/choice_trial_2.png,,,,,5cdd2e2a8b39ba00191a227e,16:40:22,27/03/2024
html-keyboard-response,64,127171,0.0-28.0-2.0,,,,delaylearn,learning,feedback_duration_window,hk5Rs5yNsDNSud4Z6ziYql9O0JV2,hk5Rs5yNsDNSud4Z6ziYql9O0JV2,,,,,,,,,,,,,,,,,,750.0,,,,5cdd2e2a8b39ba00191a227e,16:40:22,27/03/2024
html-keyboard-response,65,128684,0.0-28.0-3.0,,<div style='margin:auto;width: auto; font-size: 150%'><span style='font-weight: bold; font-size: 100px; color: green;'>+10 points!</span><br><br></div>,,delaylearn,learning,feedback_image_window,hk5Rs5yNsDNSud4Z6ziYql9O0JV2,hk5Rs5yNsDNSud4Z6ziYql9O0JV2,,,,,,,,,,,,,,,,,,,,,,5cdd2e2a8b39ba00191a227e,16:40:22,27/03/2024
html-keyboard-response,66,131008,0.0-29.0,,"<div style=""font-size:100px;"">+</div>",,delaylearn,learning,ITI,hk5Rs5yNsDNSud4Z6ziYql9O0JV2,hk5Rs5yNsDNSud4Z6ziYql9O0JV2,,,,,,,,,,,,,,,,,,,2318.0,,,5cdd2e2a8b39ba00191a227e,16:40:22,27/03/2024
html-keyboard-response,67,133596,0.0-30.0-0.0,2586.100000023842,"<div style=""display: flex; flex-direction: column; align-items: center; margin-top: -40px;""><img src=""images/pattern_6.png"" style=""width: 234px; height: 230px; margin-top: -50px;""><div style=""display: flex; justify-content: space-between; margin-top: 33px;""><img src=""images/choice_trial_11.png"" style=""width: 408px; height: 417px; margin-right: 200px;""><img src=""images/choice_trial_5.png"" style=""width: 408px; height: 417px;""></div></div>",j,delaylearn,learning,trial,hk5Rs5yNsDNSud4Z6ziYql9O0JV2,hk5Rs5yNsDNSud4Z6ziYql9O0JV2,2.0,images/choice_trial_11.png,images/choice_trial_5.png,images/pattern_6.png,j,f,750.0,11.0,5.0,5.0,0.0,13.0,0.0,1.0,5.0,90.0,,,,,,5cdd2e2a8b39ba00191a227e,16:40:22,27/03/2024
html-keyboard-response,68,134610,0.0-30.0-1.0,,"<div style=""display: flex; flex-direction: column; align-items: center; margin-top: -40px;""><img src=""images/pattern_6.png"" style=""width: 234px; height: 230px; margin-top: -50px;""><div style=""display: flex; justify-content: space-between; margin-top: 33px;""><img src=""images/choice_trial_5.png"" style=""width: 408px; height: 417px; margin-left:608px;""></div></div>",,delaylearn,learning,display_response,hk5Rs5yNsDNSud4Z6ziYql9O0JV2,hk5Rs5yNsDNSud4Z6ziYql9O0JV2,,,,,,,,,,,,,,,,,chosen stimuli: images/choice_trial_5.png,,,,,5cdd2e2a8b39ba00191a227e,16:40:22,27/03/2024
html-keyboard-response,69,135373,0.0-30.0-2.0,,,,delaylearn,learning,feedback_duration_window,hk5Rs5yNsDNSud4Z6ziYql9O0JV2,hk5Rs5yNsDNSud4Z6ziYql9O0JV2,,,,,,,,,,,,,,,,,,750.0,,,,5cdd2e2a8b39ba00191a227e,16:40:22,27/03/2024
html-keyboard-response,70,136888,0.0-30.0-3.0,,<div style='margin:auto;width: auto; font-size: 150%'><span style='font-weight: bold; font-size: 100px; color: green;'>+10 points!</span><br><br></div>,,delaylearn,learning,feedback_image_window,hk5Rs5yNsDNSud4Z6ziYql9O0JV2,hk5Rs5yNsDNSud4Z6ziYql9O0JV2,,,,,,,,,,,,,,,,,,,,,,5cdd2e2a8b39ba00191a227e,16:40:22,27/03/2024
html-keyboard-response,71,137402,0.0-31.0-0.0,,,,,,mood_trial_fixation,hk5Rs5yNsDNSud4Z6ziYql9O0JV2,,,,,,,,,,,,,,,,,,,,,,,5cdd2e2a8b39ba00191a227e,16:40:22,27/03/2024
lmdlab-html-vas-response,72,142908,0.0-31.0-1.0,4498.0,How happy are you right now?,0.4791666666666667,delaylearn,learning,mood_trial,hk5Rs5yNsDNSud4Z6ziYql9O0JV2,hk5Rs5yNsDNSud4Z6ziYql9O0JV2,,,,,,,,,,,,,,,,,,,,"['Very unhappy', 'Very happy']",,5cdd2e2a8b39ba00191a227e,16:40:22,27/03/2024
html-keyboard-response,73,145396,0.0-32.0,,"<div style=""font-size:100px;"">+</div>",,delaylearn,learning,ITI,hk5Rs5yNsDNSud4Z6ziYql9O0JV2,hk5Rs5yNsDNSud4Z6ziYql9O0JV2,,,,,,,,,,,,,,,,,,,2475.0,,,5cdd2e2a8b39ba00191a227e,16:40:22,27/03/2024
html-keyboard-response,74,147228,0.0-33.0-0.0,1830.5,"<div style=""display: flex; flex-direction: column; align-items: center; margin-top: -40px;""><img src=""images/pattern_1.png"" style=""width: 234px; height: 230px; margin-top: -50px;""><div style=""display: flex; justify-content: space-between; margin-top: 33px;""><img src=""images/choice_trial_10.png"" style=""width: 408px; height: 417px; margin-right: 200px;""><img src=""images/choice_trial_3.png"" style=""width: 408px; height: 417px;""></div></div>",j,delaylearn,learning,trial,hk5Rs5yNsDNSud4Z6ziYql9O0JV2,hk5Rs5yNsDNSud4Z6ziYql9O0JV2,2.0,images/choice_trial_10.png,images/choice_trial_3.png,images/pattern_1.png,j,j,7000.0,10.0,3.0,1.0,1.0,14.0,1.0,1.0,3.0,100.0,,,,,,5cdd2e2a8b39ba00191a227e,16:40:22,27/03/2024
html-keyboard-response,75,148245,0.0-33.0-1.0,,"<div style=""display: flex; flex-direction: column; align-items: center; margin-top: -40px;""><img src=""images/pattern_1.png"" style=""width: 234px; height: 230px; margin-top: -50px;""><div style=""display: flex; justify-content: space-between; margin-top: 33px;""><img src=""images/choice_trial_3.png"" style=""width: 408px; height: 417px; margin-left:608px;""></div></div>",,delaylearn,learning,display_response,hk5Rs5yNsDNSud4Z6ziYql9O0JV2,hk5Rs5yNsDNSud4Z6ziYql9O0JV2,,,,,,,,,,,,,,,,,chosen stimuli: images/choice_trial_3.png,,,,,5cdd2e2a8b39ba00191a227e,16:40:22,27/03/2024
html-keyboard-response,76,155256,0.0-33.0-2.0,,,,delaylearn,learning,feedback_duration_window,hk5Rs5yNsDNSud4Z6ziYql9O0JV2,hk5Rs5yNsDNSud4Z6ziYql9O0JV2,,,,,,,,,,,,,,,,,,7000.0,,,,5cdd2e2a8b39ba00191a227e,16:40:22,27/03/2024
html-keyboard-response,77,156773,0.0-33.0-3.0,,<div style='margin:auto;width: auto; font-size: 150%'><span style='font-weight: bold; font-size: 100px; color: green;'>+10 points!</span><br><br></div>,,delaylearn,learning,feedback_image_window,hk5Rs5yNsDNSud4Z6ziYql9O0JV2,hk5Rs5yNsDNSud4Z6ziYql9O0JV2,,,,,,,,,,,,,,,,,,,,,,5cdd2e2a8b39ba00191a227e,16:40:22,27/03/2024
html-keyboard-response,78,158823,0.0-34.0,,"<div style=""font-size:100px;"">+</div>",,delaylearn,learning,ITI,hk5Rs5yNsDNSud4Z6ziYql9O0JV2,hk5Rs5yNsDNSud4Z6ziYql9O0JV2,,,,,,,,,,,,,,,,,,,2041.0,,,5cdd2e2a8b39ba00191a227e,16:40:22,27/03/2024
html-keyboard-response,79,160900,0.0-35.0-0.0,2076.0,"<div style=""display: flex; flex-direction: column; align-items: center; margin-top: -40px;""><img src=""images/pattern_3.png"" style=""width: 234px; height: 230px; margin-top: -50px;""><div style=""display: flex; justify-content: space-between; margin-top: 33px;""><img src=""images/choice_trial_14.png"" style=""width: 408px; height: 417px; margin-right: 200px;""><img src=""images/choice_trial_12.png"" style=""width: 408px; height: 417px;""></div></div>",j,delaylearn,learning,trial,hk5Rs5yNsDNSud4Z6ziYql9O0JV2,hk5Rs5yNsDNSud4Z6ziYql9O0JV2,2.0,images/choice_trial_14.png,images/choice_trial_12.png,images/pattern_3.png,f,j,7000.0,14.0,12.0,2.0,1.0,15.0,1.0,0.0,12.0,100.0,,,,,,5cdd2e2a8b39ba00191a227e,16:40:22,27/03/2024
html-keyboard-response,80,161911,0.0-35.0-1.0,,"<div style=""display: flex; flex-direction: column; align-items: center; margin-top: -40px;""><img src=""images/pattern_3.png"" style=""width: 234px; height: 230px; margin-top: -50px;""><div style=""display: flex; justify-content: space-between; margin-top: 33px;""><img src=""images/choice_trial_12.png"" style=""width: 408px; height: 417px; margin-left:608px;""></div></div>",,delaylearn,learning,display_response,hk5Rs5yNsDNSud4Z6ziYql9O0JV2,hk5Rs5yNsDNSud4Z6ziYql9O0JV2,,,,,,,,,,,,,,,,,chosen stimuli: images/choice_trial_12.png,,,,,5cdd2e2a8b39ba00191a227e,16:40:22,27/03/2024
html-keyboard-response,81,168917,0.0-35.0-2.0,,,,delaylearn,learning,feedback_duration_window,hk5Rs5yNsDNSud4Z6ziYql9O0JV2,hk5Rs5yNsDNSud4Z6ziYql9O0JV2,,,,,,,,,,,,,,,,,,7000.0,,,,5cdd2e2a8b39ba00191a227e,16:40:22,27/03/2024
html-keyboard-response,82,170433,0.0-35.0-3.0,,<div style='margin:auto;width: auto; font-size: 150%'><span style='font-weight: bold; font-size: 100px; color: red;'>0 points!</span><br><br></div>,,delaylearn,learning,feedback_image_window,hk5Rs5yNsDNSud4Z6ziYql9O0JV2,hk5Rs5yNsDNSud4Z6ziYql9O0JV2,,,,,,,,,,,,,,,,,,,,,,5cdd2e2a8b39ba00191a227e,16:40:22,27/03/2024
html-keyboard-response,83,172552,0.0-36.0,,"<div style=""font-size:100px;"">+</div>",,delaylearn,learning,ITI,hk5Rs5yNsDNSud4Z6ziYql9O0JV2,hk5Rs5yNsDNSud4Z6ziYql9O0JV2,,,,,,,,,,,,,,,,,,,2118.0,,,5cdd2e2a8b39ba00191a227e,16:40:22,27/03/2024
html-keyboard-response,84,174384,0.0-37.0-0.0,1829.0,"<div style=""display: flex; flex-direction: column; align-items: center; margin-top: -40px;""><img src=""images/pattern_5.png"" style=""width: 234px; height: 230px; margin-top: -50px;""><div style=""display: flex; justify-content: space-between; margin-top: 33px;""><img src=""images/choice_trial_2.png"" style=""width: 408px; height: 417px; margin-right: 200px;""><img src=""images/choice_trial_9.png"" style=""width: 408px; height: 417px;""></div></div>",j,delaylearn,learning,trial,hk5Rs5yNsDNSud4Z6ziYql9O0JV2,hk5Rs5yNsDNSud4Z6ziYql9O0JV2,2.0,images/choice_trial_2.png,images/choice_trial_9.png,images/pattern_5.png,f,f,750.0,2.0,9.0,4.0,0.0,16.0,0.0,0.0,9.0,100.0,,,,,,5cdd2e2a8b39ba00191a227e,16:40:22,27/03/2024
html-keyboard-response,85,175397,0.0-37.0-1.0,,"<div style=""display: flex; flex-direction: column; align-items: center; margin-top: -40px;""><img src=""images/pattern_5.png"" style=""width: 234px; height: 230px; margin-top: -50px;""><div style=""display: flex; justify-content: space-between; margin-top: 33px;""><img src=""images/choice_trial_9.png"" style=""width: 408px; height: 417px; margin-left:608px;""></div></div>",,delaylearn,learning,display_response,hk5Rs5yNsDNSud4Z6ziYql9O0JV2,hk5Rs5yNsDNSud4Z6ziYql9O0JV2,,,,,,,,,,,,,,,,,chosen stimuli: images/choice_trial_9.png,,,,,5cdd2e2a8b39ba00191a227e,16:40:22,27/03/2024
html-keyboard-response,86,176149,0.0-37.0-2.0,,,,delaylearn,learning,feedback_duration_window,hk5Rs5yNsDNSud4Z6ziYql9O0JV2,hk5Rs5yNsDNSud4Z6ziYql9O0JV2,,,,,,,,,,,,,,,,,,750.0,,,,5cdd2e2a8b39ba00191a227e,16:40:22,27/03/2024
html-keyboard-response,87,177665,0.0-37.0-3.0,,<div style='margin:auto;width: auto; font-size: 150%'><span style='font-weight: bold; font-size: 100px; color: red;'>0 points!</span><br><br></div>,,delaylearn,learning,feedback_image_window,hk5Rs5yNsDNSud4Z6ziYql9O0JV2,hk5Rs5yNsDNSud4Z6ziYql9O0JV2,,,,,,,,,,,,,,,,,,,,,,5cdd2e2a8b39ba00191a227e,16:40:22,27/03/2024
html-keyboard-response,88,178180,0.0-38.0-0.0,,,,,,mood_trial_fixation,hk5Rs5yNsDNSud4Z6ziYql9O0JV2,,,,,,,,,,,,,,,,,,,,,,,5cdd2e2a8b39ba00191a227e,16:40:22,27/03/2024
lmdlab-html-vas-response,89,182716,0.0-38.0-1.0,3522.0,How happy are you right now?,0.4375,delaylearn,learning,mood_trial,hk5Rs5yNsDNSud4Z6ziYql9O0JV2,hk5Rs5yNsDNSud4Z6ziYql9O0JV2,,,,,,,,,,,,,,,,,,,,"['Very unhappy', 'Very happy']",,5cdd2e2a8b39ba00191a227e,16:40:22,27/03/2024
html-keyboard-response,90,184694,0.0-39.0,,"<div style=""font-size:100px;"">+</div>",,delaylearn,learning,ITI,hk5Rs5yNsDNSud4Z6ziYql9O0JV2,hk5Rs5yNsDNSud4Z6ziYql9O0JV2,,,,,,,,,,,,,,,,,,,1969.0,,,5cdd2e2a8b39ba00191a227e,16:40:22,27/03/2024
html-keyboard-response,91,186003,0.0-40.0-0.0,1307.6000000238419,"<div style=""display: flex; flex-direction: column; align-items: center; margin-top: -40px;""><img src=""images/pattern_6.png"" style=""width: 234px; height: 230px; margin-top: -50px;""><div style=""display: flex; justify-content: space-between; margin-top: 33px;""><img src=""images/choice_trial_11.png"" style=""width: 408px; height: 417px; margin-right: 200px;""><img src=""images/choice_trial_5.png"" style=""width: 408px; height: 417px;""></div></div>",j,delaylearn,learning,trial,hk5Rs5yNsDNSud4Z6ziYql9O0JV2,hk5Rs5yNsDNSud4Z6ziYql9O0JV2,2.0,images/choice_trial_11.png,images/choice_trial_5.png,images/pattern_6.png,f,f,750.0,11.0,5.0,5.0,0.0,17.0,0.0,0.0,5.0,100.0,,,,,,5cdd2e2a8b39ba00191a227e,16:40:22,27/03/2024
html-keyboard-response,92,187007,0.0-40.0-1.0,,"<div style=""display: flex; flex-direction: column; align-items: center; margin-top: -40px;""><img src=""images/pattern_6.png"" style=""width: 234px; height: 230px; margin-top: -50px;""><div style=""display: flex; justify-content: space-between; margin-top: 33px;""><img src=""images/choice_trial_5.png"" style=""width: 408px; height: 417px; margin-left:608px;""></div></div>",,delaylearn,learning,display_response,hk5Rs5yNsDNSud4Z6ziYql9O0JV2,hk5Rs5yNsDNSud4Z6ziYql9O0JV2,,,,,,,,,,,,,,,,,chosen stimuli: images/choice_trial_5.png,,,,,5cdd2e2a8b39ba00191a227e,16:40:22,27/03/2024
html-keyboard-response,93,187773,0.0-40.0-2.0,,,,delaylearn,learning,feedback_duration_window,hk5Rs5yNsDNSud4Z6ziYql9O0JV2,hk5Rs5yNsDNSud4Z6ziYql9O0JV2,,,,,,,,,,,,,,,,,,750.0,,,,5cdd2e2a8b39ba00191a227e,16:40:22,27/03/2024
html-keyboard-response,94,189279,0.0-40.0-3.0,,<div style='margin:auto;width: auto; font-size: 150%'><span style='font-weight: bold; font-size: 100px; color: red;'>0 points!</span><br><br></div>,,delaylearn,learning,feedback_image_window,hk5Rs5yNsDNSud4Z6ziYql9O0JV2,hk5Rs5yNsDNSud4Z6ziYql9O0JV2,,,,,,,,,,,,,,,,,,,,,,5cdd2e2a8b39ba00191a227e,16:40:22,27/03/2024
html-keyboard-response,95,191134,0.0-41.0,,"<div style=""font-size:100px;"">+</div>",,delaylearn,learning,ITI,hk5Rs5yNsDNSud4Z6ziYql9O0JV2,hk5Rs5yNsDNSud4Z6ziYql9O0JV2,,,,,,,,,,,,,,,,,,,1844.0,,,5cdd2e2a8b39ba00191a227e,16:40:22,27/03/2024
html-keyboard-response,96,193681,0.0-42.0-0.0,2544.899999976158,"<div style=""display: flex; flex-direction: column; align-items: center; margin-top: -40px;""><img src=""images/pattern_4.png"" style=""width: 234px; height: 230px; margin-top: -50px;""><div style=""display: flex; justify-content: space-between; margin-top: 33px;""><img src=""images/choice_trial_16.png"" style=""width: 408px; height: 417px; margin-right: 200px;""><img src=""images/choice_trial_4.png"" style=""width: 408px; height: 417px;""></div></div>",j,delaylearn,learning,trial,hk5Rs5yNsDNSud4Z6ziYql9O0JV2,hk5Rs5yNsDNSud4Z6ziYql9O0JV2,2.0,images/choice_trial_16.png,images/choice_trial_4.png,images/pattern_4.png,j,j,7000.0,16.0,4.0,3.0,1.0,18.0,1.0,1.0,4.0,110.0,,,,,,5cdd2e2a8b39ba00191a227e,16:40:22,27/03/2024
html-keyboard-response,97,194684,0.0-42.0-1.0,,"<div style=""display: flex; flex-direction: column; align-items: center; margin-top: -40px;""><img src=""images/pattern_4.png"" style=""width: 234px; height: 230px; margin-top: -50px;""><div style=""display: flex; justify-content: space-between; margin-top: 33px;""><img src=""images/choice_trial_4.png"" style=""width: 408px; height: 417px; margin-left:608px;""></div></div>",,delaylearn,learning,display_response,hk5Rs5yNsDNSud4Z6ziYql9O0JV2,hk5Rs5yNsDNSud4Z6ziYql9O0JV2,,,,,,,,,,,,,,,,,chosen stimuli: images/choice_trial_4.png,,,,,5cdd2e2a8b39ba00191a227e,16:40:22,27/03/2024
html-keyboard-response,98,201697,0.0-42.0-2.0,,,,delaylearn,learning,feedback_duration_window,hk5Rs5yNsDNSud4Z6ziYql9O0JV2,hk5Rs5yNsDNSud4Z6ziYql9O0JV2,,,,,,,,,,,,,,,,,,7000.0,,,,5cdd2e2a8b39ba00191a227e,16:40:22,27/03/2024
html-keyboard-response,99,203201,0.0-42.0-3.0,,<div style='margin:auto;width: auto; font-size: 150%'><span style='font-weight: bold; font-size: 100px; color: green;'>+10 points!</span><br><br></div>,,delaylearn,learning,feedback_image_window,hk5Rs5yNsDNSud4Z6ziYql9O0JV2,hk5Rs5yNsDNSud4Z6ziYql9O0JV2,,,,,,,,,,,,,,,,,,,,,,5cdd2e2a8b39ba00191a227e,16:40:22,27/03/2024
html-keyboard-response,100,205141,0.0-43.0,,"<div style=""font-size:100px;"">+</div>",,delaylearn,learning,ITI,hk5Rs5yNsDNSud4Z6ziYql9O0JV2,hk5Rs5yNsDNSud4Z6ziYql9O0JV2,,,,,,,,,,,,,,,,,,,1935.0,,,5cdd2e2a8b39ba00191a227e,16:40:22,27/03/2024
html-keyboard-response,101,207162,0.0-44.0-0.0,2018.0,"<div style=""display: flex; flex-direction: column; align-items: center; margin-top: -40px;""><img src=""images/pattern_7.png"" style=""width: 234px; height: 230px; margin-top: -50px;""><div style=""display: flex; justify-content: space-between; margin-top: 33px;""><img src=""images/choice_trial_8.png"" style=""width: 408px; height: 417px; margin-right: 200px;""><img src=""images/choice_trial_15.png"" style=""width: 408px; height: 417px;""></div></div>",j,delaylearn,learning,trial,hk5Rs5yNsDNSud4Z6ziYql9O0JV2,hk5Rs5yNsDNSud4Z6ziYql9O0JV2,2.0,images/choice_trial_8.png,images/choice_trial_15.png,images/pattern_7.png,j,f,750.0,8.0,15.0,6.0,0.0,19.0,0.0,1.0,15.0,120.0,,,,,,5cdd2e2a8b39ba00191a227e,16:40:22,27/03/2024
html-keyboard-response,102,208177,0.0-44.0-1.0,,"<div style=""display: flex; flex-direction: column; align-items: center; margin-top: -40px;""><img src=""images/pattern_7.png"" style=""width: 234px; height: 230px; margin-top: -50px;""><div style=""display: flex; justify-content: space-between; margin-top: 33px;""><img src=""images/choice_trial_15.png"" style=""width: 408px; height: 417px; margin-left:608px;""></div></div>",,delaylearn,learning,display_response,hk5Rs5yNsDNSud4Z6ziYql9O0JV2,hk5Rs5yNsDNSud4Z6ziYql9O0JV2,,,,,,,,,,,,,,,,,chosen stimuli: images/choice_trial_15.png,,,,,5cdd2e2a8b39ba00191a227e,16:40:22,27/03/2024
html-keyboard-response,103,208943,0.0-44.0-2.0,,,,delaylearn,learning,feedback_duration_window,hk5Rs5yNsDNSud4Z6ziYql9O0JV2,hk5Rs5yNsDNSud4Z6ziYql9O0JV2,,,,,,,,,,,,,,,,,,750.0,,,,5cdd2e2a8b39ba00191a227e,16:40:22,27/03/2024
html-keyboard-response,104,210456,0.0-44.0-3.0,,<div style='margin:auto;width: auto; font-size: 150%'><span style='font-weight: bold; font-size: 100px; color: green;'>+10 points!</span><br><br></div>,,delaylearn,learning,feedback_image_window,hk5Rs5yNsDNSud4Z6ziYql9O0JV2,hk5Rs5yNsDNSud4Z6ziYql9O0JV2,,,,,,,,,,,,,,,,,,,,,,5cdd2e2a8b39ba00191a227e,16:40:22,27/03/2024
html-keyboard-response,105,212377,0.0-45.0,,"<div style=""font-size:100px;"">+</div>",,delaylearn,learning,ITI,hk5Rs5yNsDNSud4Z6ziYql9O0JV2,hk5Rs5yNsDNSud4Z6ziYql9O0JV2,,,,,,,,,,,,,,,,,,,1908.0,,,5cdd2e2a8b39ba00191a227e,16:40:22,27/03/2024
html-keyboard-response,106,214889,0.0-46.0-0.0,2510.2000000476837,"<div style=""display: flex; flex-direction: column; align-items: center; margin-top: -40px;""><img src=""images/pattern_1.png"" style=""width: 234px; height: 230px; margin-top: -50px;""><div style=""display: flex; justify-content: space-between; margin-top: 33px;""><img src=""images/choice_trial_3.png"" style=""width: 408px; height: 417px; margin-right: 200px;""><img src=""images/choice_trial_10.png"" style=""width: 408px; height: 417px;""></div></div>",j,delaylearn,learning,trial,hk5Rs5yNsDNSud4Z6ziYql9O0JV2,hk5Rs5yNsDNSud4Z6ziYql9O0JV2,2.0,images/choice_trial_3.png,images/choice_trial_10.png,images/pattern_1.png,f,f,7000.0,3.0,10.0,1.0,0.0,20.0,0.0,0.0,10.0,120.0,,,,,,5cdd2e2a8b39ba00191a227e,16:40:22,27/03/2024
html-keyboard-response,107,215893,0.0-46.0-1.0,,"<div style=""display: flex; flex-direction: column; align-items: center; margin-top: -40px;""><img src=""images/pattern_1.png"" style=""width: 234px; height: 230px; margin-top: -50px;""><div style=""display: flex; justify-content: space-between; margin-top: 33px;""><img src=""images/choice_trial_10.png"" style=""width: 408px; height: 417px; margin-left:608px;""></div></div>",,delaylearn,learning,display_response,hk5Rs5yNsDNSud4Z6ziYql9O0JV2,hk5Rs5yNsDNSud4Z6ziYql9O0JV2,,,,,,,,,,,,,,,,,chosen stimuli: images/choice_trial_10.png,,,,,5cdd2e2a8b39ba00191a227e,16:40:22,27/03/2024
html-keyboard-response,108,222905,0.0-46.0-2.0,,,,delaylearn,learning,feedback_duration_window,hk5Rs5yNsDNSud4Z6ziYql9O0JV2,hk5Rs5yNsDNSud4Z6ziYql9O0JV2,,,,,,,,,,,,,,,,,,7000.0,,,,5cdd2e2a8b39ba00191a227e,16:40:22,27/03/2024
html-keyboard-response,109,224413,0.0-46.0-3.0,,<div style='margin:auto;width: auto; font-size: 150%'><span style='font-weight: bold; font-size: 100px; color: red;'>0 points!</span><br><br></div>,,delaylearn,learning,feedback_image_window,hk5Rs5yNsDNSud4Z6ziYql9O0JV2,hk5Rs5yNsDNSud4Z6ziYql9O0JV2,,,,,,,,,,,,,,,,,,,,,,5cdd2e2a8b39ba00191a227e,16:40:22,27/03/2024
html-keyboard-response,110,226428,0.0-47.0,,"<div style=""font-size:100px;"">+</div>",,delaylearn,learning,ITI,hk5Rs5yNsDNSud4Z6ziYql9O0JV2,hk5Rs5yNsDNSud4Z6ziYql9O0JV2,,,,,,,,,,,,,,,,,,,2005.0,,,5cdd2e2a8b39ba00191a227e,16:40:22,27/03/2024
html-keyboard-response,111,227697,0.0-48.0-0.0,1265.5999999046326,"<div style=""display: flex; flex-direction: column; align-items: center; margin-top: -40px;""><img src=""images/pattern_6.png"" style=""width: 234px; height: 230px; margin-top: -50px;""><div style=""display: flex; justify-content: space-between; margin-top: 33px;""><img src=""images/choice_trial_5.png"" style=""width: 408px; height: 417px; margin-right: 200px;""><img src=""images/choice_trial_11.png"" style=""width: 408px; height: 417px;""></div></div>",j,delaylearn,learning,trial,hk5Rs5yNsDNSud4Z6ziYql9O0JV2,hk5Rs5yNsDNSud4Z6ziYql9O0JV2,2.0,images/choice_trial_5.png,images/choice_trial_11.png,images/pattern_6.png,j,j,750.0,5.0,11.0,5.0,1.0,21.0,1.0,1.0,11.0,130.0,,,,,,5cdd2e2a8b39ba00191a227e,16:40:22,27/03/2024
html-keyboard-response,112,228708,0.0-48.0-1.0,,"<div style=""display: flex; flex-direction: column; align-items: center; margin-top: -40px;""><img src=""images/pattern_6.png"" style=""width: 234px; height: 230px; margin-top: -50px;""><div style=""display: flex; justify-content: space-between; margin-top: 33px;""><img src=""images/choice_trial_11.png"" style=""width: 408px; height: 417px; margin-left:608px;""></div></div>",,delaylearn,learning,display_response,hk5Rs5yNsDNSud4Z6ziYql9O0JV2,hk5Rs5yNsDNSud4Z6ziYql9O0JV2,,,,,,,,,,,,,,,,,chosen stimuli: images/choice_trial_11.png,,,,,5cdd2e2a8b39ba00191a227e,16:40:22,27/03/2024
html-keyboard-response,113,229473,0.0-48.0-2.0,,,,delaylearn,learning,feedback_duration_window,hk5Rs5yNsDNSud4Z6ziYql9O0JV2,hk5Rs5yNsDNSud4Z6ziYql9O0JV2,,,,,,,,,,,,,,,,,,750.0,,,,5cdd2e2a8b39ba00191a227e,16:40:22,27/03/2024
html-keyboard-response,114,230988,0.0-48.0-3.0,,<div style='margin:auto;width: auto; font-size: 150%'><span style='font-weight: bold; font-size: 100px; color: green;'>+10 points!</span><br><br></div>,,delaylearn,learning,feedback_image_window,hk5Rs5yNsDNSud4Z6ziYql9O0JV2,hk5Rs5yNsDNSud4Z6ziYql9O0JV2,,,,,,,,,,,,,,,,,,,,,,5cdd2e2a8b39ba00191a227e,16:40:22,27/03/2024
html-keyboard-response,115,232721,0.0-49.0,,"<div style=""font-size:100px;"">+</div>",,delaylearn,learning,ITI,hk5Rs5yNsDNSud4Z6ziYql9O0JV2,hk5Rs5yNsDNSud4Z6ziYql9O0JV2,,,,,,,,,,,,,,,,,,,1726.0,,,5cdd2e2a8b39ba00191a227e,16:40:22,27/03/2024
html-keyboard-response,116,234213,0.0-50.0-0.0,1491.6999999284744,"<div style=""display: flex; flex-direction: column; align-items: center; margin-top: -40px;""><img src=""images/pattern_4.png"" style=""width: 234px; height: 230px; margin-top: -50px;""><div style=""display: flex; justify-content: space-between; margin-top: 33px;""><img src=""images/choice_trial_4.png"" style=""width: 408px; height: 417px; margin-right: 200px;""><img src=""images/choice_trial_16.png"" style=""width: 408px; height: 417px;""></div></div>",j,delaylearn,learning,trial,hk5Rs5yNsDNSud4Z6ziYql9O0JV2,hk5Rs5yNsDNSud4Z6ziYql9O0JV2,2.0,images/choice_trial_4.png,images/choice_trial_16.png,images/pattern_4.png,f,f,7000.0,4.0,16.0,3.0,0.0,22.0,0.0,0.0,16.0,130.0,,,,,,5cdd2e2a8b39ba00191a227e,16:40:22,27/03/2024
html-keyboard-response,117,235222,0.0-50.0-1.0,,"<div style=""display: flex; flex-direction: column; align-items: center; margin-top: -40px;""><img src=""images/pattern_4.png"" style=""width: 234px; height: 230px; margin-top: -50px;""><div style=""display: flex; justify-content: space-between; margin-top: 33px;""><img src=""images/choice_trial_16.png"" style=""width: 408px; height: 417px; margin-left:608px;""></div></div>",,delaylearn,learning,display_response,hk5Rs5yNsDNSud4Z6ziYql9O0JV2,hk5Rs5yNsDNSud4Z6ziYql9O0JV2,,,,,,,,,,,,,,,,,chosen stimuli: images/choice_trial_16.png,,,,,5cdd2e2a8b39ba00191a227e,16:40:22,27/03/2024
html-keyboard-response,118,242226,0.0-50.0-2.0,,,,delaylearn,learning,feedback_duration_window,hk5Rs5yNsDNSud4Z6ziYql9O0JV2,hk5Rs5yNsDNSud4Z6ziYql9O0JV2,,,,,,,,,,,,,,,,,,7000.0,,,,5cdd2e2a8b39ba00191a227e,16:40:22,27/03/2024
html-keyboard-response,119,243728,0.0-50.0-3.0,,<div style='margin:auto;width: auto; font-size: 150%'><span style='font-weight: bold; font-size: 100px; color: red;'>0 points!</span><br><br></div>,,delaylearn,learning,feedback_image_window,hk5Rs5yNsDNSud4Z6ziYql9O0JV2,hk5Rs5yNsDNSud4Z6ziYql9O0JV2,,,,,,,,,,,,,,,,,,,,,,5cdd2e2a8b39ba00191a227e,16:40:22,27/03/2024
html-keyboard-response,120,244241,0.0-51.0-0.0,,,,,,mood_trial_fixation,hk5Rs5yNsDNSud4Z6ziYql9O0JV2,,,,,,,,,,,,,,,,,,,,,,,5cdd2e2a8b39ba00191a227e,16:40:22,27/03/2024
lmdlab-html-vas-response,121,248797,0.0-51.0-1.0,3548.0,How happy are you right now?,0.32175925925925924,delaylearn,learning,mood_trial,hk5Rs5yNsDNSud4Z6ziYql9O0JV2,hk5Rs5yNsDNSud4Z6ziYql9O0JV2,,,,,,,,,,,,,,,,,,,,"['Very unhappy', 'Very happy']",,5cdd2e2a8b39ba00191a227e,16:40:22,27/03/2024
html-keyboard-response,122,250556,0.0-52.0,,"<div style=""font-size:100px;"">+</div>",,delaylearn,learning,ITI,hk5Rs5yNsDNSud4Z6ziYql9O0JV2,hk5Rs5yNsDNSud4Z6ziYql9O0JV2,,,,,,,,,,,,,,,,,,,1743.0,,,5cdd2e2a8b39ba00191a227e,16:40:22,27/03/2024
html-keyboard-response,123,252304,0.0-53.0-0.0,1744.6999999284744,"<div style=""display: flex; flex-direction: column; align-items: center; margin-top: -40px;""><img src=""images/pattern_7.png"" style=""width: 234px; height: 230px; margin-top: -50px;""><div style=""display: flex; justify-content: space-between; margin-top: 33px;""><img src=""images/choice_trial_15.png"" style=""width: 408px; height: 417px; margin-right: 200px;""><img src=""images/choice_trial_8.png"" style=""width: 408px; height: 417px;""></div></div>",f,delaylearn,learning,trial,hk5Rs5yNsDNSud4Z6ziYql9O0JV2,hk5Rs5yNsDNSud4Z6ziYql9O0JV2,2.0,images/choice_trial_15.png,images/choice_trial_8.png,images/pattern_7.png,j,j,750.0,15.0,8.0,6.0,1.0,23.0,0.0,0.0,15.0,130.0,,,,,,5cdd2e2a8b39ba00191a227e,16:40:22,27/03/2024
html-keyboard-response,124,253309,0.0-53.0-1.0,,"<div style=""display: flex; flex-direction: column; align-items: center; margin-top: -40px;""><img src=""images/pattern_7.png"" style=""width: 234px; height: 230px; margin-top: -50px;""><div style=""display: flex; justify-content: space-between; margin-top: 33px;""><img src=""images/choice_trial_15.png"" style=""width: 408px; height: 417px; margin-right: 608px;""></div></div>",,delaylearn,learning,display_response,hk5Rs5yNsDNSud4Z6ziYql9O0JV2,hk5Rs5yNsDNSud4Z6ziYql9O0JV2,,,,,,,,,,,,,,,,,chosen stimuli: images/choice_trial_15.png,,,,,5cdd2e2a8b39ba00191a227e,16:40:22,27/03/2024
html-keyboard-response,125,254073,0.0-53.0-2.0,,,,delaylearn,learning,feedback_duration_window,hk5Rs5yNsDNSud4Z6ziYql9O0JV2,hk5Rs5yNsDNSud4Z6ziYql9O0JV2,,,,,,,,,,,,,,,,,,750.0,,,,5cdd2e2a8b39ba00191a227e,16:40:22,27/03/2024
html-keyboard-response,126,255576,0.0-53.0-3.0,,<div style='margin:auto;width: auto; font-size: 150%'><span style='font-weight: bold; font-size: 100px; color: red;'>0 points!</span><br><br></div>,,delaylearn,learning,feedback_image_window,hk5Rs5yNsDNSud4Z6ziYql9O0JV2,hk5Rs5yNsDNSud4Z6ziYql9O0JV2,,,,,,,,,,,,,,,,,,,,,,5cdd2e2a8b39ba00191a227e,16:40:22,27/03/2024
html-keyboard-response,127,257686,0.0-54.0,,"<div style=""font-size:100px;"">+</div>",,delaylearn,learning,ITI,hk5Rs5yNsDNSud4Z6ziYql9O0JV2,hk5Rs5yNsDNSud4Z6ziYql9O0JV2,,,,,,,,,,,,,,,,,,,2102.0,,,5cdd2e2a8b39ba00191a227e,16:40:22,27/03/2024
html-keyboard-response,128,260132,0.0-55.0-0.0,2443.1999999284744,"<div style=""display: flex; flex-direction: column; align-items: center; margin-top: -40px;""><img src=""images/pattern_1.png"" style=""width: 234px; height: 230px; margin-top: -50px;""><div style=""display: flex; justify-content: space-between; margin-top: 33px;""><img src=""images/choice_trial_10.png"" style=""width: 408px; height: 417px; margin-right: 200px;""><img src=""images/choice_trial_3.png"" style=""width: 408px; height: 417px;""></div></div>",j,delaylearn,learning,trial,hk5Rs5yNsDNSud4Z6ziYql9O0JV2,hk5Rs5yNsDNSud4Z6ziYql9O0JV2,2.0,images/choice_trial_10.png,images/choice_trial_3.png,images/pattern_1.png,f,j,7000.0,10.0,3.0,1.0,1.0,24.0,1.0,0.0,3.0,130.0,,,,,,5cdd2e2a8b39ba00191a227e,16:40:22,27/03/2024
html-keyboard-response,129,261141,0.0-55.0-1.0,,"<div style=""display: flex; flex-direction: column; align-items: center; margin-top: -40px;""><img src=""images/pattern_1.png"" style=""width: 234px; height: 230px; margin-top: -50px;""><div style=""display: flex; justify-content: space-between; margin-top: 33px;""><img src=""images/choice_trial_3.png"" style=""width: 408px; height: 417px; margin-left:608px;""></div></div>",,delaylearn,learning,display_response,hk5Rs5yNsDNSud4Z6ziYql9O0JV2,hk5Rs5yNsDNSud4Z6ziYql9O0JV2,,,,,,,,,,,,,,,,,chosen stimuli: images/choice_trial_3.png,,,,,5cdd2e2a8b39ba00191a227e,16:40:22,27/03/2024
html-keyboard-response,130,268155,0.0-55.0-2.0,,,,delaylearn,learning,feedback_duration_window,hk5Rs5yNsDNSud4Z6ziYql9O0JV2,hk5Rs5yNsDNSud4Z6ziYql9O0JV2,,,,,,,,,,,,,,,,,,7000.0,,,,5cdd2e2a8b39ba00191a227e,16:40:22,27/03/2024
html-keyboard-response,131,269660,0.0-55.0-3.0,,<div style='margin:auto;width: auto; font-size: 150%'><span style='font-weight: bold; font-size: 100px; color: red;'>0 points!</span><br><br></div>,,delaylearn,learning,feedback_image_window,hk5Rs5yNsDNSud4Z6ziYql9O0JV2,hk5Rs5yNsDNSud4Z6ziYql9O0JV2,,,,,,,,,,,,,,,,,,,,,,5cdd2e2a8b39ba00191a227e,16:40:22,27/03/2024
html-keyboard-response,132,271481,0.0-56.0,,"<div style=""font-size:100px;"">+</div>",,delaylearn,learning,ITI,hk5Rs5yNsDNSud4Z6ziYql9O0JV2,hk5Rs5yNsDNSud4Z6ziYql9O0JV2,,,,,,,,,,,,,,,,,,,1812.0,,,5cdd2e2a8b39ba00191a227e,16:40:22,27/03/2024
html-keyboard-response,133,273737,0.0-57.0-0.0,2252.600000023842,"<div style=""display: flex; flex-direction: column; align-items: center; margin-top: -40px;""><img src=""images/pattern_5.png"" style=""width: 234px; height: 230px; margin-top: -50px;""><div style=""display: flex; justify-content: space-between; margin-top: 33px;""><img src=""images/choice_trial_9.png"" style=""width: 408px; height: 417px; margin-right: 200px;""><img src=""images/choice_trial_2.png"" style=""width: 408px; height: 417px;""></div></div>",j,delaylearn,learning,trial,hk5Rs5yNsDNSud4Z6ziYql9O0JV2,hk5Rs5yNsDNSud4Z6ziYql9O0JV2,2.0,images/choice_trial_9.png,images/choice_trial_2.png,images/pattern_5.png,j,j,750.0,9.0,2.0,4.0,1.0,25.0,1.0,1.0,2.0,140.0,,,,,,5cdd2e2a8b39ba00191a227e,16:40:22,27/03/2024
html-keyboard-response,134,274743,0.0-57.0-1.0,,"<div style=""display: flex; flex-direction: column; align-items: center; margin-top: -40px;""><img src=""images/pattern_5.png"" style=""width: 234px; height: 230px; margin-top: -50px;""><div style=""display: flex; justify-content: space-between; margin-top: 33px;""><img src=""images/choice_trial_2.png"" style=""width: 408px; height: 417px; margin-left:608px;""></div></div>",,delaylearn,learning,display_response,hk5Rs5yNsDNSud4Z6ziYql9O0JV2,hk5Rs5yNsDNSud4Z6ziYql9O0JV2,,,,,,,,,,,,,,,,,chosen stimuli: images/choice_trial_2.png,,,,,5cdd2e2a8b39ba00191a227e,16:40:22,27/03/2024
html-keyboard-response,135,275506,0.0-57.0-2.0,,,,delaylearn,learning,feedback_duration_window,hk5Rs5yNsDNSud4Z6ziYql9O0JV2,hk5Rs5yNsDNSud4Z6ziYql9O0JV2,,,,,,,,,,,,,,,,,,750.0,,,,5cdd2e2a8b39ba00191a227e,16:40:22,27/03/2024
html-keyboard-response,136,277020,0.0-57.0-3.0,,<div style='margin:auto;width: auto; font-size: 150%'><span style='font-weight: bold; font-size: 100px; color: green;'>+10 points!</span><br><br></div>,,delaylearn,learning,feedback_image_window,hk5Rs5yNsDNSud4Z6ziYql9O0JV2,hk5Rs5yNsDNSud4Z6ziYql9O0JV2,,,,,,,,,,,,,,,,,,,,,,5cdd2e2a8b39ba00191a227e,16:40:22,27/03/2024
html-keyboard-response,137,279475,0.0-58.0,,"<div style=""font-size:100px;"">+</div>",,delaylearn,learning,ITI,hk5Rs5yNsDNSud4Z6ziYql9O0JV2,hk5Rs5yNsDNSud4Z6ziYql9O0JV2,,,,,,,,,,,,,,,,,,,2440.0,,,5cdd2e2a8b39ba00191a227e,16:40:22,27/03/2024
html-keyboard-response,138,281436,0.0-59.0-0.0,1958.1000000238419,"<div style=""display: flex; flex-direction: column; align-items: center; margin-top: -40px;""><img src=""images/pattern_3.png"" style=""width: 234px; height: 230px; margin-top: -50px;""><div style=""display: flex; justify-content: space-between; margin-top: 33px;""><img src=""images/choice_trial_14.png"" style=""width: 408px; height: 417px; margin-right: 200px;""><img src=""images/choice_trial_12.png"" style=""width: 408px; height: 417px;""></div></div>",j,delaylearn,learning,trial,hk5Rs5yNsDNSud4Z6ziYql9O0JV2,hk5Rs5yNsDNSud4Z6ziYql9O0JV2,2.0,images/choice_trial_14.png,images/choice_trial_12.png,images/pattern_3.png,j,j,7000.0,14.0,12.0,2.0,1.0,26.0,1.0,1.0,12.0,150.0,,,,,,5cdd2e2a8b39ba00191a227e,16:40:22,27/03/2024
html-keyboard-response,139,282444,0.0-59.0-1.0,,"<div style=""display: flex; flex-direction: column; align-items: center; margin-top: -40px;""><img src=""images/pattern_3.png"" style=""width: 234px; height: 230px; margin-top: -50px;""><div style=""display: flex; justify-content: space-between; margin-top: 33px;""><img src=""images/choice_trial_12.png"" style=""width: 408px; height: 417px; margin-left:608px;""></div></div>",,delaylearn,learning,display_response,hk5Rs5yNsDNSud4Z6ziYql9O0JV2,hk5Rs5yNsDNSud4Z6ziYql9O0JV2,,,,,,,,,,,,,,,,,chosen stimuli: images/choice_trial_12.png,,,,,5cdd2e2a8b39ba00191a227e,16:40:22,27/03/2024
html-keyboard-response,140,289461,0.0-59.0-2.0,,,,delaylearn,learning,feedback_duration_window,hk5Rs5yNsDNSud4Z6ziYql9O0JV2,hk5Rs5yNsDNSud4Z6ziYql9O0JV2,,,,,,,,,,,,,,,,,,7000.0,,,,5cdd2e2a8b39ba00191a227e,16:40:22,27/03/2024
html-keyboard-response,141,290977,0.0-59.0-3.0,,<div style='margin:auto;width: auto; font-size: 150%'><span style='font-weight: bold; font-size: 100px; color: green;'>+10 points!</span><br><br></div>,,delaylearn,learning,feedback_image_window,hk5Rs5yNsDNSud4Z6ziYql9O0JV2,hk5Rs5yNsDNSud4Z6ziYql9O0JV2,,,,,,,,,,,,,,,,,,,,,,5cdd2e2a8b39ba00191a227e,16:40:22,27/03/2024
lmdlab-html-vas-response,142,297400,0.0-60.0-0.0,4908.0,*How <b><u>confident</u></b> are you feeling about your answers at this moment?*,0.43287037037037035,rewlearn,rate_confidence,,hk5Rs5yNsDNSud4Z6ziYql9O0JV2,hk5Rs5yNsDNSud4Z6ziYql9O0JV2,,,,,,,,,,,,,,,,,,,,"['No confidence', 'Complete confidence']",,5cdd2e2a8b39ba00191a227e,16:40:22,27/03/2024
lmdlab-rest-trial-limit,143,327088,0.0-60.0-1.0,28176.300000071526,"<div style=""font-size:40px;""><b>Please take a break!</b><br><br><br><br><p>Great work: you earned 150 points.<br><br><br><p>You have completed part(s) 1 of 5.<br><br><br><br>When you are ready to continue<br><br><br>please click the button.</p><br><br>",0,delaylearn,learning,break,hk5Rs5yNsDNSud4Z6ziYql9O0JV2,hk5Rs5yNsDNSud4Z6ziYql9O0JV2,,,,,,,,,,,,,,,,,,,,,0.0,5cdd2e2a8b39ba00191a227e,16:40:22,27/03/2024
html-keyboard-response,144,330099,0.0-60.0-2.0,,"<div style=""font-size:100px;"">+</div>",,delaylearn,learning,pre_fixation,hk5Rs5yNsDNSud4Z6ziYql9O0JV2,,,,,,,,,,,,,,,,,,,,,,,5cdd2e2a8b39ba00191a227e,16:40:22,27/03/2024
lmdlab-html-vas-response,145,335229,0.0-60.0-3.0-0.0,4120.0,How happy are you right now?,0.39814814814814814,delaylearn,learning,mood_baseline,hk5Rs5yNsDNSud4Z6ziYql9O0JV2,hk5Rs5yNsDNSud4Z6ziYql9O0JV2,,,,,,,,,,,,,,,,,,,,"['Very unhappy', 'Very happy']",,5cdd2e2a8b39ba00191a227e,16:40:22,27/03/2024
html-keyboard-response,146,336744,0.0-60.0-3.0-1.0,,,,,,mood_baseline_fixation,hk5Rs5yNsDNSud4Z6ziYql9O0JV2,,,,,,,,,,,,,,,,,,,,,,,5cdd2e2a8b39ba00191a227e,16:40:22,27/03/2024
html-keyboard-response,147,338296,0.0-61.0,,"<div style=""font-size:100px;"">+</div>",,delaylearn,learning,ITI,hk5Rs5yNsDNSud4Z6ziYql9O0JV2,hk5Rs5yNsDNSud4Z6ziYql9O0JV2,,,,,,,,,,,,,,,,,,,1541.0,,,5cdd2e2a8b39ba00191a227e,16:40:22,27/03/2024
html-keyboard-response,148,340113,0.0-62.0-0.0,1815.3999999761581,"<div style=""display: flex; flex-direction: column; align-items: center; margin-top: -40px;""><img src=""images/pattern_7.png"" style=""width: 234px; height: 230px; margin-top: -50px;""><div style=""display: flex; justify-content: space-between; margin-top: 33px;""><img src=""images/choice_trial_15.png"" style=""width: 408px; height: 417px; margin-right: 200px;""><img src=""images/choice_trial_8.png"" style=""width: 408px; height: 417px;""></div></div>",f,delaylearn,learning,trial,hk5Rs5yNsDNSud4Z6ziYql9O0JV2,hk5Rs5yNsDNSud4Z6ziYql9O0JV2,2.0,images/choice_trial_15.png,images/choice_trial_8.png,images/pattern_7.png,j,j,750.0,15.0,8.0,6.0,1.0,27.0,0.0,0.0,15.0,150.0,,,,,,5cdd2e2a8b39ba00191a227e,16:40:22,27/03/2024
html-keyboard-response,149,341129,0.0-62.0-1.0,,"<div style=""display: flex; flex-direction: column; align-items: center; margin-top: -40px;""><img src=""images/pattern_7.png"" style=""width: 234px; height: 230px; margin-top: -50px;""><div style=""display: flex; justify-content: space-between; margin-top: 33px;""><img src=""images/choice_trial_15.png"" style=""width: 408px; height: 417px; margin-right: 608px;""></div></div>",,delaylearn,learning,display_response,hk5Rs5yNsDNSud4Z6ziYql9O0JV2,hk5Rs5yNsDNSud4Z6ziYql9O0JV2,,,,,,,,,,,,,,,,,chosen stimuli: images/choice_trial_15.png,,,,,5cdd2e2a8b39ba00191a227e,16:40:22,27/03/2024
html-keyboard-response,150,341890,0.0-62.0-2.0,,,,delaylearn,learning,feedback_duration_window,hk5Rs5yNsDNSud4Z6ziYql9O0JV2,hk5Rs5yNsDNSud4Z6ziYql9O0JV2,,,,,,,,,,,,,,,,,,750.0,,,,5cdd2e2a8b39ba00191a227e,16:40:22,27/03/2024
html-keyboard-response,151,343407,0.0-62.0-3.0,,<div style='margin:auto;width: auto; font-size: 150%'><span style='font-weight: bold; font-size: 100px; color: red;'>0 points!</span><br><br></div>,,delaylearn,learning,feedback_image_window,hk5Rs5yNsDNSud4Z6ziYql9O0JV2,hk5Rs5yNsDNSud4Z6ziYql9O0JV2,,,,,,,,,,,,,,,,,,,,,,5cdd2e2a8b39ba00191a227e,16:40:22,27/03/2024
html-keyboard-response,152,343922,0.0-63.0-0.0,,,,,,mood_trial_fixation,hk5Rs5yNsDNSud4Z6ziYql9O0JV2,,,,,,,,,,,,,,,,,,,,,,,5cdd2e2a8b39ba00191a227e,16:40:22,27/03/2024
lmdlab-html-vas-response,153,347795,0.0-63.0-1.0,2868.0,How happy are you right now?,0.2824074074074074,delaylearn,learning,mood_trial,hk5Rs5yNsDNSud4Z6ziYql9O0JV2,hk5Rs5yNsDNSud4Z6ziYql9O0JV2,,,,,,,,,,,,,,,,,,,,"['Very unhappy', 'Very happy']",,5cdd2e2a8b39ba00191a227e,16:40:22,27/03/2024
html-keyboard-response,154,350135,0.0-64.0,,"<div style=""font-size:100px;"">+</div>",,delaylearn,learning,ITI,hk5Rs5yNsDNSud4Z6ziYql9O0JV2,hk5Rs5yNsDNSud4Z6ziYql9O0JV2,,,,,,,,,,,,,,,,,,,2331.0,,,5cdd2e2a8b39ba00191a227e,16:40:22,27/03/2024
html-keyboard-response,155,352702,0.0-65.0-0.0,2564.4000000953674,"<div style=""display: flex; flex-direction: column; align-items: center; margin-top: -40px;""><img src=""images/pattern_1.png"" style=""width: 234px; height: 230px; margin-top: -50px;""><div style=""display: flex; justify-content: space-between; margin-top: 33px;""><img src=""images/choice_trial_3.png"" style=""width: 408px; height: 417px; margin-right: 200px;""><img src=""images/choice_trial_10.png"" style=""width: 408px; height: 417px;""></div></div>",f,delaylearn,learning,trial,hk5Rs5yNsDNSud4Z6ziYql9O0JV2,hk5Rs5yNsDNSud4Z6ziYql9O0JV2,2.0,images/choice_trial_3.png,images/choice_trial_10.png,images/pattern_1.png,f,f,7000.0,3.0,10.0,1.0,0.0,28.0,1.0,1.0,3.0,160.0,,,,,,5cdd2e2a8b39ba00191a227e,16:40:22,27/03/2024
html-keyboard-response,156,353719,0.0-65.0-1.0,,"<div style=""display: flex; flex-direction: column; align-items: center; margin-top: -40px;""><img src=""images/pattern_1.png"" style=""width: 234px; height: 230px; margin-top: -50px;""><div style=""display: flex; justify-content: space-between; margin-top: 33px;""><img src=""images/choice_trial_3.png"" style=""width: 408px; height: 417px; margin-right: 608px;""></div></div>",,delaylearn,learning,display_response,hk5Rs5yNsDNSud4Z6ziYql9O0JV2,hk5Rs5yNsDNSud4Z6ziYql9O0JV2,,,,,,,,,,,,,,,,,chosen stimuli: images/choice_trial_3.png,,,,,5cdd2e2a8b39ba00191a227e,16:40:22,27/03/2024
html-keyboard-response,157,360733,0.0-65.0-2.0,,,,delaylearn,learning,feedback_duration_window,hk5Rs5yNsDNSud4Z6ziYql9O0JV2,hk5Rs5yNsDNSud4Z6ziYql9O0JV2,,,,,,,,,,,,,,,,,,7000.0,,,,5cdd2e2a8b39ba00191a227e,16:40:22,27/03/2024
html-keyboard-response,158,362247,0.0-65.0-3.0,,<div style='margin:auto;width: auto; font-size: 150%'><span style='font-weight: bold; font-size: 100px; color: green;'>+10 points!</span><br><br></div>,,delaylearn,learning,feedback_image_window,hk5Rs5yNsDNSud4Z6ziYql9O0JV2,hk5Rs5yNsDNSud4Z6ziYql9O0JV2,,,,,,,,,,,,,,,,,,,,,,5cdd2e2a8b39ba00191a227e,16:40:22,27/03/2024
html-keyboard-response,159,364283,0.0-66.0,,"<div style=""font-size:100px;"">+</div>",,delaylearn,learning,ITI,hk5Rs5yNsDNSud4Z6ziYql9O0JV2,hk5Rs5yNsDNSud4Z6ziYql9O0JV2,,,,,,,,,,,,,,,,,,,2022.0,,,5cdd2e2a8b39ba00191a227e,16:40:22,27/03/2024
html-keyboard-response,160,366073,0.0-67.0-0.0,1786.7000000476837,"<div style=""display: flex; flex-direction: column; align-items: center; margin-top: -40px;""><img src=""images/pattern_5.png"" style=""width: 234px; height: 230px; margin-top: -50px;""><div style=""display: flex; justify-content: space-between; margin-top: 33px;""><img src=""images/choice_trial_2.png"" style=""width: 408px; height: 417px; margin-right: 200px;""><img src=""images/choice_trial_9.png"" style=""width: 408px; height: 417px;""></div></div>",f,delaylearn,learning,trial,hk5Rs5yNsDNSud4Z6ziYql9O0JV2,hk5Rs5yNsDNSud4Z6ziYql9O0JV2,2.0,images/choice_trial_2.png,images/choice_trial_9.png,images/pattern_5.png,f,f,750.0,2.0,9.0,4.0,0.0,29.0,1.0,1.0,2.0,170.0,,,,,,5cdd2e2a8b39ba00191a227e,16:40:22,27/03/2024
html-keyboard-response,161,367080,0.0-67.0-1.0,,"<div style=""display: flex; flex-direction: column; align-items: center; margin-top: -40px;""><img src=""images/pattern_5.png"" style=""width: 234px; height: 230px; margin-top: -50px;""><div style=""display: flex; justify-content: space-between; margin-top: 33px;""><img src=""images/choice_trial_2.png"" style=""width: 408px; height: 417px; margin-right: 608px;""></div></div>",,delaylearn,learning,display_response,hk5Rs5yNsDNSud4Z6ziYql9O0JV2,hk5Rs5yNsDNSud4Z6ziYql9O0JV2,,,,,,,,,,,,,,,,,chosen stimuli: images/choice_trial_2.png,,,,,5cdd2e2a8b39ba00191a227e,16:40:22,27/03/2024
html-keyboard-response,162,367846,0.0-67.0-2.0,,,,delaylearn,learning,feedback_duration_window,hk5Rs5yNsDNSud4Z6ziYql9O0JV2,hk5Rs5yNsDNSud4Z6ziYql9O0JV2,,,,,,,,,,,,,,,,,,750.0,,,,5cdd2e2a8b39ba00191a227e,16:40:22,27/03/2024
html-keyboard-response,163,369348,0.0-67.0-3.0,,<div style='margin:auto;width: auto; font-size: 150%'><span style='font-weight: bold; font-size: 100px; color: green;'>+10 points!</span><br><br></div>,,delaylearn,learning,feedback_image_window,hk5Rs5yNsDNSud4Z6ziYql9O0JV2,hk5Rs5yNsDNSud4Z6ziYql9O0JV2,,,,,,,,,,,,,,,,,,,,,,5cdd2e2a8b39ba00191a227e,16:40:22,27/03/2024
html-keyboard-response,164,371534,0.0-68.0,,"<div style=""font-size:100px;"">+</div>",,delaylearn,learning,ITI,hk5Rs5yNsDNSud4Z6ziYql9O0JV2,hk5Rs5yNsDNSud4Z6ziYql9O0JV2,,,,,,,,,,,,,,,,,,,2174.0,,,5cdd2e2a8b39ba00191a227e,16:40:22,27/03/2024
html-keyboard-response,165,374211,0.0-69.0-0.0,2674.5,"<div style=""display: flex; flex-direction: column; align-items: center; margin-top: -40px;""><img src=""images/pattern_6.png"" style=""width: 234px; height: 230px; margin-top: -50px;""><div style=""display: flex; justify-content: space-between; margin-top: 33px;""><img src=""images/choice_trial_5.png"" style=""width: 408px; height: 417px; margin-right: 200px;""><img src=""images/choice_trial_11.png"" style=""width: 408px; height: 417px;""></div></div>",j,delaylearn,learning,trial,hk5Rs5yNsDNSud4Z6ziYql9O0JV2,hk5Rs5yNsDNSud4Z6ziYql9O0JV2,2.0,images/choice_trial_5.png,images/choice_trial_11.png,images/pattern_6.png,j,j,750.0,5.0,11.0,5.0,1.0,30.0,1.0,1.0,11.0,180.0,,,,,,5cdd2e2a8b39ba00191a227e,16:40:22,27/03/2024
html-keyboard-response,166,375220,0.0-69.0-1.0,,"<div style=""display: flex; flex-direction: column; align-items: center; margin-top: -40px;""><img src=""images/pattern_6.png"" style=""width: 234px; height: 230px; margin-top: -50px;""><div style=""display: flex; justify-content: space-between; margin-top: 33px;""><img src=""images/choice_trial_11.png"" style=""width: 408px; height: 417px; margin-left:608px;""></div></div>",,delaylearn,learning,display_response,hk5Rs5yNsDNSud4Z6ziYql9O0JV2,hk5Rs5yNsDNSud4Z6ziYql9O0JV2,,,,,,,,,,,,,,,,,chosen stimuli: images/choice_trial_11.png,,,,,5cdd2e2a8b39ba00191a227e,16:40:22,27/03/2024
html-keyboard-response,167,375986,0.0-69.0-2.0,,,,delaylearn,learning,feedback_duration_window,hk5Rs5yNsDNSud4Z6ziYql9O0JV2,hk5Rs5yNsDNSud4Z6ziYql9O0JV2,,,,,,,,,,,,,,,,,,750.0,,,,5cdd2e2a8b39ba00191a227e,16:40:22,27/03/2024
html-keyboard-response,168,377499,0.0-69.0-3.0,,<div style='margin:auto;width: auto; font-size: 150%'><span style='font-weight: bold; font-size: 100px; color: green;'>+10 points!</span><br><br></div>,,delaylearn,learning,feedback_image_window,hk5Rs5yNsDNSud4Z6ziYql9O0JV2,hk5Rs5yNsDNSud4Z6ziYql9O0JV2,,,,,,,,,,,,,,,,,,,,,,5cdd2e2a8b39ba00191a227e,16:40:22,27/03/2024
html-keyboard-response,169,378001,0.0-70.0-0.0,,,,,,mood_trial_fixation,hk5Rs5yNsDNSud4Z6ziYql9O0JV2,,,,,,,,,,,,,,,,,,,,,,,5cdd2e2a8b39ba00191a227e,16:40:22,27/03/2024
lmdlab-html-vas-response,170,382812,0.0-70.0-1.0,3794.0,How happy are you right now?,0.5046296296296297,delaylearn,learning,mood_trial,hk5Rs5yNsDNSud4Z6ziYql9O0JV2,hk5Rs5yNsDNSud4Z6ziYql9O0JV2,,,,,,,,,,,,,,,,,,,,"['Very unhappy', 'Very happy']",,5cdd2e2a8b39ba00191a227e,16:40:22,27/03/2024
html-keyboard-response,171,385058,0.0-71.0,,"<div style=""font-size:100px;"">+</div>",,delaylearn,learning,ITI,hk5Rs5yNsDNSud4Z6ziYql9O0JV2,hk5Rs5yNsDNSud4Z6ziYql9O0JV2,,,,,,,,,,,,,,,,,,,2238.0,,,5cdd2e2a8b39ba00191a227e,16:40:22,27/03/2024
html-keyboard-response,172,386922,0.0-72.0-0.0,1863.1000000238419,"<div style=""display: flex; flex-direction: column; align-items: center; margin-top: -40px;""><img src=""images/pattern_4.png"" style=""width: 234px; height: 230px; margin-top: -50px;""><div style=""display: flex; justify-content: space-between; margin-top: 33px;""><img src=""images/choice_trial_16.png"" style=""width: 408px; height: 417px; margin-right: 200px;""><img src=""images/choice_trial_4.png"" style=""width: 408px; height: 417px;""></div></div>",f,delaylearn,learning,trial,hk5Rs5yNsDNSud4Z6ziYql9O0JV2,hk5Rs5yNsDNSud4Z6ziYql9O0JV2,2.0,images/choice_trial_16.png,images/choice_trial_4.png,images/pattern_4.png,j,j,7000.0,16.0,4.0,3.0,1.0,31.0,0.0,0.0,16.0,180.0,,,,,,5cdd2e2a8b39ba00191a227e,16:40:22,27/03/2024
html-keyboard-response,173,387938,0.0-72.0-1.0,,"<div style=""display: flex; flex-direction: column; align-items: center; margin-top: -40px;""><img src=""images/pattern_4.png"" style=""width: 234px; height: 230px; margin-top: -50px;""><div style=""display: flex; justify-content: space-between; margin-top: 33px;""><img src=""images/choice_trial_16.png"" style=""width: 408px; height: 417px; margin-right: 608px;""></div></div>",,delaylearn,learning,display_response,hk5Rs5yNsDNSud4Z6ziYql9O0JV2,hk5Rs5yNsDNSud4Z6ziYql9O0JV2,,,,,,,,,,,,,,,,,chosen stimuli: images/choice_trial_16.png,,,,,5cdd2e2a8b39ba00191a227e,16:40:22,27/03/2024
html-keyboard-response,174,394944,0.0-72.0-2.0,,,,delaylearn,learning,feedback_duration_window,hk5Rs5yNsDNSud4Z6ziYql9O0JV2,hk5Rs5yNsDNSud4Z6ziYql9O0JV2,,,,,,,,,,,,,,,,,,7000.0,,,,5cdd2e2a8b39ba00191a227e,16:40:22,27/03/2024
html-keyboard-response,175,396456,0.0-72.0-3.0,,<div style='margin:auto;width: auto; font-size: 150%'><span style='font-weight: bold; font-size: 100px; color: red;'>0 points!</span><br><br></div>,,delaylearn,learning,feedback_image_window,hk5Rs5yNsDNSud4Z6ziYql9O0JV2,hk5Rs5yNsDNSud4Z6ziYql9O0JV2,,,,,,,,,,,,,,,,,,,,,,5cdd2e2a8b39ba00191a227e,16:40:22,27/03/2024
html-keyboard-response,176,398755,0.0-73.0,,"<div style=""font-size:100px;"">+</div>",,delaylearn,learning,ITI,hk5Rs5yNsDNSud4Z6ziYql9O0JV2,hk5Rs5yNsDNSud4Z6ziYql9O0JV2,,,,,,,,,,,,,,,,,,,2292.0,,,5cdd2e2a8b39ba00191a227e,16:40:22,27/03/2024
html-keyboard-response,177,400347,0.0-74.0-0.0,1587.1999999284744,"<div style=""display: flex; flex-direction: column; align-items: center; margin-top: -40px;""><img src=""images/pattern_3.png"" style=""width: 234px; height: 230px; margin-top: -50px;""><div style=""display: flex; justify-content: space-between; margin-top: 33px;""><img src=""images/choice_trial_14.png"" style=""width: 408px; height: 417px; margin-right: 200px;""><img src=""images/choice_trial_12.png"" style=""width: 408px; height: 417px;""></div></div>",j,delaylearn,learning,trial,hk5Rs5yNsDNSud4Z6ziYql9O0JV2,hk5Rs5yNsDNSud4Z6ziYql9O0JV2,2.0,images/choice_trial_14.png,images/choice_trial_12.png,images/pattern_3.png,j,j,7000.0,14.0,12.0,2.0,1.0,32.0,1.0,1.0,12.0,190.0,,,,,,5cdd2e2a8b39ba00191a227e,16:40:22,27/03/2024
html-keyboard-response,178,401352,0.0-74.0-1.0,,"<div style=""display: flex; flex-direction: column; align-items: center; margin-top: -40px;""><img src=""images/pattern_3.png"" style=""width: 234px; height: 230px; margin-top: -50px;""><div style=""display: flex; justify-content: space-between; margin-top: 33px;""><img src=""images/choice_trial_12.png"" style=""width: 408px; height: 417px; margin-left:608px;""></div></div>",,delaylearn,learning,display_response,hk5Rs5yNsDNSud4Z6ziYql9O0JV2,hk5Rs5yNsDNSud4Z6ziYql9O0JV2,,,,,,,,,,,,,,,,,chosen stimuli: images/choice_trial_12.png,,,,,5cdd2e2a8b39ba00191a227e,16:40:22,27/03/2024
html-keyboard-response,179,408358,0.0-74.0-2.0,,,,delaylearn,learning,feedback_duration_window,hk5Rs5yNsDNSud4Z6ziYql9O0JV2,hk5Rs5yNsDNSud4Z6ziYql9O0JV2,,,,,,,,,,,,,,,,,,7000.0,,,,5cdd2e2a8b39ba00191a227e,16:40:22,27/03/2024
html-keyboard-response,180,409874,0.0-74.0-3.0,,<div style='margin:auto;width: auto; font-size: 150%'><span style='font-weight: bold; font-size: 100px; color: green;'>+10 points!</span><br><br></div>,,delaylearn,learning,feedback_image_window,hk5Rs5yNsDNSud4Z6ziYql9O0JV2,hk5Rs5yNsDNSud4Z6ziYql9O0JV2,,,,,,,,,,,,,,,,,,,,,,5cdd2e2a8b39ba00191a227e,16:40:22,27/03/2024
html-keyboard-response,181,411552,0.0-75.0,,"<div style=""font-size:100px;"">+</div>",,delaylearn,learning,ITI,hk5Rs5yNsDNSud4Z6ziYql9O0JV2,hk5Rs5yNsDNSud4Z6ziYql9O0JV2,,,,,,,,,,,,,,,,,,,1668.0,,,5cdd2e2a8b39ba00191a227e,16:40:22,27/03/2024
html-keyboard-response,182,413230,0.0-76.0-0.0,1674.2999999523163,"<div style=""display: flex; flex-direction: column; align-items: center; margin-top: -40px;""><img src=""images/pattern_5.png"" style=""width: 234px; height: 230px; margin-top: -50px;""><div style=""display: flex; justify-content: space-between; margin-top: 33px;""><img src=""images/choice_trial_2.png"" style=""width: 408px; height: 417px; margin-right: 200px;""><img src=""images/choice_trial_9.png"" style=""width: 408px; height: 417px;""></div></div>",f,delaylearn,learning,trial,hk5Rs5yNsDNSud4Z6ziYql9O0JV2,hk5Rs5yNsDNSud4Z6ziYql9O0JV2,2.0,images/choice_trial_2.png,images/choice_trial_9.png,images/pattern_5.png,j,f,750.0,2.0,9.0,4.0,0.0,33.0,1.0,0.0,2.0,190.0,,,,,,5cdd2e2a8b39ba00191a227e,16:40:22,27/03/2024
html-keyboard-response,183,414241,0.0-76.0-1.0,,"<div style=""display: flex; flex-direction: column; align-items: center; margin-top: -40px;""><img src=""images/pattern_5.png"" style=""width: 234px; height: 230px; margin-top: -50px;""><div style=""display: flex; justify-content: space-between; margin-top: 33px;""><img src=""images/choice_trial_2.png"" style=""width: 408px; height: 417px; margin-right: 608px;""></div></div>",,delaylearn,learning,display_response,hk5Rs5yNsDNSud4Z6ziYql9O0JV2,hk5Rs5yNsDNSud4Z6ziYql9O0JV2,,,,,,,,,,,,,,,,,chosen stimuli: images/choice_trial_2.png,,,,,5cdd2e2a8b39ba00191a227e,16:40:22,27/03/2024
html-keyboard-response,184,414996,0.0-76.0-2.0,,,,delaylearn,learning,feedback_duration_window,hk5Rs5yNsDNSud4Z6ziYql9O0JV2,hk5Rs5yNsDNSud4Z6ziYql9O0JV2,,,,,,,,,,,,,,,,,,750.0,,,,5cdd2e2a8b39ba00191a227e,16:40:22,27/03/2024
html-keyboard-response,185,416512,0.0-76.0-3.0,,<div style='margin:auto;width: auto; font-size: 150%'><span style='font-weight: bold; font-size: 100px; color: red;'>0 points!</span><br><br></div>,,delaylearn,learning,feedback_image_window,hk5Rs5yNsDNSud4Z6ziYql9O0JV2,hk5Rs5yNsDNSud4Z6ziYql9O0JV2,,,,,,,,,,,,,,,,,,,,,,5cdd2e2a8b39ba00191a227e,16:40:22,27/03/2024
html-keyboard-response,186,418638,0.0-77.0,,"<div style=""font-size:100px;"">+</div>",,delaylearn,learning,ITI,hk5Rs5yNsDNSud4Z6ziYql9O0JV2,hk5Rs5yNsDNSud4Z6ziYql9O0JV2,,,,,,,,,,,,,,,,,,,2112.0,,,5cdd2e2a8b39ba00191a227e,16:40:22,27/03/2024
html-keyboard-response,187,421304,0.0-78.0-0.0,2662.0,"<div style=""display: flex; flex-direction: column; align-items: center; margin-top: -40px;""><img src=""images/pattern_1.png"" style=""width: 234px; height: 230px; margin-top: -50px;""><div style=""display: flex; justify-content: space-between; margin-top: 33px;""><img src=""images/choice_trial_3.png"" style=""width: 408px; height: 417px; margin-right: 200px;""><img src=""images/choice_trial_10.png"" style=""width: 408px; height: 417px;""></div></div>",f,delaylearn,learning,trial,hk5Rs5yNsDNSud4Z6ziYql9O0JV2,hk5Rs5yNsDNSud4Z6ziYql9O0JV2,2.0,images/choice_trial_3.png,images/choice_trial_10.png,images/pattern_1.png,f,f,7000.0,3.0,10.0,1.0,0.0,34.0,1.0,1.0,3.0,200.0,,,,,,5cdd2e2a8b39ba00191a227e,16:40:22,27/03/2024
html-keyboard-response,188,422310,0.0-78.0-1.0,,"<div style=""display: flex; flex-direction: column; align-items: center; margin-top: -40px;""><img src=""images/pattern_1.png"" style=""width: 234px; height: 230px; margin-top: -50px;""><div style=""display: flex; justify-content: space-between; margin-top: 33px;""><img src=""images/choice_trial_3.png"" style=""width: 408px; height: 417px; margin-right: 608px;""></div></div>",,delaylearn,learning,display_response,hk5Rs5yNsDNSud4Z6ziYql9O0JV2,hk5Rs5yNsDNSud4Z6ziYql9O0JV2,,,,,,,,,,,,,,,,,chosen stimuli: images/choice_trial_3.png,,,,,5cdd2e2a8b39ba00191a227e,16:40:22,27/03/2024
html-keyboard-response,189,429319,0.0-78.0-2.0,,,,delaylearn,learning,feedback_duration_window,hk5Rs5yNsDNSud4Z6ziYql9O0JV2,hk5Rs5yNsDNSud4Z6ziYql9O0JV2,,,,,,,,,,,,,,,,,,7000.0,,,,5cdd2e2a8b39ba00191a227e,16:40:22,27/03/2024
html-keyboard-response,190,430837,0.0-78.0-3.0,,<div style='margin:auto;width: auto; font-size: 150%'><span style='font-weight: bold; font-size: 100px; color: green;'>+10 points!</span><br><br></div>,,delaylearn,learning,feedback_image_window,hk5Rs5yNsDNSud4Z6ziYql9O0JV2,hk5Rs5yNsDNSud4Z6ziYql9O0JV2,,,,,,,,,,,,,,,,,,,,,,5cdd2e2a8b39ba00191a227e,16:40:22,27/03/2024
html-keyboard-response,191,431339,0.0-79.0-0.0,,,,,,mood_trial_fixation,hk5Rs5yNsDNSud4Z6ziYql9O0JV2,,,,,,,,,,,,,,,,,,,,,,,5cdd2e2a8b39ba00191a227e,16:40:22,27/03/2024
lmdlab-html-vas-response,192,435483,0.0-79.0-1.0,3139.0,How happy are you right now?,0.5046296296296297,delaylearn,learning,mood_trial,hk5Rs5yNsDNSud4Z6ziYql9O0JV2,hk5Rs5yNsDNSud4Z6ziYql9O0JV2,,,,,,,,,,,,,,,,,,,,"['Very unhappy', 'Very happy']",,5cdd2e2a8b39ba00191a227e,16:40:22,27/03/2024
html-keyboard-response,193,437280,0.0-80.0,,"<div style=""font-size:100px;"">+</div>",,delaylearn,learning,ITI,hk5Rs5yNsDNSud4Z6ziYql9O0JV2,hk5Rs5yNsDNSud4Z6ziYql9O0JV2,,,,,,,,,,,,,,,,,,,1796.0,,,5cdd2e2a8b39ba00191a227e,16:40:22,27/03/2024
html-keyboard-response,194,440296,0.0-81.0-0.0,,"<div style=""display: flex; flex-direction: column; align-items: center; margin-top: -40px;""><img src=""images/pattern_6.png"" style=""width: 234px; height: 230px; margin-top: -50px;""><div style=""display: flex; justify-content: space-between; margin-top: 33px;""><img src=""images/choice_trial_11.png"" style=""width: 408px; height: 417px; margin-right: 200px;""><img src=""images/choice_trial_5.png"" style=""width: 408px; height: 417px;""></div></div>",,delaylearn,learning,trial,hk5Rs5yNsDNSud4Z6ziYql9O0JV2,hk5Rs5yNsDNSud4Z6ziYql9O0JV2,2.0,images/choice_trial_11.png,images/choice_trial_5.png,images/pattern_6.png,j,f,750.0,11.0,5.0,5.0,0.0,35.0,0.0,0.0,0.0,200.0,,,,,,5cdd2e2a8b39ba00191a227e,16:40:22,27/03/2024
html-keyboard-response,195,441311,0.0-81.0-1.0,,<div style='font-weight: bold; font-size: 75px; color: red;'>Missed Trial <br><br><br><br> Please respond faster</div>,,delaylearn,learning,display_response,hk5Rs5yNsDNSud4Z6ziYql9O0JV2,hk5Rs5yNsDNSud4Z6ziYql9O0JV2,,,,,,,,,,,,,,,,,Missed trial,,,,,5cdd2e2a8b39ba00191a227e,16:40:22,27/03/2024
html-keyboard-response,196,441317,0.0-81.0-2.0,,,,delaylearn,learning,feedback_duration_window,hk5Rs5yNsDNSud4Z6ziYql9O0JV2,hk5Rs5yNsDNSud4Z6ziYql9O0JV2,,,,,,,,,,,,,,,,,,0.0,,,,5cdd2e2a8b39ba00191a227e,16:40:22,27/03/2024
html-keyboard-response,197,441323,0.0-81.0-3.0,,,,delaylearn,learning,feedback_image_window,hk5Rs5yNsDNSud4Z6ziYql9O0JV2,hk5Rs5yNsDNSud4Z6ziYql9O0JV2,,,,,,,,,,,,,,,,,,,,,,5cdd2e2a8b39ba00191a227e,16:40:22,27/03/2024
html-keyboard-response,198,443541,0.0-82.0,,"<div style=""font-size:100px;"">+</div>",,delaylearn,learning,ITI,hk5Rs5yNsDNSud4Z6ziYql9O0JV2,hk5Rs5yNsDNSud4Z6ziYql9O0JV2,,,,,,,,,,,,,,,,,,,2217.0,,,5cdd2e2a8b39ba00191a227e,16:40:22,27/03/2024
html-keyboard-response,199,444390,0.0-83.0-0.0,846.7000000476837,"<div style=""display: flex; flex-direction: column; align-items: center; margin-top: -40px;""><img src=""images/pattern_3.png"" style=""width: 234px; height: 230px; margin-top: -50px;""><div style=""display: flex; justify-content: space-between; margin-top: 33px;""><img src=""images/choice_trial_14.png"" style=""width: 408px; height: 417px; margin-right: 200px;""><img src=""images/choice_trial_12.png"" style=""width: 408px; height: 417px;""></div></div>",j,delaylearn,learning,trial,hk5Rs5yNsDNSud4Z6ziYql9O0JV2,hk5Rs5yNsDNSud4Z6ziYql9O0JV2,2.0,images/choice_trial_14.png,images/choice_trial_12.png,images/pattern_3.png,j,j,7000.0,14.0,12.0,2.0,1.0,36.0,1.0,1.0,12.0,210.0,,,,,,5cdd2e2a8b39ba00191a227e,16:40:22,27/03/2024
html-keyboard-response,200,445404,0.0-83.0-1.0,,"<div style=""display: flex; flex-direction: column; align-items: center; margin-top: -40px;""><img src=""images/pattern_3.png"" style=""width: 234px; height: 230px; margin-top: -50px;""><div style=""display: flex; justify-content: space-between; margin-top: 33px;""><img src=""images/choice_trial_12.png"" style=""width: 408px; height: 417px; margin-left:608px;""></div></div>",,delaylearn,learning,display_response,hk5Rs5yNsDNSud4Z6ziYql9O0JV2,hk5Rs5yNsDNSud4Z6ziYql9O0JV2,,,,,,,,,,,,,,,,,chosen stimuli: images/choice_trial_12.png,,,,,5cdd2e2a8b39ba00191a227e,16:40:22,27/03/2024
html-keyboard-response,201,452406,0.0-83.0-2.0,,,,delaylearn,learning,feedback_duration_window,hk5Rs5yNsDNSud4Z6ziYql9O0JV2,hk5Rs5yNsDNSud4Z6ziYql9O0JV2,,,,,,,,,,,,,,,,,,7000.0,,,,5cdd2e2a8b39ba00191a227e,16:40:22,27/03/2024
html-keyboard-response,202,453920,0.0-83.0-3.0,,<div style='margin:auto;width: auto; font-size: 150%'><span style='font-weight: bold; font-size: 100px; color: green;'>+10 points!</span><br><br></div>,,delaylearn,learning,feedback_image_window,hk5Rs5yNsDNSud4Z6ziYql9O0JV2,hk5Rs5yNsDNSud4Z6ziYql9O0JV2,,,,,,,,,,,,,,,,,,,,,,5cdd2e2a8b39ba00191a227e,16:40:22,27/03/2024
html-keyboard-response,203,455858,0.0-84.0,,"<div style=""font-size:100px;"">+</div>",,delaylearn,learning,ITI,hk5Rs5yNsDNSud4Z6ziYql9O0JV2,hk5Rs5yNsDNSud4Z6ziYql9O0JV2,,,,,,,,,,,,,,,,,,,1928.0,,,5cdd2e2a8b39ba00191a227e,16:40:22,27/03/2024
html-keyboard-response,204,457359,0.0-85.0-0.0,1499.2000000476837,"<div style=""display: flex; flex-direction: column; align-items: center; margin-top: -40px;""><img src=""images/pattern_4.png"" style=""width: 234px; height: 230px; margin-top: -50px;""><div style=""display: flex; justify-content: space-between; margin-top: 33px;""><img src=""images/choice_trial_16.png"" style=""width: 408px; height: 417px; margin-right: 200px;""><img src=""images/choice_trial_4.png"" style=""width: 408px; height: 417px;""></div></div>",j,delaylearn,learning,trial,hk5Rs5yNsDNSud4Z6ziYql9O0JV2,hk5Rs5yNsDNSud4Z6ziYql9O0JV2,2.0,images/choice_trial_16.png,images/choice_trial_4.png,images/pattern_4.png,f,j,7000.0,16.0,4.0,3.0,1.0,37.0,1.0,0.0,4.0,210.0,,,,,,5cdd2e2a8b39ba00191a227e,16:40:22,27/03/2024
html-keyboard-response,205,458363,0.0-85.0-1.0,,"<div style=""display: flex; flex-direction: column; align-items: center; margin-top: -40px;""><img src=""images/pattern_4.png"" style=""width: 234px; height: 230px; margin-top: -50px;""><div style=""display: flex; justify-content: space-between; margin-top: 33px;""><img src=""images/choice_trial_4.png"" style=""width: 408px; height: 417px; margin-left:608px;""></div></div>",,delaylearn,learning,display_response,hk5Rs5yNsDNSud4Z6ziYql9O0JV2,hk5Rs5yNsDNSud4Z6ziYql9O0JV2,,,,,,,,,,,,,,,,,chosen stimuli: images/choice_trial_4.png,,,,,5cdd2e2a8b39ba00191a227e,16:40:22,27/03/2024
html-keyboard-response,206,465376,0.0-85.0-2.0,,,,delaylearn,learning,feedback_duration_window,hk5Rs5yNsDNSud4Z6ziYql9O0JV2,hk5Rs5yNsDNSud4Z6ziYql9O0JV2,,,,,,,,,,,,,,,,,,7000.0,,,,5cdd2e2a8b39ba00191a227e,16:40:22,27/03/2024
html-keyboard-response,207,466880,0.0-85.0-3.0,,<div style='margin:auto;width: auto; font-size: 150%'><span style='font-weight: bold; font-size: 100px; color: red;'>0 points!</span><br><br></div>,,delaylearn,learning,feedback_image_window,hk5Rs5yNsDNSud4Z6ziYql9O0JV2,hk5Rs5yNsDNSud4Z6ziYql9O0JV2,,,,,,,,,,,,,,,,,,,,,,5cdd2e2a8b39ba00191a227e,16:40:22,27/03/2024
html-keyboard-response,208,468467,0.0-86.0,,"<div style=""font-size:100px;"">+</div>",,delaylearn,learning,ITI,hk5Rs5yNsDNSud4Z6ziYql9O0JV2,hk5Rs5yNsDNSud4Z6ziYql9O0JV2,,,,,,,,,,,,,,,,,,,1575.0,,,5cdd2e2a8b39ba00191a227e,16:40:22,27/03/2024
html-keyboard-response,209,470006,0.0-87.0-0.0,1536.2000000476837,"<div style=""display: flex; flex-direction: column; align-items: center; margin-top: -40px;""><img src=""images/pattern_7.png"" style=""width: 234px; height: 230px; margin-top: -50px;""><div style=""display: flex; justify-content: space-between; margin-top: 33px;""><img src=""images/choice_trial_8.png"" style=""width: 408px; height: 417px; margin-right: 200px;""><img src=""images/choice_trial_15.png"" style=""width: 408px; height: 417px;""></div></div>",f,delaylearn,learning,trial,hk5Rs5yNsDNSud4Z6ziYql9O0JV2,hk5Rs5yNsDNSud4Z6ziYql9O0JV2,2.0,images/choice_trial_8.png,images/choice_trial_15.png,images/pattern_7.png,f,f,750.0,8.0,15.0,6.0,0.0,38.0,1.0,1.0,8.0,220.0,,,,,,5cdd2e2a8b39ba00191a227e,16:40:22,27/03/2024
html-keyboard-response,210,471012,0.0-87.0-1.0,,"<div style=""display: flex; flex-direction: column; align-items: center; margin-top: -40px;""><img src=""images/pattern_7.png"" style=""width: 234px; height: 230px; margin-top: -50px;""><div style=""display: flex; justify-content: space-between; margin-top: 33px;""><img src=""images/choice_trial_8.png"" style=""width: 408px; height: 417px; margin-right: 608px;""></div></div>",,delaylearn,learning,display_response,hk5Rs5yNsDNSud4Z6ziYql9O0JV2,hk5Rs5yNsDNSud4Z6ziYql9O0JV2,,,,,,,,,,,,,,,,,chosen stimuli: images/choice_trial_8.png,,,,,5cdd2e2a8b39ba00191a227e,16:40:22,27/03/2024
html-keyboard-response,211,471779,0.0-87.0-2.0,,,,delaylearn,learning,feedback_duration_window,hk5Rs5yNsDNSud4Z6ziYql9O0JV2,hk5Rs5yNsDNSud4Z6ziYql9O0JV2,,,,,,,,,,,,,,,,,,750.0,,,,5cdd2e2a8b39ba00191a227e,16:40:22,27/03/2024
html-keyboard-response,212,473295,0.0-87.0-3.0,,<div style='margin:auto;width: auto; font-size: 150%'><span style='font-weight: bold; font-size: 100px; color: green;'>+10 points!</span><br><br></div>,,delaylearn,learning,feedback_image_window,hk5Rs5yNsDNSud4Z6ziYql9O0JV2,hk5Rs5yNsDNSud4Z6ziYql9O0JV2,,,,,,,,,,,,,,,,,,,,,,5cdd2e2a8b39ba00191a227e,16:40:22,27/03/2024
html-keyboard-response,213,475328,0.0-88.0,,"<div style=""font-size:100px;"">+</div>",,delaylearn,learning,ITI,hk5Rs5yNsDNSud4Z6ziYql9O0JV2,hk5Rs5yNsDNSud4Z6ziYql9O0JV2,,,,,,,,,,,,,,,,,,,2029.0,,,5cdd2e2a8b39ba00191a227e,16:40:22,27/03/2024
html-keyboard-response,214,476569,0.0-89.0-0.0,1236.5999999046326,"<div style=""display: flex; flex-direction: column; align-items: center; margin-top: -40px;""><img src=""images/pattern_1.png"" style=""width: 234px; height: 230px; margin-top: -50px;""><div style=""display: flex; justify-content: space-between; margin-top: 33px;""><img src=""images/choice_trial_3.png"" style=""width: 408px; height: 417px; margin-right: 200px;""><img src=""images/choice_trial_10.png"" style=""width: 408px; height: 417px;""></div></div>",f,delaylearn,learning,trial,hk5Rs5yNsDNSud4Z6ziYql9O0JV2,hk5Rs5yNsDNSud4Z6ziYql9O0JV2,2.0,images/choice_trial_3.png,images/choice_trial_10.png,images/pattern_1.png,f,f,7000.0,3.0,10.0,1.0,0.0,39.0,1.0,1.0,3.0,230.0,,,,,,5cdd2e2a8b39ba00191a227e,16:40:22,27/03/2024
html-keyboard-response,215,477581,0.0-89.0-1.0,,"<div style=""display: flex; flex-direction: column; align-items: center; margin-top: -40px;""><img src=""images/pattern_1.png"" style=""width: 234px; height: 230px; margin-top: -50px;""><div style=""display: flex; justify-content: space-between; margin-top: 33px;""><img src=""images/choice_trial_3.png"" style=""width: 408px; height: 417px; margin-right: 608px;""></div></div>",,delaylearn,learning,display_response,hk5Rs5yNsDNSud4Z6ziYql9O0JV2,hk5Rs5yNsDNSud4Z6ziYql9O0JV2,,,,,,,,,,,,,,,,,chosen stimuli: images/choice_trial_3.png,,,,,5cdd2e2a8b39ba00191a227e,16:40:22,27/03/2024
html-keyboard-response,216,484587,0.0-89.0-2.0,,,,delaylearn,learning,feedback_duration_window,hk5Rs5yNsDNSud4Z6ziYql9O0JV2,hk5Rs5yNsDNSud4Z6ziYql9O0JV2,,,,,,,,,,,,,,,,,,7000.0,,,,5cdd2e2a8b39ba00191a227e,16:40:22,27/03/2024
html-keyboard-response,217,486101,0.0-89.0-3.0,,<div style='margin:auto;width: auto; font-size: 150%'><span style='font-weight: bold; font-size: 100px; color: green;'>+10 points!</span><br><br></div>,,delaylearn,learning,feedback_image_window,hk5Rs5yNsDNSud4Z6ziYql9O0JV2,hk5Rs5yNsDNSud4Z6ziYql9O0JV2,,,,,,,,,,,,,,,,,,,,,,5cdd2e2a8b39ba00191a227e,16:40:22,27/03/2024
html-keyboard-response,218,486602,0.0-90.0-0.0,,,,,,mood_trial_fixation,hk5Rs5yNsDNSud4Z6ziYql9O0JV2,,,,,,,,,,,,,,,,,,,,,,,5cdd2e2a8b39ba00191a227e,16:40:22,27/03/2024
lmdlab-html-vas-response,219,490915,0.0-90.0-1.0,3294.0,How happy are you right now?,0.3819444444444444,delaylearn,learning,mood_trial,hk5Rs5yNsDNSud4Z6ziYql9O0JV2,hk5Rs5yNsDNSud4Z6ziYql9O0JV2,,,,,,,,,,,,,,,,,,,,"['Very unhappy', 'Very happy']",,5cdd2e2a8b39ba00191a227e,16:40:22,27/03/2024
html-keyboard-response,220,492862,0.0-91.0,,"<div style=""font-size:100px;"">+</div>",,delaylearn,learning,ITI,hk5Rs5yNsDNSud4Z6ziYql9O0JV2,hk5Rs5yNsDNSud4Z6ziYql9O0JV2,,,,,,,,,,,,,,,,,,,1945.0,,,5cdd2e2a8b39ba00191a227e,16:40:22,27/03/2024
html-keyboard-response,221,494488,0.0-92.0-0.0,1624.1000000238419,"<div style=""display: flex; flex-direction: column; align-items: center; margin-top: -40px;""><img src=""images/pattern_3.png"" style=""width: 234px; height: 230px; margin-top: -50px;""><div style=""display: flex; justify-content: space-between; margin-top: 33px;""><img src=""images/choice_trial_12.png"" style=""width: 408px; height: 417px; margin-right: 200px;""><img src=""images/choice_trial_14.png"" style=""width: 408px; height: 417px;""></div></div>",f,delaylearn,learning,trial,hk5Rs5yNsDNSud4Z6ziYql9O0JV2,hk5Rs5yNsDNSud4Z6ziYql9O0JV2,2.0,images/choice_trial_12.png,images/choice_trial_14.png,images/pattern_3.png,j,f,7000.0,12.0,14.0,2.0,0.0,40.0,1.0,0.0,12.0,230.0,,,,,,5cdd2e2a8b39ba00191a227e,16:40:22,27/03/2024
html-keyboard-response,222,495497,0.0-92.0-1.0,,"<div style=""display: flex; flex-direction: column; align-items: center; margin-top: -40px;""><img src=""images/pattern_3.png"" style=""width: 234px; height: 230px; margin-top: -50px;""><div style=""display: flex; justify-content: space-between; margin-top: 33px;""><img src=""images/choice_trial_12.png"" style=""width: 408px; height: 417px; margin-right: 608px;""></div></div>",,delaylearn,learning,display_response,hk5Rs5yNsDNSud4Z6ziYql9O0JV2,hk5Rs5yNsDNSud4Z6ziYql9O0JV2,,,,,,,,,,,,,,,,,chosen stimuli: images/choice_trial_12.png,,,,,5cdd2e2a8b39ba00191a227e,16:40:22,27/03/2024
html-keyboard-response,223,502504,0.0-92.0-2.0,,,,delaylearn,learning,feedback_duration_window,hk5Rs5yNsDNSud4Z6ziYql9O0JV2,hk5Rs5yNsDNSud4Z6ziYql9O0JV2,,,,,,,,,,,,,,,,,,7000.0,,,,5cdd2e2a8b39ba00191a227e,16:40:22,27/03/2024
html-keyboard-response,224,504016,0.0-92.0-3.0,,<div style='margin:auto;width: auto; font-size: 150%'><span style='font-weight: bold; font-size: 100px; color: red;'>0 points!</span><br><br></div>,,delaylearn,learning,feedback_image_window,hk5Rs5yNsDNSud4Z6ziYql9O0JV2,hk5Rs5yNsDNSud4Z6ziYql9O0JV2,,,,,,,,,,,,,,,,,,,,,,5cdd2e2a8b39ba00191a227e,16:40:22,27/03/2024
html-keyboard-response,225,505582,0.0-93.0,,"<div style=""font-size:100px;"">+</div>",,delaylearn,learning,ITI,hk5Rs5yNsDNSud4Z6ziYql9O0JV2,hk5Rs5yNsDNSud4Z6ziYql9O0JV2,,,,,,,,,,,,,,,,,,,1558.0,,,5cdd2e2a8b39ba00191a227e,16:40:22,27/03/2024
html-keyboard-response,226,507353,0.0-94.0-0.0,1769.5,"<div style=""display: flex; flex-direction: column; align-items: center; margin-top: -40px;""><img src=""images/pattern_7.png"" style=""width: 234px; height: 230px; margin-top: -50px;""><div style=""display: flex; justify-content: space-between; margin-top: 33px;""><img src=""images/choice_trial_15.png"" style=""width: 408px; height: 417px; margin-right: 200px;""><img src=""images/choice_trial_8.png"" style=""width: 408px; height: 417px;""></div></div>",j,delaylearn,learning,trial,hk5Rs5yNsDNSud4Z6ziYql9O0JV2,hk5Rs5yNsDNSud4Z6ziYql9O0JV2,2.0,images/choice_trial_15.png,images/choice_trial_8.png,images/pattern_7.png,j,j,750.0,15.0,8.0,6.0,1.0,41.0,1.0,1.0,8.0,240.0,,,,,,5cdd2e2a8b39ba00191a227e,16:40:22,27/03/2024
html-keyboard-response,227,508359,0.0-94.0-1.0,,"<div style=""display: flex; flex-direction: column; align-items: center; margin-top: -40px;""><img src=""images/pattern_7.png"" style=""width: 234px; height: 230px; margin-top: -50px;""><div style=""display: flex; justify-content: space-between; margin-top: 33px;""><img src=""images/choice_trial_8.png"" style=""width: 408px; height: 417px; margin-left:608px;""></div></div>",,delaylearn,learning,display_response,hk5Rs5yNsDNSud4Z6ziYql9O0JV2,hk5Rs5yNsDNSud4Z6ziYql9O0JV2,,,,,,,,,,,,,,,,,chosen stimuli: images/choice_trial_8.png,,,,,5cdd2e2a8b39ba00191a227e,16:40:22,27/03/2024
html-keyboard-response,228,509123,0.0-94.0-2.0,,,,delaylearn,learning,feedback_duration_window,hk5Rs5yNsDNSud4Z6ziYql9O0JV2,hk5Rs5yNsDNSud4Z6ziYql9O0JV2,,,,,,,,,,,,,,,,,,750.0,,,,5cdd2e2a8b39ba00191a227e,16:40:22,27/03/2024
html-keyboard-response,229,510635,0.0-94.0-3.0,,<div style='margin:auto;width: auto; font-size: 150%'><span style='font-weight: bold; font-size: 100px; color: green;'>+10 points!</span><br><br></div>,,delaylearn,learning,feedback_image_window,hk5Rs5yNsDNSud4Z6ziYql9O0JV2,hk5Rs5yNsDNSud4Z6ziYql9O0JV2,,,,,,,,,,,,,,,,,,,,,,5cdd2e2a8b39ba00191a227e,16:40:22,27/03/2024
html-keyboard-response,230,512681,0.0-95.0,,"<div style=""font-size:100px;"">+</div>",,delaylearn,learning,ITI,hk5Rs5yNsDNSud4Z6ziYql9O0JV2,hk5Rs5yNsDNSud4Z6ziYql9O0JV2,,,,,,,,,,,,,,,,,,,2038.0,,,5cdd2e2a8b39ba00191a227e,16:40:22,27/03/2024
