trial_type,trial_index,time_elapsed,internal_node_id,rt,stimulus,response,exp_name,exp_stage,test_part,subjectID,databaseID,counterbal,choice_stimuli_1,choice_stimuli_2,pattern_stimuli,rewarded_answer,correct_answer,feedback_duration_times,stim_left,stim_right,pair,leftright_counter,trial,response_correct,response_rewarded,chosen_stim,counter,displayed_choice,feedback_durations,ITI_duration,labels,rest_warning,prolificID,start_time,date
pavlovia,0,617,0.0-0.0,,,,,,,AFsdxWnfiaYgNhMU5JixdYZP24w1,,,,,,,,,,,,,,,,,,,,,,,62ac70ac67b1d7d5b5f46c02,16:30:18,27/03/2024
html-keyboard-response,1,3621,0.0-1.0,,"<div style=""font-size:100px;"">+</div>",,delaylearn,learning,pre_fixation,AFsdxWnfiaYgNhMU5JixdYZP24w1,,,,,,,,,,,,,,,,,,,,,,,62ac70ac67b1d7d5b5f46c02,16:30:18,27/03/2024
html-keyboard-response,2,4792,0.0-2.0-0.0,1166.0,"<div style=""display: flex; flex-direction: column; align-items: center; margin-top: -40px;""><img src=""images/demo_images/pattern_1.png"" style=""width: 234px; height: 230px; margin-top: -50px;""><div style=""display: flex; justify-content: space-between; margin-top: 33px;""><img src=""images/demo_images/choice_trial_2.png"" style=""width: 408px; height: 417px; margin-right: 200px;""><img src=""images/demo_images/choice_trial_1.png"" style=""width: 408px; height: 417px;""></div></div>",j,delaylearn,learning,trial,AFsdxWnfiaYgNhMU5JixdYZP24w1,AFsdxWnfiaYgNhMU5JixdYZP24w1,1.0,images/demo_images/choice_trial_2.png,images/demo_images/choice_trial_1.png,images/demo_images/pattern_1.png,j,j,3000.0,2.0,1.0,20.0,1.0,1.0,1.0,1.0,1.0,10.0,,,,,,62ac70ac67b1d7d5b5f46c02,16:30:18,27/03/2024
html-keyboard-response,3,5796,0.0-2.0-1.0,,"<div style=""display: flex; flex-direction: column; align-items: center; margin-top: -40px;""><img src=""images/demo_images/pattern_1.png"" style=""width: 234px; height: 230px; margin-top: -50px;""><div style=""display: flex; justify-content: space-between; margin-top: 33px;""><img src=""images/demo_images/choice_trial_1.png"" style=""width: 408px; height: 417px; margin-left:608px;""></div></div>",,delaylearn,learning,display_response,AFsdxWnfiaYgNhMU5JixdYZP24w1,AFsdxWnfiaYgNhMU5JixdYZP24w1,,,,,,,,,,,,,,,,,chosen stimuli: images/demo_images/choice_trial_1.png,,,,,62ac70ac67b1d7d5b5f46c02,16:30:18,27/03/2024
html-keyboard-response,4,8800,0.0-2.0-2.0,,,,delaylearn,learning,feedback_duration_window,AFsdxWnfiaYgNhMU5JixdYZP24w1,AFsdxWnfiaYgNhMU5JixdYZP24w1,,,,,,,,,,,,,,,,,,3000.0,,,,62ac70ac67b1d7d5b5f46c02,16:30:18,27/03/2024
html-keyboard-response,5,10305,0.0-2.0-3.0,,<div style='margin:auto;width: auto; font-size: 150%'><span style='font-weight: bold; font-size: 100px; color: green;'>+10 points!</span><br><br></div>,,delaylearn,learning,feedback_image_window,AFsdxWnfiaYgNhMU5JixdYZP24w1,AFsdxWnfiaYgNhMU5JixdYZP24w1,,,,,,,,,,,,,,,,,,,,,,62ac70ac67b1d7d5b5f46c02,16:30:18,27/03/2024
html-keyboard-response,6,12773,0.0-3.0,,"<div style=""font-size:100px;"">+</div>",,delaylearn,learning,ITI,AFsdxWnfiaYgNhMU5JixdYZP24w1,AFsdxWnfiaYgNhMU5JixdYZP24w1,,,,,,,,,,,,,,,,,,,2464.0,,,62ac70ac67b1d7d5b5f46c02,16:30:18,27/03/2024
html-keyboard-response,7,13661,0.0-4.0-0.0,884.0,"<div style=""display: flex; flex-direction: column; align-items: center; margin-top: -40px;""><img src=""images/demo_images/pattern_1.png"" style=""width: 234px; height: 230px; margin-top: -50px;""><div style=""display: flex; justify-content: space-between; margin-top: 33px;""><img src=""images/demo_images/choice_trial_2.png"" style=""width: 408px; height: 417px; margin-right: 200px;""><img src=""images/demo_images/choice_trial_1.png"" style=""width: 408px; height: 417px;""></div></div>",j,delaylearn,learning,trial,AFsdxWnfiaYgNhMU5JixdYZP24w1,AFsdxWnfiaYgNhMU5JixdYZP24w1,1.0,images/demo_images/choice_trial_2.png,images/demo_images/choice_trial_1.png,images/demo_images/pattern_1.png,j,j,3000.0,2.0,1.0,20.0,1.0,2.0,1.0,1.0,1.0,20.0,,,,,,62ac70ac67b1d7d5b5f46c02,16:30:18,27/03/2024
html-keyboard-response,8,14665,0.0-4.0-1.0,,"<div style=""display: flex; flex-direction: column; align-items: center; margin-top: -40px;""><img src=""images/demo_images/pattern_1.png"" style=""width: 234px; height: 230px; margin-top: -50px;""><div style=""display: flex; justify-content: space-between; margin-top: 33px;""><img src=""images/demo_images/choice_trial_1.png"" style=""width: 408px; height: 417px; margin-left:608px;""></div></div>",,delaylearn,learning,display_response,AFsdxWnfiaYgNhMU5JixdYZP24w1,AFsdxWnfiaYgNhMU5JixdYZP24w1,,,,,,,,,,,,,,,,,chosen stimuli: images/demo_images/choice_trial_1.png,,,,,62ac70ac67b1d7d5b5f46c02,16:30:18,27/03/2024
html-keyboard-response,9,17668,0.0-4.0-2.0,,,,delaylearn,learning,feedback_duration_window,AFsdxWnfiaYgNhMU5JixdYZP24w1,AFsdxWnfiaYgNhMU5JixdYZP24w1,,,,,,,,,,,,,,,,,,3000.0,,,,62ac70ac67b1d7d5b5f46c02,16:30:18,27/03/2024
html-keyboard-response,10,19171,0.0-4.0-3.0,,<div style='margin:auto;width: auto; font-size: 150%'><span style='font-weight: bold; font-size: 100px; color: green;'>+10 points!</span><br><br></div>,,delaylearn,learning,feedback_image_window,AFsdxWnfiaYgNhMU5JixdYZP24w1,AFsdxWnfiaYgNhMU5JixdYZP24w1,,,,,,,,,,,,,,,,,,,,,,62ac70ac67b1d7d5b5f46c02,16:30:18,27/03/2024
html-keyboard-response,11,20785,0.0-5.0,,"<div style=""font-size:100px;"">+</div>",,delaylearn,learning,ITI,AFsdxWnfiaYgNhMU5JixdYZP24w1,AFsdxWnfiaYgNhMU5JixdYZP24w1,,,,,,,,,,,,,,,,,,,1610.0,,,62ac70ac67b1d7d5b5f46c02,16:30:18,27/03/2024
html-keyboard-response,12,22067,0.0-6.0-0.0,1277.0,"<div style=""display: flex; flex-direction: column; align-items: center; margin-top: -40px;""><img src=""images/demo_images/pattern_1.png"" style=""width: 234px; height: 230px; margin-top: -50px;""><div style=""display: flex; justify-content: space-between; margin-top: 33px;""><img src=""images/demo_images/choice_trial_1.png"" style=""width: 408px; height: 417px; margin-right: 200px;""><img src=""images/demo_images/choice_trial_2.png"" style=""width: 408px; height: 417px;""></div></div>",f,delaylearn,learning,trial,AFsdxWnfiaYgNhMU5JixdYZP24w1,AFsdxWnfiaYgNhMU5JixdYZP24w1,1.0,images/demo_images/choice_trial_1.png,images/demo_images/choice_trial_2.png,images/demo_images/pattern_1.png,j,f,3000.0,1.0,2.0,20.0,0.0,3.0,1.0,0.0,1.0,20.0,,,,,,62ac70ac67b1d7d5b5f46c02,16:30:18,27/03/2024
html-keyboard-response,13,23070,0.0-6.0-1.0,,"<div style=""display: flex; flex-direction: column; align-items: center; margin-top: -40px;""><img src=""images/demo_images/pattern_1.png"" style=""width: 234px; height: 230px; margin-top: -50px;""><div style=""display: flex; justify-content: space-between; margin-top: 33px;""><img src=""images/demo_images/choice_trial_1.png"" style=""width: 408px; height: 417px; margin-right: 608px;""></div></div>",,delaylearn,learning,display_response,AFsdxWnfiaYgNhMU5JixdYZP24w1,AFsdxWnfiaYgNhMU5JixdYZP24w1,,,,,,,,,,,,,,,,,chosen stimuli: images/demo_images/choice_trial_1.png,,,,,62ac70ac67b1d7d5b5f46c02,16:30:18,27/03/2024
html-keyboard-response,14,26073,0.0-6.0-2.0,,,,delaylearn,learning,feedback_duration_window,AFsdxWnfiaYgNhMU5JixdYZP24w1,AFsdxWnfiaYgNhMU5JixdYZP24w1,,,,,,,,,,,,,,,,,,3000.0,,,,62ac70ac67b1d7d5b5f46c02,16:30:18,27/03/2024
html-keyboard-response,15,27577,0.0-6.0-3.0,,<div style='margin:auto;width: auto; font-size: 150%'><span style='font-weight: bold; font-size: 100px; color: red;'>0 points!</span><br><br></div>,,delaylearn,learning,feedback_image_window,AFsdxWnfiaYgNhMU5JixdYZP24w1,AFsdxWnfiaYgNhMU5JixdYZP24w1,,,,,,,,,,,,,,,,,,,,,,62ac70ac67b1d7d5b5f46c02,16:30:18,27/03/2024
html-keyboard-response,16,29788,0.0-7.0,,"<div style=""font-size:100px;"">+</div>",,delaylearn,learning,ITI,AFsdxWnfiaYgNhMU5JixdYZP24w1,AFsdxWnfiaYgNhMU5JixdYZP24w1,,,,,,,,,,,,,,,,,,,2207.0,,,62ac70ac67b1d7d5b5f46c02,16:30:18,27/03/2024
html-keyboard-response,17,31672,0.0-8.0-0.0,1878.999999999971,"<div style=""display: flex; flex-direction: column; align-items: center; margin-top: -40px;""><img src=""images/demo_images/pattern_1.png"" style=""width: 234px; height: 230px; margin-top: -50px;""><div style=""display: flex; justify-content: space-between; margin-top: 33px;""><img src=""images/demo_images/choice_trial_1.png"" style=""width: 408px; height: 417px; margin-right: 200px;""><img src=""images/demo_images/choice_trial_2.png"" style=""width: 408px; height: 417px;""></div></div>",j,delaylearn,learning,trial,AFsdxWnfiaYgNhMU5JixdYZP24w1,AFsdxWnfiaYgNhMU5JixdYZP24w1,1.0,images/demo_images/choice_trial_1.png,images/demo_images/choice_trial_2.png,images/demo_images/pattern_1.png,f,f,3000.0,1.0,2.0,20.0,0.0,4.0,0.0,0.0,2.0,20.0,,,,,,62ac70ac67b1d7d5b5f46c02,16:30:18,27/03/2024
html-keyboard-response,18,32676,0.0-8.0-1.0,,"<div style=""display: flex; flex-direction: column; align-items: center; margin-top: -40px;""><img src=""images/demo_images/pattern_1.png"" style=""width: 234px; height: 230px; margin-top: -50px;""><div style=""display: flex; justify-content: space-between; margin-top: 33px;""><img src=""images/demo_images/choice_trial_2.png"" style=""width: 408px; height: 417px; margin-left:608px;""></div></div>",,delaylearn,learning,display_response,AFsdxWnfiaYgNhMU5JixdYZP24w1,AFsdxWnfiaYgNhMU5JixdYZP24w1,,,,,,,,,,,,,,,,,chosen stimuli: images/demo_images/choice_trial_2.png,,,,,62ac70ac67b1d7d5b5f46c02,16:30:18,27/03/2024
html-keyboard-response,19,35679,0.0-8.0-2.0,,,,delaylearn,learning,feedback_duration_window,AFsdxWnfiaYgNhMU5JixdYZP24w1,AFsdxWnfiaYgNhMU5JixdYZP24w1,,,,,,,,,,,,,,,,,,3000.0,,,,62ac70ac67b1d7d5b5f46c02,16:30:18,27/03/2024
html-keyboard-response,20,37184,0.0-8.0-3.0,,<div style='margin:auto;width: auto; font-size: 150%'><span style='font-weight: bold; font-size: 100px; color: red;'>0 points!</span><br><br></div>,,delaylearn,learning,feedback_image_window,AFsdxWnfiaYgNhMU5JixdYZP24w1,AFsdxWnfiaYgNhMU5JixdYZP24w1,,,,,,,,,,,,,,,,,,,,,,62ac70ac67b1d7d5b5f46c02,16:30:18,27/03/2024
html-keyboard-response,21,37687,0.0-9.0-0.0,,,,,,mood_trial_fixation,AFsdxWnfiaYgNhMU5JixdYZP24w1,,,,,,,,,,,,,,,,,,,,,,,62ac70ac67b1d7d5b5f46c02,16:30:18,27/03/2024
lmdlab-html-vas-response,22,42841,0.0-9.0-1.0,4140.0,How happy are you right now?,0.5907696759259259,delaylearn,learning,mood_trial,AFsdxWnfiaYgNhMU5JixdYZP24w1,AFsdxWnfiaYgNhMU5JixdYZP24w1,,,,,,,,,,,,,,,,,,,,"['Very unhappy', 'Very happy']",,62ac70ac67b1d7d5b5f46c02,16:30:18,27/03/2024
html-keyboard-response,23,44346,0.0-10.0,,"<div style=""font-size:100px;"">+</div>",,delaylearn,learning,ITI,AFsdxWnfiaYgNhMU5JixdYZP24w1,AFsdxWnfiaYgNhMU5JixdYZP24w1,,,,,,,,,,,,,,,,,,,1502.0,,,62ac70ac67b1d7d5b5f46c02,16:30:18,27/03/2024
html-keyboard-response,24,45909,0.0-11.0-0.0,1559.0,"<div style=""display: flex; flex-direction: column; align-items: center; margin-top: -40px;""><img src=""images/demo_images/pattern_1.png"" style=""width: 234px; height: 230px; margin-top: -50px;""><div style=""display: flex; justify-content: space-between; margin-top: 33px;""><img src=""images/demo_images/choice_trial_2.png"" style=""width: 408px; height: 417px; margin-right: 200px;""><img src=""images/demo_images/choice_trial_1.png"" style=""width: 408px; height: 417px;""></div></div>",j,delaylearn,learning,trial,AFsdxWnfiaYgNhMU5JixdYZP24w1,AFsdxWnfiaYgNhMU5JixdYZP24w1,1.0,images/demo_images/choice_trial_2.png,images/demo_images/choice_trial_1.png,images/demo_images/pattern_1.png,j,j,3000.0,2.0,1.0,20.0,1.0,5.0,1.0,1.0,1.0,30.0,,,,,,62ac70ac67b1d7d5b5f46c02,16:30:18,27/03/2024
html-keyboard-response,25,46913,0.0-11.0-1.0,,"<div style=""display: flex; flex-direction: column; align-items: center; margin-top: -40px;""><img src=""images/demo_images/pattern_1.png"" style=""width: 234px; height: 230px; margin-top: -50px;""><div style=""display: flex; justify-content: space-between; margin-top: 33px;""><img src=""images/demo_images/choice_trial_1.png"" style=""width: 408px; height: 417px; margin-left:608px;""></div></div>",,delaylearn,learning,display_response,AFsdxWnfiaYgNhMU5JixdYZP24w1,AFsdxWnfiaYgNhMU5JixdYZP24w1,,,,,,,,,,,,,,,,,chosen stimuli: images/demo_images/choice_trial_1.png,,,,,62ac70ac67b1d7d5b5f46c02,16:30:18,27/03/2024
html-keyboard-response,26,49916,0.0-11.0-2.0,,,,delaylearn,learning,feedback_duration_window,AFsdxWnfiaYgNhMU5JixdYZP24w1,AFsdxWnfiaYgNhMU5JixdYZP24w1,,,,,,,,,,,,,,,,,,3000.0,,,,62ac70ac67b1d7d5b5f46c02,16:30:18,27/03/2024
html-keyboard-response,27,51420,0.0-11.0-3.0,,<div style='margin:auto;width: auto; font-size: 150%'><span style='font-weight: bold; font-size: 100px; color: green;'>+10 points!</span><br><br></div>,,delaylearn,learning,feedback_image_window,AFsdxWnfiaYgNhMU5JixdYZP24w1,AFsdxWnfiaYgNhMU5JixdYZP24w1,,,,,,,,,,,,,,,,,,,,,,62ac70ac67b1d7d5b5f46c02,16:30:18,27/03/2024
html-keyboard-response,28,53045,0.0-12.0,,"<div style=""font-size:100px;"">+</div>",,delaylearn,learning,ITI,AFsdxWnfiaYgNhMU5JixdYZP24w1,AFsdxWnfiaYgNhMU5JixdYZP24w1,,,,,,,,,,,,,,,,,,,1622.0,,,62ac70ac67b1d7d5b5f46c02,16:30:18,27/03/2024
html-keyboard-response,29,54735,0.0-13.0-0.0,1685.0,"<div style=""display: flex; flex-direction: column; align-items: center; margin-top: -40px;""><img src=""images/demo_images/pattern_1.png"" style=""width: 234px; height: 230px; margin-top: -50px;""><div style=""display: flex; justify-content: space-between; margin-top: 33px;""><img src=""images/demo_images/choice_trial_1.png"" style=""width: 408px; height: 417px; margin-right: 200px;""><img src=""images/demo_images/choice_trial_2.png"" style=""width: 408px; height: 417px;""></div></div>",f,delaylearn,learning,trial,AFsdxWnfiaYgNhMU5JixdYZP24w1,AFsdxWnfiaYgNhMU5JixdYZP24w1,1.0,images/demo_images/choice_trial_1.png,images/demo_images/choice_trial_2.png,images/demo_images/pattern_1.png,f,f,3000.0,1.0,2.0,20.0,0.0,6.0,1.0,1.0,1.0,40.0,,,,,,62ac70ac67b1d7d5b5f46c02,16:30:18,27/03/2024
html-keyboard-response,30,55739,0.0-13.0-1.0,,"<div style=""display: flex; flex-direction: column; align-items: center; margin-top: -40px;""><img src=""images/demo_images/pattern_1.png"" style=""width: 234px; height: 230px; margin-top: -50px;""><div style=""display: flex; justify-content: space-between; margin-top: 33px;""><img src=""images/demo_images/choice_trial_1.png"" style=""width: 408px; height: 417px; margin-right: 608px;""></div></div>",,delaylearn,learning,display_response,AFsdxWnfiaYgNhMU5JixdYZP24w1,AFsdxWnfiaYgNhMU5JixdYZP24w1,,,,,,,,,,,,,,,,,chosen stimuli: images/demo_images/choice_trial_1.png,,,,,62ac70ac67b1d7d5b5f46c02,16:30:18,27/03/2024
html-keyboard-response,31,58741,0.0-13.0-2.0,,,,delaylearn,learning,feedback_duration_window,AFsdxWnfiaYgNhMU5JixdYZP24w1,AFsdxWnfiaYgNhMU5JixdYZP24w1,,,,,,,,,,,,,,,,,,3000.0,,,,62ac70ac67b1d7d5b5f46c02,16:30:18,27/03/2024
html-keyboard-response,32,60245,0.0-13.0-3.0,,<div style='margin:auto;width: auto; font-size: 150%'><span style='font-weight: bold; font-size: 100px; color: green;'>+10 points!</span><br><br></div>,,delaylearn,learning,feedback_image_window,AFsdxWnfiaYgNhMU5JixdYZP24w1,AFsdxWnfiaYgNhMU5JixdYZP24w1,,,,,,,,,,,,,,,,,,,,,,62ac70ac67b1d7d5b5f46c02,16:30:18,27/03/2024
html-keyboard-response,33,62610,0.0-14.0,,"<div style=""font-size:100px;"">+</div>",,delaylearn,learning,ITI,AFsdxWnfiaYgNhMU5JixdYZP24w1,AFsdxWnfiaYgNhMU5JixdYZP24w1,,,,,,,,,,,,,,,,,,,2361.0,,,62ac70ac67b1d7d5b5f46c02,16:30:18,27/03/2024
html-keyboard-response,34,64052,0.0-15.0-0.0,1437.0,"<div style=""display: flex; flex-direction: column; align-items: center; margin-top: -40px;""><img src=""images/demo_images/pattern_1.png"" style=""width: 234px; height: 230px; margin-top: -50px;""><div style=""display: flex; justify-content: space-between; margin-top: 33px;""><img src=""images/demo_images/choice_trial_2.png"" style=""width: 408px; height: 417px; margin-right: 200px;""><img src=""images/demo_images/choice_trial_1.png"" style=""width: 408px; height: 417px;""></div></div>",j,delaylearn,learning,trial,AFsdxWnfiaYgNhMU5JixdYZP24w1,AFsdxWnfiaYgNhMU5JixdYZP24w1,1.0,images/demo_images/choice_trial_2.png,images/demo_images/choice_trial_1.png,images/demo_images/pattern_1.png,j,j,3000.0,2.0,1.0,20.0,1.0,7.0,1.0,1.0,1.0,50.0,,,,,,62ac70ac67b1d7d5b5f46c02,16:30:18,27/03/2024
html-keyboard-response,35,65056,0.0-15.0-1.0,,"<div style=""display: flex; flex-direction: column; align-items: center; margin-top: -40px;""><img src=""images/demo_images/pattern_1.png"" style=""width: 234px; height: 230px; margin-top: -50px;""><div style=""display: flex; justify-content: space-between; margin-top: 33px;""><img src=""images/demo_images/choice_trial_1.png"" style=""width: 408px; height: 417px; margin-left:608px;""></div></div>",,delaylearn,learning,display_response,AFsdxWnfiaYgNhMU5JixdYZP24w1,AFsdxWnfiaYgNhMU5JixdYZP24w1,,,,,,,,,,,,,,,,,chosen stimuli: images/demo_images/choice_trial_1.png,,,,,62ac70ac67b1d7d5b5f46c02,16:30:18,27/03/2024
html-keyboard-response,36,68060,0.0-15.0-2.0,,,,delaylearn,learning,feedback_duration_window,AFsdxWnfiaYgNhMU5JixdYZP24w1,AFsdxWnfiaYgNhMU5JixdYZP24w1,,,,,,,,,,,,,,,,,,3000.0,,,,62ac70ac67b1d7d5b5f46c02,16:30:18,27/03/2024
html-keyboard-response,37,69564,0.0-15.0-3.0,,<div style='margin:auto;width: auto; font-size: 150%'><span style='font-weight: bold; font-size: 100px; color: green;'>+10 points!</span><br><br></div>,,delaylearn,learning,feedback_image_window,AFsdxWnfiaYgNhMU5JixdYZP24w1,AFsdxWnfiaYgNhMU5JixdYZP24w1,,,,,,,,,,,,,,,,,,,,,,62ac70ac67b1d7d5b5f46c02,16:30:18,27/03/2024
html-keyboard-response,38,71311,0.0-16.0,,"<div style=""font-size:100px;"">+</div>",,delaylearn,learning,ITI,AFsdxWnfiaYgNhMU5JixdYZP24w1,AFsdxWnfiaYgNhMU5JixdYZP24w1,,,,,,,,,,,,,,,,,,,1744.0,,,62ac70ac67b1d7d5b5f46c02,16:30:18,27/03/2024
html-keyboard-response,39,72680,0.0-17.0-0.0,1364.0,"<div style=""display: flex; flex-direction: column; align-items: center; margin-top: -40px;""><img src=""images/demo_images/pattern_1.png"" style=""width: 234px; height: 230px; margin-top: -50px;""><div style=""display: flex; justify-content: space-between; margin-top: 33px;""><img src=""images/demo_images/choice_trial_1.png"" style=""width: 408px; height: 417px; margin-right: 200px;""><img src=""images/demo_images/choice_trial_2.png"" style=""width: 408px; height: 417px;""></div></div>",f,delaylearn,learning,trial,AFsdxWnfiaYgNhMU5JixdYZP24w1,AFsdxWnfiaYgNhMU5JixdYZP24w1,1.0,images/demo_images/choice_trial_1.png,images/demo_images/choice_trial_2.png,images/demo_images/pattern_1.png,f,f,3000.0,1.0,2.0,20.0,0.0,8.0,1.0,1.0,1.0,60.0,,,,,,62ac70ac67b1d7d5b5f46c02,16:30:18,27/03/2024
html-keyboard-response,40,73684,0.0-17.0-1.0,,"<div style=""display: flex; flex-direction: column; align-items: center; margin-top: -40px;""><img src=""images/demo_images/pattern_1.png"" style=""width: 234px; height: 230px; margin-top: -50px;""><div style=""display: flex; justify-content: space-between; margin-top: 33px;""><img src=""images/demo_images/choice_trial_1.png"" style=""width: 408px; height: 417px; margin-right: 608px;""></div></div>",,delaylearn,learning,display_response,AFsdxWnfiaYgNhMU5JixdYZP24w1,AFsdxWnfiaYgNhMU5JixdYZP24w1,,,,,,,,,,,,,,,,,chosen stimuli: images/demo_images/choice_trial_1.png,,,,,62ac70ac67b1d7d5b5f46c02,16:30:18,27/03/2024
html-keyboard-response,41,76688,0.0-17.0-2.0,,,,delaylearn,learning,feedback_duration_window,AFsdxWnfiaYgNhMU5JixdYZP24w1,AFsdxWnfiaYgNhMU5JixdYZP24w1,,,,,,,,,,,,,,,,,,3000.0,,,,62ac70ac67b1d7d5b5f46c02,16:30:18,27/03/2024
html-keyboard-response,42,78192,0.0-17.0-3.0,,<div style='margin:auto;width: auto; font-size: 150%'><span style='font-weight: bold; font-size: 100px; color: green;'>+10 points!</span><br><br></div>,,delaylearn,learning,feedback_image_window,AFsdxWnfiaYgNhMU5JixdYZP24w1,AFsdxWnfiaYgNhMU5JixdYZP24w1,,,,,,,,,,,,,,,,,,,,,,62ac70ac67b1d7d5b5f46c02,16:30:18,27/03/2024
html-button-response,43,80623,0.0-18.0,2428.999999999942,"
  <div style=""display: flex; align-items: center; justify-content: center; height: 80vh;"">
  <div>
          <img src=""images/inst_demo_finish.png"" style=""width: 80vw; height:auto;"">
          <br><br>
      </div>
      <br><br>
  </div>",0,,,,AFsdxWnfiaYgNhMU5JixdYZP24w1,,,,,,,,,,,,,,,,,,,,,,,62ac70ac67b1d7d5b5f46c02,16:30:18,27/03/2024
html-keyboard-response,44,89027,0.0-19.0,8401.0,"
  <div style=""display: flex; align-items: center; justify-content: center; height: 80vh;"">
  <div>
          <img src=""images/inst_6.png"" style=""width: 80vw; height:auto;"">
          <br><br>
      </div>
      <br><br>
  </div>",f,,,,AFsdxWnfiaYgNhMU5JixdYZP24w1,,,,,,,,,,,,,,,,,,,,,,,62ac70ac67b1d7d5b5f46c02,16:30:18,27/03/2024
html-keyboard-response,45,92031,0.0-20.0,,"<div style=""font-size:100px;"">+</div>",,delaylearn,learning,pre_fixation,AFsdxWnfiaYgNhMU5JixdYZP24w1,,,,,,,,,,,,,,,,,,,,,,,62ac70ac67b1d7d5b5f46c02,16:30:18,27/03/2024
html-keyboard-response,46,93651,0.0-21.0,,"<div style=""font-size:100px;"">+</div>",,delaylearn,learning,ITI,AFsdxWnfiaYgNhMU5JixdYZP24w1,AFsdxWnfiaYgNhMU5JixdYZP24w1,,,,,,,,,,,,,,,,,,,1615.0,,,62ac70ac67b1d7d5b5f46c02,16:30:18,27/03/2024
html-keyboard-response,47,94776,0.0-22.0-0.0,1120.0,"<div style=""display: flex; flex-direction: column; align-items: center; margin-top: -40px;""><img src=""images/pattern_3.png"" style=""width: 234px; height: 230px; margin-top: -50px;""><div style=""display: flex; justify-content: space-between; margin-top: 33px;""><img src=""images/choice_trial_5.png"" style=""width: 408px; height: 417px; margin-right: 200px;""><img src=""images/choice_trial_6.png"" style=""width: 408px; height: 417px;""></div></div>",j,delaylearn,learning,trial,AFsdxWnfiaYgNhMU5JixdYZP24w1,AFsdxWnfiaYgNhMU5JixdYZP24w1,1.0,images/choice_trial_5.png,images/choice_trial_6.png,images/pattern_3.png,f,f,7000.0,5.0,6.0,2.0,0.0,9.0,0.0,0.0,6.0,60.0,,,,,,62ac70ac67b1d7d5b5f46c02,16:30:18,27/03/2024
html-keyboard-response,48,95780,0.0-22.0-1.0,,"<div style=""display: flex; flex-direction: column; align-items: center; margin-top: -40px;""><img src=""images/pattern_3.png"" style=""width: 234px; height: 230px; margin-top: -50px;""><div style=""display: flex; justify-content: space-between; margin-top: 33px;""><img src=""images/choice_trial_6.png"" style=""width: 408px; height: 417px; margin-left:608px;""></div></div>",,delaylearn,learning,display_response,AFsdxWnfiaYgNhMU5JixdYZP24w1,AFsdxWnfiaYgNhMU5JixdYZP24w1,,,,,,,,,,,,,,,,,chosen stimuli: images/choice_trial_6.png,,,,,62ac70ac67b1d7d5b5f46c02,16:30:18,27/03/2024
html-keyboard-response,49,102784,0.0-22.0-2.0,,,,delaylearn,learning,feedback_duration_window,AFsdxWnfiaYgNhMU5JixdYZP24w1,AFsdxWnfiaYgNhMU5JixdYZP24w1,,,,,,,,,,,,,,,,,,7000.0,,,,62ac70ac67b1d7d5b5f46c02,16:30:18,27/03/2024
html-keyboard-response,50,104288,0.0-22.0-3.0,,<div style='margin:auto;width: auto; font-size: 150%'><span style='font-weight: bold; font-size: 100px; color: red;'>0 points!</span><br><br></div>,,delaylearn,learning,feedback_image_window,AFsdxWnfiaYgNhMU5JixdYZP24w1,AFsdxWnfiaYgNhMU5JixdYZP24w1,,,,,,,,,,,,,,,,,,,,,,62ac70ac67b1d7d5b5f46c02,16:30:18,27/03/2024
html-keyboard-response,51,106262,0.0-23.0,,"<div style=""font-size:100px;"">+</div>",,delaylearn,learning,ITI,AFsdxWnfiaYgNhMU5JixdYZP24w1,AFsdxWnfiaYgNhMU5JixdYZP24w1,,,,,,,,,,,,,,,,,,,1970.0,,,62ac70ac67b1d7d5b5f46c02,16:30:18,27/03/2024
html-keyboard-response,52,108261,0.0-24.0-0.0,1993.0,"<div style=""display: flex; flex-direction: column; align-items: center; margin-top: -40px;""><img src=""images/pattern_7.png"" style=""width: 234px; height: 230px; margin-top: -50px;""><div style=""display: flex; justify-content: space-between; margin-top: 33px;""><img src=""images/choice_trial_14.png"" style=""width: 408px; height: 417px; margin-right: 200px;""><img src=""images/choice_trial_13.png"" style=""width: 408px; height: 417px;""></div></div>",j,delaylearn,learning,trial,AFsdxWnfiaYgNhMU5JixdYZP24w1,AFsdxWnfiaYgNhMU5JixdYZP24w1,1.0,images/choice_trial_14.png,images/choice_trial_13.png,images/pattern_7.png,j,j,750.0,14.0,13.0,6.0,1.0,10.0,1.0,1.0,13.0,70.0,,,,,,62ac70ac67b1d7d5b5f46c02,16:30:18,27/03/2024
html-keyboard-response,53,109264,0.0-24.0-1.0,,"<div style=""display: flex; flex-direction: column; align-items: center; margin-top: -40px;""><img src=""images/pattern_7.png"" style=""width: 234px; height: 230px; margin-top: -50px;""><div style=""display: flex; justify-content: space-between; margin-top: 33px;""><img src=""images/choice_trial_13.png"" style=""width: 408px; height: 417px; margin-left:608px;""></div></div>",,delaylearn,learning,display_response,AFsdxWnfiaYgNhMU5JixdYZP24w1,AFsdxWnfiaYgNhMU5JixdYZP24w1,,,,,,,,,,,,,,,,,chosen stimuli: images/choice_trial_13.png,,,,,62ac70ac67b1d7d5b5f46c02,16:30:18,27/03/2024
html-keyboard-response,54,110017,0.0-24.0-2.0,,,,delaylearn,learning,feedback_duration_window,AFsdxWnfiaYgNhMU5JixdYZP24w1,AFsdxWnfiaYgNhMU5JixdYZP24w1,,,,,,,,,,,,,,,,,,750.0,,,,62ac70ac67b1d7d5b5f46c02,16:30:18,27/03/2024
html-keyboard-response,55,111521,0.0-24.0-3.0,,<div style='margin:auto;width: auto; font-size: 150%'><span style='font-weight: bold; font-size: 100px; color: green;'>+10 points!</span><br><br></div>,,delaylearn,learning,feedback_image_window,AFsdxWnfiaYgNhMU5JixdYZP24w1,AFsdxWnfiaYgNhMU5JixdYZP24w1,,,,,,,,,,,,,,,,,,,,,,62ac70ac67b1d7d5b5f46c02,16:30:18,27/03/2024
html-keyboard-response,56,113967,0.0-25.0,,"<div style=""font-size:100px;"">+</div>",,delaylearn,learning,ITI,AFsdxWnfiaYgNhMU5JixdYZP24w1,AFsdxWnfiaYgNhMU5JixdYZP24w1,,,,,,,,,,,,,,,,,,,2443.0,,,62ac70ac67b1d7d5b5f46c02,16:30:18,27/03/2024
html-keyboard-response,57,116560,0.0-26.0-0.0,2587.0,"<div style=""display: flex; flex-direction: column; align-items: center; margin-top: -40px;""><img src=""images/pattern_4.png"" style=""width: 234px; height: 230px; margin-top: -50px;""><div style=""display: flex; justify-content: space-between; margin-top: 33px;""><img src=""images/choice_trial_7.png"" style=""width: 408px; height: 417px; margin-right: 200px;""><img src=""images/choice_trial_8.png"" style=""width: 408px; height: 417px;""></div></div>",f,delaylearn,learning,trial,AFsdxWnfiaYgNhMU5JixdYZP24w1,AFsdxWnfiaYgNhMU5JixdYZP24w1,1.0,images/choice_trial_7.png,images/choice_trial_8.png,images/pattern_4.png,f,f,7000.0,7.0,8.0,3.0,0.0,11.0,1.0,1.0,7.0,80.0,,,,,,62ac70ac67b1d7d5b5f46c02,16:30:18,27/03/2024
html-keyboard-response,58,117564,0.0-26.0-1.0,,"<div style=""display: flex; flex-direction: column; align-items: center; margin-top: -40px;""><img src=""images/pattern_4.png"" style=""width: 234px; height: 230px; margin-top: -50px;""><div style=""display: flex; justify-content: space-between; margin-top: 33px;""><img src=""images/choice_trial_7.png"" style=""width: 408px; height: 417px; margin-right: 608px;""></div></div>",,delaylearn,learning,display_response,AFsdxWnfiaYgNhMU5JixdYZP24w1,AFsdxWnfiaYgNhMU5JixdYZP24w1,,,,,,,,,,,,,,,,,chosen stimuli: images/choice_trial_7.png,,,,,62ac70ac67b1d7d5b5f46c02,16:30:18,27/03/2024
html-keyboard-response,59,124568,0.0-26.0-2.0,,,,delaylearn,learning,feedback_duration_window,AFsdxWnfiaYgNhMU5JixdYZP24w1,AFsdxWnfiaYgNhMU5JixdYZP24w1,,,,,,,,,,,,,,,,,,7000.0,,,,62ac70ac67b1d7d5b5f46c02,16:30:18,27/03/2024
html-keyboard-response,60,126071,0.0-26.0-3.0,,<div style='margin:auto;width: auto; font-size: 150%'><span style='font-weight: bold; font-size: 100px; color: green;'>+10 points!</span><br><br></div>,,delaylearn,learning,feedback_image_window,AFsdxWnfiaYgNhMU5JixdYZP24w1,AFsdxWnfiaYgNhMU5JixdYZP24w1,,,,,,,,,,,,,,,,,,,,,,62ac70ac67b1d7d5b5f46c02,16:30:18,27/03/2024
html-keyboard-response,61,128572,0.0-27.0,,"<div style=""font-size:100px;"">+</div>",,delaylearn,learning,ITI,AFsdxWnfiaYgNhMU5JixdYZP24w1,AFsdxWnfiaYgNhMU5JixdYZP24w1,,,,,,,,,,,,,,,,,,,2498.0,,,62ac70ac67b1d7d5b5f46c02,16:30:18,27/03/2024
html-keyboard-response,62,130121,0.0-28.0-0.0,1544.0,"<div style=""display: flex; flex-direction: column; align-items: center; margin-top: -40px;""><img src=""images/pattern_5.png"" style=""width: 234px; height: 230px; margin-top: -50px;""><div style=""display: flex; justify-content: space-between; margin-top: 33px;""><img src=""images/choice_trial_10.png"" style=""width: 408px; height: 417px; margin-right: 200px;""><img src=""images/choice_trial_9.png"" style=""width: 408px; height: 417px;""></div></div>",j,delaylearn,learning,trial,AFsdxWnfiaYgNhMU5JixdYZP24w1,AFsdxWnfiaYgNhMU5JixdYZP24w1,1.0,images/choice_trial_10.png,images/choice_trial_9.png,images/pattern_5.png,j,j,750.0,10.0,9.0,4.0,1.0,12.0,1.0,1.0,9.0,90.0,,,,,,62ac70ac67b1d7d5b5f46c02,16:30:18,27/03/2024
html-keyboard-response,63,131124,0.0-28.0-1.0,,"<div style=""display: flex; flex-direction: column; align-items: center; margin-top: -40px;""><img src=""images/pattern_5.png"" style=""width: 234px; height: 230px; margin-top: -50px;""><div style=""display: flex; justify-content: space-between; margin-top: 33px;""><img src=""images/choice_trial_9.png"" style=""width: 408px; height: 417px; margin-left:608px;""></div></div>",,delaylearn,learning,display_response,AFsdxWnfiaYgNhMU5JixdYZP24w1,AFsdxWnfiaYgNhMU5JixdYZP24w1,,,,,,,,,,,,,,,,,chosen stimuli: images/choice_trial_9.png,,,,,62ac70ac67b1d7d5b5f46c02,16:30:18,27/03/2024
html-keyboard-response,64,131878,0.0-28.0-2.0,,,,delaylearn,learning,feedback_duration_window,AFsdxWnfiaYgNhMU5JixdYZP24w1,AFsdxWnfiaYgNhMU5JixdYZP24w1,,,,,,,,,,,,,,,,,,750.0,,,,62ac70ac67b1d7d5b5f46c02,16:30:18,27/03/2024
html-keyboard-response,65,133382,0.0-28.0-3.0,,<div style='margin:auto;width: auto; font-size: 150%'><span style='font-weight: bold; font-size: 100px; color: green;'>+10 points!</span><br><br></div>,,delaylearn,learning,feedback_image_window,AFsdxWnfiaYgNhMU5JixdYZP24w1,AFsdxWnfiaYgNhMU5JixdYZP24w1,,,,,,,,,,,,,,,,,,,,,,62ac70ac67b1d7d5b5f46c02,16:30:18,27/03/2024
html-keyboard-response,66,135402,0.0-29.0,,"<div style=""font-size:100px;"">+</div>",,delaylearn,learning,ITI,AFsdxWnfiaYgNhMU5JixdYZP24w1,AFsdxWnfiaYgNhMU5JixdYZP24w1,,,,,,,,,,,,,,,,,,,2017.0,,,62ac70ac67b1d7d5b5f46c02,16:30:18,27/03/2024
html-keyboard-response,67,136213,0.0-30.0-0.0,807.0,"<div style=""display: flex; flex-direction: column; align-items: center; margin-top: -40px;""><img src=""images/pattern_6.png"" style=""width: 234px; height: 230px; margin-top: -50px;""><div style=""display: flex; justify-content: space-between; margin-top: 33px;""><img src=""images/choice_trial_11.png"" style=""width: 408px; height: 417px; margin-right: 200px;""><img src=""images/choice_trial_12.png"" style=""width: 408px; height: 417px;""></div></div>",f,delaylearn,learning,trial,AFsdxWnfiaYgNhMU5JixdYZP24w1,AFsdxWnfiaYgNhMU5JixdYZP24w1,1.0,images/choice_trial_11.png,images/choice_trial_12.png,images/pattern_6.png,j,f,750.0,11.0,12.0,5.0,0.0,13.0,1.0,0.0,11.0,90.0,,,,,,62ac70ac67b1d7d5b5f46c02,16:30:18,27/03/2024
html-keyboard-response,68,137217,0.0-30.0-1.0,,"<div style=""display: flex; flex-direction: column; align-items: center; margin-top: -40px;""><img src=""images/pattern_6.png"" style=""width: 234px; height: 230px; margin-top: -50px;""><div style=""display: flex; justify-content: space-between; margin-top: 33px;""><img src=""images/choice_trial_11.png"" style=""width: 408px; height: 417px; margin-right: 608px;""></div></div>",,delaylearn,learning,display_response,AFsdxWnfiaYgNhMU5JixdYZP24w1,AFsdxWnfiaYgNhMU5JixdYZP24w1,,,,,,,,,,,,,,,,,chosen stimuli: images/choice_trial_11.png,,,,,62ac70ac67b1d7d5b5f46c02,16:30:18,27/03/2024
html-keyboard-response,69,137969,0.0-30.0-2.0,,,,delaylearn,learning,feedback_duration_window,AFsdxWnfiaYgNhMU5JixdYZP24w1,AFsdxWnfiaYgNhMU5JixdYZP24w1,,,,,,,,,,,,,,,,,,750.0,,,,62ac70ac67b1d7d5b5f46c02,16:30:18,27/03/2024
html-keyboard-response,70,139472,0.0-30.0-3.0,,<div style='margin:auto;width: auto; font-size: 150%'><span style='font-weight: bold; font-size: 100px; color: red;'>0 points!</span><br><br></div>,,delaylearn,learning,feedback_image_window,AFsdxWnfiaYgNhMU5JixdYZP24w1,AFsdxWnfiaYgNhMU5JixdYZP24w1,,,,,,,,,,,,,,,,,,,,,,62ac70ac67b1d7d5b5f46c02,16:30:18,27/03/2024
html-keyboard-response,71,139974,0.0-31.0-0.0,,,,,,mood_trial_fixation,AFsdxWnfiaYgNhMU5JixdYZP24w1,,,,,,,,,,,,,,,,,,,,,,,62ac70ac67b1d7d5b5f46c02,16:30:18,27/03/2024
lmdlab-html-vas-response,72,143841,0.0-31.0-1.0,2858.0,How happy are you right now?,0.5444733796296296,delaylearn,learning,mood_trial,AFsdxWnfiaYgNhMU5JixdYZP24w1,AFsdxWnfiaYgNhMU5JixdYZP24w1,,,,,,,,,,,,,,,,,,,,"['Very unhappy', 'Very happy']",,62ac70ac67b1d7d5b5f46c02,16:30:18,27/03/2024
html-keyboard-response,73,146041,0.0-32.0,,"<div style=""font-size:100px;"">+</div>",,delaylearn,learning,ITI,AFsdxWnfiaYgNhMU5JixdYZP24w1,AFsdxWnfiaYgNhMU5JixdYZP24w1,,,,,,,,,,,,,,,,,,,2197.0,,,62ac70ac67b1d7d5b5f46c02,16:30:18,27/03/2024
html-keyboard-response,74,148929,0.0-33.0-0.0,2883.0,"<div style=""display: flex; flex-direction: column; align-items: center; margin-top: -40px;""><img src=""images/pattern_1.png"" style=""width: 234px; height: 230px; margin-top: -50px;""><div style=""display: flex; justify-content: space-between; margin-top: 33px;""><img src=""images/choice_trial_2.png"" style=""width: 408px; height: 417px; margin-right: 200px;""><img src=""images/choice_trial_1.png"" style=""width: 408px; height: 417px;""></div></div>",j,delaylearn,learning,trial,AFsdxWnfiaYgNhMU5JixdYZP24w1,AFsdxWnfiaYgNhMU5JixdYZP24w1,1.0,images/choice_trial_2.png,images/choice_trial_1.png,images/pattern_1.png,j,j,7000.0,2.0,1.0,1.0,1.0,14.0,1.0,1.0,1.0,100.0,,,,,,62ac70ac67b1d7d5b5f46c02,16:30:18,27/03/2024
html-keyboard-response,75,149933,0.0-33.0-1.0,,"<div style=""display: flex; flex-direction: column; align-items: center; margin-top: -40px;""><img src=""images/pattern_1.png"" style=""width: 234px; height: 230px; margin-top: -50px;""><div style=""display: flex; justify-content: space-between; margin-top: 33px;""><img src=""images/choice_trial_1.png"" style=""width: 408px; height: 417px; margin-left:608px;""></div></div>",,delaylearn,learning,display_response,AFsdxWnfiaYgNhMU5JixdYZP24w1,AFsdxWnfiaYgNhMU5JixdYZP24w1,,,,,,,,,,,,,,,,,chosen stimuli: images/choice_trial_1.png,,,,,62ac70ac67b1d7d5b5f46c02,16:30:18,27/03/2024
html-keyboard-response,76,156937,0.0-33.0-2.0,,,,delaylearn,learning,feedback_duration_window,AFsdxWnfiaYgNhMU5JixdYZP24w1,AFsdxWnfiaYgNhMU5JixdYZP24w1,,,,,,,,,,,,,,,,,,7000.0,,,,62ac70ac67b1d7d5b5f46c02,16:30:18,27/03/2024
html-keyboard-response,77,158441,0.0-33.0-3.0,,<div style='margin:auto;width: auto; font-size: 150%'><span style='font-weight: bold; font-size: 100px; color: green;'>+10 points!</span><br><br></div>,,delaylearn,learning,feedback_image_window,AFsdxWnfiaYgNhMU5JixdYZP24w1,AFsdxWnfiaYgNhMU5JixdYZP24w1,,,,,,,,,,,,,,,,,,,,,,62ac70ac67b1d7d5b5f46c02,16:30:18,27/03/2024
html-keyboard-response,78,160569,0.0-34.0,,"<div style=""font-size:100px;"">+</div>",,delaylearn,learning,ITI,AFsdxWnfiaYgNhMU5JixdYZP24w1,AFsdxWnfiaYgNhMU5JixdYZP24w1,,,,,,,,,,,,,,,,,,,2125.0,,,62ac70ac67b1d7d5b5f46c02,16:30:18,27/03/2024
html-keyboard-response,79,161889,0.0-35.0-0.0,1315.0,"<div style=""display: flex; flex-direction: column; align-items: center; margin-top: -40px;""><img src=""images/pattern_3.png"" style=""width: 234px; height: 230px; margin-top: -50px;""><div style=""display: flex; justify-content: space-between; margin-top: 33px;""><img src=""images/choice_trial_6.png"" style=""width: 408px; height: 417px; margin-right: 200px;""><img src=""images/choice_trial_5.png"" style=""width: 408px; height: 417px;""></div></div>",f,delaylearn,learning,trial,AFsdxWnfiaYgNhMU5JixdYZP24w1,AFsdxWnfiaYgNhMU5JixdYZP24w1,1.0,images/choice_trial_6.png,images/choice_trial_5.png,images/pattern_3.png,f,j,7000.0,6.0,5.0,2.0,1.0,15.0,0.0,1.0,6.0,110.0,,,,,,62ac70ac67b1d7d5b5f46c02,16:30:18,27/03/2024
html-keyboard-response,80,162893,0.0-35.0-1.0,,"<div style=""display: flex; flex-direction: column; align-items: center; margin-top: -40px;""><img src=""images/pattern_3.png"" style=""width: 234px; height: 230px; margin-top: -50px;""><div style=""display: flex; justify-content: space-between; margin-top: 33px;""><img src=""images/choice_trial_6.png"" style=""width: 408px; height: 417px; margin-right: 608px;""></div></div>",,delaylearn,learning,display_response,AFsdxWnfiaYgNhMU5JixdYZP24w1,AFsdxWnfiaYgNhMU5JixdYZP24w1,,,,,,,,,,,,,,,,,chosen stimuli: images/choice_trial_6.png,,,,,62ac70ac67b1d7d5b5f46c02,16:30:18,27/03/2024
html-keyboard-response,81,169896,0.0-35.0-2.0,,,,delaylearn,learning,feedback_duration_window,AFsdxWnfiaYgNhMU5JixdYZP24w1,AFsdxWnfiaYgNhMU5JixdYZP24w1,,,,,,,,,,,,,,,,,,7000.0,,,,62ac70ac67b1d7d5b5f46c02,16:30:18,27/03/2024
html-keyboard-response,82,171400,0.0-35.0-3.0,,<div style='margin:auto;width: auto; font-size: 150%'><span style='font-weight: bold; font-size: 100px; color: green;'>+10 points!</span><br><br></div>,,delaylearn,learning,feedback_image_window,AFsdxWnfiaYgNhMU5JixdYZP24w1,AFsdxWnfiaYgNhMU5JixdYZP24w1,,,,,,,,,,,,,,,,,,,,,,62ac70ac67b1d7d5b5f46c02,16:30:18,27/03/2024
html-keyboard-response,83,173585,0.0-36.0,,"<div style=""font-size:100px;"">+</div>",,delaylearn,learning,ITI,AFsdxWnfiaYgNhMU5JixdYZP24w1,AFsdxWnfiaYgNhMU5JixdYZP24w1,,,,,,,,,,,,,,,,,,,2182.0,,,62ac70ac67b1d7d5b5f46c02,16:30:18,27/03/2024
html-keyboard-response,84,175991,0.0-37.0-0.0,2402.0,"<div style=""display: flex; flex-direction: column; align-items: center; margin-top: -40px;""><img src=""images/pattern_5.png"" style=""width: 234px; height: 230px; margin-top: -50px;""><div style=""display: flex; justify-content: space-between; margin-top: 33px;""><img src=""images/choice_trial_9.png"" style=""width: 408px; height: 417px; margin-right: 200px;""><img src=""images/choice_trial_10.png"" style=""width: 408px; height: 417px;""></div></div>",j,delaylearn,learning,trial,AFsdxWnfiaYgNhMU5JixdYZP24w1,AFsdxWnfiaYgNhMU5JixdYZP24w1,1.0,images/choice_trial_9.png,images/choice_trial_10.png,images/pattern_5.png,f,f,750.0,9.0,10.0,4.0,0.0,16.0,0.0,0.0,10.0,110.0,,,,,,62ac70ac67b1d7d5b5f46c02,16:30:18,27/03/2024
html-keyboard-response,85,176995,0.0-37.0-1.0,,"<div style=""display: flex; flex-direction: column; align-items: center; margin-top: -40px;""><img src=""images/pattern_5.png"" style=""width: 234px; height: 230px; margin-top: -50px;""><div style=""display: flex; justify-content: space-between; margin-top: 33px;""><img src=""images/choice_trial_10.png"" style=""width: 408px; height: 417px; margin-left:608px;""></div></div>",,delaylearn,learning,display_response,AFsdxWnfiaYgNhMU5JixdYZP24w1,AFsdxWnfiaYgNhMU5JixdYZP24w1,,,,,,,,,,,,,,,,,chosen stimuli: images/choice_trial_10.png,,,,,62ac70ac67b1d7d5b5f46c02,16:30:18,27/03/2024
html-keyboard-response,86,177749,0.0-37.0-2.0,,,,delaylearn,learning,feedback_duration_window,AFsdxWnfiaYgNhMU5JixdYZP24w1,AFsdxWnfiaYgNhMU5JixdYZP24w1,,,,,,,,,,,,,,,,,,750.0,,,,62ac70ac67b1d7d5b5f46c02,16:30:18,27/03/2024
html-keyboard-response,87,179253,0.0-37.0-3.0,,<div style='margin:auto;width: auto; font-size: 150%'><span style='font-weight: bold; font-size: 100px; color: red;'>0 points!</span><br><br></div>,,delaylearn,learning,feedback_image_window,AFsdxWnfiaYgNhMU5JixdYZP24w1,AFsdxWnfiaYgNhMU5JixdYZP24w1,,,,,,,,,,,,,,,,,,,,,,62ac70ac67b1d7d5b5f46c02,16:30:18,27/03/2024
html-keyboard-response,88,179756,0.0-38.0-0.0,,,,,,mood_trial_fixation,AFsdxWnfiaYgNhMU5JixdYZP24w1,,,,,,,,,,,,,,,,,,,,,,,62ac70ac67b1d7d5b5f46c02,16:30:18,27/03/2024
lmdlab-html-vas-response,89,183374,0.0-38.0-1.0,2610.0,How happy are you right now?,0.38891782407407405,delaylearn,learning,mood_trial,AFsdxWnfiaYgNhMU5JixdYZP24w1,AFsdxWnfiaYgNhMU5JixdYZP24w1,,,,,,,,,,,,,,,,,,,,"['Very unhappy', 'Very happy']",,62ac70ac67b1d7d5b5f46c02,16:30:18,27/03/2024
html-keyboard-response,90,184919,0.0-39.0,,"<div style=""font-size:100px;"">+</div>",,delaylearn,learning,ITI,AFsdxWnfiaYgNhMU5JixdYZP24w1,AFsdxWnfiaYgNhMU5JixdYZP24w1,,,,,,,,,,,,,,,,,,,1542.0,,,62ac70ac67b1d7d5b5f46c02,16:30:18,27/03/2024
html-keyboard-response,91,186789,0.0-40.0-0.0,1865.0000000000582,"<div style=""display: flex; flex-direction: column; align-items: center; margin-top: -40px;""><img src=""images/pattern_6.png"" style=""width: 234px; height: 230px; margin-top: -50px;""><div style=""display: flex; justify-content: space-between; margin-top: 33px;""><img src=""images/choice_trial_11.png"" style=""width: 408px; height: 417px; margin-right: 200px;""><img src=""images/choice_trial_12.png"" style=""width: 408px; height: 417px;""></div></div>",f,delaylearn,learning,trial,AFsdxWnfiaYgNhMU5JixdYZP24w1,AFsdxWnfiaYgNhMU5JixdYZP24w1,1.0,images/choice_trial_11.png,images/choice_trial_12.png,images/pattern_6.png,f,f,750.0,11.0,12.0,5.0,0.0,17.0,1.0,1.0,11.0,120.0,,,,,,62ac70ac67b1d7d5b5f46c02,16:30:18,27/03/2024
html-keyboard-response,92,187793,0.0-40.0-1.0,,"<div style=""display: flex; flex-direction: column; align-items: center; margin-top: -40px;""><img src=""images/pattern_6.png"" style=""width: 234px; height: 230px; margin-top: -50px;""><div style=""display: flex; justify-content: space-between; margin-top: 33px;""><img src=""images/choice_trial_11.png"" style=""width: 408px; height: 417px; margin-right: 608px;""></div></div>",,delaylearn,learning,display_response,AFsdxWnfiaYgNhMU5JixdYZP24w1,AFsdxWnfiaYgNhMU5JixdYZP24w1,,,,,,,,,,,,,,,,,chosen stimuli: images/choice_trial_11.png,,,,,62ac70ac67b1d7d5b5f46c02,16:30:18,27/03/2024
html-keyboard-response,93,188546,0.0-40.0-2.0,,,,delaylearn,learning,feedback_duration_window,AFsdxWnfiaYgNhMU5JixdYZP24w1,AFsdxWnfiaYgNhMU5JixdYZP24w1,,,,,,,,,,,,,,,,,,750.0,,,,62ac70ac67b1d7d5b5f46c02,16:30:18,27/03/2024
html-keyboard-response,94,190050,0.0-40.0-3.0,,<div style='margin:auto;width: auto; font-size: 150%'><span style='font-weight: bold; font-size: 100px; color: green;'>+10 points!</span><br><br></div>,,delaylearn,learning,feedback_image_window,AFsdxWnfiaYgNhMU5JixdYZP24w1,AFsdxWnfiaYgNhMU5JixdYZP24w1,,,,,,,,,,,,,,,,,,,,,,62ac70ac67b1d7d5b5f46c02,16:30:18,27/03/2024
html-keyboard-response,95,191597,0.0-41.0,,"<div style=""font-size:100px;"">+</div>",,delaylearn,learning,ITI,AFsdxWnfiaYgNhMU5JixdYZP24w1,AFsdxWnfiaYgNhMU5JixdYZP24w1,,,,,,,,,,,,,,,,,,,1544.0,,,62ac70ac67b1d7d5b5f46c02,16:30:18,27/03/2024
html-keyboard-response,96,194562,0.0-42.0-0.0,2961.000000000058,"<div style=""display: flex; flex-direction: column; align-items: center; margin-top: -40px;""><img src=""images/pattern_4.png"" style=""width: 234px; height: 230px; margin-top: -50px;""><div style=""display: flex; justify-content: space-between; margin-top: 33px;""><img src=""images/choice_trial_8.png"" style=""width: 408px; height: 417px; margin-right: 200px;""><img src=""images/choice_trial_7.png"" style=""width: 408px; height: 417px;""></div></div>",f,delaylearn,learning,trial,AFsdxWnfiaYgNhMU5JixdYZP24w1,AFsdxWnfiaYgNhMU5JixdYZP24w1,1.0,images/choice_trial_8.png,images/choice_trial_7.png,images/pattern_4.png,j,j,7000.0,8.0,7.0,3.0,1.0,18.0,0.0,0.0,8.0,120.0,,,,,,62ac70ac67b1d7d5b5f46c02,16:30:18,27/03/2024
html-keyboard-response,97,195568,0.0-42.0-1.0,,"<div style=""display: flex; flex-direction: column; align-items: center; margin-top: -40px;""><img src=""images/pattern_4.png"" style=""width: 234px; height: 230px; margin-top: -50px;""><div style=""display: flex; justify-content: space-between; margin-top: 33px;""><img src=""images/choice_trial_8.png"" style=""width: 408px; height: 417px; margin-right: 608px;""></div></div>",,delaylearn,learning,display_response,AFsdxWnfiaYgNhMU5JixdYZP24w1,AFsdxWnfiaYgNhMU5JixdYZP24w1,,,,,,,,,,,,,,,,,chosen stimuli: images/choice_trial_8.png,,,,,62ac70ac67b1d7d5b5f46c02,16:30:18,27/03/2024
html-keyboard-response,98,202571,0.0-42.0-2.0,,,,delaylearn,learning,feedback_duration_window,AFsdxWnfiaYgNhMU5JixdYZP24w1,AFsdxWnfiaYgNhMU5JixdYZP24w1,,,,,,,,,,,,,,,,,,7000.0,,,,62ac70ac67b1d7d5b5f46c02,16:30:18,27/03/2024
html-keyboard-response,99,204074,0.0-42.0-3.0,,<div style='margin:auto;width: auto; font-size: 150%'><span style='font-weight: bold; font-size: 100px; color: red;'>0 points!</span><br><br></div>,,delaylearn,learning,feedback_image_window,AFsdxWnfiaYgNhMU5JixdYZP24w1,AFsdxWnfiaYgNhMU5JixdYZP24w1,,,,,,,,,,,,,,,,,,,,,,62ac70ac67b1d7d5b5f46c02,16:30:18,27/03/2024
html-keyboard-response,100,206370,0.0-43.0,,"<div style=""font-size:100px;"">+</div>",,delaylearn,learning,ITI,AFsdxWnfiaYgNhMU5JixdYZP24w1,AFsdxWnfiaYgNhMU5JixdYZP24w1,,,,,,,,,,,,,,,,,,,2292.0,,,62ac70ac67b1d7d5b5f46c02,16:30:18,27/03/2024
html-keyboard-response,101,208196,0.0-44.0-0.0,1822.0,"<div style=""display: flex; flex-direction: column; align-items: center; margin-top: -40px;""><img src=""images/pattern_7.png"" style=""width: 234px; height: 230px; margin-top: -50px;""><div style=""display: flex; justify-content: space-between; margin-top: 33px;""><img src=""images/choice_trial_13.png"" style=""width: 408px; height: 417px; margin-right: 200px;""><img src=""images/choice_trial_14.png"" style=""width: 408px; height: 417px;""></div></div>",j,delaylearn,learning,trial,AFsdxWnfiaYgNhMU5JixdYZP24w1,AFsdxWnfiaYgNhMU5JixdYZP24w1,1.0,images/choice_trial_13.png,images/choice_trial_14.png,images/pattern_7.png,j,f,750.0,13.0,14.0,6.0,0.0,19.0,0.0,1.0,14.0,130.0,,,,,,62ac70ac67b1d7d5b5f46c02,16:30:18,27/03/2024
html-keyboard-response,102,209200,0.0-44.0-1.0,,"<div style=""display: flex; flex-direction: column; align-items: center; margin-top: -40px;""><img src=""images/pattern_7.png"" style=""width: 234px; height: 230px; margin-top: -50px;""><div style=""display: flex; justify-content: space-between; margin-top: 33px;""><img src=""images/choice_trial_14.png"" style=""width: 408px; height: 417px; margin-left:608px;""></div></div>",,delaylearn,learning,display_response,AFsdxWnfiaYgNhMU5JixdYZP24w1,AFsdxWnfiaYgNhMU5JixdYZP24w1,,,,,,,,,,,,,,,,,chosen stimuli: images/choice_trial_14.png,,,,,62ac70ac67b1d7d5b5f46c02,16:30:18,27/03/2024
html-keyboard-response,103,209953,0.0-44.0-2.0,,,,delaylearn,learning,feedback_duration_window,AFsdxWnfiaYgNhMU5JixdYZP24w1,AFsdxWnfiaYgNhMU5JixdYZP24w1,,,,,,,,,,,,,,,,,,750.0,,,,62ac70ac67b1d7d5b5f46c02,16:30:18,27/03/2024
html-keyboard-response,104,211456,0.0-44.0-3.0,,<div style='margin:auto;width: auto; font-size: 150%'><span style='font-weight: bold; font-size: 100px; color: green;'>+10 points!</span><br><br></div>,,delaylearn,learning,feedback_image_window,AFsdxWnfiaYgNhMU5JixdYZP24w1,AFsdxWnfiaYgNhMU5JixdYZP24w1,,,,,,,,,,,,,,,,,,,,,,62ac70ac67b1d7d5b5f46c02,16:30:18,27/03/2024
html-keyboard-response,105,213893,0.0-45.0,,"<div style=""font-size:100px;"">+</div>",,delaylearn,learning,ITI,AFsdxWnfiaYgNhMU5JixdYZP24w1,AFsdxWnfiaYgNhMU5JixdYZP24w1,,,,,,,,,,,,,,,,,,,2434.0,,,62ac70ac67b1d7d5b5f46c02,16:30:18,27/03/2024
html-keyboard-response,106,215133,0.0-46.0-0.0,1235.0,"<div style=""display: flex; flex-direction: column; align-items: center; margin-top: -40px;""><img src=""images/pattern_1.png"" style=""width: 234px; height: 230px; margin-top: -50px;""><div style=""display: flex; justify-content: space-between; margin-top: 33px;""><img src=""images/choice_trial_1.png"" style=""width: 408px; height: 417px; margin-right: 200px;""><img src=""images/choice_trial_2.png"" style=""width: 408px; height: 417px;""></div></div>",f,delaylearn,learning,trial,AFsdxWnfiaYgNhMU5JixdYZP24w1,AFsdxWnfiaYgNhMU5JixdYZP24w1,1.0,images/choice_trial_1.png,images/choice_trial_2.png,images/pattern_1.png,f,f,7000.0,1.0,2.0,1.0,0.0,20.0,1.0,1.0,1.0,140.0,,,,,,62ac70ac67b1d7d5b5f46c02,16:30:18,27/03/2024
html-keyboard-response,107,216137,0.0-46.0-1.0,,"<div style=""display: flex; flex-direction: column; align-items: center; margin-top: -40px;""><img src=""images/pattern_1.png"" style=""width: 234px; height: 230px; margin-top: -50px;""><div style=""display: flex; justify-content: space-between; margin-top: 33px;""><img src=""images/choice_trial_1.png"" style=""width: 408px; height: 417px; margin-right: 608px;""></div></div>",,delaylearn,learning,display_response,AFsdxWnfiaYgNhMU5JixdYZP24w1,AFsdxWnfiaYgNhMU5JixdYZP24w1,,,,,,,,,,,,,,,,,chosen stimuli: images/choice_trial_1.png,,,,,62ac70ac67b1d7d5b5f46c02,16:30:18,27/03/2024
html-keyboard-response,108,223140,0.0-46.0-2.0,,,,delaylearn,learning,feedback_duration_window,AFsdxWnfiaYgNhMU5JixdYZP24w1,AFsdxWnfiaYgNhMU5JixdYZP24w1,,,,,,,,,,,,,,,,,,7000.0,,,,62ac70ac67b1d7d5b5f46c02,16:30:18,27/03/2024
html-keyboard-response,109,224644,0.0-46.0-3.0,,<div style='margin:auto;width: auto; font-size: 150%'><span style='font-weight: bold; font-size: 100px; color: green;'>+10 points!</span><br><br></div>,,delaylearn,learning,feedback_image_window,AFsdxWnfiaYgNhMU5JixdYZP24w1,AFsdxWnfiaYgNhMU5JixdYZP24w1,,,,,,,,,,,,,,,,,,,,,,62ac70ac67b1d7d5b5f46c02,16:30:18,27/03/2024
html-keyboard-response,110,226150,0.0-47.0,,"<div style=""font-size:100px;"">+</div>",,delaylearn,learning,ITI,AFsdxWnfiaYgNhMU5JixdYZP24w1,AFsdxWnfiaYgNhMU5JixdYZP24w1,,,,,,,,,,,,,,,,,,,1502.0,,,62ac70ac67b1d7d5b5f46c02,16:30:18,27/03/2024
html-keyboard-response,111,228358,0.0-48.0-0.0,2202.0,"<div style=""display: flex; flex-direction: column; align-items: center; margin-top: -40px;""><img src=""images/pattern_6.png"" style=""width: 234px; height: 230px; margin-top: -50px;""><div style=""display: flex; justify-content: space-between; margin-top: 33px;""><img src=""images/choice_trial_12.png"" style=""width: 408px; height: 417px; margin-right: 200px;""><img src=""images/choice_trial_11.png"" style=""width: 408px; height: 417px;""></div></div>",j,delaylearn,learning,trial,AFsdxWnfiaYgNhMU5JixdYZP24w1,AFsdxWnfiaYgNhMU5JixdYZP24w1,1.0,images/choice_trial_12.png,images/choice_trial_11.png,images/pattern_6.png,j,j,750.0,12.0,11.0,5.0,1.0,21.0,1.0,1.0,11.0,150.0,,,,,,62ac70ac67b1d7d5b5f46c02,16:30:18,27/03/2024
html-keyboard-response,112,229361,0.0-48.0-1.0,,"<div style=""display: flex; flex-direction: column; align-items: center; margin-top: -40px;""><img src=""images/pattern_6.png"" style=""width: 234px; height: 230px; margin-top: -50px;""><div style=""display: flex; justify-content: space-between; margin-top: 33px;""><img src=""images/choice_trial_11.png"" style=""width: 408px; height: 417px; margin-left:608px;""></div></div>",,delaylearn,learning,display_response,AFsdxWnfiaYgNhMU5JixdYZP24w1,AFsdxWnfiaYgNhMU5JixdYZP24w1,,,,,,,,,,,,,,,,,chosen stimuli: images/choice_trial_11.png,,,,,62ac70ac67b1d7d5b5f46c02,16:30:18,27/03/2024
html-keyboard-response,113,230114,0.0-48.0-2.0,,,,delaylearn,learning,feedback_duration_window,AFsdxWnfiaYgNhMU5JixdYZP24w1,AFsdxWnfiaYgNhMU5JixdYZP24w1,,,,,,,,,,,,,,,,,,750.0,,,,62ac70ac67b1d7d5b5f46c02,16:30:18,27/03/2024
html-keyboard-response,114,231618,0.0-48.0-3.0,,<div style='margin:auto;width: auto; font-size: 150%'><span style='font-weight: bold; font-size: 100px; color: green;'>+10 points!</span><br><br></div>,,delaylearn,learning,feedback_image_window,AFsdxWnfiaYgNhMU5JixdYZP24w1,AFsdxWnfiaYgNhMU5JixdYZP24w1,,,,,,,,,,,,,,,,,,,,,,62ac70ac67b1d7d5b5f46c02,16:30:18,27/03/2024
html-keyboard-response,115,233841,0.0-49.0,,"<div style=""font-size:100px;"">+</div>",,delaylearn,learning,ITI,AFsdxWnfiaYgNhMU5JixdYZP24w1,AFsdxWnfiaYgNhMU5JixdYZP24w1,,,,,,,,,,,,,,,,,,,2219.0,,,62ac70ac67b1d7d5b5f46c02,16:30:18,27/03/2024
html-keyboard-response,116,235488,0.0-50.0-0.0,1642.0,"<div style=""display: flex; flex-direction: column; align-items: center; margin-top: -40px;""><img src=""images/pattern_4.png"" style=""width: 234px; height: 230px; margin-top: -50px;""><div style=""display: flex; justify-content: space-between; margin-top: 33px;""><img src=""images/choice_trial_7.png"" style=""width: 408px; height: 417px; margin-right: 200px;""><img src=""images/choice_trial_8.png"" style=""width: 408px; height: 417px;""></div></div>",j,delaylearn,learning,trial,AFsdxWnfiaYgNhMU5JixdYZP24w1,AFsdxWnfiaYgNhMU5JixdYZP24w1,1.0,images/choice_trial_7.png,images/choice_trial_8.png,images/pattern_4.png,f,f,7000.0,7.0,8.0,3.0,0.0,22.0,0.0,0.0,8.0,150.0,,,,,,62ac70ac67b1d7d5b5f46c02,16:30:18,27/03/2024
html-keyboard-response,117,236491,0.0-50.0-1.0,,"<div style=""display: flex; flex-direction: column; align-items: center; margin-top: -40px;""><img src=""images/pattern_4.png"" style=""width: 234px; height: 230px; margin-top: -50px;""><div style=""display: flex; justify-content: space-between; margin-top: 33px;""><img src=""images/choice_trial_8.png"" style=""width: 408px; height: 417px; margin-left:608px;""></div></div>",,delaylearn,learning,display_response,AFsdxWnfiaYgNhMU5JixdYZP24w1,AFsdxWnfiaYgNhMU5JixdYZP24w1,,,,,,,,,,,,,,,,,chosen stimuli: images/choice_trial_8.png,,,,,62ac70ac67b1d7d5b5f46c02,16:30:18,27/03/2024
html-keyboard-response,118,243495,0.0-50.0-2.0,,,,delaylearn,learning,feedback_duration_window,AFsdxWnfiaYgNhMU5JixdYZP24w1,AFsdxWnfiaYgNhMU5JixdYZP24w1,,,,,,,,,,,,,,,,,,7000.0,,,,62ac70ac67b1d7d5b5f46c02,16:30:18,27/03/2024
html-keyboard-response,119,245001,0.0-50.0-3.0,,<div style='margin:auto;width: auto; font-size: 150%'><span style='font-weight: bold; font-size: 100px; color: red;'>0 points!</span><br><br></div>,,delaylearn,learning,feedback_image_window,AFsdxWnfiaYgNhMU5JixdYZP24w1,AFsdxWnfiaYgNhMU5JixdYZP24w1,,,,,,,,,,,,,,,,,,,,,,62ac70ac67b1d7d5b5f46c02,16:30:18,27/03/2024
html-keyboard-response,120,245504,0.0-51.0-0.0,,,,,,mood_trial_fixation,AFsdxWnfiaYgNhMU5JixdYZP24w1,,,,,,,,,,,,,,,,,,,,,,,62ac70ac67b1d7d5b5f46c02,16:30:18,27/03/2024
lmdlab-html-vas-response,121,248877,0.0-51.0-1.0,2365.0,How happy are you right now?,0.41299189814814813,delaylearn,learning,mood_trial,AFsdxWnfiaYgNhMU5JixdYZP24w1,AFsdxWnfiaYgNhMU5JixdYZP24w1,,,,,,,,,,,,,,,,,,,,"['Very unhappy', 'Very happy']",,62ac70ac67b1d7d5b5f46c02,16:30:18,27/03/2024
html-keyboard-response,122,251371,0.0-52.0,,"<div style=""font-size:100px;"">+</div>",,delaylearn,learning,ITI,AFsdxWnfiaYgNhMU5JixdYZP24w1,AFsdxWnfiaYgNhMU5JixdYZP24w1,,,,,,,,,,,,,,,,,,,2492.0,,,62ac70ac67b1d7d5b5f46c02,16:30:18,27/03/2024
html-keyboard-response,123,253311,0.0-53.0-0.0,1936.0000000000582,"<div style=""display: flex; flex-direction: column; align-items: center; margin-top: -40px;""><img src=""images/pattern_7.png"" style=""width: 234px; height: 230px; margin-top: -50px;""><div style=""display: flex; justify-content: space-between; margin-top: 33px;""><img src=""images/choice_trial_14.png"" style=""width: 408px; height: 417px; margin-right: 200px;""><img src=""images/choice_trial_13.png"" style=""width: 408px; height: 417px;""></div></div>",f,delaylearn,learning,trial,AFsdxWnfiaYgNhMU5JixdYZP24w1,AFsdxWnfiaYgNhMU5JixdYZP24w1,1.0,images/choice_trial_14.png,images/choice_trial_13.png,images/pattern_7.png,j,j,750.0,14.0,13.0,6.0,1.0,23.0,0.0,0.0,14.0,150.0,,,,,,62ac70ac67b1d7d5b5f46c02,16:30:18,27/03/2024
html-keyboard-response,124,254315,0.0-53.0-1.0,,"<div style=""display: flex; flex-direction: column; align-items: center; margin-top: -40px;""><img src=""images/pattern_7.png"" style=""width: 234px; height: 230px; margin-top: -50px;""><div style=""display: flex; justify-content: space-between; margin-top: 33px;""><img src=""images/choice_trial_14.png"" style=""width: 408px; height: 417px; margin-right: 608px;""></div></div>",,delaylearn,learning,display_response,AFsdxWnfiaYgNhMU5JixdYZP24w1,AFsdxWnfiaYgNhMU5JixdYZP24w1,,,,,,,,,,,,,,,,,chosen stimuli: images/choice_trial_14.png,,,,,62ac70ac67b1d7d5b5f46c02,16:30:18,27/03/2024
html-keyboard-response,125,255068,0.0-53.0-2.0,,,,delaylearn,learning,feedback_duration_window,AFsdxWnfiaYgNhMU5JixdYZP24w1,AFsdxWnfiaYgNhMU5JixdYZP24w1,,,,,,,,,,,,,,,,,,750.0,,,,62ac70ac67b1d7d5b5f46c02,16:30:18,27/03/2024
html-keyboard-response,126,256572,0.0-53.0-3.0,,<div style='margin:auto;width: auto; font-size: 150%'><span style='font-weight: bold; font-size: 100px; color: red;'>0 points!</span><br><br></div>,,delaylearn,learning,feedback_image_window,AFsdxWnfiaYgNhMU5JixdYZP24w1,AFsdxWnfiaYgNhMU5JixdYZP24w1,,,,,,,,,,,,,,,,,,,,,,62ac70ac67b1d7d5b5f46c02,16:30:18,27/03/2024
html-keyboard-response,127,258082,0.0-54.0,,"<div style=""font-size:100px;"">+</div>",,delaylearn,learning,ITI,AFsdxWnfiaYgNhMU5JixdYZP24w1,AFsdxWnfiaYgNhMU5JixdYZP24w1,,,,,,,,,,,,,,,,,,,1506.0,,,62ac70ac67b1d7d5b5f46c02,16:30:18,27/03/2024
html-keyboard-response,128,259050,0.0-55.0-0.0,964.0,"<div style=""display: flex; flex-direction: column; align-items: center; margin-top: -40px;""><img src=""images/pattern_1.png"" style=""width: 234px; height: 230px; margin-top: -50px;""><div style=""display: flex; justify-content: space-between; margin-top: 33px;""><img src=""images/choice_trial_2.png"" style=""width: 408px; height: 417px; margin-right: 200px;""><img src=""images/choice_trial_1.png"" style=""width: 408px; height: 417px;""></div></div>",j,delaylearn,learning,trial,AFsdxWnfiaYgNhMU5JixdYZP24w1,AFsdxWnfiaYgNhMU5JixdYZP24w1,1.0,images/choice_trial_2.png,images/choice_trial_1.png,images/pattern_1.png,f,j,7000.0,2.0,1.0,1.0,1.0,24.0,1.0,0.0,1.0,150.0,,,,,,62ac70ac67b1d7d5b5f46c02,16:30:18,27/03/2024
html-keyboard-response,129,260054,0.0-55.0-1.0,,"<div style=""display: flex; flex-direction: column; align-items: center; margin-top: -40px;""><img src=""images/pattern_1.png"" style=""width: 234px; height: 230px; margin-top: -50px;""><div style=""display: flex; justify-content: space-between; margin-top: 33px;""><img src=""images/choice_trial_1.png"" style=""width: 408px; height: 417px; margin-left:608px;""></div></div>",,delaylearn,learning,display_response,AFsdxWnfiaYgNhMU5JixdYZP24w1,AFsdxWnfiaYgNhMU5JixdYZP24w1,,,,,,,,,,,,,,,,,chosen stimuli: images/choice_trial_1.png,,,,,62ac70ac67b1d7d5b5f46c02,16:30:18,27/03/2024
html-keyboard-response,130,267057,0.0-55.0-2.0,,,,delaylearn,learning,feedback_duration_window,AFsdxWnfiaYgNhMU5JixdYZP24w1,AFsdxWnfiaYgNhMU5JixdYZP24w1,,,,,,,,,,,,,,,,,,7000.0,,,,62ac70ac67b1d7d5b5f46c02,16:30:18,27/03/2024
html-keyboard-response,131,268561,0.0-55.0-3.0,,<div style='margin:auto;width: auto; font-size: 150%'><span style='font-weight: bold; font-size: 100px; color: red;'>0 points!</span><br><br></div>,,delaylearn,learning,feedback_image_window,AFsdxWnfiaYgNhMU5JixdYZP24w1,AFsdxWnfiaYgNhMU5JixdYZP24w1,,,,,,,,,,,,,,,,,,,,,,62ac70ac67b1d7d5b5f46c02,16:30:18,27/03/2024
html-keyboard-response,132,270265,0.0-56.0,,"<div style=""font-size:100px;"">+</div>",,delaylearn,learning,ITI,AFsdxWnfiaYgNhMU5JixdYZP24w1,AFsdxWnfiaYgNhMU5JixdYZP24w1,,,,,,,,,,,,,,,,,,,1700.0,,,62ac70ac67b1d7d5b5f46c02,16:30:18,27/03/2024
html-keyboard-response,133,273271,0.0-57.0-0.0,,"<div style=""display: flex; flex-direction: column; align-items: center; margin-top: -40px;""><img src=""images/pattern_5.png"" style=""width: 234px; height: 230px; margin-top: -50px;""><div style=""display: flex; justify-content: space-between; margin-top: 33px;""><img src=""images/choice_trial_10.png"" style=""width: 408px; height: 417px; margin-right: 200px;""><img src=""images/choice_trial_9.png"" style=""width: 408px; height: 417px;""></div></div>",,delaylearn,learning,trial,AFsdxWnfiaYgNhMU5JixdYZP24w1,AFsdxWnfiaYgNhMU5JixdYZP24w1,1.0,images/choice_trial_10.png,images/choice_trial_9.png,images/pattern_5.png,j,j,750.0,10.0,9.0,4.0,1.0,25.0,0.0,0.0,0.0,150.0,,,,,,62ac70ac67b1d7d5b5f46c02,16:30:18,27/03/2024
html-keyboard-response,134,274277,0.0-57.0-1.0,,<div style='font-weight: bold; font-size: 75px; color: red;'>Missed Trial <br><br><br><br> Please respond faster</div>,,delaylearn,learning,display_response,AFsdxWnfiaYgNhMU5JixdYZP24w1,AFsdxWnfiaYgNhMU5JixdYZP24w1,,,,,,,,,,,,,,,,,Missed trial,,,,,62ac70ac67b1d7d5b5f46c02,16:30:18,27/03/2024
html-keyboard-response,135,274307,0.0-57.0-2.0,,,,delaylearn,learning,feedback_duration_window,AFsdxWnfiaYgNhMU5JixdYZP24w1,AFsdxWnfiaYgNhMU5JixdYZP24w1,,,,,,,,,,,,,,,,,,0.0,,,,62ac70ac67b1d7d5b5f46c02,16:30:18,27/03/2024
html-keyboard-response,136,274336,0.0-57.0-3.0,,,,delaylearn,learning,feedback_image_window,AFsdxWnfiaYgNhMU5JixdYZP24w1,AFsdxWnfiaYgNhMU5JixdYZP24w1,,,,,,,,,,,,,,,,,,,,,,62ac70ac67b1d7d5b5f46c02,16:30:18,27/03/2024
html-keyboard-response,137,276527,0.0-58.0,,"<div style=""font-size:100px;"">+</div>",,delaylearn,learning,ITI,AFsdxWnfiaYgNhMU5JixdYZP24w1,AFsdxWnfiaYgNhMU5JixdYZP24w1,,,,,,,,,,,,,,,,,,,2173.0,,,62ac70ac67b1d7d5b5f46c02,16:30:18,27/03/2024
html-keyboard-response,138,277337,0.0-59.0-0.0,803.9999999999418,"<div style=""display: flex; flex-direction: column; align-items: center; margin-top: -40px;""><img src=""images/pattern_3.png"" style=""width: 234px; height: 230px; margin-top: -50px;""><div style=""display: flex; justify-content: space-between; margin-top: 33px;""><img src=""images/choice_trial_6.png"" style=""width: 408px; height: 417px; margin-right: 200px;""><img src=""images/choice_trial_5.png"" style=""width: 408px; height: 417px;""></div></div>",f,delaylearn,learning,trial,AFsdxWnfiaYgNhMU5JixdYZP24w1,AFsdxWnfiaYgNhMU5JixdYZP24w1,1.0,images/choice_trial_6.png,images/choice_trial_5.png,images/pattern_3.png,j,j,7000.0,6.0,5.0,2.0,1.0,26.0,0.0,0.0,6.0,150.0,,,,,,62ac70ac67b1d7d5b5f46c02,16:30:18,27/03/2024
html-keyboard-response,139,278340,0.0-59.0-1.0,,"<div style=""display: flex; flex-direction: column; align-items: center; margin-top: -40px;""><img src=""images/pattern_3.png"" style=""width: 234px; height: 230px; margin-top: -50px;""><div style=""display: flex; justify-content: space-between; margin-top: 33px;""><img src=""images/choice_trial_6.png"" style=""width: 408px; height: 417px; margin-right: 608px;""></div></div>",,delaylearn,learning,display_response,AFsdxWnfiaYgNhMU5JixdYZP24w1,AFsdxWnfiaYgNhMU5JixdYZP24w1,,,,,,,,,,,,,,,,,chosen stimuli: images/choice_trial_6.png,,,,,62ac70ac67b1d7d5b5f46c02,16:30:18,27/03/2024
html-keyboard-response,140,285344,0.0-59.0-2.0,,,,delaylearn,learning,feedback_duration_window,AFsdxWnfiaYgNhMU5JixdYZP24w1,AFsdxWnfiaYgNhMU5JixdYZP24w1,,,,,,,,,,,,,,,,,,7000.0,,,,62ac70ac67b1d7d5b5f46c02,16:30:18,27/03/2024
html-keyboard-response,141,286847,0.0-59.0-3.0,,<div style='margin:auto;width: auto; font-size: 150%'><span style='font-weight: bold; font-size: 100px; color: red;'>0 points!</span><br><br></div>,,delaylearn,learning,feedback_image_window,AFsdxWnfiaYgNhMU5JixdYZP24w1,AFsdxWnfiaYgNhMU5JixdYZP24w1,,,,,,,,,,,,,,,,,,,,,,62ac70ac67b1d7d5b5f46c02,16:30:18,27/03/2024
lmdlab-html-vas-response,142,292224,0.0-60.0-0.0,3866.0,*How <b><u>confident</u></b> are you feeling about your answers at this moment?*,0.24814814814814815,rewlearn,rate_confidence,,AFsdxWnfiaYgNhMU5JixdYZP24w1,AFsdxWnfiaYgNhMU5JixdYZP24w1,,,,,,,,,,,,,,,,,,,,"['No confidence', 'Complete confidence']",,62ac70ac67b1d7d5b5f46c02,16:30:18,27/03/2024
lmdlab-rest-trial-limit,143,302191,0.0-60.0-1.0,8462.999999999942,"<div style=""font-size:40px;""><b>Please take a break!</b><br><br><br><br><p>Great work: you earned 150 points.<br><br><br><p>You have completed part(s) 1 of 5.<br><br><br><br>When you are ready to continue<br><br><br>please click the button.</p><br><br>",0,delaylearn,learning,break,AFsdxWnfiaYgNhMU5JixdYZP24w1,AFsdxWnfiaYgNhMU5JixdYZP24w1,,,,,,,,,,,,,,,,,,,,,0.0,62ac70ac67b1d7d5b5f46c02,16:30:18,27/03/2024
html-keyboard-response,144,305193,0.0-60.0-2.0,,"<div style=""font-size:100px;"">+</div>",,delaylearn,learning,pre_fixation,AFsdxWnfiaYgNhMU5JixdYZP24w1,,,,,,,,,,,,,,,,,,,,,,,62ac70ac67b1d7d5b5f46c02,16:30:18,27/03/2024
lmdlab-html-vas-response,145,309091,0.0-60.0-3.0-0.0,2887.0,How happy are you right now?,0.5592881944444444,delaylearn,learning,mood_baseline,AFsdxWnfiaYgNhMU5JixdYZP24w1,AFsdxWnfiaYgNhMU5JixdYZP24w1,,,,,,,,,,,,,,,,,,,,"['Very unhappy', 'Very happy']",,62ac70ac67b1d7d5b5f46c02,16:30:18,27/03/2024
html-keyboard-response,146,310594,0.0-60.0-3.0-1.0,,,,,,mood_baseline_fixation,AFsdxWnfiaYgNhMU5JixdYZP24w1,,,,,,,,,,,,,,,,,,,,,,,62ac70ac67b1d7d5b5f46c02,16:30:18,27/03/2024
html-keyboard-response,147,312908,0.0-61.0,,"<div style=""font-size:100px;"">+</div>",,delaylearn,learning,ITI,AFsdxWnfiaYgNhMU5JixdYZP24w1,AFsdxWnfiaYgNhMU5JixdYZP24w1,,,,,,,,,,,,,,,,,,,2311.0,,,62ac70ac67b1d7d5b5f46c02,16:30:18,27/03/2024
html-keyboard-response,148,313924,0.0-62.0-0.0,1010.9999999998836,"<div style=""display: flex; flex-direction: column; align-items: center; margin-top: -40px;""><img src=""images/pattern_7.png"" style=""width: 234px; height: 230px; margin-top: -50px;""><div style=""display: flex; justify-content: space-between; margin-top: 33px;""><img src=""images/choice_trial_14.png"" style=""width: 408px; height: 417px; margin-right: 200px;""><img src=""images/choice_trial_13.png"" style=""width: 408px; height: 417px;""></div></div>",f,delaylearn,learning,trial,AFsdxWnfiaYgNhMU5JixdYZP24w1,AFsdxWnfiaYgNhMU5JixdYZP24w1,1.0,images/choice_trial_14.png,images/choice_trial_13.png,images/pattern_7.png,j,j,750.0,14.0,13.0,6.0,1.0,27.0,0.0,0.0,14.0,150.0,,,,,,62ac70ac67b1d7d5b5f46c02,16:30:18,27/03/2024
html-keyboard-response,149,314927,0.0-62.0-1.0,,"<div style=""display: flex; flex-direction: column; align-items: center; margin-top: -40px;""><img src=""images/pattern_7.png"" style=""width: 234px; height: 230px; margin-top: -50px;""><div style=""display: flex; justify-content: space-between; margin-top: 33px;""><img src=""images/choice_trial_14.png"" style=""width: 408px; height: 417px; margin-right: 608px;""></div></div>",,delaylearn,learning,display_response,AFsdxWnfiaYgNhMU5JixdYZP24w1,AFsdxWnfiaYgNhMU5JixdYZP24w1,,,,,,,,,,,,,,,,,chosen stimuli: images/choice_trial_14.png,,,,,62ac70ac67b1d7d5b5f46c02,16:30:18,27/03/2024
html-keyboard-response,150,315680,0.0-62.0-2.0,,,,delaylearn,learning,feedback_duration_window,AFsdxWnfiaYgNhMU5JixdYZP24w1,AFsdxWnfiaYgNhMU5JixdYZP24w1,,,,,,,,,,,,,,,,,,750.0,,,,62ac70ac67b1d7d5b5f46c02,16:30:18,27/03/2024
html-keyboard-response,151,317184,0.0-62.0-3.0,,<div style='margin:auto;width: auto; font-size: 150%'><span style='font-weight: bold; font-size: 100px; color: red;'>0 points!</span><br><br></div>,,delaylearn,learning,feedback_image_window,AFsdxWnfiaYgNhMU5JixdYZP24w1,AFsdxWnfiaYgNhMU5JixdYZP24w1,,,,,,,,,,,,,,,,,,,,,,62ac70ac67b1d7d5b5f46c02,16:30:18,27/03/2024
html-keyboard-response,152,317685,0.0-63.0-0.0,,,,,,mood_trial_fixation,AFsdxWnfiaYgNhMU5JixdYZP24w1,,,,,,,,,,,,,,,,,,,,,,,62ac70ac67b1d7d5b5f46c02,16:30:18,27/03/2024
lmdlab-html-vas-response,153,321441,0.0-63.0-1.0,2747.0,How happy are you right now?,0.3074363425925926,delaylearn,learning,mood_trial,AFsdxWnfiaYgNhMU5JixdYZP24w1,AFsdxWnfiaYgNhMU5JixdYZP24w1,,,,,,,,,,,,,,,,,,,,"['Very unhappy', 'Very happy']",,62ac70ac67b1d7d5b5f46c02,16:30:18,27/03/2024
html-keyboard-response,154,323495,0.0-64.0,,"<div style=""font-size:100px;"">+</div>",,delaylearn,learning,ITI,AFsdxWnfiaYgNhMU5JixdYZP24w1,AFsdxWnfiaYgNhMU5JixdYZP24w1,,,,,,,,,,,,,,,,,,,2052.0,,,62ac70ac67b1d7d5b5f46c02,16:30:18,27/03/2024
html-keyboard-response,155,325080,0.0-65.0-0.0,1578.0,"<div style=""display: flex; flex-direction: column; align-items: center; margin-top: -40px;""><img src=""images/pattern_1.png"" style=""width: 234px; height: 230px; margin-top: -50px;""><div style=""display: flex; justify-content: space-between; margin-top: 33px;""><img src=""images/choice_trial_1.png"" style=""width: 408px; height: 417px; margin-right: 200px;""><img src=""images/choice_trial_2.png"" style=""width: 408px; height: 417px;""></div></div>",f,delaylearn,learning,trial,AFsdxWnfiaYgNhMU5JixdYZP24w1,AFsdxWnfiaYgNhMU5JixdYZP24w1,1.0,images/choice_trial_1.png,images/choice_trial_2.png,images/pattern_1.png,f,f,7000.0,1.0,2.0,1.0,0.0,28.0,1.0,1.0,1.0,160.0,,,,,,62ac70ac67b1d7d5b5f46c02,16:30:18,27/03/2024
html-keyboard-response,156,326083,0.0-65.0-1.0,,"<div style=""display: flex; flex-direction: column; align-items: center; margin-top: -40px;""><img src=""images/pattern_1.png"" style=""width: 234px; height: 230px; margin-top: -50px;""><div style=""display: flex; justify-content: space-between; margin-top: 33px;""><img src=""images/choice_trial_1.png"" style=""width: 408px; height: 417px; margin-right: 608px;""></div></div>",,delaylearn,learning,display_response,AFsdxWnfiaYgNhMU5JixdYZP24w1,AFsdxWnfiaYgNhMU5JixdYZP24w1,,,,,,,,,,,,,,,,,chosen stimuli: images/choice_trial_1.png,,,,,62ac70ac67b1d7d5b5f46c02,16:30:18,27/03/2024
html-keyboard-response,157,333087,0.0-65.0-2.0,,,,delaylearn,learning,feedback_duration_window,AFsdxWnfiaYgNhMU5JixdYZP24w1,AFsdxWnfiaYgNhMU5JixdYZP24w1,,,,,,,,,,,,,,,,,,7000.0,,,,62ac70ac67b1d7d5b5f46c02,16:30:18,27/03/2024
html-keyboard-response,158,334590,0.0-65.0-3.0,,<div style='margin:auto;width: auto; font-size: 150%'><span style='font-weight: bold; font-size: 100px; color: green;'>+10 points!</span><br><br></div>,,delaylearn,learning,feedback_image_window,AFsdxWnfiaYgNhMU5JixdYZP24w1,AFsdxWnfiaYgNhMU5JixdYZP24w1,,,,,,,,,,,,,,,,,,,,,,62ac70ac67b1d7d5b5f46c02,16:30:18,27/03/2024
html-keyboard-response,159,336458,0.0-66.0,,"<div style=""font-size:100px;"">+</div>",,delaylearn,learning,ITI,AFsdxWnfiaYgNhMU5JixdYZP24w1,AFsdxWnfiaYgNhMU5JixdYZP24w1,,,,,,,,,,,,,,,,,,,1865.0,,,62ac70ac67b1d7d5b5f46c02,16:30:18,27/03/2024
html-keyboard-response,160,338106,0.0-67.0-0.0,1643.0,"<div style=""display: flex; flex-direction: column; align-items: center; margin-top: -40px;""><img src=""images/pattern_5.png"" style=""width: 234px; height: 230px; margin-top: -50px;""><div style=""display: flex; justify-content: space-between; margin-top: 33px;""><img src=""images/choice_trial_9.png"" style=""width: 408px; height: 417px; margin-right: 200px;""><img src=""images/choice_trial_10.png"" style=""width: 408px; height: 417px;""></div></div>",f,delaylearn,learning,trial,AFsdxWnfiaYgNhMU5JixdYZP24w1,AFsdxWnfiaYgNhMU5JixdYZP24w1,1.0,images/choice_trial_9.png,images/choice_trial_10.png,images/pattern_5.png,f,f,750.0,9.0,10.0,4.0,0.0,29.0,1.0,1.0,9.0,170.0,,,,,,62ac70ac67b1d7d5b5f46c02,16:30:18,27/03/2024
html-keyboard-response,161,339109,0.0-67.0-1.0,,"<div style=""display: flex; flex-direction: column; align-items: center; margin-top: -40px;""><img src=""images/pattern_5.png"" style=""width: 234px; height: 230px; margin-top: -50px;""><div style=""display: flex; justify-content: space-between; margin-top: 33px;""><img src=""images/choice_trial_9.png"" style=""width: 408px; height: 417px; margin-right: 608px;""></div></div>",,delaylearn,learning,display_response,AFsdxWnfiaYgNhMU5JixdYZP24w1,AFsdxWnfiaYgNhMU5JixdYZP24w1,,,,,,,,,,,,,,,,,chosen stimuli: images/choice_trial_9.png,,,,,62ac70ac67b1d7d5b5f46c02,16:30:18,27/03/2024
html-keyboard-response,162,339862,0.0-67.0-2.0,,,,delaylearn,learning,feedback_duration_window,AFsdxWnfiaYgNhMU5JixdYZP24w1,AFsdxWnfiaYgNhMU5JixdYZP24w1,,,,,,,,,,,,,,,,,,750.0,,,,62ac70ac67b1d7d5b5f46c02,16:30:18,27/03/2024
html-keyboard-response,163,341366,0.0-67.0-3.0,,<div style='margin:auto;width: auto; font-size: 150%'><span style='font-weight: bold; font-size: 100px; color: green;'>+10 points!</span><br><br></div>,,delaylearn,learning,feedback_image_window,AFsdxWnfiaYgNhMU5JixdYZP24w1,AFsdxWnfiaYgNhMU5JixdYZP24w1,,,,,,,,,,,,,,,,,,,,,,62ac70ac67b1d7d5b5f46c02,16:30:18,27/03/2024
html-keyboard-response,164,343716,0.0-68.0,,"<div style=""font-size:100px;"">+</div>",,delaylearn,learning,ITI,AFsdxWnfiaYgNhMU5JixdYZP24w1,AFsdxWnfiaYgNhMU5JixdYZP24w1,,,,,,,,,,,,,,,,,,,2347.0,,,62ac70ac67b1d7d5b5f46c02,16:30:18,27/03/2024
html-keyboard-response,165,346639,0.0-69.0-0.0,2917.0,"<div style=""display: flex; flex-direction: column; align-items: center; margin-top: -40px;""><img src=""images/pattern_6.png"" style=""width: 234px; height: 230px; margin-top: -50px;""><div style=""display: flex; justify-content: space-between; margin-top: 33px;""><img src=""images/choice_trial_12.png"" style=""width: 408px; height: 417px; margin-right: 200px;""><img src=""images/choice_trial_11.png"" style=""width: 408px; height: 417px;""></div></div>",j,delaylearn,learning,trial,AFsdxWnfiaYgNhMU5JixdYZP24w1,AFsdxWnfiaYgNhMU5JixdYZP24w1,1.0,images/choice_trial_12.png,images/choice_trial_11.png,images/pattern_6.png,j,j,750.0,12.0,11.0,5.0,1.0,30.0,1.0,1.0,11.0,180.0,,,,,,62ac70ac67b1d7d5b5f46c02,16:30:18,27/03/2024
html-keyboard-response,166,347643,0.0-69.0-1.0,,"<div style=""display: flex; flex-direction: column; align-items: center; margin-top: -40px;""><img src=""images/pattern_6.png"" style=""width: 234px; height: 230px; margin-top: -50px;""><div style=""display: flex; justify-content: space-between; margin-top: 33px;""><img src=""images/choice_trial_11.png"" style=""width: 408px; height: 417px; margin-left:608px;""></div></div>",,delaylearn,learning,display_response,AFsdxWnfiaYgNhMU5JixdYZP24w1,AFsdxWnfiaYgNhMU5JixdYZP24w1,,,,,,,,,,,,,,,,,chosen stimuli: images/choice_trial_11.png,,,,,62ac70ac67b1d7d5b5f46c02,16:30:18,27/03/2024
html-keyboard-response,167,348397,0.0-69.0-2.0,,,,delaylearn,learning,feedback_duration_window,AFsdxWnfiaYgNhMU5JixdYZP24w1,AFsdxWnfiaYgNhMU5JixdYZP24w1,,,,,,,,,,,,,,,,,,750.0,,,,62ac70ac67b1d7d5b5f46c02,16:30:18,27/03/2024
html-keyboard-response,168,349900,0.0-69.0-3.0,,<div style='margin:auto;width: auto; font-size: 150%'><span style='font-weight: bold; font-size: 100px; color: green;'>+10 points!</span><br><br></div>,,delaylearn,learning,feedback_image_window,AFsdxWnfiaYgNhMU5JixdYZP24w1,AFsdxWnfiaYgNhMU5JixdYZP24w1,,,,,,,,,,,,,,,,,,,,,,62ac70ac67b1d7d5b5f46c02,16:30:18,27/03/2024
html-keyboard-response,169,350404,0.0-70.0-0.0,,,,,,mood_trial_fixation,AFsdxWnfiaYgNhMU5JixdYZP24w1,,,,,,,,,,,,,,,,,,,,,,,62ac70ac67b1d7d5b5f46c02,16:30:18,27/03/2024
lmdlab-html-vas-response,170,354006,0.0-70.0-1.0,2595.0,How happy are you right now?,0.7000289351851852,delaylearn,learning,mood_trial,AFsdxWnfiaYgNhMU5JixdYZP24w1,AFsdxWnfiaYgNhMU5JixdYZP24w1,,,,,,,,,,,,,,,,,,,,"['Very unhappy', 'Very happy']",,62ac70ac67b1d7d5b5f46c02,16:30:18,27/03/2024
html-keyboard-response,171,356080,0.0-71.0,,"<div style=""font-size:100px;"">+</div>",,delaylearn,learning,ITI,AFsdxWnfiaYgNhMU5JixdYZP24w1,AFsdxWnfiaYgNhMU5JixdYZP24w1,,,,,,,,,,,,,,,,,,,2071.0,,,62ac70ac67b1d7d5b5f46c02,16:30:18,27/03/2024
html-keyboard-response,172,359085,0.0-72.0-0.0,,"<div style=""display: flex; flex-direction: column; align-items: center; margin-top: -40px;""><img src=""images/pattern_4.png"" style=""width: 234px; height: 230px; margin-top: -50px;""><div style=""display: flex; justify-content: space-between; margin-top: 33px;""><img src=""images/choice_trial_8.png"" style=""width: 408px; height: 417px; margin-right: 200px;""><img src=""images/choice_trial_7.png"" style=""width: 408px; height: 417px;""></div></div>",,delaylearn,learning,trial,AFsdxWnfiaYgNhMU5JixdYZP24w1,AFsdxWnfiaYgNhMU5JixdYZP24w1,1.0,images/choice_trial_8.png,images/choice_trial_7.png,images/pattern_4.png,j,j,7000.0,8.0,7.0,3.0,1.0,31.0,0.0,0.0,0.0,180.0,,,,,,62ac70ac67b1d7d5b5f46c02,16:30:18,27/03/2024
html-keyboard-response,173,360089,0.0-72.0-1.0,,<div style='font-weight: bold; font-size: 75px; color: red;'>Missed Trial <br><br><br><br> Please respond faster</div>,,delaylearn,learning,display_response,AFsdxWnfiaYgNhMU5JixdYZP24w1,AFsdxWnfiaYgNhMU5JixdYZP24w1,,,,,,,,,,,,,,,,,Missed trial,,,,,62ac70ac67b1d7d5b5f46c02,16:30:18,27/03/2024
html-keyboard-response,174,360092,0.0-72.0-2.0,,,,delaylearn,learning,feedback_duration_window,AFsdxWnfiaYgNhMU5JixdYZP24w1,AFsdxWnfiaYgNhMU5JixdYZP24w1,,,,,,,,,,,,,,,,,,0.0,,,,62ac70ac67b1d7d5b5f46c02,16:30:18,27/03/2024
html-keyboard-response,175,360105,0.0-72.0-3.0,,,,delaylearn,learning,feedback_image_window,AFsdxWnfiaYgNhMU5JixdYZP24w1,AFsdxWnfiaYgNhMU5JixdYZP24w1,,,,,,,,,,,,,,,,,,,,,,62ac70ac67b1d7d5b5f46c02,16:30:18,27/03/2024
html-keyboard-response,176,362596,0.0-73.0,,"<div style=""font-size:100px;"">+</div>",,delaylearn,learning,ITI,AFsdxWnfiaYgNhMU5JixdYZP24w1,AFsdxWnfiaYgNhMU5JixdYZP24w1,,,,,,,,,,,,,,,,,,,2474.0,,,62ac70ac67b1d7d5b5f46c02,16:30:18,27/03/2024
html-keyboard-response,177,364101,0.0-74.0-0.0,1500.0,"<div style=""display: flex; flex-direction: column; align-items: center; margin-top: -40px;""><img src=""images/pattern_3.png"" style=""width: 234px; height: 230px; margin-top: -50px;""><div style=""display: flex; justify-content: space-between; margin-top: 33px;""><img src=""images/choice_trial_6.png"" style=""width: 408px; height: 417px; margin-right: 200px;""><img src=""images/choice_trial_5.png"" style=""width: 408px; height: 417px;""></div></div>",f,delaylearn,learning,trial,AFsdxWnfiaYgNhMU5JixdYZP24w1,AFsdxWnfiaYgNhMU5JixdYZP24w1,1.0,images/choice_trial_6.png,images/choice_trial_5.png,images/pattern_3.png,j,j,7000.0,6.0,5.0,2.0,1.0,32.0,0.0,0.0,6.0,180.0,,,,,,62ac70ac67b1d7d5b5f46c02,16:30:18,27/03/2024
html-keyboard-response,178,365104,0.0-74.0-1.0,,"<div style=""display: flex; flex-direction: column; align-items: center; margin-top: -40px;""><img src=""images/pattern_3.png"" style=""width: 234px; height: 230px; margin-top: -50px;""><div style=""display: flex; justify-content: space-between; margin-top: 33px;""><img src=""images/choice_trial_6.png"" style=""width: 408px; height: 417px; margin-right: 608px;""></div></div>",,delaylearn,learning,display_response,AFsdxWnfiaYgNhMU5JixdYZP24w1,AFsdxWnfiaYgNhMU5JixdYZP24w1,,,,,,,,,,,,,,,,,chosen stimuli: images/choice_trial_6.png,,,,,62ac70ac67b1d7d5b5f46c02,16:30:18,27/03/2024
html-keyboard-response,179,372107,0.0-74.0-2.0,,,,delaylearn,learning,feedback_duration_window,AFsdxWnfiaYgNhMU5JixdYZP24w1,AFsdxWnfiaYgNhMU5JixdYZP24w1,,,,,,,,,,,,,,,,,,7000.0,,,,62ac70ac67b1d7d5b5f46c02,16:30:18,27/03/2024
html-keyboard-response,180,373610,0.0-74.0-3.0,,<div style='margin:auto;width: auto; font-size: 150%'><span style='font-weight: bold; font-size: 100px; color: red;'>0 points!</span><br><br></div>,,delaylearn,learning,feedback_image_window,AFsdxWnfiaYgNhMU5JixdYZP24w1,AFsdxWnfiaYgNhMU5JixdYZP24w1,,,,,,,,,,,,,,,,,,,,,,62ac70ac67b1d7d5b5f46c02,16:30:18,27/03/2024
html-keyboard-response,181,375193,0.0-75.0,,"<div style=""font-size:100px;"">+</div>",,delaylearn,learning,ITI,AFsdxWnfiaYgNhMU5JixdYZP24w1,AFsdxWnfiaYgNhMU5JixdYZP24w1,,,,,,,,,,,,,,,,,,,1580.0,,,62ac70ac67b1d7d5b5f46c02,16:30:18,27/03/2024
html-keyboard-response,182,376343,0.0-76.0-0.0,1145.0,"<div style=""display: flex; flex-direction: column; align-items: center; margin-top: -40px;""><img src=""images/pattern_5.png"" style=""width: 234px; height: 230px; margin-top: -50px;""><div style=""display: flex; justify-content: space-between; margin-top: 33px;""><img src=""images/choice_trial_9.png"" style=""width: 408px; height: 417px; margin-right: 200px;""><img src=""images/choice_trial_10.png"" style=""width: 408px; height: 417px;""></div></div>",f,delaylearn,learning,trial,AFsdxWnfiaYgNhMU5JixdYZP24w1,AFsdxWnfiaYgNhMU5JixdYZP24w1,1.0,images/choice_trial_9.png,images/choice_trial_10.png,images/pattern_5.png,j,f,750.0,9.0,10.0,4.0,0.0,33.0,1.0,0.0,9.0,180.0,,,,,,62ac70ac67b1d7d5b5f46c02,16:30:18,27/03/2024
html-keyboard-response,183,377347,0.0-76.0-1.0,,"<div style=""display: flex; flex-direction: column; align-items: center; margin-top: -40px;""><img src=""images/pattern_5.png"" style=""width: 234px; height: 230px; margin-top: -50px;""><div style=""display: flex; justify-content: space-between; margin-top: 33px;""><img src=""images/choice_trial_9.png"" style=""width: 408px; height: 417px; margin-right: 608px;""></div></div>",,delaylearn,learning,display_response,AFsdxWnfiaYgNhMU5JixdYZP24w1,AFsdxWnfiaYgNhMU5JixdYZP24w1,,,,,,,,,,,,,,,,,chosen stimuli: images/choice_trial_9.png,,,,,62ac70ac67b1d7d5b5f46c02,16:30:18,27/03/2024
html-keyboard-response,184,378100,0.0-76.0-2.0,,,,delaylearn,learning,feedback_duration_window,AFsdxWnfiaYgNhMU5JixdYZP24w1,AFsdxWnfiaYgNhMU5JixdYZP24w1,,,,,,,,,,,,,,,,,,750.0,,,,62ac70ac67b1d7d5b5f46c02,16:30:18,27/03/2024
html-keyboard-response,185,379602,0.0-76.0-3.0,,<div style='margin:auto;width: auto; font-size: 150%'><span style='font-weight: bold; font-size: 100px; color: red;'>0 points!</span><br><br></div>,,delaylearn,learning,feedback_image_window,AFsdxWnfiaYgNhMU5JixdYZP24w1,AFsdxWnfiaYgNhMU5JixdYZP24w1,,,,,,,,,,,,,,,,,,,,,,62ac70ac67b1d7d5b5f46c02,16:30:18,27/03/2024
html-keyboard-response,186,381582,0.0-77.0,,"<div style=""font-size:100px;"">+</div>",,delaylearn,learning,ITI,AFsdxWnfiaYgNhMU5JixdYZP24w1,AFsdxWnfiaYgNhMU5JixdYZP24w1,,,,,,,,,,,,,,,,,,,1977.0,,,62ac70ac67b1d7d5b5f46c02,16:30:18,27/03/2024
html-keyboard-response,187,382898,0.0-78.0-0.0,1307.0,"<div style=""display: flex; flex-direction: column; align-items: center; margin-top: -40px;""><img src=""images/pattern_1.png"" style=""width: 234px; height: 230px; margin-top: -50px;""><div style=""display: flex; justify-content: space-between; margin-top: 33px;""><img src=""images/choice_trial_1.png"" style=""width: 408px; height: 417px; margin-right: 200px;""><img src=""images/choice_trial_2.png"" style=""width: 408px; height: 417px;""></div></div>",f,delaylearn,learning,trial,AFsdxWnfiaYgNhMU5JixdYZP24w1,AFsdxWnfiaYgNhMU5JixdYZP24w1,1.0,images/choice_trial_1.png,images/choice_trial_2.png,images/pattern_1.png,f,f,7000.0,1.0,2.0,1.0,0.0,34.0,1.0,1.0,1.0,190.0,,,,,,62ac70ac67b1d7d5b5f46c02,16:30:18,27/03/2024
html-keyboard-response,188,383904,0.0-78.0-1.0,,"<div style=""display: flex; flex-direction: column; align-items: center; margin-top: -40px;""><img src=""images/pattern_1.png"" style=""width: 234px; height: 230px; margin-top: -50px;""><div style=""display: flex; justify-content: space-between; margin-top: 33px;""><img src=""images/choice_trial_1.png"" style=""width: 408px; height: 417px; margin-right: 608px;""></div></div>",,delaylearn,learning,display_response,AFsdxWnfiaYgNhMU5JixdYZP24w1,AFsdxWnfiaYgNhMU5JixdYZP24w1,,,,,,,,,,,,,,,,,chosen stimuli: images/choice_trial_1.png,,,,,62ac70ac67b1d7d5b5f46c02,16:30:18,27/03/2024
html-keyboard-response,189,390906,0.0-78.0-2.0,,,,delaylearn,learning,feedback_duration_window,AFsdxWnfiaYgNhMU5JixdYZP24w1,AFsdxWnfiaYgNhMU5JixdYZP24w1,,,,,,,,,,,,,,,,,,7000.0,,,,62ac70ac67b1d7d5b5f46c02,16:30:18,27/03/2024
html-keyboard-response,190,392410,0.0-78.0-3.0,,<div style='margin:auto;width: auto; font-size: 150%'><span style='font-weight: bold; font-size: 100px; color: green;'>+10 points!</span><br><br></div>,,delaylearn,learning,feedback_image_window,AFsdxWnfiaYgNhMU5JixdYZP24w1,AFsdxWnfiaYgNhMU5JixdYZP24w1,,,,,,,,,,,,,,,,,,,,,,62ac70ac67b1d7d5b5f46c02,16:30:18,27/03/2024
html-keyboard-response,191,392913,0.0-79.0-0.0,,,,,,mood_trial_fixation,AFsdxWnfiaYgNhMU5JixdYZP24w1,,,,,,,,,,,,,,,,,,,,,,,62ac70ac67b1d7d5b5f46c02,16:30:18,27/03/2024
lmdlab-html-vas-response,192,396358,0.0-79.0-1.0,2435.0,How happy are you right now?,0.5203993055555556,delaylearn,learning,mood_trial,AFsdxWnfiaYgNhMU5JixdYZP24w1,AFsdxWnfiaYgNhMU5JixdYZP24w1,,,,,,,,,,,,,,,,,,,,"['Very unhappy', 'Very happy']",,62ac70ac67b1d7d5b5f46c02,16:30:18,27/03/2024
html-keyboard-response,193,398428,0.0-80.0,,"<div style=""font-size:100px;"">+</div>",,delaylearn,learning,ITI,AFsdxWnfiaYgNhMU5JixdYZP24w1,AFsdxWnfiaYgNhMU5JixdYZP24w1,,,,,,,,,,,,,,,,,,,2068.0,,,62ac70ac67b1d7d5b5f46c02,16:30:18,27/03/2024
html-keyboard-response,194,400433,0.0-81.0-0.0,1999.0,"<div style=""display: flex; flex-direction: column; align-items: center; margin-top: -40px;""><img src=""images/pattern_6.png"" style=""width: 234px; height: 230px; margin-top: -50px;""><div style=""display: flex; justify-content: space-between; margin-top: 33px;""><img src=""images/choice_trial_11.png"" style=""width: 408px; height: 417px; margin-right: 200px;""><img src=""images/choice_trial_12.png"" style=""width: 408px; height: 417px;""></div></div>",f,delaylearn,learning,trial,AFsdxWnfiaYgNhMU5JixdYZP24w1,AFsdxWnfiaYgNhMU5JixdYZP24w1,1.0,images/choice_trial_11.png,images/choice_trial_12.png,images/pattern_6.png,j,f,750.0,11.0,12.0,5.0,0.0,35.0,1.0,0.0,11.0,190.0,,,,,,62ac70ac67b1d7d5b5f46c02,16:30:18,27/03/2024
html-keyboard-response,195,401437,0.0-81.0-1.0,,"<div style=""display: flex; flex-direction: column; align-items: center; margin-top: -40px;""><img src=""images/pattern_6.png"" style=""width: 234px; height: 230px; margin-top: -50px;""><div style=""display: flex; justify-content: space-between; margin-top: 33px;""><img src=""images/choice_trial_11.png"" style=""width: 408px; height: 417px; margin-right: 608px;""></div></div>",,delaylearn,learning,display_response,AFsdxWnfiaYgNhMU5JixdYZP24w1,AFsdxWnfiaYgNhMU5JixdYZP24w1,,,,,,,,,,,,,,,,,chosen stimuli: images/choice_trial_11.png,,,,,62ac70ac67b1d7d5b5f46c02,16:30:18,27/03/2024
html-keyboard-response,196,402190,0.0-81.0-2.0,,,,delaylearn,learning,feedback_duration_window,AFsdxWnfiaYgNhMU5JixdYZP24w1,AFsdxWnfiaYgNhMU5JixdYZP24w1,,,,,,,,,,,,,,,,,,750.0,,,,62ac70ac67b1d7d5b5f46c02,16:30:18,27/03/2024
html-keyboard-response,197,403691,0.0-81.0-3.0,,<div style='margin:auto;width: auto; font-size: 150%'><span style='font-weight: bold; font-size: 100px; color: red;'>0 points!</span><br><br></div>,,delaylearn,learning,feedback_image_window,AFsdxWnfiaYgNhMU5JixdYZP24w1,AFsdxWnfiaYgNhMU5JixdYZP24w1,,,,,,,,,,,,,,,,,,,,,,62ac70ac67b1d7d5b5f46c02,16:30:18,27/03/2024
html-keyboard-response,198,405717,0.0-82.0,,"<div style=""font-size:100px;"">+</div>",,delaylearn,learning,ITI,AFsdxWnfiaYgNhMU5JixdYZP24w1,AFsdxWnfiaYgNhMU5JixdYZP24w1,,,,,,,,,,,,,,,,,,,2023.0,,,62ac70ac67b1d7d5b5f46c02,16:30:18,27/03/2024
html-keyboard-response,199,407137,0.0-83.0-0.0,1416.0,"<div style=""display: flex; flex-direction: column; align-items: center; margin-top: -40px;""><img src=""images/pattern_3.png"" style=""width: 234px; height: 230px; margin-top: -50px;""><div style=""display: flex; justify-content: space-between; margin-top: 33px;""><img src=""images/choice_trial_6.png"" style=""width: 408px; height: 417px; margin-right: 200px;""><img src=""images/choice_trial_5.png"" style=""width: 408px; height: 417px;""></div></div>",f,delaylearn,learning,trial,AFsdxWnfiaYgNhMU5JixdYZP24w1,AFsdxWnfiaYgNhMU5JixdYZP24w1,1.0,images/choice_trial_6.png,images/choice_trial_5.png,images/pattern_3.png,j,j,7000.0,6.0,5.0,2.0,1.0,36.0,0.0,0.0,6.0,190.0,,,,,,62ac70ac67b1d7d5b5f46c02,16:30:18,27/03/2024
html-keyboard-response,200,408140,0.0-83.0-1.0,,"<div style=""display: flex; flex-direction: column; align-items: center; margin-top: -40px;""><img src=""images/pattern_3.png"" style=""width: 234px; height: 230px; margin-top: -50px;""><div style=""display: flex; justify-content: space-between; margin-top: 33px;""><img src=""images/choice_trial_6.png"" style=""width: 408px; height: 417px; margin-right: 608px;""></div></div>",,delaylearn,learning,display_response,AFsdxWnfiaYgNhMU5JixdYZP24w1,AFsdxWnfiaYgNhMU5JixdYZP24w1,,,,,,,,,,,,,,,,,chosen stimuli: images/choice_trial_6.png,,,,,62ac70ac67b1d7d5b5f46c02,16:30:18,27/03/2024
html-keyboard-response,201,415143,0.0-83.0-2.0,,,,delaylearn,learning,feedback_duration_window,AFsdxWnfiaYgNhMU5JixdYZP24w1,AFsdxWnfiaYgNhMU5JixdYZP24w1,,,,,,,,,,,,,,,,,,7000.0,,,,62ac70ac67b1d7d5b5f46c02,16:30:18,27/03/2024
html-keyboard-response,202,416647,0.0-83.0-3.0,,<div style='margin:auto;width: auto; font-size: 150%'><span style='font-weight: bold; font-size: 100px; color: red;'>0 points!</span><br><br></div>,,delaylearn,learning,feedback_image_window,AFsdxWnfiaYgNhMU5JixdYZP24w1,AFsdxWnfiaYgNhMU5JixdYZP24w1,,,,,,,,,,,,,,,,,,,,,,62ac70ac67b1d7d5b5f46c02,16:30:18,27/03/2024
html-keyboard-response,203,419121,0.0-84.0,,"<div style=""font-size:100px;"">+</div>",,delaylearn,learning,ITI,AFsdxWnfiaYgNhMU5JixdYZP24w1,AFsdxWnfiaYgNhMU5JixdYZP24w1,,,,,,,,,,,,,,,,,,,2471.0,,,62ac70ac67b1d7d5b5f46c02,16:30:18,27/03/2024
html-keyboard-response,204,420599,0.0-85.0-0.0,1473.0,"<div style=""display: flex; flex-direction: column; align-items: center; margin-top: -40px;""><img src=""images/pattern_4.png"" style=""width: 234px; height: 230px; margin-top: -50px;""><div style=""display: flex; justify-content: space-between; margin-top: 33px;""><img src=""images/choice_trial_8.png"" style=""width: 408px; height: 417px; margin-right: 200px;""><img src=""images/choice_trial_7.png"" style=""width: 408px; height: 417px;""></div></div>",f,delaylearn,learning,trial,AFsdxWnfiaYgNhMU5JixdYZP24w1,AFsdxWnfiaYgNhMU5JixdYZP24w1,1.0,images/choice_trial_8.png,images/choice_trial_7.png,images/pattern_4.png,f,j,7000.0,8.0,7.0,3.0,1.0,37.0,0.0,1.0,8.0,200.0,,,,,,62ac70ac67b1d7d5b5f46c02,16:30:18,27/03/2024
html-keyboard-response,205,421603,0.0-85.0-1.0,,"<div style=""display: flex; flex-direction: column; align-items: center; margin-top: -40px;""><img src=""images/pattern_4.png"" style=""width: 234px; height: 230px; margin-top: -50px;""><div style=""display: flex; justify-content: space-between; margin-top: 33px;""><img src=""images/choice_trial_8.png"" style=""width: 408px; height: 417px; margin-right: 608px;""></div></div>",,delaylearn,learning,display_response,AFsdxWnfiaYgNhMU5JixdYZP24w1,AFsdxWnfiaYgNhMU5JixdYZP24w1,,,,,,,,,,,,,,,,,chosen stimuli: images/choice_trial_8.png,,,,,62ac70ac67b1d7d5b5f46c02,16:30:18,27/03/2024
html-keyboard-response,206,428606,0.0-85.0-2.0,,,,delaylearn,learning,feedback_duration_window,AFsdxWnfiaYgNhMU5JixdYZP24w1,AFsdxWnfiaYgNhMU5JixdYZP24w1,,,,,,,,,,,,,,,,,,7000.0,,,,62ac70ac67b1d7d5b5f46c02,16:30:18,27/03/2024
html-keyboard-response,207,430109,0.0-85.0-3.0,,<div style='margin:auto;width: auto; font-size: 150%'><span style='font-weight: bold; font-size: 100px; color: green;'>+10 points!</span><br><br></div>,,delaylearn,learning,feedback_image_window,AFsdxWnfiaYgNhMU5JixdYZP24w1,AFsdxWnfiaYgNhMU5JixdYZP24w1,,,,,,,,,,,,,,,,,,,,,,62ac70ac67b1d7d5b5f46c02,16:30:18,27/03/2024
html-keyboard-response,208,432197,0.0-86.0,,"<div style=""font-size:100px;"">+</div>",,delaylearn,learning,ITI,AFsdxWnfiaYgNhMU5JixdYZP24w1,AFsdxWnfiaYgNhMU5JixdYZP24w1,,,,,,,,,,,,,,,,,,,2085.0,,,62ac70ac67b1d7d5b5f46c02,16:30:18,27/03/2024
html-keyboard-response,209,433536,0.0-87.0-0.0,1336.0,"<div style=""display: flex; flex-direction: column; align-items: center; margin-top: -40px;""><img src=""images/pattern_7.png"" style=""width: 234px; height: 230px; margin-top: -50px;""><div style=""display: flex; justify-content: space-between; margin-top: 33px;""><img src=""images/choice_trial_13.png"" style=""width: 408px; height: 417px; margin-right: 200px;""><img src=""images/choice_trial_14.png"" style=""width: 408px; height: 417px;""></div></div>",f,delaylearn,learning,trial,AFsdxWnfiaYgNhMU5JixdYZP24w1,AFsdxWnfiaYgNhMU5JixdYZP24w1,1.0,images/choice_trial_13.png,images/choice_trial_14.png,images/pattern_7.png,f,f,750.0,13.0,14.0,6.0,0.0,38.0,1.0,1.0,13.0,210.0,,,,,,62ac70ac67b1d7d5b5f46c02,16:30:18,27/03/2024
html-keyboard-response,210,434540,0.0-87.0-1.0,,"<div style=""display: flex; flex-direction: column; align-items: center; margin-top: -40px;""><img src=""images/pattern_7.png"" style=""width: 234px; height: 230px; margin-top: -50px;""><div style=""display: flex; justify-content: space-between; margin-top: 33px;""><img src=""images/choice_trial_13.png"" style=""width: 408px; height: 417px; margin-right: 608px;""></div></div>",,delaylearn,learning,display_response,AFsdxWnfiaYgNhMU5JixdYZP24w1,AFsdxWnfiaYgNhMU5JixdYZP24w1,,,,,,,,,,,,,,,,,chosen stimuli: images/choice_trial_13.png,,,,,62ac70ac67b1d7d5b5f46c02,16:30:18,27/03/2024
html-keyboard-response,211,435293,0.0-87.0-2.0,,,,delaylearn,learning,feedback_duration_window,AFsdxWnfiaYgNhMU5JixdYZP24w1,AFsdxWnfiaYgNhMU5JixdYZP24w1,,,,,,,,,,,,,,,,,,750.0,,,,62ac70ac67b1d7d5b5f46c02,16:30:18,27/03/2024
html-keyboard-response,212,436796,0.0-87.0-3.0,,<div style='margin:auto;width: auto; font-size: 150%'><span style='font-weight: bold; font-size: 100px; color: green;'>+10 points!</span><br><br></div>,,delaylearn,learning,feedback_image_window,AFsdxWnfiaYgNhMU5JixdYZP24w1,AFsdxWnfiaYgNhMU5JixdYZP24w1,,,,,,,,,,,,,,,,,,,,,,62ac70ac67b1d7d5b5f46c02,16:30:18,27/03/2024
html-keyboard-response,213,438998,0.0-88.0,,"<div style=""font-size:100px;"">+</div>",,delaylearn,learning,ITI,AFsdxWnfiaYgNhMU5JixdYZP24w1,AFsdxWnfiaYgNhMU5JixdYZP24w1,,,,,,,,,,,,,,,,,,,2199.0,,,62ac70ac67b1d7d5b5f46c02,16:30:18,27/03/2024
html-keyboard-response,214,440754,0.0-89.0-0.0,1751.0,"<div style=""display: flex; flex-direction: column; align-items: center; margin-top: -40px;""><img src=""images/pattern_1.png"" style=""width: 234px; height: 230px; margin-top: -50px;""><div style=""display: flex; justify-content: space-between; margin-top: 33px;""><img src=""images/choice_trial_1.png"" style=""width: 408px; height: 417px; margin-right: 200px;""><img src=""images/choice_trial_2.png"" style=""width: 408px; height: 417px;""></div></div>",j,delaylearn,learning,trial,AFsdxWnfiaYgNhMU5JixdYZP24w1,AFsdxWnfiaYgNhMU5JixdYZP24w1,1.0,images/choice_trial_1.png,images/choice_trial_2.png,images/pattern_1.png,f,f,7000.0,1.0,2.0,1.0,0.0,39.0,0.0,0.0,2.0,210.0,,,,,,62ac70ac67b1d7d5b5f46c02,16:30:18,27/03/2024
html-keyboard-response,215,441758,0.0-89.0-1.0,,"<div style=""display: flex; flex-direction: column; align-items: center; margin-top: -40px;""><img src=""images/pattern_1.png"" style=""width: 234px; height: 230px; margin-top: -50px;""><div style=""display: flex; justify-content: space-between; margin-top: 33px;""><img src=""images/choice_trial_2.png"" style=""width: 408px; height: 417px; margin-left:608px;""></div></div>",,delaylearn,learning,display_response,AFsdxWnfiaYgNhMU5JixdYZP24w1,AFsdxWnfiaYgNhMU5JixdYZP24w1,,,,,,,,,,,,,,,,,chosen stimuli: images/choice_trial_2.png,,,,,62ac70ac67b1d7d5b5f46c02,16:30:18,27/03/2024
html-keyboard-response,216,448761,0.0-89.0-2.0,,,,delaylearn,learning,feedback_duration_window,AFsdxWnfiaYgNhMU5JixdYZP24w1,AFsdxWnfiaYgNhMU5JixdYZP24w1,,,,,,,,,,,,,,,,,,7000.0,,,,62ac70ac67b1d7d5b5f46c02,16:30:18,27/03/2024
html-keyboard-response,217,450264,0.0-89.0-3.0,,<div style='margin:auto;width: auto; font-size: 150%'><span style='font-weight: bold; font-size: 100px; color: red;'>0 points!</span><br><br></div>,,delaylearn,learning,feedback_image_window,AFsdxWnfiaYgNhMU5JixdYZP24w1,AFsdxWnfiaYgNhMU5JixdYZP24w1,,,,,,,,,,,,,,,,,,,,,,62ac70ac67b1d7d5b5f46c02,16:30:18,27/03/2024
html-keyboard-response,218,450766,0.0-90.0-0.0,,,,,,mood_trial_fixation,AFsdxWnfiaYgNhMU5JixdYZP24w1,,,,,,,,,,,,,,,,,,,,,,,62ac70ac67b1d7d5b5f46c02,16:30:18,27/03/2024
lmdlab-html-vas-response,219,454606,0.0-90.0-1.0,2832.0,How happy are you right now?,0.44447337962962963,delaylearn,learning,mood_trial,AFsdxWnfiaYgNhMU5JixdYZP24w1,AFsdxWnfiaYgNhMU5JixdYZP24w1,,,,,,,,,,,,,,,,,,,,"['Very unhappy', 'Very happy']",,62ac70ac67b1d7d5b5f46c02,16:30:18,27/03/2024
html-keyboard-response,220,456333,0.0-91.0,,"<div style=""font-size:100px;"">+</div>",,delaylearn,learning,ITI,AFsdxWnfiaYgNhMU5JixdYZP24w1,AFsdxWnfiaYgNhMU5JixdYZP24w1,,,,,,,,,,,,,,,,,,,1725.0,,,62ac70ac67b1d7d5b5f46c02,16:30:18,27/03/2024
html-keyboard-response,221,457527,0.0-92.0-0.0,1188.0,"<div style=""display: flex; flex-direction: column; align-items: center; margin-top: -40px;""><img src=""images/pattern_3.png"" style=""width: 234px; height: 230px; margin-top: -50px;""><div style=""display: flex; justify-content: space-between; margin-top: 33px;""><img src=""images/choice_trial_5.png"" style=""width: 408px; height: 417px; margin-right: 200px;""><img src=""images/choice_trial_6.png"" style=""width: 408px; height: 417px;""></div></div>",f,delaylearn,learning,trial,AFsdxWnfiaYgNhMU5JixdYZP24w1,AFsdxWnfiaYgNhMU5JixdYZP24w1,1.0,images/choice_trial_5.png,images/choice_trial_6.png,images/pattern_3.png,j,f,7000.0,5.0,6.0,2.0,0.0,40.0,1.0,0.0,5.0,210.0,,,,,,62ac70ac67b1d7d5b5f46c02,16:30:18,27/03/2024
html-keyboard-response,222,458530,0.0-92.0-1.0,,"<div style=""display: flex; flex-direction: column; align-items: center; margin-top: -40px;""><img src=""images/pattern_3.png"" style=""width: 234px; height: 230px; margin-top: -50px;""><div style=""display: flex; justify-content: space-between; margin-top: 33px;""><img src=""images/choice_trial_5.png"" style=""width: 408px; height: 417px; margin-right: 608px;""></div></div>",,delaylearn,learning,display_response,AFsdxWnfiaYgNhMU5JixdYZP24w1,AFsdxWnfiaYgNhMU5JixdYZP24w1,,,,,,,,,,,,,,,,,chosen stimuli: images/choice_trial_5.png,,,,,62ac70ac67b1d7d5b5f46c02,16:30:18,27/03/2024
html-keyboard-response,223,465534,0.0-92.0-2.0,,,,delaylearn,learning,feedback_duration_window,AFsdxWnfiaYgNhMU5JixdYZP24w1,AFsdxWnfiaYgNhMU5JixdYZP24w1,,,,,,,,,,,,,,,,,,7000.0,,,,62ac70ac67b1d7d5b5f46c02,16:30:18,27/03/2024
html-keyboard-response,224,467038,0.0-92.0-3.0,,<div style='margin:auto;width: auto; font-size: 150%'><span style='font-weight: bold; font-size: 100px; color: red;'>0 points!</span><br><br></div>,,delaylearn,learning,feedback_image_window,AFsdxWnfiaYgNhMU5JixdYZP24w1,AFsdxWnfiaYgNhMU5JixdYZP24w1,,,,,,,,,,,,,,,,,,,,,,62ac70ac67b1d7d5b5f46c02,16:30:18,27/03/2024
html-keyboard-response,225,468794,0.0-93.0,,"<div style=""font-size:100px;"">+</div>",,delaylearn,learning,ITI,AFsdxWnfiaYgNhMU5JixdYZP24w1,AFsdxWnfiaYgNhMU5JixdYZP24w1,,,,,,,,,,,,,,,,,,,1753.0,,,62ac70ac67b1d7d5b5f46c02,16:30:18,27/03/2024
html-keyboard-response,226,470253,0.0-94.0-0.0,1453.0,"<div style=""display: flex; flex-direction: column; align-items: center; margin-top: -40px;""><img src=""images/pattern_7.png"" style=""width: 234px; height: 230px; margin-top: -50px;""><div style=""display: flex; justify-content: space-between; margin-top: 33px;""><img src=""images/choice_trial_14.png"" style=""width: 408px; height: 417px; margin-right: 200px;""><img src=""images/choice_trial_13.png"" style=""width: 408px; height: 417px;""></div></div>",f,delaylearn,learning,trial,AFsdxWnfiaYgNhMU5JixdYZP24w1,AFsdxWnfiaYgNhMU5JixdYZP24w1,1.0,images/choice_trial_14.png,images/choice_trial_13.png,images/pattern_7.png,j,j,750.0,14.0,13.0,6.0,1.0,41.0,0.0,0.0,14.0,210.0,,,,,,62ac70ac67b1d7d5b5f46c02,16:30:18,27/03/2024
html-keyboard-response,227,471256,0.0-94.0-1.0,,"<div style=""display: flex; flex-direction: column; align-items: center; margin-top: -40px;""><img src=""images/pattern_7.png"" style=""width: 234px; height: 230px; margin-top: -50px;""><div style=""display: flex; justify-content: space-between; margin-top: 33px;""><img src=""images/choice_trial_14.png"" style=""width: 408px; height: 417px; margin-right: 608px;""></div></div>",,delaylearn,learning,display_response,AFsdxWnfiaYgNhMU5JixdYZP24w1,AFsdxWnfiaYgNhMU5JixdYZP24w1,,,,,,,,,,,,,,,,,chosen stimuli: images/choice_trial_14.png,,,,,62ac70ac67b1d7d5b5f46c02,16:30:18,27/03/2024
html-keyboard-response,228,472010,0.0-94.0-2.0,,,,delaylearn,learning,feedback_duration_window,AFsdxWnfiaYgNhMU5JixdYZP24w1,AFsdxWnfiaYgNhMU5JixdYZP24w1,,,,,,,,,,,,,,,,,,750.0,,,,62ac70ac67b1d7d5b5f46c02,16:30:18,27/03/2024
html-keyboard-response,229,473513,0.0-94.0-3.0,,<div style='margin:auto;width: auto; font-size: 150%'><span style='font-weight: bold; font-size: 100px; color: red;'>0 points!</span><br><br></div>,,delaylearn,learning,feedback_image_window,AFsdxWnfiaYgNhMU5JixdYZP24w1,AFsdxWnfiaYgNhMU5JixdYZP24w1,,,,,,,,,,,,,,,,,,,,,,62ac70ac67b1d7d5b5f46c02,16:30:18,27/03/2024
html-keyboard-response,230,475874,0.0-95.0,,"<div style=""font-size:100px;"">+</div>",,delaylearn,learning,ITI,AFsdxWnfiaYgNhMU5JixdYZP24w1,AFsdxWnfiaYgNhMU5JixdYZP24w1,,,,,,,,,,,,,,,,,,,2358.0,,,62ac70ac67b1d7d5b5f46c02,16:30:18,27/03/2024
html-keyboard-response,231,477552,0.0-96.0-0.0,1672.0,"<div style=""display: flex; flex-direction: column; align-items: center; margin-top: -40px;""><img src=""images/pattern_5.png"" style=""width: 234px; height: 230px; margin-top: -50px;""><div style=""display: flex; justify-content: space-between; margin-top: 33px;""><img src=""images/choice_trial_10.png"" style=""width: 408px; height: 417px; margin-right: 200px;""><img src=""images/choice_trial_9.png"" style=""width: 408px; height: 417px;""></div></div>",f,delaylearn,learning,trial,AFsdxWnfiaYgNhMU5JixdYZP24w1,AFsdxWnfiaYgNhMU5JixdYZP24w1,1.0,images/choice_trial_10.png,images/choice_trial_9.png,images/pattern_5.png,j,j,750.0,10.0,9.0,4.0,1.0,42.0,0.0,0.0,10.0,210.0,,,,,,62ac70ac67b1d7d5b5f46c02,16:30:18,27/03/2024
