trial_type,trial_index,time_elapsed,internal_node_id,rt,stimulus,response,exp_name,exp_stage,test_part,subjectID,databaseID,counterbal,choice_stimuli_1,choice_stimuli_2,pattern_stimuli,rewarded_answer,correct_answer,feedback_duration_times,stim_left,stim_right,pair,leftright_counter,trial,response_correct,response_rewarded,chosen_stim,counter,displayed_choice,feedback_durations,ITI_duration,labels,rest_warning,prolificID,start_time,date
pavlovia,0,509,0.0-0.0,,,,,,,n6qN8s5ydIYsrea4LuwHybPq8P63,,,,,,,,,,,,,,,,,,,,,,,6346e221d4cea480a1a39b52,16:53:27,27/03/2024
html-keyboard-response,1,3513,0.0-1.0,,"<div style=""font-size:100px;"">+</div>",,delaylearn,learning,pre_fixation,n6qN8s5ydIYsrea4LuwHybPq8P63,,,,,,,,,,,,,,,,,,,,,,,6346e221d4cea480a1a39b52,16:53:27,27/03/2024
html-keyboard-response,2,5096,0.0-2.0-0.0,1579.8999998569489,"<div style=""display: flex; flex-direction: column; align-items: center; margin-top: -40px;""><img src=""images/demo_images/pattern_1.png"" style=""width: 234px; height: 230px; margin-top: -50px;""><div style=""display: flex; justify-content: space-between; margin-top: 33px;""><img src=""images/demo_images/choice_trial_2.png"" style=""width: 408px; height: 417px; margin-right: 200px;""><img src=""images/demo_images/choice_trial_1.png"" style=""width: 408px; height: 417px;""></div></div>",j,delaylearn,learning,trial,n6qN8s5ydIYsrea4LuwHybPq8P63,n6qN8s5ydIYsrea4LuwHybPq8P63,1.0,images/demo_images/choice_trial_2.png,images/demo_images/choice_trial_1.png,images/demo_images/pattern_1.png,j,j,3000.0,2.0,1.0,20.0,1.0,1.0,1.0,1.0,1.0,10.0,,,,,,6346e221d4cea480a1a39b52,16:53:27,27/03/2024
html-keyboard-response,3,6102,0.0-2.0-1.0,,"<div style=""display: flex; flex-direction: column; align-items: center; margin-top: -40px;""><img src=""images/demo_images/pattern_1.png"" style=""width: 234px; height: 230px; margin-top: -50px;""><div style=""display: flex; justify-content: space-between; margin-top: 33px;""><img src=""images/demo_images/choice_trial_1.png"" style=""width: 408px; height: 417px; margin-left:608px;""></div></div>",,delaylearn,learning,display_response,n6qN8s5ydIYsrea4LuwHybPq8P63,n6qN8s5ydIYsrea4LuwHybPq8P63,,,,,,,,,,,,,,,,,chosen stimuli: images/demo_images/choice_trial_1.png,,,,,6346e221d4cea480a1a39b52,16:53:27,27/03/2024
html-keyboard-response,4,9105,0.0-2.0-2.0,,,,delaylearn,learning,feedback_duration_window,n6qN8s5ydIYsrea4LuwHybPq8P63,n6qN8s5ydIYsrea4LuwHybPq8P63,,,,,,,,,,,,,,,,,,3000.0,,,,6346e221d4cea480a1a39b52,16:53:27,27/03/2024
html-keyboard-response,5,10609,0.0-2.0-3.0,,<div style='margin:auto;width: auto; font-size: 150%'><span style='font-weight: bold; font-size: 100px; color: green;'>+10 points!</span><br><br></div>,,delaylearn,learning,feedback_image_window,n6qN8s5ydIYsrea4LuwHybPq8P63,n6qN8s5ydIYsrea4LuwHybPq8P63,,,,,,,,,,,,,,,,,,,,,,6346e221d4cea480a1a39b52,16:53:27,27/03/2024
html-keyboard-response,6,12289,0.0-3.0,,"<div style=""font-size:100px;"">+</div>",,delaylearn,learning,ITI,n6qN8s5ydIYsrea4LuwHybPq8P63,n6qN8s5ydIYsrea4LuwHybPq8P63,,,,,,,,,,,,,,,,,,,1677.0,,,6346e221d4cea480a1a39b52,16:53:27,27/03/2024
html-keyboard-response,7,13705,0.0-4.0-0.0,1411.3999998569489,"<div style=""display: flex; flex-direction: column; align-items: center; margin-top: -40px;""><img src=""images/demo_images/pattern_1.png"" style=""width: 234px; height: 230px; margin-top: -50px;""><div style=""display: flex; justify-content: space-between; margin-top: 33px;""><img src=""images/demo_images/choice_trial_2.png"" style=""width: 408px; height: 417px; margin-right: 200px;""><img src=""images/demo_images/choice_trial_1.png"" style=""width: 408px; height: 417px;""></div></div>",f,delaylearn,learning,trial,n6qN8s5ydIYsrea4LuwHybPq8P63,n6qN8s5ydIYsrea4LuwHybPq8P63,1.0,images/demo_images/choice_trial_2.png,images/demo_images/choice_trial_1.png,images/demo_images/pattern_1.png,j,j,3000.0,2.0,1.0,20.0,1.0,2.0,0.0,0.0,2.0,10.0,,,,,,6346e221d4cea480a1a39b52,16:53:27,27/03/2024
html-keyboard-response,8,14708,0.0-4.0-1.0,,"<div style=""display: flex; flex-direction: column; align-items: center; margin-top: -40px;""><img src=""images/demo_images/pattern_1.png"" style=""width: 234px; height: 230px; margin-top: -50px;""><div style=""display: flex; justify-content: space-between; margin-top: 33px;""><img src=""images/demo_images/choice_trial_2.png"" style=""width: 408px; height: 417px; margin-right: 608px;""></div></div>",,delaylearn,learning,display_response,n6qN8s5ydIYsrea4LuwHybPq8P63,n6qN8s5ydIYsrea4LuwHybPq8P63,,,,,,,,,,,,,,,,,chosen stimuli: images/demo_images/choice_trial_2.png,,,,,6346e221d4cea480a1a39b52,16:53:27,27/03/2024
html-keyboard-response,9,17711,0.0-4.0-2.0,,,,delaylearn,learning,feedback_duration_window,n6qN8s5ydIYsrea4LuwHybPq8P63,n6qN8s5ydIYsrea4LuwHybPq8P63,,,,,,,,,,,,,,,,,,3000.0,,,,6346e221d4cea480a1a39b52,16:53:27,27/03/2024
html-keyboard-response,10,19215,0.0-4.0-3.0,,<div style='margin:auto;width: auto; font-size: 150%'><span style='font-weight: bold; font-size: 100px; color: red;'>0 points!</span><br><br></div>,,delaylearn,learning,feedback_image_window,n6qN8s5ydIYsrea4LuwHybPq8P63,n6qN8s5ydIYsrea4LuwHybPq8P63,,,,,,,,,,,,,,,,,,,,,,6346e221d4cea480a1a39b52,16:53:27,27/03/2024
html-keyboard-response,11,21125,0.0-5.0,,"<div style=""font-size:100px;"">+</div>",,delaylearn,learning,ITI,n6qN8s5ydIYsrea4LuwHybPq8P63,n6qN8s5ydIYsrea4LuwHybPq8P63,,,,,,,,,,,,,,,,,,,1906.0,,,6346e221d4cea480a1a39b52,16:53:27,27/03/2024
html-keyboard-response,12,23355,0.0-6.0-0.0,2227.2000000476837,"<div style=""display: flex; flex-direction: column; align-items: center; margin-top: -40px;""><img src=""images/demo_images/pattern_1.png"" style=""width: 234px; height: 230px; margin-top: -50px;""><div style=""display: flex; justify-content: space-between; margin-top: 33px;""><img src=""images/demo_images/choice_trial_1.png"" style=""width: 408px; height: 417px; margin-right: 200px;""><img src=""images/demo_images/choice_trial_2.png"" style=""width: 408px; height: 417px;""></div></div>",f,delaylearn,learning,trial,n6qN8s5ydIYsrea4LuwHybPq8P63,n6qN8s5ydIYsrea4LuwHybPq8P63,1.0,images/demo_images/choice_trial_1.png,images/demo_images/choice_trial_2.png,images/demo_images/pattern_1.png,j,f,3000.0,1.0,2.0,20.0,0.0,3.0,1.0,0.0,1.0,10.0,,,,,,6346e221d4cea480a1a39b52,16:53:27,27/03/2024
html-keyboard-response,13,24359,0.0-6.0-1.0,,"<div style=""display: flex; flex-direction: column; align-items: center; margin-top: -40px;""><img src=""images/demo_images/pattern_1.png"" style=""width: 234px; height: 230px; margin-top: -50px;""><div style=""display: flex; justify-content: space-between; margin-top: 33px;""><img src=""images/demo_images/choice_trial_1.png"" style=""width: 408px; height: 417px; margin-right: 608px;""></div></div>",,delaylearn,learning,display_response,n6qN8s5ydIYsrea4LuwHybPq8P63,n6qN8s5ydIYsrea4LuwHybPq8P63,,,,,,,,,,,,,,,,,chosen stimuli: images/demo_images/choice_trial_1.png,,,,,6346e221d4cea480a1a39b52,16:53:27,27/03/2024
html-keyboard-response,14,27362,0.0-6.0-2.0,,,,delaylearn,learning,feedback_duration_window,n6qN8s5ydIYsrea4LuwHybPq8P63,n6qN8s5ydIYsrea4LuwHybPq8P63,,,,,,,,,,,,,,,,,,3000.0,,,,6346e221d4cea480a1a39b52,16:53:27,27/03/2024
html-keyboard-response,15,28866,0.0-6.0-3.0,,<div style='margin:auto;width: auto; font-size: 150%'><span style='font-weight: bold; font-size: 100px; color: red;'>0 points!</span><br><br></div>,,delaylearn,learning,feedback_image_window,n6qN8s5ydIYsrea4LuwHybPq8P63,n6qN8s5ydIYsrea4LuwHybPq8P63,,,,,,,,,,,,,,,,,,,,,,6346e221d4cea480a1a39b52,16:53:27,27/03/2024
html-keyboard-response,16,30755,0.0-7.0,,"<div style=""font-size:100px;"">+</div>",,delaylearn,learning,ITI,n6qN8s5ydIYsrea4LuwHybPq8P63,n6qN8s5ydIYsrea4LuwHybPq8P63,,,,,,,,,,,,,,,,,,,1886.0,,,6346e221d4cea480a1a39b52,16:53:27,27/03/2024
html-keyboard-response,17,32093,0.0-8.0-0.0,1335.0999999046326,"<div style=""display: flex; flex-direction: column; align-items: center; margin-top: -40px;""><img src=""images/demo_images/pattern_1.png"" style=""width: 234px; height: 230px; margin-top: -50px;""><div style=""display: flex; justify-content: space-between; margin-top: 33px;""><img src=""images/demo_images/choice_trial_1.png"" style=""width: 408px; height: 417px; margin-right: 200px;""><img src=""images/demo_images/choice_trial_2.png"" style=""width: 408px; height: 417px;""></div></div>",j,delaylearn,learning,trial,n6qN8s5ydIYsrea4LuwHybPq8P63,n6qN8s5ydIYsrea4LuwHybPq8P63,1.0,images/demo_images/choice_trial_1.png,images/demo_images/choice_trial_2.png,images/demo_images/pattern_1.png,f,f,3000.0,1.0,2.0,20.0,0.0,4.0,0.0,0.0,2.0,10.0,,,,,,6346e221d4cea480a1a39b52,16:53:27,27/03/2024
html-keyboard-response,18,33097,0.0-8.0-1.0,,"<div style=""display: flex; flex-direction: column; align-items: center; margin-top: -40px;""><img src=""images/demo_images/pattern_1.png"" style=""width: 234px; height: 230px; margin-top: -50px;""><div style=""display: flex; justify-content: space-between; margin-top: 33px;""><img src=""images/demo_images/choice_trial_2.png"" style=""width: 408px; height: 417px; margin-left:608px;""></div></div>",,delaylearn,learning,display_response,n6qN8s5ydIYsrea4LuwHybPq8P63,n6qN8s5ydIYsrea4LuwHybPq8P63,,,,,,,,,,,,,,,,,chosen stimuli: images/demo_images/choice_trial_2.png,,,,,6346e221d4cea480a1a39b52,16:53:27,27/03/2024
html-keyboard-response,19,36101,0.0-8.0-2.0,,,,delaylearn,learning,feedback_duration_window,n6qN8s5ydIYsrea4LuwHybPq8P63,n6qN8s5ydIYsrea4LuwHybPq8P63,,,,,,,,,,,,,,,,,,3000.0,,,,6346e221d4cea480a1a39b52,16:53:27,27/03/2024
html-keyboard-response,20,37604,0.0-8.0-3.0,,<div style='margin:auto;width: auto; font-size: 150%'><span style='font-weight: bold; font-size: 100px; color: red;'>0 points!</span><br><br></div>,,delaylearn,learning,feedback_image_window,n6qN8s5ydIYsrea4LuwHybPq8P63,n6qN8s5ydIYsrea4LuwHybPq8P63,,,,,,,,,,,,,,,,,,,,,,6346e221d4cea480a1a39b52,16:53:27,27/03/2024
html-keyboard-response,21,38108,0.0-9.0-0.0,,,,,,mood_trial_fixation,n6qN8s5ydIYsrea4LuwHybPq8P63,,,,,,,,,,,,,,,,,,,,,,,6346e221d4cea480a1a39b52,16:53:27,27/03/2024
lmdlab-html-vas-response,22,42991,0.0-9.0-1.0,3868.0,How happy are you right now?,0.21481481481481482,delaylearn,learning,mood_trial,n6qN8s5ydIYsrea4LuwHybPq8P63,n6qN8s5ydIYsrea4LuwHybPq8P63,,,,,,,,,,,,,,,,,,,,"['Very unhappy', 'Very happy']",,6346e221d4cea480a1a39b52,16:53:27,27/03/2024
html-keyboard-response,23,44721,0.0-10.0,,"<div style=""font-size:100px;"">+</div>",,delaylearn,learning,ITI,n6qN8s5ydIYsrea4LuwHybPq8P63,n6qN8s5ydIYsrea4LuwHybPq8P63,,,,,,,,,,,,,,,,,,,1727.0,,,6346e221d4cea480a1a39b52,16:53:27,27/03/2024
html-keyboard-response,24,46393,0.0-11.0-0.0,1669.0999999046326,"<div style=""display: flex; flex-direction: column; align-items: center; margin-top: -40px;""><img src=""images/demo_images/pattern_1.png"" style=""width: 234px; height: 230px; margin-top: -50px;""><div style=""display: flex; justify-content: space-between; margin-top: 33px;""><img src=""images/demo_images/choice_trial_2.png"" style=""width: 408px; height: 417px; margin-right: 200px;""><img src=""images/demo_images/choice_trial_1.png"" style=""width: 408px; height: 417px;""></div></div>",f,delaylearn,learning,trial,n6qN8s5ydIYsrea4LuwHybPq8P63,n6qN8s5ydIYsrea4LuwHybPq8P63,1.0,images/demo_images/choice_trial_2.png,images/demo_images/choice_trial_1.png,images/demo_images/pattern_1.png,j,j,3000.0,2.0,1.0,20.0,1.0,5.0,0.0,0.0,2.0,10.0,,,,,,6346e221d4cea480a1a39b52,16:53:27,27/03/2024
html-keyboard-response,25,47397,0.0-11.0-1.0,,"<div style=""display: flex; flex-direction: column; align-items: center; margin-top: -40px;""><img src=""images/demo_images/pattern_1.png"" style=""width: 234px; height: 230px; margin-top: -50px;""><div style=""display: flex; justify-content: space-between; margin-top: 33px;""><img src=""images/demo_images/choice_trial_2.png"" style=""width: 408px; height: 417px; margin-right: 608px;""></div></div>",,delaylearn,learning,display_response,n6qN8s5ydIYsrea4LuwHybPq8P63,n6qN8s5ydIYsrea4LuwHybPq8P63,,,,,,,,,,,,,,,,,chosen stimuli: images/demo_images/choice_trial_2.png,,,,,6346e221d4cea480a1a39b52,16:53:27,27/03/2024
html-keyboard-response,26,50400,0.0-11.0-2.0,,,,delaylearn,learning,feedback_duration_window,n6qN8s5ydIYsrea4LuwHybPq8P63,n6qN8s5ydIYsrea4LuwHybPq8P63,,,,,,,,,,,,,,,,,,3000.0,,,,6346e221d4cea480a1a39b52,16:53:27,27/03/2024
html-keyboard-response,27,51905,0.0-11.0-3.0,,<div style='margin:auto;width: auto; font-size: 150%'><span style='font-weight: bold; font-size: 100px; color: red;'>0 points!</span><br><br></div>,,delaylearn,learning,feedback_image_window,n6qN8s5ydIYsrea4LuwHybPq8P63,n6qN8s5ydIYsrea4LuwHybPq8P63,,,,,,,,,,,,,,,,,,,,,,6346e221d4cea480a1a39b52,16:53:27,27/03/2024
html-keyboard-response,28,53683,0.0-12.0,,"<div style=""font-size:100px;"">+</div>",,delaylearn,learning,ITI,n6qN8s5ydIYsrea4LuwHybPq8P63,n6qN8s5ydIYsrea4LuwHybPq8P63,,,,,,,,,,,,,,,,,,,1776.0,,,6346e221d4cea480a1a39b52,16:53:27,27/03/2024
html-keyboard-response,29,56513,0.0-13.0-0.0,2827.2999999523163,"<div style=""display: flex; flex-direction: column; align-items: center; margin-top: -40px;""><img src=""images/demo_images/pattern_1.png"" style=""width: 234px; height: 230px; margin-top: -50px;""><div style=""display: flex; justify-content: space-between; margin-top: 33px;""><img src=""images/demo_images/choice_trial_1.png"" style=""width: 408px; height: 417px; margin-right: 200px;""><img src=""images/demo_images/choice_trial_2.png"" style=""width: 408px; height: 417px;""></div></div>",f,delaylearn,learning,trial,n6qN8s5ydIYsrea4LuwHybPq8P63,n6qN8s5ydIYsrea4LuwHybPq8P63,1.0,images/demo_images/choice_trial_1.png,images/demo_images/choice_trial_2.png,images/demo_images/pattern_1.png,f,f,3000.0,1.0,2.0,20.0,0.0,6.0,1.0,1.0,1.0,20.0,,,,,,6346e221d4cea480a1a39b52,16:53:27,27/03/2024
html-keyboard-response,30,57516,0.0-13.0-1.0,,"<div style=""display: flex; flex-direction: column; align-items: center; margin-top: -40px;""><img src=""images/demo_images/pattern_1.png"" style=""width: 234px; height: 230px; margin-top: -50px;""><div style=""display: flex; justify-content: space-between; margin-top: 33px;""><img src=""images/demo_images/choice_trial_1.png"" style=""width: 408px; height: 417px; margin-right: 608px;""></div></div>",,delaylearn,learning,display_response,n6qN8s5ydIYsrea4LuwHybPq8P63,n6qN8s5ydIYsrea4LuwHybPq8P63,,,,,,,,,,,,,,,,,chosen stimuli: images/demo_images/choice_trial_1.png,,,,,6346e221d4cea480a1a39b52,16:53:27,27/03/2024
html-keyboard-response,31,60519,0.0-13.0-2.0,,,,delaylearn,learning,feedback_duration_window,n6qN8s5ydIYsrea4LuwHybPq8P63,n6qN8s5ydIYsrea4LuwHybPq8P63,,,,,,,,,,,,,,,,,,3000.0,,,,6346e221d4cea480a1a39b52,16:53:27,27/03/2024
html-keyboard-response,32,62022,0.0-13.0-3.0,,<div style='margin:auto;width: auto; font-size: 150%'><span style='font-weight: bold; font-size: 100px; color: green;'>+10 points!</span><br><br></div>,,delaylearn,learning,feedback_image_window,n6qN8s5ydIYsrea4LuwHybPq8P63,n6qN8s5ydIYsrea4LuwHybPq8P63,,,,,,,,,,,,,,,,,,,,,,6346e221d4cea480a1a39b52,16:53:27,27/03/2024
html-keyboard-response,33,64382,0.0-14.0,,"<div style=""font-size:100px;"">+</div>",,delaylearn,learning,ITI,n6qN8s5ydIYsrea4LuwHybPq8P63,n6qN8s5ydIYsrea4LuwHybPq8P63,,,,,,,,,,,,,,,,,,,2357.0,,,6346e221d4cea480a1a39b52,16:53:27,27/03/2024
html-keyboard-response,34,65048,0.0-15.0-0.0,662.6999998092651,"<div style=""display: flex; flex-direction: column; align-items: center; margin-top: -40px;""><img src=""images/demo_images/pattern_1.png"" style=""width: 234px; height: 230px; margin-top: -50px;""><div style=""display: flex; justify-content: space-between; margin-top: 33px;""><img src=""images/demo_images/choice_trial_2.png"" style=""width: 408px; height: 417px; margin-right: 200px;""><img src=""images/demo_images/choice_trial_1.png"" style=""width: 408px; height: 417px;""></div></div>",j,delaylearn,learning,trial,n6qN8s5ydIYsrea4LuwHybPq8P63,n6qN8s5ydIYsrea4LuwHybPq8P63,1.0,images/demo_images/choice_trial_2.png,images/demo_images/choice_trial_1.png,images/demo_images/pattern_1.png,j,j,3000.0,2.0,1.0,20.0,1.0,7.0,1.0,1.0,1.0,30.0,,,,,,6346e221d4cea480a1a39b52,16:53:27,27/03/2024
html-keyboard-response,35,66052,0.0-15.0-1.0,,"<div style=""display: flex; flex-direction: column; align-items: center; margin-top: -40px;""><img src=""images/demo_images/pattern_1.png"" style=""width: 234px; height: 230px; margin-top: -50px;""><div style=""display: flex; justify-content: space-between; margin-top: 33px;""><img src=""images/demo_images/choice_trial_1.png"" style=""width: 408px; height: 417px; margin-left:608px;""></div></div>",,delaylearn,learning,display_response,n6qN8s5ydIYsrea4LuwHybPq8P63,n6qN8s5ydIYsrea4LuwHybPq8P63,,,,,,,,,,,,,,,,,chosen stimuli: images/demo_images/choice_trial_1.png,,,,,6346e221d4cea480a1a39b52,16:53:27,27/03/2024
html-keyboard-response,36,69055,0.0-15.0-2.0,,,,delaylearn,learning,feedback_duration_window,n6qN8s5ydIYsrea4LuwHybPq8P63,n6qN8s5ydIYsrea4LuwHybPq8P63,,,,,,,,,,,,,,,,,,3000.0,,,,6346e221d4cea480a1a39b52,16:53:27,27/03/2024
html-keyboard-response,37,70558,0.0-15.0-3.0,,<div style='margin:auto;width: auto; font-size: 150%'><span style='font-weight: bold; font-size: 100px; color: green;'>+10 points!</span><br><br></div>,,delaylearn,learning,feedback_image_window,n6qN8s5ydIYsrea4LuwHybPq8P63,n6qN8s5ydIYsrea4LuwHybPq8P63,,,,,,,,,,,,,,,,,,,,,,6346e221d4cea480a1a39b52,16:53:27,27/03/2024
html-keyboard-response,38,73017,0.0-16.0,,"<div style=""font-size:100px;"">+</div>",,delaylearn,learning,ITI,n6qN8s5ydIYsrea4LuwHybPq8P63,n6qN8s5ydIYsrea4LuwHybPq8P63,,,,,,,,,,,,,,,,,,,2456.0,,,6346e221d4cea480a1a39b52,16:53:27,27/03/2024
html-keyboard-response,39,73616,0.0-17.0-0.0,595.5999999046326,"<div style=""display: flex; flex-direction: column; align-items: center; margin-top: -40px;""><img src=""images/demo_images/pattern_1.png"" style=""width: 234px; height: 230px; margin-top: -50px;""><div style=""display: flex; justify-content: space-between; margin-top: 33px;""><img src=""images/demo_images/choice_trial_1.png"" style=""width: 408px; height: 417px; margin-right: 200px;""><img src=""images/demo_images/choice_trial_2.png"" style=""width: 408px; height: 417px;""></div></div>",f,delaylearn,learning,trial,n6qN8s5ydIYsrea4LuwHybPq8P63,n6qN8s5ydIYsrea4LuwHybPq8P63,1.0,images/demo_images/choice_trial_1.png,images/demo_images/choice_trial_2.png,images/demo_images/pattern_1.png,f,f,3000.0,1.0,2.0,20.0,0.0,8.0,1.0,1.0,1.0,40.0,,,,,,6346e221d4cea480a1a39b52,16:53:27,27/03/2024
html-keyboard-response,40,74619,0.0-17.0-1.0,,"<div style=""display: flex; flex-direction: column; align-items: center; margin-top: -40px;""><img src=""images/demo_images/pattern_1.png"" style=""width: 234px; height: 230px; margin-top: -50px;""><div style=""display: flex; justify-content: space-between; margin-top: 33px;""><img src=""images/demo_images/choice_trial_1.png"" style=""width: 408px; height: 417px; margin-right: 608px;""></div></div>",,delaylearn,learning,display_response,n6qN8s5ydIYsrea4LuwHybPq8P63,n6qN8s5ydIYsrea4LuwHybPq8P63,,,,,,,,,,,,,,,,,chosen stimuli: images/demo_images/choice_trial_1.png,,,,,6346e221d4cea480a1a39b52,16:53:27,27/03/2024
html-keyboard-response,41,77622,0.0-17.0-2.0,,,,delaylearn,learning,feedback_duration_window,n6qN8s5ydIYsrea4LuwHybPq8P63,n6qN8s5ydIYsrea4LuwHybPq8P63,,,,,,,,,,,,,,,,,,3000.0,,,,6346e221d4cea480a1a39b52,16:53:27,27/03/2024
html-keyboard-response,42,79125,0.0-17.0-3.0,,<div style='margin:auto;width: auto; font-size: 150%'><span style='font-weight: bold; font-size: 100px; color: green;'>+10 points!</span><br><br></div>,,delaylearn,learning,feedback_image_window,n6qN8s5ydIYsrea4LuwHybPq8P63,n6qN8s5ydIYsrea4LuwHybPq8P63,,,,,,,,,,,,,,,,,,,,,,6346e221d4cea480a1a39b52,16:53:27,27/03/2024
html-button-response,43,81722,0.0-18.0,2593.7999999523163,"
  <div style=""display: flex; align-items: center; justify-content: center; height: 80vh;"">
  <div>
          <img src=""images/inst_demo_finish.png"" style=""width: 80vw; height:auto;"">
          <br><br>
      </div>
      <br><br>
  </div>",0,,,,n6qN8s5ydIYsrea4LuwHybPq8P63,,,,,,,,,,,,,,,,,,,,,,,6346e221d4cea480a1a39b52,16:53:27,27/03/2024
html-keyboard-response,44,85256,0.0-19.0,3533.0,"
  <div style=""display: flex; align-items: center; justify-content: center; height: 80vh;"">
  <div>
          <img src=""images/inst_6.png"" style=""width: 80vw; height:auto;"">
          <br><br>
      </div>
      <br><br>
  </div>",f,,,,n6qN8s5ydIYsrea4LuwHybPq8P63,,,,,,,,,,,,,,,,,,,,,,,6346e221d4cea480a1a39b52,16:53:27,27/03/2024
html-keyboard-response,45,88261,0.0-20.0,,"<div style=""font-size:100px;"">+</div>",,delaylearn,learning,pre_fixation,n6qN8s5ydIYsrea4LuwHybPq8P63,,,,,,,,,,,,,,,,,,,,,,,6346e221d4cea480a1a39b52,16:53:27,27/03/2024
html-keyboard-response,46,90136,0.0-21.0,,"<div style=""font-size:100px;"">+</div>",,delaylearn,learning,ITI,n6qN8s5ydIYsrea4LuwHybPq8P63,n6qN8s5ydIYsrea4LuwHybPq8P63,,,,,,,,,,,,,,,,,,,1871.0,,,6346e221d4cea480a1a39b52,16:53:27,27/03/2024
html-keyboard-response,47,91081,0.0-22.0-0.0,942.0,"<div style=""display: flex; flex-direction: column; align-items: center; margin-top: -40px;""><img src=""images/pattern_3.png"" style=""width: 234px; height: 230px; margin-top: -50px;""><div style=""display: flex; justify-content: space-between; margin-top: 33px;""><img src=""images/choice_trial_5.png"" style=""width: 408px; height: 417px; margin-right: 200px;""><img src=""images/choice_trial_6.png"" style=""width: 408px; height: 417px;""></div></div>",f,delaylearn,learning,trial,n6qN8s5ydIYsrea4LuwHybPq8P63,n6qN8s5ydIYsrea4LuwHybPq8P63,1.0,images/choice_trial_5.png,images/choice_trial_6.png,images/pattern_3.png,f,f,7000.0,5.0,6.0,2.0,0.0,9.0,1.0,1.0,5.0,50.0,,,,,,6346e221d4cea480a1a39b52,16:53:27,27/03/2024
html-keyboard-response,48,92085,0.0-22.0-1.0,,"<div style=""display: flex; flex-direction: column; align-items: center; margin-top: -40px;""><img src=""images/pattern_3.png"" style=""width: 234px; height: 230px; margin-top: -50px;""><div style=""display: flex; justify-content: space-between; margin-top: 33px;""><img src=""images/choice_trial_5.png"" style=""width: 408px; height: 417px; margin-right: 608px;""></div></div>",,delaylearn,learning,display_response,n6qN8s5ydIYsrea4LuwHybPq8P63,n6qN8s5ydIYsrea4LuwHybPq8P63,,,,,,,,,,,,,,,,,chosen stimuli: images/choice_trial_5.png,,,,,6346e221d4cea480a1a39b52,16:53:27,27/03/2024
html-keyboard-response,49,99087,0.0-22.0-2.0,,,,delaylearn,learning,feedback_duration_window,n6qN8s5ydIYsrea4LuwHybPq8P63,n6qN8s5ydIYsrea4LuwHybPq8P63,,,,,,,,,,,,,,,,,,7000.0,,,,6346e221d4cea480a1a39b52,16:53:27,27/03/2024
html-keyboard-response,50,100590,0.0-22.0-3.0,,<div style='margin:auto;width: auto; font-size: 150%'><span style='font-weight: bold; font-size: 100px; color: green;'>+10 points!</span><br><br></div>,,delaylearn,learning,feedback_image_window,n6qN8s5ydIYsrea4LuwHybPq8P63,n6qN8s5ydIYsrea4LuwHybPq8P63,,,,,,,,,,,,,,,,,,,,,,6346e221d4cea480a1a39b52,16:53:27,27/03/2024
html-keyboard-response,51,102337,0.0-23.0,,"<div style=""font-size:100px;"">+</div>",,delaylearn,learning,ITI,n6qN8s5ydIYsrea4LuwHybPq8P63,n6qN8s5ydIYsrea4LuwHybPq8P63,,,,,,,,,,,,,,,,,,,1744.0,,,6346e221d4cea480a1a39b52,16:53:27,27/03/2024
html-keyboard-response,52,104533,0.0-24.0-0.0,2193.100000143051,"<div style=""display: flex; flex-direction: column; align-items: center; margin-top: -40px;""><img src=""images/pattern_7.png"" style=""width: 234px; height: 230px; margin-top: -50px;""><div style=""display: flex; justify-content: space-between; margin-top: 33px;""><img src=""images/choice_trial_14.png"" style=""width: 408px; height: 417px; margin-right: 200px;""><img src=""images/choice_trial_13.png"" style=""width: 408px; height: 417px;""></div></div>",j,delaylearn,learning,trial,n6qN8s5ydIYsrea4LuwHybPq8P63,n6qN8s5ydIYsrea4LuwHybPq8P63,1.0,images/choice_trial_14.png,images/choice_trial_13.png,images/pattern_7.png,j,j,750.0,14.0,13.0,6.0,1.0,10.0,1.0,1.0,13.0,60.0,,,,,,6346e221d4cea480a1a39b52,16:53:27,27/03/2024
html-keyboard-response,53,105538,0.0-24.0-1.0,,"<div style=""display: flex; flex-direction: column; align-items: center; margin-top: -40px;""><img src=""images/pattern_7.png"" style=""width: 234px; height: 230px; margin-top: -50px;""><div style=""display: flex; justify-content: space-between; margin-top: 33px;""><img src=""images/choice_trial_13.png"" style=""width: 408px; height: 417px; margin-left:608px;""></div></div>",,delaylearn,learning,display_response,n6qN8s5ydIYsrea4LuwHybPq8P63,n6qN8s5ydIYsrea4LuwHybPq8P63,,,,,,,,,,,,,,,,,chosen stimuli: images/choice_trial_13.png,,,,,6346e221d4cea480a1a39b52,16:53:27,27/03/2024
html-keyboard-response,54,106291,0.0-24.0-2.0,,,,delaylearn,learning,feedback_duration_window,n6qN8s5ydIYsrea4LuwHybPq8P63,n6qN8s5ydIYsrea4LuwHybPq8P63,,,,,,,,,,,,,,,,,,750.0,,,,6346e221d4cea480a1a39b52,16:53:27,27/03/2024
html-keyboard-response,55,107794,0.0-24.0-3.0,,<div style='margin:auto;width: auto; font-size: 150%'><span style='font-weight: bold; font-size: 100px; color: green;'>+10 points!</span><br><br></div>,,delaylearn,learning,feedback_image_window,n6qN8s5ydIYsrea4LuwHybPq8P63,n6qN8s5ydIYsrea4LuwHybPq8P63,,,,,,,,,,,,,,,,,,,,,,6346e221d4cea480a1a39b52,16:53:27,27/03/2024
html-keyboard-response,56,109304,0.0-25.0,,"<div style=""font-size:100px;"">+</div>",,delaylearn,learning,ITI,n6qN8s5ydIYsrea4LuwHybPq8P63,n6qN8s5ydIYsrea4LuwHybPq8P63,,,,,,,,,,,,,,,,,,,1507.0,,,6346e221d4cea480a1a39b52,16:53:27,27/03/2024
html-keyboard-response,57,110400,0.0-26.0-0.0,1093.6000001430511,"<div style=""display: flex; flex-direction: column; align-items: center; margin-top: -40px;""><img src=""images/pattern_4.png"" style=""width: 234px; height: 230px; margin-top: -50px;""><div style=""display: flex; justify-content: space-between; margin-top: 33px;""><img src=""images/choice_trial_7.png"" style=""width: 408px; height: 417px; margin-right: 200px;""><img src=""images/choice_trial_8.png"" style=""width: 408px; height: 417px;""></div></div>",j,delaylearn,learning,trial,n6qN8s5ydIYsrea4LuwHybPq8P63,n6qN8s5ydIYsrea4LuwHybPq8P63,1.0,images/choice_trial_7.png,images/choice_trial_8.png,images/pattern_4.png,f,f,7000.0,7.0,8.0,3.0,0.0,11.0,0.0,0.0,8.0,60.0,,,,,,6346e221d4cea480a1a39b52,16:53:27,27/03/2024
html-keyboard-response,58,111404,0.0-26.0-1.0,,"<div style=""display: flex; flex-direction: column; align-items: center; margin-top: -40px;""><img src=""images/pattern_4.png"" style=""width: 234px; height: 230px; margin-top: -50px;""><div style=""display: flex; justify-content: space-between; margin-top: 33px;""><img src=""images/choice_trial_8.png"" style=""width: 408px; height: 417px; margin-left:608px;""></div></div>",,delaylearn,learning,display_response,n6qN8s5ydIYsrea4LuwHybPq8P63,n6qN8s5ydIYsrea4LuwHybPq8P63,,,,,,,,,,,,,,,,,chosen stimuli: images/choice_trial_8.png,,,,,6346e221d4cea480a1a39b52,16:53:27,27/03/2024
html-keyboard-response,59,118406,0.0-26.0-2.0,,,,delaylearn,learning,feedback_duration_window,n6qN8s5ydIYsrea4LuwHybPq8P63,n6qN8s5ydIYsrea4LuwHybPq8P63,,,,,,,,,,,,,,,,,,7000.0,,,,6346e221d4cea480a1a39b52,16:53:27,27/03/2024
html-keyboard-response,60,119909,0.0-26.0-3.0,,<div style='margin:auto;width: auto; font-size: 150%'><span style='font-weight: bold; font-size: 100px; color: red;'>0 points!</span><br><br></div>,,delaylearn,learning,feedback_image_window,n6qN8s5ydIYsrea4LuwHybPq8P63,n6qN8s5ydIYsrea4LuwHybPq8P63,,,,,,,,,,,,,,,,,,,,,,6346e221d4cea480a1a39b52,16:53:27,27/03/2024
html-keyboard-response,61,121718,0.0-27.0,,"<div style=""font-size:100px;"">+</div>",,delaylearn,learning,ITI,n6qN8s5ydIYsrea4LuwHybPq8P63,n6qN8s5ydIYsrea4LuwHybPq8P63,,,,,,,,,,,,,,,,,,,1806.0,,,6346e221d4cea480a1a39b52,16:53:27,27/03/2024
html-keyboard-response,62,123003,0.0-28.0-0.0,1282.0999999046326,"<div style=""display: flex; flex-direction: column; align-items: center; margin-top: -40px;""><img src=""images/pattern_5.png"" style=""width: 234px; height: 230px; margin-top: -50px;""><div style=""display: flex; justify-content: space-between; margin-top: 33px;""><img src=""images/choice_trial_10.png"" style=""width: 408px; height: 417px; margin-right: 200px;""><img src=""images/choice_trial_9.png"" style=""width: 408px; height: 417px;""></div></div>",j,delaylearn,learning,trial,n6qN8s5ydIYsrea4LuwHybPq8P63,n6qN8s5ydIYsrea4LuwHybPq8P63,1.0,images/choice_trial_10.png,images/choice_trial_9.png,images/pattern_5.png,j,j,750.0,10.0,9.0,4.0,1.0,12.0,1.0,1.0,9.0,70.0,,,,,,6346e221d4cea480a1a39b52,16:53:27,27/03/2024
html-keyboard-response,63,124007,0.0-28.0-1.0,,"<div style=""display: flex; flex-direction: column; align-items: center; margin-top: -40px;""><img src=""images/pattern_5.png"" style=""width: 234px; height: 230px; margin-top: -50px;""><div style=""display: flex; justify-content: space-between; margin-top: 33px;""><img src=""images/choice_trial_9.png"" style=""width: 408px; height: 417px; margin-left:608px;""></div></div>",,delaylearn,learning,display_response,n6qN8s5ydIYsrea4LuwHybPq8P63,n6qN8s5ydIYsrea4LuwHybPq8P63,,,,,,,,,,,,,,,,,chosen stimuli: images/choice_trial_9.png,,,,,6346e221d4cea480a1a39b52,16:53:27,27/03/2024
html-keyboard-response,64,124760,0.0-28.0-2.0,,,,delaylearn,learning,feedback_duration_window,n6qN8s5ydIYsrea4LuwHybPq8P63,n6qN8s5ydIYsrea4LuwHybPq8P63,,,,,,,,,,,,,,,,,,750.0,,,,6346e221d4cea480a1a39b52,16:53:27,27/03/2024
html-keyboard-response,65,126263,0.0-28.0-3.0,,<div style='margin:auto;width: auto; font-size: 150%'><span style='font-weight: bold; font-size: 100px; color: green;'>+10 points!</span><br><br></div>,,delaylearn,learning,feedback_image_window,n6qN8s5ydIYsrea4LuwHybPq8P63,n6qN8s5ydIYsrea4LuwHybPq8P63,,,,,,,,,,,,,,,,,,,,,,6346e221d4cea480a1a39b52,16:53:27,27/03/2024
html-keyboard-response,66,127947,0.0-29.0,,"<div style=""font-size:100px;"">+</div>",,delaylearn,learning,ITI,n6qN8s5ydIYsrea4LuwHybPq8P63,n6qN8s5ydIYsrea4LuwHybPq8P63,,,,,,,,,,,,,,,,,,,1681.0,,,6346e221d4cea480a1a39b52,16:53:27,27/03/2024
html-keyboard-response,67,128880,0.0-30.0-0.0,930.5,"<div style=""display: flex; flex-direction: column; align-items: center; margin-top: -40px;""><img src=""images/pattern_6.png"" style=""width: 234px; height: 230px; margin-top: -50px;""><div style=""display: flex; justify-content: space-between; margin-top: 33px;""><img src=""images/choice_trial_11.png"" style=""width: 408px; height: 417px; margin-right: 200px;""><img src=""images/choice_trial_12.png"" style=""width: 408px; height: 417px;""></div></div>",f,delaylearn,learning,trial,n6qN8s5ydIYsrea4LuwHybPq8P63,n6qN8s5ydIYsrea4LuwHybPq8P63,1.0,images/choice_trial_11.png,images/choice_trial_12.png,images/pattern_6.png,j,f,750.0,11.0,12.0,5.0,0.0,13.0,1.0,0.0,11.0,70.0,,,,,,6346e221d4cea480a1a39b52,16:53:27,27/03/2024
html-keyboard-response,68,129884,0.0-30.0-1.0,,"<div style=""display: flex; flex-direction: column; align-items: center; margin-top: -40px;""><img src=""images/pattern_6.png"" style=""width: 234px; height: 230px; margin-top: -50px;""><div style=""display: flex; justify-content: space-between; margin-top: 33px;""><img src=""images/choice_trial_11.png"" style=""width: 408px; height: 417px; margin-right: 608px;""></div></div>",,delaylearn,learning,display_response,n6qN8s5ydIYsrea4LuwHybPq8P63,n6qN8s5ydIYsrea4LuwHybPq8P63,,,,,,,,,,,,,,,,,chosen stimuli: images/choice_trial_11.png,,,,,6346e221d4cea480a1a39b52,16:53:27,27/03/2024
html-keyboard-response,69,130638,0.0-30.0-2.0,,,,delaylearn,learning,feedback_duration_window,n6qN8s5ydIYsrea4LuwHybPq8P63,n6qN8s5ydIYsrea4LuwHybPq8P63,,,,,,,,,,,,,,,,,,750.0,,,,6346e221d4cea480a1a39b52,16:53:27,27/03/2024
html-keyboard-response,70,132141,0.0-30.0-3.0,,<div style='margin:auto;width: auto; font-size: 150%'><span style='font-weight: bold; font-size: 100px; color: red;'>0 points!</span><br><br></div>,,delaylearn,learning,feedback_image_window,n6qN8s5ydIYsrea4LuwHybPq8P63,n6qN8s5ydIYsrea4LuwHybPq8P63,,,,,,,,,,,,,,,,,,,,,,6346e221d4cea480a1a39b52,16:53:27,27/03/2024
html-keyboard-response,71,132644,0.0-31.0-0.0,,,,,,mood_trial_fixation,n6qN8s5ydIYsrea4LuwHybPq8P63,,,,,,,,,,,,,,,,,,,,,,,6346e221d4cea480a1a39b52,16:53:27,27/03/2024
lmdlab-html-vas-response,72,137007,0.0-31.0-1.0,3356.0,How happy are you right now?,0.5092592592592593,delaylearn,learning,mood_trial,n6qN8s5ydIYsrea4LuwHybPq8P63,n6qN8s5ydIYsrea4LuwHybPq8P63,,,,,,,,,,,,,,,,,,,,"['Very unhappy', 'Very happy']",,6346e221d4cea480a1a39b52,16:53:27,27/03/2024
html-keyboard-response,73,139467,0.0-32.0,,"<div style=""font-size:100px;"">+</div>",,delaylearn,learning,ITI,n6qN8s5ydIYsrea4LuwHybPq8P63,n6qN8s5ydIYsrea4LuwHybPq8P63,,,,,,,,,,,,,,,,,,,2457.0,,,6346e221d4cea480a1a39b52,16:53:27,27/03/2024
html-keyboard-response,74,140623,0.0-33.0-0.0,1152.5999999046326,"<div style=""display: flex; flex-direction: column; align-items: center; margin-top: -40px;""><img src=""images/pattern_1.png"" style=""width: 234px; height: 230px; margin-top: -50px;""><div style=""display: flex; justify-content: space-between; margin-top: 33px;""><img src=""images/choice_trial_2.png"" style=""width: 408px; height: 417px; margin-right: 200px;""><img src=""images/choice_trial_1.png"" style=""width: 408px; height: 417px;""></div></div>",j,delaylearn,learning,trial,n6qN8s5ydIYsrea4LuwHybPq8P63,n6qN8s5ydIYsrea4LuwHybPq8P63,1.0,images/choice_trial_2.png,images/choice_trial_1.png,images/pattern_1.png,j,j,7000.0,2.0,1.0,1.0,1.0,14.0,1.0,1.0,1.0,80.0,,,,,,6346e221d4cea480a1a39b52,16:53:27,27/03/2024
html-keyboard-response,75,141627,0.0-33.0-1.0,,"<div style=""display: flex; flex-direction: column; align-items: center; margin-top: -40px;""><img src=""images/pattern_1.png"" style=""width: 234px; height: 230px; margin-top: -50px;""><div style=""display: flex; justify-content: space-between; margin-top: 33px;""><img src=""images/choice_trial_1.png"" style=""width: 408px; height: 417px; margin-left:608px;""></div></div>",,delaylearn,learning,display_response,n6qN8s5ydIYsrea4LuwHybPq8P63,n6qN8s5ydIYsrea4LuwHybPq8P63,,,,,,,,,,,,,,,,,chosen stimuli: images/choice_trial_1.png,,,,,6346e221d4cea480a1a39b52,16:53:27,27/03/2024
html-keyboard-response,76,148630,0.0-33.0-2.0,,,,delaylearn,learning,feedback_duration_window,n6qN8s5ydIYsrea4LuwHybPq8P63,n6qN8s5ydIYsrea4LuwHybPq8P63,,,,,,,,,,,,,,,,,,7000.0,,,,6346e221d4cea480a1a39b52,16:53:27,27/03/2024
html-keyboard-response,77,150133,0.0-33.0-3.0,,<div style='margin:auto;width: auto; font-size: 150%'><span style='font-weight: bold; font-size: 100px; color: green;'>+10 points!</span><br><br></div>,,delaylearn,learning,feedback_image_window,n6qN8s5ydIYsrea4LuwHybPq8P63,n6qN8s5ydIYsrea4LuwHybPq8P63,,,,,,,,,,,,,,,,,,,,,,6346e221d4cea480a1a39b52,16:53:27,27/03/2024
html-keyboard-response,78,151891,0.0-34.0,,"<div style=""font-size:100px;"">+</div>",,delaylearn,learning,ITI,n6qN8s5ydIYsrea4LuwHybPq8P63,n6qN8s5ydIYsrea4LuwHybPq8P63,,,,,,,,,,,,,,,,,,,1754.0,,,6346e221d4cea480a1a39b52,16:53:27,27/03/2024
html-keyboard-response,79,152839,0.0-35.0-0.0,944.7000000476837,"<div style=""display: flex; flex-direction: column; align-items: center; margin-top: -40px;""><img src=""images/pattern_3.png"" style=""width: 234px; height: 230px; margin-top: -50px;""><div style=""display: flex; justify-content: space-between; margin-top: 33px;""><img src=""images/choice_trial_6.png"" style=""width: 408px; height: 417px; margin-right: 200px;""><img src=""images/choice_trial_5.png"" style=""width: 408px; height: 417px;""></div></div>",j,delaylearn,learning,trial,n6qN8s5ydIYsrea4LuwHybPq8P63,n6qN8s5ydIYsrea4LuwHybPq8P63,1.0,images/choice_trial_6.png,images/choice_trial_5.png,images/pattern_3.png,f,j,7000.0,6.0,5.0,2.0,1.0,15.0,1.0,0.0,5.0,80.0,,,,,,6346e221d4cea480a1a39b52,16:53:27,27/03/2024
html-keyboard-response,80,153843,0.0-35.0-1.0,,"<div style=""display: flex; flex-direction: column; align-items: center; margin-top: -40px;""><img src=""images/pattern_3.png"" style=""width: 234px; height: 230px; margin-top: -50px;""><div style=""display: flex; justify-content: space-between; margin-top: 33px;""><img src=""images/choice_trial_5.png"" style=""width: 408px; height: 417px; margin-left:608px;""></div></div>",,delaylearn,learning,display_response,n6qN8s5ydIYsrea4LuwHybPq8P63,n6qN8s5ydIYsrea4LuwHybPq8P63,,,,,,,,,,,,,,,,,chosen stimuli: images/choice_trial_5.png,,,,,6346e221d4cea480a1a39b52,16:53:27,27/03/2024
html-keyboard-response,81,160845,0.0-35.0-2.0,,,,delaylearn,learning,feedback_duration_window,n6qN8s5ydIYsrea4LuwHybPq8P63,n6qN8s5ydIYsrea4LuwHybPq8P63,,,,,,,,,,,,,,,,,,7000.0,,,,6346e221d4cea480a1a39b52,16:53:27,27/03/2024
html-keyboard-response,82,162349,0.0-35.0-3.0,,<div style='margin:auto;width: auto; font-size: 150%'><span style='font-weight: bold; font-size: 100px; color: red;'>0 points!</span><br><br></div>,,delaylearn,learning,feedback_image_window,n6qN8s5ydIYsrea4LuwHybPq8P63,n6qN8s5ydIYsrea4LuwHybPq8P63,,,,,,,,,,,,,,,,,,,,,,6346e221d4cea480a1a39b52,16:53:27,27/03/2024
html-keyboard-response,83,164384,0.0-36.0,,"<div style=""font-size:100px;"">+</div>",,delaylearn,learning,ITI,n6qN8s5ydIYsrea4LuwHybPq8P63,n6qN8s5ydIYsrea4LuwHybPq8P63,,,,,,,,,,,,,,,,,,,2032.0,,,6346e221d4cea480a1a39b52,16:53:27,27/03/2024
html-keyboard-response,84,165270,0.0-37.0-0.0,882.8000001907349,"<div style=""display: flex; flex-direction: column; align-items: center; margin-top: -40px;""><img src=""images/pattern_5.png"" style=""width: 234px; height: 230px; margin-top: -50px;""><div style=""display: flex; justify-content: space-between; margin-top: 33px;""><img src=""images/choice_trial_9.png"" style=""width: 408px; height: 417px; margin-right: 200px;""><img src=""images/choice_trial_10.png"" style=""width: 408px; height: 417px;""></div></div>",f,delaylearn,learning,trial,n6qN8s5ydIYsrea4LuwHybPq8P63,n6qN8s5ydIYsrea4LuwHybPq8P63,1.0,images/choice_trial_9.png,images/choice_trial_10.png,images/pattern_5.png,f,f,750.0,9.0,10.0,4.0,0.0,16.0,1.0,1.0,9.0,90.0,,,,,,6346e221d4cea480a1a39b52,16:53:27,27/03/2024
html-keyboard-response,85,166273,0.0-37.0-1.0,,"<div style=""display: flex; flex-direction: column; align-items: center; margin-top: -40px;""><img src=""images/pattern_5.png"" style=""width: 234px; height: 230px; margin-top: -50px;""><div style=""display: flex; justify-content: space-between; margin-top: 33px;""><img src=""images/choice_trial_9.png"" style=""width: 408px; height: 417px; margin-right: 608px;""></div></div>",,delaylearn,learning,display_response,n6qN8s5ydIYsrea4LuwHybPq8P63,n6qN8s5ydIYsrea4LuwHybPq8P63,,,,,,,,,,,,,,,,,chosen stimuli: images/choice_trial_9.png,,,,,6346e221d4cea480a1a39b52,16:53:27,27/03/2024
html-keyboard-response,86,167025,0.0-37.0-2.0,,,,delaylearn,learning,feedback_duration_window,n6qN8s5ydIYsrea4LuwHybPq8P63,n6qN8s5ydIYsrea4LuwHybPq8P63,,,,,,,,,,,,,,,,,,750.0,,,,6346e221d4cea480a1a39b52,16:53:27,27/03/2024
html-keyboard-response,87,168528,0.0-37.0-3.0,,<div style='margin:auto;width: auto; font-size: 150%'><span style='font-weight: bold; font-size: 100px; color: green;'>+10 points!</span><br><br></div>,,delaylearn,learning,feedback_image_window,n6qN8s5ydIYsrea4LuwHybPq8P63,n6qN8s5ydIYsrea4LuwHybPq8P63,,,,,,,,,,,,,,,,,,,,,,6346e221d4cea480a1a39b52,16:53:27,27/03/2024
html-keyboard-response,88,169031,0.0-38.0-0.0,,,,,,mood_trial_fixation,n6qN8s5ydIYsrea4LuwHybPq8P63,,,,,,,,,,,,,,,,,,,,,,,6346e221d4cea480a1a39b52,16:53:27,27/03/2024
lmdlab-html-vas-response,89,172807,0.0-38.0-1.0,2768.0,How happy are you right now?,0.6574074074074074,delaylearn,learning,mood_trial,n6qN8s5ydIYsrea4LuwHybPq8P63,n6qN8s5ydIYsrea4LuwHybPq8P63,,,,,,,,,,,,,,,,,,,,"['Very unhappy', 'Very happy']",,6346e221d4cea480a1a39b52,16:53:27,27/03/2024
html-keyboard-response,90,174422,0.0-39.0,,"<div style=""font-size:100px;"">+</div>",,delaylearn,learning,ITI,n6qN8s5ydIYsrea4LuwHybPq8P63,n6qN8s5ydIYsrea4LuwHybPq8P63,,,,,,,,,,,,,,,,,,,1612.0,,,6346e221d4cea480a1a39b52,16:53:27,27/03/2024
html-keyboard-response,91,177426,0.0-40.0-0.0,,"<div style=""display: flex; flex-direction: column; align-items: center; margin-top: -40px;""><img src=""images/pattern_6.png"" style=""width: 234px; height: 230px; margin-top: -50px;""><div style=""display: flex; justify-content: space-between; margin-top: 33px;""><img src=""images/choice_trial_11.png"" style=""width: 408px; height: 417px; margin-right: 200px;""><img src=""images/choice_trial_12.png"" style=""width: 408px; height: 417px;""></div></div>",,delaylearn,learning,trial,n6qN8s5ydIYsrea4LuwHybPq8P63,n6qN8s5ydIYsrea4LuwHybPq8P63,1.0,images/choice_trial_11.png,images/choice_trial_12.png,images/pattern_6.png,f,f,750.0,11.0,12.0,5.0,0.0,17.0,0.0,0.0,0.0,90.0,,,,,,6346e221d4cea480a1a39b52,16:53:27,27/03/2024
html-keyboard-response,92,178430,0.0-40.0-1.0,,<div style='font-weight: bold; font-size: 75px; color: red;'>Missed Trial <br><br><br><br> Please respond faster</div>,,delaylearn,learning,display_response,n6qN8s5ydIYsrea4LuwHybPq8P63,n6qN8s5ydIYsrea4LuwHybPq8P63,,,,,,,,,,,,,,,,,Missed trial,,,,,6346e221d4cea480a1a39b52,16:53:27,27/03/2024
html-keyboard-response,93,178436,0.0-40.0-2.0,,,,delaylearn,learning,feedback_duration_window,n6qN8s5ydIYsrea4LuwHybPq8P63,n6qN8s5ydIYsrea4LuwHybPq8P63,,,,,,,,,,,,,,,,,,0.0,,,,6346e221d4cea480a1a39b52,16:53:27,27/03/2024
html-keyboard-response,94,178442,0.0-40.0-3.0,,,,delaylearn,learning,feedback_image_window,n6qN8s5ydIYsrea4LuwHybPq8P63,n6qN8s5ydIYsrea4LuwHybPq8P63,,,,,,,,,,,,,,,,,,,,,,6346e221d4cea480a1a39b52,16:53:27,27/03/2024
html-keyboard-response,95,180363,0.0-41.0,,"<div style=""font-size:100px;"">+</div>",,delaylearn,learning,ITI,n6qN8s5ydIYsrea4LuwHybPq8P63,n6qN8s5ydIYsrea4LuwHybPq8P63,,,,,,,,,,,,,,,,,,,1919.0,,,6346e221d4cea480a1a39b52,16:53:27,27/03/2024
html-keyboard-response,96,181813,0.0-42.0-0.0,1446.7999999523163,"<div style=""display: flex; flex-direction: column; align-items: center; margin-top: -40px;""><img src=""images/pattern_4.png"" style=""width: 234px; height: 230px; margin-top: -50px;""><div style=""display: flex; justify-content: space-between; margin-top: 33px;""><img src=""images/choice_trial_8.png"" style=""width: 408px; height: 417px; margin-right: 200px;""><img src=""images/choice_trial_7.png"" style=""width: 408px; height: 417px;""></div></div>",j,delaylearn,learning,trial,n6qN8s5ydIYsrea4LuwHybPq8P63,n6qN8s5ydIYsrea4LuwHybPq8P63,1.0,images/choice_trial_8.png,images/choice_trial_7.png,images/pattern_4.png,j,j,7000.0,8.0,7.0,3.0,1.0,18.0,1.0,1.0,7.0,100.0,,,,,,6346e221d4cea480a1a39b52,16:53:27,27/03/2024
html-keyboard-response,97,182817,0.0-42.0-1.0,,"<div style=""display: flex; flex-direction: column; align-items: center; margin-top: -40px;""><img src=""images/pattern_4.png"" style=""width: 234px; height: 230px; margin-top: -50px;""><div style=""display: flex; justify-content: space-between; margin-top: 33px;""><img src=""images/choice_trial_7.png"" style=""width: 408px; height: 417px; margin-left:608px;""></div></div>",,delaylearn,learning,display_response,n6qN8s5ydIYsrea4LuwHybPq8P63,n6qN8s5ydIYsrea4LuwHybPq8P63,,,,,,,,,,,,,,,,,chosen stimuli: images/choice_trial_7.png,,,,,6346e221d4cea480a1a39b52,16:53:27,27/03/2024
html-keyboard-response,98,189819,0.0-42.0-2.0,,,,delaylearn,learning,feedback_duration_window,n6qN8s5ydIYsrea4LuwHybPq8P63,n6qN8s5ydIYsrea4LuwHybPq8P63,,,,,,,,,,,,,,,,,,7000.0,,,,6346e221d4cea480a1a39b52,16:53:27,27/03/2024
html-keyboard-response,99,191324,0.0-42.0-3.0,,<div style='margin:auto;width: auto; font-size: 150%'><span style='font-weight: bold; font-size: 100px; color: green;'>+10 points!</span><br><br></div>,,delaylearn,learning,feedback_image_window,n6qN8s5ydIYsrea4LuwHybPq8P63,n6qN8s5ydIYsrea4LuwHybPq8P63,,,,,,,,,,,,,,,,,,,,,,6346e221d4cea480a1a39b52,16:53:27,27/03/2024
html-keyboard-response,100,193202,0.0-43.0,,"<div style=""font-size:100px;"">+</div>",,delaylearn,learning,ITI,n6qN8s5ydIYsrea4LuwHybPq8P63,n6qN8s5ydIYsrea4LuwHybPq8P63,,,,,,,,,,,,,,,,,,,1875.0,,,6346e221d4cea480a1a39b52,16:53:27,27/03/2024
html-keyboard-response,101,194977,0.0-44.0-0.0,1771.8999998569489,"<div style=""display: flex; flex-direction: column; align-items: center; margin-top: -40px;""><img src=""images/pattern_7.png"" style=""width: 234px; height: 230px; margin-top: -50px;""><div style=""display: flex; justify-content: space-between; margin-top: 33px;""><img src=""images/choice_trial_13.png"" style=""width: 408px; height: 417px; margin-right: 200px;""><img src=""images/choice_trial_14.png"" style=""width: 408px; height: 417px;""></div></div>",f,delaylearn,learning,trial,n6qN8s5ydIYsrea4LuwHybPq8P63,n6qN8s5ydIYsrea4LuwHybPq8P63,1.0,images/choice_trial_13.png,images/choice_trial_14.png,images/pattern_7.png,j,f,750.0,13.0,14.0,6.0,0.0,19.0,1.0,0.0,13.0,100.0,,,,,,6346e221d4cea480a1a39b52,16:53:27,27/03/2024
html-keyboard-response,102,195981,0.0-44.0-1.0,,"<div style=""display: flex; flex-direction: column; align-items: center; margin-top: -40px;""><img src=""images/pattern_7.png"" style=""width: 234px; height: 230px; margin-top: -50px;""><div style=""display: flex; justify-content: space-between; margin-top: 33px;""><img src=""images/choice_trial_13.png"" style=""width: 408px; height: 417px; margin-right: 608px;""></div></div>",,delaylearn,learning,display_response,n6qN8s5ydIYsrea4LuwHybPq8P63,n6qN8s5ydIYsrea4LuwHybPq8P63,,,,,,,,,,,,,,,,,chosen stimuli: images/choice_trial_13.png,,,,,6346e221d4cea480a1a39b52,16:53:27,27/03/2024
html-keyboard-response,103,196734,0.0-44.0-2.0,,,,delaylearn,learning,feedback_duration_window,n6qN8s5ydIYsrea4LuwHybPq8P63,n6qN8s5ydIYsrea4LuwHybPq8P63,,,,,,,,,,,,,,,,,,750.0,,,,6346e221d4cea480a1a39b52,16:53:27,27/03/2024
html-keyboard-response,104,198237,0.0-44.0-3.0,,<div style='margin:auto;width: auto; font-size: 150%'><span style='font-weight: bold; font-size: 100px; color: red;'>0 points!</span><br><br></div>,,delaylearn,learning,feedback_image_window,n6qN8s5ydIYsrea4LuwHybPq8P63,n6qN8s5ydIYsrea4LuwHybPq8P63,,,,,,,,,,,,,,,,,,,,,,6346e221d4cea480a1a39b52,16:53:27,27/03/2024
html-keyboard-response,105,199919,0.0-45.0,,"<div style=""font-size:100px;"">+</div>",,delaylearn,learning,ITI,n6qN8s5ydIYsrea4LuwHybPq8P63,n6qN8s5ydIYsrea4LuwHybPq8P63,,,,,,,,,,,,,,,,,,,1678.0,,,6346e221d4cea480a1a39b52,16:53:27,27/03/2024
html-keyboard-response,106,201092,0.0-46.0-0.0,1169.8999998569489,"<div style=""display: flex; flex-direction: column; align-items: center; margin-top: -40px;""><img src=""images/pattern_1.png"" style=""width: 234px; height: 230px; margin-top: -50px;""><div style=""display: flex; justify-content: space-between; margin-top: 33px;""><img src=""images/choice_trial_1.png"" style=""width: 408px; height: 417px; margin-right: 200px;""><img src=""images/choice_trial_2.png"" style=""width: 408px; height: 417px;""></div></div>",f,delaylearn,learning,trial,n6qN8s5ydIYsrea4LuwHybPq8P63,n6qN8s5ydIYsrea4LuwHybPq8P63,1.0,images/choice_trial_1.png,images/choice_trial_2.png,images/pattern_1.png,f,f,7000.0,1.0,2.0,1.0,0.0,20.0,1.0,1.0,1.0,110.0,,,,,,6346e221d4cea480a1a39b52,16:53:27,27/03/2024
html-keyboard-response,107,202095,0.0-46.0-1.0,,"<div style=""display: flex; flex-direction: column; align-items: center; margin-top: -40px;""><img src=""images/pattern_1.png"" style=""width: 234px; height: 230px; margin-top: -50px;""><div style=""display: flex; justify-content: space-between; margin-top: 33px;""><img src=""images/choice_trial_1.png"" style=""width: 408px; height: 417px; margin-right: 608px;""></div></div>",,delaylearn,learning,display_response,n6qN8s5ydIYsrea4LuwHybPq8P63,n6qN8s5ydIYsrea4LuwHybPq8P63,,,,,,,,,,,,,,,,,chosen stimuli: images/choice_trial_1.png,,,,,6346e221d4cea480a1a39b52,16:53:27,27/03/2024
html-keyboard-response,108,209098,0.0-46.0-2.0,,,,delaylearn,learning,feedback_duration_window,n6qN8s5ydIYsrea4LuwHybPq8P63,n6qN8s5ydIYsrea4LuwHybPq8P63,,,,,,,,,,,,,,,,,,7000.0,,,,6346e221d4cea480a1a39b52,16:53:27,27/03/2024
html-keyboard-response,109,210602,0.0-46.0-3.0,,<div style='margin:auto;width: auto; font-size: 150%'><span style='font-weight: bold; font-size: 100px; color: green;'>+10 points!</span><br><br></div>,,delaylearn,learning,feedback_image_window,n6qN8s5ydIYsrea4LuwHybPq8P63,n6qN8s5ydIYsrea4LuwHybPq8P63,,,,,,,,,,,,,,,,,,,,,,6346e221d4cea480a1a39b52,16:53:27,27/03/2024
html-keyboard-response,110,212178,0.0-47.0,,"<div style=""font-size:100px;"">+</div>",,delaylearn,learning,ITI,n6qN8s5ydIYsrea4LuwHybPq8P63,n6qN8s5ydIYsrea4LuwHybPq8P63,,,,,,,,,,,,,,,,,,,1574.0,,,6346e221d4cea480a1a39b52,16:53:27,27/03/2024
html-keyboard-response,111,213634,0.0-48.0-0.0,1453.6999998092651,"<div style=""display: flex; flex-direction: column; align-items: center; margin-top: -40px;""><img src=""images/pattern_6.png"" style=""width: 234px; height: 230px; margin-top: -50px;""><div style=""display: flex; justify-content: space-between; margin-top: 33px;""><img src=""images/choice_trial_12.png"" style=""width: 408px; height: 417px; margin-right: 200px;""><img src=""images/choice_trial_11.png"" style=""width: 408px; height: 417px;""></div></div>",j,delaylearn,learning,trial,n6qN8s5ydIYsrea4LuwHybPq8P63,n6qN8s5ydIYsrea4LuwHybPq8P63,1.0,images/choice_trial_12.png,images/choice_trial_11.png,images/pattern_6.png,j,j,750.0,12.0,11.0,5.0,1.0,21.0,1.0,1.0,11.0,120.0,,,,,,6346e221d4cea480a1a39b52,16:53:27,27/03/2024
html-keyboard-response,112,214638,0.0-48.0-1.0,,"<div style=""display: flex; flex-direction: column; align-items: center; margin-top: -40px;""><img src=""images/pattern_6.png"" style=""width: 234px; height: 230px; margin-top: -50px;""><div style=""display: flex; justify-content: space-between; margin-top: 33px;""><img src=""images/choice_trial_11.png"" style=""width: 408px; height: 417px; margin-left:608px;""></div></div>",,delaylearn,learning,display_response,n6qN8s5ydIYsrea4LuwHybPq8P63,n6qN8s5ydIYsrea4LuwHybPq8P63,,,,,,,,,,,,,,,,,chosen stimuli: images/choice_trial_11.png,,,,,6346e221d4cea480a1a39b52,16:53:27,27/03/2024
html-keyboard-response,113,215390,0.0-48.0-2.0,,,,delaylearn,learning,feedback_duration_window,n6qN8s5ydIYsrea4LuwHybPq8P63,n6qN8s5ydIYsrea4LuwHybPq8P63,,,,,,,,,,,,,,,,,,750.0,,,,6346e221d4cea480a1a39b52,16:53:27,27/03/2024
html-keyboard-response,114,216894,0.0-48.0-3.0,,<div style='margin:auto;width: auto; font-size: 150%'><span style='font-weight: bold; font-size: 100px; color: green;'>+10 points!</span><br><br></div>,,delaylearn,learning,feedback_image_window,n6qN8s5ydIYsrea4LuwHybPq8P63,n6qN8s5ydIYsrea4LuwHybPq8P63,,,,,,,,,,,,,,,,,,,,,,6346e221d4cea480a1a39b52,16:53:27,27/03/2024
html-keyboard-response,115,218764,0.0-49.0,,"<div style=""font-size:100px;"">+</div>",,delaylearn,learning,ITI,n6qN8s5ydIYsrea4LuwHybPq8P63,n6qN8s5ydIYsrea4LuwHybPq8P63,,,,,,,,,,,,,,,,,,,1867.0,,,6346e221d4cea480a1a39b52,16:53:27,27/03/2024
html-keyboard-response,116,220061,0.0-50.0-0.0,1293.4000000953674,"<div style=""display: flex; flex-direction: column; align-items: center; margin-top: -40px;""><img src=""images/pattern_4.png"" style=""width: 234px; height: 230px; margin-top: -50px;""><div style=""display: flex; justify-content: space-between; margin-top: 33px;""><img src=""images/choice_trial_7.png"" style=""width: 408px; height: 417px; margin-right: 200px;""><img src=""images/choice_trial_8.png"" style=""width: 408px; height: 417px;""></div></div>",f,delaylearn,learning,trial,n6qN8s5ydIYsrea4LuwHybPq8P63,n6qN8s5ydIYsrea4LuwHybPq8P63,1.0,images/choice_trial_7.png,images/choice_trial_8.png,images/pattern_4.png,f,f,7000.0,7.0,8.0,3.0,0.0,22.0,1.0,1.0,7.0,130.0,,,,,,6346e221d4cea480a1a39b52,16:53:27,27/03/2024
html-keyboard-response,117,221065,0.0-50.0-1.0,,"<div style=""display: flex; flex-direction: column; align-items: center; margin-top: -40px;""><img src=""images/pattern_4.png"" style=""width: 234px; height: 230px; margin-top: -50px;""><div style=""display: flex; justify-content: space-between; margin-top: 33px;""><img src=""images/choice_trial_7.png"" style=""width: 408px; height: 417px; margin-right: 608px;""></div></div>",,delaylearn,learning,display_response,n6qN8s5ydIYsrea4LuwHybPq8P63,n6qN8s5ydIYsrea4LuwHybPq8P63,,,,,,,,,,,,,,,,,chosen stimuli: images/choice_trial_7.png,,,,,6346e221d4cea480a1a39b52,16:53:27,27/03/2024
html-keyboard-response,118,228068,0.0-50.0-2.0,,,,delaylearn,learning,feedback_duration_window,n6qN8s5ydIYsrea4LuwHybPq8P63,n6qN8s5ydIYsrea4LuwHybPq8P63,,,,,,,,,,,,,,,,,,7000.0,,,,6346e221d4cea480a1a39b52,16:53:27,27/03/2024
html-keyboard-response,119,229573,0.0-50.0-3.0,,<div style='margin:auto;width: auto; font-size: 150%'><span style='font-weight: bold; font-size: 100px; color: green;'>+10 points!</span><br><br></div>,,delaylearn,learning,feedback_image_window,n6qN8s5ydIYsrea4LuwHybPq8P63,n6qN8s5ydIYsrea4LuwHybPq8P63,,,,,,,,,,,,,,,,,,,,,,6346e221d4cea480a1a39b52,16:53:27,27/03/2024
html-keyboard-response,120,230075,0.0-51.0-0.0,,,,,,mood_trial_fixation,n6qN8s5ydIYsrea4LuwHybPq8P63,,,,,,,,,,,,,,,,,,,,,,,6346e221d4cea480a1a39b52,16:53:27,27/03/2024
lmdlab-html-vas-response,121,235023,0.0-51.0-1.0,3941.0,How happy are you right now?,0.7222222222222222,delaylearn,learning,mood_trial,n6qN8s5ydIYsrea4LuwHybPq8P63,n6qN8s5ydIYsrea4LuwHybPq8P63,,,,,,,,,,,,,,,,,,,,"['Very unhappy', 'Very happy']",,6346e221d4cea480a1a39b52,16:53:27,27/03/2024
html-keyboard-response,122,237070,0.0-52.0,,"<div style=""font-size:100px;"">+</div>",,delaylearn,learning,ITI,n6qN8s5ydIYsrea4LuwHybPq8P63,n6qN8s5ydIYsrea4LuwHybPq8P63,,,,,,,,,,,,,,,,,,,2045.0,,,6346e221d4cea480a1a39b52,16:53:27,27/03/2024
html-keyboard-response,123,238333,0.0-53.0-0.0,1260.3999998569489,"<div style=""display: flex; flex-direction: column; align-items: center; margin-top: -40px;""><img src=""images/pattern_7.png"" style=""width: 234px; height: 230px; margin-top: -50px;""><div style=""display: flex; justify-content: space-between; margin-top: 33px;""><img src=""images/choice_trial_14.png"" style=""width: 408px; height: 417px; margin-right: 200px;""><img src=""images/choice_trial_13.png"" style=""width: 408px; height: 417px;""></div></div>",j,delaylearn,learning,trial,n6qN8s5ydIYsrea4LuwHybPq8P63,n6qN8s5ydIYsrea4LuwHybPq8P63,1.0,images/choice_trial_14.png,images/choice_trial_13.png,images/pattern_7.png,j,j,750.0,14.0,13.0,6.0,1.0,23.0,1.0,1.0,13.0,140.0,,,,,,6346e221d4cea480a1a39b52,16:53:27,27/03/2024
html-keyboard-response,124,239337,0.0-53.0-1.0,,"<div style=""display: flex; flex-direction: column; align-items: center; margin-top: -40px;""><img src=""images/pattern_7.png"" style=""width: 234px; height: 230px; margin-top: -50px;""><div style=""display: flex; justify-content: space-between; margin-top: 33px;""><img src=""images/choice_trial_13.png"" style=""width: 408px; height: 417px; margin-left:608px;""></div></div>",,delaylearn,learning,display_response,n6qN8s5ydIYsrea4LuwHybPq8P63,n6qN8s5ydIYsrea4LuwHybPq8P63,,,,,,,,,,,,,,,,,chosen stimuli: images/choice_trial_13.png,,,,,6346e221d4cea480a1a39b52,16:53:27,27/03/2024
html-keyboard-response,125,240090,0.0-53.0-2.0,,,,delaylearn,learning,feedback_duration_window,n6qN8s5ydIYsrea4LuwHybPq8P63,n6qN8s5ydIYsrea4LuwHybPq8P63,,,,,,,,,,,,,,,,,,750.0,,,,6346e221d4cea480a1a39b52,16:53:27,27/03/2024
html-keyboard-response,126,241594,0.0-53.0-3.0,,<div style='margin:auto;width: auto; font-size: 150%'><span style='font-weight: bold; font-size: 100px; color: green;'>+10 points!</span><br><br></div>,,delaylearn,learning,feedback_image_window,n6qN8s5ydIYsrea4LuwHybPq8P63,n6qN8s5ydIYsrea4LuwHybPq8P63,,,,,,,,,,,,,,,,,,,,,,6346e221d4cea480a1a39b52,16:53:27,27/03/2024
html-keyboard-response,127,243867,0.0-54.0,,"<div style=""font-size:100px;"">+</div>",,delaylearn,learning,ITI,n6qN8s5ydIYsrea4LuwHybPq8P63,n6qN8s5ydIYsrea4LuwHybPq8P63,,,,,,,,,,,,,,,,,,,2271.0,,,6346e221d4cea480a1a39b52,16:53:27,27/03/2024
html-keyboard-response,128,245192,0.0-55.0-0.0,1321.2000000476837,"<div style=""display: flex; flex-direction: column; align-items: center; margin-top: -40px;""><img src=""images/pattern_1.png"" style=""width: 234px; height: 230px; margin-top: -50px;""><div style=""display: flex; justify-content: space-between; margin-top: 33px;""><img src=""images/choice_trial_2.png"" style=""width: 408px; height: 417px; margin-right: 200px;""><img src=""images/choice_trial_1.png"" style=""width: 408px; height: 417px;""></div></div>",j,delaylearn,learning,trial,n6qN8s5ydIYsrea4LuwHybPq8P63,n6qN8s5ydIYsrea4LuwHybPq8P63,1.0,images/choice_trial_2.png,images/choice_trial_1.png,images/pattern_1.png,f,j,7000.0,2.0,1.0,1.0,1.0,24.0,1.0,0.0,1.0,140.0,,,,,,6346e221d4cea480a1a39b52,16:53:27,27/03/2024
html-keyboard-response,129,246194,0.0-55.0-1.0,,"<div style=""display: flex; flex-direction: column; align-items: center; margin-top: -40px;""><img src=""images/pattern_1.png"" style=""width: 234px; height: 230px; margin-top: -50px;""><div style=""display: flex; justify-content: space-between; margin-top: 33px;""><img src=""images/choice_trial_1.png"" style=""width: 408px; height: 417px; margin-left:608px;""></div></div>",,delaylearn,learning,display_response,n6qN8s5ydIYsrea4LuwHybPq8P63,n6qN8s5ydIYsrea4LuwHybPq8P63,,,,,,,,,,,,,,,,,chosen stimuli: images/choice_trial_1.png,,,,,6346e221d4cea480a1a39b52,16:53:27,27/03/2024
html-keyboard-response,130,253197,0.0-55.0-2.0,,,,delaylearn,learning,feedback_duration_window,n6qN8s5ydIYsrea4LuwHybPq8P63,n6qN8s5ydIYsrea4LuwHybPq8P63,,,,,,,,,,,,,,,,,,7000.0,,,,6346e221d4cea480a1a39b52,16:53:27,27/03/2024
html-keyboard-response,131,254700,0.0-55.0-3.0,,<div style='margin:auto;width: auto; font-size: 150%'><span style='font-weight: bold; font-size: 100px; color: red;'>0 points!</span><br><br></div>,,delaylearn,learning,feedback_image_window,n6qN8s5ydIYsrea4LuwHybPq8P63,n6qN8s5ydIYsrea4LuwHybPq8P63,,,,,,,,,,,,,,,,,,,,,,6346e221d4cea480a1a39b52,16:53:27,27/03/2024
html-keyboard-response,132,257021,0.0-56.0,,"<div style=""font-size:100px;"">+</div>",,delaylearn,learning,ITI,n6qN8s5ydIYsrea4LuwHybPq8P63,n6qN8s5ydIYsrea4LuwHybPq8P63,,,,,,,,,,,,,,,,,,,2318.0,,,6346e221d4cea480a1a39b52,16:53:27,27/03/2024
html-keyboard-response,133,257978,0.0-57.0-0.0,953.6000001430511,"<div style=""display: flex; flex-direction: column; align-items: center; margin-top: -40px;""><img src=""images/pattern_5.png"" style=""width: 234px; height: 230px; margin-top: -50px;""><div style=""display: flex; justify-content: space-between; margin-top: 33px;""><img src=""images/choice_trial_10.png"" style=""width: 408px; height: 417px; margin-right: 200px;""><img src=""images/choice_trial_9.png"" style=""width: 408px; height: 417px;""></div></div>",j,delaylearn,learning,trial,n6qN8s5ydIYsrea4LuwHybPq8P63,n6qN8s5ydIYsrea4LuwHybPq8P63,1.0,images/choice_trial_10.png,images/choice_trial_9.png,images/pattern_5.png,j,j,750.0,10.0,9.0,4.0,1.0,25.0,1.0,1.0,9.0,150.0,,,,,,6346e221d4cea480a1a39b52,16:53:27,27/03/2024
html-keyboard-response,134,258982,0.0-57.0-1.0,,"<div style=""display: flex; flex-direction: column; align-items: center; margin-top: -40px;""><img src=""images/pattern_5.png"" style=""width: 234px; height: 230px; margin-top: -50px;""><div style=""display: flex; justify-content: space-between; margin-top: 33px;""><img src=""images/choice_trial_9.png"" style=""width: 408px; height: 417px; margin-left:608px;""></div></div>",,delaylearn,learning,display_response,n6qN8s5ydIYsrea4LuwHybPq8P63,n6qN8s5ydIYsrea4LuwHybPq8P63,,,,,,,,,,,,,,,,,chosen stimuli: images/choice_trial_9.png,,,,,6346e221d4cea480a1a39b52,16:53:27,27/03/2024
html-keyboard-response,135,259735,0.0-57.0-2.0,,,,delaylearn,learning,feedback_duration_window,n6qN8s5ydIYsrea4LuwHybPq8P63,n6qN8s5ydIYsrea4LuwHybPq8P63,,,,,,,,,,,,,,,,,,750.0,,,,6346e221d4cea480a1a39b52,16:53:27,27/03/2024
html-keyboard-response,136,261239,0.0-57.0-3.0,,<div style='margin:auto;width: auto; font-size: 150%'><span style='font-weight: bold; font-size: 100px; color: green;'>+10 points!</span><br><br></div>,,delaylearn,learning,feedback_image_window,n6qN8s5ydIYsrea4LuwHybPq8P63,n6qN8s5ydIYsrea4LuwHybPq8P63,,,,,,,,,,,,,,,,,,,,,,6346e221d4cea480a1a39b52,16:53:27,27/03/2024
html-keyboard-response,137,263511,0.0-58.0,,"<div style=""font-size:100px;"">+</div>",,delaylearn,learning,ITI,n6qN8s5ydIYsrea4LuwHybPq8P63,n6qN8s5ydIYsrea4LuwHybPq8P63,,,,,,,,,,,,,,,,,,,2270.0,,,6346e221d4cea480a1a39b52,16:53:27,27/03/2024
html-keyboard-response,138,264840,0.0-59.0-0.0,1324.4000000953674,"<div style=""display: flex; flex-direction: column; align-items: center; margin-top: -40px;""><img src=""images/pattern_3.png"" style=""width: 234px; height: 230px; margin-top: -50px;""><div style=""display: flex; justify-content: space-between; margin-top: 33px;""><img src=""images/choice_trial_6.png"" style=""width: 408px; height: 417px; margin-right: 200px;""><img src=""images/choice_trial_5.png"" style=""width: 408px; height: 417px;""></div></div>",j,delaylearn,learning,trial,n6qN8s5ydIYsrea4LuwHybPq8P63,n6qN8s5ydIYsrea4LuwHybPq8P63,1.0,images/choice_trial_6.png,images/choice_trial_5.png,images/pattern_3.png,j,j,7000.0,6.0,5.0,2.0,1.0,26.0,1.0,1.0,5.0,160.0,,,,,,6346e221d4cea480a1a39b52,16:53:27,27/03/2024
html-keyboard-response,139,265843,0.0-59.0-1.0,,"<div style=""display: flex; flex-direction: column; align-items: center; margin-top: -40px;""><img src=""images/pattern_3.png"" style=""width: 234px; height: 230px; margin-top: -50px;""><div style=""display: flex; justify-content: space-between; margin-top: 33px;""><img src=""images/choice_trial_5.png"" style=""width: 408px; height: 417px; margin-left:608px;""></div></div>",,delaylearn,learning,display_response,n6qN8s5ydIYsrea4LuwHybPq8P63,n6qN8s5ydIYsrea4LuwHybPq8P63,,,,,,,,,,,,,,,,,chosen stimuli: images/choice_trial_5.png,,,,,6346e221d4cea480a1a39b52,16:53:27,27/03/2024
html-keyboard-response,140,272846,0.0-59.0-2.0,,,,delaylearn,learning,feedback_duration_window,n6qN8s5ydIYsrea4LuwHybPq8P63,n6qN8s5ydIYsrea4LuwHybPq8P63,,,,,,,,,,,,,,,,,,7000.0,,,,6346e221d4cea480a1a39b52,16:53:27,27/03/2024
html-keyboard-response,141,274351,0.0-59.0-3.0,,<div style='margin:auto;width: auto; font-size: 150%'><span style='font-weight: bold; font-size: 100px; color: green;'>+10 points!</span><br><br></div>,,delaylearn,learning,feedback_image_window,n6qN8s5ydIYsrea4LuwHybPq8P63,n6qN8s5ydIYsrea4LuwHybPq8P63,,,,,,,,,,,,,,,,,,,,,,6346e221d4cea480a1a39b52,16:53:27,27/03/2024
lmdlab-html-vas-response,142,280589,0.0-60.0-0.0,4727.0,*How <b><u>confident</u></b> are you feeling about your answers at this moment?*,0.42407407407407405,rewlearn,rate_confidence,,n6qN8s5ydIYsrea4LuwHybPq8P63,n6qN8s5ydIYsrea4LuwHybPq8P63,,,,,,,,,,,,,,,,,,,,"['No confidence', 'Complete confidence']",,6346e221d4cea480a1a39b52,16:53:27,27/03/2024
lmdlab-rest-trial-limit,143,363558,0.0-60.0-1.0,81467.5,"<div style=""font-size:40px;""><b>Please take a break!</b><br><br><br><br><p>Great work: you earned 160 points.<br><br><br><p>You have completed part(s) 1 of 5.<br><br><br><br>When you are ready to continue<br><br><br>please click the button.</p><br><br>",0,delaylearn,learning,break,n6qN8s5ydIYsrea4LuwHybPq8P63,n6qN8s5ydIYsrea4LuwHybPq8P63,,,,,,,,,,,,,,,,,,,,,0.0,6346e221d4cea480a1a39b52,16:53:27,27/03/2024
html-keyboard-response,144,366563,0.0-60.0-2.0,,"<div style=""font-size:100px;"">+</div>",,delaylearn,learning,pre_fixation,n6qN8s5ydIYsrea4LuwHybPq8P63,,,,,,,,,,,,,,,,,,,,,,,6346e221d4cea480a1a39b52,16:53:27,27/03/2024
lmdlab-html-vas-response,145,370590,0.0-60.0-3.0-0.0,3021.0,How happy are you right now?,0.7777777777777778,delaylearn,learning,mood_baseline,n6qN8s5ydIYsrea4LuwHybPq8P63,n6qN8s5ydIYsrea4LuwHybPq8P63,,,,,,,,,,,,,,,,,,,,"['Very unhappy', 'Very happy']",,6346e221d4cea480a1a39b52,16:53:27,27/03/2024
html-keyboard-response,146,372094,0.0-60.0-3.0-1.0,,,,,,mood_baseline_fixation,n6qN8s5ydIYsrea4LuwHybPq8P63,,,,,,,,,,,,,,,,,,,,,,,6346e221d4cea480a1a39b52,16:53:27,27/03/2024
html-keyboard-response,147,373944,0.0-61.0,,"<div style=""font-size:100px;"">+</div>",,delaylearn,learning,ITI,n6qN8s5ydIYsrea4LuwHybPq8P63,n6qN8s5ydIYsrea4LuwHybPq8P63,,,,,,,,,,,,,,,,,,,1847.0,,,6346e221d4cea480a1a39b52,16:53:27,27/03/2024
html-keyboard-response,148,375451,0.0-62.0-0.0,1503.0,"<div style=""display: flex; flex-direction: column; align-items: center; margin-top: -40px;""><img src=""images/pattern_7.png"" style=""width: 234px; height: 230px; margin-top: -50px;""><div style=""display: flex; justify-content: space-between; margin-top: 33px;""><img src=""images/choice_trial_14.png"" style=""width: 408px; height: 417px; margin-right: 200px;""><img src=""images/choice_trial_13.png"" style=""width: 408px; height: 417px;""></div></div>",j,delaylearn,learning,trial,n6qN8s5ydIYsrea4LuwHybPq8P63,n6qN8s5ydIYsrea4LuwHybPq8P63,1.0,images/choice_trial_14.png,images/choice_trial_13.png,images/pattern_7.png,j,j,750.0,14.0,13.0,6.0,1.0,27.0,1.0,1.0,13.0,170.0,,,,,,6346e221d4cea480a1a39b52,16:53:27,27/03/2024
html-keyboard-response,149,376456,0.0-62.0-1.0,,"<div style=""display: flex; flex-direction: column; align-items: center; margin-top: -40px;""><img src=""images/pattern_7.png"" style=""width: 234px; height: 230px; margin-top: -50px;""><div style=""display: flex; justify-content: space-between; margin-top: 33px;""><img src=""images/choice_trial_13.png"" style=""width: 408px; height: 417px; margin-left:608px;""></div></div>",,delaylearn,learning,display_response,n6qN8s5ydIYsrea4LuwHybPq8P63,n6qN8s5ydIYsrea4LuwHybPq8P63,,,,,,,,,,,,,,,,,chosen stimuli: images/choice_trial_13.png,,,,,6346e221d4cea480a1a39b52,16:53:27,27/03/2024
html-keyboard-response,150,377208,0.0-62.0-2.0,,,,delaylearn,learning,feedback_duration_window,n6qN8s5ydIYsrea4LuwHybPq8P63,n6qN8s5ydIYsrea4LuwHybPq8P63,,,,,,,,,,,,,,,,,,750.0,,,,6346e221d4cea480a1a39b52,16:53:27,27/03/2024
html-keyboard-response,151,378711,0.0-62.0-3.0,,<div style='margin:auto;width: auto; font-size: 150%'><span style='font-weight: bold; font-size: 100px; color: green;'>+10 points!</span><br><br></div>,,delaylearn,learning,feedback_image_window,n6qN8s5ydIYsrea4LuwHybPq8P63,n6qN8s5ydIYsrea4LuwHybPq8P63,,,,,,,,,,,,,,,,,,,,,,6346e221d4cea480a1a39b52,16:53:27,27/03/2024
html-keyboard-response,152,379214,0.0-63.0-0.0,,,,,,mood_trial_fixation,n6qN8s5ydIYsrea4LuwHybPq8P63,,,,,,,,,,,,,,,,,,,,,,,6346e221d4cea480a1a39b52,16:53:27,27/03/2024
lmdlab-html-vas-response,153,384358,0.0-63.0-1.0,4138.0,How happy are you right now?,0.6,delaylearn,learning,mood_trial,n6qN8s5ydIYsrea4LuwHybPq8P63,n6qN8s5ydIYsrea4LuwHybPq8P63,,,,,,,,,,,,,,,,,,,,"['Very unhappy', 'Very happy']",,6346e221d4cea480a1a39b52,16:53:27,27/03/2024
html-keyboard-response,154,386468,0.0-64.0,,"<div style=""font-size:100px;"">+</div>",,delaylearn,learning,ITI,n6qN8s5ydIYsrea4LuwHybPq8P63,n6qN8s5ydIYsrea4LuwHybPq8P63,,,,,,,,,,,,,,,,,,,2107.0,,,6346e221d4cea480a1a39b52,16:53:27,27/03/2024
html-keyboard-response,155,388136,0.0-65.0-0.0,1664.0,"<div style=""display: flex; flex-direction: column; align-items: center; margin-top: -40px;""><img src=""images/pattern_1.png"" style=""width: 234px; height: 230px; margin-top: -50px;""><div style=""display: flex; justify-content: space-between; margin-top: 33px;""><img src=""images/choice_trial_1.png"" style=""width: 408px; height: 417px; margin-right: 200px;""><img src=""images/choice_trial_2.png"" style=""width: 408px; height: 417px;""></div></div>",j,delaylearn,learning,trial,n6qN8s5ydIYsrea4LuwHybPq8P63,n6qN8s5ydIYsrea4LuwHybPq8P63,1.0,images/choice_trial_1.png,images/choice_trial_2.png,images/pattern_1.png,f,f,7000.0,1.0,2.0,1.0,0.0,28.0,0.0,0.0,2.0,170.0,,,,,,6346e221d4cea480a1a39b52,16:53:27,27/03/2024
html-keyboard-response,156,389140,0.0-65.0-1.0,,"<div style=""display: flex; flex-direction: column; align-items: center; margin-top: -40px;""><img src=""images/pattern_1.png"" style=""width: 234px; height: 230px; margin-top: -50px;""><div style=""display: flex; justify-content: space-between; margin-top: 33px;""><img src=""images/choice_trial_2.png"" style=""width: 408px; height: 417px; margin-left:608px;""></div></div>",,delaylearn,learning,display_response,n6qN8s5ydIYsrea4LuwHybPq8P63,n6qN8s5ydIYsrea4LuwHybPq8P63,,,,,,,,,,,,,,,,,chosen stimuli: images/choice_trial_2.png,,,,,6346e221d4cea480a1a39b52,16:53:27,27/03/2024
html-keyboard-response,157,396143,0.0-65.0-2.0,,,,delaylearn,learning,feedback_duration_window,n6qN8s5ydIYsrea4LuwHybPq8P63,n6qN8s5ydIYsrea4LuwHybPq8P63,,,,,,,,,,,,,,,,,,7000.0,,,,6346e221d4cea480a1a39b52,16:53:27,27/03/2024
html-keyboard-response,158,397647,0.0-65.0-3.0,,<div style='margin:auto;width: auto; font-size: 150%'><span style='font-weight: bold; font-size: 100px; color: red;'>0 points!</span><br><br></div>,,delaylearn,learning,feedback_image_window,n6qN8s5ydIYsrea4LuwHybPq8P63,n6qN8s5ydIYsrea4LuwHybPq8P63,,,,,,,,,,,,,,,,,,,,,,6346e221d4cea480a1a39b52,16:53:27,27/03/2024
html-keyboard-response,159,399551,0.0-66.0,,"<div style=""font-size:100px;"">+</div>",,delaylearn,learning,ITI,n6qN8s5ydIYsrea4LuwHybPq8P63,n6qN8s5ydIYsrea4LuwHybPq8P63,,,,,,,,,,,,,,,,,,,1901.0,,,6346e221d4cea480a1a39b52,16:53:27,27/03/2024
html-keyboard-response,160,400474,0.0-67.0-0.0,919.0999999046326,"<div style=""display: flex; flex-direction: column; align-items: center; margin-top: -40px;""><img src=""images/pattern_5.png"" style=""width: 234px; height: 230px; margin-top: -50px;""><div style=""display: flex; justify-content: space-between; margin-top: 33px;""><img src=""images/choice_trial_9.png"" style=""width: 408px; height: 417px; margin-right: 200px;""><img src=""images/choice_trial_10.png"" style=""width: 408px; height: 417px;""></div></div>",f,delaylearn,learning,trial,n6qN8s5ydIYsrea4LuwHybPq8P63,n6qN8s5ydIYsrea4LuwHybPq8P63,1.0,images/choice_trial_9.png,images/choice_trial_10.png,images/pattern_5.png,f,f,750.0,9.0,10.0,4.0,0.0,29.0,1.0,1.0,9.0,180.0,,,,,,6346e221d4cea480a1a39b52,16:53:27,27/03/2024
html-keyboard-response,161,401478,0.0-67.0-1.0,,"<div style=""display: flex; flex-direction: column; align-items: center; margin-top: -40px;""><img src=""images/pattern_5.png"" style=""width: 234px; height: 230px; margin-top: -50px;""><div style=""display: flex; justify-content: space-between; margin-top: 33px;""><img src=""images/choice_trial_9.png"" style=""width: 408px; height: 417px; margin-right: 608px;""></div></div>",,delaylearn,learning,display_response,n6qN8s5ydIYsrea4LuwHybPq8P63,n6qN8s5ydIYsrea4LuwHybPq8P63,,,,,,,,,,,,,,,,,chosen stimuli: images/choice_trial_9.png,,,,,6346e221d4cea480a1a39b52,16:53:27,27/03/2024
html-keyboard-response,162,402232,0.0-67.0-2.0,,,,delaylearn,learning,feedback_duration_window,n6qN8s5ydIYsrea4LuwHybPq8P63,n6qN8s5ydIYsrea4LuwHybPq8P63,,,,,,,,,,,,,,,,,,750.0,,,,6346e221d4cea480a1a39b52,16:53:27,27/03/2024
html-keyboard-response,163,403735,0.0-67.0-3.0,,<div style='margin:auto;width: auto; font-size: 150%'><span style='font-weight: bold; font-size: 100px; color: green;'>+10 points!</span><br><br></div>,,delaylearn,learning,feedback_image_window,n6qN8s5ydIYsrea4LuwHybPq8P63,n6qN8s5ydIYsrea4LuwHybPq8P63,,,,,,,,,,,,,,,,,,,,,,6346e221d4cea480a1a39b52,16:53:27,27/03/2024
html-keyboard-response,164,405556,0.0-68.0,,"<div style=""font-size:100px;"">+</div>",,delaylearn,learning,ITI,n6qN8s5ydIYsrea4LuwHybPq8P63,n6qN8s5ydIYsrea4LuwHybPq8P63,,,,,,,,,,,,,,,,,,,1818.0,,,6346e221d4cea480a1a39b52,16:53:27,27/03/2024
html-keyboard-response,165,407148,0.0-69.0-0.0,1587.4000000953674,"<div style=""display: flex; flex-direction: column; align-items: center; margin-top: -40px;""><img src=""images/pattern_6.png"" style=""width: 234px; height: 230px; margin-top: -50px;""><div style=""display: flex; justify-content: space-between; margin-top: 33px;""><img src=""images/choice_trial_12.png"" style=""width: 408px; height: 417px; margin-right: 200px;""><img src=""images/choice_trial_11.png"" style=""width: 408px; height: 417px;""></div></div>",f,delaylearn,learning,trial,n6qN8s5ydIYsrea4LuwHybPq8P63,n6qN8s5ydIYsrea4LuwHybPq8P63,1.0,images/choice_trial_12.png,images/choice_trial_11.png,images/pattern_6.png,j,j,750.0,12.0,11.0,5.0,1.0,30.0,0.0,0.0,12.0,180.0,,,,,,6346e221d4cea480a1a39b52,16:53:27,27/03/2024
html-keyboard-response,166,408151,0.0-69.0-1.0,,"<div style=""display: flex; flex-direction: column; align-items: center; margin-top: -40px;""><img src=""images/pattern_6.png"" style=""width: 234px; height: 230px; margin-top: -50px;""><div style=""display: flex; justify-content: space-between; margin-top: 33px;""><img src=""images/choice_trial_12.png"" style=""width: 408px; height: 417px; margin-right: 608px;""></div></div>",,delaylearn,learning,display_response,n6qN8s5ydIYsrea4LuwHybPq8P63,n6qN8s5ydIYsrea4LuwHybPq8P63,,,,,,,,,,,,,,,,,chosen stimuli: images/choice_trial_12.png,,,,,6346e221d4cea480a1a39b52,16:53:27,27/03/2024
html-keyboard-response,167,408905,0.0-69.0-2.0,,,,delaylearn,learning,feedback_duration_window,n6qN8s5ydIYsrea4LuwHybPq8P63,n6qN8s5ydIYsrea4LuwHybPq8P63,,,,,,,,,,,,,,,,,,750.0,,,,6346e221d4cea480a1a39b52,16:53:27,27/03/2024
html-keyboard-response,168,410408,0.0-69.0-3.0,,<div style='margin:auto;width: auto; font-size: 150%'><span style='font-weight: bold; font-size: 100px; color: red;'>0 points!</span><br><br></div>,,delaylearn,learning,feedback_image_window,n6qN8s5ydIYsrea4LuwHybPq8P63,n6qN8s5ydIYsrea4LuwHybPq8P63,,,,,,,,,,,,,,,,,,,,,,6346e221d4cea480a1a39b52,16:53:27,27/03/2024
html-keyboard-response,169,410911,0.0-70.0-0.0,,,,,,mood_trial_fixation,n6qN8s5ydIYsrea4LuwHybPq8P63,,,,,,,,,,,,,,,,,,,,,,,6346e221d4cea480a1a39b52,16:53:27,27/03/2024
lmdlab-html-vas-response,170,415709,0.0-70.0-1.0,3791.0,How happy are you right now?,0.6796296296296296,delaylearn,learning,mood_trial,n6qN8s5ydIYsrea4LuwHybPq8P63,n6qN8s5ydIYsrea4LuwHybPq8P63,,,,,,,,,,,,,,,,,,,,"['Very unhappy', 'Very happy']",,6346e221d4cea480a1a39b52,16:53:27,27/03/2024
html-keyboard-response,171,417867,0.0-71.0,,"<div style=""font-size:100px;"">+</div>",,delaylearn,learning,ITI,n6qN8s5ydIYsrea4LuwHybPq8P63,n6qN8s5ydIYsrea4LuwHybPq8P63,,,,,,,,,,,,,,,,,,,2156.0,,,6346e221d4cea480a1a39b52,16:53:27,27/03/2024
html-keyboard-response,172,419467,0.0-72.0-0.0,1596.2000000476837,"<div style=""display: flex; flex-direction: column; align-items: center; margin-top: -40px;""><img src=""images/pattern_4.png"" style=""width: 234px; height: 230px; margin-top: -50px;""><div style=""display: flex; justify-content: space-between; margin-top: 33px;""><img src=""images/choice_trial_8.png"" style=""width: 408px; height: 417px; margin-right: 200px;""><img src=""images/choice_trial_7.png"" style=""width: 408px; height: 417px;""></div></div>",j,delaylearn,learning,trial,n6qN8s5ydIYsrea4LuwHybPq8P63,n6qN8s5ydIYsrea4LuwHybPq8P63,1.0,images/choice_trial_8.png,images/choice_trial_7.png,images/pattern_4.png,j,j,7000.0,8.0,7.0,3.0,1.0,31.0,1.0,1.0,7.0,190.0,,,,,,6346e221d4cea480a1a39b52,16:53:27,27/03/2024
html-keyboard-response,173,420470,0.0-72.0-1.0,,"<div style=""display: flex; flex-direction: column; align-items: center; margin-top: -40px;""><img src=""images/pattern_4.png"" style=""width: 234px; height: 230px; margin-top: -50px;""><div style=""display: flex; justify-content: space-between; margin-top: 33px;""><img src=""images/choice_trial_7.png"" style=""width: 408px; height: 417px; margin-left:608px;""></div></div>",,delaylearn,learning,display_response,n6qN8s5ydIYsrea4LuwHybPq8P63,n6qN8s5ydIYsrea4LuwHybPq8P63,,,,,,,,,,,,,,,,,chosen stimuli: images/choice_trial_7.png,,,,,6346e221d4cea480a1a39b52,16:53:27,27/03/2024
html-keyboard-response,174,427473,0.0-72.0-2.0,,,,delaylearn,learning,feedback_duration_window,n6qN8s5ydIYsrea4LuwHybPq8P63,n6qN8s5ydIYsrea4LuwHybPq8P63,,,,,,,,,,,,,,,,,,7000.0,,,,6346e221d4cea480a1a39b52,16:53:27,27/03/2024
html-keyboard-response,175,428977,0.0-72.0-3.0,,<div style='margin:auto;width: auto; font-size: 150%'><span style='font-weight: bold; font-size: 100px; color: green;'>+10 points!</span><br><br></div>,,delaylearn,learning,feedback_image_window,n6qN8s5ydIYsrea4LuwHybPq8P63,n6qN8s5ydIYsrea4LuwHybPq8P63,,,,,,,,,,,,,,,,,,,,,,6346e221d4cea480a1a39b52,16:53:27,27/03/2024
html-keyboard-response,176,430787,0.0-73.0,,"<div style=""font-size:100px;"">+</div>",,delaylearn,learning,ITI,n6qN8s5ydIYsrea4LuwHybPq8P63,n6qN8s5ydIYsrea4LuwHybPq8P63,,,,,,,,,,,,,,,,,,,1807.0,,,6346e221d4cea480a1a39b52,16:53:27,27/03/2024
html-keyboard-response,177,431694,0.0-74.0-0.0,902.6000001430511,"<div style=""display: flex; flex-direction: column; align-items: center; margin-top: -40px;""><img src=""images/pattern_3.png"" style=""width: 234px; height: 230px; margin-top: -50px;""><div style=""display: flex; justify-content: space-between; margin-top: 33px;""><img src=""images/choice_trial_6.png"" style=""width: 408px; height: 417px; margin-right: 200px;""><img src=""images/choice_trial_5.png"" style=""width: 408px; height: 417px;""></div></div>",j,delaylearn,learning,trial,n6qN8s5ydIYsrea4LuwHybPq8P63,n6qN8s5ydIYsrea4LuwHybPq8P63,1.0,images/choice_trial_6.png,images/choice_trial_5.png,images/pattern_3.png,j,j,7000.0,6.0,5.0,2.0,1.0,32.0,1.0,1.0,5.0,200.0,,,,,,6346e221d4cea480a1a39b52,16:53:27,27/03/2024
html-keyboard-response,178,432697,0.0-74.0-1.0,,"<div style=""display: flex; flex-direction: column; align-items: center; margin-top: -40px;""><img src=""images/pattern_3.png"" style=""width: 234px; height: 230px; margin-top: -50px;""><div style=""display: flex; justify-content: space-between; margin-top: 33px;""><img src=""images/choice_trial_5.png"" style=""width: 408px; height: 417px; margin-left:608px;""></div></div>",,delaylearn,learning,display_response,n6qN8s5ydIYsrea4LuwHybPq8P63,n6qN8s5ydIYsrea4LuwHybPq8P63,,,,,,,,,,,,,,,,,chosen stimuli: images/choice_trial_5.png,,,,,6346e221d4cea480a1a39b52,16:53:27,27/03/2024
html-keyboard-response,179,439699,0.0-74.0-2.0,,,,delaylearn,learning,feedback_duration_window,n6qN8s5ydIYsrea4LuwHybPq8P63,n6qN8s5ydIYsrea4LuwHybPq8P63,,,,,,,,,,,,,,,,,,7000.0,,,,6346e221d4cea480a1a39b52,16:53:27,27/03/2024
html-keyboard-response,180,441203,0.0-74.0-3.0,,<div style='margin:auto;width: auto; font-size: 150%'><span style='font-weight: bold; font-size: 100px; color: green;'>+10 points!</span><br><br></div>,,delaylearn,learning,feedback_image_window,n6qN8s5ydIYsrea4LuwHybPq8P63,n6qN8s5ydIYsrea4LuwHybPq8P63,,,,,,,,,,,,,,,,,,,,,,6346e221d4cea480a1a39b52,16:53:27,27/03/2024
html-keyboard-response,181,443475,0.0-75.0,,"<div style=""font-size:100px;"">+</div>",,delaylearn,learning,ITI,n6qN8s5ydIYsrea4LuwHybPq8P63,n6qN8s5ydIYsrea4LuwHybPq8P63,,,,,,,,,,,,,,,,,,,2269.0,,,6346e221d4cea480a1a39b52,16:53:27,27/03/2024
html-keyboard-response,182,444324,0.0-76.0-0.0,845.2999999523163,"<div style=""display: flex; flex-direction: column; align-items: center; margin-top: -40px;""><img src=""images/pattern_5.png"" style=""width: 234px; height: 230px; margin-top: -50px;""><div style=""display: flex; justify-content: space-between; margin-top: 33px;""><img src=""images/choice_trial_9.png"" style=""width: 408px; height: 417px; margin-right: 200px;""><img src=""images/choice_trial_10.png"" style=""width: 408px; height: 417px;""></div></div>",f,delaylearn,learning,trial,n6qN8s5ydIYsrea4LuwHybPq8P63,n6qN8s5ydIYsrea4LuwHybPq8P63,1.0,images/choice_trial_9.png,images/choice_trial_10.png,images/pattern_5.png,j,f,750.0,9.0,10.0,4.0,0.0,33.0,1.0,0.0,9.0,200.0,,,,,,6346e221d4cea480a1a39b52,16:53:27,27/03/2024
html-keyboard-response,183,445328,0.0-76.0-1.0,,"<div style=""display: flex; flex-direction: column; align-items: center; margin-top: -40px;""><img src=""images/pattern_5.png"" style=""width: 234px; height: 230px; margin-top: -50px;""><div style=""display: flex; justify-content: space-between; margin-top: 33px;""><img src=""images/choice_trial_9.png"" style=""width: 408px; height: 417px; margin-right: 608px;""></div></div>",,delaylearn,learning,display_response,n6qN8s5ydIYsrea4LuwHybPq8P63,n6qN8s5ydIYsrea4LuwHybPq8P63,,,,,,,,,,,,,,,,,chosen stimuli: images/choice_trial_9.png,,,,,6346e221d4cea480a1a39b52,16:53:27,27/03/2024
html-keyboard-response,184,446080,0.0-76.0-2.0,,,,delaylearn,learning,feedback_duration_window,n6qN8s5ydIYsrea4LuwHybPq8P63,n6qN8s5ydIYsrea4LuwHybPq8P63,,,,,,,,,,,,,,,,,,750.0,,,,6346e221d4cea480a1a39b52,16:53:27,27/03/2024
html-keyboard-response,185,447583,0.0-76.0-3.0,,<div style='margin:auto;width: auto; font-size: 150%'><span style='font-weight: bold; font-size: 100px; color: red;'>0 points!</span><br><br></div>,,delaylearn,learning,feedback_image_window,n6qN8s5ydIYsrea4LuwHybPq8P63,n6qN8s5ydIYsrea4LuwHybPq8P63,,,,,,,,,,,,,,,,,,,,,,6346e221d4cea480a1a39b52,16:53:27,27/03/2024
html-keyboard-response,186,449088,0.0-77.0,,"<div style=""font-size:100px;"">+</div>",,delaylearn,learning,ITI,n6qN8s5ydIYsrea4LuwHybPq8P63,n6qN8s5ydIYsrea4LuwHybPq8P63,,,,,,,,,,,,,,,,,,,1502.0,,,6346e221d4cea480a1a39b52,16:53:27,27/03/2024
html-keyboard-response,187,450963,0.0-78.0-0.0,1870.8999998569489,"<div style=""display: flex; flex-direction: column; align-items: center; margin-top: -40px;""><img src=""images/pattern_1.png"" style=""width: 234px; height: 230px; margin-top: -50px;""><div style=""display: flex; justify-content: space-between; margin-top: 33px;""><img src=""images/choice_trial_1.png"" style=""width: 408px; height: 417px; margin-right: 200px;""><img src=""images/choice_trial_2.png"" style=""width: 408px; height: 417px;""></div></div>",j,delaylearn,learning,trial,n6qN8s5ydIYsrea4LuwHybPq8P63,n6qN8s5ydIYsrea4LuwHybPq8P63,1.0,images/choice_trial_1.png,images/choice_trial_2.png,images/pattern_1.png,f,f,7000.0,1.0,2.0,1.0,0.0,34.0,0.0,0.0,2.0,200.0,,,,,,6346e221d4cea480a1a39b52,16:53:27,27/03/2024
html-keyboard-response,188,451967,0.0-78.0-1.0,,"<div style=""display: flex; flex-direction: column; align-items: center; margin-top: -40px;""><img src=""images/pattern_1.png"" style=""width: 234px; height: 230px; margin-top: -50px;""><div style=""display: flex; justify-content: space-between; margin-top: 33px;""><img src=""images/choice_trial_2.png"" style=""width: 408px; height: 417px; margin-left:608px;""></div></div>",,delaylearn,learning,display_response,n6qN8s5ydIYsrea4LuwHybPq8P63,n6qN8s5ydIYsrea4LuwHybPq8P63,,,,,,,,,,,,,,,,,chosen stimuli: images/choice_trial_2.png,,,,,6346e221d4cea480a1a39b52,16:53:27,27/03/2024
html-keyboard-response,189,458970,0.0-78.0-2.0,,,,delaylearn,learning,feedback_duration_window,n6qN8s5ydIYsrea4LuwHybPq8P63,n6qN8s5ydIYsrea4LuwHybPq8P63,,,,,,,,,,,,,,,,,,7000.0,,,,6346e221d4cea480a1a39b52,16:53:27,27/03/2024
html-keyboard-response,190,460473,0.0-78.0-3.0,,<div style='margin:auto;width: auto; font-size: 150%'><span style='font-weight: bold; font-size: 100px; color: red;'>0 points!</span><br><br></div>,,delaylearn,learning,feedback_image_window,n6qN8s5ydIYsrea4LuwHybPq8P63,n6qN8s5ydIYsrea4LuwHybPq8P63,,,,,,,,,,,,,,,,,,,,,,6346e221d4cea480a1a39b52,16:53:27,27/03/2024
html-keyboard-response,191,460975,0.0-79.0-0.0,,,,,,mood_trial_fixation,n6qN8s5ydIYsrea4LuwHybPq8P63,,,,,,,,,,,,,,,,,,,,,,,6346e221d4cea480a1a39b52,16:53:27,27/03/2024
lmdlab-html-vas-response,192,465391,0.0-79.0-1.0,3410.0,How happy are you right now?,0.4981481481481482,delaylearn,learning,mood_trial,n6qN8s5ydIYsrea4LuwHybPq8P63,n6qN8s5ydIYsrea4LuwHybPq8P63,,,,,,,,,,,,,,,,,,,,"['Very unhappy', 'Very happy']",,6346e221d4cea480a1a39b52,16:53:27,27/03/2024
html-keyboard-response,193,467748,0.0-80.0,,"<div style=""font-size:100px;"">+</div>",,delaylearn,learning,ITI,n6qN8s5ydIYsrea4LuwHybPq8P63,n6qN8s5ydIYsrea4LuwHybPq8P63,,,,,,,,,,,,,,,,,,,2354.0,,,6346e221d4cea480a1a39b52,16:53:27,27/03/2024
html-keyboard-response,194,470409,0.0-81.0-0.0,2658.100000143051,"<div style=""display: flex; flex-direction: column; align-items: center; margin-top: -40px;""><img src=""images/pattern_6.png"" style=""width: 234px; height: 230px; margin-top: -50px;""><div style=""display: flex; justify-content: space-between; margin-top: 33px;""><img src=""images/choice_trial_11.png"" style=""width: 408px; height: 417px; margin-right: 200px;""><img src=""images/choice_trial_12.png"" style=""width: 408px; height: 417px;""></div></div>",f,delaylearn,learning,trial,n6qN8s5ydIYsrea4LuwHybPq8P63,n6qN8s5ydIYsrea4LuwHybPq8P63,1.0,images/choice_trial_11.png,images/choice_trial_12.png,images/pattern_6.png,j,f,750.0,11.0,12.0,5.0,0.0,35.0,1.0,0.0,11.0,200.0,,,,,,6346e221d4cea480a1a39b52,16:53:27,27/03/2024
html-keyboard-response,195,471412,0.0-81.0-1.0,,"<div style=""display: flex; flex-direction: column; align-items: center; margin-top: -40px;""><img src=""images/pattern_6.png"" style=""width: 234px; height: 230px; margin-top: -50px;""><div style=""display: flex; justify-content: space-between; margin-top: 33px;""><img src=""images/choice_trial_11.png"" style=""width: 408px; height: 417px; margin-right: 608px;""></div></div>",,delaylearn,learning,display_response,n6qN8s5ydIYsrea4LuwHybPq8P63,n6qN8s5ydIYsrea4LuwHybPq8P63,,,,,,,,,,,,,,,,,chosen stimuli: images/choice_trial_11.png,,,,,6346e221d4cea480a1a39b52,16:53:27,27/03/2024
html-keyboard-response,196,472165,0.0-81.0-2.0,,,,delaylearn,learning,feedback_duration_window,n6qN8s5ydIYsrea4LuwHybPq8P63,n6qN8s5ydIYsrea4LuwHybPq8P63,,,,,,,,,,,,,,,,,,750.0,,,,6346e221d4cea480a1a39b52,16:53:27,27/03/2024
html-keyboard-response,197,473669,0.0-81.0-3.0,,<div style='margin:auto;width: auto; font-size: 150%'><span style='font-weight: bold; font-size: 100px; color: red;'>0 points!</span><br><br></div>,,delaylearn,learning,feedback_image_window,n6qN8s5ydIYsrea4LuwHybPq8P63,n6qN8s5ydIYsrea4LuwHybPq8P63,,,,,,,,,,,,,,,,,,,,,,6346e221d4cea480a1a39b52,16:53:27,27/03/2024
html-keyboard-response,198,475620,0.0-82.0,,"<div style=""font-size:100px;"">+</div>",,delaylearn,learning,ITI,n6qN8s5ydIYsrea4LuwHybPq8P63,n6qN8s5ydIYsrea4LuwHybPq8P63,,,,,,,,,,,,,,,,,,,1948.0,,,6346e221d4cea480a1a39b52,16:53:27,27/03/2024
html-keyboard-response,199,477223,0.0-83.0-0.0,1599.1000001430511,"<div style=""display: flex; flex-direction: column; align-items: center; margin-top: -40px;""><img src=""images/pattern_3.png"" style=""width: 234px; height: 230px; margin-top: -50px;""><div style=""display: flex; justify-content: space-between; margin-top: 33px;""><img src=""images/choice_trial_6.png"" style=""width: 408px; height: 417px; margin-right: 200px;""><img src=""images/choice_trial_5.png"" style=""width: 408px; height: 417px;""></div></div>",j,delaylearn,learning,trial,n6qN8s5ydIYsrea4LuwHybPq8P63,n6qN8s5ydIYsrea4LuwHybPq8P63,1.0,images/choice_trial_6.png,images/choice_trial_5.png,images/pattern_3.png,j,j,7000.0,6.0,5.0,2.0,1.0,36.0,1.0,1.0,5.0,210.0,,,,,,6346e221d4cea480a1a39b52,16:53:27,27/03/2024
html-keyboard-response,200,478227,0.0-83.0-1.0,,"<div style=""display: flex; flex-direction: column; align-items: center; margin-top: -40px;""><img src=""images/pattern_3.png"" style=""width: 234px; height: 230px; margin-top: -50px;""><div style=""display: flex; justify-content: space-between; margin-top: 33px;""><img src=""images/choice_trial_5.png"" style=""width: 408px; height: 417px; margin-left:608px;""></div></div>",,delaylearn,learning,display_response,n6qN8s5ydIYsrea4LuwHybPq8P63,n6qN8s5ydIYsrea4LuwHybPq8P63,,,,,,,,,,,,,,,,,chosen stimuli: images/choice_trial_5.png,,,,,6346e221d4cea480a1a39b52,16:53:27,27/03/2024
html-keyboard-response,201,485231,0.0-83.0-2.0,,,,delaylearn,learning,feedback_duration_window,n6qN8s5ydIYsrea4LuwHybPq8P63,n6qN8s5ydIYsrea4LuwHybPq8P63,,,,,,,,,,,,,,,,,,7000.0,,,,6346e221d4cea480a1a39b52,16:53:27,27/03/2024
html-keyboard-response,202,486735,0.0-83.0-3.0,,<div style='margin:auto;width: auto; font-size: 150%'><span style='font-weight: bold; font-size: 100px; color: green;'>+10 points!</span><br><br></div>,,delaylearn,learning,feedback_image_window,n6qN8s5ydIYsrea4LuwHybPq8P63,n6qN8s5ydIYsrea4LuwHybPq8P63,,,,,,,,,,,,,,,,,,,,,,6346e221d4cea480a1a39b52,16:53:27,27/03/2024
html-keyboard-response,203,488519,0.0-84.0,,"<div style=""font-size:100px;"">+</div>",,delaylearn,learning,ITI,n6qN8s5ydIYsrea4LuwHybPq8P63,n6qN8s5ydIYsrea4LuwHybPq8P63,,,,,,,,,,,,,,,,,,,1781.0,,,6346e221d4cea480a1a39b52,16:53:27,27/03/2024
html-keyboard-response,204,491074,0.0-85.0-0.0,2551.0,"<div style=""display: flex; flex-direction: column; align-items: center; margin-top: -40px;""><img src=""images/pattern_4.png"" style=""width: 234px; height: 230px; margin-top: -50px;""><div style=""display: flex; justify-content: space-between; margin-top: 33px;""><img src=""images/choice_trial_8.png"" style=""width: 408px; height: 417px; margin-right: 200px;""><img src=""images/choice_trial_7.png"" style=""width: 408px; height: 417px;""></div></div>",f,delaylearn,learning,trial,n6qN8s5ydIYsrea4LuwHybPq8P63,n6qN8s5ydIYsrea4LuwHybPq8P63,1.0,images/choice_trial_8.png,images/choice_trial_7.png,images/pattern_4.png,f,j,7000.0,8.0,7.0,3.0,1.0,37.0,0.0,1.0,8.0,220.0,,,,,,6346e221d4cea480a1a39b52,16:53:27,27/03/2024
html-keyboard-response,205,492078,0.0-85.0-1.0,,"<div style=""display: flex; flex-direction: column; align-items: center; margin-top: -40px;""><img src=""images/pattern_4.png"" style=""width: 234px; height: 230px; margin-top: -50px;""><div style=""display: flex; justify-content: space-between; margin-top: 33px;""><img src=""images/choice_trial_8.png"" style=""width: 408px; height: 417px; margin-right: 608px;""></div></div>",,delaylearn,learning,display_response,n6qN8s5ydIYsrea4LuwHybPq8P63,n6qN8s5ydIYsrea4LuwHybPq8P63,,,,,,,,,,,,,,,,,chosen stimuli: images/choice_trial_8.png,,,,,6346e221d4cea480a1a39b52,16:53:27,27/03/2024
html-keyboard-response,206,499081,0.0-85.0-2.0,,,,delaylearn,learning,feedback_duration_window,n6qN8s5ydIYsrea4LuwHybPq8P63,n6qN8s5ydIYsrea4LuwHybPq8P63,,,,,,,,,,,,,,,,,,7000.0,,,,6346e221d4cea480a1a39b52,16:53:27,27/03/2024
html-keyboard-response,207,500585,0.0-85.0-3.0,,<div style='margin:auto;width: auto; font-size: 150%'><span style='font-weight: bold; font-size: 100px; color: green;'>+10 points!</span><br><br></div>,,delaylearn,learning,feedback_image_window,n6qN8s5ydIYsrea4LuwHybPq8P63,n6qN8s5ydIYsrea4LuwHybPq8P63,,,,,,,,,,,,,,,,,,,,,,6346e221d4cea480a1a39b52,16:53:27,27/03/2024
html-keyboard-response,208,502428,0.0-86.0,,"<div style=""font-size:100px;"">+</div>",,delaylearn,learning,ITI,n6qN8s5ydIYsrea4LuwHybPq8P63,n6qN8s5ydIYsrea4LuwHybPq8P63,,,,,,,,,,,,,,,,,,,1841.0,,,6346e221d4cea480a1a39b52,16:53:27,27/03/2024
html-keyboard-response,209,504768,0.0-87.0-0.0,2335.7999999523163,"<div style=""display: flex; flex-direction: column; align-items: center; margin-top: -40px;""><img src=""images/pattern_7.png"" style=""width: 234px; height: 230px; margin-top: -50px;""><div style=""display: flex; justify-content: space-between; margin-top: 33px;""><img src=""images/choice_trial_13.png"" style=""width: 408px; height: 417px; margin-right: 200px;""><img src=""images/choice_trial_14.png"" style=""width: 408px; height: 417px;""></div></div>",j,delaylearn,learning,trial,n6qN8s5ydIYsrea4LuwHybPq8P63,n6qN8s5ydIYsrea4LuwHybPq8P63,1.0,images/choice_trial_13.png,images/choice_trial_14.png,images/pattern_7.png,f,f,750.0,13.0,14.0,6.0,0.0,38.0,0.0,0.0,14.0,220.0,,,,,,6346e221d4cea480a1a39b52,16:53:27,27/03/2024
html-keyboard-response,210,505772,0.0-87.0-1.0,,"<div style=""display: flex; flex-direction: column; align-items: center; margin-top: -40px;""><img src=""images/pattern_7.png"" style=""width: 234px; height: 230px; margin-top: -50px;""><div style=""display: flex; justify-content: space-between; margin-top: 33px;""><img src=""images/choice_trial_14.png"" style=""width: 408px; height: 417px; margin-left:608px;""></div></div>",,delaylearn,learning,display_response,n6qN8s5ydIYsrea4LuwHybPq8P63,n6qN8s5ydIYsrea4LuwHybPq8P63,,,,,,,,,,,,,,,,,chosen stimuli: images/choice_trial_14.png,,,,,6346e221d4cea480a1a39b52,16:53:27,27/03/2024
html-keyboard-response,211,506525,0.0-87.0-2.0,,,,delaylearn,learning,feedback_duration_window,n6qN8s5ydIYsrea4LuwHybPq8P63,n6qN8s5ydIYsrea4LuwHybPq8P63,,,,,,,,,,,,,,,,,,750.0,,,,6346e221d4cea480a1a39b52,16:53:27,27/03/2024
html-keyboard-response,212,508027,0.0-87.0-3.0,,<div style='margin:auto;width: auto; font-size: 150%'><span style='font-weight: bold; font-size: 100px; color: red;'>0 points!</span><br><br></div>,,delaylearn,learning,feedback_image_window,n6qN8s5ydIYsrea4LuwHybPq8P63,n6qN8s5ydIYsrea4LuwHybPq8P63,,,,,,,,,,,,,,,,,,,,,,6346e221d4cea480a1a39b52,16:53:27,27/03/2024
html-keyboard-response,213,509644,0.0-88.0,,"<div style=""font-size:100px;"">+</div>",,delaylearn,learning,ITI,n6qN8s5ydIYsrea4LuwHybPq8P63,n6qN8s5ydIYsrea4LuwHybPq8P63,,,,,,,,,,,,,,,,,,,1614.0,,,6346e221d4cea480a1a39b52,16:53:27,27/03/2024
html-keyboard-response,214,511553,0.0-89.0-0.0,1905.0,"<div style=""display: flex; flex-direction: column; align-items: center; margin-top: -40px;""><img src=""images/pattern_1.png"" style=""width: 234px; height: 230px; margin-top: -50px;""><div style=""display: flex; justify-content: space-between; margin-top: 33px;""><img src=""images/choice_trial_1.png"" style=""width: 408px; height: 417px; margin-right: 200px;""><img src=""images/choice_trial_2.png"" style=""width: 408px; height: 417px;""></div></div>",f,delaylearn,learning,trial,n6qN8s5ydIYsrea4LuwHybPq8P63,n6qN8s5ydIYsrea4LuwHybPq8P63,1.0,images/choice_trial_1.png,images/choice_trial_2.png,images/pattern_1.png,f,f,7000.0,1.0,2.0,1.0,0.0,39.0,1.0,1.0,1.0,230.0,,,,,,6346e221d4cea480a1a39b52,16:53:27,27/03/2024
html-keyboard-response,215,512556,0.0-89.0-1.0,,"<div style=""display: flex; flex-direction: column; align-items: center; margin-top: -40px;""><img src=""images/pattern_1.png"" style=""width: 234px; height: 230px; margin-top: -50px;""><div style=""display: flex; justify-content: space-between; margin-top: 33px;""><img src=""images/choice_trial_1.png"" style=""width: 408px; height: 417px; margin-right: 608px;""></div></div>",,delaylearn,learning,display_response,n6qN8s5ydIYsrea4LuwHybPq8P63,n6qN8s5ydIYsrea4LuwHybPq8P63,,,,,,,,,,,,,,,,,chosen stimuli: images/choice_trial_1.png,,,,,6346e221d4cea480a1a39b52,16:53:27,27/03/2024
html-keyboard-response,216,519560,0.0-89.0-2.0,,,,delaylearn,learning,feedback_duration_window,n6qN8s5ydIYsrea4LuwHybPq8P63,n6qN8s5ydIYsrea4LuwHybPq8P63,,,,,,,,,,,,,,,,,,7000.0,,,,6346e221d4cea480a1a39b52,16:53:27,27/03/2024
html-keyboard-response,217,521064,0.0-89.0-3.0,,<div style='margin:auto;width: auto; font-size: 150%'><span style='font-weight: bold; font-size: 100px; color: green;'>+10 points!</span><br><br></div>,,delaylearn,learning,feedback_image_window,n6qN8s5ydIYsrea4LuwHybPq8P63,n6qN8s5ydIYsrea4LuwHybPq8P63,,,,,,,,,,,,,,,,,,,,,,6346e221d4cea480a1a39b52,16:53:27,27/03/2024
html-keyboard-response,218,521566,0.0-90.0-0.0,,,,,,mood_trial_fixation,n6qN8s5ydIYsrea4LuwHybPq8P63,,,,,,,,,,,,,,,,,,,,,,,6346e221d4cea480a1a39b52,16:53:27,27/03/2024
lmdlab-html-vas-response,219,525658,0.0-90.0-1.0,3086.0,How happy are you right now?,0.5518518518518518,delaylearn,learning,mood_trial,n6qN8s5ydIYsrea4LuwHybPq8P63,n6qN8s5ydIYsrea4LuwHybPq8P63,,,,,,,,,,,,,,,,,,,,"['Very unhappy', 'Very happy']",,6346e221d4cea480a1a39b52,16:53:27,27/03/2024
html-keyboard-response,220,528031,0.0-91.0,,"<div style=""font-size:100px;"">+</div>",,delaylearn,learning,ITI,n6qN8s5ydIYsrea4LuwHybPq8P63,n6qN8s5ydIYsrea4LuwHybPq8P63,,,,,,,,,,,,,,,,,,,2371.0,,,6346e221d4cea480a1a39b52,16:53:27,27/03/2024
html-keyboard-response,221,528985,0.0-92.0-0.0,951.3000001907349,"<div style=""display: flex; flex-direction: column; align-items: center; margin-top: -40px;""><img src=""images/pattern_3.png"" style=""width: 234px; height: 230px; margin-top: -50px;""><div style=""display: flex; justify-content: space-between; margin-top: 33px;""><img src=""images/choice_trial_5.png"" style=""width: 408px; height: 417px; margin-right: 200px;""><img src=""images/choice_trial_6.png"" style=""width: 408px; height: 417px;""></div></div>",f,delaylearn,learning,trial,n6qN8s5ydIYsrea4LuwHybPq8P63,n6qN8s5ydIYsrea4LuwHybPq8P63,1.0,images/choice_trial_5.png,images/choice_trial_6.png,images/pattern_3.png,j,f,7000.0,5.0,6.0,2.0,0.0,40.0,1.0,0.0,5.0,230.0,,,,,,6346e221d4cea480a1a39b52,16:53:27,27/03/2024
html-keyboard-response,222,529988,0.0-92.0-1.0,,"<div style=""display: flex; flex-direction: column; align-items: center; margin-top: -40px;""><img src=""images/pattern_3.png"" style=""width: 234px; height: 230px; margin-top: -50px;""><div style=""display: flex; justify-content: space-between; margin-top: 33px;""><img src=""images/choice_trial_5.png"" style=""width: 408px; height: 417px; margin-right: 608px;""></div></div>",,delaylearn,learning,display_response,n6qN8s5ydIYsrea4LuwHybPq8P63,n6qN8s5ydIYsrea4LuwHybPq8P63,,,,,,,,,,,,,,,,,chosen stimuli: images/choice_trial_5.png,,,,,6346e221d4cea480a1a39b52,16:53:27,27/03/2024
html-keyboard-response,223,536990,0.0-92.0-2.0,,,,delaylearn,learning,feedback_duration_window,n6qN8s5ydIYsrea4LuwHybPq8P63,n6qN8s5ydIYsrea4LuwHybPq8P63,,,,,,,,,,,,,,,,,,7000.0,,,,6346e221d4cea480a1a39b52,16:53:27,27/03/2024
html-keyboard-response,224,538494,0.0-92.0-3.0,,<div style='margin:auto;width: auto; font-size: 150%'><span style='font-weight: bold; font-size: 100px; color: red;'>0 points!</span><br><br></div>,,delaylearn,learning,feedback_image_window,n6qN8s5ydIYsrea4LuwHybPq8P63,n6qN8s5ydIYsrea4LuwHybPq8P63,,,,,,,,,,,,,,,,,,,,,,6346e221d4cea480a1a39b52,16:53:27,27/03/2024
html-keyboard-response,225,540121,0.0-93.0,,"<div style=""font-size:100px;"">+</div>",,delaylearn,learning,ITI,n6qN8s5ydIYsrea4LuwHybPq8P63,n6qN8s5ydIYsrea4LuwHybPq8P63,,,,,,,,,,,,,,,,,,,1624.0,,,6346e221d4cea480a1a39b52,16:53:27,27/03/2024
html-keyboard-response,226,541389,0.0-94.0-0.0,1263.3999998569489,"<div style=""display: flex; flex-direction: column; align-items: center; margin-top: -40px;""><img src=""images/pattern_7.png"" style=""width: 234px; height: 230px; margin-top: -50px;""><div style=""display: flex; justify-content: space-between; margin-top: 33px;""><img src=""images/choice_trial_14.png"" style=""width: 408px; height: 417px; margin-right: 200px;""><img src=""images/choice_trial_13.png"" style=""width: 408px; height: 417px;""></div></div>",j,delaylearn,learning,trial,n6qN8s5ydIYsrea4LuwHybPq8P63,n6qN8s5ydIYsrea4LuwHybPq8P63,1.0,images/choice_trial_14.png,images/choice_trial_13.png,images/pattern_7.png,j,j,750.0,14.0,13.0,6.0,1.0,41.0,1.0,1.0,13.0,240.0,,,,,,6346e221d4cea480a1a39b52,16:53:27,27/03/2024
html-keyboard-response,227,542392,0.0-94.0-1.0,,"<div style=""display: flex; flex-direction: column; align-items: center; margin-top: -40px;""><img src=""images/pattern_7.png"" style=""width: 234px; height: 230px; margin-top: -50px;""><div style=""display: flex; justify-content: space-between; margin-top: 33px;""><img src=""images/choice_trial_13.png"" style=""width: 408px; height: 417px; margin-left:608px;""></div></div>",,delaylearn,learning,display_response,n6qN8s5ydIYsrea4LuwHybPq8P63,n6qN8s5ydIYsrea4LuwHybPq8P63,,,,,,,,,,,,,,,,,chosen stimuli: images/choice_trial_13.png,,,,,6346e221d4cea480a1a39b52,16:53:27,27/03/2024
html-keyboard-response,228,543146,0.0-94.0-2.0,,,,delaylearn,learning,feedback_duration_window,n6qN8s5ydIYsrea4LuwHybPq8P63,n6qN8s5ydIYsrea4LuwHybPq8P63,,,,,,,,,,,,,,,,,,750.0,,,,6346e221d4cea480a1a39b52,16:53:27,27/03/2024
html-keyboard-response,229,544649,0.0-94.0-3.0,,<div style='margin:auto;width: auto; font-size: 150%'><span style='font-weight: bold; font-size: 100px; color: green;'>+10 points!</span><br><br></div>,,delaylearn,learning,feedback_image_window,n6qN8s5ydIYsrea4LuwHybPq8P63,n6qN8s5ydIYsrea4LuwHybPq8P63,,,,,,,,,,,,,,,,,,,,,,6346e221d4cea480a1a39b52,16:53:27,27/03/2024
html-keyboard-response,230,546608,0.0-95.0,,"<div style=""font-size:100px;"">+</div>",,delaylearn,learning,ITI,n6qN8s5ydIYsrea4LuwHybPq8P63,n6qN8s5ydIYsrea4LuwHybPq8P63,,,,,,,,,,,,,,,,,,,1956.0,,,6346e221d4cea480a1a39b52,16:53:27,27/03/2024
