trial_type,trial_index,time_elapsed,internal_node_id,rt,stimulus,response,exp_name,exp_stage,test_part,subjectID,databaseID,counterbal,choice_stimuli_1,choice_stimuli_2,pattern_stimuli,rewarded_answer,correct_answer,feedback_duration_times,stim_left,stim_right,pair,leftright_counter,trial,response_correct,response_rewarded,chosen_stim,counter,displayed_choice,feedback_durations,ITI_duration,labels,rest_warning,prolificID,start_time,date
pavlovia,0,522,0.0-0.0,,,,,,,pIIB6MwlhTghXp7F27OxRhHbSGY2,,,,,,,,,,,,,,,,,,,,,,,65bfb41fd7a1911a6a7db2c3,09:07:23,27/02/2024
html-keyboard-response,1,3553,0.0-1.0,,"<div style=""font-size:100px;"">+</div>",,delaylearn,learning,pre_fixation,pIIB6MwlhTghXp7F27OxRhHbSGY2,,,,,,,,,,,,,,,,,,,,,,,65bfb41fd7a1911a6a7db2c3,09:07:23,27/02/2024
html-keyboard-response,2,6069,0.0-2.0-0.0,2512.0,"<div style=""display: flex; flex-direction: column; align-items: center; margin-top: -40px;""><img src=""images/demo_images/pattern_1.png"" style=""width: 234px; height: 230px; margin-top: -50px;""><div style=""display: flex; justify-content: space-between; margin-top: 33px;""><img src=""images/demo_images/choice_trial_2.png"" style=""width: 408px; height: 417px; margin-right: 200px;""><img src=""images/demo_images/choice_trial_1.png"" style=""width: 408px; height: 417px;""></div></div>",f,delaylearn,learning,trial,pIIB6MwlhTghXp7F27OxRhHbSGY2,pIIB6MwlhTghXp7F27OxRhHbSGY2,2.0,images/demo_images/choice_trial_2.png,images/demo_images/choice_trial_1.png,images/demo_images/pattern_1.png,j,j,3000.0,2.0,1.0,20.0,1.0,1.0,0.0,0.0,2.0,0.0,,,,,,65bfb41fd7a1911a6a7db2c3,09:07:23,27/02/2024
html-keyboard-response,3,7090,0.0-2.0-1.0,,"<div style=""display: flex; flex-direction: column; align-items: center; margin-top: -40px;""><img src=""images/demo_images/pattern_1.png"" style=""width: 234px; height: 230px; margin-top: -50px;""><div style=""display: flex; justify-content: space-between; margin-top: 33px;""><img src=""images/demo_images/choice_trial_2.png"" style=""width: 408px; height: 417px; margin-right: 608px;""></div></div>",,delaylearn,learning,display_response,pIIB6MwlhTghXp7F27OxRhHbSGY2,pIIB6MwlhTghXp7F27OxRhHbSGY2,,,,,,,,,,,,,,,,,chosen stimuli: images/demo_images/choice_trial_2.png,,,,,65bfb41fd7a1911a6a7db2c3,09:07:23,27/02/2024
html-keyboard-response,4,10107,0.0-2.0-2.0,,,,delaylearn,learning,feedback_duration_window,pIIB6MwlhTghXp7F27OxRhHbSGY2,pIIB6MwlhTghXp7F27OxRhHbSGY2,,,,,,,,,,,,,,,,,,3000.0,,,,65bfb41fd7a1911a6a7db2c3,09:07:23,27/02/2024
html-keyboard-response,5,11625,0.0-2.0-3.0,,<div style='margin:auto;width: auto; font-size: 150%'><span style='font-weight: bold; font-size: 100px; color: red;'>0 points!</span><br><br></div>,,delaylearn,learning,feedback_image_window,pIIB6MwlhTghXp7F27OxRhHbSGY2,pIIB6MwlhTghXp7F27OxRhHbSGY2,,,,,,,,,,,,,,,,,,,,,,65bfb41fd7a1911a6a7db2c3,09:07:23,27/02/2024
html-keyboard-response,6,13529,0.0-3.0,,"<div style=""font-size:100px;"">+</div>",,delaylearn,learning,ITI,pIIB6MwlhTghXp7F27OxRhHbSGY2,pIIB6MwlhTghXp7F27OxRhHbSGY2,,,,,,,,,,,,,,,,,,,1884.0,,,65bfb41fd7a1911a6a7db2c3,09:07:23,27/02/2024
html-keyboard-response,7,16548,0.0-4.0-0.0,,"<div style=""display: flex; flex-direction: column; align-items: center; margin-top: -40px;""><img src=""images/demo_images/pattern_1.png"" style=""width: 234px; height: 230px; margin-top: -50px;""><div style=""display: flex; justify-content: space-between; margin-top: 33px;""><img src=""images/demo_images/choice_trial_2.png"" style=""width: 408px; height: 417px; margin-right: 200px;""><img src=""images/demo_images/choice_trial_1.png"" style=""width: 408px; height: 417px;""></div></div>",,delaylearn,learning,trial,pIIB6MwlhTghXp7F27OxRhHbSGY2,pIIB6MwlhTghXp7F27OxRhHbSGY2,2.0,images/demo_images/choice_trial_2.png,images/demo_images/choice_trial_1.png,images/demo_images/pattern_1.png,j,j,3000.0,2.0,1.0,20.0,1.0,2.0,0.0,0.0,0.0,0.0,,,,,,65bfb41fd7a1911a6a7db2c3,09:07:23,27/02/2024
html-keyboard-response,8,17555,0.0-4.0-1.0,,<div style='font-weight: bold; font-size: 75px; color: red;'>Missed Trial <br><br><br><br> Please respond faster</div>,,delaylearn,learning,display_response,pIIB6MwlhTghXp7F27OxRhHbSGY2,pIIB6MwlhTghXp7F27OxRhHbSGY2,,,,,,,,,,,,,,,,,Missed trial,,,,,65bfb41fd7a1911a6a7db2c3,09:07:23,27/02/2024
html-keyboard-response,9,17563,0.0-4.0-2.0,,,,delaylearn,learning,feedback_duration_window,pIIB6MwlhTghXp7F27OxRhHbSGY2,pIIB6MwlhTghXp7F27OxRhHbSGY2,,,,,,,,,,,,,,,,,,0.0,,,,65bfb41fd7a1911a6a7db2c3,09:07:23,27/02/2024
html-keyboard-response,10,17571,0.0-4.0-3.0,,,,delaylearn,learning,feedback_image_window,pIIB6MwlhTghXp7F27OxRhHbSGY2,pIIB6MwlhTghXp7F27OxRhHbSGY2,,,,,,,,,,,,,,,,,,,,,,65bfb41fd7a1911a6a7db2c3,09:07:23,27/02/2024
html-keyboard-response,11,19308,0.0-5.0,,"<div style=""font-size:100px;"">+</div>",,delaylearn,learning,ITI,pIIB6MwlhTghXp7F27OxRhHbSGY2,pIIB6MwlhTghXp7F27OxRhHbSGY2,,,,,,,,,,,,,,,,,,,1729.0,,,65bfb41fd7a1911a6a7db2c3,09:07:23,27/02/2024
html-keyboard-response,12,20668,0.0-6.0-0.0,1356.9000000953674,"<div style=""display: flex; flex-direction: column; align-items: center; margin-top: -40px;""><img src=""images/demo_images/pattern_1.png"" style=""width: 234px; height: 230px; margin-top: -50px;""><div style=""display: flex; justify-content: space-between; margin-top: 33px;""><img src=""images/demo_images/choice_trial_1.png"" style=""width: 408px; height: 417px; margin-right: 200px;""><img src=""images/demo_images/choice_trial_2.png"" style=""width: 408px; height: 417px;""></div></div>",f,delaylearn,learning,trial,pIIB6MwlhTghXp7F27OxRhHbSGY2,pIIB6MwlhTghXp7F27OxRhHbSGY2,2.0,images/demo_images/choice_trial_1.png,images/demo_images/choice_trial_2.png,images/demo_images/pattern_1.png,j,f,3000.0,1.0,2.0,20.0,0.0,3.0,1.0,0.0,1.0,0.0,,,,,,65bfb41fd7a1911a6a7db2c3,09:07:23,27/02/2024
html-keyboard-response,13,21680,0.0-6.0-1.0,,"<div style=""display: flex; flex-direction: column; align-items: center; margin-top: -40px;""><img src=""images/demo_images/pattern_1.png"" style=""width: 234px; height: 230px; margin-top: -50px;""><div style=""display: flex; justify-content: space-between; margin-top: 33px;""><img src=""images/demo_images/choice_trial_1.png"" style=""width: 408px; height: 417px; margin-right: 608px;""></div></div>",,delaylearn,learning,display_response,pIIB6MwlhTghXp7F27OxRhHbSGY2,pIIB6MwlhTghXp7F27OxRhHbSGY2,,,,,,,,,,,,,,,,,chosen stimuli: images/demo_images/choice_trial_1.png,,,,,65bfb41fd7a1911a6a7db2c3,09:07:23,27/02/2024
html-keyboard-response,14,24691,0.0-6.0-2.0,,,,delaylearn,learning,feedback_duration_window,pIIB6MwlhTghXp7F27OxRhHbSGY2,pIIB6MwlhTghXp7F27OxRhHbSGY2,,,,,,,,,,,,,,,,,,3000.0,,,,65bfb41fd7a1911a6a7db2c3,09:07:23,27/02/2024
html-keyboard-response,15,26194,0.0-6.0-3.0,,<div style='margin:auto;width: auto; font-size: 150%'><span style='font-weight: bold; font-size: 100px; color: red;'>0 points!</span><br><br></div>,,delaylearn,learning,feedback_image_window,pIIB6MwlhTghXp7F27OxRhHbSGY2,pIIB6MwlhTghXp7F27OxRhHbSGY2,,,,,,,,,,,,,,,,,,,,,,65bfb41fd7a1911a6a7db2c3,09:07:23,27/02/2024
html-keyboard-response,16,28251,0.0-7.0,,"<div style=""font-size:100px;"">+</div>",,delaylearn,learning,ITI,pIIB6MwlhTghXp7F27OxRhHbSGY2,pIIB6MwlhTghXp7F27OxRhHbSGY2,,,,,,,,,,,,,,,,,,,2046.0,,,65bfb41fd7a1911a6a7db2c3,09:07:23,27/02/2024
html-keyboard-response,17,29638,0.0-8.0-0.0,1384.4000000953674,"<div style=""display: flex; flex-direction: column; align-items: center; margin-top: -40px;""><img src=""images/demo_images/pattern_1.png"" style=""width: 234px; height: 230px; margin-top: -50px;""><div style=""display: flex; justify-content: space-between; margin-top: 33px;""><img src=""images/demo_images/choice_trial_1.png"" style=""width: 408px; height: 417px; margin-right: 200px;""><img src=""images/demo_images/choice_trial_2.png"" style=""width: 408px; height: 417px;""></div></div>",j,delaylearn,learning,trial,pIIB6MwlhTghXp7F27OxRhHbSGY2,pIIB6MwlhTghXp7F27OxRhHbSGY2,2.0,images/demo_images/choice_trial_1.png,images/demo_images/choice_trial_2.png,images/demo_images/pattern_1.png,f,f,3000.0,1.0,2.0,20.0,0.0,4.0,0.0,0.0,2.0,0.0,,,,,,65bfb41fd7a1911a6a7db2c3,09:07:23,27/02/2024
html-keyboard-response,18,30656,0.0-8.0-1.0,,"<div style=""display: flex; flex-direction: column; align-items: center; margin-top: -40px;""><img src=""images/demo_images/pattern_1.png"" style=""width: 234px; height: 230px; margin-top: -50px;""><div style=""display: flex; justify-content: space-between; margin-top: 33px;""><img src=""images/demo_images/choice_trial_2.png"" style=""width: 408px; height: 417px; margin-left:608px;""></div></div>",,delaylearn,learning,display_response,pIIB6MwlhTghXp7F27OxRhHbSGY2,pIIB6MwlhTghXp7F27OxRhHbSGY2,,,,,,,,,,,,,,,,,chosen stimuli: images/demo_images/choice_trial_2.png,,,,,65bfb41fd7a1911a6a7db2c3,09:07:23,27/02/2024
html-keyboard-response,19,33672,0.0-8.0-2.0,,,,delaylearn,learning,feedback_duration_window,pIIB6MwlhTghXp7F27OxRhHbSGY2,pIIB6MwlhTghXp7F27OxRhHbSGY2,,,,,,,,,,,,,,,,,,3000.0,,,,65bfb41fd7a1911a6a7db2c3,09:07:23,27/02/2024
html-keyboard-response,20,35182,0.0-8.0-3.0,,<div style='margin:auto;width: auto; font-size: 150%'><span style='font-weight: bold; font-size: 100px; color: red;'>0 points!</span><br><br></div>,,delaylearn,learning,feedback_image_window,pIIB6MwlhTghXp7F27OxRhHbSGY2,pIIB6MwlhTghXp7F27OxRhHbSGY2,,,,,,,,,,,,,,,,,,,,,,65bfb41fd7a1911a6a7db2c3,09:07:23,27/02/2024
html-keyboard-response,21,35692,0.0-9.0-0.0,,,,,,mood_trial_fixation,pIIB6MwlhTghXp7F27OxRhHbSGY2,,,,,,,,,,,,,,,,,,,,,,,65bfb41fd7a1911a6a7db2c3,09:07:23,27/02/2024
lmdlab-html-vas-response,22,45402,0.0-9.0-1.0,8680.0,How happy are you right now?,0.4908696335003784,delaylearn,learning,mood_trial,pIIB6MwlhTghXp7F27OxRhHbSGY2,pIIB6MwlhTghXp7F27OxRhHbSGY2,,,,,,,,,,,,,,,,,,,,"['Very unhappy', 'Very happy']",,65bfb41fd7a1911a6a7db2c3,09:07:23,27/02/2024
html-keyboard-response,23,47401,0.0-10.0,,"<div style=""font-size:100px;"">+</div>",,delaylearn,learning,ITI,pIIB6MwlhTghXp7F27OxRhHbSGY2,pIIB6MwlhTghXp7F27OxRhHbSGY2,,,,,,,,,,,,,,,,,,,1986.0,,,65bfb41fd7a1911a6a7db2c3,09:07:23,27/02/2024
html-keyboard-response,24,50412,0.0-11.0-0.0,,"<div style=""display: flex; flex-direction: column; align-items: center; margin-top: -40px;""><img src=""images/demo_images/pattern_1.png"" style=""width: 234px; height: 230px; margin-top: -50px;""><div style=""display: flex; justify-content: space-between; margin-top: 33px;""><img src=""images/demo_images/choice_trial_2.png"" style=""width: 408px; height: 417px; margin-right: 200px;""><img src=""images/demo_images/choice_trial_1.png"" style=""width: 408px; height: 417px;""></div></div>",,delaylearn,learning,trial,pIIB6MwlhTghXp7F27OxRhHbSGY2,pIIB6MwlhTghXp7F27OxRhHbSGY2,2.0,images/demo_images/choice_trial_2.png,images/demo_images/choice_trial_1.png,images/demo_images/pattern_1.png,j,j,3000.0,2.0,1.0,20.0,1.0,5.0,0.0,0.0,0.0,0.0,,,,,,65bfb41fd7a1911a6a7db2c3,09:07:23,27/02/2024
html-keyboard-response,25,51430,0.0-11.0-1.0,,<div style='font-weight: bold; font-size: 75px; color: red;'>Missed Trial <br><br><br><br> Please respond faster</div>,,delaylearn,learning,display_response,pIIB6MwlhTghXp7F27OxRhHbSGY2,pIIB6MwlhTghXp7F27OxRhHbSGY2,,,,,,,,,,,,,,,,,Missed trial,,,,,65bfb41fd7a1911a6a7db2c3,09:07:23,27/02/2024
html-keyboard-response,26,51437,0.0-11.0-2.0,,,,delaylearn,learning,feedback_duration_window,pIIB6MwlhTghXp7F27OxRhHbSGY2,pIIB6MwlhTghXp7F27OxRhHbSGY2,,,,,,,,,,,,,,,,,,0.0,,,,65bfb41fd7a1911a6a7db2c3,09:07:23,27/02/2024
html-keyboard-response,27,51445,0.0-11.0-3.0,,,,delaylearn,learning,feedback_image_window,pIIB6MwlhTghXp7F27OxRhHbSGY2,pIIB6MwlhTghXp7F27OxRhHbSGY2,,,,,,,,,,,,,,,,,,,,,,65bfb41fd7a1911a6a7db2c3,09:07:23,27/02/2024
html-keyboard-response,28,53104,0.0-12.0,,"<div style=""font-size:100px;"">+</div>",,delaylearn,learning,ITI,pIIB6MwlhTghXp7F27OxRhHbSGY2,pIIB6MwlhTghXp7F27OxRhHbSGY2,,,,,,,,,,,,,,,,,,,1652.0,,,65bfb41fd7a1911a6a7db2c3,09:07:23,27/02/2024
html-keyboard-response,29,53969,0.0-13.0-0.0,861.6000001430511,"<div style=""display: flex; flex-direction: column; align-items: center; margin-top: -40px;""><img src=""images/demo_images/pattern_1.png"" style=""width: 234px; height: 230px; margin-top: -50px;""><div style=""display: flex; justify-content: space-between; margin-top: 33px;""><img src=""images/demo_images/choice_trial_1.png"" style=""width: 408px; height: 417px; margin-right: 200px;""><img src=""images/demo_images/choice_trial_2.png"" style=""width: 408px; height: 417px;""></div></div>",f,delaylearn,learning,trial,pIIB6MwlhTghXp7F27OxRhHbSGY2,pIIB6MwlhTghXp7F27OxRhHbSGY2,2.0,images/demo_images/choice_trial_1.png,images/demo_images/choice_trial_2.png,images/demo_images/pattern_1.png,f,f,3000.0,1.0,2.0,20.0,0.0,6.0,1.0,1.0,1.0,10.0,,,,,,65bfb41fd7a1911a6a7db2c3,09:07:23,27/02/2024
html-keyboard-response,30,54987,0.0-13.0-1.0,,"<div style=""display: flex; flex-direction: column; align-items: center; margin-top: -40px;""><img src=""images/demo_images/pattern_1.png"" style=""width: 234px; height: 230px; margin-top: -50px;""><div style=""display: flex; justify-content: space-between; margin-top: 33px;""><img src=""images/demo_images/choice_trial_1.png"" style=""width: 408px; height: 417px; margin-right: 608px;""></div></div>",,delaylearn,learning,display_response,pIIB6MwlhTghXp7F27OxRhHbSGY2,pIIB6MwlhTghXp7F27OxRhHbSGY2,,,,,,,,,,,,,,,,,chosen stimuli: images/demo_images/choice_trial_1.png,,,,,65bfb41fd7a1911a6a7db2c3,09:07:23,27/02/2024
html-keyboard-response,31,57991,0.0-13.0-2.0,,,,delaylearn,learning,feedback_duration_window,pIIB6MwlhTghXp7F27OxRhHbSGY2,pIIB6MwlhTghXp7F27OxRhHbSGY2,,,,,,,,,,,,,,,,,,3000.0,,,,65bfb41fd7a1911a6a7db2c3,09:07:23,27/02/2024
html-keyboard-response,32,59502,0.0-13.0-3.0,,<div style='margin:auto;width: auto; font-size: 150%'><span style='font-weight: bold; font-size: 100px; color: green;'>+10 points!</span><br><br></div>,,delaylearn,learning,feedback_image_window,pIIB6MwlhTghXp7F27OxRhHbSGY2,pIIB6MwlhTghXp7F27OxRhHbSGY2,,,,,,,,,,,,,,,,,,,,,,65bfb41fd7a1911a6a7db2c3,09:07:23,27/02/2024
html-button-response,33,64510,0.0-14.0,5006.200000047684,"
  <div style=""display: flex; align-items: center; justify-content: center; height: 80vh;"">
  <div>
          <img src=""images/inst_demo_finish.png"" style=""width: 80vw; height:auto;"">
          <br><br>
      </div>
      <br><br>
  </div>",0,,,,pIIB6MwlhTghXp7F27OxRhHbSGY2,,,,,,,,,,,,,,,,,,,,,,,65bfb41fd7a1911a6a7db2c3,09:07:23,27/02/2024
html-keyboard-response,34,76999,0.0-15.0,12487.099999904633,"
  <div style=""display: flex; align-items: center; justify-content: center; height: 80vh;"">
  <div>
          <img src=""images/inst_6.png"" style=""width: 80vw; height:auto;"">
          <br><br>
      </div>
      <br><br>
  </div>",j,,,,pIIB6MwlhTghXp7F27OxRhHbSGY2,,,,,,,,,,,,,,,,,,,,,,,65bfb41fd7a1911a6a7db2c3,09:07:23,27/02/2024
html-keyboard-response,35,80018,0.0-16.0,,"<div style=""font-size:100px;"">+</div>",,delaylearn,learning,pre_fixation,pIIB6MwlhTghXp7F27OxRhHbSGY2,,,,,,,,,,,,,,,,,,,,,,,65bfb41fd7a1911a6a7db2c3,09:07:23,27/02/2024
html-keyboard-response,36,81586,0.0-17.0,,"<div style=""font-size:100px;"">+</div>",,delaylearn,learning,ITI,pIIB6MwlhTghXp7F27OxRhHbSGY2,pIIB6MwlhTghXp7F27OxRhHbSGY2,,,,,,,,,,,,,,,,,,,1551.0,,,65bfb41fd7a1911a6a7db2c3,09:07:23,27/02/2024
html-keyboard-response,37,83649,0.0-18.0-0.0,2059.100000143051,"<div style=""display: flex; flex-direction: column; align-items: center; margin-top: -40px;""><img src=""images/pattern_3.png"" style=""width: 234px; height: 230px; margin-top: -50px;""><div style=""display: flex; justify-content: space-between; margin-top: 33px;""><img src=""images/choice_trial_12.png"" style=""width: 408px; height: 417px; margin-right: 200px;""><img src=""images/choice_trial_14.png"" style=""width: 408px; height: 417px;""></div></div>",f,delaylearn,learning,trial,pIIB6MwlhTghXp7F27OxRhHbSGY2,pIIB6MwlhTghXp7F27OxRhHbSGY2,2.0,images/choice_trial_12.png,images/choice_trial_14.png,images/pattern_3.png,f,f,7000.0,12.0,14.0,2.0,0.0,7.0,1.0,1.0,12.0,20.0,,,,,,65bfb41fd7a1911a6a7db2c3,09:07:23,27/02/2024
html-keyboard-response,38,84660,0.0-18.0-1.0,,"<div style=""display: flex; flex-direction: column; align-items: center; margin-top: -40px;""><img src=""images/pattern_3.png"" style=""width: 234px; height: 230px; margin-top: -50px;""><div style=""display: flex; justify-content: space-between; margin-top: 33px;""><img src=""images/choice_trial_12.png"" style=""width: 408px; height: 417px; margin-right: 608px;""></div></div>",,delaylearn,learning,display_response,pIIB6MwlhTghXp7F27OxRhHbSGY2,pIIB6MwlhTghXp7F27OxRhHbSGY2,,,,,,,,,,,,,,,,,chosen stimuli: images/choice_trial_12.png,,,,,65bfb41fd7a1911a6a7db2c3,09:07:23,27/02/2024
html-keyboard-response,39,91673,0.0-18.0-2.0,,,,delaylearn,learning,feedback_duration_window,pIIB6MwlhTghXp7F27OxRhHbSGY2,pIIB6MwlhTghXp7F27OxRhHbSGY2,,,,,,,,,,,,,,,,,,7000.0,,,,65bfb41fd7a1911a6a7db2c3,09:07:23,27/02/2024
html-keyboard-response,40,93180,0.0-18.0-3.0,,<div style='margin:auto;width: auto; font-size: 150%'><span style='font-weight: bold; font-size: 100px; color: green;'>+10 points!</span><br><br></div>,,delaylearn,learning,feedback_image_window,pIIB6MwlhTghXp7F27OxRhHbSGY2,pIIB6MwlhTghXp7F27OxRhHbSGY2,,,,,,,,,,,,,,,,,,,,,,65bfb41fd7a1911a6a7db2c3,09:07:23,27/02/2024
html-keyboard-response,41,95099,0.0-19.0,,"<div style=""font-size:100px;"">+</div>",,delaylearn,learning,ITI,pIIB6MwlhTghXp7F27OxRhHbSGY2,pIIB6MwlhTghXp7F27OxRhHbSGY2,,,,,,,,,,,,,,,,,,,1910.0,,,65bfb41fd7a1911a6a7db2c3,09:07:23,27/02/2024
html-keyboard-response,42,97299,0.0-20.0-0.0,2196.0,"<div style=""display: flex; flex-direction: column; align-items: center; margin-top: -40px;""><img src=""images/pattern_7.png"" style=""width: 234px; height: 230px; margin-top: -50px;""><div style=""display: flex; justify-content: space-between; margin-top: 33px;""><img src=""images/choice_trial_15.png"" style=""width: 408px; height: 417px; margin-right: 200px;""><img src=""images/choice_trial_8.png"" style=""width: 408px; height: 417px;""></div></div>",j,delaylearn,learning,trial,pIIB6MwlhTghXp7F27OxRhHbSGY2,pIIB6MwlhTghXp7F27OxRhHbSGY2,2.0,images/choice_trial_15.png,images/choice_trial_8.png,images/pattern_7.png,j,j,750.0,15.0,8.0,6.0,1.0,8.0,1.0,1.0,8.0,30.0,,,,,,65bfb41fd7a1911a6a7db2c3,09:07:23,27/02/2024
html-keyboard-response,43,98315,0.0-20.0-1.0,,"<div style=""display: flex; flex-direction: column; align-items: center; margin-top: -40px;""><img src=""images/pattern_7.png"" style=""width: 234px; height: 230px; margin-top: -50px;""><div style=""display: flex; justify-content: space-between; margin-top: 33px;""><img src=""images/choice_trial_8.png"" style=""width: 408px; height: 417px; margin-left:608px;""></div></div>",,delaylearn,learning,display_response,pIIB6MwlhTghXp7F27OxRhHbSGY2,pIIB6MwlhTghXp7F27OxRhHbSGY2,,,,,,,,,,,,,,,,,chosen stimuli: images/choice_trial_8.png,,,,,65bfb41fd7a1911a6a7db2c3,09:07:23,27/02/2024
html-keyboard-response,44,99077,0.0-20.0-2.0,,,,delaylearn,learning,feedback_duration_window,pIIB6MwlhTghXp7F27OxRhHbSGY2,pIIB6MwlhTghXp7F27OxRhHbSGY2,,,,,,,,,,,,,,,,,,750.0,,,,65bfb41fd7a1911a6a7db2c3,09:07:23,27/02/2024
html-keyboard-response,45,100594,0.0-20.0-3.0,,<div style='margin:auto;width: auto; font-size: 150%'><span style='font-weight: bold; font-size: 100px; color: green;'>+10 points!</span><br><br></div>,,delaylearn,learning,feedback_image_window,pIIB6MwlhTghXp7F27OxRhHbSGY2,pIIB6MwlhTghXp7F27OxRhHbSGY2,,,,,,,,,,,,,,,,,,,,,,65bfb41fd7a1911a6a7db2c3,09:07:23,27/02/2024
html-keyboard-response,46,102528,0.0-21.0,,"<div style=""font-size:100px;"">+</div>",,delaylearn,learning,ITI,pIIB6MwlhTghXp7F27OxRhHbSGY2,pIIB6MwlhTghXp7F27OxRhHbSGY2,,,,,,,,,,,,,,,,,,,1931.0,,,65bfb41fd7a1911a6a7db2c3,09:07:23,27/02/2024
html-keyboard-response,47,104439,0.0-22.0-0.0,1908.0,"<div style=""display: flex; flex-direction: column; align-items: center; margin-top: -40px;""><img src=""images/pattern_4.png"" style=""width: 234px; height: 230px; margin-top: -50px;""><div style=""display: flex; justify-content: space-between; margin-top: 33px;""><img src=""images/choice_trial_4.png"" style=""width: 408px; height: 417px; margin-right: 200px;""><img src=""images/choice_trial_16.png"" style=""width: 408px; height: 417px;""></div></div>",j,delaylearn,learning,trial,pIIB6MwlhTghXp7F27OxRhHbSGY2,pIIB6MwlhTghXp7F27OxRhHbSGY2,2.0,images/choice_trial_4.png,images/choice_trial_16.png,images/pattern_4.png,f,f,7000.0,4.0,16.0,3.0,0.0,9.0,0.0,0.0,16.0,30.0,,,,,,65bfb41fd7a1911a6a7db2c3,09:07:23,27/02/2024
html-keyboard-response,48,105456,0.0-22.0-1.0,,"<div style=""display: flex; flex-direction: column; align-items: center; margin-top: -40px;""><img src=""images/pattern_4.png"" style=""width: 234px; height: 230px; margin-top: -50px;""><div style=""display: flex; justify-content: space-between; margin-top: 33px;""><img src=""images/choice_trial_16.png"" style=""width: 408px; height: 417px; margin-left:608px;""></div></div>",,delaylearn,learning,display_response,pIIB6MwlhTghXp7F27OxRhHbSGY2,pIIB6MwlhTghXp7F27OxRhHbSGY2,,,,,,,,,,,,,,,,,chosen stimuli: images/choice_trial_16.png,,,,,65bfb41fd7a1911a6a7db2c3,09:07:23,27/02/2024
html-keyboard-response,49,112461,0.0-22.0-2.0,,,,delaylearn,learning,feedback_duration_window,pIIB6MwlhTghXp7F27OxRhHbSGY2,pIIB6MwlhTghXp7F27OxRhHbSGY2,,,,,,,,,,,,,,,,,,7000.0,,,,65bfb41fd7a1911a6a7db2c3,09:07:23,27/02/2024
html-keyboard-response,50,113971,0.0-22.0-3.0,,<div style='margin:auto;width: auto; font-size: 150%'><span style='font-weight: bold; font-size: 100px; color: red;'>0 points!</span><br><br></div>,,delaylearn,learning,feedback_image_window,pIIB6MwlhTghXp7F27OxRhHbSGY2,pIIB6MwlhTghXp7F27OxRhHbSGY2,,,,,,,,,,,,,,,,,,,,,,65bfb41fd7a1911a6a7db2c3,09:07:23,27/02/2024
html-keyboard-response,51,115599,0.0-23.0,,"<div style=""font-size:100px;"">+</div>",,delaylearn,learning,ITI,pIIB6MwlhTghXp7F27OxRhHbSGY2,pIIB6MwlhTghXp7F27OxRhHbSGY2,,,,,,,,,,,,,,,,,,,1609.0,,,65bfb41fd7a1911a6a7db2c3,09:07:23,27/02/2024
html-keyboard-response,52,116968,0.0-24.0-0.0,1365.9000000953674,"<div style=""display: flex; flex-direction: column; align-items: center; margin-top: -40px;""><img src=""images/pattern_5.png"" style=""width: 234px; height: 230px; margin-top: -50px;""><div style=""display: flex; justify-content: space-between; margin-top: 33px;""><img src=""images/choice_trial_9.png"" style=""width: 408px; height: 417px; margin-right: 200px;""><img src=""images/choice_trial_2.png"" style=""width: 408px; height: 417px;""></div></div>",f,delaylearn,learning,trial,pIIB6MwlhTghXp7F27OxRhHbSGY2,pIIB6MwlhTghXp7F27OxRhHbSGY2,2.0,images/choice_trial_9.png,images/choice_trial_2.png,images/pattern_5.png,j,j,750.0,9.0,2.0,4.0,1.0,10.0,0.0,0.0,9.0,30.0,,,,,,65bfb41fd7a1911a6a7db2c3,09:07:23,27/02/2024
html-keyboard-response,53,117982,0.0-24.0-1.0,,"<div style=""display: flex; flex-direction: column; align-items: center; margin-top: -40px;""><img src=""images/pattern_5.png"" style=""width: 234px; height: 230px; margin-top: -50px;""><div style=""display: flex; justify-content: space-between; margin-top: 33px;""><img src=""images/choice_trial_9.png"" style=""width: 408px; height: 417px; margin-right: 608px;""></div></div>",,delaylearn,learning,display_response,pIIB6MwlhTghXp7F27OxRhHbSGY2,pIIB6MwlhTghXp7F27OxRhHbSGY2,,,,,,,,,,,,,,,,,chosen stimuli: images/choice_trial_9.png,,,,,65bfb41fd7a1911a6a7db2c3,09:07:23,27/02/2024
html-keyboard-response,54,118746,0.0-24.0-2.0,,,,delaylearn,learning,feedback_duration_window,pIIB6MwlhTghXp7F27OxRhHbSGY2,pIIB6MwlhTghXp7F27OxRhHbSGY2,,,,,,,,,,,,,,,,,,750.0,,,,65bfb41fd7a1911a6a7db2c3,09:07:23,27/02/2024
html-keyboard-response,55,120254,0.0-24.0-3.0,,<div style='margin:auto;width: auto; font-size: 150%'><span style='font-weight: bold; font-size: 100px; color: red;'>0 points!</span><br><br></div>,,delaylearn,learning,feedback_image_window,pIIB6MwlhTghXp7F27OxRhHbSGY2,pIIB6MwlhTghXp7F27OxRhHbSGY2,,,,,,,,,,,,,,,,,,,,,,65bfb41fd7a1911a6a7db2c3,09:07:23,27/02/2024
html-keyboard-response,56,122582,0.0-25.0,,"<div style=""font-size:100px;"">+</div>",,delaylearn,learning,ITI,pIIB6MwlhTghXp7F27OxRhHbSGY2,pIIB6MwlhTghXp7F27OxRhHbSGY2,,,,,,,,,,,,,,,,,,,2317.0,,,65bfb41fd7a1911a6a7db2c3,09:07:23,27/02/2024
html-keyboard-response,57,123778,0.0-26.0-0.0,1193.0,"<div style=""display: flex; flex-direction: column; align-items: center; margin-top: -40px;""><img src=""images/pattern_6.png"" style=""width: 234px; height: 230px; margin-top: -50px;""><div style=""display: flex; justify-content: space-between; margin-top: 33px;""><img src=""images/choice_trial_11.png"" style=""width: 408px; height: 417px; margin-right: 200px;""><img src=""images/choice_trial_5.png"" style=""width: 408px; height: 417px;""></div></div>",f,delaylearn,learning,trial,pIIB6MwlhTghXp7F27OxRhHbSGY2,pIIB6MwlhTghXp7F27OxRhHbSGY2,2.0,images/choice_trial_11.png,images/choice_trial_5.png,images/pattern_6.png,j,f,750.0,11.0,5.0,5.0,0.0,11.0,1.0,0.0,11.0,30.0,,,,,,65bfb41fd7a1911a6a7db2c3,09:07:23,27/02/2024
html-keyboard-response,58,124783,0.0-26.0-1.0,,"<div style=""display: flex; flex-direction: column; align-items: center; margin-top: -40px;""><img src=""images/pattern_6.png"" style=""width: 234px; height: 230px; margin-top: -50px;""><div style=""display: flex; justify-content: space-between; margin-top: 33px;""><img src=""images/choice_trial_11.png"" style=""width: 408px; height: 417px; margin-right: 608px;""></div></div>",,delaylearn,learning,display_response,pIIB6MwlhTghXp7F27OxRhHbSGY2,pIIB6MwlhTghXp7F27OxRhHbSGY2,,,,,,,,,,,,,,,,,chosen stimuli: images/choice_trial_11.png,,,,,65bfb41fd7a1911a6a7db2c3,09:07:23,27/02/2024
html-keyboard-response,59,125550,0.0-26.0-2.0,,,,delaylearn,learning,feedback_duration_window,pIIB6MwlhTghXp7F27OxRhHbSGY2,pIIB6MwlhTghXp7F27OxRhHbSGY2,,,,,,,,,,,,,,,,,,750.0,,,,65bfb41fd7a1911a6a7db2c3,09:07:23,27/02/2024
html-keyboard-response,60,127055,0.0-26.0-3.0,,<div style='margin:auto;width: auto; font-size: 150%'><span style='font-weight: bold; font-size: 100px; color: red;'>0 points!</span><br><br></div>,,delaylearn,learning,feedback_image_window,pIIB6MwlhTghXp7F27OxRhHbSGY2,pIIB6MwlhTghXp7F27OxRhHbSGY2,,,,,,,,,,,,,,,,,,,,,,65bfb41fd7a1911a6a7db2c3,09:07:23,27/02/2024
html-keyboard-response,61,127569,0.0-27.0-0.0,,,,,,mood_trial_fixation,pIIB6MwlhTghXp7F27OxRhHbSGY2,,,,,,,,,,,,,,,,,,,,,,,65bfb41fd7a1911a6a7db2c3,09:07:23,27/02/2024
lmdlab-html-vas-response,62,133575,0.0-27.0-1.0,4990.0,How happy are you right now?,0.48721463143016236,delaylearn,learning,mood_trial,pIIB6MwlhTghXp7F27OxRhHbSGY2,pIIB6MwlhTghXp7F27OxRhHbSGY2,,,,,,,,,,,,,,,,,,,,"['Very unhappy', 'Very happy']",,65bfb41fd7a1911a6a7db2c3,09:07:23,27/02/2024
html-keyboard-response,63,135294,0.0-28.0,,"<div style=""font-size:100px;"">+</div>",,delaylearn,learning,ITI,pIIB6MwlhTghXp7F27OxRhHbSGY2,pIIB6MwlhTghXp7F27OxRhHbSGY2,,,,,,,,,,,,,,,,,,,1709.0,,,65bfb41fd7a1911a6a7db2c3,09:07:23,27/02/2024
html-keyboard-response,64,136908,0.0-29.0-0.0,1610.9000000953674,"<div style=""display: flex; flex-direction: column; align-items: center; margin-top: -40px;""><img src=""images/pattern_1.png"" style=""width: 234px; height: 230px; margin-top: -50px;""><div style=""display: flex; justify-content: space-between; margin-top: 33px;""><img src=""images/choice_trial_10.png"" style=""width: 408px; height: 417px; margin-right: 200px;""><img src=""images/choice_trial_3.png"" style=""width: 408px; height: 417px;""></div></div>",j,delaylearn,learning,trial,pIIB6MwlhTghXp7F27OxRhHbSGY2,pIIB6MwlhTghXp7F27OxRhHbSGY2,2.0,images/choice_trial_10.png,images/choice_trial_3.png,images/pattern_1.png,j,j,7000.0,10.0,3.0,1.0,1.0,12.0,1.0,1.0,3.0,40.0,,,,,,65bfb41fd7a1911a6a7db2c3,09:07:23,27/02/2024
html-keyboard-response,65,137917,0.0-29.0-1.0,,"<div style=""display: flex; flex-direction: column; align-items: center; margin-top: -40px;""><img src=""images/pattern_1.png"" style=""width: 234px; height: 230px; margin-top: -50px;""><div style=""display: flex; justify-content: space-between; margin-top: 33px;""><img src=""images/choice_trial_3.png"" style=""width: 408px; height: 417px; margin-left:608px;""></div></div>",,delaylearn,learning,display_response,pIIB6MwlhTghXp7F27OxRhHbSGY2,pIIB6MwlhTghXp7F27OxRhHbSGY2,,,,,,,,,,,,,,,,,chosen stimuli: images/choice_trial_3.png,,,,,65bfb41fd7a1911a6a7db2c3,09:07:23,27/02/2024
html-keyboard-response,66,144924,0.0-29.0-2.0,,,,delaylearn,learning,feedback_duration_window,pIIB6MwlhTghXp7F27OxRhHbSGY2,pIIB6MwlhTghXp7F27OxRhHbSGY2,,,,,,,,,,,,,,,,,,7000.0,,,,65bfb41fd7a1911a6a7db2c3,09:07:23,27/02/2024
html-keyboard-response,67,146436,0.0-29.0-3.0,,<div style='margin:auto;width: auto; font-size: 150%'><span style='font-weight: bold; font-size: 100px; color: green;'>+10 points!</span><br><br></div>,,delaylearn,learning,feedback_image_window,pIIB6MwlhTghXp7F27OxRhHbSGY2,pIIB6MwlhTghXp7F27OxRhHbSGY2,,,,,,,,,,,,,,,,,,,,,,65bfb41fd7a1911a6a7db2c3,09:07:23,27/02/2024
html-keyboard-response,68,148895,0.0-30.0,,"<div style=""font-size:100px;"">+</div>",,delaylearn,learning,ITI,pIIB6MwlhTghXp7F27OxRhHbSGY2,pIIB6MwlhTghXp7F27OxRhHbSGY2,,,,,,,,,,,,,,,,,,,2450.0,,,65bfb41fd7a1911a6a7db2c3,09:07:23,27/02/2024
html-keyboard-response,69,151218,0.0-31.0-0.0,2319.7000000476837,"<div style=""display: flex; flex-direction: column; align-items: center; margin-top: -40px;""><img src=""images/pattern_3.png"" style=""width: 234px; height: 230px; margin-top: -50px;""><div style=""display: flex; justify-content: space-between; margin-top: 33px;""><img src=""images/choice_trial_14.png"" style=""width: 408px; height: 417px; margin-right: 200px;""><img src=""images/choice_trial_12.png"" style=""width: 408px; height: 417px;""></div></div>",f,delaylearn,learning,trial,pIIB6MwlhTghXp7F27OxRhHbSGY2,pIIB6MwlhTghXp7F27OxRhHbSGY2,2.0,images/choice_trial_14.png,images/choice_trial_12.png,images/pattern_3.png,f,j,7000.0,14.0,12.0,2.0,1.0,13.0,0.0,1.0,14.0,50.0,,,,,,65bfb41fd7a1911a6a7db2c3,09:07:23,27/02/2024
html-keyboard-response,70,152235,0.0-31.0-1.0,,"<div style=""display: flex; flex-direction: column; align-items: center; margin-top: -40px;""><img src=""images/pattern_3.png"" style=""width: 234px; height: 230px; margin-top: -50px;""><div style=""display: flex; justify-content: space-between; margin-top: 33px;""><img src=""images/choice_trial_14.png"" style=""width: 408px; height: 417px; margin-right: 608px;""></div></div>",,delaylearn,learning,display_response,pIIB6MwlhTghXp7F27OxRhHbSGY2,pIIB6MwlhTghXp7F27OxRhHbSGY2,,,,,,,,,,,,,,,,,chosen stimuli: images/choice_trial_14.png,,,,,65bfb41fd7a1911a6a7db2c3,09:07:23,27/02/2024
html-keyboard-response,71,159243,0.0-31.0-2.0,,,,delaylearn,learning,feedback_duration_window,pIIB6MwlhTghXp7F27OxRhHbSGY2,pIIB6MwlhTghXp7F27OxRhHbSGY2,,,,,,,,,,,,,,,,,,7000.0,,,,65bfb41fd7a1911a6a7db2c3,09:07:23,27/02/2024
html-keyboard-response,72,160764,0.0-31.0-3.0,,<div style='margin:auto;width: auto; font-size: 150%'><span style='font-weight: bold; font-size: 100px; color: green;'>+10 points!</span><br><br></div>,,delaylearn,learning,feedback_image_window,pIIB6MwlhTghXp7F27OxRhHbSGY2,pIIB6MwlhTghXp7F27OxRhHbSGY2,,,,,,,,,,,,,,,,,,,,,,65bfb41fd7a1911a6a7db2c3,09:07:23,27/02/2024
html-keyboard-response,73,162871,0.0-32.0,,"<div style=""font-size:100px;"">+</div>",,delaylearn,learning,ITI,pIIB6MwlhTghXp7F27OxRhHbSGY2,pIIB6MwlhTghXp7F27OxRhHbSGY2,,,,,,,,,,,,,,,,,,,2099.0,,,65bfb41fd7a1911a6a7db2c3,09:07:23,27/02/2024
html-keyboard-response,74,165857,0.0-33.0-0.0,2982.5999999046326,"<div style=""display: flex; flex-direction: column; align-items: center; margin-top: -40px;""><img src=""images/pattern_5.png"" style=""width: 234px; height: 230px; margin-top: -50px;""><div style=""display: flex; justify-content: space-between; margin-top: 33px;""><img src=""images/choice_trial_2.png"" style=""width: 408px; height: 417px; margin-right: 200px;""><img src=""images/choice_trial_9.png"" style=""width: 408px; height: 417px;""></div></div>",j,delaylearn,learning,trial,pIIB6MwlhTghXp7F27OxRhHbSGY2,pIIB6MwlhTghXp7F27OxRhHbSGY2,2.0,images/choice_trial_2.png,images/choice_trial_9.png,images/pattern_5.png,f,f,750.0,2.0,9.0,4.0,0.0,14.0,0.0,0.0,9.0,50.0,,,,,,65bfb41fd7a1911a6a7db2c3,09:07:23,27/02/2024
html-keyboard-response,75,166875,0.0-33.0-1.0,,"<div style=""display: flex; flex-direction: column; align-items: center; margin-top: -40px;""><img src=""images/pattern_5.png"" style=""width: 234px; height: 230px; margin-top: -50px;""><div style=""display: flex; justify-content: space-between; margin-top: 33px;""><img src=""images/choice_trial_9.png"" style=""width: 408px; height: 417px; margin-left:608px;""></div></div>",,delaylearn,learning,display_response,pIIB6MwlhTghXp7F27OxRhHbSGY2,pIIB6MwlhTghXp7F27OxRhHbSGY2,,,,,,,,,,,,,,,,,chosen stimuli: images/choice_trial_9.png,,,,,65bfb41fd7a1911a6a7db2c3,09:07:23,27/02/2024
html-keyboard-response,76,167634,0.0-33.0-2.0,,,,delaylearn,learning,feedback_duration_window,pIIB6MwlhTghXp7F27OxRhHbSGY2,pIIB6MwlhTghXp7F27OxRhHbSGY2,,,,,,,,,,,,,,,,,,750.0,,,,65bfb41fd7a1911a6a7db2c3,09:07:23,27/02/2024
html-keyboard-response,77,169150,0.0-33.0-3.0,,<div style='margin:auto;width: auto; font-size: 150%'><span style='font-weight: bold; font-size: 100px; color: red;'>0 points!</span><br><br></div>,,delaylearn,learning,feedback_image_window,pIIB6MwlhTghXp7F27OxRhHbSGY2,pIIB6MwlhTghXp7F27OxRhHbSGY2,,,,,,,,,,,,,,,,,,,,,,65bfb41fd7a1911a6a7db2c3,09:07:23,27/02/2024
html-keyboard-response,78,169661,0.0-34.0-0.0,,,,,,mood_trial_fixation,pIIB6MwlhTghXp7F27OxRhHbSGY2,,,,,,,,,,,,,,,,,,,,,,,65bfb41fd7a1911a6a7db2c3,09:07:23,27/02/2024
lmdlab-html-vas-response,79,180616,0.0-34.0-1.0,9944.0,How happy are you right now?,0.3501520537970617,delaylearn,learning,mood_trial,pIIB6MwlhTghXp7F27OxRhHbSGY2,pIIB6MwlhTghXp7F27OxRhHbSGY2,,,,,,,,,,,,,,,,,,,,"['Very unhappy', 'Very happy']",,65bfb41fd7a1911a6a7db2c3,09:07:23,27/02/2024
html-keyboard-response,80,182219,0.0-35.0,,"<div style=""font-size:100px;"">+</div>",,delaylearn,learning,ITI,pIIB6MwlhTghXp7F27OxRhHbSGY2,pIIB6MwlhTghXp7F27OxRhHbSGY2,,,,,,,,,,,,,,,,,,,1589.0,,,65bfb41fd7a1911a6a7db2c3,09:07:23,27/02/2024
html-keyboard-response,81,184527,0.0-36.0-0.0,2305.7000000476837,"<div style=""display: flex; flex-direction: column; align-items: center; margin-top: -40px;""><img src=""images/pattern_6.png"" style=""width: 234px; height: 230px; margin-top: -50px;""><div style=""display: flex; justify-content: space-between; margin-top: 33px;""><img src=""images/choice_trial_11.png"" style=""width: 408px; height: 417px; margin-right: 200px;""><img src=""images/choice_trial_5.png"" style=""width: 408px; height: 417px;""></div></div>",f,delaylearn,learning,trial,pIIB6MwlhTghXp7F27OxRhHbSGY2,pIIB6MwlhTghXp7F27OxRhHbSGY2,2.0,images/choice_trial_11.png,images/choice_trial_5.png,images/pattern_6.png,f,f,750.0,11.0,5.0,5.0,0.0,15.0,1.0,1.0,11.0,60.0,,,,,,65bfb41fd7a1911a6a7db2c3,09:07:23,27/02/2024
html-keyboard-response,82,185540,0.0-36.0-1.0,,"<div style=""display: flex; flex-direction: column; align-items: center; margin-top: -40px;""><img src=""images/pattern_6.png"" style=""width: 234px; height: 230px; margin-top: -50px;""><div style=""display: flex; justify-content: space-between; margin-top: 33px;""><img src=""images/choice_trial_11.png"" style=""width: 408px; height: 417px; margin-right: 608px;""></div></div>",,delaylearn,learning,display_response,pIIB6MwlhTghXp7F27OxRhHbSGY2,pIIB6MwlhTghXp7F27OxRhHbSGY2,,,,,,,,,,,,,,,,,chosen stimuli: images/choice_trial_11.png,,,,,65bfb41fd7a1911a6a7db2c3,09:07:23,27/02/2024
html-keyboard-response,83,186300,0.0-36.0-2.0,,,,delaylearn,learning,feedback_duration_window,pIIB6MwlhTghXp7F27OxRhHbSGY2,pIIB6MwlhTghXp7F27OxRhHbSGY2,,,,,,,,,,,,,,,,,,750.0,,,,65bfb41fd7a1911a6a7db2c3,09:07:23,27/02/2024
html-keyboard-response,84,187816,0.0-36.0-3.0,,<div style='margin:auto;width: auto; font-size: 150%'><span style='font-weight: bold; font-size: 100px; color: green;'>+10 points!</span><br><br></div>,,delaylearn,learning,feedback_image_window,pIIB6MwlhTghXp7F27OxRhHbSGY2,pIIB6MwlhTghXp7F27OxRhHbSGY2,,,,,,,,,,,,,,,,,,,,,,65bfb41fd7a1911a6a7db2c3,09:07:23,27/02/2024
html-keyboard-response,85,190109,0.0-37.0,,"<div style=""font-size:100px;"">+</div>",,delaylearn,learning,ITI,pIIB6MwlhTghXp7F27OxRhHbSGY2,pIIB6MwlhTghXp7F27OxRhHbSGY2,,,,,,,,,,,,,,,,,,,2282.0,,,65bfb41fd7a1911a6a7db2c3,09:07:23,27/02/2024
html-keyboard-response,86,191468,0.0-38.0-0.0,1356.5,"<div style=""display: flex; flex-direction: column; align-items: center; margin-top: -40px;""><img src=""images/pattern_4.png"" style=""width: 234px; height: 230px; margin-top: -50px;""><div style=""display: flex; justify-content: space-between; margin-top: 33px;""><img src=""images/choice_trial_16.png"" style=""width: 408px; height: 417px; margin-right: 200px;""><img src=""images/choice_trial_4.png"" style=""width: 408px; height: 417px;""></div></div>",f,delaylearn,learning,trial,pIIB6MwlhTghXp7F27OxRhHbSGY2,pIIB6MwlhTghXp7F27OxRhHbSGY2,2.0,images/choice_trial_16.png,images/choice_trial_4.png,images/pattern_4.png,j,j,7000.0,16.0,4.0,3.0,1.0,16.0,0.0,0.0,16.0,60.0,,,,,,65bfb41fd7a1911a6a7db2c3,09:07:23,27/02/2024
html-keyboard-response,87,192474,0.0-38.0-1.0,,"<div style=""display: flex; flex-direction: column; align-items: center; margin-top: -40px;""><img src=""images/pattern_4.png"" style=""width: 234px; height: 230px; margin-top: -50px;""><div style=""display: flex; justify-content: space-between; margin-top: 33px;""><img src=""images/choice_trial_16.png"" style=""width: 408px; height: 417px; margin-right: 608px;""></div></div>",,delaylearn,learning,display_response,pIIB6MwlhTghXp7F27OxRhHbSGY2,pIIB6MwlhTghXp7F27OxRhHbSGY2,,,,,,,,,,,,,,,,,chosen stimuli: images/choice_trial_16.png,,,,,65bfb41fd7a1911a6a7db2c3,09:07:23,27/02/2024
html-keyboard-response,88,199487,0.0-38.0-2.0,,,,delaylearn,learning,feedback_duration_window,pIIB6MwlhTghXp7F27OxRhHbSGY2,pIIB6MwlhTghXp7F27OxRhHbSGY2,,,,,,,,,,,,,,,,,,7000.0,,,,65bfb41fd7a1911a6a7db2c3,09:07:23,27/02/2024
html-keyboard-response,89,201001,0.0-38.0-3.0,,<div style='margin:auto;width: auto; font-size: 150%'><span style='font-weight: bold; font-size: 100px; color: red;'>0 points!</span><br><br></div>,,delaylearn,learning,feedback_image_window,pIIB6MwlhTghXp7F27OxRhHbSGY2,pIIB6MwlhTghXp7F27OxRhHbSGY2,,,,,,,,,,,,,,,,,,,,,,65bfb41fd7a1911a6a7db2c3,09:07:23,27/02/2024
html-keyboard-response,90,202915,0.0-39.0,,"<div style=""font-size:100px;"">+</div>",,delaylearn,learning,ITI,pIIB6MwlhTghXp7F27OxRhHbSGY2,pIIB6MwlhTghXp7F27OxRhHbSGY2,,,,,,,,,,,,,,,,,,,1910.0,,,65bfb41fd7a1911a6a7db2c3,09:07:23,27/02/2024
html-keyboard-response,91,204738,0.0-40.0-0.0,1820.0999999046326,"<div style=""display: flex; flex-direction: column; align-items: center; margin-top: -40px;""><img src=""images/pattern_7.png"" style=""width: 234px; height: 230px; margin-top: -50px;""><div style=""display: flex; justify-content: space-between; margin-top: 33px;""><img src=""images/choice_trial_8.png"" style=""width: 408px; height: 417px; margin-right: 200px;""><img src=""images/choice_trial_15.png"" style=""width: 408px; height: 417px;""></div></div>",f,delaylearn,learning,trial,pIIB6MwlhTghXp7F27OxRhHbSGY2,pIIB6MwlhTghXp7F27OxRhHbSGY2,2.0,images/choice_trial_8.png,images/choice_trial_15.png,images/pattern_7.png,j,f,750.0,8.0,15.0,6.0,0.0,17.0,1.0,0.0,8.0,60.0,,,,,,65bfb41fd7a1911a6a7db2c3,09:07:23,27/02/2024
html-keyboard-response,92,205747,0.0-40.0-1.0,,"<div style=""display: flex; flex-direction: column; align-items: center; margin-top: -40px;""><img src=""images/pattern_7.png"" style=""width: 234px; height: 230px; margin-top: -50px;""><div style=""display: flex; justify-content: space-between; margin-top: 33px;""><img src=""images/choice_trial_8.png"" style=""width: 408px; height: 417px; margin-right: 608px;""></div></div>",,delaylearn,learning,display_response,pIIB6MwlhTghXp7F27OxRhHbSGY2,pIIB6MwlhTghXp7F27OxRhHbSGY2,,,,,,,,,,,,,,,,,chosen stimuli: images/choice_trial_8.png,,,,,65bfb41fd7a1911a6a7db2c3,09:07:23,27/02/2024
html-keyboard-response,93,206506,0.0-40.0-2.0,,,,delaylearn,learning,feedback_duration_window,pIIB6MwlhTghXp7F27OxRhHbSGY2,pIIB6MwlhTghXp7F27OxRhHbSGY2,,,,,,,,,,,,,,,,,,750.0,,,,65bfb41fd7a1911a6a7db2c3,09:07:23,27/02/2024
html-keyboard-response,94,208018,0.0-40.0-3.0,,<div style='margin:auto;width: auto; font-size: 150%'><span style='font-weight: bold; font-size: 100px; color: red;'>0 points!</span><br><br></div>,,delaylearn,learning,feedback_image_window,pIIB6MwlhTghXp7F27OxRhHbSGY2,pIIB6MwlhTghXp7F27OxRhHbSGY2,,,,,,,,,,,,,,,,,,,,,,65bfb41fd7a1911a6a7db2c3,09:07:23,27/02/2024
html-keyboard-response,95,209760,0.0-41.0,,"<div style=""font-size:100px;"">+</div>",,delaylearn,learning,ITI,pIIB6MwlhTghXp7F27OxRhHbSGY2,pIIB6MwlhTghXp7F27OxRhHbSGY2,,,,,,,,,,,,,,,,,,,1738.0,,,65bfb41fd7a1911a6a7db2c3,09:07:23,27/02/2024
html-keyboard-response,96,212208,0.0-42.0-0.0,2444.899999856949,"<div style=""display: flex; flex-direction: column; align-items: center; margin-top: -40px;""><img src=""images/pattern_1.png"" style=""width: 234px; height: 230px; margin-top: -50px;""><div style=""display: flex; justify-content: space-between; margin-top: 33px;""><img src=""images/choice_trial_3.png"" style=""width: 408px; height: 417px; margin-right: 200px;""><img src=""images/choice_trial_10.png"" style=""width: 408px; height: 417px;""></div></div>",j,delaylearn,learning,trial,pIIB6MwlhTghXp7F27OxRhHbSGY2,pIIB6MwlhTghXp7F27OxRhHbSGY2,2.0,images/choice_trial_3.png,images/choice_trial_10.png,images/pattern_1.png,f,f,7000.0,3.0,10.0,1.0,0.0,18.0,0.0,0.0,10.0,60.0,,,,,,65bfb41fd7a1911a6a7db2c3,09:07:23,27/02/2024
html-keyboard-response,97,213214,0.0-42.0-1.0,,"<div style=""display: flex; flex-direction: column; align-items: center; margin-top: -40px;""><img src=""images/pattern_1.png"" style=""width: 234px; height: 230px; margin-top: -50px;""><div style=""display: flex; justify-content: space-between; margin-top: 33px;""><img src=""images/choice_trial_10.png"" style=""width: 408px; height: 417px; margin-left:608px;""></div></div>",,delaylearn,learning,display_response,pIIB6MwlhTghXp7F27OxRhHbSGY2,pIIB6MwlhTghXp7F27OxRhHbSGY2,,,,,,,,,,,,,,,,,chosen stimuli: images/choice_trial_10.png,,,,,65bfb41fd7a1911a6a7db2c3,09:07:23,27/02/2024
html-keyboard-response,98,220226,0.0-42.0-2.0,,,,delaylearn,learning,feedback_duration_window,pIIB6MwlhTghXp7F27OxRhHbSGY2,pIIB6MwlhTghXp7F27OxRhHbSGY2,,,,,,,,,,,,,,,,,,7000.0,,,,65bfb41fd7a1911a6a7db2c3,09:07:23,27/02/2024
html-keyboard-response,99,221732,0.0-42.0-3.0,,<div style='margin:auto;width: auto; font-size: 150%'><span style='font-weight: bold; font-size: 100px; color: red;'>0 points!</span><br><br></div>,,delaylearn,learning,feedback_image_window,pIIB6MwlhTghXp7F27OxRhHbSGY2,pIIB6MwlhTghXp7F27OxRhHbSGY2,,,,,,,,,,,,,,,,,,,,,,65bfb41fd7a1911a6a7db2c3,09:07:23,27/02/2024
html-keyboard-response,100,223805,0.0-43.0,,"<div style=""font-size:100px;"">+</div>",,delaylearn,learning,ITI,pIIB6MwlhTghXp7F27OxRhHbSGY2,pIIB6MwlhTghXp7F27OxRhHbSGY2,,,,,,,,,,,,,,,,,,,2071.0,,,65bfb41fd7a1911a6a7db2c3,09:07:23,27/02/2024
html-keyboard-response,101,225638,0.0-44.0-0.0,1830.5,"<div style=""display: flex; flex-direction: column; align-items: center; margin-top: -40px;""><img src=""images/pattern_6.png"" style=""width: 234px; height: 230px; margin-top: -50px;""><div style=""display: flex; justify-content: space-between; margin-top: 33px;""><img src=""images/choice_trial_5.png"" style=""width: 408px; height: 417px; margin-right: 200px;""><img src=""images/choice_trial_11.png"" style=""width: 408px; height: 417px;""></div></div>",j,delaylearn,learning,trial,pIIB6MwlhTghXp7F27OxRhHbSGY2,pIIB6MwlhTghXp7F27OxRhHbSGY2,2.0,images/choice_trial_5.png,images/choice_trial_11.png,images/pattern_6.png,j,j,750.0,5.0,11.0,5.0,1.0,19.0,1.0,1.0,11.0,70.0,,,,,,65bfb41fd7a1911a6a7db2c3,09:07:23,27/02/2024
html-keyboard-response,102,226656,0.0-44.0-1.0,,"<div style=""display: flex; flex-direction: column; align-items: center; margin-top: -40px;""><img src=""images/pattern_6.png"" style=""width: 234px; height: 230px; margin-top: -50px;""><div style=""display: flex; justify-content: space-between; margin-top: 33px;""><img src=""images/choice_trial_11.png"" style=""width: 408px; height: 417px; margin-left:608px;""></div></div>",,delaylearn,learning,display_response,pIIB6MwlhTghXp7F27OxRhHbSGY2,pIIB6MwlhTghXp7F27OxRhHbSGY2,,,,,,,,,,,,,,,,,chosen stimuli: images/choice_trial_11.png,,,,,65bfb41fd7a1911a6a7db2c3,09:07:23,27/02/2024
html-keyboard-response,103,227421,0.0-44.0-2.0,,,,delaylearn,learning,feedback_duration_window,pIIB6MwlhTghXp7F27OxRhHbSGY2,pIIB6MwlhTghXp7F27OxRhHbSGY2,,,,,,,,,,,,,,,,,,750.0,,,,65bfb41fd7a1911a6a7db2c3,09:07:23,27/02/2024
html-keyboard-response,104,228931,0.0-44.0-3.0,,<div style='margin:auto;width: auto; font-size: 150%'><span style='font-weight: bold; font-size: 100px; color: green;'>+10 points!</span><br><br></div>,,delaylearn,learning,feedback_image_window,pIIB6MwlhTghXp7F27OxRhHbSGY2,pIIB6MwlhTghXp7F27OxRhHbSGY2,,,,,,,,,,,,,,,,,,,,,,65bfb41fd7a1911a6a7db2c3,09:07:23,27/02/2024
html-keyboard-response,105,231260,0.0-45.0,,"<div style=""font-size:100px;"">+</div>",,delaylearn,learning,ITI,pIIB6MwlhTghXp7F27OxRhHbSGY2,pIIB6MwlhTghXp7F27OxRhHbSGY2,,,,,,,,,,,,,,,,,,,2314.0,,,65bfb41fd7a1911a6a7db2c3,09:07:23,27/02/2024
html-keyboard-response,106,233438,0.0-46.0-0.0,2174.0,"<div style=""display: flex; flex-direction: column; align-items: center; margin-top: -40px;""><img src=""images/pattern_4.png"" style=""width: 234px; height: 230px; margin-top: -50px;""><div style=""display: flex; justify-content: space-between; margin-top: 33px;""><img src=""images/choice_trial_4.png"" style=""width: 408px; height: 417px; margin-right: 200px;""><img src=""images/choice_trial_16.png"" style=""width: 408px; height: 417px;""></div></div>",f,delaylearn,learning,trial,pIIB6MwlhTghXp7F27OxRhHbSGY2,pIIB6MwlhTghXp7F27OxRhHbSGY2,2.0,images/choice_trial_4.png,images/choice_trial_16.png,images/pattern_4.png,f,f,7000.0,4.0,16.0,3.0,0.0,20.0,1.0,1.0,4.0,80.0,,,,,,65bfb41fd7a1911a6a7db2c3,09:07:23,27/02/2024
html-keyboard-response,107,234443,0.0-46.0-1.0,,"<div style=""display: flex; flex-direction: column; align-items: center; margin-top: -40px;""><img src=""images/pattern_4.png"" style=""width: 234px; height: 230px; margin-top: -50px;""><div style=""display: flex; justify-content: space-between; margin-top: 33px;""><img src=""images/choice_trial_4.png"" style=""width: 408px; height: 417px; margin-right: 608px;""></div></div>",,delaylearn,learning,display_response,pIIB6MwlhTghXp7F27OxRhHbSGY2,pIIB6MwlhTghXp7F27OxRhHbSGY2,,,,,,,,,,,,,,,,,chosen stimuli: images/choice_trial_4.png,,,,,65bfb41fd7a1911a6a7db2c3,09:07:23,27/02/2024
html-keyboard-response,108,241450,0.0-46.0-2.0,,,,delaylearn,learning,feedback_duration_window,pIIB6MwlhTghXp7F27OxRhHbSGY2,pIIB6MwlhTghXp7F27OxRhHbSGY2,,,,,,,,,,,,,,,,,,7000.0,,,,65bfb41fd7a1911a6a7db2c3,09:07:23,27/02/2024
html-keyboard-response,109,242962,0.0-46.0-3.0,,<div style='margin:auto;width: auto; font-size: 150%'><span style='font-weight: bold; font-size: 100px; color: green;'>+10 points!</span><br><br></div>,,delaylearn,learning,feedback_image_window,pIIB6MwlhTghXp7F27OxRhHbSGY2,pIIB6MwlhTghXp7F27OxRhHbSGY2,,,,,,,,,,,,,,,,,,,,,,65bfb41fd7a1911a6a7db2c3,09:07:23,27/02/2024
html-keyboard-response,110,243479,0.0-47.0-0.0,,,,,,mood_trial_fixation,pIIB6MwlhTghXp7F27OxRhHbSGY2,,,,,,,,,,,,,,,,,,,,,,,65bfb41fd7a1911a6a7db2c3,09:07:23,27/02/2024
lmdlab-html-vas-response,111,246766,0.0-47.0-1.0,2275.0,How happy are you right now?,0.7704772918719036,delaylearn,learning,mood_trial,pIIB6MwlhTghXp7F27OxRhHbSGY2,pIIB6MwlhTghXp7F27OxRhHbSGY2,,,,,,,,,,,,,,,,,,,,"['Very unhappy', 'Very happy']",,65bfb41fd7a1911a6a7db2c3,09:07:23,27/02/2024
html-keyboard-response,112,248854,0.0-48.0,,"<div style=""font-size:100px;"">+</div>",,delaylearn,learning,ITI,pIIB6MwlhTghXp7F27OxRhHbSGY2,pIIB6MwlhTghXp7F27OxRhHbSGY2,,,,,,,,,,,,,,,,,,,2070.0,,,65bfb41fd7a1911a6a7db2c3,09:07:23,27/02/2024
html-keyboard-response,113,251077,0.0-49.0-0.0,2220.399999856949,"<div style=""display: flex; flex-direction: column; align-items: center; margin-top: -40px;""><img src=""images/pattern_7.png"" style=""width: 234px; height: 230px; margin-top: -50px;""><div style=""display: flex; justify-content: space-between; margin-top: 33px;""><img src=""images/choice_trial_15.png"" style=""width: 408px; height: 417px; margin-right: 200px;""><img src=""images/choice_trial_8.png"" style=""width: 408px; height: 417px;""></div></div>",j,delaylearn,learning,trial,pIIB6MwlhTghXp7F27OxRhHbSGY2,pIIB6MwlhTghXp7F27OxRhHbSGY2,2.0,images/choice_trial_15.png,images/choice_trial_8.png,images/pattern_7.png,j,j,750.0,15.0,8.0,6.0,1.0,21.0,1.0,1.0,8.0,90.0,,,,,,65bfb41fd7a1911a6a7db2c3,09:07:23,27/02/2024
html-keyboard-response,114,252092,0.0-49.0-1.0,,"<div style=""display: flex; flex-direction: column; align-items: center; margin-top: -40px;""><img src=""images/pattern_7.png"" style=""width: 234px; height: 230px; margin-top: -50px;""><div style=""display: flex; justify-content: space-between; margin-top: 33px;""><img src=""images/choice_trial_8.png"" style=""width: 408px; height: 417px; margin-left:608px;""></div></div>",,delaylearn,learning,display_response,pIIB6MwlhTghXp7F27OxRhHbSGY2,pIIB6MwlhTghXp7F27OxRhHbSGY2,,,,,,,,,,,,,,,,,chosen stimuli: images/choice_trial_8.png,,,,,65bfb41fd7a1911a6a7db2c3,09:07:23,27/02/2024
html-keyboard-response,115,252848,0.0-49.0-2.0,,,,delaylearn,learning,feedback_duration_window,pIIB6MwlhTghXp7F27OxRhHbSGY2,pIIB6MwlhTghXp7F27OxRhHbSGY2,,,,,,,,,,,,,,,,,,750.0,,,,65bfb41fd7a1911a6a7db2c3,09:07:23,27/02/2024
html-keyboard-response,116,254359,0.0-49.0-3.0,,<div style='margin:auto;width: auto; font-size: 150%'><span style='font-weight: bold; font-size: 100px; color: green;'>+10 points!</span><br><br></div>,,delaylearn,learning,feedback_image_window,pIIB6MwlhTghXp7F27OxRhHbSGY2,pIIB6MwlhTghXp7F27OxRhHbSGY2,,,,,,,,,,,,,,,,,,,,,,65bfb41fd7a1911a6a7db2c3,09:07:23,27/02/2024
html-keyboard-response,117,256205,0.0-50.0,,"<div style=""font-size:100px;"">+</div>",,delaylearn,learning,ITI,pIIB6MwlhTghXp7F27OxRhHbSGY2,pIIB6MwlhTghXp7F27OxRhHbSGY2,,,,,,,,,,,,,,,,,,,1836.0,,,65bfb41fd7a1911a6a7db2c3,09:07:23,27/02/2024
html-keyboard-response,118,257927,0.0-51.0-0.0,1717.0999999046326,"<div style=""display: flex; flex-direction: column; align-items: center; margin-top: -40px;""><img src=""images/pattern_1.png"" style=""width: 234px; height: 230px; margin-top: -50px;""><div style=""display: flex; justify-content: space-between; margin-top: 33px;""><img src=""images/choice_trial_10.png"" style=""width: 408px; height: 417px; margin-right: 200px;""><img src=""images/choice_trial_3.png"" style=""width: 408px; height: 417px;""></div></div>",j,delaylearn,learning,trial,pIIB6MwlhTghXp7F27OxRhHbSGY2,pIIB6MwlhTghXp7F27OxRhHbSGY2,2.0,images/choice_trial_10.png,images/choice_trial_3.png,images/pattern_1.png,f,j,7000.0,10.0,3.0,1.0,1.0,22.0,1.0,0.0,3.0,90.0,,,,,,65bfb41fd7a1911a6a7db2c3,09:07:23,27/02/2024
html-keyboard-response,119,258938,0.0-51.0-1.0,,"<div style=""display: flex; flex-direction: column; align-items: center; margin-top: -40px;""><img src=""images/pattern_1.png"" style=""width: 234px; height: 230px; margin-top: -50px;""><div style=""display: flex; justify-content: space-between; margin-top: 33px;""><img src=""images/choice_trial_3.png"" style=""width: 408px; height: 417px; margin-left:608px;""></div></div>",,delaylearn,learning,display_response,pIIB6MwlhTghXp7F27OxRhHbSGY2,pIIB6MwlhTghXp7F27OxRhHbSGY2,,,,,,,,,,,,,,,,,chosen stimuli: images/choice_trial_3.png,,,,,65bfb41fd7a1911a6a7db2c3,09:07:23,27/02/2024
html-keyboard-response,120,265950,0.0-51.0-2.0,,,,delaylearn,learning,feedback_duration_window,pIIB6MwlhTghXp7F27OxRhHbSGY2,pIIB6MwlhTghXp7F27OxRhHbSGY2,,,,,,,,,,,,,,,,,,7000.0,,,,65bfb41fd7a1911a6a7db2c3,09:07:23,27/02/2024
html-keyboard-response,121,267466,0.0-51.0-3.0,,<div style='margin:auto;width: auto; font-size: 150%'><span style='font-weight: bold; font-size: 100px; color: red;'>0 points!</span><br><br></div>,,delaylearn,learning,feedback_image_window,pIIB6MwlhTghXp7F27OxRhHbSGY2,pIIB6MwlhTghXp7F27OxRhHbSGY2,,,,,,,,,,,,,,,,,,,,,,65bfb41fd7a1911a6a7db2c3,09:07:23,27/02/2024
html-keyboard-response,122,269255,0.0-52.0,,"<div style=""font-size:100px;"">+</div>",,delaylearn,learning,ITI,pIIB6MwlhTghXp7F27OxRhHbSGY2,pIIB6MwlhTghXp7F27OxRhHbSGY2,,,,,,,,,,,,,,,,,,,1784.0,,,65bfb41fd7a1911a6a7db2c3,09:07:23,27/02/2024
html-keyboard-response,123,271758,0.0-53.0-0.0,2498.600000143051,"<div style=""display: flex; flex-direction: column; align-items: center; margin-top: -40px;""><img src=""images/pattern_5.png"" style=""width: 234px; height: 230px; margin-top: -50px;""><div style=""display: flex; justify-content: space-between; margin-top: 33px;""><img src=""images/choice_trial_9.png"" style=""width: 408px; height: 417px; margin-right: 200px;""><img src=""images/choice_trial_2.png"" style=""width: 408px; height: 417px;""></div></div>",f,delaylearn,learning,trial,pIIB6MwlhTghXp7F27OxRhHbSGY2,pIIB6MwlhTghXp7F27OxRhHbSGY2,2.0,images/choice_trial_9.png,images/choice_trial_2.png,images/pattern_5.png,j,j,750.0,9.0,2.0,4.0,1.0,23.0,0.0,0.0,9.0,90.0,,,,,,65bfb41fd7a1911a6a7db2c3,09:07:23,27/02/2024
html-keyboard-response,124,272770,0.0-53.0-1.0,,"<div style=""display: flex; flex-direction: column; align-items: center; margin-top: -40px;""><img src=""images/pattern_5.png"" style=""width: 234px; height: 230px; margin-top: -50px;""><div style=""display: flex; justify-content: space-between; margin-top: 33px;""><img src=""images/choice_trial_9.png"" style=""width: 408px; height: 417px; margin-right: 608px;""></div></div>",,delaylearn,learning,display_response,pIIB6MwlhTghXp7F27OxRhHbSGY2,pIIB6MwlhTghXp7F27OxRhHbSGY2,,,,,,,,,,,,,,,,,chosen stimuli: images/choice_trial_9.png,,,,,65bfb41fd7a1911a6a7db2c3,09:07:23,27/02/2024
html-keyboard-response,125,273526,0.0-53.0-2.0,,,,delaylearn,learning,feedback_duration_window,pIIB6MwlhTghXp7F27OxRhHbSGY2,pIIB6MwlhTghXp7F27OxRhHbSGY2,,,,,,,,,,,,,,,,,,750.0,,,,65bfb41fd7a1911a6a7db2c3,09:07:23,27/02/2024
html-keyboard-response,126,275036,0.0-53.0-3.0,,<div style='margin:auto;width: auto; font-size: 150%'><span style='font-weight: bold; font-size: 100px; color: red;'>0 points!</span><br><br></div>,,delaylearn,learning,feedback_image_window,pIIB6MwlhTghXp7F27OxRhHbSGY2,pIIB6MwlhTghXp7F27OxRhHbSGY2,,,,,,,,,,,,,,,,,,,,,,65bfb41fd7a1911a6a7db2c3,09:07:23,27/02/2024
html-keyboard-response,127,276833,0.0-54.0,,"<div style=""font-size:100px;"">+</div>",,delaylearn,learning,ITI,pIIB6MwlhTghXp7F27OxRhHbSGY2,pIIB6MwlhTghXp7F27OxRhHbSGY2,,,,,,,,,,,,,,,,,,,1782.0,,,65bfb41fd7a1911a6a7db2c3,09:07:23,27/02/2024
html-keyboard-response,128,278547,0.0-55.0-0.0,1711.0,"<div style=""display: flex; flex-direction: column; align-items: center; margin-top: -40px;""><img src=""images/pattern_3.png"" style=""width: 234px; height: 230px; margin-top: -50px;""><div style=""display: flex; justify-content: space-between; margin-top: 33px;""><img src=""images/choice_trial_14.png"" style=""width: 408px; height: 417px; margin-right: 200px;""><img src=""images/choice_trial_12.png"" style=""width: 408px; height: 417px;""></div></div>",f,delaylearn,learning,trial,pIIB6MwlhTghXp7F27OxRhHbSGY2,pIIB6MwlhTghXp7F27OxRhHbSGY2,2.0,images/choice_trial_14.png,images/choice_trial_12.png,images/pattern_3.png,j,j,7000.0,14.0,12.0,2.0,1.0,24.0,0.0,0.0,14.0,90.0,,,,,,65bfb41fd7a1911a6a7db2c3,09:07:23,27/02/2024
html-keyboard-response,129,279557,0.0-55.0-1.0,,"<div style=""display: flex; flex-direction: column; align-items: center; margin-top: -40px;""><img src=""images/pattern_3.png"" style=""width: 234px; height: 230px; margin-top: -50px;""><div style=""display: flex; justify-content: space-between; margin-top: 33px;""><img src=""images/choice_trial_14.png"" style=""width: 408px; height: 417px; margin-right: 608px;""></div></div>",,delaylearn,learning,display_response,pIIB6MwlhTghXp7F27OxRhHbSGY2,pIIB6MwlhTghXp7F27OxRhHbSGY2,,,,,,,,,,,,,,,,,chosen stimuli: images/choice_trial_14.png,,,,,65bfb41fd7a1911a6a7db2c3,09:07:23,27/02/2024
html-keyboard-response,130,286571,0.0-55.0-2.0,,,,delaylearn,learning,feedback_duration_window,pIIB6MwlhTghXp7F27OxRhHbSGY2,pIIB6MwlhTghXp7F27OxRhHbSGY2,,,,,,,,,,,,,,,,,,7000.0,,,,65bfb41fd7a1911a6a7db2c3,09:07:23,27/02/2024
html-keyboard-response,131,288080,0.0-55.0-3.0,,<div style='margin:auto;width: auto; font-size: 150%'><span style='font-weight: bold; font-size: 100px; color: red;'>0 points!</span><br><br></div>,,delaylearn,learning,feedback_image_window,pIIB6MwlhTghXp7F27OxRhHbSGY2,pIIB6MwlhTghXp7F27OxRhHbSGY2,,,,,,,,,,,,,,,,,,,,,,65bfb41fd7a1911a6a7db2c3,09:07:23,27/02/2024
lmdlab-html-vas-response,132,297035,0.0-56.0-0.0,7414.0,*How <b><u>confident</u></b> are you feeling about your answers at this moment?*,0.404977084850302,rewlearn,rate_confidence,,pIIB6MwlhTghXp7F27OxRhHbSGY2,pIIB6MwlhTghXp7F27OxRhHbSGY2,,,,,,,,,,,,,,,,,,,,"['No confidence', 'Complete confidence']",,65bfb41fd7a1911a6a7db2c3,09:07:23,27/02/2024
lmdlab-rest-trial-limit,133,307619,0.0-56.0-1.0,9076.5,"<div style=""font-size:40px;""><b>Please take a break!</b><br><br><br><br><p>Great work: you earned undefined points.<br><br><br><p>You have completed part(s) 1 of 6.<br><br><br><br>When you are ready to continue<br><br><br>please click the button.</p><br><br>",0,delaylearn,learning,break,pIIB6MwlhTghXp7F27OxRhHbSGY2,pIIB6MwlhTghXp7F27OxRhHbSGY2,,,,,,,,,,,,,,,,,,,,,0.0,65bfb41fd7a1911a6a7db2c3,09:07:23,27/02/2024
html-keyboard-response,134,310628,0.0-56.0-2.0,,"<div style=""font-size:100px;"">+</div>",,delaylearn,learning,pre_fixation,pIIB6MwlhTghXp7F27OxRhHbSGY2,,,,,,,,,,,,,,,,,,,,,,,65bfb41fd7a1911a6a7db2c3,09:07:23,27/02/2024
lmdlab-html-vas-response,135,317154,0.0-56.0-3.0-0.0,5519.0,How happy are you right now?,0.6736197370111792,delaylearn,learning,mood_baseline,pIIB6MwlhTghXp7F27OxRhHbSGY2,pIIB6MwlhTghXp7F27OxRhHbSGY2,,,,,,,,,,,,,,,,,,,,"['Very unhappy', 'Very happy']",,65bfb41fd7a1911a6a7db2c3,09:07:23,27/02/2024
html-keyboard-response,136,318666,0.0-56.0-3.0-1.0,,,,,,mood_baseline_fixation,pIIB6MwlhTghXp7F27OxRhHbSGY2,,,,,,,,,,,,,,,,,,,,,,,65bfb41fd7a1911a6a7db2c3,09:07:23,27/02/2024
html-keyboard-response,137,320914,0.0-57.0,,"<div style=""font-size:100px;"">+</div>",,delaylearn,learning,ITI,pIIB6MwlhTghXp7F27OxRhHbSGY2,pIIB6MwlhTghXp7F27OxRhHbSGY2,,,,,,,,,,,,,,,,,,,2243.0,,,65bfb41fd7a1911a6a7db2c3,09:07:23,27/02/2024
html-keyboard-response,138,323590,0.0-58.0-0.0,2673.0,"<div style=""display: flex; flex-direction: column; align-items: center; margin-top: -40px;""><img src=""images/pattern_7.png"" style=""width: 234px; height: 230px; margin-top: -50px;""><div style=""display: flex; justify-content: space-between; margin-top: 33px;""><img src=""images/choice_trial_15.png"" style=""width: 408px; height: 417px; margin-right: 200px;""><img src=""images/choice_trial_8.png"" style=""width: 408px; height: 417px;""></div></div>",j,delaylearn,learning,trial,pIIB6MwlhTghXp7F27OxRhHbSGY2,pIIB6MwlhTghXp7F27OxRhHbSGY2,2.0,images/choice_trial_15.png,images/choice_trial_8.png,images/pattern_7.png,j,j,750.0,15.0,8.0,6.0,1.0,25.0,1.0,1.0,8.0,100.0,,,,,,65bfb41fd7a1911a6a7db2c3,09:07:23,27/02/2024
html-keyboard-response,139,324596,0.0-58.0-1.0,,"<div style=""display: flex; flex-direction: column; align-items: center; margin-top: -40px;""><img src=""images/pattern_7.png"" style=""width: 234px; height: 230px; margin-top: -50px;""><div style=""display: flex; justify-content: space-between; margin-top: 33px;""><img src=""images/choice_trial_8.png"" style=""width: 408px; height: 417px; margin-left:608px;""></div></div>",,delaylearn,learning,display_response,pIIB6MwlhTghXp7F27OxRhHbSGY2,pIIB6MwlhTghXp7F27OxRhHbSGY2,,,,,,,,,,,,,,,,,chosen stimuli: images/choice_trial_8.png,,,,,65bfb41fd7a1911a6a7db2c3,09:07:23,27/02/2024
html-keyboard-response,140,325361,0.0-58.0-2.0,,,,delaylearn,learning,feedback_duration_window,pIIB6MwlhTghXp7F27OxRhHbSGY2,pIIB6MwlhTghXp7F27OxRhHbSGY2,,,,,,,,,,,,,,,,,,750.0,,,,65bfb41fd7a1911a6a7db2c3,09:07:23,27/02/2024
html-keyboard-response,141,326865,0.0-58.0-3.0,,<div style='margin:auto;width: auto; font-size: 150%'><span style='font-weight: bold; font-size: 100px; color: green;'>+10 points!</span><br><br></div>,,delaylearn,learning,feedback_image_window,pIIB6MwlhTghXp7F27OxRhHbSGY2,pIIB6MwlhTghXp7F27OxRhHbSGY2,,,,,,,,,,,,,,,,,,,,,,65bfb41fd7a1911a6a7db2c3,09:07:23,27/02/2024
html-keyboard-response,142,327374,0.0-59.0-0.0,,,,,,mood_trial_fixation,pIIB6MwlhTghXp7F27OxRhHbSGY2,,,,,,,,,,,,,,,,,,,,,,,65bfb41fd7a1911a6a7db2c3,09:07:23,27/02/2024
lmdlab-html-vas-response,143,333780,0.0-59.0-1.0,5394.0,How happy are you right now?,0.6114847018175069,delaylearn,learning,mood_trial,pIIB6MwlhTghXp7F27OxRhHbSGY2,pIIB6MwlhTghXp7F27OxRhHbSGY2,,,,,,,,,,,,,,,,,,,,"['Very unhappy', 'Very happy']",,65bfb41fd7a1911a6a7db2c3,09:07:23,27/02/2024
html-keyboard-response,144,335868,0.0-60.0,,"<div style=""font-size:100px;"">+</div>",,delaylearn,learning,ITI,pIIB6MwlhTghXp7F27OxRhHbSGY2,pIIB6MwlhTghXp7F27OxRhHbSGY2,,,,,,,,,,,,,,,,,,,2071.0,,,65bfb41fd7a1911a6a7db2c3,09:07:23,27/02/2024
html-keyboard-response,145,338047,0.0-61.0-0.0,2174.0999999046326,"<div style=""display: flex; flex-direction: column; align-items: center; margin-top: -40px;""><img src=""images/pattern_1.png"" style=""width: 234px; height: 230px; margin-top: -50px;""><div style=""display: flex; justify-content: space-between; margin-top: 33px;""><img src=""images/choice_trial_3.png"" style=""width: 408px; height: 417px; margin-right: 200px;""><img src=""images/choice_trial_10.png"" style=""width: 408px; height: 417px;""></div></div>",j,delaylearn,learning,trial,pIIB6MwlhTghXp7F27OxRhHbSGY2,pIIB6MwlhTghXp7F27OxRhHbSGY2,2.0,images/choice_trial_3.png,images/choice_trial_10.png,images/pattern_1.png,f,f,7000.0,3.0,10.0,1.0,0.0,26.0,0.0,0.0,10.0,100.0,,,,,,65bfb41fd7a1911a6a7db2c3,09:07:23,27/02/2024
html-keyboard-response,146,339063,0.0-61.0-1.0,,"<div style=""display: flex; flex-direction: column; align-items: center; margin-top: -40px;""><img src=""images/pattern_1.png"" style=""width: 234px; height: 230px; margin-top: -50px;""><div style=""display: flex; justify-content: space-between; margin-top: 33px;""><img src=""images/choice_trial_10.png"" style=""width: 408px; height: 417px; margin-left:608px;""></div></div>",,delaylearn,learning,display_response,pIIB6MwlhTghXp7F27OxRhHbSGY2,pIIB6MwlhTghXp7F27OxRhHbSGY2,,,,,,,,,,,,,,,,,chosen stimuli: images/choice_trial_10.png,,,,,65bfb41fd7a1911a6a7db2c3,09:07:23,27/02/2024
html-keyboard-response,147,346077,0.0-61.0-2.0,,,,delaylearn,learning,feedback_duration_window,pIIB6MwlhTghXp7F27OxRhHbSGY2,pIIB6MwlhTghXp7F27OxRhHbSGY2,,,,,,,,,,,,,,,,,,7000.0,,,,65bfb41fd7a1911a6a7db2c3,09:07:23,27/02/2024
html-keyboard-response,148,347583,0.0-61.0-3.0,,<div style='margin:auto;width: auto; font-size: 150%'><span style='font-weight: bold; font-size: 100px; color: red;'>0 points!</span><br><br></div>,,delaylearn,learning,feedback_image_window,pIIB6MwlhTghXp7F27OxRhHbSGY2,pIIB6MwlhTghXp7F27OxRhHbSGY2,,,,,,,,,,,,,,,,,,,,,,65bfb41fd7a1911a6a7db2c3,09:07:23,27/02/2024
html-keyboard-response,149,349155,0.0-62.0,,"<div style=""font-size:100px;"">+</div>",,delaylearn,learning,ITI,pIIB6MwlhTghXp7F27OxRhHbSGY2,pIIB6MwlhTghXp7F27OxRhHbSGY2,,,,,,,,,,,,,,,,,,,1554.0,,,65bfb41fd7a1911a6a7db2c3,09:07:23,27/02/2024
html-keyboard-response,150,350547,0.0-63.0-0.0,1389.0,"<div style=""display: flex; flex-direction: column; align-items: center; margin-top: -40px;""><img src=""images/pattern_5.png"" style=""width: 234px; height: 230px; margin-top: -50px;""><div style=""display: flex; justify-content: space-between; margin-top: 33px;""><img src=""images/choice_trial_2.png"" style=""width: 408px; height: 417px; margin-right: 200px;""><img src=""images/choice_trial_9.png"" style=""width: 408px; height: 417px;""></div></div>",j,delaylearn,learning,trial,pIIB6MwlhTghXp7F27OxRhHbSGY2,pIIB6MwlhTghXp7F27OxRhHbSGY2,2.0,images/choice_trial_2.png,images/choice_trial_9.png,images/pattern_5.png,f,f,750.0,2.0,9.0,4.0,0.0,27.0,0.0,0.0,9.0,100.0,,,,,,65bfb41fd7a1911a6a7db2c3,09:07:23,27/02/2024
html-keyboard-response,151,351555,0.0-63.0-1.0,,"<div style=""display: flex; flex-direction: column; align-items: center; margin-top: -40px;""><img src=""images/pattern_5.png"" style=""width: 234px; height: 230px; margin-top: -50px;""><div style=""display: flex; justify-content: space-between; margin-top: 33px;""><img src=""images/choice_trial_9.png"" style=""width: 408px; height: 417px; margin-left:608px;""></div></div>",,delaylearn,learning,display_response,pIIB6MwlhTghXp7F27OxRhHbSGY2,pIIB6MwlhTghXp7F27OxRhHbSGY2,,,,,,,,,,,,,,,,,chosen stimuli: images/choice_trial_9.png,,,,,65bfb41fd7a1911a6a7db2c3,09:07:23,27/02/2024
html-keyboard-response,152,352309,0.0-63.0-2.0,,,,delaylearn,learning,feedback_duration_window,pIIB6MwlhTghXp7F27OxRhHbSGY2,pIIB6MwlhTghXp7F27OxRhHbSGY2,,,,,,,,,,,,,,,,,,750.0,,,,65bfb41fd7a1911a6a7db2c3,09:07:23,27/02/2024
html-keyboard-response,153,353826,0.0-63.0-3.0,,<div style='margin:auto;width: auto; font-size: 150%'><span style='font-weight: bold; font-size: 100px; color: red;'>0 points!</span><br><br></div>,,delaylearn,learning,feedback_image_window,pIIB6MwlhTghXp7F27OxRhHbSGY2,pIIB6MwlhTghXp7F27OxRhHbSGY2,,,,,,,,,,,,,,,,,,,,,,65bfb41fd7a1911a6a7db2c3,09:07:23,27/02/2024
html-keyboard-response,154,355826,0.0-64.0,,"<div style=""font-size:100px;"">+</div>",,delaylearn,learning,ITI,pIIB6MwlhTghXp7F27OxRhHbSGY2,pIIB6MwlhTghXp7F27OxRhHbSGY2,,,,,,,,,,,,,,,,,,,1987.0,,,65bfb41fd7a1911a6a7db2c3,09:07:23,27/02/2024
html-keyboard-response,155,357167,0.0-65.0-0.0,1338.0999999046326,"<div style=""display: flex; flex-direction: column; align-items: center; margin-top: -40px;""><img src=""images/pattern_6.png"" style=""width: 234px; height: 230px; margin-top: -50px;""><div style=""display: flex; justify-content: space-between; margin-top: 33px;""><img src=""images/choice_trial_5.png"" style=""width: 408px; height: 417px; margin-right: 200px;""><img src=""images/choice_trial_11.png"" style=""width: 408px; height: 417px;""></div></div>",j,delaylearn,learning,trial,pIIB6MwlhTghXp7F27OxRhHbSGY2,pIIB6MwlhTghXp7F27OxRhHbSGY2,2.0,images/choice_trial_5.png,images/choice_trial_11.png,images/pattern_6.png,j,j,750.0,5.0,11.0,5.0,1.0,28.0,1.0,1.0,11.0,110.0,,,,,,65bfb41fd7a1911a6a7db2c3,09:07:23,27/02/2024
html-keyboard-response,156,358177,0.0-65.0-1.0,,"<div style=""display: flex; flex-direction: column; align-items: center; margin-top: -40px;""><img src=""images/pattern_6.png"" style=""width: 234px; height: 230px; margin-top: -50px;""><div style=""display: flex; justify-content: space-between; margin-top: 33px;""><img src=""images/choice_trial_11.png"" style=""width: 408px; height: 417px; margin-left:608px;""></div></div>",,delaylearn,learning,display_response,pIIB6MwlhTghXp7F27OxRhHbSGY2,pIIB6MwlhTghXp7F27OxRhHbSGY2,,,,,,,,,,,,,,,,,chosen stimuli: images/choice_trial_11.png,,,,,65bfb41fd7a1911a6a7db2c3,09:07:23,27/02/2024
html-keyboard-response,157,358933,0.0-65.0-2.0,,,,delaylearn,learning,feedback_duration_window,pIIB6MwlhTghXp7F27OxRhHbSGY2,pIIB6MwlhTghXp7F27OxRhHbSGY2,,,,,,,,,,,,,,,,,,750.0,,,,65bfb41fd7a1911a6a7db2c3,09:07:23,27/02/2024
html-keyboard-response,158,360445,0.0-65.0-3.0,,<div style='margin:auto;width: auto; font-size: 150%'><span style='font-weight: bold; font-size: 100px; color: green;'>+10 points!</span><br><br></div>,,delaylearn,learning,feedback_image_window,pIIB6MwlhTghXp7F27OxRhHbSGY2,pIIB6MwlhTghXp7F27OxRhHbSGY2,,,,,,,,,,,,,,,,,,,,,,65bfb41fd7a1911a6a7db2c3,09:07:23,27/02/2024
html-keyboard-response,159,360954,0.0-66.0-0.0,,,,,,mood_trial_fixation,pIIB6MwlhTghXp7F27OxRhHbSGY2,,,,,,,,,,,,,,,,,,,,,,,65bfb41fd7a1911a6a7db2c3,09:07:23,27/02/2024
lmdlab-html-vas-response,160,364709,0.0-66.0-1.0,2735.0,How happy are you right now?,0.4963521366057024,delaylearn,learning,mood_trial,pIIB6MwlhTghXp7F27OxRhHbSGY2,pIIB6MwlhTghXp7F27OxRhHbSGY2,,,,,,,,,,,,,,,,,,,,"['Very unhappy', 'Very happy']",,65bfb41fd7a1911a6a7db2c3,09:07:23,27/02/2024
html-keyboard-response,161,366336,0.0-67.0,,"<div style=""font-size:100px;"">+</div>",,delaylearn,learning,ITI,pIIB6MwlhTghXp7F27OxRhHbSGY2,pIIB6MwlhTghXp7F27OxRhHbSGY2,,,,,,,,,,,,,,,,,,,1619.0,,,65bfb41fd7a1911a6a7db2c3,09:07:23,27/02/2024
html-keyboard-response,162,367907,0.0-68.0-0.0,1568.0,"<div style=""display: flex; flex-direction: column; align-items: center; margin-top: -40px;""><img src=""images/pattern_4.png"" style=""width: 234px; height: 230px; margin-top: -50px;""><div style=""display: flex; justify-content: space-between; margin-top: 33px;""><img src=""images/choice_trial_16.png"" style=""width: 408px; height: 417px; margin-right: 200px;""><img src=""images/choice_trial_4.png"" style=""width: 408px; height: 417px;""></div></div>",f,delaylearn,learning,trial,pIIB6MwlhTghXp7F27OxRhHbSGY2,pIIB6MwlhTghXp7F27OxRhHbSGY2,2.0,images/choice_trial_16.png,images/choice_trial_4.png,images/pattern_4.png,j,j,7000.0,16.0,4.0,3.0,1.0,29.0,0.0,0.0,16.0,110.0,,,,,,65bfb41fd7a1911a6a7db2c3,09:07:23,27/02/2024
html-keyboard-response,163,368916,0.0-68.0-1.0,,"<div style=""display: flex; flex-direction: column; align-items: center; margin-top: -40px;""><img src=""images/pattern_4.png"" style=""width: 234px; height: 230px; margin-top: -50px;""><div style=""display: flex; justify-content: space-between; margin-top: 33px;""><img src=""images/choice_trial_16.png"" style=""width: 408px; height: 417px; margin-right: 608px;""></div></div>",,delaylearn,learning,display_response,pIIB6MwlhTghXp7F27OxRhHbSGY2,pIIB6MwlhTghXp7F27OxRhHbSGY2,,,,,,,,,,,,,,,,,chosen stimuli: images/choice_trial_16.png,,,,,65bfb41fd7a1911a6a7db2c3,09:07:23,27/02/2024
html-keyboard-response,164,375925,0.0-68.0-2.0,,,,delaylearn,learning,feedback_duration_window,pIIB6MwlhTghXp7F27OxRhHbSGY2,pIIB6MwlhTghXp7F27OxRhHbSGY2,,,,,,,,,,,,,,,,,,7000.0,,,,65bfb41fd7a1911a6a7db2c3,09:07:23,27/02/2024
html-keyboard-response,165,377441,0.0-68.0-3.0,,<div style='margin:auto;width: auto; font-size: 150%'><span style='font-weight: bold; font-size: 100px; color: red;'>0 points!</span><br><br></div>,,delaylearn,learning,feedback_image_window,pIIB6MwlhTghXp7F27OxRhHbSGY2,pIIB6MwlhTghXp7F27OxRhHbSGY2,,,,,,,,,,,,,,,,,,,,,,65bfb41fd7a1911a6a7db2c3,09:07:23,27/02/2024
html-keyboard-response,166,379902,0.0-69.0,,"<div style=""font-size:100px;"">+</div>",,delaylearn,learning,ITI,pIIB6MwlhTghXp7F27OxRhHbSGY2,pIIB6MwlhTghXp7F27OxRhHbSGY2,,,,,,,,,,,,,,,,,,,2450.0,,,65bfb41fd7a1911a6a7db2c3,09:07:23,27/02/2024
html-keyboard-response,167,381308,0.0-70.0-0.0,1401.6999998092651,"<div style=""display: flex; flex-direction: column; align-items: center; margin-top: -40px;""><img src=""images/pattern_3.png"" style=""width: 234px; height: 230px; margin-top: -50px;""><div style=""display: flex; justify-content: space-between; margin-top: 33px;""><img src=""images/choice_trial_14.png"" style=""width: 408px; height: 417px; margin-right: 200px;""><img src=""images/choice_trial_12.png"" style=""width: 408px; height: 417px;""></div></div>",f,delaylearn,learning,trial,pIIB6MwlhTghXp7F27OxRhHbSGY2,pIIB6MwlhTghXp7F27OxRhHbSGY2,2.0,images/choice_trial_14.png,images/choice_trial_12.png,images/pattern_3.png,j,j,7000.0,14.0,12.0,2.0,1.0,30.0,0.0,0.0,14.0,110.0,,,,,,65bfb41fd7a1911a6a7db2c3,09:07:23,27/02/2024
html-keyboard-response,168,382327,0.0-70.0-1.0,,"<div style=""display: flex; flex-direction: column; align-items: center; margin-top: -40px;""><img src=""images/pattern_3.png"" style=""width: 234px; height: 230px; margin-top: -50px;""><div style=""display: flex; justify-content: space-between; margin-top: 33px;""><img src=""images/choice_trial_14.png"" style=""width: 408px; height: 417px; margin-right: 608px;""></div></div>",,delaylearn,learning,display_response,pIIB6MwlhTghXp7F27OxRhHbSGY2,pIIB6MwlhTghXp7F27OxRhHbSGY2,,,,,,,,,,,,,,,,,chosen stimuli: images/choice_trial_14.png,,,,,65bfb41fd7a1911a6a7db2c3,09:07:23,27/02/2024
html-keyboard-response,169,389342,0.0-70.0-2.0,,,,delaylearn,learning,feedback_duration_window,pIIB6MwlhTghXp7F27OxRhHbSGY2,pIIB6MwlhTghXp7F27OxRhHbSGY2,,,,,,,,,,,,,,,,,,7000.0,,,,65bfb41fd7a1911a6a7db2c3,09:07:23,27/02/2024
html-keyboard-response,170,390859,0.0-70.0-3.0,,<div style='margin:auto;width: auto; font-size: 150%'><span style='font-weight: bold; font-size: 100px; color: red;'>0 points!</span><br><br></div>,,delaylearn,learning,feedback_image_window,pIIB6MwlhTghXp7F27OxRhHbSGY2,pIIB6MwlhTghXp7F27OxRhHbSGY2,,,,,,,,,,,,,,,,,,,,,,65bfb41fd7a1911a6a7db2c3,09:07:23,27/02/2024
html-keyboard-response,171,393303,0.0-71.0,,"<div style=""font-size:100px;"">+</div>",,delaylearn,learning,ITI,pIIB6MwlhTghXp7F27OxRhHbSGY2,pIIB6MwlhTghXp7F27OxRhHbSGY2,,,,,,,,,,,,,,,,,,,2429.0,,,65bfb41fd7a1911a6a7db2c3,09:07:23,27/02/2024
html-keyboard-response,172,394697,0.0-72.0-0.0,1390.0999999046326,"<div style=""display: flex; flex-direction: column; align-items: center; margin-top: -40px;""><img src=""images/pattern_5.png"" style=""width: 234px; height: 230px; margin-top: -50px;""><div style=""display: flex; justify-content: space-between; margin-top: 33px;""><img src=""images/choice_trial_2.png"" style=""width: 408px; height: 417px; margin-right: 200px;""><img src=""images/choice_trial_9.png"" style=""width: 408px; height: 417px;""></div></div>",j,delaylearn,learning,trial,pIIB6MwlhTghXp7F27OxRhHbSGY2,pIIB6MwlhTghXp7F27OxRhHbSGY2,2.0,images/choice_trial_2.png,images/choice_trial_9.png,images/pattern_5.png,j,f,750.0,2.0,9.0,4.0,0.0,31.0,0.0,1.0,9.0,120.0,,,,,,65bfb41fd7a1911a6a7db2c3,09:07:23,27/02/2024
html-keyboard-response,173,395701,0.0-72.0-1.0,,"<div style=""display: flex; flex-direction: column; align-items: center; margin-top: -40px;""><img src=""images/pattern_5.png"" style=""width: 234px; height: 230px; margin-top: -50px;""><div style=""display: flex; justify-content: space-between; margin-top: 33px;""><img src=""images/choice_trial_9.png"" style=""width: 408px; height: 417px; margin-left:608px;""></div></div>",,delaylearn,learning,display_response,pIIB6MwlhTghXp7F27OxRhHbSGY2,pIIB6MwlhTghXp7F27OxRhHbSGY2,,,,,,,,,,,,,,,,,chosen stimuli: images/choice_trial_9.png,,,,,65bfb41fd7a1911a6a7db2c3,09:07:23,27/02/2024
html-keyboard-response,174,396458,0.0-72.0-2.0,,,,delaylearn,learning,feedback_duration_window,pIIB6MwlhTghXp7F27OxRhHbSGY2,pIIB6MwlhTghXp7F27OxRhHbSGY2,,,,,,,,,,,,,,,,,,750.0,,,,65bfb41fd7a1911a6a7db2c3,09:07:23,27/02/2024
html-keyboard-response,175,397968,0.0-72.0-3.0,,<div style='margin:auto;width: auto; font-size: 150%'><span style='font-weight: bold; font-size: 100px; color: green;'>+10 points!</span><br><br></div>,,delaylearn,learning,feedback_image_window,pIIB6MwlhTghXp7F27OxRhHbSGY2,pIIB6MwlhTghXp7F27OxRhHbSGY2,,,,,,,,,,,,,,,,,,,,,,65bfb41fd7a1911a6a7db2c3,09:07:23,27/02/2024
html-keyboard-response,176,399566,0.0-73.0,,"<div style=""font-size:100px;"">+</div>",,delaylearn,learning,ITI,pIIB6MwlhTghXp7F27OxRhHbSGY2,pIIB6MwlhTghXp7F27OxRhHbSGY2,,,,,,,,,,,,,,,,,,,1596.0,,,65bfb41fd7a1911a6a7db2c3,09:07:23,27/02/2024
html-keyboard-response,177,401556,0.0-74.0-0.0,1985.7999999523163,"<div style=""display: flex; flex-direction: column; align-items: center; margin-top: -40px;""><img src=""images/pattern_1.png"" style=""width: 234px; height: 230px; margin-top: -50px;""><div style=""display: flex; justify-content: space-between; margin-top: 33px;""><img src=""images/choice_trial_3.png"" style=""width: 408px; height: 417px; margin-right: 200px;""><img src=""images/choice_trial_10.png"" style=""width: 408px; height: 417px;""></div></div>",f,delaylearn,learning,trial,pIIB6MwlhTghXp7F27OxRhHbSGY2,pIIB6MwlhTghXp7F27OxRhHbSGY2,2.0,images/choice_trial_3.png,images/choice_trial_10.png,images/pattern_1.png,f,f,7000.0,3.0,10.0,1.0,0.0,32.0,1.0,1.0,3.0,130.0,,,,,,65bfb41fd7a1911a6a7db2c3,09:07:23,27/02/2024
html-keyboard-response,178,402561,0.0-74.0-1.0,,"<div style=""display: flex; flex-direction: column; align-items: center; margin-top: -40px;""><img src=""images/pattern_1.png"" style=""width: 234px; height: 230px; margin-top: -50px;""><div style=""display: flex; justify-content: space-between; margin-top: 33px;""><img src=""images/choice_trial_3.png"" style=""width: 408px; height: 417px; margin-right: 608px;""></div></div>",,delaylearn,learning,display_response,pIIB6MwlhTghXp7F27OxRhHbSGY2,pIIB6MwlhTghXp7F27OxRhHbSGY2,,,,,,,,,,,,,,,,,chosen stimuli: images/choice_trial_3.png,,,,,65bfb41fd7a1911a6a7db2c3,09:07:23,27/02/2024
html-keyboard-response,179,409578,0.0-74.0-2.0,,,,delaylearn,learning,feedback_duration_window,pIIB6MwlhTghXp7F27OxRhHbSGY2,pIIB6MwlhTghXp7F27OxRhHbSGY2,,,,,,,,,,,,,,,,,,7000.0,,,,65bfb41fd7a1911a6a7db2c3,09:07:23,27/02/2024
html-keyboard-response,180,411094,0.0-74.0-3.0,,<div style='margin:auto;width: auto; font-size: 150%'><span style='font-weight: bold; font-size: 100px; color: green;'>+10 points!</span><br><br></div>,,delaylearn,learning,feedback_image_window,pIIB6MwlhTghXp7F27OxRhHbSGY2,pIIB6MwlhTghXp7F27OxRhHbSGY2,,,,,,,,,,,,,,,,,,,,,,65bfb41fd7a1911a6a7db2c3,09:07:23,27/02/2024
html-keyboard-response,181,411603,0.0-75.0-0.0,,,,,,mood_trial_fixation,pIIB6MwlhTghXp7F27OxRhHbSGY2,,,,,,,,,,,,,,,,,,,,,,,65bfb41fd7a1911a6a7db2c3,09:07:23,27/02/2024
lmdlab-html-vas-response,182,415910,0.0-75.0-1.0,3286.0,How happy are you right now?,0.49452463557059434,delaylearn,learning,mood_trial,pIIB6MwlhTghXp7F27OxRhHbSGY2,pIIB6MwlhTghXp7F27OxRhHbSGY2,,,,,,,,,,,,,,,,,,,,"['Very unhappy', 'Very happy']",,65bfb41fd7a1911a6a7db2c3,09:07:23,27/02/2024
html-keyboard-response,183,417850,0.0-76.0,,"<div style=""font-size:100px;"">+</div>",,delaylearn,learning,ITI,pIIB6MwlhTghXp7F27OxRhHbSGY2,pIIB6MwlhTghXp7F27OxRhHbSGY2,,,,,,,,,,,,,,,,,,,1934.0,,,65bfb41fd7a1911a6a7db2c3,09:07:23,27/02/2024
html-keyboard-response,184,419515,0.0-77.0-0.0,1661.1000001430511,"<div style=""display: flex; flex-direction: column; align-items: center; margin-top: -40px;""><img src=""images/pattern_6.png"" style=""width: 234px; height: 230px; margin-top: -50px;""><div style=""display: flex; justify-content: space-between; margin-top: 33px;""><img src=""images/choice_trial_11.png"" style=""width: 408px; height: 417px; margin-right: 200px;""><img src=""images/choice_trial_5.png"" style=""width: 408px; height: 417px;""></div></div>",f,delaylearn,learning,trial,pIIB6MwlhTghXp7F27OxRhHbSGY2,pIIB6MwlhTghXp7F27OxRhHbSGY2,2.0,images/choice_trial_11.png,images/choice_trial_5.png,images/pattern_6.png,j,f,750.0,11.0,5.0,5.0,0.0,33.0,1.0,0.0,11.0,130.0,,,,,,65bfb41fd7a1911a6a7db2c3,09:07:23,27/02/2024
html-keyboard-response,185,420523,0.0-77.0-1.0,,"<div style=""display: flex; flex-direction: column; align-items: center; margin-top: -40px;""><img src=""images/pattern_6.png"" style=""width: 234px; height: 230px; margin-top: -50px;""><div style=""display: flex; justify-content: space-between; margin-top: 33px;""><img src=""images/choice_trial_11.png"" style=""width: 408px; height: 417px; margin-right: 608px;""></div></div>",,delaylearn,learning,display_response,pIIB6MwlhTghXp7F27OxRhHbSGY2,pIIB6MwlhTghXp7F27OxRhHbSGY2,,,,,,,,,,,,,,,,,chosen stimuli: images/choice_trial_11.png,,,,,65bfb41fd7a1911a6a7db2c3,09:07:23,27/02/2024
html-keyboard-response,186,421289,0.0-77.0-2.0,,,,delaylearn,learning,feedback_duration_window,pIIB6MwlhTghXp7F27OxRhHbSGY2,pIIB6MwlhTghXp7F27OxRhHbSGY2,,,,,,,,,,,,,,,,,,750.0,,,,65bfb41fd7a1911a6a7db2c3,09:07:23,27/02/2024
html-keyboard-response,187,422802,0.0-77.0-3.0,,<div style='margin:auto;width: auto; font-size: 150%'><span style='font-weight: bold; font-size: 100px; color: red;'>0 points!</span><br><br></div>,,delaylearn,learning,feedback_image_window,pIIB6MwlhTghXp7F27OxRhHbSGY2,pIIB6MwlhTghXp7F27OxRhHbSGY2,,,,,,,,,,,,,,,,,,,,,,65bfb41fd7a1911a6a7db2c3,09:07:23,27/02/2024
html-keyboard-response,188,425041,0.0-78.0,,"<div style=""font-size:100px;"">+</div>",,delaylearn,learning,ITI,pIIB6MwlhTghXp7F27OxRhHbSGY2,pIIB6MwlhTghXp7F27OxRhHbSGY2,,,,,,,,,,,,,,,,,,,2219.0,,,65bfb41fd7a1911a6a7db2c3,09:07:23,27/02/2024
html-keyboard-response,189,425834,0.0-79.0-0.0,790.2000000476837,"<div style=""display: flex; flex-direction: column; align-items: center; margin-top: -40px;""><img src=""images/pattern_3.png"" style=""width: 234px; height: 230px; margin-top: -50px;""><div style=""display: flex; justify-content: space-between; margin-top: 33px;""><img src=""images/choice_trial_14.png"" style=""width: 408px; height: 417px; margin-right: 200px;""><img src=""images/choice_trial_12.png"" style=""width: 408px; height: 417px;""></div></div>",f,delaylearn,learning,trial,pIIB6MwlhTghXp7F27OxRhHbSGY2,pIIB6MwlhTghXp7F27OxRhHbSGY2,2.0,images/choice_trial_14.png,images/choice_trial_12.png,images/pattern_3.png,j,j,7000.0,14.0,12.0,2.0,1.0,34.0,0.0,0.0,14.0,130.0,,,,,,65bfb41fd7a1911a6a7db2c3,09:07:23,27/02/2024
html-keyboard-response,190,426838,0.0-79.0-1.0,,"<div style=""display: flex; flex-direction: column; align-items: center; margin-top: -40px;""><img src=""images/pattern_3.png"" style=""width: 234px; height: 230px; margin-top: -50px;""><div style=""display: flex; justify-content: space-between; margin-top: 33px;""><img src=""images/choice_trial_14.png"" style=""width: 408px; height: 417px; margin-right: 608px;""></div></div>",,delaylearn,learning,display_response,pIIB6MwlhTghXp7F27OxRhHbSGY2,pIIB6MwlhTghXp7F27OxRhHbSGY2,,,,,,,,,,,,,,,,,chosen stimuli: images/choice_trial_14.png,,,,,65bfb41fd7a1911a6a7db2c3,09:07:23,27/02/2024
html-keyboard-response,191,433849,0.0-79.0-2.0,,,,delaylearn,learning,feedback_duration_window,pIIB6MwlhTghXp7F27OxRhHbSGY2,pIIB6MwlhTghXp7F27OxRhHbSGY2,,,,,,,,,,,,,,,,,,7000.0,,,,65bfb41fd7a1911a6a7db2c3,09:07:23,27/02/2024
html-keyboard-response,192,435363,0.0-79.0-3.0,,<div style='margin:auto;width: auto; font-size: 150%'><span style='font-weight: bold; font-size: 100px; color: red;'>0 points!</span><br><br></div>,,delaylearn,learning,feedback_image_window,pIIB6MwlhTghXp7F27OxRhHbSGY2,pIIB6MwlhTghXp7F27OxRhHbSGY2,,,,,,,,,,,,,,,,,,,,,,65bfb41fd7a1911a6a7db2c3,09:07:23,27/02/2024
html-keyboard-response,193,436959,0.0-80.0,,"<div style=""font-size:100px;"">+</div>",,delaylearn,learning,ITI,pIIB6MwlhTghXp7F27OxRhHbSGY2,pIIB6MwlhTghXp7F27OxRhHbSGY2,,,,,,,,,,,,,,,,,,,1581.0,,,65bfb41fd7a1911a6a7db2c3,09:07:23,27/02/2024
html-keyboard-response,194,438187,0.0-81.0-0.0,1222.8000001907349,"<div style=""display: flex; flex-direction: column; align-items: center; margin-top: -40px;""><img src=""images/pattern_4.png"" style=""width: 234px; height: 230px; margin-top: -50px;""><div style=""display: flex; justify-content: space-between; margin-top: 33px;""><img src=""images/choice_trial_16.png"" style=""width: 408px; height: 417px; margin-right: 200px;""><img src=""images/choice_trial_4.png"" style=""width: 408px; height: 417px;""></div></div>",f,delaylearn,learning,trial,pIIB6MwlhTghXp7F27OxRhHbSGY2,pIIB6MwlhTghXp7F27OxRhHbSGY2,2.0,images/choice_trial_16.png,images/choice_trial_4.png,images/pattern_4.png,f,j,7000.0,16.0,4.0,3.0,1.0,35.0,0.0,1.0,16.0,140.0,,,,,,65bfb41fd7a1911a6a7db2c3,09:07:23,27/02/2024
html-keyboard-response,195,439197,0.0-81.0-1.0,,"<div style=""display: flex; flex-direction: column; align-items: center; margin-top: -40px;""><img src=""images/pattern_4.png"" style=""width: 234px; height: 230px; margin-top: -50px;""><div style=""display: flex; justify-content: space-between; margin-top: 33px;""><img src=""images/choice_trial_16.png"" style=""width: 408px; height: 417px; margin-right: 608px;""></div></div>",,delaylearn,learning,display_response,pIIB6MwlhTghXp7F27OxRhHbSGY2,pIIB6MwlhTghXp7F27OxRhHbSGY2,,,,,,,,,,,,,,,,,chosen stimuli: images/choice_trial_16.png,,,,,65bfb41fd7a1911a6a7db2c3,09:07:23,27/02/2024
html-keyboard-response,196,446201,0.0-81.0-2.0,,,,delaylearn,learning,feedback_duration_window,pIIB6MwlhTghXp7F27OxRhHbSGY2,pIIB6MwlhTghXp7F27OxRhHbSGY2,,,,,,,,,,,,,,,,,,7000.0,,,,65bfb41fd7a1911a6a7db2c3,09:07:23,27/02/2024
html-keyboard-response,197,447715,0.0-81.0-3.0,,<div style='margin:auto;width: auto; font-size: 150%'><span style='font-weight: bold; font-size: 100px; color: green;'>+10 points!</span><br><br></div>,,delaylearn,learning,feedback_image_window,pIIB6MwlhTghXp7F27OxRhHbSGY2,pIIB6MwlhTghXp7F27OxRhHbSGY2,,,,,,,,,,,,,,,,,,,,,,65bfb41fd7a1911a6a7db2c3,09:07:23,27/02/2024
html-keyboard-response,198,449644,0.0-82.0,,"<div style=""font-size:100px;"">+</div>",,delaylearn,learning,ITI,pIIB6MwlhTghXp7F27OxRhHbSGY2,pIIB6MwlhTghXp7F27OxRhHbSGY2,,,,,,,,,,,,,,,,,,,1925.0,,,65bfb41fd7a1911a6a7db2c3,09:07:23,27/02/2024
html-keyboard-response,199,451307,0.0-83.0-0.0,1658.7000000476837,"<div style=""display: flex; flex-direction: column; align-items: center; margin-top: -40px;""><img src=""images/pattern_7.png"" style=""width: 234px; height: 230px; margin-top: -50px;""><div style=""display: flex; justify-content: space-between; margin-top: 33px;""><img src=""images/choice_trial_8.png"" style=""width: 408px; height: 417px; margin-right: 200px;""><img src=""images/choice_trial_15.png"" style=""width: 408px; height: 417px;""></div></div>",f,delaylearn,learning,trial,pIIB6MwlhTghXp7F27OxRhHbSGY2,pIIB6MwlhTghXp7F27OxRhHbSGY2,2.0,images/choice_trial_8.png,images/choice_trial_15.png,images/pattern_7.png,f,f,750.0,8.0,15.0,6.0,0.0,36.0,1.0,1.0,8.0,150.0,,,,,,65bfb41fd7a1911a6a7db2c3,09:07:23,27/02/2024
html-keyboard-response,200,452312,0.0-83.0-1.0,,"<div style=""display: flex; flex-direction: column; align-items: center; margin-top: -40px;""><img src=""images/pattern_7.png"" style=""width: 234px; height: 230px; margin-top: -50px;""><div style=""display: flex; justify-content: space-between; margin-top: 33px;""><img src=""images/choice_trial_8.png"" style=""width: 408px; height: 417px; margin-right: 608px;""></div></div>",,delaylearn,learning,display_response,pIIB6MwlhTghXp7F27OxRhHbSGY2,pIIB6MwlhTghXp7F27OxRhHbSGY2,,,,,,,,,,,,,,,,,chosen stimuli: images/choice_trial_8.png,,,,,65bfb41fd7a1911a6a7db2c3,09:07:23,27/02/2024
html-keyboard-response,201,453067,0.0-83.0-2.0,,,,delaylearn,learning,feedback_duration_window,pIIB6MwlhTghXp7F27OxRhHbSGY2,pIIB6MwlhTghXp7F27OxRhHbSGY2,,,,,,,,,,,,,,,,,,750.0,,,,65bfb41fd7a1911a6a7db2c3,09:07:23,27/02/2024
html-keyboard-response,202,454585,0.0-83.0-3.0,,<div style='margin:auto;width: auto; font-size: 150%'><span style='font-weight: bold; font-size: 100px; color: green;'>+10 points!</span><br><br></div>,,delaylearn,learning,feedback_image_window,pIIB6MwlhTghXp7F27OxRhHbSGY2,pIIB6MwlhTghXp7F27OxRhHbSGY2,,,,,,,,,,,,,,,,,,,,,,65bfb41fd7a1911a6a7db2c3,09:07:23,27/02/2024
html-keyboard-response,203,456255,0.0-84.0,,"<div style=""font-size:100px;"">+</div>",,delaylearn,learning,ITI,pIIB6MwlhTghXp7F27OxRhHbSGY2,pIIB6MwlhTghXp7F27OxRhHbSGY2,,,,,,,,,,,,,,,,,,,1666.0,,,65bfb41fd7a1911a6a7db2c3,09:07:23,27/02/2024
html-keyboard-response,204,457737,0.0-85.0-0.0,1478.0,"<div style=""display: flex; flex-direction: column; align-items: center; margin-top: -40px;""><img src=""images/pattern_1.png"" style=""width: 234px; height: 230px; margin-top: -50px;""><div style=""display: flex; justify-content: space-between; margin-top: 33px;""><img src=""images/choice_trial_3.png"" style=""width: 408px; height: 417px; margin-right: 200px;""><img src=""images/choice_trial_10.png"" style=""width: 408px; height: 417px;""></div></div>",f,delaylearn,learning,trial,pIIB6MwlhTghXp7F27OxRhHbSGY2,pIIB6MwlhTghXp7F27OxRhHbSGY2,2.0,images/choice_trial_3.png,images/choice_trial_10.png,images/pattern_1.png,f,f,7000.0,3.0,10.0,1.0,0.0,37.0,1.0,1.0,3.0,160.0,,,,,,65bfb41fd7a1911a6a7db2c3,09:07:23,27/02/2024
html-keyboard-response,205,458755,0.0-85.0-1.0,,"<div style=""display: flex; flex-direction: column; align-items: center; margin-top: -40px;""><img src=""images/pattern_1.png"" style=""width: 234px; height: 230px; margin-top: -50px;""><div style=""display: flex; justify-content: space-between; margin-top: 33px;""><img src=""images/choice_trial_3.png"" style=""width: 408px; height: 417px; margin-right: 608px;""></div></div>",,delaylearn,learning,display_response,pIIB6MwlhTghXp7F27OxRhHbSGY2,pIIB6MwlhTghXp7F27OxRhHbSGY2,,,,,,,,,,,,,,,,,chosen stimuli: images/choice_trial_3.png,,,,,65bfb41fd7a1911a6a7db2c3,09:07:23,27/02/2024
html-keyboard-response,206,465768,0.0-85.0-2.0,,,,delaylearn,learning,feedback_duration_window,pIIB6MwlhTghXp7F27OxRhHbSGY2,pIIB6MwlhTghXp7F27OxRhHbSGY2,,,,,,,,,,,,,,,,,,7000.0,,,,65bfb41fd7a1911a6a7db2c3,09:07:23,27/02/2024
html-keyboard-response,207,467281,0.0-85.0-3.0,,<div style='margin:auto;width: auto; font-size: 150%'><span style='font-weight: bold; font-size: 100px; color: green;'>+10 points!</span><br><br></div>,,delaylearn,learning,feedback_image_window,pIIB6MwlhTghXp7F27OxRhHbSGY2,pIIB6MwlhTghXp7F27OxRhHbSGY2,,,,,,,,,,,,,,,,,,,,,,65bfb41fd7a1911a6a7db2c3,09:07:23,27/02/2024
html-keyboard-response,208,467784,0.0-86.0-0.0,,,,,,mood_trial_fixation,pIIB6MwlhTghXp7F27OxRhHbSGY2,,,,,,,,,,,,,,,,,,,,,,,65bfb41fd7a1911a6a7db2c3,09:07:23,27/02/2024
lmdlab-html-vas-response,209,471238,0.0-86.0-1.0,2441.0,How happy are you right now?,0.7375822732399595,delaylearn,learning,mood_trial,pIIB6MwlhTghXp7F27OxRhHbSGY2,pIIB6MwlhTghXp7F27OxRhHbSGY2,,,,,,,,,,,,,,,,,,,,"['Very unhappy', 'Very happy']",,65bfb41fd7a1911a6a7db2c3,09:07:23,27/02/2024
html-keyboard-response,210,473007,0.0-87.0,,"<div style=""font-size:100px;"">+</div>",,delaylearn,learning,ITI,pIIB6MwlhTghXp7F27OxRhHbSGY2,pIIB6MwlhTghXp7F27OxRhHbSGY2,,,,,,,,,,,,,,,,,,,1754.0,,,65bfb41fd7a1911a6a7db2c3,09:07:23,27/02/2024
html-keyboard-response,211,475018,0.0-88.0-0.0,2007.9000000953674,"<div style=""display: flex; flex-direction: column; align-items: center; margin-top: -40px;""><img src=""images/pattern_3.png"" style=""width: 234px; height: 230px; margin-top: -50px;""><div style=""display: flex; justify-content: space-between; margin-top: 33px;""><img src=""images/choice_trial_12.png"" style=""width: 408px; height: 417px; margin-right: 200px;""><img src=""images/choice_trial_14.png"" style=""width: 408px; height: 417px;""></div></div>",f,delaylearn,learning,trial,pIIB6MwlhTghXp7F27OxRhHbSGY2,pIIB6MwlhTghXp7F27OxRhHbSGY2,2.0,images/choice_trial_12.png,images/choice_trial_14.png,images/pattern_3.png,j,f,7000.0,12.0,14.0,2.0,0.0,38.0,1.0,0.0,12.0,160.0,,,,,,65bfb41fd7a1911a6a7db2c3,09:07:23,27/02/2024
html-keyboard-response,212,476036,0.0-88.0-1.0,,"<div style=""display: flex; flex-direction: column; align-items: center; margin-top: -40px;""><img src=""images/pattern_3.png"" style=""width: 234px; height: 230px; margin-top: -50px;""><div style=""display: flex; justify-content: space-between; margin-top: 33px;""><img src=""images/choice_trial_12.png"" style=""width: 408px; height: 417px; margin-right: 608px;""></div></div>",,delaylearn,learning,display_response,pIIB6MwlhTghXp7F27OxRhHbSGY2,pIIB6MwlhTghXp7F27OxRhHbSGY2,,,,,,,,,,,,,,,,,chosen stimuli: images/choice_trial_12.png,,,,,65bfb41fd7a1911a6a7db2c3,09:07:23,27/02/2024
html-keyboard-response,213,483040,0.0-88.0-2.0,,,,delaylearn,learning,feedback_duration_window,pIIB6MwlhTghXp7F27OxRhHbSGY2,pIIB6MwlhTghXp7F27OxRhHbSGY2,,,,,,,,,,,,,,,,,,7000.0,,,,65bfb41fd7a1911a6a7db2c3,09:07:23,27/02/2024
html-keyboard-response,214,484551,0.0-88.0-3.0,,<div style='margin:auto;width: auto; font-size: 150%'><span style='font-weight: bold; font-size: 100px; color: red;'>0 points!</span><br><br></div>,,delaylearn,learning,feedback_image_window,pIIB6MwlhTghXp7F27OxRhHbSGY2,pIIB6MwlhTghXp7F27OxRhHbSGY2,,,,,,,,,,,,,,,,,,,,,,65bfb41fd7a1911a6a7db2c3,09:07:23,27/02/2024
html-keyboard-response,215,486977,0.0-89.0,,"<div style=""font-size:100px;"">+</div>",,delaylearn,learning,ITI,pIIB6MwlhTghXp7F27OxRhHbSGY2,pIIB6MwlhTghXp7F27OxRhHbSGY2,,,,,,,,,,,,,,,,,,,2419.0,,,65bfb41fd7a1911a6a7db2c3,09:07:23,27/02/2024
html-keyboard-response,216,488337,0.0-90.0-0.0,1355.1000001430511,"<div style=""display: flex; flex-direction: column; align-items: center; margin-top: -40px;""><img src=""images/pattern_7.png"" style=""width: 234px; height: 230px; margin-top: -50px;""><div style=""display: flex; justify-content: space-between; margin-top: 33px;""><img src=""images/choice_trial_15.png"" style=""width: 408px; height: 417px; margin-right: 200px;""><img src=""images/choice_trial_8.png"" style=""width: 408px; height: 417px;""></div></div>",j,delaylearn,learning,trial,pIIB6MwlhTghXp7F27OxRhHbSGY2,pIIB6MwlhTghXp7F27OxRhHbSGY2,2.0,images/choice_trial_15.png,images/choice_trial_8.png,images/pattern_7.png,j,j,750.0,15.0,8.0,6.0,1.0,39.0,1.0,1.0,8.0,170.0,,,,,,65bfb41fd7a1911a6a7db2c3,09:07:23,27/02/2024
html-keyboard-response,217,489342,0.0-90.0-1.0,,"<div style=""display: flex; flex-direction: column; align-items: center; margin-top: -40px;""><img src=""images/pattern_7.png"" style=""width: 234px; height: 230px; margin-top: -50px;""><div style=""display: flex; justify-content: space-between; margin-top: 33px;""><img src=""images/choice_trial_8.png"" style=""width: 408px; height: 417px; margin-left:608px;""></div></div>",,delaylearn,learning,display_response,pIIB6MwlhTghXp7F27OxRhHbSGY2,pIIB6MwlhTghXp7F27OxRhHbSGY2,,,,,,,,,,,,,,,,,chosen stimuli: images/choice_trial_8.png,,,,,65bfb41fd7a1911a6a7db2c3,09:07:23,27/02/2024
html-keyboard-response,218,490105,0.0-90.0-2.0,,,,delaylearn,learning,feedback_duration_window,pIIB6MwlhTghXp7F27OxRhHbSGY2,pIIB6MwlhTghXp7F27OxRhHbSGY2,,,,,,,,,,,,,,,,,,750.0,,,,65bfb41fd7a1911a6a7db2c3,09:07:23,27/02/2024
html-keyboard-response,219,491621,0.0-90.0-3.0,,<div style='margin:auto;width: auto; font-size: 150%'><span style='font-weight: bold; font-size: 100px; color: green;'>+10 points!</span><br><br></div>,,delaylearn,learning,feedback_image_window,pIIB6MwlhTghXp7F27OxRhHbSGY2,pIIB6MwlhTghXp7F27OxRhHbSGY2,,,,,,,,,,,,,,,,,,,,,,65bfb41fd7a1911a6a7db2c3,09:07:23,27/02/2024
html-keyboard-response,220,493191,0.0-91.0,,"<div style=""font-size:100px;"">+</div>",,delaylearn,learning,ITI,pIIB6MwlhTghXp7F27OxRhHbSGY2,pIIB6MwlhTghXp7F27OxRhHbSGY2,,,,,,,,,,,,,,,,,,,1561.0,,,65bfb41fd7a1911a6a7db2c3,09:07:23,27/02/2024
html-keyboard-response,221,495257,0.0-92.0-0.0,2062.2000000476837,"<div style=""display: flex; flex-direction: column; align-items: center; margin-top: -40px;""><img src=""images/pattern_5.png"" style=""width: 234px; height: 230px; margin-top: -50px;""><div style=""display: flex; justify-content: space-between; margin-top: 33px;""><img src=""images/choice_trial_9.png"" style=""width: 408px; height: 417px; margin-right: 200px;""><img src=""images/choice_trial_2.png"" style=""width: 408px; height: 417px;""></div></div>",j,delaylearn,learning,trial,pIIB6MwlhTghXp7F27OxRhHbSGY2,pIIB6MwlhTghXp7F27OxRhHbSGY2,2.0,images/choice_trial_9.png,images/choice_trial_2.png,images/pattern_5.png,j,j,750.0,9.0,2.0,4.0,1.0,40.0,1.0,1.0,2.0,180.0,,,,,,65bfb41fd7a1911a6a7db2c3,09:07:23,27/02/2024
html-keyboard-response,222,496262,0.0-92.0-1.0,,"<div style=""display: flex; flex-direction: column; align-items: center; margin-top: -40px;""><img src=""images/pattern_5.png"" style=""width: 234px; height: 230px; margin-top: -50px;""><div style=""display: flex; justify-content: space-between; margin-top: 33px;""><img src=""images/choice_trial_2.png"" style=""width: 408px; height: 417px; margin-left:608px;""></div></div>",,delaylearn,learning,display_response,pIIB6MwlhTghXp7F27OxRhHbSGY2,pIIB6MwlhTghXp7F27OxRhHbSGY2,,,,,,,,,,,,,,,,,chosen stimuli: images/choice_trial_2.png,,,,,65bfb41fd7a1911a6a7db2c3,09:07:23,27/02/2024
html-keyboard-response,223,497027,0.0-92.0-2.0,,,,delaylearn,learning,feedback_duration_window,pIIB6MwlhTghXp7F27OxRhHbSGY2,pIIB6MwlhTghXp7F27OxRhHbSGY2,,,,,,,,,,,,,,,,,,750.0,,,,65bfb41fd7a1911a6a7db2c3,09:07:23,27/02/2024
html-keyboard-response,224,498535,0.0-92.0-3.0,,<div style='margin:auto;width: auto; font-size: 150%'><span style='font-weight: bold; font-size: 100px; color: green;'>+10 points!</span><br><br></div>,,delaylearn,learning,feedback_image_window,pIIB6MwlhTghXp7F27OxRhHbSGY2,pIIB6MwlhTghXp7F27OxRhHbSGY2,,,,,,,,,,,,,,,,,,,,,,65bfb41fd7a1911a6a7db2c3,09:07:23,27/02/2024
html-keyboard-response,225,499037,0.0-93.0-0.0,,,,,,mood_trial_fixation,pIIB6MwlhTghXp7F27OxRhHbSGY2,,,,,,,,,,,,,,,,,,,,,,,65bfb41fd7a1911a6a7db2c3,09:07:23,27/02/2024
lmdlab-html-vas-response,226,502766,0.0-93.0-1.0,2720.0,How happy are you right now?,0.863679844662412,delaylearn,learning,mood_trial,pIIB6MwlhTghXp7F27OxRhHbSGY2,pIIB6MwlhTghXp7F27OxRhHbSGY2,,,,,,,,,,,,,,,,,,,,"['Very unhappy', 'Very happy']",,65bfb41fd7a1911a6a7db2c3,09:07:23,27/02/2024
html-keyboard-response,227,504693,0.0-94.0,,"<div style=""font-size:100px;"">+</div>",,delaylearn,learning,ITI,pIIB6MwlhTghXp7F27OxRhHbSGY2,pIIB6MwlhTghXp7F27OxRhHbSGY2,,,,,,,,,,,,,,,,,,,1911.0,,,65bfb41fd7a1911a6a7db2c3,09:07:23,27/02/2024
html-keyboard-response,228,506867,0.0-95.0-0.0,2170.2000000476837,"<div style=""display: flex; flex-direction: column; align-items: center; margin-top: -40px;""><img src=""images/pattern_4.png"" style=""width: 234px; height: 230px; margin-top: -50px;""><div style=""display: flex; justify-content: space-between; margin-top: 33px;""><img src=""images/choice_trial_4.png"" style=""width: 408px; height: 417px; margin-right: 200px;""><img src=""images/choice_trial_16.png"" style=""width: 408px; height: 417px;""></div></div>",f,delaylearn,learning,trial,pIIB6MwlhTghXp7F27OxRhHbSGY2,pIIB6MwlhTghXp7F27OxRhHbSGY2,2.0,images/choice_trial_4.png,images/choice_trial_16.png,images/pattern_4.png,f,f,7000.0,4.0,16.0,3.0,0.0,41.0,1.0,1.0,4.0,190.0,,,,,,65bfb41fd7a1911a6a7db2c3,09:07:23,27/02/2024
html-keyboard-response,229,507874,0.0-95.0-1.0,,"<div style=""display: flex; flex-direction: column; align-items: center; margin-top: -40px;""><img src=""images/pattern_4.png"" style=""width: 234px; height: 230px; margin-top: -50px;""><div style=""display: flex; justify-content: space-between; margin-top: 33px;""><img src=""images/choice_trial_4.png"" style=""width: 408px; height: 417px; margin-right: 608px;""></div></div>",,delaylearn,learning,display_response,pIIB6MwlhTghXp7F27OxRhHbSGY2,pIIB6MwlhTghXp7F27OxRhHbSGY2,,,,,,,,,,,,,,,,,chosen stimuli: images/choice_trial_4.png,,,,,65bfb41fd7a1911a6a7db2c3,09:07:23,27/02/2024
html-keyboard-response,230,514886,0.0-95.0-2.0,,,,delaylearn,learning,feedback_duration_window,pIIB6MwlhTghXp7F27OxRhHbSGY2,pIIB6MwlhTghXp7F27OxRhHbSGY2,,,,,,,,,,,,,,,,,,7000.0,,,,65bfb41fd7a1911a6a7db2c3,09:07:23,27/02/2024
html-keyboard-response,231,516402,0.0-95.0-3.0,,<div style='margin:auto;width: auto; font-size: 150%'><span style='font-weight: bold; font-size: 100px; color: green;'>+10 points!</span><br><br></div>,,delaylearn,learning,feedback_image_window,pIIB6MwlhTghXp7F27OxRhHbSGY2,pIIB6MwlhTghXp7F27OxRhHbSGY2,,,,,,,,,,,,,,,,,,,,,,65bfb41fd7a1911a6a7db2c3,09:07:23,27/02/2024
html-keyboard-response,232,518331,0.0-96.0,,"<div style=""font-size:100px;"">+</div>",,delaylearn,learning,ITI,pIIB6MwlhTghXp7F27OxRhHbSGY2,pIIB6MwlhTghXp7F27OxRhHbSGY2,,,,,,,,,,,,,,,,,,,1916.0,,,65bfb41fd7a1911a6a7db2c3,09:07:23,27/02/2024
html-keyboard-response,233,520098,0.0-97.0-0.0,1763.3999998569489,"<div style=""display: flex; flex-direction: column; align-items: center; margin-top: -40px;""><img src=""images/pattern_6.png"" style=""width: 234px; height: 230px; margin-top: -50px;""><div style=""display: flex; justify-content: space-between; margin-top: 33px;""><img src=""images/choice_trial_5.png"" style=""width: 408px; height: 417px; margin-right: 200px;""><img src=""images/choice_trial_11.png"" style=""width: 408px; height: 417px;""></div></div>",f,delaylearn,learning,trial,pIIB6MwlhTghXp7F27OxRhHbSGY2,pIIB6MwlhTghXp7F27OxRhHbSGY2,2.0,images/choice_trial_5.png,images/choice_trial_11.png,images/pattern_6.png,j,j,750.0,5.0,11.0,5.0,1.0,42.0,0.0,0.0,5.0,190.0,,,,,,65bfb41fd7a1911a6a7db2c3,09:07:23,27/02/2024
