trial_type,trial_index,time_elapsed,internal_node_id,rt,stimulus,response,exp_name,exp_stage,test_part,subjectID,databaseID,counterbal,choice_stimuli_1,choice_stimuli_2,pattern_stimuli,rewarded_answer,correct_answer,feedback_duration_times,stim_left,stim_right,pair,leftright_counter,trial,response_correct,response_rewarded,chosen_stim,counter,displayed_choice,feedback_durations,ITI_duration,labels,rest_warning,prolificID,start_time,date
pavlovia,0,574,0.0-0.0,,,,,,,W1qxNnrdKXPMJzAD0rCHxhO4QB23,,,,,,,,,,,,,,,,,,,,,,,5f85f0cab3f4e20ebf578203,16:54:10,27/03/2024
html-keyboard-response,1,3589,0.0-1.0,,"<div style=""font-size:100px;"">+</div>",,delaylearn,learning,pre_fixation,W1qxNnrdKXPMJzAD0rCHxhO4QB23,,,,,,,,,,,,,,,,,,,,,,,5f85f0cab3f4e20ebf578203,16:54:10,27/03/2024
html-keyboard-response,2,4278,0.0-2.0-0.0,686.6999999880791,"<div style=""display: flex; flex-direction: column; align-items: center; margin-top: -40px;""><img src=""images/demo_images/pattern_1.png"" style=""width: 234px; height: 230px; margin-top: -50px;""><div style=""display: flex; justify-content: space-between; margin-top: 33px;""><img src=""images/demo_images/choice_trial_2.png"" style=""width: 408px; height: 417px; margin-right: 200px;""><img src=""images/demo_images/choice_trial_1.png"" style=""width: 408px; height: 417px;""></div></div>",f,delaylearn,learning,trial,W1qxNnrdKXPMJzAD0rCHxhO4QB23,W1qxNnrdKXPMJzAD0rCHxhO4QB23,2.0,images/demo_images/choice_trial_2.png,images/demo_images/choice_trial_1.png,images/demo_images/pattern_1.png,j,j,3000.0,2.0,1.0,20.0,1.0,1.0,0.0,0.0,2.0,0.0,,,,,,5f85f0cab3f4e20ebf578203,16:54:10,27/03/2024
html-keyboard-response,3,5290,0.0-2.0-1.0,,"<div style=""display: flex; flex-direction: column; align-items: center; margin-top: -40px;""><img src=""images/demo_images/pattern_1.png"" style=""width: 234px; height: 230px; margin-top: -50px;""><div style=""display: flex; justify-content: space-between; margin-top: 33px;""><img src=""images/demo_images/choice_trial_2.png"" style=""width: 408px; height: 417px; margin-right: 608px;""></div></div>",,delaylearn,learning,display_response,W1qxNnrdKXPMJzAD0rCHxhO4QB23,W1qxNnrdKXPMJzAD0rCHxhO4QB23,,,,,,,,,,,,,,,,,chosen stimuli: images/demo_images/choice_trial_2.png,,,,,5f85f0cab3f4e20ebf578203,16:54:10,27/03/2024
html-keyboard-response,4,8294,0.0-2.0-2.0,,,,delaylearn,learning,feedback_duration_window,W1qxNnrdKXPMJzAD0rCHxhO4QB23,W1qxNnrdKXPMJzAD0rCHxhO4QB23,,,,,,,,,,,,,,,,,,3000.0,,,,5f85f0cab3f4e20ebf578203,16:54:10,27/03/2024
html-keyboard-response,5,9806,0.0-2.0-3.0,,<div style='margin:auto;width: auto; font-size: 150%'><span style='font-weight: bold; font-size: 100px; color: red;'>0 points!</span><br><br></div>,,delaylearn,learning,feedback_image_window,W1qxNnrdKXPMJzAD0rCHxhO4QB23,W1qxNnrdKXPMJzAD0rCHxhO4QB23,,,,,,,,,,,,,,,,,,,,,,5f85f0cab3f4e20ebf578203,16:54:10,27/03/2024
html-keyboard-response,6,11575,0.0-3.0,,"<div style=""font-size:100px;"">+</div>",,delaylearn,learning,ITI,W1qxNnrdKXPMJzAD0rCHxhO4QB23,W1qxNnrdKXPMJzAD0rCHxhO4QB23,,,,,,,,,,,,,,,,,,,1755.0,,,5f85f0cab3f4e20ebf578203,16:54:10,27/03/2024
html-keyboard-response,7,12221,0.0-4.0-0.0,644.4000000357628,"<div style=""display: flex; flex-direction: column; align-items: center; margin-top: -40px;""><img src=""images/demo_images/pattern_1.png"" style=""width: 234px; height: 230px; margin-top: -50px;""><div style=""display: flex; justify-content: space-between; margin-top: 33px;""><img src=""images/demo_images/choice_trial_2.png"" style=""width: 408px; height: 417px; margin-right: 200px;""><img src=""images/demo_images/choice_trial_1.png"" style=""width: 408px; height: 417px;""></div></div>",j,delaylearn,learning,trial,W1qxNnrdKXPMJzAD0rCHxhO4QB23,W1qxNnrdKXPMJzAD0rCHxhO4QB23,2.0,images/demo_images/choice_trial_2.png,images/demo_images/choice_trial_1.png,images/demo_images/pattern_1.png,j,j,3000.0,2.0,1.0,20.0,1.0,2.0,1.0,1.0,1.0,10.0,,,,,,5f85f0cab3f4e20ebf578203,16:54:10,27/03/2024
html-keyboard-response,8,13233,0.0-4.0-1.0,,"<div style=""display: flex; flex-direction: column; align-items: center; margin-top: -40px;""><img src=""images/demo_images/pattern_1.png"" style=""width: 234px; height: 230px; margin-top: -50px;""><div style=""display: flex; justify-content: space-between; margin-top: 33px;""><img src=""images/demo_images/choice_trial_1.png"" style=""width: 408px; height: 417px; margin-left:608px;""></div></div>",,delaylearn,learning,display_response,W1qxNnrdKXPMJzAD0rCHxhO4QB23,W1qxNnrdKXPMJzAD0rCHxhO4QB23,,,,,,,,,,,,,,,,,chosen stimuli: images/demo_images/choice_trial_1.png,,,,,5f85f0cab3f4e20ebf578203,16:54:10,27/03/2024
html-keyboard-response,9,16243,0.0-4.0-2.0,,,,delaylearn,learning,feedback_duration_window,W1qxNnrdKXPMJzAD0rCHxhO4QB23,W1qxNnrdKXPMJzAD0rCHxhO4QB23,,,,,,,,,,,,,,,,,,3000.0,,,,5f85f0cab3f4e20ebf578203,16:54:10,27/03/2024
html-keyboard-response,10,17759,0.0-4.0-3.0,,<div style='margin:auto;width: auto; font-size: 150%'><span style='font-weight: bold; font-size: 100px; color: green;'>+10 points!</span><br><br></div>,,delaylearn,learning,feedback_image_window,W1qxNnrdKXPMJzAD0rCHxhO4QB23,W1qxNnrdKXPMJzAD0rCHxhO4QB23,,,,,,,,,,,,,,,,,,,,,,5f85f0cab3f4e20ebf578203,16:54:10,27/03/2024
html-keyboard-response,11,19925,0.0-5.0,,"<div style=""font-size:100px;"">+</div>",,delaylearn,learning,ITI,W1qxNnrdKXPMJzAD0rCHxhO4QB23,W1qxNnrdKXPMJzAD0rCHxhO4QB23,,,,,,,,,,,,,,,,,,,2154.0,,,5f85f0cab3f4e20ebf578203,16:54:10,27/03/2024
html-keyboard-response,12,20664,0.0-6.0-0.0,737.1000000238419,"<div style=""display: flex; flex-direction: column; align-items: center; margin-top: -40px;""><img src=""images/demo_images/pattern_1.png"" style=""width: 234px; height: 230px; margin-top: -50px;""><div style=""display: flex; justify-content: space-between; margin-top: 33px;""><img src=""images/demo_images/choice_trial_1.png"" style=""width: 408px; height: 417px; margin-right: 200px;""><img src=""images/demo_images/choice_trial_2.png"" style=""width: 408px; height: 417px;""></div></div>",j,delaylearn,learning,trial,W1qxNnrdKXPMJzAD0rCHxhO4QB23,W1qxNnrdKXPMJzAD0rCHxhO4QB23,2.0,images/demo_images/choice_trial_1.png,images/demo_images/choice_trial_2.png,images/demo_images/pattern_1.png,j,f,3000.0,1.0,2.0,20.0,0.0,3.0,0.0,1.0,2.0,20.0,,,,,,5f85f0cab3f4e20ebf578203,16:54:10,27/03/2024
html-keyboard-response,13,21668,0.0-6.0-1.0,,"<div style=""display: flex; flex-direction: column; align-items: center; margin-top: -40px;""><img src=""images/demo_images/pattern_1.png"" style=""width: 234px; height: 230px; margin-top: -50px;""><div style=""display: flex; justify-content: space-between; margin-top: 33px;""><img src=""images/demo_images/choice_trial_2.png"" style=""width: 408px; height: 417px; margin-left:608px;""></div></div>",,delaylearn,learning,display_response,W1qxNnrdKXPMJzAD0rCHxhO4QB23,W1qxNnrdKXPMJzAD0rCHxhO4QB23,,,,,,,,,,,,,,,,,chosen stimuli: images/demo_images/choice_trial_2.png,,,,,5f85f0cab3f4e20ebf578203,16:54:10,27/03/2024
html-keyboard-response,14,24680,0.0-6.0-2.0,,,,delaylearn,learning,feedback_duration_window,W1qxNnrdKXPMJzAD0rCHxhO4QB23,W1qxNnrdKXPMJzAD0rCHxhO4QB23,,,,,,,,,,,,,,,,,,3000.0,,,,5f85f0cab3f4e20ebf578203,16:54:10,27/03/2024
html-keyboard-response,15,26183,0.0-6.0-3.0,,<div style='margin:auto;width: auto; font-size: 150%'><span style='font-weight: bold; font-size: 100px; color: green;'>+10 points!</span><br><br></div>,,delaylearn,learning,feedback_image_window,W1qxNnrdKXPMJzAD0rCHxhO4QB23,W1qxNnrdKXPMJzAD0rCHxhO4QB23,,,,,,,,,,,,,,,,,,,,,,5f85f0cab3f4e20ebf578203,16:54:10,27/03/2024
html-keyboard-response,16,28428,0.0-7.0,,"<div style=""font-size:100px;"">+</div>",,delaylearn,learning,ITI,W1qxNnrdKXPMJzAD0rCHxhO4QB23,W1qxNnrdKXPMJzAD0rCHxhO4QB23,,,,,,,,,,,,,,,,,,,2231.0,,,5f85f0cab3f4e20ebf578203,16:54:10,27/03/2024
html-keyboard-response,17,28979,0.0-8.0-0.0,548.9000000357628,"<div style=""display: flex; flex-direction: column; align-items: center; margin-top: -40px;""><img src=""images/demo_images/pattern_1.png"" style=""width: 234px; height: 230px; margin-top: -50px;""><div style=""display: flex; justify-content: space-between; margin-top: 33px;""><img src=""images/demo_images/choice_trial_1.png"" style=""width: 408px; height: 417px; margin-right: 200px;""><img src=""images/demo_images/choice_trial_2.png"" style=""width: 408px; height: 417px;""></div></div>",j,delaylearn,learning,trial,W1qxNnrdKXPMJzAD0rCHxhO4QB23,W1qxNnrdKXPMJzAD0rCHxhO4QB23,2.0,images/demo_images/choice_trial_1.png,images/demo_images/choice_trial_2.png,images/demo_images/pattern_1.png,f,f,3000.0,1.0,2.0,20.0,0.0,4.0,0.0,0.0,2.0,20.0,,,,,,5f85f0cab3f4e20ebf578203,16:54:10,27/03/2024
html-keyboard-response,18,29993,0.0-8.0-1.0,,"<div style=""display: flex; flex-direction: column; align-items: center; margin-top: -40px;""><img src=""images/demo_images/pattern_1.png"" style=""width: 234px; height: 230px; margin-top: -50px;""><div style=""display: flex; justify-content: space-between; margin-top: 33px;""><img src=""images/demo_images/choice_trial_2.png"" style=""width: 408px; height: 417px; margin-left:608px;""></div></div>",,delaylearn,learning,display_response,W1qxNnrdKXPMJzAD0rCHxhO4QB23,W1qxNnrdKXPMJzAD0rCHxhO4QB23,,,,,,,,,,,,,,,,,chosen stimuli: images/demo_images/choice_trial_2.png,,,,,5f85f0cab3f4e20ebf578203,16:54:10,27/03/2024
html-keyboard-response,19,33004,0.0-8.0-2.0,,,,delaylearn,learning,feedback_duration_window,W1qxNnrdKXPMJzAD0rCHxhO4QB23,W1qxNnrdKXPMJzAD0rCHxhO4QB23,,,,,,,,,,,,,,,,,,3000.0,,,,5f85f0cab3f4e20ebf578203,16:54:10,27/03/2024
html-keyboard-response,20,34507,0.0-8.0-3.0,,<div style='margin:auto;width: auto; font-size: 150%'><span style='font-weight: bold; font-size: 100px; color: red;'>0 points!</span><br><br></div>,,delaylearn,learning,feedback_image_window,W1qxNnrdKXPMJzAD0rCHxhO4QB23,W1qxNnrdKXPMJzAD0rCHxhO4QB23,,,,,,,,,,,,,,,,,,,,,,5f85f0cab3f4e20ebf578203,16:54:10,27/03/2024
html-keyboard-response,21,35023,0.0-9.0-0.0,,,,,,mood_trial_fixation,W1qxNnrdKXPMJzAD0rCHxhO4QB23,,,,,,,,,,,,,,,,,,,,,,,5f85f0cab3f4e20ebf578203,16:54:10,27/03/2024
lmdlab-html-vas-response,22,39898,0.0-9.0-1.0,3855.0,How happy are you right now?,0.5729383362664117,delaylearn,learning,mood_trial,W1qxNnrdKXPMJzAD0rCHxhO4QB23,W1qxNnrdKXPMJzAD0rCHxhO4QB23,,,,,,,,,,,,,,,,,,,,"['Very unhappy', 'Very happy']",,5f85f0cab3f4e20ebf578203,16:54:10,27/03/2024
html-keyboard-response,23,42118,0.0-10.0,,"<div style=""font-size:100px;"">+</div>",,delaylearn,learning,ITI,W1qxNnrdKXPMJzAD0rCHxhO4QB23,W1qxNnrdKXPMJzAD0rCHxhO4QB23,,,,,,,,,,,,,,,,,,,2207.0,,,5f85f0cab3f4e20ebf578203,16:54:10,27/03/2024
html-keyboard-response,24,42806,0.0-11.0-0.0,686.3000000119209,"<div style=""display: flex; flex-direction: column; align-items: center; margin-top: -40px;""><img src=""images/demo_images/pattern_1.png"" style=""width: 234px; height: 230px; margin-top: -50px;""><div style=""display: flex; justify-content: space-between; margin-top: 33px;""><img src=""images/demo_images/choice_trial_2.png"" style=""width: 408px; height: 417px; margin-right: 200px;""><img src=""images/demo_images/choice_trial_1.png"" style=""width: 408px; height: 417px;""></div></div>",f,delaylearn,learning,trial,W1qxNnrdKXPMJzAD0rCHxhO4QB23,W1qxNnrdKXPMJzAD0rCHxhO4QB23,2.0,images/demo_images/choice_trial_2.png,images/demo_images/choice_trial_1.png,images/demo_images/pattern_1.png,j,j,3000.0,2.0,1.0,20.0,1.0,5.0,0.0,0.0,2.0,20.0,,,,,,5f85f0cab3f4e20ebf578203,16:54:10,27/03/2024
html-keyboard-response,25,43818,0.0-11.0-1.0,,"<div style=""display: flex; flex-direction: column; align-items: center; margin-top: -40px;""><img src=""images/demo_images/pattern_1.png"" style=""width: 234px; height: 230px; margin-top: -50px;""><div style=""display: flex; justify-content: space-between; margin-top: 33px;""><img src=""images/demo_images/choice_trial_2.png"" style=""width: 408px; height: 417px; margin-right: 608px;""></div></div>",,delaylearn,learning,display_response,W1qxNnrdKXPMJzAD0rCHxhO4QB23,W1qxNnrdKXPMJzAD0rCHxhO4QB23,,,,,,,,,,,,,,,,,chosen stimuli: images/demo_images/choice_trial_2.png,,,,,5f85f0cab3f4e20ebf578203,16:54:10,27/03/2024
html-keyboard-response,26,46821,0.0-11.0-2.0,,,,delaylearn,learning,feedback_duration_window,W1qxNnrdKXPMJzAD0rCHxhO4QB23,W1qxNnrdKXPMJzAD0rCHxhO4QB23,,,,,,,,,,,,,,,,,,3000.0,,,,5f85f0cab3f4e20ebf578203,16:54:10,27/03/2024
html-keyboard-response,27,48330,0.0-11.0-3.0,,<div style='margin:auto;width: auto; font-size: 150%'><span style='font-weight: bold; font-size: 100px; color: red;'>0 points!</span><br><br></div>,,delaylearn,learning,feedback_image_window,W1qxNnrdKXPMJzAD0rCHxhO4QB23,W1qxNnrdKXPMJzAD0rCHxhO4QB23,,,,,,,,,,,,,,,,,,,,,,5f85f0cab3f4e20ebf578203,16:54:10,27/03/2024
html-keyboard-response,28,50707,0.0-12.0,,"<div style=""font-size:100px;"">+</div>",,delaylearn,learning,ITI,W1qxNnrdKXPMJzAD0rCHxhO4QB23,W1qxNnrdKXPMJzAD0rCHxhO4QB23,,,,,,,,,,,,,,,,,,,2370.0,,,5f85f0cab3f4e20ebf578203,16:54:10,27/03/2024
html-keyboard-response,29,51351,0.0-13.0-0.0,642.6000000238419,"<div style=""display: flex; flex-direction: column; align-items: center; margin-top: -40px;""><img src=""images/demo_images/pattern_1.png"" style=""width: 234px; height: 230px; margin-top: -50px;""><div style=""display: flex; justify-content: space-between; margin-top: 33px;""><img src=""images/demo_images/choice_trial_1.png"" style=""width: 408px; height: 417px; margin-right: 200px;""><img src=""images/demo_images/choice_trial_2.png"" style=""width: 408px; height: 417px;""></div></div>",j,delaylearn,learning,trial,W1qxNnrdKXPMJzAD0rCHxhO4QB23,W1qxNnrdKXPMJzAD0rCHxhO4QB23,2.0,images/demo_images/choice_trial_1.png,images/demo_images/choice_trial_2.png,images/demo_images/pattern_1.png,f,f,3000.0,1.0,2.0,20.0,0.0,6.0,0.0,0.0,2.0,20.0,,,,,,5f85f0cab3f4e20ebf578203,16:54:10,27/03/2024
html-keyboard-response,30,52358,0.0-13.0-1.0,,"<div style=""display: flex; flex-direction: column; align-items: center; margin-top: -40px;""><img src=""images/demo_images/pattern_1.png"" style=""width: 234px; height: 230px; margin-top: -50px;""><div style=""display: flex; justify-content: space-between; margin-top: 33px;""><img src=""images/demo_images/choice_trial_2.png"" style=""width: 408px; height: 417px; margin-left:608px;""></div></div>",,delaylearn,learning,display_response,W1qxNnrdKXPMJzAD0rCHxhO4QB23,W1qxNnrdKXPMJzAD0rCHxhO4QB23,,,,,,,,,,,,,,,,,chosen stimuli: images/demo_images/choice_trial_2.png,,,,,5f85f0cab3f4e20ebf578203,16:54:10,27/03/2024
html-keyboard-response,31,55373,0.0-13.0-2.0,,,,delaylearn,learning,feedback_duration_window,W1qxNnrdKXPMJzAD0rCHxhO4QB23,W1qxNnrdKXPMJzAD0rCHxhO4QB23,,,,,,,,,,,,,,,,,,3000.0,,,,5f85f0cab3f4e20ebf578203,16:54:10,27/03/2024
html-keyboard-response,32,56888,0.0-13.0-3.0,,<div style='margin:auto;width: auto; font-size: 150%'><span style='font-weight: bold; font-size: 100px; color: red;'>0 points!</span><br><br></div>,,delaylearn,learning,feedback_image_window,W1qxNnrdKXPMJzAD0rCHxhO4QB23,W1qxNnrdKXPMJzAD0rCHxhO4QB23,,,,,,,,,,,,,,,,,,,,,,5f85f0cab3f4e20ebf578203,16:54:10,27/03/2024
html-keyboard-response,33,58543,0.0-14.0,,"<div style=""font-size:100px;"">+</div>",,delaylearn,learning,ITI,W1qxNnrdKXPMJzAD0rCHxhO4QB23,W1qxNnrdKXPMJzAD0rCHxhO4QB23,,,,,,,,,,,,,,,,,,,1652.0,,,5f85f0cab3f4e20ebf578203,16:54:10,27/03/2024
html-keyboard-response,34,60461,0.0-15.0-0.0,1915.699999988079,"<div style=""display: flex; flex-direction: column; align-items: center; margin-top: -40px;""><img src=""images/demo_images/pattern_1.png"" style=""width: 234px; height: 230px; margin-top: -50px;""><div style=""display: flex; justify-content: space-between; margin-top: 33px;""><img src=""images/demo_images/choice_trial_2.png"" style=""width: 408px; height: 417px; margin-right: 200px;""><img src=""images/demo_images/choice_trial_1.png"" style=""width: 408px; height: 417px;""></div></div>",j,delaylearn,learning,trial,W1qxNnrdKXPMJzAD0rCHxhO4QB23,W1qxNnrdKXPMJzAD0rCHxhO4QB23,2.0,images/demo_images/choice_trial_2.png,images/demo_images/choice_trial_1.png,images/demo_images/pattern_1.png,j,j,3000.0,2.0,1.0,20.0,1.0,7.0,1.0,1.0,1.0,30.0,,,,,,5f85f0cab3f4e20ebf578203,16:54:10,27/03/2024
html-keyboard-response,35,61465,0.0-15.0-1.0,,"<div style=""display: flex; flex-direction: column; align-items: center; margin-top: -40px;""><img src=""images/demo_images/pattern_1.png"" style=""width: 234px; height: 230px; margin-top: -50px;""><div style=""display: flex; justify-content: space-between; margin-top: 33px;""><img src=""images/demo_images/choice_trial_1.png"" style=""width: 408px; height: 417px; margin-left:608px;""></div></div>",,delaylearn,learning,display_response,W1qxNnrdKXPMJzAD0rCHxhO4QB23,W1qxNnrdKXPMJzAD0rCHxhO4QB23,,,,,,,,,,,,,,,,,chosen stimuli: images/demo_images/choice_trial_1.png,,,,,5f85f0cab3f4e20ebf578203,16:54:10,27/03/2024
html-keyboard-response,36,64478,0.0-15.0-2.0,,,,delaylearn,learning,feedback_duration_window,W1qxNnrdKXPMJzAD0rCHxhO4QB23,W1qxNnrdKXPMJzAD0rCHxhO4QB23,,,,,,,,,,,,,,,,,,3000.0,,,,5f85f0cab3f4e20ebf578203,16:54:10,27/03/2024
html-keyboard-response,37,65986,0.0-15.0-3.0,,<div style='margin:auto;width: auto; font-size: 150%'><span style='font-weight: bold; font-size: 100px; color: green;'>+10 points!</span><br><br></div>,,delaylearn,learning,feedback_image_window,W1qxNnrdKXPMJzAD0rCHxhO4QB23,W1qxNnrdKXPMJzAD0rCHxhO4QB23,,,,,,,,,,,,,,,,,,,,,,5f85f0cab3f4e20ebf578203,16:54:10,27/03/2024
html-keyboard-response,38,67999,0.0-16.0,,"<div style=""font-size:100px;"">+</div>",,delaylearn,learning,ITI,W1qxNnrdKXPMJzAD0rCHxhO4QB23,W1qxNnrdKXPMJzAD0rCHxhO4QB23,,,,,,,,,,,,,,,,,,,2000.0,,,5f85f0cab3f4e20ebf578203,16:54:10,27/03/2024
html-keyboard-response,39,68885,0.0-17.0-0.0,883.8000000119209,"<div style=""display: flex; flex-direction: column; align-items: center; margin-top: -40px;""><img src=""images/demo_images/pattern_1.png"" style=""width: 234px; height: 230px; margin-top: -50px;""><div style=""display: flex; justify-content: space-between; margin-top: 33px;""><img src=""images/demo_images/choice_trial_1.png"" style=""width: 408px; height: 417px; margin-right: 200px;""><img src=""images/demo_images/choice_trial_2.png"" style=""width: 408px; height: 417px;""></div></div>",f,delaylearn,learning,trial,W1qxNnrdKXPMJzAD0rCHxhO4QB23,W1qxNnrdKXPMJzAD0rCHxhO4QB23,2.0,images/demo_images/choice_trial_1.png,images/demo_images/choice_trial_2.png,images/demo_images/pattern_1.png,f,f,3000.0,1.0,2.0,20.0,0.0,8.0,1.0,1.0,1.0,40.0,,,,,,5f85f0cab3f4e20ebf578203,16:54:10,27/03/2024
html-keyboard-response,40,69888,0.0-17.0-1.0,,"<div style=""display: flex; flex-direction: column; align-items: center; margin-top: -40px;""><img src=""images/demo_images/pattern_1.png"" style=""width: 234px; height: 230px; margin-top: -50px;""><div style=""display: flex; justify-content: space-between; margin-top: 33px;""><img src=""images/demo_images/choice_trial_1.png"" style=""width: 408px; height: 417px; margin-right: 608px;""></div></div>",,delaylearn,learning,display_response,W1qxNnrdKXPMJzAD0rCHxhO4QB23,W1qxNnrdKXPMJzAD0rCHxhO4QB23,,,,,,,,,,,,,,,,,chosen stimuli: images/demo_images/choice_trial_1.png,,,,,5f85f0cab3f4e20ebf578203,16:54:10,27/03/2024
html-keyboard-response,41,72904,0.0-17.0-2.0,,,,delaylearn,learning,feedback_duration_window,W1qxNnrdKXPMJzAD0rCHxhO4QB23,W1qxNnrdKXPMJzAD0rCHxhO4QB23,,,,,,,,,,,,,,,,,,3000.0,,,,5f85f0cab3f4e20ebf578203,16:54:10,27/03/2024
html-keyboard-response,42,74417,0.0-17.0-3.0,,<div style='margin:auto;width: auto; font-size: 150%'><span style='font-weight: bold; font-size: 100px; color: green;'>+10 points!</span><br><br></div>,,delaylearn,learning,feedback_image_window,W1qxNnrdKXPMJzAD0rCHxhO4QB23,W1qxNnrdKXPMJzAD0rCHxhO4QB23,,,,,,,,,,,,,,,,,,,,,,5f85f0cab3f4e20ebf578203,16:54:10,27/03/2024
html-button-response,43,157859,0.0-18.0,83440.69999998808,"
  <div style=""display: flex; align-items: center; justify-content: center; height: 80vh;"">
  <div>
          <img src=""images/inst_demo_finish.png"" style=""width: 80vw; height:auto;"">
          <br><br>
      </div>
      <br><br>
  </div>",0,,,,W1qxNnrdKXPMJzAD0rCHxhO4QB23,,,,,,,,,,,,,,,,,,,,,,,5f85f0cab3f4e20ebf578203,16:54:10,27/03/2024
html-keyboard-response,44,163202,0.0-19.0,5341.600000023842,"
  <div style=""display: flex; align-items: center; justify-content: center; height: 80vh;"">
  <div>
          <img src=""images/inst_6.png"" style=""width: 80vw; height:auto;"">
          <br><br>
      </div>
      <br><br>
  </div>",f,,,,W1qxNnrdKXPMJzAD0rCHxhO4QB23,,,,,,,,,,,,,,,,,,,,,,,5f85f0cab3f4e20ebf578203,16:54:10,27/03/2024
html-keyboard-response,45,166208,0.0-20.0,,"<div style=""font-size:100px;"">+</div>",,delaylearn,learning,pre_fixation,W1qxNnrdKXPMJzAD0rCHxhO4QB23,,,,,,,,,,,,,,,,,,,,,,,5f85f0cab3f4e20ebf578203,16:54:10,27/03/2024
html-keyboard-response,46,168539,0.0-21.0,,"<div style=""font-size:100px;"">+</div>",,delaylearn,learning,ITI,W1qxNnrdKXPMJzAD0rCHxhO4QB23,W1qxNnrdKXPMJzAD0rCHxhO4QB23,,,,,,,,,,,,,,,,,,,2322.0,,,5f85f0cab3f4e20ebf578203,16:54:10,27/03/2024
html-keyboard-response,47,169282,0.0-22.0-0.0,742.5999999642372,"<div style=""display: flex; flex-direction: column; align-items: center; margin-top: -40px;""><img src=""images/pattern_3.png"" style=""width: 234px; height: 230px; margin-top: -50px;""><div style=""display: flex; justify-content: space-between; margin-top: 33px;""><img src=""images/choice_trial_12.png"" style=""width: 408px; height: 417px; margin-right: 200px;""><img src=""images/choice_trial_14.png"" style=""width: 408px; height: 417px;""></div></div>",f,delaylearn,learning,trial,W1qxNnrdKXPMJzAD0rCHxhO4QB23,W1qxNnrdKXPMJzAD0rCHxhO4QB23,2.0,images/choice_trial_12.png,images/choice_trial_14.png,images/pattern_3.png,f,f,7000.0,12.0,14.0,2.0,0.0,9.0,1.0,1.0,12.0,50.0,,,,,,5f85f0cab3f4e20ebf578203,16:54:10,27/03/2024
html-keyboard-response,48,170286,0.0-22.0-1.0,,"<div style=""display: flex; flex-direction: column; align-items: center; margin-top: -40px;""><img src=""images/pattern_3.png"" style=""width: 234px; height: 230px; margin-top: -50px;""><div style=""display: flex; justify-content: space-between; margin-top: 33px;""><img src=""images/choice_trial_12.png"" style=""width: 408px; height: 417px; margin-right: 608px;""></div></div>",,delaylearn,learning,display_response,W1qxNnrdKXPMJzAD0rCHxhO4QB23,W1qxNnrdKXPMJzAD0rCHxhO4QB23,,,,,,,,,,,,,,,,,chosen stimuli: images/choice_trial_12.png,,,,,5f85f0cab3f4e20ebf578203,16:54:10,27/03/2024
html-keyboard-response,49,177290,0.0-22.0-2.0,,,,delaylearn,learning,feedback_duration_window,W1qxNnrdKXPMJzAD0rCHxhO4QB23,W1qxNnrdKXPMJzAD0rCHxhO4QB23,,,,,,,,,,,,,,,,,,7000.0,,,,5f85f0cab3f4e20ebf578203,16:54:10,27/03/2024
html-keyboard-response,50,178804,0.0-22.0-3.0,,<div style='margin:auto;width: auto; font-size: 150%'><span style='font-weight: bold; font-size: 100px; color: green;'>+10 points!</span><br><br></div>,,delaylearn,learning,feedback_image_window,W1qxNnrdKXPMJzAD0rCHxhO4QB23,W1qxNnrdKXPMJzAD0rCHxhO4QB23,,,,,,,,,,,,,,,,,,,,,,5f85f0cab3f4e20ebf578203,16:54:10,27/03/2024
html-keyboard-response,51,181180,0.0-23.0,,"<div style=""font-size:100px;"">+</div>",,delaylearn,learning,ITI,W1qxNnrdKXPMJzAD0rCHxhO4QB23,W1qxNnrdKXPMJzAD0rCHxhO4QB23,,,,,,,,,,,,,,,,,,,2372.0,,,5f85f0cab3f4e20ebf578203,16:54:10,27/03/2024
html-keyboard-response,52,182486,0.0-24.0-0.0,1304.199999988079,"<div style=""display: flex; flex-direction: column; align-items: center; margin-top: -40px;""><img src=""images/pattern_7.png"" style=""width: 234px; height: 230px; margin-top: -50px;""><div style=""display: flex; justify-content: space-between; margin-top: 33px;""><img src=""images/choice_trial_15.png"" style=""width: 408px; height: 417px; margin-right: 200px;""><img src=""images/choice_trial_8.png"" style=""width: 408px; height: 417px;""></div></div>",j,delaylearn,learning,trial,W1qxNnrdKXPMJzAD0rCHxhO4QB23,W1qxNnrdKXPMJzAD0rCHxhO4QB23,2.0,images/choice_trial_15.png,images/choice_trial_8.png,images/pattern_7.png,j,j,750.0,15.0,8.0,6.0,1.0,10.0,1.0,1.0,8.0,60.0,,,,,,5f85f0cab3f4e20ebf578203,16:54:10,27/03/2024
html-keyboard-response,53,183501,0.0-24.0-1.0,,"<div style=""display: flex; flex-direction: column; align-items: center; margin-top: -40px;""><img src=""images/pattern_7.png"" style=""width: 234px; height: 230px; margin-top: -50px;""><div style=""display: flex; justify-content: space-between; margin-top: 33px;""><img src=""images/choice_trial_8.png"" style=""width: 408px; height: 417px; margin-left:608px;""></div></div>",,delaylearn,learning,display_response,W1qxNnrdKXPMJzAD0rCHxhO4QB23,W1qxNnrdKXPMJzAD0rCHxhO4QB23,,,,,,,,,,,,,,,,,chosen stimuli: images/choice_trial_8.png,,,,,5f85f0cab3f4e20ebf578203,16:54:10,27/03/2024
html-keyboard-response,54,184266,0.0-24.0-2.0,,,,delaylearn,learning,feedback_duration_window,W1qxNnrdKXPMJzAD0rCHxhO4QB23,W1qxNnrdKXPMJzAD0rCHxhO4QB23,,,,,,,,,,,,,,,,,,750.0,,,,5f85f0cab3f4e20ebf578203,16:54:10,27/03/2024
html-keyboard-response,55,185774,0.0-24.0-3.0,,<div style='margin:auto;width: auto; font-size: 150%'><span style='font-weight: bold; font-size: 100px; color: green;'>+10 points!</span><br><br></div>,,delaylearn,learning,feedback_image_window,W1qxNnrdKXPMJzAD0rCHxhO4QB23,W1qxNnrdKXPMJzAD0rCHxhO4QB23,,,,,,,,,,,,,,,,,,,,,,5f85f0cab3f4e20ebf578203,16:54:10,27/03/2024
html-keyboard-response,56,187467,0.0-25.0,,"<div style=""font-size:100px;"">+</div>",,delaylearn,learning,ITI,W1qxNnrdKXPMJzAD0rCHxhO4QB23,W1qxNnrdKXPMJzAD0rCHxhO4QB23,,,,,,,,,,,,,,,,,,,1691.0,,,5f85f0cab3f4e20ebf578203,16:54:10,27/03/2024
html-keyboard-response,57,188842,0.0-26.0-0.0,1373.5,"<div style=""display: flex; flex-direction: column; align-items: center; margin-top: -40px;""><img src=""images/pattern_4.png"" style=""width: 234px; height: 230px; margin-top: -50px;""><div style=""display: flex; justify-content: space-between; margin-top: 33px;""><img src=""images/choice_trial_4.png"" style=""width: 408px; height: 417px; margin-right: 200px;""><img src=""images/choice_trial_16.png"" style=""width: 408px; height: 417px;""></div></div>",j,delaylearn,learning,trial,W1qxNnrdKXPMJzAD0rCHxhO4QB23,W1qxNnrdKXPMJzAD0rCHxhO4QB23,2.0,images/choice_trial_4.png,images/choice_trial_16.png,images/pattern_4.png,f,f,7000.0,4.0,16.0,3.0,0.0,11.0,0.0,0.0,16.0,60.0,,,,,,5f85f0cab3f4e20ebf578203,16:54:10,27/03/2024
html-keyboard-response,58,189854,0.0-26.0-1.0,,"<div style=""display: flex; flex-direction: column; align-items: center; margin-top: -40px;""><img src=""images/pattern_4.png"" style=""width: 234px; height: 230px; margin-top: -50px;""><div style=""display: flex; justify-content: space-between; margin-top: 33px;""><img src=""images/choice_trial_16.png"" style=""width: 408px; height: 417px; margin-left:608px;""></div></div>",,delaylearn,learning,display_response,W1qxNnrdKXPMJzAD0rCHxhO4QB23,W1qxNnrdKXPMJzAD0rCHxhO4QB23,,,,,,,,,,,,,,,,,chosen stimuli: images/choice_trial_16.png,,,,,5f85f0cab3f4e20ebf578203,16:54:10,27/03/2024
html-keyboard-response,59,196867,0.0-26.0-2.0,,,,delaylearn,learning,feedback_duration_window,W1qxNnrdKXPMJzAD0rCHxhO4QB23,W1qxNnrdKXPMJzAD0rCHxhO4QB23,,,,,,,,,,,,,,,,,,7000.0,,,,5f85f0cab3f4e20ebf578203,16:54:10,27/03/2024
html-keyboard-response,60,198378,0.0-26.0-3.0,,<div style='margin:auto;width: auto; font-size: 150%'><span style='font-weight: bold; font-size: 100px; color: red;'>0 points!</span><br><br></div>,,delaylearn,learning,feedback_image_window,W1qxNnrdKXPMJzAD0rCHxhO4QB23,W1qxNnrdKXPMJzAD0rCHxhO4QB23,,,,,,,,,,,,,,,,,,,,,,5f85f0cab3f4e20ebf578203,16:54:10,27/03/2024
html-keyboard-response,61,200505,0.0-27.0,,"<div style=""font-size:100px;"">+</div>",,delaylearn,learning,ITI,W1qxNnrdKXPMJzAD0rCHxhO4QB23,W1qxNnrdKXPMJzAD0rCHxhO4QB23,,,,,,,,,,,,,,,,,,,2113.0,,,5f85f0cab3f4e20ebf578203,16:54:10,27/03/2024
html-keyboard-response,62,201595,0.0-28.0-0.0,1089.5,"<div style=""display: flex; flex-direction: column; align-items: center; margin-top: -40px;""><img src=""images/pattern_5.png"" style=""width: 234px; height: 230px; margin-top: -50px;""><div style=""display: flex; justify-content: space-between; margin-top: 33px;""><img src=""images/choice_trial_9.png"" style=""width: 408px; height: 417px; margin-right: 200px;""><img src=""images/choice_trial_2.png"" style=""width: 408px; height: 417px;""></div></div>",f,delaylearn,learning,trial,W1qxNnrdKXPMJzAD0rCHxhO4QB23,W1qxNnrdKXPMJzAD0rCHxhO4QB23,2.0,images/choice_trial_9.png,images/choice_trial_2.png,images/pattern_5.png,j,j,750.0,9.0,2.0,4.0,1.0,12.0,0.0,0.0,9.0,60.0,,,,,,5f85f0cab3f4e20ebf578203,16:54:10,27/03/2024
html-keyboard-response,63,202600,0.0-28.0-1.0,,"<div style=""display: flex; flex-direction: column; align-items: center; margin-top: -40px;""><img src=""images/pattern_5.png"" style=""width: 234px; height: 230px; margin-top: -50px;""><div style=""display: flex; justify-content: space-between; margin-top: 33px;""><img src=""images/choice_trial_9.png"" style=""width: 408px; height: 417px; margin-right: 608px;""></div></div>",,delaylearn,learning,display_response,W1qxNnrdKXPMJzAD0rCHxhO4QB23,W1qxNnrdKXPMJzAD0rCHxhO4QB23,,,,,,,,,,,,,,,,,chosen stimuli: images/choice_trial_9.png,,,,,5f85f0cab3f4e20ebf578203,16:54:10,27/03/2024
html-keyboard-response,64,203361,0.0-28.0-2.0,,,,delaylearn,learning,feedback_duration_window,W1qxNnrdKXPMJzAD0rCHxhO4QB23,W1qxNnrdKXPMJzAD0rCHxhO4QB23,,,,,,,,,,,,,,,,,,750.0,,,,5f85f0cab3f4e20ebf578203,16:54:10,27/03/2024
html-keyboard-response,65,204871,0.0-28.0-3.0,,<div style='margin:auto;width: auto; font-size: 150%'><span style='font-weight: bold; font-size: 100px; color: red;'>0 points!</span><br><br></div>,,delaylearn,learning,feedback_image_window,W1qxNnrdKXPMJzAD0rCHxhO4QB23,W1qxNnrdKXPMJzAD0rCHxhO4QB23,,,,,,,,,,,,,,,,,,,,,,5f85f0cab3f4e20ebf578203,16:54:10,27/03/2024
html-keyboard-response,66,207119,0.0-29.0,,"<div style=""font-size:100px;"">+</div>",,delaylearn,learning,ITI,W1qxNnrdKXPMJzAD0rCHxhO4QB23,W1qxNnrdKXPMJzAD0rCHxhO4QB23,,,,,,,,,,,,,,,,,,,2231.0,,,5f85f0cab3f4e20ebf578203,16:54:10,27/03/2024
html-keyboard-response,67,208683,0.0-30.0-0.0,1563.1000000238419,"<div style=""display: flex; flex-direction: column; align-items: center; margin-top: -40px;""><img src=""images/pattern_6.png"" style=""width: 234px; height: 230px; margin-top: -50px;""><div style=""display: flex; justify-content: space-between; margin-top: 33px;""><img src=""images/choice_trial_11.png"" style=""width: 408px; height: 417px; margin-right: 200px;""><img src=""images/choice_trial_5.png"" style=""width: 408px; height: 417px;""></div></div>",j,delaylearn,learning,trial,W1qxNnrdKXPMJzAD0rCHxhO4QB23,W1qxNnrdKXPMJzAD0rCHxhO4QB23,2.0,images/choice_trial_11.png,images/choice_trial_5.png,images/pattern_6.png,j,f,750.0,11.0,5.0,5.0,0.0,13.0,0.0,1.0,5.0,70.0,,,,,,5f85f0cab3f4e20ebf578203,16:54:10,27/03/2024
html-keyboard-response,68,209685,0.0-30.0-1.0,,"<div style=""display: flex; flex-direction: column; align-items: center; margin-top: -40px;""><img src=""images/pattern_6.png"" style=""width: 234px; height: 230px; margin-top: -50px;""><div style=""display: flex; justify-content: space-between; margin-top: 33px;""><img src=""images/choice_trial_5.png"" style=""width: 408px; height: 417px; margin-left:608px;""></div></div>",,delaylearn,learning,display_response,W1qxNnrdKXPMJzAD0rCHxhO4QB23,W1qxNnrdKXPMJzAD0rCHxhO4QB23,,,,,,,,,,,,,,,,,chosen stimuli: images/choice_trial_5.png,,,,,5f85f0cab3f4e20ebf578203,16:54:10,27/03/2024
html-keyboard-response,69,210448,0.0-30.0-2.0,,,,delaylearn,learning,feedback_duration_window,W1qxNnrdKXPMJzAD0rCHxhO4QB23,W1qxNnrdKXPMJzAD0rCHxhO4QB23,,,,,,,,,,,,,,,,,,750.0,,,,5f85f0cab3f4e20ebf578203,16:54:10,27/03/2024
html-keyboard-response,70,211960,0.0-30.0-3.0,,<div style='margin:auto;width: auto; font-size: 150%'><span style='font-weight: bold; font-size: 100px; color: green;'>+10 points!</span><br><br></div>,,delaylearn,learning,feedback_image_window,W1qxNnrdKXPMJzAD0rCHxhO4QB23,W1qxNnrdKXPMJzAD0rCHxhO4QB23,,,,,,,,,,,,,,,,,,,,,,5f85f0cab3f4e20ebf578203,16:54:10,27/03/2024
html-keyboard-response,71,212462,0.0-31.0-0.0,,,,,,mood_trial_fixation,W1qxNnrdKXPMJzAD0rCHxhO4QB23,,,,,,,,,,,,,,,,,,,,,,,5f85f0cab3f4e20ebf578203,16:54:10,27/03/2024
lmdlab-html-vas-response,72,217122,0.0-31.0-1.0,3646.0,How happy are you right now?,0.35939666959974503,delaylearn,learning,mood_trial,W1qxNnrdKXPMJzAD0rCHxhO4QB23,W1qxNnrdKXPMJzAD0rCHxhO4QB23,,,,,,,,,,,,,,,,,,,,"['Very unhappy', 'Very happy']",,5f85f0cab3f4e20ebf578203,16:54:10,27/03/2024
html-keyboard-response,73,218893,0.0-32.0,,"<div style=""font-size:100px;"">+</div>",,delaylearn,learning,ITI,W1qxNnrdKXPMJzAD0rCHxhO4QB23,W1qxNnrdKXPMJzAD0rCHxhO4QB23,,,,,,,,,,,,,,,,,,,1760.0,,,5f85f0cab3f4e20ebf578203,16:54:10,27/03/2024
html-keyboard-response,74,219852,0.0-33.0-0.0,957.0,"<div style=""display: flex; flex-direction: column; align-items: center; margin-top: -40px;""><img src=""images/pattern_1.png"" style=""width: 234px; height: 230px; margin-top: -50px;""><div style=""display: flex; justify-content: space-between; margin-top: 33px;""><img src=""images/choice_trial_10.png"" style=""width: 408px; height: 417px; margin-right: 200px;""><img src=""images/choice_trial_3.png"" style=""width: 408px; height: 417px;""></div></div>",f,delaylearn,learning,trial,W1qxNnrdKXPMJzAD0rCHxhO4QB23,W1qxNnrdKXPMJzAD0rCHxhO4QB23,2.0,images/choice_trial_10.png,images/choice_trial_3.png,images/pattern_1.png,j,j,7000.0,10.0,3.0,1.0,1.0,14.0,0.0,0.0,10.0,70.0,,,,,,5f85f0cab3f4e20ebf578203,16:54:10,27/03/2024
html-keyboard-response,75,220858,0.0-33.0-1.0,,"<div style=""display: flex; flex-direction: column; align-items: center; margin-top: -40px;""><img src=""images/pattern_1.png"" style=""width: 234px; height: 230px; margin-top: -50px;""><div style=""display: flex; justify-content: space-between; margin-top: 33px;""><img src=""images/choice_trial_10.png"" style=""width: 408px; height: 417px; margin-right: 608px;""></div></div>",,delaylearn,learning,display_response,W1qxNnrdKXPMJzAD0rCHxhO4QB23,W1qxNnrdKXPMJzAD0rCHxhO4QB23,,,,,,,,,,,,,,,,,chosen stimuli: images/choice_trial_10.png,,,,,5f85f0cab3f4e20ebf578203,16:54:10,27/03/2024
html-keyboard-response,76,227873,0.0-33.0-2.0,,,,delaylearn,learning,feedback_duration_window,W1qxNnrdKXPMJzAD0rCHxhO4QB23,W1qxNnrdKXPMJzAD0rCHxhO4QB23,,,,,,,,,,,,,,,,,,7000.0,,,,5f85f0cab3f4e20ebf578203,16:54:10,27/03/2024
html-keyboard-response,77,229374,0.0-33.0-3.0,,<div style='margin:auto;width: auto; font-size: 150%'><span style='font-weight: bold; font-size: 100px; color: red;'>0 points!</span><br><br></div>,,delaylearn,learning,feedback_image_window,W1qxNnrdKXPMJzAD0rCHxhO4QB23,W1qxNnrdKXPMJzAD0rCHxhO4QB23,,,,,,,,,,,,,,,,,,,,,,5f85f0cab3f4e20ebf578203,16:54:10,27/03/2024
html-keyboard-response,78,231760,0.0-34.0,,"<div style=""font-size:100px;"">+</div>",,delaylearn,learning,ITI,W1qxNnrdKXPMJzAD0rCHxhO4QB23,W1qxNnrdKXPMJzAD0rCHxhO4QB23,,,,,,,,,,,,,,,,,,,2373.0,,,5f85f0cab3f4e20ebf578203,16:54:10,27/03/2024
html-keyboard-response,79,232200,0.0-35.0-0.0,438.30000001192093,"<div style=""display: flex; flex-direction: column; align-items: center; margin-top: -40px;""><img src=""images/pattern_3.png"" style=""width: 234px; height: 230px; margin-top: -50px;""><div style=""display: flex; justify-content: space-between; margin-top: 33px;""><img src=""images/choice_trial_14.png"" style=""width: 408px; height: 417px; margin-right: 200px;""><img src=""images/choice_trial_12.png"" style=""width: 408px; height: 417px;""></div></div>",j,delaylearn,learning,trial,W1qxNnrdKXPMJzAD0rCHxhO4QB23,W1qxNnrdKXPMJzAD0rCHxhO4QB23,2.0,images/choice_trial_14.png,images/choice_trial_12.png,images/pattern_3.png,f,j,7000.0,14.0,12.0,2.0,1.0,15.0,1.0,0.0,12.0,70.0,,,,,,5f85f0cab3f4e20ebf578203,16:54:10,27/03/2024
html-keyboard-response,80,233203,0.0-35.0-1.0,,"<div style=""display: flex; flex-direction: column; align-items: center; margin-top: -40px;""><img src=""images/pattern_3.png"" style=""width: 234px; height: 230px; margin-top: -50px;""><div style=""display: flex; justify-content: space-between; margin-top: 33px;""><img src=""images/choice_trial_12.png"" style=""width: 408px; height: 417px; margin-left:608px;""></div></div>",,delaylearn,learning,display_response,W1qxNnrdKXPMJzAD0rCHxhO4QB23,W1qxNnrdKXPMJzAD0rCHxhO4QB23,,,,,,,,,,,,,,,,,chosen stimuli: images/choice_trial_12.png,,,,,5f85f0cab3f4e20ebf578203,16:54:10,27/03/2024
html-keyboard-response,81,240218,0.0-35.0-2.0,,,,delaylearn,learning,feedback_duration_window,W1qxNnrdKXPMJzAD0rCHxhO4QB23,W1qxNnrdKXPMJzAD0rCHxhO4QB23,,,,,,,,,,,,,,,,,,7000.0,,,,5f85f0cab3f4e20ebf578203,16:54:10,27/03/2024
html-keyboard-response,82,241730,0.0-35.0-3.0,,<div style='margin:auto;width: auto; font-size: 150%'><span style='font-weight: bold; font-size: 100px; color: red;'>0 points!</span><br><br></div>,,delaylearn,learning,feedback_image_window,W1qxNnrdKXPMJzAD0rCHxhO4QB23,W1qxNnrdKXPMJzAD0rCHxhO4QB23,,,,,,,,,,,,,,,,,,,,,,5f85f0cab3f4e20ebf578203,16:54:10,27/03/2024
html-keyboard-response,83,243632,0.0-36.0,,"<div style=""font-size:100px;"">+</div>",,delaylearn,learning,ITI,W1qxNnrdKXPMJzAD0rCHxhO4QB23,W1qxNnrdKXPMJzAD0rCHxhO4QB23,,,,,,,,,,,,,,,,,,,1900.0,,,5f85f0cab3f4e20ebf578203,16:54:10,27/03/2024
html-keyboard-response,84,243994,0.0-37.0-0.0,361.2000000476837,"<div style=""display: flex; flex-direction: column; align-items: center; margin-top: -40px;""><img src=""images/pattern_5.png"" style=""width: 234px; height: 230px; margin-top: -50px;""><div style=""display: flex; justify-content: space-between; margin-top: 33px;""><img src=""images/choice_trial_2.png"" style=""width: 408px; height: 417px; margin-right: 200px;""><img src=""images/choice_trial_9.png"" style=""width: 408px; height: 417px;""></div></div>",f,delaylearn,learning,trial,W1qxNnrdKXPMJzAD0rCHxhO4QB23,W1qxNnrdKXPMJzAD0rCHxhO4QB23,2.0,images/choice_trial_2.png,images/choice_trial_9.png,images/pattern_5.png,f,f,750.0,2.0,9.0,4.0,0.0,16.0,1.0,1.0,2.0,80.0,,,,,,5f85f0cab3f4e20ebf578203,16:54:10,27/03/2024
html-keyboard-response,85,244996,0.0-37.0-1.0,,"<div style=""display: flex; flex-direction: column; align-items: center; margin-top: -40px;""><img src=""images/pattern_5.png"" style=""width: 234px; height: 230px; margin-top: -50px;""><div style=""display: flex; justify-content: space-between; margin-top: 33px;""><img src=""images/choice_trial_2.png"" style=""width: 408px; height: 417px; margin-right: 608px;""></div></div>",,delaylearn,learning,display_response,W1qxNnrdKXPMJzAD0rCHxhO4QB23,W1qxNnrdKXPMJzAD0rCHxhO4QB23,,,,,,,,,,,,,,,,,chosen stimuli: images/choice_trial_2.png,,,,,5f85f0cab3f4e20ebf578203,16:54:10,27/03/2024
html-keyboard-response,86,245759,0.0-37.0-2.0,,,,delaylearn,learning,feedback_duration_window,W1qxNnrdKXPMJzAD0rCHxhO4QB23,W1qxNnrdKXPMJzAD0rCHxhO4QB23,,,,,,,,,,,,,,,,,,750.0,,,,5f85f0cab3f4e20ebf578203,16:54:10,27/03/2024
html-keyboard-response,87,247271,0.0-37.0-3.0,,<div style='margin:auto;width: auto; font-size: 150%'><span style='font-weight: bold; font-size: 100px; color: green;'>+10 points!</span><br><br></div>,,delaylearn,learning,feedback_image_window,W1qxNnrdKXPMJzAD0rCHxhO4QB23,W1qxNnrdKXPMJzAD0rCHxhO4QB23,,,,,,,,,,,,,,,,,,,,,,5f85f0cab3f4e20ebf578203,16:54:10,27/03/2024
html-keyboard-response,88,247774,0.0-38.0-0.0,,,,,,mood_trial_fixation,W1qxNnrdKXPMJzAD0rCHxhO4QB23,,,,,,,,,,,,,,,,,,,,,,,5f85f0cab3f4e20ebf578203,16:54:10,27/03/2024
lmdlab-html-vas-response,89,251881,0.0-38.0-1.0,3094.0,How happy are you right now?,0.33856333626641166,delaylearn,learning,mood_trial,W1qxNnrdKXPMJzAD0rCHxhO4QB23,W1qxNnrdKXPMJzAD0rCHxhO4QB23,,,,,,,,,,,,,,,,,,,,"['Very unhappy', 'Very happy']",,5f85f0cab3f4e20ebf578203,16:54:10,27/03/2024
html-keyboard-response,90,253819,0.0-39.0,,"<div style=""font-size:100px;"">+</div>",,delaylearn,learning,ITI,W1qxNnrdKXPMJzAD0rCHxhO4QB23,W1qxNnrdKXPMJzAD0rCHxhO4QB23,,,,,,,,,,,,,,,,,,,1926.0,,,5f85f0cab3f4e20ebf578203,16:54:10,27/03/2024
html-keyboard-response,91,254974,0.0-40.0-0.0,1153.2000000476837,"<div style=""display: flex; flex-direction: column; align-items: center; margin-top: -40px;""><img src=""images/pattern_6.png"" style=""width: 234px; height: 230px; margin-top: -50px;""><div style=""display: flex; justify-content: space-between; margin-top: 33px;""><img src=""images/choice_trial_11.png"" style=""width: 408px; height: 417px; margin-right: 200px;""><img src=""images/choice_trial_5.png"" style=""width: 408px; height: 417px;""></div></div>",j,delaylearn,learning,trial,W1qxNnrdKXPMJzAD0rCHxhO4QB23,W1qxNnrdKXPMJzAD0rCHxhO4QB23,2.0,images/choice_trial_11.png,images/choice_trial_5.png,images/pattern_6.png,f,f,750.0,11.0,5.0,5.0,0.0,17.0,0.0,0.0,5.0,80.0,,,,,,5f85f0cab3f4e20ebf578203,16:54:10,27/03/2024
html-keyboard-response,92,255987,0.0-40.0-1.0,,"<div style=""display: flex; flex-direction: column; align-items: center; margin-top: -40px;""><img src=""images/pattern_6.png"" style=""width: 234px; height: 230px; margin-top: -50px;""><div style=""display: flex; justify-content: space-between; margin-top: 33px;""><img src=""images/choice_trial_5.png"" style=""width: 408px; height: 417px; margin-left:608px;""></div></div>",,delaylearn,learning,display_response,W1qxNnrdKXPMJzAD0rCHxhO4QB23,W1qxNnrdKXPMJzAD0rCHxhO4QB23,,,,,,,,,,,,,,,,,chosen stimuli: images/choice_trial_5.png,,,,,5f85f0cab3f4e20ebf578203,16:54:10,27/03/2024
html-keyboard-response,93,256747,0.0-40.0-2.0,,,,delaylearn,learning,feedback_duration_window,W1qxNnrdKXPMJzAD0rCHxhO4QB23,W1qxNnrdKXPMJzAD0rCHxhO4QB23,,,,,,,,,,,,,,,,,,750.0,,,,5f85f0cab3f4e20ebf578203,16:54:10,27/03/2024
html-keyboard-response,94,258258,0.0-40.0-3.0,,<div style='margin:auto;width: auto; font-size: 150%'><span style='font-weight: bold; font-size: 100px; color: red;'>0 points!</span><br><br></div>,,delaylearn,learning,feedback_image_window,W1qxNnrdKXPMJzAD0rCHxhO4QB23,W1qxNnrdKXPMJzAD0rCHxhO4QB23,,,,,,,,,,,,,,,,,,,,,,5f85f0cab3f4e20ebf578203,16:54:10,27/03/2024
html-keyboard-response,95,260519,0.0-41.0,,"<div style=""font-size:100px;"">+</div>",,delaylearn,learning,ITI,W1qxNnrdKXPMJzAD0rCHxhO4QB23,W1qxNnrdKXPMJzAD0rCHxhO4QB23,,,,,,,,,,,,,,,,,,,2245.0,,,5f85f0cab3f4e20ebf578203,16:54:10,27/03/2024
html-keyboard-response,96,261209,0.0-42.0-0.0,687.6999999880791,"<div style=""display: flex; flex-direction: column; align-items: center; margin-top: -40px;""><img src=""images/pattern_4.png"" style=""width: 234px; height: 230px; margin-top: -50px;""><div style=""display: flex; justify-content: space-between; margin-top: 33px;""><img src=""images/choice_trial_16.png"" style=""width: 408px; height: 417px; margin-right: 200px;""><img src=""images/choice_trial_4.png"" style=""width: 408px; height: 417px;""></div></div>",f,delaylearn,learning,trial,W1qxNnrdKXPMJzAD0rCHxhO4QB23,W1qxNnrdKXPMJzAD0rCHxhO4QB23,2.0,images/choice_trial_16.png,images/choice_trial_4.png,images/pattern_4.png,j,j,7000.0,16.0,4.0,3.0,1.0,18.0,0.0,0.0,16.0,80.0,,,,,,5f85f0cab3f4e20ebf578203,16:54:10,27/03/2024
html-keyboard-response,97,262214,0.0-42.0-1.0,,"<div style=""display: flex; flex-direction: column; align-items: center; margin-top: -40px;""><img src=""images/pattern_4.png"" style=""width: 234px; height: 230px; margin-top: -50px;""><div style=""display: flex; justify-content: space-between; margin-top: 33px;""><img src=""images/choice_trial_16.png"" style=""width: 408px; height: 417px; margin-right: 608px;""></div></div>",,delaylearn,learning,display_response,W1qxNnrdKXPMJzAD0rCHxhO4QB23,W1qxNnrdKXPMJzAD0rCHxhO4QB23,,,,,,,,,,,,,,,,,chosen stimuli: images/choice_trial_16.png,,,,,5f85f0cab3f4e20ebf578203,16:54:10,27/03/2024
html-keyboard-response,98,269219,0.0-42.0-2.0,,,,delaylearn,learning,feedback_duration_window,W1qxNnrdKXPMJzAD0rCHxhO4QB23,W1qxNnrdKXPMJzAD0rCHxhO4QB23,,,,,,,,,,,,,,,,,,7000.0,,,,5f85f0cab3f4e20ebf578203,16:54:10,27/03/2024
html-keyboard-response,99,270736,0.0-42.0-3.0,,<div style='margin:auto;width: auto; font-size: 150%'><span style='font-weight: bold; font-size: 100px; color: red;'>0 points!</span><br><br></div>,,delaylearn,learning,feedback_image_window,W1qxNnrdKXPMJzAD0rCHxhO4QB23,W1qxNnrdKXPMJzAD0rCHxhO4QB23,,,,,,,,,,,,,,,,,,,,,,5f85f0cab3f4e20ebf578203,16:54:10,27/03/2024
html-keyboard-response,100,273119,0.0-43.0,,"<div style=""font-size:100px;"">+</div>",,delaylearn,learning,ITI,W1qxNnrdKXPMJzAD0rCHxhO4QB23,W1qxNnrdKXPMJzAD0rCHxhO4QB23,,,,,,,,,,,,,,,,,,,2379.0,,,5f85f0cab3f4e20ebf578203,16:54:10,27/03/2024
html-keyboard-response,101,273845,0.0-44.0-0.0,724.0999999642372,"<div style=""display: flex; flex-direction: column; align-items: center; margin-top: -40px;""><img src=""images/pattern_7.png"" style=""width: 234px; height: 230px; margin-top: -50px;""><div style=""display: flex; justify-content: space-between; margin-top: 33px;""><img src=""images/choice_trial_8.png"" style=""width: 408px; height: 417px; margin-right: 200px;""><img src=""images/choice_trial_15.png"" style=""width: 408px; height: 417px;""></div></div>",j,delaylearn,learning,trial,W1qxNnrdKXPMJzAD0rCHxhO4QB23,W1qxNnrdKXPMJzAD0rCHxhO4QB23,2.0,images/choice_trial_8.png,images/choice_trial_15.png,images/pattern_7.png,j,f,750.0,8.0,15.0,6.0,0.0,19.0,0.0,1.0,15.0,90.0,,,,,,5f85f0cab3f4e20ebf578203,16:54:10,27/03/2024
html-keyboard-response,102,274847,0.0-44.0-1.0,,"<div style=""display: flex; flex-direction: column; align-items: center; margin-top: -40px;""><img src=""images/pattern_7.png"" style=""width: 234px; height: 230px; margin-top: -50px;""><div style=""display: flex; justify-content: space-between; margin-top: 33px;""><img src=""images/choice_trial_15.png"" style=""width: 408px; height: 417px; margin-left:608px;""></div></div>",,delaylearn,learning,display_response,W1qxNnrdKXPMJzAD0rCHxhO4QB23,W1qxNnrdKXPMJzAD0rCHxhO4QB23,,,,,,,,,,,,,,,,,chosen stimuli: images/choice_trial_15.png,,,,,5f85f0cab3f4e20ebf578203,16:54:10,27/03/2024
html-keyboard-response,103,275610,0.0-44.0-2.0,,,,delaylearn,learning,feedback_duration_window,W1qxNnrdKXPMJzAD0rCHxhO4QB23,W1qxNnrdKXPMJzAD0rCHxhO4QB23,,,,,,,,,,,,,,,,,,750.0,,,,5f85f0cab3f4e20ebf578203,16:54:10,27/03/2024
html-keyboard-response,104,277123,0.0-44.0-3.0,,<div style='margin:auto;width: auto; font-size: 150%'><span style='font-weight: bold; font-size: 100px; color: green;'>+10 points!</span><br><br></div>,,delaylearn,learning,feedback_image_window,W1qxNnrdKXPMJzAD0rCHxhO4QB23,W1qxNnrdKXPMJzAD0rCHxhO4QB23,,,,,,,,,,,,,,,,,,,,,,5f85f0cab3f4e20ebf578203,16:54:10,27/03/2024
html-keyboard-response,105,278751,0.0-45.0,,"<div style=""font-size:100px;"">+</div>",,delaylearn,learning,ITI,W1qxNnrdKXPMJzAD0rCHxhO4QB23,W1qxNnrdKXPMJzAD0rCHxhO4QB23,,,,,,,,,,,,,,,,,,,1617.0,,,5f85f0cab3f4e20ebf578203,16:54:10,27/03/2024
html-keyboard-response,106,279397,0.0-46.0-0.0,644.0,"<div style=""display: flex; flex-direction: column; align-items: center; margin-top: -40px;""><img src=""images/pattern_1.png"" style=""width: 234px; height: 230px; margin-top: -50px;""><div style=""display: flex; justify-content: space-between; margin-top: 33px;""><img src=""images/choice_trial_3.png"" style=""width: 408px; height: 417px; margin-right: 200px;""><img src=""images/choice_trial_10.png"" style=""width: 408px; height: 417px;""></div></div>",j,delaylearn,learning,trial,W1qxNnrdKXPMJzAD0rCHxhO4QB23,W1qxNnrdKXPMJzAD0rCHxhO4QB23,2.0,images/choice_trial_3.png,images/choice_trial_10.png,images/pattern_1.png,f,f,7000.0,3.0,10.0,1.0,0.0,20.0,0.0,0.0,10.0,90.0,,,,,,5f85f0cab3f4e20ebf578203,16:54:10,27/03/2024
html-keyboard-response,107,280413,0.0-46.0-1.0,,"<div style=""display: flex; flex-direction: column; align-items: center; margin-top: -40px;""><img src=""images/pattern_1.png"" style=""width: 234px; height: 230px; margin-top: -50px;""><div style=""display: flex; justify-content: space-between; margin-top: 33px;""><img src=""images/choice_trial_10.png"" style=""width: 408px; height: 417px; margin-left:608px;""></div></div>",,delaylearn,learning,display_response,W1qxNnrdKXPMJzAD0rCHxhO4QB23,W1qxNnrdKXPMJzAD0rCHxhO4QB23,,,,,,,,,,,,,,,,,chosen stimuli: images/choice_trial_10.png,,,,,5f85f0cab3f4e20ebf578203,16:54:10,27/03/2024
html-keyboard-response,108,287426,0.0-46.0-2.0,,,,delaylearn,learning,feedback_duration_window,W1qxNnrdKXPMJzAD0rCHxhO4QB23,W1qxNnrdKXPMJzAD0rCHxhO4QB23,,,,,,,,,,,,,,,,,,7000.0,,,,5f85f0cab3f4e20ebf578203,16:54:10,27/03/2024
html-keyboard-response,109,288932,0.0-46.0-3.0,,<div style='margin:auto;width: auto; font-size: 150%'><span style='font-weight: bold; font-size: 100px; color: red;'>0 points!</span><br><br></div>,,delaylearn,learning,feedback_image_window,W1qxNnrdKXPMJzAD0rCHxhO4QB23,W1qxNnrdKXPMJzAD0rCHxhO4QB23,,,,,,,,,,,,,,,,,,,,,,5f85f0cab3f4e20ebf578203,16:54:10,27/03/2024
html-keyboard-response,110,290493,0.0-47.0,,"<div style=""font-size:100px;"">+</div>",,delaylearn,learning,ITI,W1qxNnrdKXPMJzAD0rCHxhO4QB23,W1qxNnrdKXPMJzAD0rCHxhO4QB23,,,,,,,,,,,,,,,,,,,1549.0,,,5f85f0cab3f4e20ebf578203,16:54:10,27/03/2024
html-keyboard-response,111,291363,0.0-48.0-0.0,869.1000000238419,"<div style=""display: flex; flex-direction: column; align-items: center; margin-top: -40px;""><img src=""images/pattern_6.png"" style=""width: 234px; height: 230px; margin-top: -50px;""><div style=""display: flex; justify-content: space-between; margin-top: 33px;""><img src=""images/choice_trial_5.png"" style=""width: 408px; height: 417px; margin-right: 200px;""><img src=""images/choice_trial_11.png"" style=""width: 408px; height: 417px;""></div></div>",f,delaylearn,learning,trial,W1qxNnrdKXPMJzAD0rCHxhO4QB23,W1qxNnrdKXPMJzAD0rCHxhO4QB23,2.0,images/choice_trial_5.png,images/choice_trial_11.png,images/pattern_6.png,j,j,750.0,5.0,11.0,5.0,1.0,21.0,0.0,0.0,5.0,90.0,,,,,,5f85f0cab3f4e20ebf578203,16:54:10,27/03/2024
html-keyboard-response,112,292364,0.0-48.0-1.0,,"<div style=""display: flex; flex-direction: column; align-items: center; margin-top: -40px;""><img src=""images/pattern_6.png"" style=""width: 234px; height: 230px; margin-top: -50px;""><div style=""display: flex; justify-content: space-between; margin-top: 33px;""><img src=""images/choice_trial_5.png"" style=""width: 408px; height: 417px; margin-right: 608px;""></div></div>",,delaylearn,learning,display_response,W1qxNnrdKXPMJzAD0rCHxhO4QB23,W1qxNnrdKXPMJzAD0rCHxhO4QB23,,,,,,,,,,,,,,,,,chosen stimuli: images/choice_trial_5.png,,,,,5f85f0cab3f4e20ebf578203,16:54:10,27/03/2024
html-keyboard-response,113,293123,0.0-48.0-2.0,,,,delaylearn,learning,feedback_duration_window,W1qxNnrdKXPMJzAD0rCHxhO4QB23,W1qxNnrdKXPMJzAD0rCHxhO4QB23,,,,,,,,,,,,,,,,,,750.0,,,,5f85f0cab3f4e20ebf578203,16:54:10,27/03/2024
html-keyboard-response,114,294636,0.0-48.0-3.0,,<div style='margin:auto;width: auto; font-size: 150%'><span style='font-weight: bold; font-size: 100px; color: red;'>0 points!</span><br><br></div>,,delaylearn,learning,feedback_image_window,W1qxNnrdKXPMJzAD0rCHxhO4QB23,W1qxNnrdKXPMJzAD0rCHxhO4QB23,,,,,,,,,,,,,,,,,,,,,,5f85f0cab3f4e20ebf578203,16:54:10,27/03/2024
html-keyboard-response,115,296251,0.0-49.0,,"<div style=""font-size:100px;"">+</div>",,delaylearn,learning,ITI,W1qxNnrdKXPMJzAD0rCHxhO4QB23,W1qxNnrdKXPMJzAD0rCHxhO4QB23,,,,,,,,,,,,,,,,,,,1610.0,,,5f85f0cab3f4e20ebf578203,16:54:10,27/03/2024
html-keyboard-response,116,296893,0.0-50.0-0.0,640.1000000238419,"<div style=""display: flex; flex-direction: column; align-items: center; margin-top: -40px;""><img src=""images/pattern_4.png"" style=""width: 234px; height: 230px; margin-top: -50px;""><div style=""display: flex; justify-content: space-between; margin-top: 33px;""><img src=""images/choice_trial_4.png"" style=""width: 408px; height: 417px; margin-right: 200px;""><img src=""images/choice_trial_16.png"" style=""width: 408px; height: 417px;""></div></div>",j,delaylearn,learning,trial,W1qxNnrdKXPMJzAD0rCHxhO4QB23,W1qxNnrdKXPMJzAD0rCHxhO4QB23,2.0,images/choice_trial_4.png,images/choice_trial_16.png,images/pattern_4.png,f,f,7000.0,4.0,16.0,3.0,0.0,22.0,0.0,0.0,16.0,90.0,,,,,,5f85f0cab3f4e20ebf578203,16:54:10,27/03/2024
html-keyboard-response,117,297897,0.0-50.0-1.0,,"<div style=""display: flex; flex-direction: column; align-items: center; margin-top: -40px;""><img src=""images/pattern_4.png"" style=""width: 234px; height: 230px; margin-top: -50px;""><div style=""display: flex; justify-content: space-between; margin-top: 33px;""><img src=""images/choice_trial_16.png"" style=""width: 408px; height: 417px; margin-left:608px;""></div></div>",,delaylearn,learning,display_response,W1qxNnrdKXPMJzAD0rCHxhO4QB23,W1qxNnrdKXPMJzAD0rCHxhO4QB23,,,,,,,,,,,,,,,,,chosen stimuli: images/choice_trial_16.png,,,,,5f85f0cab3f4e20ebf578203,16:54:10,27/03/2024
html-keyboard-response,118,304906,0.0-50.0-2.0,,,,delaylearn,learning,feedback_duration_window,W1qxNnrdKXPMJzAD0rCHxhO4QB23,W1qxNnrdKXPMJzAD0rCHxhO4QB23,,,,,,,,,,,,,,,,,,7000.0,,,,5f85f0cab3f4e20ebf578203,16:54:10,27/03/2024
html-keyboard-response,119,306414,0.0-50.0-3.0,,<div style='margin:auto;width: auto; font-size: 150%'><span style='font-weight: bold; font-size: 100px; color: red;'>0 points!</span><br><br></div>,,delaylearn,learning,feedback_image_window,W1qxNnrdKXPMJzAD0rCHxhO4QB23,W1qxNnrdKXPMJzAD0rCHxhO4QB23,,,,,,,,,,,,,,,,,,,,,,5f85f0cab3f4e20ebf578203,16:54:10,27/03/2024
html-keyboard-response,120,306915,0.0-51.0-0.0,,,,,,mood_trial_fixation,W1qxNnrdKXPMJzAD0rCHxhO4QB23,,,,,,,,,,,,,,,,,,,,,,,5f85f0cab3f4e20ebf578203,16:54:10,27/03/2024
lmdlab-html-vas-response,121,311072,0.0-51.0-1.0,3149.0,How happy are you right now?,0.04168833626641168,delaylearn,learning,mood_trial,W1qxNnrdKXPMJzAD0rCHxhO4QB23,W1qxNnrdKXPMJzAD0rCHxhO4QB23,,,,,,,,,,,,,,,,,,,,"['Very unhappy', 'Very happy']",,5f85f0cab3f4e20ebf578203,16:54:10,27/03/2024
html-keyboard-response,122,313364,0.0-52.0,,"<div style=""font-size:100px;"">+</div>",,delaylearn,learning,ITI,W1qxNnrdKXPMJzAD0rCHxhO4QB23,W1qxNnrdKXPMJzAD0rCHxhO4QB23,,,,,,,,,,,,,,,,,,,2280.0,,,5f85f0cab3f4e20ebf578203,16:54:10,27/03/2024
html-keyboard-response,123,314079,0.0-53.0-0.0,712.8000000119209,"<div style=""display: flex; flex-direction: column; align-items: center; margin-top: -40px;""><img src=""images/pattern_7.png"" style=""width: 234px; height: 230px; margin-top: -50px;""><div style=""display: flex; justify-content: space-between; margin-top: 33px;""><img src=""images/choice_trial_15.png"" style=""width: 408px; height: 417px; margin-right: 200px;""><img src=""images/choice_trial_8.png"" style=""width: 408px; height: 417px;""></div></div>",f,delaylearn,learning,trial,W1qxNnrdKXPMJzAD0rCHxhO4QB23,W1qxNnrdKXPMJzAD0rCHxhO4QB23,2.0,images/choice_trial_15.png,images/choice_trial_8.png,images/pattern_7.png,j,j,750.0,15.0,8.0,6.0,1.0,23.0,0.0,0.0,15.0,90.0,,,,,,5f85f0cab3f4e20ebf578203,16:54:10,27/03/2024
html-keyboard-response,124,315093,0.0-53.0-1.0,,"<div style=""display: flex; flex-direction: column; align-items: center; margin-top: -40px;""><img src=""images/pattern_7.png"" style=""width: 234px; height: 230px; margin-top: -50px;""><div style=""display: flex; justify-content: space-between; margin-top: 33px;""><img src=""images/choice_trial_15.png"" style=""width: 408px; height: 417px; margin-right: 608px;""></div></div>",,delaylearn,learning,display_response,W1qxNnrdKXPMJzAD0rCHxhO4QB23,W1qxNnrdKXPMJzAD0rCHxhO4QB23,,,,,,,,,,,,,,,,,chosen stimuli: images/choice_trial_15.png,,,,,5f85f0cab3f4e20ebf578203,16:54:10,27/03/2024
html-keyboard-response,125,315858,0.0-53.0-2.0,,,,delaylearn,learning,feedback_duration_window,W1qxNnrdKXPMJzAD0rCHxhO4QB23,W1qxNnrdKXPMJzAD0rCHxhO4QB23,,,,,,,,,,,,,,,,,,750.0,,,,5f85f0cab3f4e20ebf578203,16:54:10,27/03/2024
html-keyboard-response,126,317363,0.0-53.0-3.0,,<div style='margin:auto;width: auto; font-size: 150%'><span style='font-weight: bold; font-size: 100px; color: red;'>0 points!</span><br><br></div>,,delaylearn,learning,feedback_image_window,W1qxNnrdKXPMJzAD0rCHxhO4QB23,W1qxNnrdKXPMJzAD0rCHxhO4QB23,,,,,,,,,,,,,,,,,,,,,,5f85f0cab3f4e20ebf578203,16:54:10,27/03/2024
html-keyboard-response,127,319190,0.0-54.0,,"<div style=""font-size:100px;"">+</div>",,delaylearn,learning,ITI,W1qxNnrdKXPMJzAD0rCHxhO4QB23,W1qxNnrdKXPMJzAD0rCHxhO4QB23,,,,,,,,,,,,,,,,,,,1812.0,,,5f85f0cab3f4e20ebf578203,16:54:10,27/03/2024
html-keyboard-response,128,319845,0.0-55.0-0.0,653.4000000357628,"<div style=""display: flex; flex-direction: column; align-items: center; margin-top: -40px;""><img src=""images/pattern_1.png"" style=""width: 234px; height: 230px; margin-top: -50px;""><div style=""display: flex; justify-content: space-between; margin-top: 33px;""><img src=""images/choice_trial_10.png"" style=""width: 408px; height: 417px; margin-right: 200px;""><img src=""images/choice_trial_3.png"" style=""width: 408px; height: 417px;""></div></div>",f,delaylearn,learning,trial,W1qxNnrdKXPMJzAD0rCHxhO4QB23,W1qxNnrdKXPMJzAD0rCHxhO4QB23,2.0,images/choice_trial_10.png,images/choice_trial_3.png,images/pattern_1.png,f,j,7000.0,10.0,3.0,1.0,1.0,24.0,0.0,1.0,10.0,100.0,,,,,,5f85f0cab3f4e20ebf578203,16:54:10,27/03/2024
html-keyboard-response,129,320862,0.0-55.0-1.0,,"<div style=""display: flex; flex-direction: column; align-items: center; margin-top: -40px;""><img src=""images/pattern_1.png"" style=""width: 234px; height: 230px; margin-top: -50px;""><div style=""display: flex; justify-content: space-between; margin-top: 33px;""><img src=""images/choice_trial_10.png"" style=""width: 408px; height: 417px; margin-right: 608px;""></div></div>",,delaylearn,learning,display_response,W1qxNnrdKXPMJzAD0rCHxhO4QB23,W1qxNnrdKXPMJzAD0rCHxhO4QB23,,,,,,,,,,,,,,,,,chosen stimuli: images/choice_trial_10.png,,,,,5f85f0cab3f4e20ebf578203,16:54:10,27/03/2024
html-keyboard-response,130,327875,0.0-55.0-2.0,,,,delaylearn,learning,feedback_duration_window,W1qxNnrdKXPMJzAD0rCHxhO4QB23,W1qxNnrdKXPMJzAD0rCHxhO4QB23,,,,,,,,,,,,,,,,,,7000.0,,,,5f85f0cab3f4e20ebf578203,16:54:10,27/03/2024
html-keyboard-response,131,329384,0.0-55.0-3.0,,<div style='margin:auto;width: auto; font-size: 150%'><span style='font-weight: bold; font-size: 100px; color: green;'>+10 points!</span><br><br></div>,,delaylearn,learning,feedback_image_window,W1qxNnrdKXPMJzAD0rCHxhO4QB23,W1qxNnrdKXPMJzAD0rCHxhO4QB23,,,,,,,,,,,,,,,,,,,,,,5f85f0cab3f4e20ebf578203,16:54:10,27/03/2024
html-keyboard-response,132,331231,0.0-56.0,,"<div style=""font-size:100px;"">+</div>",,delaylearn,learning,ITI,W1qxNnrdKXPMJzAD0rCHxhO4QB23,W1qxNnrdKXPMJzAD0rCHxhO4QB23,,,,,,,,,,,,,,,,,,,1831.0,,,5f85f0cab3f4e20ebf578203,16:54:10,27/03/2024
html-keyboard-response,133,332239,0.0-57.0-0.0,1006.3000000119209,"<div style=""display: flex; flex-direction: column; align-items: center; margin-top: -40px;""><img src=""images/pattern_5.png"" style=""width: 234px; height: 230px; margin-top: -50px;""><div style=""display: flex; justify-content: space-between; margin-top: 33px;""><img src=""images/choice_trial_9.png"" style=""width: 408px; height: 417px; margin-right: 200px;""><img src=""images/choice_trial_2.png"" style=""width: 408px; height: 417px;""></div></div>",j,delaylearn,learning,trial,W1qxNnrdKXPMJzAD0rCHxhO4QB23,W1qxNnrdKXPMJzAD0rCHxhO4QB23,2.0,images/choice_trial_9.png,images/choice_trial_2.png,images/pattern_5.png,j,j,750.0,9.0,2.0,4.0,1.0,25.0,1.0,1.0,2.0,110.0,,,,,,5f85f0cab3f4e20ebf578203,16:54:10,27/03/2024
html-keyboard-response,134,333242,0.0-57.0-1.0,,"<div style=""display: flex; flex-direction: column; align-items: center; margin-top: -40px;""><img src=""images/pattern_5.png"" style=""width: 234px; height: 230px; margin-top: -50px;""><div style=""display: flex; justify-content: space-between; margin-top: 33px;""><img src=""images/choice_trial_2.png"" style=""width: 408px; height: 417px; margin-left:608px;""></div></div>",,delaylearn,learning,display_response,W1qxNnrdKXPMJzAD0rCHxhO4QB23,W1qxNnrdKXPMJzAD0rCHxhO4QB23,,,,,,,,,,,,,,,,,chosen stimuli: images/choice_trial_2.png,,,,,5f85f0cab3f4e20ebf578203,16:54:10,27/03/2024
html-keyboard-response,135,334005,0.0-57.0-2.0,,,,delaylearn,learning,feedback_duration_window,W1qxNnrdKXPMJzAD0rCHxhO4QB23,W1qxNnrdKXPMJzAD0rCHxhO4QB23,,,,,,,,,,,,,,,,,,750.0,,,,5f85f0cab3f4e20ebf578203,16:54:10,27/03/2024
html-keyboard-response,136,335517,0.0-57.0-3.0,,<div style='margin:auto;width: auto; font-size: 150%'><span style='font-weight: bold; font-size: 100px; color: green;'>+10 points!</span><br><br></div>,,delaylearn,learning,feedback_image_window,W1qxNnrdKXPMJzAD0rCHxhO4QB23,W1qxNnrdKXPMJzAD0rCHxhO4QB23,,,,,,,,,,,,,,,,,,,,,,5f85f0cab3f4e20ebf578203,16:54:10,27/03/2024
html-keyboard-response,137,337272,0.0-58.0,,"<div style=""font-size:100px;"">+</div>",,delaylearn,learning,ITI,W1qxNnrdKXPMJzAD0rCHxhO4QB23,W1qxNnrdKXPMJzAD0rCHxhO4QB23,,,,,,,,,,,,,,,,,,,1741.0,,,5f85f0cab3f4e20ebf578203,16:54:10,27/03/2024
html-keyboard-response,138,337681,0.0-59.0-0.0,406.7000000476837,"<div style=""display: flex; flex-direction: column; align-items: center; margin-top: -40px;""><img src=""images/pattern_3.png"" style=""width: 234px; height: 230px; margin-top: -50px;""><div style=""display: flex; justify-content: space-between; margin-top: 33px;""><img src=""images/choice_trial_14.png"" style=""width: 408px; height: 417px; margin-right: 200px;""><img src=""images/choice_trial_12.png"" style=""width: 408px; height: 417px;""></div></div>",f,delaylearn,learning,trial,W1qxNnrdKXPMJzAD0rCHxhO4QB23,W1qxNnrdKXPMJzAD0rCHxhO4QB23,2.0,images/choice_trial_14.png,images/choice_trial_12.png,images/pattern_3.png,j,j,7000.0,14.0,12.0,2.0,1.0,26.0,0.0,0.0,14.0,110.0,,,,,,5f85f0cab3f4e20ebf578203,16:54:10,27/03/2024
html-keyboard-response,139,338693,0.0-59.0-1.0,,"<div style=""display: flex; flex-direction: column; align-items: center; margin-top: -40px;""><img src=""images/pattern_3.png"" style=""width: 234px; height: 230px; margin-top: -50px;""><div style=""display: flex; justify-content: space-between; margin-top: 33px;""><img src=""images/choice_trial_14.png"" style=""width: 408px; height: 417px; margin-right: 608px;""></div></div>",,delaylearn,learning,display_response,W1qxNnrdKXPMJzAD0rCHxhO4QB23,W1qxNnrdKXPMJzAD0rCHxhO4QB23,,,,,,,,,,,,,,,,,chosen stimuli: images/choice_trial_14.png,,,,,5f85f0cab3f4e20ebf578203,16:54:10,27/03/2024
html-keyboard-response,140,345697,0.0-59.0-2.0,,,,delaylearn,learning,feedback_duration_window,W1qxNnrdKXPMJzAD0rCHxhO4QB23,W1qxNnrdKXPMJzAD0rCHxhO4QB23,,,,,,,,,,,,,,,,,,7000.0,,,,5f85f0cab3f4e20ebf578203,16:54:10,27/03/2024
html-keyboard-response,141,347210,0.0-59.0-3.0,,<div style='margin:auto;width: auto; font-size: 150%'><span style='font-weight: bold; font-size: 100px; color: red;'>0 points!</span><br><br></div>,,delaylearn,learning,feedback_image_window,W1qxNnrdKXPMJzAD0rCHxhO4QB23,W1qxNnrdKXPMJzAD0rCHxhO4QB23,,,,,,,,,,,,,,,,,,,,,,5f85f0cab3f4e20ebf578203,16:54:10,27/03/2024
lmdlab-html-vas-response,142,353254,0.0-60.0-0.0,4531.0,*How <b><u>confident</u></b> are you feeling about your answers at this moment?*,0.125,rewlearn,rate_confidence,,W1qxNnrdKXPMJzAD0rCHxhO4QB23,W1qxNnrdKXPMJzAD0rCHxhO4QB23,,,,,,,,,,,,,,,,,,,,"['No confidence', 'Complete confidence']",,5f85f0cab3f4e20ebf578203,16:54:10,27/03/2024
lmdlab-rest-trial-limit,143,458410,0.0-60.0-1.0,103648.10000002384,"<div style=""font-size:40px;""><b>Please take a break!</b><br><br><br><br><p>Great work: you earned 110 points.<br><br><br><p>You have completed part(s) 1 of 5.<br><br><br><br>When you are ready to continue<br><br><br>please click the button.</p><br><br>",0,delaylearn,learning,break,W1qxNnrdKXPMJzAD0rCHxhO4QB23,W1qxNnrdKXPMJzAD0rCHxhO4QB23,,,,,,,,,,,,,,,,,,,,,0.0,5f85f0cab3f4e20ebf578203,16:54:10,27/03/2024
html-keyboard-response,144,461418,0.0-60.0-2.0,,"<div style=""font-size:100px;"">+</div>",,delaylearn,learning,pre_fixation,W1qxNnrdKXPMJzAD0rCHxhO4QB23,,,,,,,,,,,,,,,,,,,,,,,5f85f0cab3f4e20ebf578203,16:54:10,27/03/2024
lmdlab-html-vas-response,145,465697,0.0-60.0-3.0-0.0,3260.0,How happy are you right now?,0.19620222515530056,delaylearn,learning,mood_baseline,W1qxNnrdKXPMJzAD0rCHxhO4QB23,W1qxNnrdKXPMJzAD0rCHxhO4QB23,,,,,,,,,,,,,,,,,,,,"['Very unhappy', 'Very happy']",,5f85f0cab3f4e20ebf578203,16:54:10,27/03/2024
html-keyboard-response,146,467210,0.0-60.0-3.0-1.0,,,,,,mood_baseline_fixation,W1qxNnrdKXPMJzAD0rCHxhO4QB23,,,,,,,,,,,,,,,,,,,,,,,5f85f0cab3f4e20ebf578203,16:54:10,27/03/2024
html-keyboard-response,147,469283,0.0-61.0,,"<div style=""font-size:100px;"">+</div>",,delaylearn,learning,ITI,W1qxNnrdKXPMJzAD0rCHxhO4QB23,W1qxNnrdKXPMJzAD0rCHxhO4QB23,,,,,,,,,,,,,,,,,,,2056.0,,,5f85f0cab3f4e20ebf578203,16:54:10,27/03/2024
html-keyboard-response,148,470207,0.0-62.0-0.0,922.0,"<div style=""display: flex; flex-direction: column; align-items: center; margin-top: -40px;""><img src=""images/pattern_7.png"" style=""width: 234px; height: 230px; margin-top: -50px;""><div style=""display: flex; justify-content: space-between; margin-top: 33px;""><img src=""images/choice_trial_15.png"" style=""width: 408px; height: 417px; margin-right: 200px;""><img src=""images/choice_trial_8.png"" style=""width: 408px; height: 417px;""></div></div>",j,delaylearn,learning,trial,W1qxNnrdKXPMJzAD0rCHxhO4QB23,W1qxNnrdKXPMJzAD0rCHxhO4QB23,2.0,images/choice_trial_15.png,images/choice_trial_8.png,images/pattern_7.png,j,j,750.0,15.0,8.0,6.0,1.0,27.0,1.0,1.0,8.0,120.0,,,,,,5f85f0cab3f4e20ebf578203,16:54:10,27/03/2024
html-keyboard-response,149,471210,0.0-62.0-1.0,,"<div style=""display: flex; flex-direction: column; align-items: center; margin-top: -40px;""><img src=""images/pattern_7.png"" style=""width: 234px; height: 230px; margin-top: -50px;""><div style=""display: flex; justify-content: space-between; margin-top: 33px;""><img src=""images/choice_trial_8.png"" style=""width: 408px; height: 417px; margin-left:608px;""></div></div>",,delaylearn,learning,display_response,W1qxNnrdKXPMJzAD0rCHxhO4QB23,W1qxNnrdKXPMJzAD0rCHxhO4QB23,,,,,,,,,,,,,,,,,chosen stimuli: images/choice_trial_8.png,,,,,5f85f0cab3f4e20ebf578203,16:54:10,27/03/2024
html-keyboard-response,150,471968,0.0-62.0-2.0,,,,delaylearn,learning,feedback_duration_window,W1qxNnrdKXPMJzAD0rCHxhO4QB23,W1qxNnrdKXPMJzAD0rCHxhO4QB23,,,,,,,,,,,,,,,,,,750.0,,,,5f85f0cab3f4e20ebf578203,16:54:10,27/03/2024
html-keyboard-response,151,473484,0.0-62.0-3.0,,<div style='margin:auto;width: auto; font-size: 150%'><span style='font-weight: bold; font-size: 100px; color: green;'>+10 points!</span><br><br></div>,,delaylearn,learning,feedback_image_window,W1qxNnrdKXPMJzAD0rCHxhO4QB23,W1qxNnrdKXPMJzAD0rCHxhO4QB23,,,,,,,,,,,,,,,,,,,,,,5f85f0cab3f4e20ebf578203,16:54:10,27/03/2024
html-keyboard-response,152,473999,0.0-63.0-0.0,,,,,,mood_trial_fixation,W1qxNnrdKXPMJzAD0rCHxhO4QB23,,,,,,,,,,,,,,,,,,,,,,,5f85f0cab3f4e20ebf578203,16:54:10,27/03/2024
lmdlab-html-vas-response,153,478271,0.0-63.0-1.0,3265.0,How happy are you right now?,0.9722438918219672,delaylearn,learning,mood_trial,W1qxNnrdKXPMJzAD0rCHxhO4QB23,W1qxNnrdKXPMJzAD0rCHxhO4QB23,,,,,,,,,,,,,,,,,,,,"['Very unhappy', 'Very happy']",,5f85f0cab3f4e20ebf578203,16:54:10,27/03/2024
html-keyboard-response,154,480596,0.0-64.0,,"<div style=""font-size:100px;"">+</div>",,delaylearn,learning,ITI,W1qxNnrdKXPMJzAD0rCHxhO4QB23,W1qxNnrdKXPMJzAD0rCHxhO4QB23,,,,,,,,,,,,,,,,,,,2310.0,,,5f85f0cab3f4e20ebf578203,16:54:10,27/03/2024
html-keyboard-response,155,482064,0.0-65.0-0.0,1465.199999988079,"<div style=""display: flex; flex-direction: column; align-items: center; margin-top: -40px;""><img src=""images/pattern_1.png"" style=""width: 234px; height: 230px; margin-top: -50px;""><div style=""display: flex; justify-content: space-between; margin-top: 33px;""><img src=""images/choice_trial_3.png"" style=""width: 408px; height: 417px; margin-right: 200px;""><img src=""images/choice_trial_10.png"" style=""width: 408px; height: 417px;""></div></div>",f,delaylearn,learning,trial,W1qxNnrdKXPMJzAD0rCHxhO4QB23,W1qxNnrdKXPMJzAD0rCHxhO4QB23,2.0,images/choice_trial_3.png,images/choice_trial_10.png,images/pattern_1.png,f,f,7000.0,3.0,10.0,1.0,0.0,28.0,1.0,1.0,3.0,130.0,,,,,,5f85f0cab3f4e20ebf578203,16:54:10,27/03/2024
html-keyboard-response,156,483081,0.0-65.0-1.0,,"<div style=""display: flex; flex-direction: column; align-items: center; margin-top: -40px;""><img src=""images/pattern_1.png"" style=""width: 234px; height: 230px; margin-top: -50px;""><div style=""display: flex; justify-content: space-between; margin-top: 33px;""><img src=""images/choice_trial_3.png"" style=""width: 408px; height: 417px; margin-right: 608px;""></div></div>",,delaylearn,learning,display_response,W1qxNnrdKXPMJzAD0rCHxhO4QB23,W1qxNnrdKXPMJzAD0rCHxhO4QB23,,,,,,,,,,,,,,,,,chosen stimuli: images/choice_trial_3.png,,,,,5f85f0cab3f4e20ebf578203,16:54:10,27/03/2024
html-keyboard-response,157,490087,0.0-65.0-2.0,,,,delaylearn,learning,feedback_duration_window,W1qxNnrdKXPMJzAD0rCHxhO4QB23,W1qxNnrdKXPMJzAD0rCHxhO4QB23,,,,,,,,,,,,,,,,,,7000.0,,,,5f85f0cab3f4e20ebf578203,16:54:10,27/03/2024
html-keyboard-response,158,491598,0.0-65.0-3.0,,<div style='margin:auto;width: auto; font-size: 150%'><span style='font-weight: bold; font-size: 100px; color: green;'>+10 points!</span><br><br></div>,,delaylearn,learning,feedback_image_window,W1qxNnrdKXPMJzAD0rCHxhO4QB23,W1qxNnrdKXPMJzAD0rCHxhO4QB23,,,,,,,,,,,,,,,,,,,,,,5f85f0cab3f4e20ebf578203,16:54:10,27/03/2024
html-keyboard-response,159,493490,0.0-66.0,,"<div style=""font-size:100px;"">+</div>",,delaylearn,learning,ITI,W1qxNnrdKXPMJzAD0rCHxhO4QB23,W1qxNnrdKXPMJzAD0rCHxhO4QB23,,,,,,,,,,,,,,,,,,,1880.0,,,5f85f0cab3f4e20ebf578203,16:54:10,27/03/2024
html-keyboard-response,160,495036,0.0-67.0-0.0,1543.800000011921,"<div style=""display: flex; flex-direction: column; align-items: center; margin-top: -40px;""><img src=""images/pattern_5.png"" style=""width: 234px; height: 230px; margin-top: -50px;""><div style=""display: flex; justify-content: space-between; margin-top: 33px;""><img src=""images/choice_trial_2.png"" style=""width: 408px; height: 417px; margin-right: 200px;""><img src=""images/choice_trial_9.png"" style=""width: 408px; height: 417px;""></div></div>",f,delaylearn,learning,trial,W1qxNnrdKXPMJzAD0rCHxhO4QB23,W1qxNnrdKXPMJzAD0rCHxhO4QB23,2.0,images/choice_trial_2.png,images/choice_trial_9.png,images/pattern_5.png,f,f,750.0,2.0,9.0,4.0,0.0,29.0,1.0,1.0,2.0,140.0,,,,,,5f85f0cab3f4e20ebf578203,16:54:10,27/03/2024
html-keyboard-response,161,496040,0.0-67.0-1.0,,"<div style=""display: flex; flex-direction: column; align-items: center; margin-top: -40px;""><img src=""images/pattern_5.png"" style=""width: 234px; height: 230px; margin-top: -50px;""><div style=""display: flex; justify-content: space-between; margin-top: 33px;""><img src=""images/choice_trial_2.png"" style=""width: 408px; height: 417px; margin-right: 608px;""></div></div>",,delaylearn,learning,display_response,W1qxNnrdKXPMJzAD0rCHxhO4QB23,W1qxNnrdKXPMJzAD0rCHxhO4QB23,,,,,,,,,,,,,,,,,chosen stimuli: images/choice_trial_2.png,,,,,5f85f0cab3f4e20ebf578203,16:54:10,27/03/2024
html-keyboard-response,162,496806,0.0-67.0-2.0,,,,delaylearn,learning,feedback_duration_window,W1qxNnrdKXPMJzAD0rCHxhO4QB23,W1qxNnrdKXPMJzAD0rCHxhO4QB23,,,,,,,,,,,,,,,,,,750.0,,,,5f85f0cab3f4e20ebf578203,16:54:10,27/03/2024
html-keyboard-response,163,498318,0.0-67.0-3.0,,<div style='margin:auto;width: auto; font-size: 150%'><span style='font-weight: bold; font-size: 100px; color: green;'>+10 points!</span><br><br></div>,,delaylearn,learning,feedback_image_window,W1qxNnrdKXPMJzAD0rCHxhO4QB23,W1qxNnrdKXPMJzAD0rCHxhO4QB23,,,,,,,,,,,,,,,,,,,,,,5f85f0cab3f4e20ebf578203,16:54:10,27/03/2024
html-keyboard-response,164,500624,0.0-68.0,,"<div style=""font-size:100px;"">+</div>",,delaylearn,learning,ITI,W1qxNnrdKXPMJzAD0rCHxhO4QB23,W1qxNnrdKXPMJzAD0rCHxhO4QB23,,,,,,,,,,,,,,,,,,,2291.0,,,5f85f0cab3f4e20ebf578203,16:54:10,27/03/2024
html-keyboard-response,165,502271,0.0-69.0-0.0,1643.6000000238419,"<div style=""display: flex; flex-direction: column; align-items: center; margin-top: -40px;""><img src=""images/pattern_6.png"" style=""width: 234px; height: 230px; margin-top: -50px;""><div style=""display: flex; justify-content: space-between; margin-top: 33px;""><img src=""images/choice_trial_5.png"" style=""width: 408px; height: 417px; margin-right: 200px;""><img src=""images/choice_trial_11.png"" style=""width: 408px; height: 417px;""></div></div>",j,delaylearn,learning,trial,W1qxNnrdKXPMJzAD0rCHxhO4QB23,W1qxNnrdKXPMJzAD0rCHxhO4QB23,2.0,images/choice_trial_5.png,images/choice_trial_11.png,images/pattern_6.png,j,j,750.0,5.0,11.0,5.0,1.0,30.0,1.0,1.0,11.0,150.0,,,,,,5f85f0cab3f4e20ebf578203,16:54:10,27/03/2024
html-keyboard-response,166,503278,0.0-69.0-1.0,,"<div style=""display: flex; flex-direction: column; align-items: center; margin-top: -40px;""><img src=""images/pattern_6.png"" style=""width: 234px; height: 230px; margin-top: -50px;""><div style=""display: flex; justify-content: space-between; margin-top: 33px;""><img src=""images/choice_trial_11.png"" style=""width: 408px; height: 417px; margin-left:608px;""></div></div>",,delaylearn,learning,display_response,W1qxNnrdKXPMJzAD0rCHxhO4QB23,W1qxNnrdKXPMJzAD0rCHxhO4QB23,,,,,,,,,,,,,,,,,chosen stimuli: images/choice_trial_11.png,,,,,5f85f0cab3f4e20ebf578203,16:54:10,27/03/2024
html-keyboard-response,167,504043,0.0-69.0-2.0,,,,delaylearn,learning,feedback_duration_window,W1qxNnrdKXPMJzAD0rCHxhO4QB23,W1qxNnrdKXPMJzAD0rCHxhO4QB23,,,,,,,,,,,,,,,,,,750.0,,,,5f85f0cab3f4e20ebf578203,16:54:10,27/03/2024
html-keyboard-response,168,505551,0.0-69.0-3.0,,<div style='margin:auto;width: auto; font-size: 150%'><span style='font-weight: bold; font-size: 100px; color: green;'>+10 points!</span><br><br></div>,,delaylearn,learning,feedback_image_window,W1qxNnrdKXPMJzAD0rCHxhO4QB23,W1qxNnrdKXPMJzAD0rCHxhO4QB23,,,,,,,,,,,,,,,,,,,,,,5f85f0cab3f4e20ebf578203,16:54:10,27/03/2024
html-keyboard-response,169,506056,0.0-70.0-0.0,,,,,,mood_trial_fixation,W1qxNnrdKXPMJzAD0rCHxhO4QB23,,,,,,,,,,,,,,,,,,,,,,,5f85f0cab3f4e20ebf578203,16:54:10,27/03/2024
lmdlab-html-vas-response,170,510397,0.0-70.0-1.0,3330.0,How happy are you right now?,0.9635633362664117,delaylearn,learning,mood_trial,W1qxNnrdKXPMJzAD0rCHxhO4QB23,W1qxNnrdKXPMJzAD0rCHxhO4QB23,,,,,,,,,,,,,,,,,,,,"['Very unhappy', 'Very happy']",,5f85f0cab3f4e20ebf578203,16:54:10,27/03/2024
html-keyboard-response,171,512027,0.0-71.0,,"<div style=""font-size:100px;"">+</div>",,delaylearn,learning,ITI,W1qxNnrdKXPMJzAD0rCHxhO4QB23,W1qxNnrdKXPMJzAD0rCHxhO4QB23,,,,,,,,,,,,,,,,,,,1618.0,,,5f85f0cab3f4e20ebf578203,16:54:10,27/03/2024
html-keyboard-response,172,513720,0.0-72.0-0.0,1703.699999988079,"<div style=""display: flex; flex-direction: column; align-items: center; margin-top: -40px;""><img src=""images/pattern_4.png"" style=""width: 234px; height: 230px; margin-top: -50px;""><div style=""display: flex; justify-content: space-between; margin-top: 33px;""><img src=""images/choice_trial_16.png"" style=""width: 408px; height: 417px; margin-right: 200px;""><img src=""images/choice_trial_4.png"" style=""width: 408px; height: 417px;""></div></div>",f,delaylearn,learning,trial,W1qxNnrdKXPMJzAD0rCHxhO4QB23,W1qxNnrdKXPMJzAD0rCHxhO4QB23,2.0,images/choice_trial_16.png,images/choice_trial_4.png,images/pattern_4.png,j,j,7000.0,16.0,4.0,3.0,1.0,31.0,0.0,0.0,16.0,150.0,,,,,,5f85f0cab3f4e20ebf578203,16:54:10,27/03/2024
html-keyboard-response,173,514722,0.0-72.0-1.0,,"<div style=""display: flex; flex-direction: column; align-items: center; margin-top: -40px;""><img src=""images/pattern_4.png"" style=""width: 234px; height: 230px; margin-top: -50px;""><div style=""display: flex; justify-content: space-between; margin-top: 33px;""><img src=""images/choice_trial_16.png"" style=""width: 408px; height: 417px; margin-right: 608px;""></div></div>",,delaylearn,learning,display_response,W1qxNnrdKXPMJzAD0rCHxhO4QB23,W1qxNnrdKXPMJzAD0rCHxhO4QB23,,,,,,,,,,,,,,,,,chosen stimuli: images/choice_trial_16.png,,,,,5f85f0cab3f4e20ebf578203,16:54:10,27/03/2024
html-keyboard-response,174,521728,0.0-72.0-2.0,,,,delaylearn,learning,feedback_duration_window,W1qxNnrdKXPMJzAD0rCHxhO4QB23,W1qxNnrdKXPMJzAD0rCHxhO4QB23,,,,,,,,,,,,,,,,,,7000.0,,,,5f85f0cab3f4e20ebf578203,16:54:10,27/03/2024
html-keyboard-response,175,523240,0.0-72.0-3.0,,<div style='margin:auto;width: auto; font-size: 150%'><span style='font-weight: bold; font-size: 100px; color: red;'>0 points!</span><br><br></div>,,delaylearn,learning,feedback_image_window,W1qxNnrdKXPMJzAD0rCHxhO4QB23,W1qxNnrdKXPMJzAD0rCHxhO4QB23,,,,,,,,,,,,,,,,,,,,,,5f85f0cab3f4e20ebf578203,16:54:10,27/03/2024
html-keyboard-response,176,525165,0.0-73.0,,"<div style=""font-size:100px;"">+</div>",,delaylearn,learning,ITI,W1qxNnrdKXPMJzAD0rCHxhO4QB23,W1qxNnrdKXPMJzAD0rCHxhO4QB23,,,,,,,,,,,,,,,,,,,1917.0,,,5f85f0cab3f4e20ebf578203,16:54:10,27/03/2024
html-keyboard-response,177,525590,0.0-74.0-0.0,421.9000000357628,"<div style=""display: flex; flex-direction: column; align-items: center; margin-top: -40px;""><img src=""images/pattern_3.png"" style=""width: 234px; height: 230px; margin-top: -50px;""><div style=""display: flex; justify-content: space-between; margin-top: 33px;""><img src=""images/choice_trial_14.png"" style=""width: 408px; height: 417px; margin-right: 200px;""><img src=""images/choice_trial_12.png"" style=""width: 408px; height: 417px;""></div></div>",j,delaylearn,learning,trial,W1qxNnrdKXPMJzAD0rCHxhO4QB23,W1qxNnrdKXPMJzAD0rCHxhO4QB23,2.0,images/choice_trial_14.png,images/choice_trial_12.png,images/pattern_3.png,j,j,7000.0,14.0,12.0,2.0,1.0,32.0,1.0,1.0,12.0,160.0,,,,,,5f85f0cab3f4e20ebf578203,16:54:10,27/03/2024
html-keyboard-response,178,526602,0.0-74.0-1.0,,"<div style=""display: flex; flex-direction: column; align-items: center; margin-top: -40px;""><img src=""images/pattern_3.png"" style=""width: 234px; height: 230px; margin-top: -50px;""><div style=""display: flex; justify-content: space-between; margin-top: 33px;""><img src=""images/choice_trial_12.png"" style=""width: 408px; height: 417px; margin-left:608px;""></div></div>",,delaylearn,learning,display_response,W1qxNnrdKXPMJzAD0rCHxhO4QB23,W1qxNnrdKXPMJzAD0rCHxhO4QB23,,,,,,,,,,,,,,,,,chosen stimuli: images/choice_trial_12.png,,,,,5f85f0cab3f4e20ebf578203,16:54:10,27/03/2024
html-keyboard-response,179,533617,0.0-74.0-2.0,,,,delaylearn,learning,feedback_duration_window,W1qxNnrdKXPMJzAD0rCHxhO4QB23,W1qxNnrdKXPMJzAD0rCHxhO4QB23,,,,,,,,,,,,,,,,,,7000.0,,,,5f85f0cab3f4e20ebf578203,16:54:10,27/03/2024
html-keyboard-response,180,535132,0.0-74.0-3.0,,<div style='margin:auto;width: auto; font-size: 150%'><span style='font-weight: bold; font-size: 100px; color: green;'>+10 points!</span><br><br></div>,,delaylearn,learning,feedback_image_window,W1qxNnrdKXPMJzAD0rCHxhO4QB23,W1qxNnrdKXPMJzAD0rCHxhO4QB23,,,,,,,,,,,,,,,,,,,,,,5f85f0cab3f4e20ebf578203,16:54:10,27/03/2024
html-keyboard-response,181,537504,0.0-75.0,,"<div style=""font-size:100px;"">+</div>",,delaylearn,learning,ITI,W1qxNnrdKXPMJzAD0rCHxhO4QB23,W1qxNnrdKXPMJzAD0rCHxhO4QB23,,,,,,,,,,,,,,,,,,,2365.0,,,5f85f0cab3f4e20ebf578203,16:54:10,27/03/2024
html-keyboard-response,182,538129,0.0-76.0-0.0,622.5,"<div style=""display: flex; flex-direction: column; align-items: center; margin-top: -40px;""><img src=""images/pattern_5.png"" style=""width: 234px; height: 230px; margin-top: -50px;""><div style=""display: flex; justify-content: space-between; margin-top: 33px;""><img src=""images/choice_trial_2.png"" style=""width: 408px; height: 417px; margin-right: 200px;""><img src=""images/choice_trial_9.png"" style=""width: 408px; height: 417px;""></div></div>",f,delaylearn,learning,trial,W1qxNnrdKXPMJzAD0rCHxhO4QB23,W1qxNnrdKXPMJzAD0rCHxhO4QB23,2.0,images/choice_trial_2.png,images/choice_trial_9.png,images/pattern_5.png,j,f,750.0,2.0,9.0,4.0,0.0,33.0,1.0,0.0,2.0,160.0,,,,,,5f85f0cab3f4e20ebf578203,16:54:10,27/03/2024
html-keyboard-response,183,539140,0.0-76.0-1.0,,"<div style=""display: flex; flex-direction: column; align-items: center; margin-top: -40px;""><img src=""images/pattern_5.png"" style=""width: 234px; height: 230px; margin-top: -50px;""><div style=""display: flex; justify-content: space-between; margin-top: 33px;""><img src=""images/choice_trial_2.png"" style=""width: 408px; height: 417px; margin-right: 608px;""></div></div>",,delaylearn,learning,display_response,W1qxNnrdKXPMJzAD0rCHxhO4QB23,W1qxNnrdKXPMJzAD0rCHxhO4QB23,,,,,,,,,,,,,,,,,chosen stimuli: images/choice_trial_2.png,,,,,5f85f0cab3f4e20ebf578203,16:54:10,27/03/2024
html-keyboard-response,184,539906,0.0-76.0-2.0,,,,delaylearn,learning,feedback_duration_window,W1qxNnrdKXPMJzAD0rCHxhO4QB23,W1qxNnrdKXPMJzAD0rCHxhO4QB23,,,,,,,,,,,,,,,,,,750.0,,,,5f85f0cab3f4e20ebf578203,16:54:10,27/03/2024
html-keyboard-response,185,541407,0.0-76.0-3.0,,<div style='margin:auto;width: auto; font-size: 150%'><span style='font-weight: bold; font-size: 100px; color: red;'>0 points!</span><br><br></div>,,delaylearn,learning,feedback_image_window,W1qxNnrdKXPMJzAD0rCHxhO4QB23,W1qxNnrdKXPMJzAD0rCHxhO4QB23,,,,,,,,,,,,,,,,,,,,,,5f85f0cab3f4e20ebf578203,16:54:10,27/03/2024
html-keyboard-response,186,543525,0.0-77.0,,"<div style=""font-size:100px;"">+</div>",,delaylearn,learning,ITI,W1qxNnrdKXPMJzAD0rCHxhO4QB23,W1qxNnrdKXPMJzAD0rCHxhO4QB23,,,,,,,,,,,,,,,,,,,2110.0,,,5f85f0cab3f4e20ebf578203,16:54:10,27/03/2024
html-keyboard-response,187,543895,0.0-78.0-0.0,367.69999998807907,"<div style=""display: flex; flex-direction: column; align-items: center; margin-top: -40px;""><img src=""images/pattern_1.png"" style=""width: 234px; height: 230px; margin-top: -50px;""><div style=""display: flex; justify-content: space-between; margin-top: 33px;""><img src=""images/choice_trial_3.png"" style=""width: 408px; height: 417px; margin-right: 200px;""><img src=""images/choice_trial_10.png"" style=""width: 408px; height: 417px;""></div></div>",j,delaylearn,learning,trial,W1qxNnrdKXPMJzAD0rCHxhO4QB23,W1qxNnrdKXPMJzAD0rCHxhO4QB23,2.0,images/choice_trial_3.png,images/choice_trial_10.png,images/pattern_1.png,f,f,7000.0,3.0,10.0,1.0,0.0,34.0,0.0,0.0,10.0,160.0,,,,,,5f85f0cab3f4e20ebf578203,16:54:10,27/03/2024
html-keyboard-response,188,544911,0.0-78.0-1.0,,"<div style=""display: flex; flex-direction: column; align-items: center; margin-top: -40px;""><img src=""images/pattern_1.png"" style=""width: 234px; height: 230px; margin-top: -50px;""><div style=""display: flex; justify-content: space-between; margin-top: 33px;""><img src=""images/choice_trial_10.png"" style=""width: 408px; height: 417px; margin-left:608px;""></div></div>",,delaylearn,learning,display_response,W1qxNnrdKXPMJzAD0rCHxhO4QB23,W1qxNnrdKXPMJzAD0rCHxhO4QB23,,,,,,,,,,,,,,,,,chosen stimuli: images/choice_trial_10.png,,,,,5f85f0cab3f4e20ebf578203,16:54:10,27/03/2024
html-keyboard-response,189,551924,0.0-78.0-2.0,,,,delaylearn,learning,feedback_duration_window,W1qxNnrdKXPMJzAD0rCHxhO4QB23,W1qxNnrdKXPMJzAD0rCHxhO4QB23,,,,,,,,,,,,,,,,,,7000.0,,,,5f85f0cab3f4e20ebf578203,16:54:10,27/03/2024
html-keyboard-response,190,553440,0.0-78.0-3.0,,<div style='margin:auto;width: auto; font-size: 150%'><span style='font-weight: bold; font-size: 100px; color: red;'>0 points!</span><br><br></div>,,delaylearn,learning,feedback_image_window,W1qxNnrdKXPMJzAD0rCHxhO4QB23,W1qxNnrdKXPMJzAD0rCHxhO4QB23,,,,,,,,,,,,,,,,,,,,,,5f85f0cab3f4e20ebf578203,16:54:10,27/03/2024
html-keyboard-response,191,553946,0.0-79.0-0.0,,,,,,mood_trial_fixation,W1qxNnrdKXPMJzAD0rCHxhO4QB23,,,,,,,,,,,,,,,,,,,,,,,5f85f0cab3f4e20ebf578203,16:54:10,27/03/2024
lmdlab-html-vas-response,192,558496,0.0-79.0-1.0,3539.0,How happy are you right now?,0.26043833626641166,delaylearn,learning,mood_trial,W1qxNnrdKXPMJzAD0rCHxhO4QB23,W1qxNnrdKXPMJzAD0rCHxhO4QB23,,,,,,,,,,,,,,,,,,,,"['Very unhappy', 'Very happy']",,5f85f0cab3f4e20ebf578203,16:54:10,27/03/2024
html-keyboard-response,193,560951,0.0-80.0,,"<div style=""font-size:100px;"">+</div>",,delaylearn,learning,ITI,W1qxNnrdKXPMJzAD0rCHxhO4QB23,W1qxNnrdKXPMJzAD0rCHxhO4QB23,,,,,,,,,,,,,,,,,,,2452.0,,,5f85f0cab3f4e20ebf578203,16:54:10,27/03/2024
html-keyboard-response,194,561641,0.0-81.0-0.0,687.1999999880791,"<div style=""display: flex; flex-direction: column; align-items: center; margin-top: -40px;""><img src=""images/pattern_6.png"" style=""width: 234px; height: 230px; margin-top: -50px;""><div style=""display: flex; justify-content: space-between; margin-top: 33px;""><img src=""images/choice_trial_11.png"" style=""width: 408px; height: 417px; margin-right: 200px;""><img src=""images/choice_trial_5.png"" style=""width: 408px; height: 417px;""></div></div>",f,delaylearn,learning,trial,W1qxNnrdKXPMJzAD0rCHxhO4QB23,W1qxNnrdKXPMJzAD0rCHxhO4QB23,2.0,images/choice_trial_11.png,images/choice_trial_5.png,images/pattern_6.png,j,f,750.0,11.0,5.0,5.0,0.0,35.0,1.0,0.0,11.0,160.0,,,,,,5f85f0cab3f4e20ebf578203,16:54:10,27/03/2024
html-keyboard-response,195,562644,0.0-81.0-1.0,,"<div style=""display: flex; flex-direction: column; align-items: center; margin-top: -40px;""><img src=""images/pattern_6.png"" style=""width: 234px; height: 230px; margin-top: -50px;""><div style=""display: flex; justify-content: space-between; margin-top: 33px;""><img src=""images/choice_trial_11.png"" style=""width: 408px; height: 417px; margin-right: 608px;""></div></div>",,delaylearn,learning,display_response,W1qxNnrdKXPMJzAD0rCHxhO4QB23,W1qxNnrdKXPMJzAD0rCHxhO4QB23,,,,,,,,,,,,,,,,,chosen stimuli: images/choice_trial_11.png,,,,,5f85f0cab3f4e20ebf578203,16:54:10,27/03/2024
html-keyboard-response,196,563404,0.0-81.0-2.0,,,,delaylearn,learning,feedback_duration_window,W1qxNnrdKXPMJzAD0rCHxhO4QB23,W1qxNnrdKXPMJzAD0rCHxhO4QB23,,,,,,,,,,,,,,,,,,750.0,,,,5f85f0cab3f4e20ebf578203,16:54:10,27/03/2024
html-keyboard-response,197,564907,0.0-81.0-3.0,,<div style='margin:auto;width: auto; font-size: 150%'><span style='font-weight: bold; font-size: 100px; color: red;'>0 points!</span><br><br></div>,,delaylearn,learning,feedback_image_window,W1qxNnrdKXPMJzAD0rCHxhO4QB23,W1qxNnrdKXPMJzAD0rCHxhO4QB23,,,,,,,,,,,,,,,,,,,,,,5f85f0cab3f4e20ebf578203,16:54:10,27/03/2024
html-keyboard-response,198,566861,0.0-82.0,,"<div style=""font-size:100px;"">+</div>",,delaylearn,learning,ITI,W1qxNnrdKXPMJzAD0rCHxhO4QB23,W1qxNnrdKXPMJzAD0rCHxhO4QB23,,,,,,,,,,,,,,,,,,,1939.0,,,5f85f0cab3f4e20ebf578203,16:54:10,27/03/2024
html-keyboard-response,199,567306,0.0-83.0-0.0,442.30000001192093,"<div style=""display: flex; flex-direction: column; align-items: center; margin-top: -40px;""><img src=""images/pattern_3.png"" style=""width: 234px; height: 230px; margin-top: -50px;""><div style=""display: flex; justify-content: space-between; margin-top: 33px;""><img src=""images/choice_trial_14.png"" style=""width: 408px; height: 417px; margin-right: 200px;""><img src=""images/choice_trial_12.png"" style=""width: 408px; height: 417px;""></div></div>",j,delaylearn,learning,trial,W1qxNnrdKXPMJzAD0rCHxhO4QB23,W1qxNnrdKXPMJzAD0rCHxhO4QB23,2.0,images/choice_trial_14.png,images/choice_trial_12.png,images/pattern_3.png,j,j,7000.0,14.0,12.0,2.0,1.0,36.0,1.0,1.0,12.0,170.0,,,,,,5f85f0cab3f4e20ebf578203,16:54:10,27/03/2024
html-keyboard-response,200,568310,0.0-83.0-1.0,,"<div style=""display: flex; flex-direction: column; align-items: center; margin-top: -40px;""><img src=""images/pattern_3.png"" style=""width: 234px; height: 230px; margin-top: -50px;""><div style=""display: flex; justify-content: space-between; margin-top: 33px;""><img src=""images/choice_trial_12.png"" style=""width: 408px; height: 417px; margin-left:608px;""></div></div>",,delaylearn,learning,display_response,W1qxNnrdKXPMJzAD0rCHxhO4QB23,W1qxNnrdKXPMJzAD0rCHxhO4QB23,,,,,,,,,,,,,,,,,chosen stimuli: images/choice_trial_12.png,,,,,5f85f0cab3f4e20ebf578203,16:54:10,27/03/2024
html-keyboard-response,201,575336,0.0-83.0-2.0,,,,delaylearn,learning,feedback_duration_window,W1qxNnrdKXPMJzAD0rCHxhO4QB23,W1qxNnrdKXPMJzAD0rCHxhO4QB23,,,,,,,,,,,,,,,,,,7000.0,,,,5f85f0cab3f4e20ebf578203,16:54:10,27/03/2024
html-keyboard-response,202,576853,0.0-83.0-3.0,,<div style='margin:auto;width: auto; font-size: 150%'><span style='font-weight: bold; font-size: 100px; color: green;'>+10 points!</span><br><br></div>,,delaylearn,learning,feedback_image_window,W1qxNnrdKXPMJzAD0rCHxhO4QB23,W1qxNnrdKXPMJzAD0rCHxhO4QB23,,,,,,,,,,,,,,,,,,,,,,5f85f0cab3f4e20ebf578203,16:54:10,27/03/2024
html-keyboard-response,203,578499,0.0-84.0,,"<div style=""font-size:100px;"">+</div>",,delaylearn,learning,ITI,W1qxNnrdKXPMJzAD0rCHxhO4QB23,W1qxNnrdKXPMJzAD0rCHxhO4QB23,,,,,,,,,,,,,,,,,,,1639.0,,,5f85f0cab3f4e20ebf578203,16:54:10,27/03/2024
html-keyboard-response,204,579350,0.0-85.0-0.0,847.6999999880791,"<div style=""display: flex; flex-direction: column; align-items: center; margin-top: -40px;""><img src=""images/pattern_4.png"" style=""width: 234px; height: 230px; margin-top: -50px;""><div style=""display: flex; justify-content: space-between; margin-top: 33px;""><img src=""images/choice_trial_16.png"" style=""width: 408px; height: 417px; margin-right: 200px;""><img src=""images/choice_trial_4.png"" style=""width: 408px; height: 417px;""></div></div>",f,delaylearn,learning,trial,W1qxNnrdKXPMJzAD0rCHxhO4QB23,W1qxNnrdKXPMJzAD0rCHxhO4QB23,2.0,images/choice_trial_16.png,images/choice_trial_4.png,images/pattern_4.png,f,j,7000.0,16.0,4.0,3.0,1.0,37.0,0.0,1.0,16.0,180.0,,,,,,5f85f0cab3f4e20ebf578203,16:54:10,27/03/2024
html-keyboard-response,205,580353,0.0-85.0-1.0,,"<div style=""display: flex; flex-direction: column; align-items: center; margin-top: -40px;""><img src=""images/pattern_4.png"" style=""width: 234px; height: 230px; margin-top: -50px;""><div style=""display: flex; justify-content: space-between; margin-top: 33px;""><img src=""images/choice_trial_16.png"" style=""width: 408px; height: 417px; margin-right: 608px;""></div></div>",,delaylearn,learning,display_response,W1qxNnrdKXPMJzAD0rCHxhO4QB23,W1qxNnrdKXPMJzAD0rCHxhO4QB23,,,,,,,,,,,,,,,,,chosen stimuli: images/choice_trial_16.png,,,,,5f85f0cab3f4e20ebf578203,16:54:10,27/03/2024
html-keyboard-response,206,587356,0.0-85.0-2.0,,,,delaylearn,learning,feedback_duration_window,W1qxNnrdKXPMJzAD0rCHxhO4QB23,W1qxNnrdKXPMJzAD0rCHxhO4QB23,,,,,,,,,,,,,,,,,,7000.0,,,,5f85f0cab3f4e20ebf578203,16:54:10,27/03/2024
html-keyboard-response,207,588865,0.0-85.0-3.0,,<div style='margin:auto;width: auto; font-size: 150%'><span style='font-weight: bold; font-size: 100px; color: green;'>+10 points!</span><br><br></div>,,delaylearn,learning,feedback_image_window,W1qxNnrdKXPMJzAD0rCHxhO4QB23,W1qxNnrdKXPMJzAD0rCHxhO4QB23,,,,,,,,,,,,,,,,,,,,,,5f85f0cab3f4e20ebf578203,16:54:10,27/03/2024
html-keyboard-response,208,590746,0.0-86.0,,"<div style=""font-size:100px;"">+</div>",,delaylearn,learning,ITI,W1qxNnrdKXPMJzAD0rCHxhO4QB23,W1qxNnrdKXPMJzAD0rCHxhO4QB23,,,,,,,,,,,,,,,,,,,1879.0,,,5f85f0cab3f4e20ebf578203,16:54:10,27/03/2024
html-keyboard-response,209,591205,0.0-87.0-0.0,456.0999999642372,"<div style=""display: flex; flex-direction: column; align-items: center; margin-top: -40px;""><img src=""images/pattern_7.png"" style=""width: 234px; height: 230px; margin-top: -50px;""><div style=""display: flex; justify-content: space-between; margin-top: 33px;""><img src=""images/choice_trial_8.png"" style=""width: 408px; height: 417px; margin-right: 200px;""><img src=""images/choice_trial_15.png"" style=""width: 408px; height: 417px;""></div></div>",j,delaylearn,learning,trial,W1qxNnrdKXPMJzAD0rCHxhO4QB23,W1qxNnrdKXPMJzAD0rCHxhO4QB23,2.0,images/choice_trial_8.png,images/choice_trial_15.png,images/pattern_7.png,f,f,750.0,8.0,15.0,6.0,0.0,38.0,0.0,0.0,15.0,180.0,,,,,,5f85f0cab3f4e20ebf578203,16:54:10,27/03/2024
html-keyboard-response,210,592213,0.0-87.0-1.0,,"<div style=""display: flex; flex-direction: column; align-items: center; margin-top: -40px;""><img src=""images/pattern_7.png"" style=""width: 234px; height: 230px; margin-top: -50px;""><div style=""display: flex; justify-content: space-between; margin-top: 33px;""><img src=""images/choice_trial_15.png"" style=""width: 408px; height: 417px; margin-left:608px;""></div></div>",,delaylearn,learning,display_response,W1qxNnrdKXPMJzAD0rCHxhO4QB23,W1qxNnrdKXPMJzAD0rCHxhO4QB23,,,,,,,,,,,,,,,,,chosen stimuli: images/choice_trial_15.png,,,,,5f85f0cab3f4e20ebf578203,16:54:10,27/03/2024
html-keyboard-response,211,592969,0.0-87.0-2.0,,,,delaylearn,learning,feedback_duration_window,W1qxNnrdKXPMJzAD0rCHxhO4QB23,W1qxNnrdKXPMJzAD0rCHxhO4QB23,,,,,,,,,,,,,,,,,,750.0,,,,5f85f0cab3f4e20ebf578203,16:54:10,27/03/2024
html-keyboard-response,212,594483,0.0-87.0-3.0,,<div style='margin:auto;width: auto; font-size: 150%'><span style='font-weight: bold; font-size: 100px; color: red;'>0 points!</span><br><br></div>,,delaylearn,learning,feedback_image_window,W1qxNnrdKXPMJzAD0rCHxhO4QB23,W1qxNnrdKXPMJzAD0rCHxhO4QB23,,,,,,,,,,,,,,,,,,,,,,5f85f0cab3f4e20ebf578203,16:54:10,27/03/2024
html-keyboard-response,213,596817,0.0-88.0,,"<div style=""font-size:100px;"">+</div>",,delaylearn,learning,ITI,W1qxNnrdKXPMJzAD0rCHxhO4QB23,W1qxNnrdKXPMJzAD0rCHxhO4QB23,,,,,,,,,,,,,,,,,,,2328.0,,,5f85f0cab3f4e20ebf578203,16:54:10,27/03/2024
html-keyboard-response,214,597332,0.0-89.0-0.0,512.8000000119209,"<div style=""display: flex; flex-direction: column; align-items: center; margin-top: -40px;""><img src=""images/pattern_1.png"" style=""width: 234px; height: 230px; margin-top: -50px;""><div style=""display: flex; justify-content: space-between; margin-top: 33px;""><img src=""images/choice_trial_3.png"" style=""width: 408px; height: 417px; margin-right: 200px;""><img src=""images/choice_trial_10.png"" style=""width: 408px; height: 417px;""></div></div>",f,delaylearn,learning,trial,W1qxNnrdKXPMJzAD0rCHxhO4QB23,W1qxNnrdKXPMJzAD0rCHxhO4QB23,2.0,images/choice_trial_3.png,images/choice_trial_10.png,images/pattern_1.png,f,f,7000.0,3.0,10.0,1.0,0.0,39.0,1.0,1.0,3.0,190.0,,,,,,5f85f0cab3f4e20ebf578203,16:54:10,27/03/2024
html-keyboard-response,215,598339,0.0-89.0-1.0,,"<div style=""display: flex; flex-direction: column; align-items: center; margin-top: -40px;""><img src=""images/pattern_1.png"" style=""width: 234px; height: 230px; margin-top: -50px;""><div style=""display: flex; justify-content: space-between; margin-top: 33px;""><img src=""images/choice_trial_3.png"" style=""width: 408px; height: 417px; margin-right: 608px;""></div></div>",,delaylearn,learning,display_response,W1qxNnrdKXPMJzAD0rCHxhO4QB23,W1qxNnrdKXPMJzAD0rCHxhO4QB23,,,,,,,,,,,,,,,,,chosen stimuli: images/choice_trial_3.png,,,,,5f85f0cab3f4e20ebf578203,16:54:10,27/03/2024
html-keyboard-response,216,605354,0.0-89.0-2.0,,,,delaylearn,learning,feedback_duration_window,W1qxNnrdKXPMJzAD0rCHxhO4QB23,W1qxNnrdKXPMJzAD0rCHxhO4QB23,,,,,,,,,,,,,,,,,,7000.0,,,,5f85f0cab3f4e20ebf578203,16:54:10,27/03/2024
html-keyboard-response,217,606862,0.0-89.0-3.0,,<div style='margin:auto;width: auto; font-size: 150%'><span style='font-weight: bold; font-size: 100px; color: green;'>+10 points!</span><br><br></div>,,delaylearn,learning,feedback_image_window,W1qxNnrdKXPMJzAD0rCHxhO4QB23,W1qxNnrdKXPMJzAD0rCHxhO4QB23,,,,,,,,,,,,,,,,,,,,,,5f85f0cab3f4e20ebf578203,16:54:10,27/03/2024
html-keyboard-response,218,607378,0.0-90.0-0.0,,,,,,mood_trial_fixation,W1qxNnrdKXPMJzAD0rCHxhO4QB23,,,,,,,,,,,,,,,,,,,,,,,5f85f0cab3f4e20ebf578203,16:54:10,27/03/2024
lmdlab-html-vas-response,219,611953,0.0-90.0-1.0,3563.0,How happy are you right now?,0.44099389182196724,delaylearn,learning,mood_trial,W1qxNnrdKXPMJzAD0rCHxhO4QB23,W1qxNnrdKXPMJzAD0rCHxhO4QB23,,,,,,,,,,,,,,,,,,,,"['Very unhappy', 'Very happy']",,5f85f0cab3f4e20ebf578203,16:54:10,27/03/2024
html-keyboard-response,220,613480,0.0-91.0,,"<div style=""font-size:100px;"">+</div>",,delaylearn,learning,ITI,W1qxNnrdKXPMJzAD0rCHxhO4QB23,W1qxNnrdKXPMJzAD0rCHxhO4QB23,,,,,,,,,,,,,,,,,,,1514.0,,,5f85f0cab3f4e20ebf578203,16:54:10,27/03/2024
html-keyboard-response,221,614527,0.0-92.0-0.0,1044.6000000238419,"<div style=""display: flex; flex-direction: column; align-items: center; margin-top: -40px;""><img src=""images/pattern_3.png"" style=""width: 234px; height: 230px; margin-top: -50px;""><div style=""display: flex; justify-content: space-between; margin-top: 33px;""><img src=""images/choice_trial_12.png"" style=""width: 408px; height: 417px; margin-right: 200px;""><img src=""images/choice_trial_14.png"" style=""width: 408px; height: 417px;""></div></div>",j,delaylearn,learning,trial,W1qxNnrdKXPMJzAD0rCHxhO4QB23,W1qxNnrdKXPMJzAD0rCHxhO4QB23,2.0,images/choice_trial_12.png,images/choice_trial_14.png,images/pattern_3.png,j,f,7000.0,12.0,14.0,2.0,0.0,40.0,0.0,1.0,14.0,200.0,,,,,,5f85f0cab3f4e20ebf578203,16:54:10,27/03/2024
html-keyboard-response,222,615540,0.0-92.0-1.0,,"<div style=""display: flex; flex-direction: column; align-items: center; margin-top: -40px;""><img src=""images/pattern_3.png"" style=""width: 234px; height: 230px; margin-top: -50px;""><div style=""display: flex; justify-content: space-between; margin-top: 33px;""><img src=""images/choice_trial_14.png"" style=""width: 408px; height: 417px; margin-left:608px;""></div></div>",,delaylearn,learning,display_response,W1qxNnrdKXPMJzAD0rCHxhO4QB23,W1qxNnrdKXPMJzAD0rCHxhO4QB23,,,,,,,,,,,,,,,,,chosen stimuli: images/choice_trial_14.png,,,,,5f85f0cab3f4e20ebf578203,16:54:10,27/03/2024
html-keyboard-response,223,622556,0.0-92.0-2.0,,,,delaylearn,learning,feedback_duration_window,W1qxNnrdKXPMJzAD0rCHxhO4QB23,W1qxNnrdKXPMJzAD0rCHxhO4QB23,,,,,,,,,,,,,,,,,,7000.0,,,,5f85f0cab3f4e20ebf578203,16:54:10,27/03/2024
html-keyboard-response,224,624072,0.0-92.0-3.0,,<div style='margin:auto;width: auto; font-size: 150%'><span style='font-weight: bold; font-size: 100px; color: green;'>+10 points!</span><br><br></div>,,delaylearn,learning,feedback_image_window,W1qxNnrdKXPMJzAD0rCHxhO4QB23,W1qxNnrdKXPMJzAD0rCHxhO4QB23,,,,,,,,,,,,,,,,,,,,,,5f85f0cab3f4e20ebf578203,16:54:10,27/03/2024
html-keyboard-response,225,626505,0.0-93.0,,"<div style=""font-size:100px;"">+</div>",,delaylearn,learning,ITI,W1qxNnrdKXPMJzAD0rCHxhO4QB23,W1qxNnrdKXPMJzAD0rCHxhO4QB23,,,,,,,,,,,,,,,,,,,2430.0,,,5f85f0cab3f4e20ebf578203,16:54:10,27/03/2024
html-keyboard-response,226,627900,0.0-94.0-0.0,1393.300000011921,"<div style=""display: flex; flex-direction: column; align-items: center; margin-top: -40px;""><img src=""images/pattern_7.png"" style=""width: 234px; height: 230px; margin-top: -50px;""><div style=""display: flex; justify-content: space-between; margin-top: 33px;""><img src=""images/choice_trial_15.png"" style=""width: 408px; height: 417px; margin-right: 200px;""><img src=""images/choice_trial_8.png"" style=""width: 408px; height: 417px;""></div></div>",j,delaylearn,learning,trial,W1qxNnrdKXPMJzAD0rCHxhO4QB23,W1qxNnrdKXPMJzAD0rCHxhO4QB23,2.0,images/choice_trial_15.png,images/choice_trial_8.png,images/pattern_7.png,j,j,750.0,15.0,8.0,6.0,1.0,41.0,1.0,1.0,8.0,210.0,,,,,,5f85f0cab3f4e20ebf578203,16:54:10,27/03/2024
html-keyboard-response,227,628916,0.0-94.0-1.0,,"<div style=""display: flex; flex-direction: column; align-items: center; margin-top: -40px;""><img src=""images/pattern_7.png"" style=""width: 234px; height: 230px; margin-top: -50px;""><div style=""display: flex; justify-content: space-between; margin-top: 33px;""><img src=""images/choice_trial_8.png"" style=""width: 408px; height: 417px; margin-left:608px;""></div></div>",,delaylearn,learning,display_response,W1qxNnrdKXPMJzAD0rCHxhO4QB23,W1qxNnrdKXPMJzAD0rCHxhO4QB23,,,,,,,,,,,,,,,,,chosen stimuli: images/choice_trial_8.png,,,,,5f85f0cab3f4e20ebf578203,16:54:10,27/03/2024
html-keyboard-response,228,629668,0.0-94.0-2.0,,,,delaylearn,learning,feedback_duration_window,W1qxNnrdKXPMJzAD0rCHxhO4QB23,W1qxNnrdKXPMJzAD0rCHxhO4QB23,,,,,,,,,,,,,,,,,,750.0,,,,5f85f0cab3f4e20ebf578203,16:54:10,27/03/2024
html-keyboard-response,229,631175,0.0-94.0-3.0,,<div style='margin:auto;width: auto; font-size: 150%'><span style='font-weight: bold; font-size: 100px; color: green;'>+10 points!</span><br><br></div>,,delaylearn,learning,feedback_image_window,W1qxNnrdKXPMJzAD0rCHxhO4QB23,W1qxNnrdKXPMJzAD0rCHxhO4QB23,,,,,,,,,,,,,,,,,,,,,,5f85f0cab3f4e20ebf578203,16:54:10,27/03/2024
html-keyboard-response,230,633537,0.0-95.0,,"<div style=""font-size:100px;"">+</div>",,delaylearn,learning,ITI,W1qxNnrdKXPMJzAD0rCHxhO4QB23,W1qxNnrdKXPMJzAD0rCHxhO4QB23,,,,,,,,,,,,,,,,,,,2360.0,,,5f85f0cab3f4e20ebf578203,16:54:10,27/03/2024
