trial_type,trial_index,time_elapsed,internal_node_id,rt,stimulus,response,exp_name,exp_stage,test_part,subjectID,databaseID,counterbal,choice_stimuli_1,choice_stimuli_2,pattern_stimuli,rewarded_answer,correct_answer,feedback_duration_times,stim_left,stim_right,pair,leftright_counter,trial,response_correct,response_rewarded,chosen_stim,counter,displayed_choice,feedback_durations,ITI_duration,labels,rest_warning,prolificID,start_time,date
pavlovia,0,726,0.0-0.0,,,,,,,kOQt9bBZ04NJ8LMjzNzE8gOCad02,,,,,,,,,,,,,,,,,,,,,,,5f467b8d74eeef0365ffb26e,15:49:35,26/03/2024
html-keyboard-response,1,3728,0.0-1.0,,"<div style=""font-size:100px;"">+</div>",,delaylearn,learning,pre_fixation,kOQt9bBZ04NJ8LMjzNzE8gOCad02,,,,,,,,,,,,,,,,,,,,,,,5f467b8d74eeef0365ffb26e,15:49:35,26/03/2024
html-keyboard-response,2,5792,0.0-2.0-0.0,2061.800000011921,"<div style=""display: flex; flex-direction: column; align-items: center; margin-top: -40px;""><img src=""images/demo_images/pattern_1.png"" style=""width: 234px; height: 230px; margin-top: -50px;""><div style=""display: flex; justify-content: space-between; margin-top: 33px;""><img src=""images/demo_images/choice_trial_2.png"" style=""width: 408px; height: 417px; margin-right: 200px;""><img src=""images/demo_images/choice_trial_1.png"" style=""width: 408px; height: 417px;""></div></div>",f,delaylearn,learning,trial,kOQt9bBZ04NJ8LMjzNzE8gOCad02,kOQt9bBZ04NJ8LMjzNzE8gOCad02,2.0,images/demo_images/choice_trial_2.png,images/demo_images/choice_trial_1.png,images/demo_images/pattern_1.png,j,j,3000.0,2.0,1.0,20.0,1.0,1.0,0.0,0.0,2.0,0.0,,,,,,5f467b8d74eeef0365ffb26e,15:49:35,26/03/2024
html-keyboard-response,3,6796,0.0-2.0-1.0,,"<div style=""display: flex; flex-direction: column; align-items: center; margin-top: -40px;""><img src=""images/demo_images/pattern_1.png"" style=""width: 234px; height: 230px; margin-top: -50px;""><div style=""display: flex; justify-content: space-between; margin-top: 33px;""><img src=""images/demo_images/choice_trial_2.png"" style=""width: 408px; height: 417px; margin-right: 608px;""></div></div>",,delaylearn,learning,display_response,kOQt9bBZ04NJ8LMjzNzE8gOCad02,kOQt9bBZ04NJ8LMjzNzE8gOCad02,,,,,,,,,,,,,,,,,chosen stimuli: images/demo_images/choice_trial_2.png,,,,,5f467b8d74eeef0365ffb26e,15:49:35,26/03/2024
html-keyboard-response,4,9799,0.0-2.0-2.0,,,,delaylearn,learning,feedback_duration_window,kOQt9bBZ04NJ8LMjzNzE8gOCad02,kOQt9bBZ04NJ8LMjzNzE8gOCad02,,,,,,,,,,,,,,,,,,3000.0,,,,5f467b8d74eeef0365ffb26e,15:49:35,26/03/2024
html-keyboard-response,5,11303,0.0-2.0-3.0,,<div style='margin:auto;width: auto; font-size: 150%'><span style='font-weight: bold; font-size: 100px; color: red;'>0 points!</span><br><br></div>,,delaylearn,learning,feedback_image_window,kOQt9bBZ04NJ8LMjzNzE8gOCad02,kOQt9bBZ04NJ8LMjzNzE8gOCad02,,,,,,,,,,,,,,,,,,,,,,5f467b8d74eeef0365ffb26e,15:49:35,26/03/2024
html-keyboard-response,6,13590,0.0-3.0,,"<div style=""font-size:100px;"">+</div>",,delaylearn,learning,ITI,kOQt9bBZ04NJ8LMjzNzE8gOCad02,kOQt9bBZ04NJ8LMjzNzE8gOCad02,,,,,,,,,,,,,,,,,,,2285.0,,,5f467b8d74eeef0365ffb26e,15:49:35,26/03/2024
html-keyboard-response,7,15034,0.0-4.0-0.0,1441.1000000238419,"<div style=""display: flex; flex-direction: column; align-items: center; margin-top: -40px;""><img src=""images/demo_images/pattern_1.png"" style=""width: 234px; height: 230px; margin-top: -50px;""><div style=""display: flex; justify-content: space-between; margin-top: 33px;""><img src=""images/demo_images/choice_trial_2.png"" style=""width: 408px; height: 417px; margin-right: 200px;""><img src=""images/demo_images/choice_trial_1.png"" style=""width: 408px; height: 417px;""></div></div>",j,delaylearn,learning,trial,kOQt9bBZ04NJ8LMjzNzE8gOCad02,kOQt9bBZ04NJ8LMjzNzE8gOCad02,2.0,images/demo_images/choice_trial_2.png,images/demo_images/choice_trial_1.png,images/demo_images/pattern_1.png,j,j,3000.0,2.0,1.0,20.0,1.0,2.0,1.0,1.0,1.0,10.0,,,,,,5f467b8d74eeef0365ffb26e,15:49:35,26/03/2024
html-keyboard-response,8,16038,0.0-4.0-1.0,,"<div style=""display: flex; flex-direction: column; align-items: center; margin-top: -40px;""><img src=""images/demo_images/pattern_1.png"" style=""width: 234px; height: 230px; margin-top: -50px;""><div style=""display: flex; justify-content: space-between; margin-top: 33px;""><img src=""images/demo_images/choice_trial_1.png"" style=""width: 408px; height: 417px; margin-left:608px;""></div></div>",,delaylearn,learning,display_response,kOQt9bBZ04NJ8LMjzNzE8gOCad02,kOQt9bBZ04NJ8LMjzNzE8gOCad02,,,,,,,,,,,,,,,,,chosen stimuli: images/demo_images/choice_trial_1.png,,,,,5f467b8d74eeef0365ffb26e,15:49:35,26/03/2024
html-keyboard-response,9,19042,0.0-4.0-2.0,,,,delaylearn,learning,feedback_duration_window,kOQt9bBZ04NJ8LMjzNzE8gOCad02,kOQt9bBZ04NJ8LMjzNzE8gOCad02,,,,,,,,,,,,,,,,,,3000.0,,,,5f467b8d74eeef0365ffb26e,15:49:35,26/03/2024
html-keyboard-response,10,20546,0.0-4.0-3.0,,<div style='margin:auto;width: auto; font-size: 150%'><span style='font-weight: bold; font-size: 100px; color: green;'>+10 points!</span><br><br></div>,,delaylearn,learning,feedback_image_window,kOQt9bBZ04NJ8LMjzNzE8gOCad02,kOQt9bBZ04NJ8LMjzNzE8gOCad02,,,,,,,,,,,,,,,,,,,,,,5f467b8d74eeef0365ffb26e,15:49:35,26/03/2024
html-keyboard-response,11,22686,0.0-5.0,,"<div style=""font-size:100px;"">+</div>",,delaylearn,learning,ITI,kOQt9bBZ04NJ8LMjzNzE8gOCad02,kOQt9bBZ04NJ8LMjzNzE8gOCad02,,,,,,,,,,,,,,,,,,,2137.0,,,5f467b8d74eeef0365ffb26e,15:49:35,26/03/2024
html-keyboard-response,12,23843,0.0-6.0-0.0,1155.0,"<div style=""display: flex; flex-direction: column; align-items: center; margin-top: -40px;""><img src=""images/demo_images/pattern_1.png"" style=""width: 234px; height: 230px; margin-top: -50px;""><div style=""display: flex; justify-content: space-between; margin-top: 33px;""><img src=""images/demo_images/choice_trial_1.png"" style=""width: 408px; height: 417px; margin-right: 200px;""><img src=""images/demo_images/choice_trial_2.png"" style=""width: 408px; height: 417px;""></div></div>",f,delaylearn,learning,trial,kOQt9bBZ04NJ8LMjzNzE8gOCad02,kOQt9bBZ04NJ8LMjzNzE8gOCad02,2.0,images/demo_images/choice_trial_1.png,images/demo_images/choice_trial_2.png,images/demo_images/pattern_1.png,j,f,3000.0,1.0,2.0,20.0,0.0,3.0,1.0,0.0,1.0,10.0,,,,,,5f467b8d74eeef0365ffb26e,15:49:35,26/03/2024
html-keyboard-response,13,24846,0.0-6.0-1.0,,"<div style=""display: flex; flex-direction: column; align-items: center; margin-top: -40px;""><img src=""images/demo_images/pattern_1.png"" style=""width: 234px; height: 230px; margin-top: -50px;""><div style=""display: flex; justify-content: space-between; margin-top: 33px;""><img src=""images/demo_images/choice_trial_1.png"" style=""width: 408px; height: 417px; margin-right: 608px;""></div></div>",,delaylearn,learning,display_response,kOQt9bBZ04NJ8LMjzNzE8gOCad02,kOQt9bBZ04NJ8LMjzNzE8gOCad02,,,,,,,,,,,,,,,,,chosen stimuli: images/demo_images/choice_trial_1.png,,,,,5f467b8d74eeef0365ffb26e,15:49:35,26/03/2024
html-keyboard-response,14,27850,0.0-6.0-2.0,,,,delaylearn,learning,feedback_duration_window,kOQt9bBZ04NJ8LMjzNzE8gOCad02,kOQt9bBZ04NJ8LMjzNzE8gOCad02,,,,,,,,,,,,,,,,,,3000.0,,,,5f467b8d74eeef0365ffb26e,15:49:35,26/03/2024
html-keyboard-response,15,29354,0.0-6.0-3.0,,<div style='margin:auto;width: auto; font-size: 150%'><span style='font-weight: bold; font-size: 100px; color: red;'>0 points!</span><br><br></div>,,delaylearn,learning,feedback_image_window,kOQt9bBZ04NJ8LMjzNzE8gOCad02,kOQt9bBZ04NJ8LMjzNzE8gOCad02,,,,,,,,,,,,,,,,,,,,,,5f467b8d74eeef0365ffb26e,15:49:35,26/03/2024
html-keyboard-response,16,30930,0.0-7.0,,"<div style=""font-size:100px;"">+</div>",,delaylearn,learning,ITI,kOQt9bBZ04NJ8LMjzNzE8gOCad02,kOQt9bBZ04NJ8LMjzNzE8gOCad02,,,,,,,,,,,,,,,,,,,1574.0,,,5f467b8d74eeef0365ffb26e,15:49:35,26/03/2024
html-keyboard-response,17,32914,0.0-8.0-0.0,1982.5999999642372,"<div style=""display: flex; flex-direction: column; align-items: center; margin-top: -40px;""><img src=""images/demo_images/pattern_1.png"" style=""width: 234px; height: 230px; margin-top: -50px;""><div style=""display: flex; justify-content: space-between; margin-top: 33px;""><img src=""images/demo_images/choice_trial_1.png"" style=""width: 408px; height: 417px; margin-right: 200px;""><img src=""images/demo_images/choice_trial_2.png"" style=""width: 408px; height: 417px;""></div></div>",f,delaylearn,learning,trial,kOQt9bBZ04NJ8LMjzNzE8gOCad02,kOQt9bBZ04NJ8LMjzNzE8gOCad02,2.0,images/demo_images/choice_trial_1.png,images/demo_images/choice_trial_2.png,images/demo_images/pattern_1.png,f,f,3000.0,1.0,2.0,20.0,0.0,4.0,1.0,1.0,1.0,20.0,,,,,,5f467b8d74eeef0365ffb26e,15:49:35,26/03/2024
html-keyboard-response,18,33917,0.0-8.0-1.0,,"<div style=""display: flex; flex-direction: column; align-items: center; margin-top: -40px;""><img src=""images/demo_images/pattern_1.png"" style=""width: 234px; height: 230px; margin-top: -50px;""><div style=""display: flex; justify-content: space-between; margin-top: 33px;""><img src=""images/demo_images/choice_trial_1.png"" style=""width: 408px; height: 417px; margin-right: 608px;""></div></div>",,delaylearn,learning,display_response,kOQt9bBZ04NJ8LMjzNzE8gOCad02,kOQt9bBZ04NJ8LMjzNzE8gOCad02,,,,,,,,,,,,,,,,,chosen stimuli: images/demo_images/choice_trial_1.png,,,,,5f467b8d74eeef0365ffb26e,15:49:35,26/03/2024
html-keyboard-response,19,36920,0.0-8.0-2.0,,,,delaylearn,learning,feedback_duration_window,kOQt9bBZ04NJ8LMjzNzE8gOCad02,kOQt9bBZ04NJ8LMjzNzE8gOCad02,,,,,,,,,,,,,,,,,,3000.0,,,,5f467b8d74eeef0365ffb26e,15:49:35,26/03/2024
html-keyboard-response,20,38423,0.0-8.0-3.0,,<div style='margin:auto;width: auto; font-size: 150%'><span style='font-weight: bold; font-size: 100px; color: green;'>+10 points!</span><br><br></div>,,delaylearn,learning,feedback_image_window,kOQt9bBZ04NJ8LMjzNzE8gOCad02,kOQt9bBZ04NJ8LMjzNzE8gOCad02,,,,,,,,,,,,,,,,,,,,,,5f467b8d74eeef0365ffb26e,15:49:35,26/03/2024
html-keyboard-response,21,38926,0.0-9.0-0.0,,,,,,mood_trial_fixation,kOQt9bBZ04NJ8LMjzNzE8gOCad02,,,,,,,,,,,,,,,,,,,,,,,5f467b8d74eeef0365ffb26e,15:49:35,26/03/2024
lmdlab-html-vas-response,22,43670,0.0-9.0-1.0,3735.0,How happy are you right now?,0.34629629629629627,delaylearn,learning,mood_trial,kOQt9bBZ04NJ8LMjzNzE8gOCad02,kOQt9bBZ04NJ8LMjzNzE8gOCad02,,,,,,,,,,,,,,,,,,,,"['Very unhappy', 'Very happy']",,5f467b8d74eeef0365ffb26e,15:49:35,26/03/2024
html-keyboard-response,23,45415,0.0-10.0,,"<div style=""font-size:100px;"">+</div>",,delaylearn,learning,ITI,kOQt9bBZ04NJ8LMjzNzE8gOCad02,kOQt9bBZ04NJ8LMjzNzE8gOCad02,,,,,,,,,,,,,,,,,,,1742.0,,,5f467b8d74eeef0365ffb26e,15:49:35,26/03/2024
html-keyboard-response,24,47922,0.0-11.0-0.0,2504.599999964237,"<div style=""display: flex; flex-direction: column; align-items: center; margin-top: -40px;""><img src=""images/demo_images/pattern_1.png"" style=""width: 234px; height: 230px; margin-top: -50px;""><div style=""display: flex; justify-content: space-between; margin-top: 33px;""><img src=""images/demo_images/choice_trial_2.png"" style=""width: 408px; height: 417px; margin-right: 200px;""><img src=""images/demo_images/choice_trial_1.png"" style=""width: 408px; height: 417px;""></div></div>",j,delaylearn,learning,trial,kOQt9bBZ04NJ8LMjzNzE8gOCad02,kOQt9bBZ04NJ8LMjzNzE8gOCad02,2.0,images/demo_images/choice_trial_2.png,images/demo_images/choice_trial_1.png,images/demo_images/pattern_1.png,j,j,3000.0,2.0,1.0,20.0,1.0,5.0,1.0,1.0,1.0,30.0,,,,,,5f467b8d74eeef0365ffb26e,15:49:35,26/03/2024
html-keyboard-response,25,48926,0.0-11.0-1.0,,"<div style=""display: flex; flex-direction: column; align-items: center; margin-top: -40px;""><img src=""images/demo_images/pattern_1.png"" style=""width: 234px; height: 230px; margin-top: -50px;""><div style=""display: flex; justify-content: space-between; margin-top: 33px;""><img src=""images/demo_images/choice_trial_1.png"" style=""width: 408px; height: 417px; margin-left:608px;""></div></div>",,delaylearn,learning,display_response,kOQt9bBZ04NJ8LMjzNzE8gOCad02,kOQt9bBZ04NJ8LMjzNzE8gOCad02,,,,,,,,,,,,,,,,,chosen stimuli: images/demo_images/choice_trial_1.png,,,,,5f467b8d74eeef0365ffb26e,15:49:35,26/03/2024
html-keyboard-response,26,51929,0.0-11.0-2.0,,,,delaylearn,learning,feedback_duration_window,kOQt9bBZ04NJ8LMjzNzE8gOCad02,kOQt9bBZ04NJ8LMjzNzE8gOCad02,,,,,,,,,,,,,,,,,,3000.0,,,,5f467b8d74eeef0365ffb26e,15:49:35,26/03/2024
html-keyboard-response,27,53432,0.0-11.0-3.0,,<div style='margin:auto;width: auto; font-size: 150%'><span style='font-weight: bold; font-size: 100px; color: green;'>+10 points!</span><br><br></div>,,delaylearn,learning,feedback_image_window,kOQt9bBZ04NJ8LMjzNzE8gOCad02,kOQt9bBZ04NJ8LMjzNzE8gOCad02,,,,,,,,,,,,,,,,,,,,,,5f467b8d74eeef0365ffb26e,15:49:35,26/03/2024
html-keyboard-response,28,55017,0.0-12.0,,"<div style=""font-size:100px;"">+</div>",,delaylearn,learning,ITI,kOQt9bBZ04NJ8LMjzNzE8gOCad02,kOQt9bBZ04NJ8LMjzNzE8gOCad02,,,,,,,,,,,,,,,,,,,1583.0,,,5f467b8d74eeef0365ffb26e,15:49:35,26/03/2024
html-keyboard-response,29,56248,0.0-13.0-0.0,1228.6000000238419,"<div style=""display: flex; flex-direction: column; align-items: center; margin-top: -40px;""><img src=""images/demo_images/pattern_1.png"" style=""width: 234px; height: 230px; margin-top: -50px;""><div style=""display: flex; justify-content: space-between; margin-top: 33px;""><img src=""images/demo_images/choice_trial_1.png"" style=""width: 408px; height: 417px; margin-right: 200px;""><img src=""images/demo_images/choice_trial_2.png"" style=""width: 408px; height: 417px;""></div></div>",f,delaylearn,learning,trial,kOQt9bBZ04NJ8LMjzNzE8gOCad02,kOQt9bBZ04NJ8LMjzNzE8gOCad02,2.0,images/demo_images/choice_trial_1.png,images/demo_images/choice_trial_2.png,images/demo_images/pattern_1.png,f,f,3000.0,1.0,2.0,20.0,0.0,6.0,1.0,1.0,1.0,40.0,,,,,,5f467b8d74eeef0365ffb26e,15:49:35,26/03/2024
html-keyboard-response,30,57252,0.0-13.0-1.0,,"<div style=""display: flex; flex-direction: column; align-items: center; margin-top: -40px;""><img src=""images/demo_images/pattern_1.png"" style=""width: 234px; height: 230px; margin-top: -50px;""><div style=""display: flex; justify-content: space-between; margin-top: 33px;""><img src=""images/demo_images/choice_trial_1.png"" style=""width: 408px; height: 417px; margin-right: 608px;""></div></div>",,delaylearn,learning,display_response,kOQt9bBZ04NJ8LMjzNzE8gOCad02,kOQt9bBZ04NJ8LMjzNzE8gOCad02,,,,,,,,,,,,,,,,,chosen stimuli: images/demo_images/choice_trial_1.png,,,,,5f467b8d74eeef0365ffb26e,15:49:35,26/03/2024
html-keyboard-response,31,60255,0.0-13.0-2.0,,,,delaylearn,learning,feedback_duration_window,kOQt9bBZ04NJ8LMjzNzE8gOCad02,kOQt9bBZ04NJ8LMjzNzE8gOCad02,,,,,,,,,,,,,,,,,,3000.0,,,,5f467b8d74eeef0365ffb26e,15:49:35,26/03/2024
html-keyboard-response,32,61757,0.0-13.0-3.0,,<div style='margin:auto;width: auto; font-size: 150%'><span style='font-weight: bold; font-size: 100px; color: green;'>+10 points!</span><br><br></div>,,delaylearn,learning,feedback_image_window,kOQt9bBZ04NJ8LMjzNzE8gOCad02,kOQt9bBZ04NJ8LMjzNzE8gOCad02,,,,,,,,,,,,,,,,,,,,,,5f467b8d74eeef0365ffb26e,15:49:35,26/03/2024
html-keyboard-response,33,64224,0.0-14.0,,"<div style=""font-size:100px;"">+</div>",,delaylearn,learning,ITI,kOQt9bBZ04NJ8LMjzNzE8gOCad02,kOQt9bBZ04NJ8LMjzNzE8gOCad02,,,,,,,,,,,,,,,,,,,2464.0,,,5f467b8d74eeef0365ffb26e,15:49:35,26/03/2024
html-keyboard-response,34,65707,0.0-15.0-0.0,1480.3999999761581,"<div style=""display: flex; flex-direction: column; align-items: center; margin-top: -40px;""><img src=""images/demo_images/pattern_1.png"" style=""width: 234px; height: 230px; margin-top: -50px;""><div style=""display: flex; justify-content: space-between; margin-top: 33px;""><img src=""images/demo_images/choice_trial_2.png"" style=""width: 408px; height: 417px; margin-right: 200px;""><img src=""images/demo_images/choice_trial_1.png"" style=""width: 408px; height: 417px;""></div></div>",j,delaylearn,learning,trial,kOQt9bBZ04NJ8LMjzNzE8gOCad02,kOQt9bBZ04NJ8LMjzNzE8gOCad02,2.0,images/demo_images/choice_trial_2.png,images/demo_images/choice_trial_1.png,images/demo_images/pattern_1.png,j,j,3000.0,2.0,1.0,20.0,1.0,7.0,1.0,1.0,1.0,50.0,,,,,,5f467b8d74eeef0365ffb26e,15:49:35,26/03/2024
html-keyboard-response,35,66710,0.0-15.0-1.0,,"<div style=""display: flex; flex-direction: column; align-items: center; margin-top: -40px;""><img src=""images/demo_images/pattern_1.png"" style=""width: 234px; height: 230px; margin-top: -50px;""><div style=""display: flex; justify-content: space-between; margin-top: 33px;""><img src=""images/demo_images/choice_trial_1.png"" style=""width: 408px; height: 417px; margin-left:608px;""></div></div>",,delaylearn,learning,display_response,kOQt9bBZ04NJ8LMjzNzE8gOCad02,kOQt9bBZ04NJ8LMjzNzE8gOCad02,,,,,,,,,,,,,,,,,chosen stimuli: images/demo_images/choice_trial_1.png,,,,,5f467b8d74eeef0365ffb26e,15:49:35,26/03/2024
html-keyboard-response,36,69712,0.0-15.0-2.0,,,,delaylearn,learning,feedback_duration_window,kOQt9bBZ04NJ8LMjzNzE8gOCad02,kOQt9bBZ04NJ8LMjzNzE8gOCad02,,,,,,,,,,,,,,,,,,3000.0,,,,5f467b8d74eeef0365ffb26e,15:49:35,26/03/2024
html-keyboard-response,37,71216,0.0-15.0-3.0,,<div style='margin:auto;width: auto; font-size: 150%'><span style='font-weight: bold; font-size: 100px; color: green;'>+10 points!</span><br><br></div>,,delaylearn,learning,feedback_image_window,kOQt9bBZ04NJ8LMjzNzE8gOCad02,kOQt9bBZ04NJ8LMjzNzE8gOCad02,,,,,,,,,,,,,,,,,,,,,,5f467b8d74eeef0365ffb26e,15:49:35,26/03/2024
html-keyboard-response,38,73679,0.0-16.0,,"<div style=""font-size:100px;"">+</div>",,delaylearn,learning,ITI,kOQt9bBZ04NJ8LMjzNzE8gOCad02,kOQt9bBZ04NJ8LMjzNzE8gOCad02,,,,,,,,,,,,,,,,,,,2460.0,,,5f467b8d74eeef0365ffb26e,15:49:35,26/03/2024
html-keyboard-response,39,74832,0.0-17.0-0.0,1151.0999999642372,"<div style=""display: flex; flex-direction: column; align-items: center; margin-top: -40px;""><img src=""images/demo_images/pattern_1.png"" style=""width: 234px; height: 230px; margin-top: -50px;""><div style=""display: flex; justify-content: space-between; margin-top: 33px;""><img src=""images/demo_images/choice_trial_1.png"" style=""width: 408px; height: 417px; margin-right: 200px;""><img src=""images/demo_images/choice_trial_2.png"" style=""width: 408px; height: 417px;""></div></div>",f,delaylearn,learning,trial,kOQt9bBZ04NJ8LMjzNzE8gOCad02,kOQt9bBZ04NJ8LMjzNzE8gOCad02,2.0,images/demo_images/choice_trial_1.png,images/demo_images/choice_trial_2.png,images/demo_images/pattern_1.png,f,f,3000.0,1.0,2.0,20.0,0.0,8.0,1.0,1.0,1.0,60.0,,,,,,5f467b8d74eeef0365ffb26e,15:49:35,26/03/2024
html-keyboard-response,40,75836,0.0-17.0-1.0,,"<div style=""display: flex; flex-direction: column; align-items: center; margin-top: -40px;""><img src=""images/demo_images/pattern_1.png"" style=""width: 234px; height: 230px; margin-top: -50px;""><div style=""display: flex; justify-content: space-between; margin-top: 33px;""><img src=""images/demo_images/choice_trial_1.png"" style=""width: 408px; height: 417px; margin-right: 608px;""></div></div>",,delaylearn,learning,display_response,kOQt9bBZ04NJ8LMjzNzE8gOCad02,kOQt9bBZ04NJ8LMjzNzE8gOCad02,,,,,,,,,,,,,,,,,chosen stimuli: images/demo_images/choice_trial_1.png,,,,,5f467b8d74eeef0365ffb26e,15:49:35,26/03/2024
html-keyboard-response,41,78839,0.0-17.0-2.0,,,,delaylearn,learning,feedback_duration_window,kOQt9bBZ04NJ8LMjzNzE8gOCad02,kOQt9bBZ04NJ8LMjzNzE8gOCad02,,,,,,,,,,,,,,,,,,3000.0,,,,5f467b8d74eeef0365ffb26e,15:49:35,26/03/2024
html-keyboard-response,42,80343,0.0-17.0-3.0,,<div style='margin:auto;width: auto; font-size: 150%'><span style='font-weight: bold; font-size: 100px; color: green;'>+10 points!</span><br><br></div>,,delaylearn,learning,feedback_image_window,kOQt9bBZ04NJ8LMjzNzE8gOCad02,kOQt9bBZ04NJ8LMjzNzE8gOCad02,,,,,,,,,,,,,,,,,,,,,,5f467b8d74eeef0365ffb26e,15:49:35,26/03/2024
html-button-response,43,82448,0.0-18.0,2104.100000023842,"
  <div style=""display: flex; align-items: center; justify-content: center; height: 80vh;"">
  <div>
          <img src=""images/inst_demo_finish.png"" style=""width: 80vw; height:auto;"">
          <br><br>
      </div>
      <br><br>
  </div>",0,,,,kOQt9bBZ04NJ8LMjzNzE8gOCad02,,,,,,,,,,,,,,,,,,,,,,,5f467b8d74eeef0365ffb26e,15:49:35,26/03/2024
html-keyboard-response,44,86031,0.0-19.0,3581.600000023842,"
  <div style=""display: flex; align-items: center; justify-content: center; height: 80vh;"">
  <div>
          <img src=""images/inst_6.png"" style=""width: 80vw; height:auto;"">
          <br><br>
      </div>
      <br><br>
  </div>",j,,,,kOQt9bBZ04NJ8LMjzNzE8gOCad02,,,,,,,,,,,,,,,,,,,,,,,5f467b8d74eeef0365ffb26e,15:49:35,26/03/2024
html-keyboard-response,45,89034,0.0-20.0,,"<div style=""font-size:100px;"">+</div>",,delaylearn,learning,pre_fixation,kOQt9bBZ04NJ8LMjzNzE8gOCad02,,,,,,,,,,,,,,,,,,,,,,,5f467b8d74eeef0365ffb26e,15:49:35,26/03/2024
html-keyboard-response,46,90610,0.0-21.0,,"<div style=""font-size:100px;"">+</div>",,delaylearn,learning,ITI,kOQt9bBZ04NJ8LMjzNzE8gOCad02,kOQt9bBZ04NJ8LMjzNzE8gOCad02,,,,,,,,,,,,,,,,,,,1573.0,,,5f467b8d74eeef0365ffb26e,15:49:35,26/03/2024
html-keyboard-response,47,93205,0.0-22.0-0.0,2592.800000011921,"<div style=""display: flex; flex-direction: column; align-items: center; margin-top: -40px;""><img src=""images/pattern_3.png"" style=""width: 234px; height: 230px; margin-top: -50px;""><div style=""display: flex; justify-content: space-between; margin-top: 33px;""><img src=""images/choice_trial_12.png"" style=""width: 408px; height: 417px; margin-right: 200px;""><img src=""images/choice_trial_14.png"" style=""width: 408px; height: 417px;""></div></div>",f,delaylearn,learning,trial,kOQt9bBZ04NJ8LMjzNzE8gOCad02,kOQt9bBZ04NJ8LMjzNzE8gOCad02,2.0,images/choice_trial_12.png,images/choice_trial_14.png,images/pattern_3.png,f,f,7000.0,12.0,14.0,2.0,0.0,9.0,1.0,1.0,12.0,70.0,,,,,,5f467b8d74eeef0365ffb26e,15:49:35,26/03/2024
html-keyboard-response,48,94209,0.0-22.0-1.0,,"<div style=""display: flex; flex-direction: column; align-items: center; margin-top: -40px;""><img src=""images/pattern_3.png"" style=""width: 234px; height: 230px; margin-top: -50px;""><div style=""display: flex; justify-content: space-between; margin-top: 33px;""><img src=""images/choice_trial_12.png"" style=""width: 408px; height: 417px; margin-right: 608px;""></div></div>",,delaylearn,learning,display_response,kOQt9bBZ04NJ8LMjzNzE8gOCad02,kOQt9bBZ04NJ8LMjzNzE8gOCad02,,,,,,,,,,,,,,,,,chosen stimuli: images/choice_trial_12.png,,,,,5f467b8d74eeef0365ffb26e,15:49:35,26/03/2024
html-keyboard-response,49,101211,0.0-22.0-2.0,,,,delaylearn,learning,feedback_duration_window,kOQt9bBZ04NJ8LMjzNzE8gOCad02,kOQt9bBZ04NJ8LMjzNzE8gOCad02,,,,,,,,,,,,,,,,,,7000.0,,,,5f467b8d74eeef0365ffb26e,15:49:35,26/03/2024
html-keyboard-response,50,102714,0.0-22.0-3.0,,<div style='margin:auto;width: auto; font-size: 150%'><span style='font-weight: bold; font-size: 100px; color: green;'>+10 points!</span><br><br></div>,,delaylearn,learning,feedback_image_window,kOQt9bBZ04NJ8LMjzNzE8gOCad02,kOQt9bBZ04NJ8LMjzNzE8gOCad02,,,,,,,,,,,,,,,,,,,,,,5f467b8d74eeef0365ffb26e,15:49:35,26/03/2024
html-keyboard-response,51,104457,0.0-23.0,,"<div style=""font-size:100px;"">+</div>",,delaylearn,learning,ITI,kOQt9bBZ04NJ8LMjzNzE8gOCad02,kOQt9bBZ04NJ8LMjzNzE8gOCad02,,,,,,,,,,,,,,,,,,,1740.0,,,5f467b8d74eeef0365ffb26e,15:49:35,26/03/2024
html-keyboard-response,52,106513,0.0-24.0-0.0,2054.100000023842,"<div style=""display: flex; flex-direction: column; align-items: center; margin-top: -40px;""><img src=""images/pattern_7.png"" style=""width: 234px; height: 230px; margin-top: -50px;""><div style=""display: flex; justify-content: space-between; margin-top: 33px;""><img src=""images/choice_trial_15.png"" style=""width: 408px; height: 417px; margin-right: 200px;""><img src=""images/choice_trial_8.png"" style=""width: 408px; height: 417px;""></div></div>",j,delaylearn,learning,trial,kOQt9bBZ04NJ8LMjzNzE8gOCad02,kOQt9bBZ04NJ8LMjzNzE8gOCad02,2.0,images/choice_trial_15.png,images/choice_trial_8.png,images/pattern_7.png,j,j,750.0,15.0,8.0,6.0,1.0,10.0,1.0,1.0,8.0,80.0,,,,,,5f467b8d74eeef0365ffb26e,15:49:35,26/03/2024
html-keyboard-response,53,107517,0.0-24.0-1.0,,"<div style=""display: flex; flex-direction: column; align-items: center; margin-top: -40px;""><img src=""images/pattern_7.png"" style=""width: 234px; height: 230px; margin-top: -50px;""><div style=""display: flex; justify-content: space-between; margin-top: 33px;""><img src=""images/choice_trial_8.png"" style=""width: 408px; height: 417px; margin-left:608px;""></div></div>",,delaylearn,learning,display_response,kOQt9bBZ04NJ8LMjzNzE8gOCad02,kOQt9bBZ04NJ8LMjzNzE8gOCad02,,,,,,,,,,,,,,,,,chosen stimuli: images/choice_trial_8.png,,,,,5f467b8d74eeef0365ffb26e,15:49:35,26/03/2024
html-keyboard-response,54,108269,0.0-24.0-2.0,,,,delaylearn,learning,feedback_duration_window,kOQt9bBZ04NJ8LMjzNzE8gOCad02,kOQt9bBZ04NJ8LMjzNzE8gOCad02,,,,,,,,,,,,,,,,,,750.0,,,,5f467b8d74eeef0365ffb26e,15:49:35,26/03/2024
html-keyboard-response,55,109772,0.0-24.0-3.0,,<div style='margin:auto;width: auto; font-size: 150%'><span style='font-weight: bold; font-size: 100px; color: green;'>+10 points!</span><br><br></div>,,delaylearn,learning,feedback_image_window,kOQt9bBZ04NJ8LMjzNzE8gOCad02,kOQt9bBZ04NJ8LMjzNzE8gOCad02,,,,,,,,,,,,,,,,,,,,,,5f467b8d74eeef0365ffb26e,15:49:35,26/03/2024
html-keyboard-response,56,111897,0.0-25.0,,"<div style=""font-size:100px;"">+</div>",,delaylearn,learning,ITI,kOQt9bBZ04NJ8LMjzNzE8gOCad02,kOQt9bBZ04NJ8LMjzNzE8gOCad02,,,,,,,,,,,,,,,,,,,2123.0,,,5f467b8d74eeef0365ffb26e,15:49:35,26/03/2024
html-keyboard-response,57,114902,0.0-26.0-0.0,,"<div style=""display: flex; flex-direction: column; align-items: center; margin-top: -40px;""><img src=""images/pattern_4.png"" style=""width: 234px; height: 230px; margin-top: -50px;""><div style=""display: flex; justify-content: space-between; margin-top: 33px;""><img src=""images/choice_trial_4.png"" style=""width: 408px; height: 417px; margin-right: 200px;""><img src=""images/choice_trial_16.png"" style=""width: 408px; height: 417px;""></div></div>",,delaylearn,learning,trial,kOQt9bBZ04NJ8LMjzNzE8gOCad02,kOQt9bBZ04NJ8LMjzNzE8gOCad02,2.0,images/choice_trial_4.png,images/choice_trial_16.png,images/pattern_4.png,f,f,7000.0,4.0,16.0,3.0,0.0,11.0,0.0,0.0,0.0,80.0,,,,,,5f467b8d74eeef0365ffb26e,15:49:35,26/03/2024
html-keyboard-response,58,115906,0.0-26.0-1.0,,<div style='font-weight: bold; font-size: 75px; color: red;'>Missed Trial <br><br><br><br> Please respond faster</div>,,delaylearn,learning,display_response,kOQt9bBZ04NJ8LMjzNzE8gOCad02,kOQt9bBZ04NJ8LMjzNzE8gOCad02,,,,,,,,,,,,,,,,,Missed trial,,,,,5f467b8d74eeef0365ffb26e,15:49:35,26/03/2024
html-keyboard-response,59,115912,0.0-26.0-2.0,,,,delaylearn,learning,feedback_duration_window,kOQt9bBZ04NJ8LMjzNzE8gOCad02,kOQt9bBZ04NJ8LMjzNzE8gOCad02,,,,,,,,,,,,,,,,,,0.0,,,,5f467b8d74eeef0365ffb26e,15:49:35,26/03/2024
html-keyboard-response,60,115919,0.0-26.0-3.0,,,,delaylearn,learning,feedback_image_window,kOQt9bBZ04NJ8LMjzNzE8gOCad02,kOQt9bBZ04NJ8LMjzNzE8gOCad02,,,,,,,,,,,,,,,,,,,,,,5f467b8d74eeef0365ffb26e,15:49:35,26/03/2024
html-keyboard-response,61,117729,0.0-27.0,,"<div style=""font-size:100px;"">+</div>",,delaylearn,learning,ITI,kOQt9bBZ04NJ8LMjzNzE8gOCad02,kOQt9bBZ04NJ8LMjzNzE8gOCad02,,,,,,,,,,,,,,,,,,,1808.0,,,5f467b8d74eeef0365ffb26e,15:49:35,26/03/2024
html-keyboard-response,62,118849,0.0-28.0-0.0,1118.1000000238419,"<div style=""display: flex; flex-direction: column; align-items: center; margin-top: -40px;""><img src=""images/pattern_5.png"" style=""width: 234px; height: 230px; margin-top: -50px;""><div style=""display: flex; justify-content: space-between; margin-top: 33px;""><img src=""images/choice_trial_9.png"" style=""width: 408px; height: 417px; margin-right: 200px;""><img src=""images/choice_trial_2.png"" style=""width: 408px; height: 417px;""></div></div>",f,delaylearn,learning,trial,kOQt9bBZ04NJ8LMjzNzE8gOCad02,kOQt9bBZ04NJ8LMjzNzE8gOCad02,2.0,images/choice_trial_9.png,images/choice_trial_2.png,images/pattern_5.png,j,j,750.0,9.0,2.0,4.0,1.0,12.0,0.0,0.0,9.0,80.0,,,,,,5f467b8d74eeef0365ffb26e,15:49:35,26/03/2024
html-keyboard-response,63,119852,0.0-28.0-1.0,,"<div style=""display: flex; flex-direction: column; align-items: center; margin-top: -40px;""><img src=""images/pattern_5.png"" style=""width: 234px; height: 230px; margin-top: -50px;""><div style=""display: flex; justify-content: space-between; margin-top: 33px;""><img src=""images/choice_trial_9.png"" style=""width: 408px; height: 417px; margin-right: 608px;""></div></div>",,delaylearn,learning,display_response,kOQt9bBZ04NJ8LMjzNzE8gOCad02,kOQt9bBZ04NJ8LMjzNzE8gOCad02,,,,,,,,,,,,,,,,,chosen stimuli: images/choice_trial_9.png,,,,,5f467b8d74eeef0365ffb26e,15:49:35,26/03/2024
html-keyboard-response,64,120605,0.0-28.0-2.0,,,,delaylearn,learning,feedback_duration_window,kOQt9bBZ04NJ8LMjzNzE8gOCad02,kOQt9bBZ04NJ8LMjzNzE8gOCad02,,,,,,,,,,,,,,,,,,750.0,,,,5f467b8d74eeef0365ffb26e,15:49:35,26/03/2024
html-keyboard-response,65,122108,0.0-28.0-3.0,,<div style='margin:auto;width: auto; font-size: 150%'><span style='font-weight: bold; font-size: 100px; color: red;'>0 points!</span><br><br></div>,,delaylearn,learning,feedback_image_window,kOQt9bBZ04NJ8LMjzNzE8gOCad02,kOQt9bBZ04NJ8LMjzNzE8gOCad02,,,,,,,,,,,,,,,,,,,,,,5f467b8d74eeef0365ffb26e,15:49:35,26/03/2024
html-keyboard-response,66,123806,0.0-29.0,,"<div style=""font-size:100px;"">+</div>",,delaylearn,learning,ITI,kOQt9bBZ04NJ8LMjzNzE8gOCad02,kOQt9bBZ04NJ8LMjzNzE8gOCad02,,,,,,,,,,,,,,,,,,,1695.0,,,5f467b8d74eeef0365ffb26e,15:49:35,26/03/2024
html-keyboard-response,67,125686,0.0-30.0-0.0,1878.199999988079,"<div style=""display: flex; flex-direction: column; align-items: center; margin-top: -40px;""><img src=""images/pattern_6.png"" style=""width: 234px; height: 230px; margin-top: -50px;""><div style=""display: flex; justify-content: space-between; margin-top: 33px;""><img src=""images/choice_trial_11.png"" style=""width: 408px; height: 417px; margin-right: 200px;""><img src=""images/choice_trial_5.png"" style=""width: 408px; height: 417px;""></div></div>",f,delaylearn,learning,trial,kOQt9bBZ04NJ8LMjzNzE8gOCad02,kOQt9bBZ04NJ8LMjzNzE8gOCad02,2.0,images/choice_trial_11.png,images/choice_trial_5.png,images/pattern_6.png,j,f,750.0,11.0,5.0,5.0,0.0,13.0,1.0,0.0,11.0,80.0,,,,,,5f467b8d74eeef0365ffb26e,15:49:35,26/03/2024
html-keyboard-response,68,126690,0.0-30.0-1.0,,"<div style=""display: flex; flex-direction: column; align-items: center; margin-top: -40px;""><img src=""images/pattern_6.png"" style=""width: 234px; height: 230px; margin-top: -50px;""><div style=""display: flex; justify-content: space-between; margin-top: 33px;""><img src=""images/choice_trial_11.png"" style=""width: 408px; height: 417px; margin-right: 608px;""></div></div>",,delaylearn,learning,display_response,kOQt9bBZ04NJ8LMjzNzE8gOCad02,kOQt9bBZ04NJ8LMjzNzE8gOCad02,,,,,,,,,,,,,,,,,chosen stimuli: images/choice_trial_11.png,,,,,5f467b8d74eeef0365ffb26e,15:49:35,26/03/2024
html-keyboard-response,69,127443,0.0-30.0-2.0,,,,delaylearn,learning,feedback_duration_window,kOQt9bBZ04NJ8LMjzNzE8gOCad02,kOQt9bBZ04NJ8LMjzNzE8gOCad02,,,,,,,,,,,,,,,,,,750.0,,,,5f467b8d74eeef0365ffb26e,15:49:35,26/03/2024
html-keyboard-response,70,128947,0.0-30.0-3.0,,<div style='margin:auto;width: auto; font-size: 150%'><span style='font-weight: bold; font-size: 100px; color: red;'>0 points!</span><br><br></div>,,delaylearn,learning,feedback_image_window,kOQt9bBZ04NJ8LMjzNzE8gOCad02,kOQt9bBZ04NJ8LMjzNzE8gOCad02,,,,,,,,,,,,,,,,,,,,,,5f467b8d74eeef0365ffb26e,15:49:35,26/03/2024
html-keyboard-response,71,129449,0.0-31.0-0.0,,,,,,mood_trial_fixation,kOQt9bBZ04NJ8LMjzNzE8gOCad02,,,,,,,,,,,,,,,,,,,,,,,5f467b8d74eeef0365ffb26e,15:49:35,26/03/2024
lmdlab-html-vas-response,72,133403,0.0-31.0-1.0,2952.0,How happy are you right now?,0.3851851851851852,delaylearn,learning,mood_trial,kOQt9bBZ04NJ8LMjzNzE8gOCad02,kOQt9bBZ04NJ8LMjzNzE8gOCad02,,,,,,,,,,,,,,,,,,,,"['Very unhappy', 'Very happy']",,5f467b8d74eeef0365ffb26e,15:49:35,26/03/2024
html-keyboard-response,73,135764,0.0-32.0,,"<div style=""font-size:100px;"">+</div>",,delaylearn,learning,ITI,kOQt9bBZ04NJ8LMjzNzE8gOCad02,kOQt9bBZ04NJ8LMjzNzE8gOCad02,,,,,,,,,,,,,,,,,,,2358.0,,,5f467b8d74eeef0365ffb26e,15:49:35,26/03/2024
html-keyboard-response,74,138073,0.0-33.0-0.0,2305.899999976158,"<div style=""display: flex; flex-direction: column; align-items: center; margin-top: -40px;""><img src=""images/pattern_1.png"" style=""width: 234px; height: 230px; margin-top: -50px;""><div style=""display: flex; justify-content: space-between; margin-top: 33px;""><img src=""images/choice_trial_10.png"" style=""width: 408px; height: 417px; margin-right: 200px;""><img src=""images/choice_trial_3.png"" style=""width: 408px; height: 417px;""></div></div>",j,delaylearn,learning,trial,kOQt9bBZ04NJ8LMjzNzE8gOCad02,kOQt9bBZ04NJ8LMjzNzE8gOCad02,2.0,images/choice_trial_10.png,images/choice_trial_3.png,images/pattern_1.png,j,j,7000.0,10.0,3.0,1.0,1.0,14.0,1.0,1.0,3.0,90.0,,,,,,5f467b8d74eeef0365ffb26e,15:49:35,26/03/2024
html-keyboard-response,75,139076,0.0-33.0-1.0,,"<div style=""display: flex; flex-direction: column; align-items: center; margin-top: -40px;""><img src=""images/pattern_1.png"" style=""width: 234px; height: 230px; margin-top: -50px;""><div style=""display: flex; justify-content: space-between; margin-top: 33px;""><img src=""images/choice_trial_3.png"" style=""width: 408px; height: 417px; margin-left:608px;""></div></div>",,delaylearn,learning,display_response,kOQt9bBZ04NJ8LMjzNzE8gOCad02,kOQt9bBZ04NJ8LMjzNzE8gOCad02,,,,,,,,,,,,,,,,,chosen stimuli: images/choice_trial_3.png,,,,,5f467b8d74eeef0365ffb26e,15:49:35,26/03/2024
html-keyboard-response,76,146078,0.0-33.0-2.0,,,,delaylearn,learning,feedback_duration_window,kOQt9bBZ04NJ8LMjzNzE8gOCad02,kOQt9bBZ04NJ8LMjzNzE8gOCad02,,,,,,,,,,,,,,,,,,7000.0,,,,5f467b8d74eeef0365ffb26e,15:49:35,26/03/2024
html-keyboard-response,77,147581,0.0-33.0-3.0,,<div style='margin:auto;width: auto; font-size: 150%'><span style='font-weight: bold; font-size: 100px; color: green;'>+10 points!</span><br><br></div>,,delaylearn,learning,feedback_image_window,kOQt9bBZ04NJ8LMjzNzE8gOCad02,kOQt9bBZ04NJ8LMjzNzE8gOCad02,,,,,,,,,,,,,,,,,,,,,,5f467b8d74eeef0365ffb26e,15:49:35,26/03/2024
html-keyboard-response,78,149276,0.0-34.0,,"<div style=""font-size:100px;"">+</div>",,delaylearn,learning,ITI,kOQt9bBZ04NJ8LMjzNzE8gOCad02,kOQt9bBZ04NJ8LMjzNzE8gOCad02,,,,,,,,,,,,,,,,,,,1693.0,,,5f467b8d74eeef0365ffb26e,15:49:35,26/03/2024
html-keyboard-response,79,151254,0.0-35.0-0.0,1976.0,"<div style=""display: flex; flex-direction: column; align-items: center; margin-top: -40px;""><img src=""images/pattern_3.png"" style=""width: 234px; height: 230px; margin-top: -50px;""><div style=""display: flex; justify-content: space-between; margin-top: 33px;""><img src=""images/choice_trial_14.png"" style=""width: 408px; height: 417px; margin-right: 200px;""><img src=""images/choice_trial_12.png"" style=""width: 408px; height: 417px;""></div></div>",f,delaylearn,learning,trial,kOQt9bBZ04NJ8LMjzNzE8gOCad02,kOQt9bBZ04NJ8LMjzNzE8gOCad02,2.0,images/choice_trial_14.png,images/choice_trial_12.png,images/pattern_3.png,f,j,7000.0,14.0,12.0,2.0,1.0,15.0,0.0,1.0,14.0,100.0,,,,,,5f467b8d74eeef0365ffb26e,15:49:35,26/03/2024
html-keyboard-response,80,152257,0.0-35.0-1.0,,"<div style=""display: flex; flex-direction: column; align-items: center; margin-top: -40px;""><img src=""images/pattern_3.png"" style=""width: 234px; height: 230px; margin-top: -50px;""><div style=""display: flex; justify-content: space-between; margin-top: 33px;""><img src=""images/choice_trial_14.png"" style=""width: 408px; height: 417px; margin-right: 608px;""></div></div>",,delaylearn,learning,display_response,kOQt9bBZ04NJ8LMjzNzE8gOCad02,kOQt9bBZ04NJ8LMjzNzE8gOCad02,,,,,,,,,,,,,,,,,chosen stimuli: images/choice_trial_14.png,,,,,5f467b8d74eeef0365ffb26e,15:49:35,26/03/2024
html-keyboard-response,81,159260,0.0-35.0-2.0,,,,delaylearn,learning,feedback_duration_window,kOQt9bBZ04NJ8LMjzNzE8gOCad02,kOQt9bBZ04NJ8LMjzNzE8gOCad02,,,,,,,,,,,,,,,,,,7000.0,,,,5f467b8d74eeef0365ffb26e,15:49:35,26/03/2024
html-keyboard-response,82,160764,0.0-35.0-3.0,,<div style='margin:auto;width: auto; font-size: 150%'><span style='font-weight: bold; font-size: 100px; color: green;'>+10 points!</span><br><br></div>,,delaylearn,learning,feedback_image_window,kOQt9bBZ04NJ8LMjzNzE8gOCad02,kOQt9bBZ04NJ8LMjzNzE8gOCad02,,,,,,,,,,,,,,,,,,,,,,5f467b8d74eeef0365ffb26e,15:49:35,26/03/2024
html-keyboard-response,83,162267,0.0-36.0,,"<div style=""font-size:100px;"">+</div>",,delaylearn,learning,ITI,kOQt9bBZ04NJ8LMjzNzE8gOCad02,kOQt9bBZ04NJ8LMjzNzE8gOCad02,,,,,,,,,,,,,,,,,,,1501.0,,,5f467b8d74eeef0365ffb26e,15:49:35,26/03/2024
html-keyboard-response,84,163847,0.0-37.0-0.0,1578.0999999642372,"<div style=""display: flex; flex-direction: column; align-items: center; margin-top: -40px;""><img src=""images/pattern_5.png"" style=""width: 234px; height: 230px; margin-top: -50px;""><div style=""display: flex; justify-content: space-between; margin-top: 33px;""><img src=""images/choice_trial_2.png"" style=""width: 408px; height: 417px; margin-right: 200px;""><img src=""images/choice_trial_9.png"" style=""width: 408px; height: 417px;""></div></div>",j,delaylearn,learning,trial,kOQt9bBZ04NJ8LMjzNzE8gOCad02,kOQt9bBZ04NJ8LMjzNzE8gOCad02,2.0,images/choice_trial_2.png,images/choice_trial_9.png,images/pattern_5.png,f,f,750.0,2.0,9.0,4.0,0.0,16.0,0.0,0.0,9.0,100.0,,,,,,5f467b8d74eeef0365ffb26e,15:49:35,26/03/2024
html-keyboard-response,85,164850,0.0-37.0-1.0,,"<div style=""display: flex; flex-direction: column; align-items: center; margin-top: -40px;""><img src=""images/pattern_5.png"" style=""width: 234px; height: 230px; margin-top: -50px;""><div style=""display: flex; justify-content: space-between; margin-top: 33px;""><img src=""images/choice_trial_9.png"" style=""width: 408px; height: 417px; margin-left:608px;""></div></div>",,delaylearn,learning,display_response,kOQt9bBZ04NJ8LMjzNzE8gOCad02,kOQt9bBZ04NJ8LMjzNzE8gOCad02,,,,,,,,,,,,,,,,,chosen stimuli: images/choice_trial_9.png,,,,,5f467b8d74eeef0365ffb26e,15:49:35,26/03/2024
html-keyboard-response,86,165603,0.0-37.0-2.0,,,,delaylearn,learning,feedback_duration_window,kOQt9bBZ04NJ8LMjzNzE8gOCad02,kOQt9bBZ04NJ8LMjzNzE8gOCad02,,,,,,,,,,,,,,,,,,750.0,,,,5f467b8d74eeef0365ffb26e,15:49:35,26/03/2024
html-keyboard-response,87,167106,0.0-37.0-3.0,,<div style='margin:auto;width: auto; font-size: 150%'><span style='font-weight: bold; font-size: 100px; color: red;'>0 points!</span><br><br></div>,,delaylearn,learning,feedback_image_window,kOQt9bBZ04NJ8LMjzNzE8gOCad02,kOQt9bBZ04NJ8LMjzNzE8gOCad02,,,,,,,,,,,,,,,,,,,,,,5f467b8d74eeef0365ffb26e,15:49:35,26/03/2024
html-keyboard-response,88,167609,0.0-38.0-0.0,,,,,,mood_trial_fixation,kOQt9bBZ04NJ8LMjzNzE8gOCad02,,,,,,,,,,,,,,,,,,,,,,,5f467b8d74eeef0365ffb26e,15:49:35,26/03/2024
lmdlab-html-vas-response,89,171199,0.0-38.0-1.0,2585.0,How happy are you right now?,0.4222222222222222,delaylearn,learning,mood_trial,kOQt9bBZ04NJ8LMjzNzE8gOCad02,kOQt9bBZ04NJ8LMjzNzE8gOCad02,,,,,,,,,,,,,,,,,,,,"['Very unhappy', 'Very happy']",,5f467b8d74eeef0365ffb26e,15:49:35,26/03/2024
html-keyboard-response,90,173551,0.0-39.0,,"<div style=""font-size:100px;"">+</div>",,delaylearn,learning,ITI,kOQt9bBZ04NJ8LMjzNzE8gOCad02,kOQt9bBZ04NJ8LMjzNzE8gOCad02,,,,,,,,,,,,,,,,,,,2350.0,,,5f467b8d74eeef0365ffb26e,15:49:35,26/03/2024
html-keyboard-response,91,174650,0.0-40.0-0.0,1096.9000000357628,"<div style=""display: flex; flex-direction: column; align-items: center; margin-top: -40px;""><img src=""images/pattern_6.png"" style=""width: 234px; height: 230px; margin-top: -50px;""><div style=""display: flex; justify-content: space-between; margin-top: 33px;""><img src=""images/choice_trial_11.png"" style=""width: 408px; height: 417px; margin-right: 200px;""><img src=""images/choice_trial_5.png"" style=""width: 408px; height: 417px;""></div></div>",f,delaylearn,learning,trial,kOQt9bBZ04NJ8LMjzNzE8gOCad02,kOQt9bBZ04NJ8LMjzNzE8gOCad02,2.0,images/choice_trial_11.png,images/choice_trial_5.png,images/pattern_6.png,f,f,750.0,11.0,5.0,5.0,0.0,17.0,1.0,1.0,11.0,110.0,,,,,,5f467b8d74eeef0365ffb26e,15:49:35,26/03/2024
html-keyboard-response,92,175654,0.0-40.0-1.0,,"<div style=""display: flex; flex-direction: column; align-items: center; margin-top: -40px;""><img src=""images/pattern_6.png"" style=""width: 234px; height: 230px; margin-top: -50px;""><div style=""display: flex; justify-content: space-between; margin-top: 33px;""><img src=""images/choice_trial_11.png"" style=""width: 408px; height: 417px; margin-right: 608px;""></div></div>",,delaylearn,learning,display_response,kOQt9bBZ04NJ8LMjzNzE8gOCad02,kOQt9bBZ04NJ8LMjzNzE8gOCad02,,,,,,,,,,,,,,,,,chosen stimuli: images/choice_trial_11.png,,,,,5f467b8d74eeef0365ffb26e,15:49:35,26/03/2024
html-keyboard-response,93,176407,0.0-40.0-2.0,,,,delaylearn,learning,feedback_duration_window,kOQt9bBZ04NJ8LMjzNzE8gOCad02,kOQt9bBZ04NJ8LMjzNzE8gOCad02,,,,,,,,,,,,,,,,,,750.0,,,,5f467b8d74eeef0365ffb26e,15:49:35,26/03/2024
html-keyboard-response,94,177910,0.0-40.0-3.0,,<div style='margin:auto;width: auto; font-size: 150%'><span style='font-weight: bold; font-size: 100px; color: green;'>+10 points!</span><br><br></div>,,delaylearn,learning,feedback_image_window,kOQt9bBZ04NJ8LMjzNzE8gOCad02,kOQt9bBZ04NJ8LMjzNzE8gOCad02,,,,,,,,,,,,,,,,,,,,,,5f467b8d74eeef0365ffb26e,15:49:35,26/03/2024
html-keyboard-response,95,180300,0.0-41.0,,"<div style=""font-size:100px;"">+</div>",,delaylearn,learning,ITI,kOQt9bBZ04NJ8LMjzNzE8gOCad02,kOQt9bBZ04NJ8LMjzNzE8gOCad02,,,,,,,,,,,,,,,,,,,2387.0,,,5f467b8d74eeef0365ffb26e,15:49:35,26/03/2024
html-keyboard-response,96,181564,0.0-42.0-0.0,1262.0,"<div style=""display: flex; flex-direction: column; align-items: center; margin-top: -40px;""><img src=""images/pattern_4.png"" style=""width: 234px; height: 230px; margin-top: -50px;""><div style=""display: flex; justify-content: space-between; margin-top: 33px;""><img src=""images/choice_trial_16.png"" style=""width: 408px; height: 417px; margin-right: 200px;""><img src=""images/choice_trial_4.png"" style=""width: 408px; height: 417px;""></div></div>",f,delaylearn,learning,trial,kOQt9bBZ04NJ8LMjzNzE8gOCad02,kOQt9bBZ04NJ8LMjzNzE8gOCad02,2.0,images/choice_trial_16.png,images/choice_trial_4.png,images/pattern_4.png,j,j,7000.0,16.0,4.0,3.0,1.0,18.0,0.0,0.0,16.0,110.0,,,,,,5f467b8d74eeef0365ffb26e,15:49:35,26/03/2024
html-keyboard-response,97,182568,0.0-42.0-1.0,,"<div style=""display: flex; flex-direction: column; align-items: center; margin-top: -40px;""><img src=""images/pattern_4.png"" style=""width: 234px; height: 230px; margin-top: -50px;""><div style=""display: flex; justify-content: space-between; margin-top: 33px;""><img src=""images/choice_trial_16.png"" style=""width: 408px; height: 417px; margin-right: 608px;""></div></div>",,delaylearn,learning,display_response,kOQt9bBZ04NJ8LMjzNzE8gOCad02,kOQt9bBZ04NJ8LMjzNzE8gOCad02,,,,,,,,,,,,,,,,,chosen stimuli: images/choice_trial_16.png,,,,,5f467b8d74eeef0365ffb26e,15:49:35,26/03/2024
html-keyboard-response,98,189571,0.0-42.0-2.0,,,,delaylearn,learning,feedback_duration_window,kOQt9bBZ04NJ8LMjzNzE8gOCad02,kOQt9bBZ04NJ8LMjzNzE8gOCad02,,,,,,,,,,,,,,,,,,7000.0,,,,5f467b8d74eeef0365ffb26e,15:49:35,26/03/2024
html-keyboard-response,99,191074,0.0-42.0-3.0,,<div style='margin:auto;width: auto; font-size: 150%'><span style='font-weight: bold; font-size: 100px; color: red;'>0 points!</span><br><br></div>,,delaylearn,learning,feedback_image_window,kOQt9bBZ04NJ8LMjzNzE8gOCad02,kOQt9bBZ04NJ8LMjzNzE8gOCad02,,,,,,,,,,,,,,,,,,,,,,5f467b8d74eeef0365ffb26e,15:49:35,26/03/2024
html-keyboard-response,100,193345,0.0-43.0,,"<div style=""font-size:100px;"">+</div>",,delaylearn,learning,ITI,kOQt9bBZ04NJ8LMjzNzE8gOCad02,kOQt9bBZ04NJ8LMjzNzE8gOCad02,,,,,,,,,,,,,,,,,,,2268.0,,,5f467b8d74eeef0365ffb26e,15:49:35,26/03/2024
html-keyboard-response,101,194831,0.0-44.0-0.0,1484.0,"<div style=""display: flex; flex-direction: column; align-items: center; margin-top: -40px;""><img src=""images/pattern_7.png"" style=""width: 234px; height: 230px; margin-top: -50px;""><div style=""display: flex; justify-content: space-between; margin-top: 33px;""><img src=""images/choice_trial_8.png"" style=""width: 408px; height: 417px; margin-right: 200px;""><img src=""images/choice_trial_15.png"" style=""width: 408px; height: 417px;""></div></div>",j,delaylearn,learning,trial,kOQt9bBZ04NJ8LMjzNzE8gOCad02,kOQt9bBZ04NJ8LMjzNzE8gOCad02,2.0,images/choice_trial_8.png,images/choice_trial_15.png,images/pattern_7.png,j,f,750.0,8.0,15.0,6.0,0.0,19.0,0.0,1.0,15.0,120.0,,,,,,5f467b8d74eeef0365ffb26e,15:49:35,26/03/2024
html-keyboard-response,102,195835,0.0-44.0-1.0,,"<div style=""display: flex; flex-direction: column; align-items: center; margin-top: -40px;""><img src=""images/pattern_7.png"" style=""width: 234px; height: 230px; margin-top: -50px;""><div style=""display: flex; justify-content: space-between; margin-top: 33px;""><img src=""images/choice_trial_15.png"" style=""width: 408px; height: 417px; margin-left:608px;""></div></div>",,delaylearn,learning,display_response,kOQt9bBZ04NJ8LMjzNzE8gOCad02,kOQt9bBZ04NJ8LMjzNzE8gOCad02,,,,,,,,,,,,,,,,,chosen stimuli: images/choice_trial_15.png,,,,,5f467b8d74eeef0365ffb26e,15:49:35,26/03/2024
html-keyboard-response,103,196588,0.0-44.0-2.0,,,,delaylearn,learning,feedback_duration_window,kOQt9bBZ04NJ8LMjzNzE8gOCad02,kOQt9bBZ04NJ8LMjzNzE8gOCad02,,,,,,,,,,,,,,,,,,750.0,,,,5f467b8d74eeef0365ffb26e,15:49:35,26/03/2024
html-keyboard-response,104,198092,0.0-44.0-3.0,,<div style='margin:auto;width: auto; font-size: 150%'><span style='font-weight: bold; font-size: 100px; color: green;'>+10 points!</span><br><br></div>,,delaylearn,learning,feedback_image_window,kOQt9bBZ04NJ8LMjzNzE8gOCad02,kOQt9bBZ04NJ8LMjzNzE8gOCad02,,,,,,,,,,,,,,,,,,,,,,5f467b8d74eeef0365ffb26e,15:49:35,26/03/2024
html-keyboard-response,105,200056,0.0-45.0,,"<div style=""font-size:100px;"">+</div>",,delaylearn,learning,ITI,kOQt9bBZ04NJ8LMjzNzE8gOCad02,kOQt9bBZ04NJ8LMjzNzE8gOCad02,,,,,,,,,,,,,,,,,,,1961.0,,,5f467b8d74eeef0365ffb26e,15:49:35,26/03/2024
html-keyboard-response,106,201886,0.0-46.0-0.0,1827.2000000476837,"<div style=""display: flex; flex-direction: column; align-items: center; margin-top: -40px;""><img src=""images/pattern_1.png"" style=""width: 234px; height: 230px; margin-top: -50px;""><div style=""display: flex; justify-content: space-between; margin-top: 33px;""><img src=""images/choice_trial_3.png"" style=""width: 408px; height: 417px; margin-right: 200px;""><img src=""images/choice_trial_10.png"" style=""width: 408px; height: 417px;""></div></div>",f,delaylearn,learning,trial,kOQt9bBZ04NJ8LMjzNzE8gOCad02,kOQt9bBZ04NJ8LMjzNzE8gOCad02,2.0,images/choice_trial_3.png,images/choice_trial_10.png,images/pattern_1.png,f,f,7000.0,3.0,10.0,1.0,0.0,20.0,1.0,1.0,3.0,130.0,,,,,,5f467b8d74eeef0365ffb26e,15:49:35,26/03/2024
html-keyboard-response,107,202890,0.0-46.0-1.0,,"<div style=""display: flex; flex-direction: column; align-items: center; margin-top: -40px;""><img src=""images/pattern_1.png"" style=""width: 234px; height: 230px; margin-top: -50px;""><div style=""display: flex; justify-content: space-between; margin-top: 33px;""><img src=""images/choice_trial_3.png"" style=""width: 408px; height: 417px; margin-right: 608px;""></div></div>",,delaylearn,learning,display_response,kOQt9bBZ04NJ8LMjzNzE8gOCad02,kOQt9bBZ04NJ8LMjzNzE8gOCad02,,,,,,,,,,,,,,,,,chosen stimuli: images/choice_trial_3.png,,,,,5f467b8d74eeef0365ffb26e,15:49:35,26/03/2024
html-keyboard-response,108,209893,0.0-46.0-2.0,,,,delaylearn,learning,feedback_duration_window,kOQt9bBZ04NJ8LMjzNzE8gOCad02,kOQt9bBZ04NJ8LMjzNzE8gOCad02,,,,,,,,,,,,,,,,,,7000.0,,,,5f467b8d74eeef0365ffb26e,15:49:35,26/03/2024
html-keyboard-response,109,211396,0.0-46.0-3.0,,<div style='margin:auto;width: auto; font-size: 150%'><span style='font-weight: bold; font-size: 100px; color: green;'>+10 points!</span><br><br></div>,,delaylearn,learning,feedback_image_window,kOQt9bBZ04NJ8LMjzNzE8gOCad02,kOQt9bBZ04NJ8LMjzNzE8gOCad02,,,,,,,,,,,,,,,,,,,,,,5f467b8d74eeef0365ffb26e,15:49:35,26/03/2024
html-keyboard-response,110,213574,0.0-47.0,,"<div style=""font-size:100px;"">+</div>",,delaylearn,learning,ITI,kOQt9bBZ04NJ8LMjzNzE8gOCad02,kOQt9bBZ04NJ8LMjzNzE8gOCad02,,,,,,,,,,,,,,,,,,,2175.0,,,5f467b8d74eeef0365ffb26e,15:49:35,26/03/2024
html-keyboard-response,111,214510,0.0-48.0-0.0,934.1000000238419,"<div style=""display: flex; flex-direction: column; align-items: center; margin-top: -40px;""><img src=""images/pattern_6.png"" style=""width: 234px; height: 230px; margin-top: -50px;""><div style=""display: flex; justify-content: space-between; margin-top: 33px;""><img src=""images/choice_trial_5.png"" style=""width: 408px; height: 417px; margin-right: 200px;""><img src=""images/choice_trial_11.png"" style=""width: 408px; height: 417px;""></div></div>",f,delaylearn,learning,trial,kOQt9bBZ04NJ8LMjzNzE8gOCad02,kOQt9bBZ04NJ8LMjzNzE8gOCad02,2.0,images/choice_trial_5.png,images/choice_trial_11.png,images/pattern_6.png,j,j,750.0,5.0,11.0,5.0,1.0,21.0,0.0,0.0,5.0,130.0,,,,,,5f467b8d74eeef0365ffb26e,15:49:35,26/03/2024
html-keyboard-response,112,215514,0.0-48.0-1.0,,"<div style=""display: flex; flex-direction: column; align-items: center; margin-top: -40px;""><img src=""images/pattern_6.png"" style=""width: 234px; height: 230px; margin-top: -50px;""><div style=""display: flex; justify-content: space-between; margin-top: 33px;""><img src=""images/choice_trial_5.png"" style=""width: 408px; height: 417px; margin-right: 608px;""></div></div>",,delaylearn,learning,display_response,kOQt9bBZ04NJ8LMjzNzE8gOCad02,kOQt9bBZ04NJ8LMjzNzE8gOCad02,,,,,,,,,,,,,,,,,chosen stimuli: images/choice_trial_5.png,,,,,5f467b8d74eeef0365ffb26e,15:49:35,26/03/2024
html-keyboard-response,113,216265,0.0-48.0-2.0,,,,delaylearn,learning,feedback_duration_window,kOQt9bBZ04NJ8LMjzNzE8gOCad02,kOQt9bBZ04NJ8LMjzNzE8gOCad02,,,,,,,,,,,,,,,,,,750.0,,,,5f467b8d74eeef0365ffb26e,15:49:35,26/03/2024
html-keyboard-response,114,217767,0.0-48.0-3.0,,<div style='margin:auto;width: auto; font-size: 150%'><span style='font-weight: bold; font-size: 100px; color: red;'>0 points!</span><br><br></div>,,delaylearn,learning,feedback_image_window,kOQt9bBZ04NJ8LMjzNzE8gOCad02,kOQt9bBZ04NJ8LMjzNzE8gOCad02,,,,,,,,,,,,,,,,,,,,,,5f467b8d74eeef0365ffb26e,15:49:35,26/03/2024
html-keyboard-response,115,219607,0.0-49.0,,"<div style=""font-size:100px;"">+</div>",,delaylearn,learning,ITI,kOQt9bBZ04NJ8LMjzNzE8gOCad02,kOQt9bBZ04NJ8LMjzNzE8gOCad02,,,,,,,,,,,,,,,,,,,1837.0,,,5f467b8d74eeef0365ffb26e,15:49:35,26/03/2024
html-keyboard-response,116,221446,0.0-50.0-0.0,1837.0999999642372,"<div style=""display: flex; flex-direction: column; align-items: center; margin-top: -40px;""><img src=""images/pattern_4.png"" style=""width: 234px; height: 230px; margin-top: -50px;""><div style=""display: flex; justify-content: space-between; margin-top: 33px;""><img src=""images/choice_trial_4.png"" style=""width: 408px; height: 417px; margin-right: 200px;""><img src=""images/choice_trial_16.png"" style=""width: 408px; height: 417px;""></div></div>",j,delaylearn,learning,trial,kOQt9bBZ04NJ8LMjzNzE8gOCad02,kOQt9bBZ04NJ8LMjzNzE8gOCad02,2.0,images/choice_trial_4.png,images/choice_trial_16.png,images/pattern_4.png,f,f,7000.0,4.0,16.0,3.0,0.0,22.0,0.0,0.0,16.0,130.0,,,,,,5f467b8d74eeef0365ffb26e,15:49:35,26/03/2024
html-keyboard-response,117,222448,0.0-50.0-1.0,,"<div style=""display: flex; flex-direction: column; align-items: center; margin-top: -40px;""><img src=""images/pattern_4.png"" style=""width: 234px; height: 230px; margin-top: -50px;""><div style=""display: flex; justify-content: space-between; margin-top: 33px;""><img src=""images/choice_trial_16.png"" style=""width: 408px; height: 417px; margin-left:608px;""></div></div>",,delaylearn,learning,display_response,kOQt9bBZ04NJ8LMjzNzE8gOCad02,kOQt9bBZ04NJ8LMjzNzE8gOCad02,,,,,,,,,,,,,,,,,chosen stimuli: images/choice_trial_16.png,,,,,5f467b8d74eeef0365ffb26e,15:49:35,26/03/2024
html-keyboard-response,118,229450,0.0-50.0-2.0,,,,delaylearn,learning,feedback_duration_window,kOQt9bBZ04NJ8LMjzNzE8gOCad02,kOQt9bBZ04NJ8LMjzNzE8gOCad02,,,,,,,,,,,,,,,,,,7000.0,,,,5f467b8d74eeef0365ffb26e,15:49:35,26/03/2024
html-keyboard-response,119,230954,0.0-50.0-3.0,,<div style='margin:auto;width: auto; font-size: 150%'><span style='font-weight: bold; font-size: 100px; color: red;'>0 points!</span><br><br></div>,,delaylearn,learning,feedback_image_window,kOQt9bBZ04NJ8LMjzNzE8gOCad02,kOQt9bBZ04NJ8LMjzNzE8gOCad02,,,,,,,,,,,,,,,,,,,,,,5f467b8d74eeef0365ffb26e,15:49:35,26/03/2024
html-keyboard-response,120,231457,0.0-51.0-0.0,,,,,,mood_trial_fixation,kOQt9bBZ04NJ8LMjzNzE8gOCad02,,,,,,,,,,,,,,,,,,,,,,,5f467b8d74eeef0365ffb26e,15:49:35,26/03/2024
lmdlab-html-vas-response,121,236209,0.0-51.0-1.0,3749.0,How happy are you right now?,0.3685185185185185,delaylearn,learning,mood_trial,kOQt9bBZ04NJ8LMjzNzE8gOCad02,kOQt9bBZ04NJ8LMjzNzE8gOCad02,,,,,,,,,,,,,,,,,,,,"['Very unhappy', 'Very happy']",,5f467b8d74eeef0365ffb26e,15:49:35,26/03/2024
html-keyboard-response,122,238380,0.0-52.0,,"<div style=""font-size:100px;"">+</div>",,delaylearn,learning,ITI,kOQt9bBZ04NJ8LMjzNzE8gOCad02,kOQt9bBZ04NJ8LMjzNzE8gOCad02,,,,,,,,,,,,,,,,,,,2168.0,,,5f467b8d74eeef0365ffb26e,15:49:35,26/03/2024
html-keyboard-response,123,239649,0.0-53.0-0.0,1267.5,"<div style=""display: flex; flex-direction: column; align-items: center; margin-top: -40px;""><img src=""images/pattern_7.png"" style=""width: 234px; height: 230px; margin-top: -50px;""><div style=""display: flex; justify-content: space-between; margin-top: 33px;""><img src=""images/choice_trial_15.png"" style=""width: 408px; height: 417px; margin-right: 200px;""><img src=""images/choice_trial_8.png"" style=""width: 408px; height: 417px;""></div></div>",j,delaylearn,learning,trial,kOQt9bBZ04NJ8LMjzNzE8gOCad02,kOQt9bBZ04NJ8LMjzNzE8gOCad02,2.0,images/choice_trial_15.png,images/choice_trial_8.png,images/pattern_7.png,j,j,750.0,15.0,8.0,6.0,1.0,23.0,1.0,1.0,8.0,140.0,,,,,,5f467b8d74eeef0365ffb26e,15:49:35,26/03/2024
html-keyboard-response,124,240653,0.0-53.0-1.0,,"<div style=""display: flex; flex-direction: column; align-items: center; margin-top: -40px;""><img src=""images/pattern_7.png"" style=""width: 234px; height: 230px; margin-top: -50px;""><div style=""display: flex; justify-content: space-between; margin-top: 33px;""><img src=""images/choice_trial_8.png"" style=""width: 408px; height: 417px; margin-left:608px;""></div></div>",,delaylearn,learning,display_response,kOQt9bBZ04NJ8LMjzNzE8gOCad02,kOQt9bBZ04NJ8LMjzNzE8gOCad02,,,,,,,,,,,,,,,,,chosen stimuli: images/choice_trial_8.png,,,,,5f467b8d74eeef0365ffb26e,15:49:35,26/03/2024
html-keyboard-response,125,241405,0.0-53.0-2.0,,,,delaylearn,learning,feedback_duration_window,kOQt9bBZ04NJ8LMjzNzE8gOCad02,kOQt9bBZ04NJ8LMjzNzE8gOCad02,,,,,,,,,,,,,,,,,,750.0,,,,5f467b8d74eeef0365ffb26e,15:49:35,26/03/2024
html-keyboard-response,126,242908,0.0-53.0-3.0,,<div style='margin:auto;width: auto; font-size: 150%'><span style='font-weight: bold; font-size: 100px; color: green;'>+10 points!</span><br><br></div>,,delaylearn,learning,feedback_image_window,kOQt9bBZ04NJ8LMjzNzE8gOCad02,kOQt9bBZ04NJ8LMjzNzE8gOCad02,,,,,,,,,,,,,,,,,,,,,,5f467b8d74eeef0365ffb26e,15:49:35,26/03/2024
html-keyboard-response,127,245389,0.0-54.0,,"<div style=""font-size:100px;"">+</div>",,delaylearn,learning,ITI,kOQt9bBZ04NJ8LMjzNzE8gOCad02,kOQt9bBZ04NJ8LMjzNzE8gOCad02,,,,,,,,,,,,,,,,,,,2478.0,,,5f467b8d74eeef0365ffb26e,15:49:35,26/03/2024
html-keyboard-response,128,246705,0.0-55.0-0.0,1314.0999999642372,"<div style=""display: flex; flex-direction: column; align-items: center; margin-top: -40px;""><img src=""images/pattern_1.png"" style=""width: 234px; height: 230px; margin-top: -50px;""><div style=""display: flex; justify-content: space-between; margin-top: 33px;""><img src=""images/choice_trial_10.png"" style=""width: 408px; height: 417px; margin-right: 200px;""><img src=""images/choice_trial_3.png"" style=""width: 408px; height: 417px;""></div></div>",f,delaylearn,learning,trial,kOQt9bBZ04NJ8LMjzNzE8gOCad02,kOQt9bBZ04NJ8LMjzNzE8gOCad02,2.0,images/choice_trial_10.png,images/choice_trial_3.png,images/pattern_1.png,f,j,7000.0,10.0,3.0,1.0,1.0,24.0,0.0,1.0,10.0,150.0,,,,,,5f467b8d74eeef0365ffb26e,15:49:35,26/03/2024
html-keyboard-response,129,247709,0.0-55.0-1.0,,"<div style=""display: flex; flex-direction: column; align-items: center; margin-top: -40px;""><img src=""images/pattern_1.png"" style=""width: 234px; height: 230px; margin-top: -50px;""><div style=""display: flex; justify-content: space-between; margin-top: 33px;""><img src=""images/choice_trial_10.png"" style=""width: 408px; height: 417px; margin-right: 608px;""></div></div>",,delaylearn,learning,display_response,kOQt9bBZ04NJ8LMjzNzE8gOCad02,kOQt9bBZ04NJ8LMjzNzE8gOCad02,,,,,,,,,,,,,,,,,chosen stimuli: images/choice_trial_10.png,,,,,5f467b8d74eeef0365ffb26e,15:49:35,26/03/2024
html-keyboard-response,130,254712,0.0-55.0-2.0,,,,delaylearn,learning,feedback_duration_window,kOQt9bBZ04NJ8LMjzNzE8gOCad02,kOQt9bBZ04NJ8LMjzNzE8gOCad02,,,,,,,,,,,,,,,,,,7000.0,,,,5f467b8d74eeef0365ffb26e,15:49:35,26/03/2024
html-keyboard-response,131,256216,0.0-55.0-3.0,,<div style='margin:auto;width: auto; font-size: 150%'><span style='font-weight: bold; font-size: 100px; color: green;'>+10 points!</span><br><br></div>,,delaylearn,learning,feedback_image_window,kOQt9bBZ04NJ8LMjzNzE8gOCad02,kOQt9bBZ04NJ8LMjzNzE8gOCad02,,,,,,,,,,,,,,,,,,,,,,5f467b8d74eeef0365ffb26e,15:49:35,26/03/2024
html-keyboard-response,132,258640,0.0-56.0,,"<div style=""font-size:100px;"">+</div>",,delaylearn,learning,ITI,kOQt9bBZ04NJ8LMjzNzE8gOCad02,kOQt9bBZ04NJ8LMjzNzE8gOCad02,,,,,,,,,,,,,,,,,,,2421.0,,,5f467b8d74eeef0365ffb26e,15:49:35,26/03/2024
html-keyboard-response,133,260187,0.0-57.0-0.0,1544.9000000357628,"<div style=""display: flex; flex-direction: column; align-items: center; margin-top: -40px;""><img src=""images/pattern_5.png"" style=""width: 234px; height: 230px; margin-top: -50px;""><div style=""display: flex; justify-content: space-between; margin-top: 33px;""><img src=""images/choice_trial_9.png"" style=""width: 408px; height: 417px; margin-right: 200px;""><img src=""images/choice_trial_2.png"" style=""width: 408px; height: 417px;""></div></div>",f,delaylearn,learning,trial,kOQt9bBZ04NJ8LMjzNzE8gOCad02,kOQt9bBZ04NJ8LMjzNzE8gOCad02,2.0,images/choice_trial_9.png,images/choice_trial_2.png,images/pattern_5.png,j,j,750.0,9.0,2.0,4.0,1.0,25.0,0.0,0.0,9.0,150.0,,,,,,5f467b8d74eeef0365ffb26e,15:49:35,26/03/2024
html-keyboard-response,134,261191,0.0-57.0-1.0,,"<div style=""display: flex; flex-direction: column; align-items: center; margin-top: -40px;""><img src=""images/pattern_5.png"" style=""width: 234px; height: 230px; margin-top: -50px;""><div style=""display: flex; justify-content: space-between; margin-top: 33px;""><img src=""images/choice_trial_9.png"" style=""width: 408px; height: 417px; margin-right: 608px;""></div></div>",,delaylearn,learning,display_response,kOQt9bBZ04NJ8LMjzNzE8gOCad02,kOQt9bBZ04NJ8LMjzNzE8gOCad02,,,,,,,,,,,,,,,,,chosen stimuli: images/choice_trial_9.png,,,,,5f467b8d74eeef0365ffb26e,15:49:35,26/03/2024
html-keyboard-response,135,261944,0.0-57.0-2.0,,,,delaylearn,learning,feedback_duration_window,kOQt9bBZ04NJ8LMjzNzE8gOCad02,kOQt9bBZ04NJ8LMjzNzE8gOCad02,,,,,,,,,,,,,,,,,,750.0,,,,5f467b8d74eeef0365ffb26e,15:49:35,26/03/2024
html-keyboard-response,136,263448,0.0-57.0-3.0,,<div style='margin:auto;width: auto; font-size: 150%'><span style='font-weight: bold; font-size: 100px; color: red;'>0 points!</span><br><br></div>,,delaylearn,learning,feedback_image_window,kOQt9bBZ04NJ8LMjzNzE8gOCad02,kOQt9bBZ04NJ8LMjzNzE8gOCad02,,,,,,,,,,,,,,,,,,,,,,5f467b8d74eeef0365ffb26e,15:49:35,26/03/2024
html-keyboard-response,137,264958,0.0-58.0,,"<div style=""font-size:100px;"">+</div>",,delaylearn,learning,ITI,kOQt9bBZ04NJ8LMjzNzE8gOCad02,kOQt9bBZ04NJ8LMjzNzE8gOCad02,,,,,,,,,,,,,,,,,,,1508.0,,,5f467b8d74eeef0365ffb26e,15:49:35,26/03/2024
html-keyboard-response,138,266132,0.0-59.0-0.0,1171.9000000357628,"<div style=""display: flex; flex-direction: column; align-items: center; margin-top: -40px;""><img src=""images/pattern_3.png"" style=""width: 234px; height: 230px; margin-top: -50px;""><div style=""display: flex; justify-content: space-between; margin-top: 33px;""><img src=""images/choice_trial_14.png"" style=""width: 408px; height: 417px; margin-right: 200px;""><img src=""images/choice_trial_12.png"" style=""width: 408px; height: 417px;""></div></div>",j,delaylearn,learning,trial,kOQt9bBZ04NJ8LMjzNzE8gOCad02,kOQt9bBZ04NJ8LMjzNzE8gOCad02,2.0,images/choice_trial_14.png,images/choice_trial_12.png,images/pattern_3.png,j,j,7000.0,14.0,12.0,2.0,1.0,26.0,1.0,1.0,12.0,160.0,,,,,,5f467b8d74eeef0365ffb26e,15:49:35,26/03/2024
html-keyboard-response,139,267137,0.0-59.0-1.0,,"<div style=""display: flex; flex-direction: column; align-items: center; margin-top: -40px;""><img src=""images/pattern_3.png"" style=""width: 234px; height: 230px; margin-top: -50px;""><div style=""display: flex; justify-content: space-between; margin-top: 33px;""><img src=""images/choice_trial_12.png"" style=""width: 408px; height: 417px; margin-left:608px;""></div></div>",,delaylearn,learning,display_response,kOQt9bBZ04NJ8LMjzNzE8gOCad02,kOQt9bBZ04NJ8LMjzNzE8gOCad02,,,,,,,,,,,,,,,,,chosen stimuli: images/choice_trial_12.png,,,,,5f467b8d74eeef0365ffb26e,15:49:35,26/03/2024
html-keyboard-response,140,274139,0.0-59.0-2.0,,,,delaylearn,learning,feedback_duration_window,kOQt9bBZ04NJ8LMjzNzE8gOCad02,kOQt9bBZ04NJ8LMjzNzE8gOCad02,,,,,,,,,,,,,,,,,,7000.0,,,,5f467b8d74eeef0365ffb26e,15:49:35,26/03/2024
html-keyboard-response,141,275643,0.0-59.0-3.0,,<div style='margin:auto;width: auto; font-size: 150%'><span style='font-weight: bold; font-size: 100px; color: green;'>+10 points!</span><br><br></div>,,delaylearn,learning,feedback_image_window,kOQt9bBZ04NJ8LMjzNzE8gOCad02,kOQt9bBZ04NJ8LMjzNzE8gOCad02,,,,,,,,,,,,,,,,,,,,,,5f467b8d74eeef0365ffb26e,15:49:35,26/03/2024
lmdlab-html-vas-response,142,282814,0.0-60.0-0.0,5662.0,*How <b><u>confident</u></b> are you feeling about your answers at this moment?*,0.30925925925925923,rewlearn,rate_confidence,,kOQt9bBZ04NJ8LMjzNzE8gOCad02,kOQt9bBZ04NJ8LMjzNzE8gOCad02,,,,,,,,,,,,,,,,,,,,"['No confidence', 'Complete confidence']",,5f467b8d74eeef0365ffb26e,15:49:35,26/03/2024
lmdlab-rest-trial-limit,143,290145,0.0-60.0-1.0,5827.400000035763,"<div style=""font-size:40px;""><b>Please take a break!</b><br><br><br><br><p>Great work: you earned 160 points.<br><br><br><p>You have completed part(s) 1 of 5.<br><br><br><br>When you are ready to continue<br><br><br>please click the button.</p><br><br>",0,delaylearn,learning,break,kOQt9bBZ04NJ8LMjzNzE8gOCad02,kOQt9bBZ04NJ8LMjzNzE8gOCad02,,,,,,,,,,,,,,,,,,,,,0.0,5f467b8d74eeef0365ffb26e,15:49:35,26/03/2024
html-keyboard-response,144,293147,0.0-60.0-2.0,,"<div style=""font-size:100px;"">+</div>",,delaylearn,learning,pre_fixation,kOQt9bBZ04NJ8LMjzNzE8gOCad02,,,,,,,,,,,,,,,,,,,,,,,5f467b8d74eeef0365ffb26e,15:49:35,26/03/2024
lmdlab-html-vas-response,145,297437,0.0-60.0-3.0-0.0,3284.0,How happy are you right now?,0.37777777777777777,delaylearn,learning,mood_baseline,kOQt9bBZ04NJ8LMjzNzE8gOCad02,kOQt9bBZ04NJ8LMjzNzE8gOCad02,,,,,,,,,,,,,,,,,,,,"['Very unhappy', 'Very happy']",,5f467b8d74eeef0365ffb26e,15:49:35,26/03/2024
html-keyboard-response,146,298940,0.0-60.0-3.0-1.0,,,,,,mood_baseline_fixation,kOQt9bBZ04NJ8LMjzNzE8gOCad02,,,,,,,,,,,,,,,,,,,,,,,5f467b8d74eeef0365ffb26e,15:49:35,26/03/2024
html-keyboard-response,147,300562,0.0-61.0,,"<div style=""font-size:100px;"">+</div>",,delaylearn,learning,ITI,kOQt9bBZ04NJ8LMjzNzE8gOCad02,kOQt9bBZ04NJ8LMjzNzE8gOCad02,,,,,,,,,,,,,,,,,,,1621.0,,,5f467b8d74eeef0365ffb26e,15:49:35,26/03/2024
html-keyboard-response,148,301764,0.0-62.0-0.0,1199.699999988079,"<div style=""display: flex; flex-direction: column; align-items: center; margin-top: -40px;""><img src=""images/pattern_7.png"" style=""width: 234px; height: 230px; margin-top: -50px;""><div style=""display: flex; justify-content: space-between; margin-top: 33px;""><img src=""images/choice_trial_15.png"" style=""width: 408px; height: 417px; margin-right: 200px;""><img src=""images/choice_trial_8.png"" style=""width: 408px; height: 417px;""></div></div>",j,delaylearn,learning,trial,kOQt9bBZ04NJ8LMjzNzE8gOCad02,kOQt9bBZ04NJ8LMjzNzE8gOCad02,2.0,images/choice_trial_15.png,images/choice_trial_8.png,images/pattern_7.png,j,j,750.0,15.0,8.0,6.0,1.0,27.0,1.0,1.0,8.0,170.0,,,,,,5f467b8d74eeef0365ffb26e,15:49:35,26/03/2024
html-keyboard-response,149,302768,0.0-62.0-1.0,,"<div style=""display: flex; flex-direction: column; align-items: center; margin-top: -40px;""><img src=""images/pattern_7.png"" style=""width: 234px; height: 230px; margin-top: -50px;""><div style=""display: flex; justify-content: space-between; margin-top: 33px;""><img src=""images/choice_trial_8.png"" style=""width: 408px; height: 417px; margin-left:608px;""></div></div>",,delaylearn,learning,display_response,kOQt9bBZ04NJ8LMjzNzE8gOCad02,kOQt9bBZ04NJ8LMjzNzE8gOCad02,,,,,,,,,,,,,,,,,chosen stimuli: images/choice_trial_8.png,,,,,5f467b8d74eeef0365ffb26e,15:49:35,26/03/2024
html-keyboard-response,150,303521,0.0-62.0-2.0,,,,delaylearn,learning,feedback_duration_window,kOQt9bBZ04NJ8LMjzNzE8gOCad02,kOQt9bBZ04NJ8LMjzNzE8gOCad02,,,,,,,,,,,,,,,,,,750.0,,,,5f467b8d74eeef0365ffb26e,15:49:35,26/03/2024
html-keyboard-response,151,305024,0.0-62.0-3.0,,<div style='margin:auto;width: auto; font-size: 150%'><span style='font-weight: bold; font-size: 100px; color: green;'>+10 points!</span><br><br></div>,,delaylearn,learning,feedback_image_window,kOQt9bBZ04NJ8LMjzNzE8gOCad02,kOQt9bBZ04NJ8LMjzNzE8gOCad02,,,,,,,,,,,,,,,,,,,,,,5f467b8d74eeef0365ffb26e,15:49:35,26/03/2024
html-keyboard-response,152,305526,0.0-63.0-0.0,,,,,,mood_trial_fixation,kOQt9bBZ04NJ8LMjzNzE8gOCad02,,,,,,,,,,,,,,,,,,,,,,,5f467b8d74eeef0365ffb26e,15:49:35,26/03/2024
lmdlab-html-vas-response,153,308726,0.0-63.0-1.0,2195.0,How happy are you right now?,0.3907407407407407,delaylearn,learning,mood_trial,kOQt9bBZ04NJ8LMjzNzE8gOCad02,kOQt9bBZ04NJ8LMjzNzE8gOCad02,,,,,,,,,,,,,,,,,,,,"['Very unhappy', 'Very happy']",,5f467b8d74eeef0365ffb26e,15:49:35,26/03/2024
html-keyboard-response,154,310742,0.0-64.0,,"<div style=""font-size:100px;"">+</div>",,delaylearn,learning,ITI,kOQt9bBZ04NJ8LMjzNzE8gOCad02,kOQt9bBZ04NJ8LMjzNzE8gOCad02,,,,,,,,,,,,,,,,,,,2013.0,,,5f467b8d74eeef0365ffb26e,15:49:35,26/03/2024
html-keyboard-response,155,312008,0.0-65.0-0.0,1263.199999988079,"<div style=""display: flex; flex-direction: column; align-items: center; margin-top: -40px;""><img src=""images/pattern_1.png"" style=""width: 234px; height: 230px; margin-top: -50px;""><div style=""display: flex; justify-content: space-between; margin-top: 33px;""><img src=""images/choice_trial_3.png"" style=""width: 408px; height: 417px; margin-right: 200px;""><img src=""images/choice_trial_10.png"" style=""width: 408px; height: 417px;""></div></div>",j,delaylearn,learning,trial,kOQt9bBZ04NJ8LMjzNzE8gOCad02,kOQt9bBZ04NJ8LMjzNzE8gOCad02,2.0,images/choice_trial_3.png,images/choice_trial_10.png,images/pattern_1.png,f,f,7000.0,3.0,10.0,1.0,0.0,28.0,0.0,0.0,10.0,170.0,,,,,,5f467b8d74eeef0365ffb26e,15:49:35,26/03/2024
html-keyboard-response,156,313012,0.0-65.0-1.0,,"<div style=""display: flex; flex-direction: column; align-items: center; margin-top: -40px;""><img src=""images/pattern_1.png"" style=""width: 234px; height: 230px; margin-top: -50px;""><div style=""display: flex; justify-content: space-between; margin-top: 33px;""><img src=""images/choice_trial_10.png"" style=""width: 408px; height: 417px; margin-left:608px;""></div></div>",,delaylearn,learning,display_response,kOQt9bBZ04NJ8LMjzNzE8gOCad02,kOQt9bBZ04NJ8LMjzNzE8gOCad02,,,,,,,,,,,,,,,,,chosen stimuli: images/choice_trial_10.png,,,,,5f467b8d74eeef0365ffb26e,15:49:35,26/03/2024
html-keyboard-response,157,320014,0.0-65.0-2.0,,,,delaylearn,learning,feedback_duration_window,kOQt9bBZ04NJ8LMjzNzE8gOCad02,kOQt9bBZ04NJ8LMjzNzE8gOCad02,,,,,,,,,,,,,,,,,,7000.0,,,,5f467b8d74eeef0365ffb26e,15:49:35,26/03/2024
html-keyboard-response,158,321519,0.0-65.0-3.0,,<div style='margin:auto;width: auto; font-size: 150%'><span style='font-weight: bold; font-size: 100px; color: red;'>0 points!</span><br><br></div>,,delaylearn,learning,feedback_image_window,kOQt9bBZ04NJ8LMjzNzE8gOCad02,kOQt9bBZ04NJ8LMjzNzE8gOCad02,,,,,,,,,,,,,,,,,,,,,,5f467b8d74eeef0365ffb26e,15:49:35,26/03/2024
html-keyboard-response,159,323487,0.0-66.0,,"<div style=""font-size:100px;"">+</div>",,delaylearn,learning,ITI,kOQt9bBZ04NJ8LMjzNzE8gOCad02,kOQt9bBZ04NJ8LMjzNzE8gOCad02,,,,,,,,,,,,,,,,,,,1965.0,,,5f467b8d74eeef0365ffb26e,15:49:35,26/03/2024
html-keyboard-response,160,324855,0.0-67.0-0.0,1365.5,"<div style=""display: flex; flex-direction: column; align-items: center; margin-top: -40px;""><img src=""images/pattern_5.png"" style=""width: 234px; height: 230px; margin-top: -50px;""><div style=""display: flex; justify-content: space-between; margin-top: 33px;""><img src=""images/choice_trial_2.png"" style=""width: 408px; height: 417px; margin-right: 200px;""><img src=""images/choice_trial_9.png"" style=""width: 408px; height: 417px;""></div></div>",j,delaylearn,learning,trial,kOQt9bBZ04NJ8LMjzNzE8gOCad02,kOQt9bBZ04NJ8LMjzNzE8gOCad02,2.0,images/choice_trial_2.png,images/choice_trial_9.png,images/pattern_5.png,f,f,750.0,2.0,9.0,4.0,0.0,29.0,0.0,0.0,9.0,170.0,,,,,,5f467b8d74eeef0365ffb26e,15:49:35,26/03/2024
html-keyboard-response,161,325858,0.0-67.0-1.0,,"<div style=""display: flex; flex-direction: column; align-items: center; margin-top: -40px;""><img src=""images/pattern_5.png"" style=""width: 234px; height: 230px; margin-top: -50px;""><div style=""display: flex; justify-content: space-between; margin-top: 33px;""><img src=""images/choice_trial_9.png"" style=""width: 408px; height: 417px; margin-left:608px;""></div></div>",,delaylearn,learning,display_response,kOQt9bBZ04NJ8LMjzNzE8gOCad02,kOQt9bBZ04NJ8LMjzNzE8gOCad02,,,,,,,,,,,,,,,,,chosen stimuli: images/choice_trial_9.png,,,,,5f467b8d74eeef0365ffb26e,15:49:35,26/03/2024
html-keyboard-response,162,326612,0.0-67.0-2.0,,,,delaylearn,learning,feedback_duration_window,kOQt9bBZ04NJ8LMjzNzE8gOCad02,kOQt9bBZ04NJ8LMjzNzE8gOCad02,,,,,,,,,,,,,,,,,,750.0,,,,5f467b8d74eeef0365ffb26e,15:49:35,26/03/2024
html-keyboard-response,163,328116,0.0-67.0-3.0,,<div style='margin:auto;width: auto; font-size: 150%'><span style='font-weight: bold; font-size: 100px; color: red;'>0 points!</span><br><br></div>,,delaylearn,learning,feedback_image_window,kOQt9bBZ04NJ8LMjzNzE8gOCad02,kOQt9bBZ04NJ8LMjzNzE8gOCad02,,,,,,,,,,,,,,,,,,,,,,5f467b8d74eeef0365ffb26e,15:49:35,26/03/2024
html-keyboard-response,164,330518,0.0-68.0,,"<div style=""font-size:100px;"">+</div>",,delaylearn,learning,ITI,kOQt9bBZ04NJ8LMjzNzE8gOCad02,kOQt9bBZ04NJ8LMjzNzE8gOCad02,,,,,,,,,,,,,,,,,,,2399.0,,,5f467b8d74eeef0365ffb26e,15:49:35,26/03/2024
html-keyboard-response,165,332239,0.0-69.0-0.0,1719.0,"<div style=""display: flex; flex-direction: column; align-items: center; margin-top: -40px;""><img src=""images/pattern_6.png"" style=""width: 234px; height: 230px; margin-top: -50px;""><div style=""display: flex; justify-content: space-between; margin-top: 33px;""><img src=""images/choice_trial_5.png"" style=""width: 408px; height: 417px; margin-right: 200px;""><img src=""images/choice_trial_11.png"" style=""width: 408px; height: 417px;""></div></div>",f,delaylearn,learning,trial,kOQt9bBZ04NJ8LMjzNzE8gOCad02,kOQt9bBZ04NJ8LMjzNzE8gOCad02,2.0,images/choice_trial_5.png,images/choice_trial_11.png,images/pattern_6.png,j,j,750.0,5.0,11.0,5.0,1.0,30.0,0.0,0.0,5.0,170.0,,,,,,5f467b8d74eeef0365ffb26e,15:49:35,26/03/2024
html-keyboard-response,166,333243,0.0-69.0-1.0,,"<div style=""display: flex; flex-direction: column; align-items: center; margin-top: -40px;""><img src=""images/pattern_6.png"" style=""width: 234px; height: 230px; margin-top: -50px;""><div style=""display: flex; justify-content: space-between; margin-top: 33px;""><img src=""images/choice_trial_5.png"" style=""width: 408px; height: 417px; margin-right: 608px;""></div></div>",,delaylearn,learning,display_response,kOQt9bBZ04NJ8LMjzNzE8gOCad02,kOQt9bBZ04NJ8LMjzNzE8gOCad02,,,,,,,,,,,,,,,,,chosen stimuli: images/choice_trial_5.png,,,,,5f467b8d74eeef0365ffb26e,15:49:35,26/03/2024
html-keyboard-response,167,333996,0.0-69.0-2.0,,,,delaylearn,learning,feedback_duration_window,kOQt9bBZ04NJ8LMjzNzE8gOCad02,kOQt9bBZ04NJ8LMjzNzE8gOCad02,,,,,,,,,,,,,,,,,,750.0,,,,5f467b8d74eeef0365ffb26e,15:49:35,26/03/2024
html-keyboard-response,168,335499,0.0-69.0-3.0,,<div style='margin:auto;width: auto; font-size: 150%'><span style='font-weight: bold; font-size: 100px; color: red;'>0 points!</span><br><br></div>,,delaylearn,learning,feedback_image_window,kOQt9bBZ04NJ8LMjzNzE8gOCad02,kOQt9bBZ04NJ8LMjzNzE8gOCad02,,,,,,,,,,,,,,,,,,,,,,5f467b8d74eeef0365ffb26e,15:49:35,26/03/2024
html-keyboard-response,169,336001,0.0-70.0-0.0,,,,,,mood_trial_fixation,kOQt9bBZ04NJ8LMjzNzE8gOCad02,,,,,,,,,,,,,,,,,,,,,,,5f467b8d74eeef0365ffb26e,15:49:35,26/03/2024
lmdlab-html-vas-response,170,339154,0.0-70.0-1.0,2148.0,How happy are you right now?,0.40555555555555556,delaylearn,learning,mood_trial,kOQt9bBZ04NJ8LMjzNzE8gOCad02,kOQt9bBZ04NJ8LMjzNzE8gOCad02,,,,,,,,,,,,,,,,,,,,"['Very unhappy', 'Very happy']",,5f467b8d74eeef0365ffb26e,15:49:35,26/03/2024
html-keyboard-response,171,340821,0.0-71.0,,"<div style=""font-size:100px;"">+</div>",,delaylearn,learning,ITI,kOQt9bBZ04NJ8LMjzNzE8gOCad02,kOQt9bBZ04NJ8LMjzNzE8gOCad02,,,,,,,,,,,,,,,,,,,1664.0,,,5f467b8d74eeef0365ffb26e,15:49:35,26/03/2024
html-keyboard-response,172,342305,0.0-72.0-0.0,1481.699999988079,"<div style=""display: flex; flex-direction: column; align-items: center; margin-top: -40px;""><img src=""images/pattern_4.png"" style=""width: 234px; height: 230px; margin-top: -50px;""><div style=""display: flex; justify-content: space-between; margin-top: 33px;""><img src=""images/choice_trial_16.png"" style=""width: 408px; height: 417px; margin-right: 200px;""><img src=""images/choice_trial_4.png"" style=""width: 408px; height: 417px;""></div></div>",f,delaylearn,learning,trial,kOQt9bBZ04NJ8LMjzNzE8gOCad02,kOQt9bBZ04NJ8LMjzNzE8gOCad02,2.0,images/choice_trial_16.png,images/choice_trial_4.png,images/pattern_4.png,j,j,7000.0,16.0,4.0,3.0,1.0,31.0,0.0,0.0,16.0,170.0,,,,,,5f467b8d74eeef0365ffb26e,15:49:35,26/03/2024
html-keyboard-response,173,343309,0.0-72.0-1.0,,"<div style=""display: flex; flex-direction: column; align-items: center; margin-top: -40px;""><img src=""images/pattern_4.png"" style=""width: 234px; height: 230px; margin-top: -50px;""><div style=""display: flex; justify-content: space-between; margin-top: 33px;""><img src=""images/choice_trial_16.png"" style=""width: 408px; height: 417px; margin-right: 608px;""></div></div>",,delaylearn,learning,display_response,kOQt9bBZ04NJ8LMjzNzE8gOCad02,kOQt9bBZ04NJ8LMjzNzE8gOCad02,,,,,,,,,,,,,,,,,chosen stimuli: images/choice_trial_16.png,,,,,5f467b8d74eeef0365ffb26e,15:49:35,26/03/2024
html-keyboard-response,174,350312,0.0-72.0-2.0,,,,delaylearn,learning,feedback_duration_window,kOQt9bBZ04NJ8LMjzNzE8gOCad02,kOQt9bBZ04NJ8LMjzNzE8gOCad02,,,,,,,,,,,,,,,,,,7000.0,,,,5f467b8d74eeef0365ffb26e,15:49:35,26/03/2024
html-keyboard-response,175,351816,0.0-72.0-3.0,,<div style='margin:auto;width: auto; font-size: 150%'><span style='font-weight: bold; font-size: 100px; color: red;'>0 points!</span><br><br></div>,,delaylearn,learning,feedback_image_window,kOQt9bBZ04NJ8LMjzNzE8gOCad02,kOQt9bBZ04NJ8LMjzNzE8gOCad02,,,,,,,,,,,,,,,,,,,,,,5f467b8d74eeef0365ffb26e,15:49:35,26/03/2024
html-keyboard-response,176,353442,0.0-73.0,,"<div style=""font-size:100px;"">+</div>",,delaylearn,learning,ITI,kOQt9bBZ04NJ8LMjzNzE8gOCad02,kOQt9bBZ04NJ8LMjzNzE8gOCad02,,,,,,,,,,,,,,,,,,,1624.0,,,5f467b8d74eeef0365ffb26e,15:49:35,26/03/2024
html-keyboard-response,177,355166,0.0-74.0-0.0,1721.5,"<div style=""display: flex; flex-direction: column; align-items: center; margin-top: -40px;""><img src=""images/pattern_3.png"" style=""width: 234px; height: 230px; margin-top: -50px;""><div style=""display: flex; justify-content: space-between; margin-top: 33px;""><img src=""images/choice_trial_14.png"" style=""width: 408px; height: 417px; margin-right: 200px;""><img src=""images/choice_trial_12.png"" style=""width: 408px; height: 417px;""></div></div>",j,delaylearn,learning,trial,kOQt9bBZ04NJ8LMjzNzE8gOCad02,kOQt9bBZ04NJ8LMjzNzE8gOCad02,2.0,images/choice_trial_14.png,images/choice_trial_12.png,images/pattern_3.png,j,j,7000.0,14.0,12.0,2.0,1.0,32.0,1.0,1.0,12.0,180.0,,,,,,5f467b8d74eeef0365ffb26e,15:49:35,26/03/2024
html-keyboard-response,178,356170,0.0-74.0-1.0,,"<div style=""display: flex; flex-direction: column; align-items: center; margin-top: -40px;""><img src=""images/pattern_3.png"" style=""width: 234px; height: 230px; margin-top: -50px;""><div style=""display: flex; justify-content: space-between; margin-top: 33px;""><img src=""images/choice_trial_12.png"" style=""width: 408px; height: 417px; margin-left:608px;""></div></div>",,delaylearn,learning,display_response,kOQt9bBZ04NJ8LMjzNzE8gOCad02,kOQt9bBZ04NJ8LMjzNzE8gOCad02,,,,,,,,,,,,,,,,,chosen stimuli: images/choice_trial_12.png,,,,,5f467b8d74eeef0365ffb26e,15:49:35,26/03/2024
html-keyboard-response,179,363173,0.0-74.0-2.0,,,,delaylearn,learning,feedback_duration_window,kOQt9bBZ04NJ8LMjzNzE8gOCad02,kOQt9bBZ04NJ8LMjzNzE8gOCad02,,,,,,,,,,,,,,,,,,7000.0,,,,5f467b8d74eeef0365ffb26e,15:49:35,26/03/2024
html-keyboard-response,180,364677,0.0-74.0-3.0,,<div style='margin:auto;width: auto; font-size: 150%'><span style='font-weight: bold; font-size: 100px; color: green;'>+10 points!</span><br><br></div>,,delaylearn,learning,feedback_image_window,kOQt9bBZ04NJ8LMjzNzE8gOCad02,kOQt9bBZ04NJ8LMjzNzE8gOCad02,,,,,,,,,,,,,,,,,,,,,,5f467b8d74eeef0365ffb26e,15:49:35,26/03/2024
html-keyboard-response,181,366203,0.0-75.0,,"<div style=""font-size:100px;"">+</div>",,delaylearn,learning,ITI,kOQt9bBZ04NJ8LMjzNzE8gOCad02,kOQt9bBZ04NJ8LMjzNzE8gOCad02,,,,,,,,,,,,,,,,,,,1523.0,,,5f467b8d74eeef0365ffb26e,15:49:35,26/03/2024
html-keyboard-response,182,367981,0.0-76.0-0.0,1775.3999999761581,"<div style=""display: flex; flex-direction: column; align-items: center; margin-top: -40px;""><img src=""images/pattern_5.png"" style=""width: 234px; height: 230px; margin-top: -50px;""><div style=""display: flex; justify-content: space-between; margin-top: 33px;""><img src=""images/choice_trial_2.png"" style=""width: 408px; height: 417px; margin-right: 200px;""><img src=""images/choice_trial_9.png"" style=""width: 408px; height: 417px;""></div></div>",f,delaylearn,learning,trial,kOQt9bBZ04NJ8LMjzNzE8gOCad02,kOQt9bBZ04NJ8LMjzNzE8gOCad02,2.0,images/choice_trial_2.png,images/choice_trial_9.png,images/pattern_5.png,j,f,750.0,2.0,9.0,4.0,0.0,33.0,1.0,0.0,2.0,180.0,,,,,,5f467b8d74eeef0365ffb26e,15:49:35,26/03/2024
html-keyboard-response,183,368983,0.0-76.0-1.0,,"<div style=""display: flex; flex-direction: column; align-items: center; margin-top: -40px;""><img src=""images/pattern_5.png"" style=""width: 234px; height: 230px; margin-top: -50px;""><div style=""display: flex; justify-content: space-between; margin-top: 33px;""><img src=""images/choice_trial_2.png"" style=""width: 408px; height: 417px; margin-right: 608px;""></div></div>",,delaylearn,learning,display_response,kOQt9bBZ04NJ8LMjzNzE8gOCad02,kOQt9bBZ04NJ8LMjzNzE8gOCad02,,,,,,,,,,,,,,,,,chosen stimuli: images/choice_trial_2.png,,,,,5f467b8d74eeef0365ffb26e,15:49:35,26/03/2024
html-keyboard-response,184,369737,0.0-76.0-2.0,,,,delaylearn,learning,feedback_duration_window,kOQt9bBZ04NJ8LMjzNzE8gOCad02,kOQt9bBZ04NJ8LMjzNzE8gOCad02,,,,,,,,,,,,,,,,,,750.0,,,,5f467b8d74eeef0365ffb26e,15:49:35,26/03/2024
html-keyboard-response,185,371240,0.0-76.0-3.0,,<div style='margin:auto;width: auto; font-size: 150%'><span style='font-weight: bold; font-size: 100px; color: red;'>0 points!</span><br><br></div>,,delaylearn,learning,feedback_image_window,kOQt9bBZ04NJ8LMjzNzE8gOCad02,kOQt9bBZ04NJ8LMjzNzE8gOCad02,,,,,,,,,,,,,,,,,,,,,,5f467b8d74eeef0365ffb26e,15:49:35,26/03/2024
html-keyboard-response,186,373684,0.0-77.0,,"<div style=""font-size:100px;"">+</div>",,delaylearn,learning,ITI,kOQt9bBZ04NJ8LMjzNzE8gOCad02,kOQt9bBZ04NJ8LMjzNzE8gOCad02,,,,,,,,,,,,,,,,,,,2443.0,,,5f467b8d74eeef0365ffb26e,15:49:35,26/03/2024
html-keyboard-response,187,375204,0.0-78.0-0.0,1517.199999988079,"<div style=""display: flex; flex-direction: column; align-items: center; margin-top: -40px;""><img src=""images/pattern_1.png"" style=""width: 234px; height: 230px; margin-top: -50px;""><div style=""display: flex; justify-content: space-between; margin-top: 33px;""><img src=""images/choice_trial_3.png"" style=""width: 408px; height: 417px; margin-right: 200px;""><img src=""images/choice_trial_10.png"" style=""width: 408px; height: 417px;""></div></div>",f,delaylearn,learning,trial,kOQt9bBZ04NJ8LMjzNzE8gOCad02,kOQt9bBZ04NJ8LMjzNzE8gOCad02,2.0,images/choice_trial_3.png,images/choice_trial_10.png,images/pattern_1.png,f,f,7000.0,3.0,10.0,1.0,0.0,34.0,1.0,1.0,3.0,190.0,,,,,,5f467b8d74eeef0365ffb26e,15:49:35,26/03/2024
html-keyboard-response,188,376208,0.0-78.0-1.0,,"<div style=""display: flex; flex-direction: column; align-items: center; margin-top: -40px;""><img src=""images/pattern_1.png"" style=""width: 234px; height: 230px; margin-top: -50px;""><div style=""display: flex; justify-content: space-between; margin-top: 33px;""><img src=""images/choice_trial_3.png"" style=""width: 408px; height: 417px; margin-right: 608px;""></div></div>",,delaylearn,learning,display_response,kOQt9bBZ04NJ8LMjzNzE8gOCad02,kOQt9bBZ04NJ8LMjzNzE8gOCad02,,,,,,,,,,,,,,,,,chosen stimuli: images/choice_trial_3.png,,,,,5f467b8d74eeef0365ffb26e,15:49:35,26/03/2024
html-keyboard-response,189,383211,0.0-78.0-2.0,,,,delaylearn,learning,feedback_duration_window,kOQt9bBZ04NJ8LMjzNzE8gOCad02,kOQt9bBZ04NJ8LMjzNzE8gOCad02,,,,,,,,,,,,,,,,,,7000.0,,,,5f467b8d74eeef0365ffb26e,15:49:35,26/03/2024
html-keyboard-response,190,384714,0.0-78.0-3.0,,<div style='margin:auto;width: auto; font-size: 150%'><span style='font-weight: bold; font-size: 100px; color: green;'>+10 points!</span><br><br></div>,,delaylearn,learning,feedback_image_window,kOQt9bBZ04NJ8LMjzNzE8gOCad02,kOQt9bBZ04NJ8LMjzNzE8gOCad02,,,,,,,,,,,,,,,,,,,,,,5f467b8d74eeef0365ffb26e,15:49:35,26/03/2024
html-keyboard-response,191,385217,0.0-79.0-0.0,,,,,,mood_trial_fixation,kOQt9bBZ04NJ8LMjzNzE8gOCad02,,,,,,,,,,,,,,,,,,,,,,,5f467b8d74eeef0365ffb26e,15:49:35,26/03/2024
lmdlab-html-vas-response,192,388504,0.0-79.0-1.0,2284.0,How happy are you right now?,0.4111111111111111,delaylearn,learning,mood_trial,kOQt9bBZ04NJ8LMjzNzE8gOCad02,kOQt9bBZ04NJ8LMjzNzE8gOCad02,,,,,,,,,,,,,,,,,,,,"['Very unhappy', 'Very happy']",,5f467b8d74eeef0365ffb26e,15:49:35,26/03/2024
html-keyboard-response,193,390606,0.0-80.0,,"<div style=""font-size:100px;"">+</div>",,delaylearn,learning,ITI,kOQt9bBZ04NJ8LMjzNzE8gOCad02,kOQt9bBZ04NJ8LMjzNzE8gOCad02,,,,,,,,,,,,,,,,,,,2099.0,,,5f467b8d74eeef0365ffb26e,15:49:35,26/03/2024
html-keyboard-response,194,392180,0.0-81.0-0.0,1571.300000011921,"<div style=""display: flex; flex-direction: column; align-items: center; margin-top: -40px;""><img src=""images/pattern_6.png"" style=""width: 234px; height: 230px; margin-top: -50px;""><div style=""display: flex; justify-content: space-between; margin-top: 33px;""><img src=""images/choice_trial_11.png"" style=""width: 408px; height: 417px; margin-right: 200px;""><img src=""images/choice_trial_5.png"" style=""width: 408px; height: 417px;""></div></div>",f,delaylearn,learning,trial,kOQt9bBZ04NJ8LMjzNzE8gOCad02,kOQt9bBZ04NJ8LMjzNzE8gOCad02,2.0,images/choice_trial_11.png,images/choice_trial_5.png,images/pattern_6.png,j,f,750.0,11.0,5.0,5.0,0.0,35.0,1.0,0.0,11.0,190.0,,,,,,5f467b8d74eeef0365ffb26e,15:49:35,26/03/2024
html-keyboard-response,195,393183,0.0-81.0-1.0,,"<div style=""display: flex; flex-direction: column; align-items: center; margin-top: -40px;""><img src=""images/pattern_6.png"" style=""width: 234px; height: 230px; margin-top: -50px;""><div style=""display: flex; justify-content: space-between; margin-top: 33px;""><img src=""images/choice_trial_11.png"" style=""width: 408px; height: 417px; margin-right: 608px;""></div></div>",,delaylearn,learning,display_response,kOQt9bBZ04NJ8LMjzNzE8gOCad02,kOQt9bBZ04NJ8LMjzNzE8gOCad02,,,,,,,,,,,,,,,,,chosen stimuli: images/choice_trial_11.png,,,,,5f467b8d74eeef0365ffb26e,15:49:35,26/03/2024
html-keyboard-response,196,393936,0.0-81.0-2.0,,,,delaylearn,learning,feedback_duration_window,kOQt9bBZ04NJ8LMjzNzE8gOCad02,kOQt9bBZ04NJ8LMjzNzE8gOCad02,,,,,,,,,,,,,,,,,,750.0,,,,5f467b8d74eeef0365ffb26e,15:49:35,26/03/2024
html-keyboard-response,197,395440,0.0-81.0-3.0,,<div style='margin:auto;width: auto; font-size: 150%'><span style='font-weight: bold; font-size: 100px; color: red;'>0 points!</span><br><br></div>,,delaylearn,learning,feedback_image_window,kOQt9bBZ04NJ8LMjzNzE8gOCad02,kOQt9bBZ04NJ8LMjzNzE8gOCad02,,,,,,,,,,,,,,,,,,,,,,5f467b8d74eeef0365ffb26e,15:49:35,26/03/2024
html-keyboard-response,198,397253,0.0-82.0,,"<div style=""font-size:100px;"">+</div>",,delaylearn,learning,ITI,kOQt9bBZ04NJ8LMjzNzE8gOCad02,kOQt9bBZ04NJ8LMjzNzE8gOCad02,,,,,,,,,,,,,,,,,,,1810.0,,,5f467b8d74eeef0365ffb26e,15:49:35,26/03/2024
html-keyboard-response,199,399405,0.0-83.0-0.0,2150.2000000476837,"<div style=""display: flex; flex-direction: column; align-items: center; margin-top: -40px;""><img src=""images/pattern_3.png"" style=""width: 234px; height: 230px; margin-top: -50px;""><div style=""display: flex; justify-content: space-between; margin-top: 33px;""><img src=""images/choice_trial_14.png"" style=""width: 408px; height: 417px; margin-right: 200px;""><img src=""images/choice_trial_12.png"" style=""width: 408px; height: 417px;""></div></div>",j,delaylearn,learning,trial,kOQt9bBZ04NJ8LMjzNzE8gOCad02,kOQt9bBZ04NJ8LMjzNzE8gOCad02,2.0,images/choice_trial_14.png,images/choice_trial_12.png,images/pattern_3.png,j,j,7000.0,14.0,12.0,2.0,1.0,36.0,1.0,1.0,12.0,200.0,,,,,,5f467b8d74eeef0365ffb26e,15:49:35,26/03/2024
html-keyboard-response,200,400408,0.0-83.0-1.0,,"<div style=""display: flex; flex-direction: column; align-items: center; margin-top: -40px;""><img src=""images/pattern_3.png"" style=""width: 234px; height: 230px; margin-top: -50px;""><div style=""display: flex; justify-content: space-between; margin-top: 33px;""><img src=""images/choice_trial_12.png"" style=""width: 408px; height: 417px; margin-left:608px;""></div></div>",,delaylearn,learning,display_response,kOQt9bBZ04NJ8LMjzNzE8gOCad02,kOQt9bBZ04NJ8LMjzNzE8gOCad02,,,,,,,,,,,,,,,,,chosen stimuli: images/choice_trial_12.png,,,,,5f467b8d74eeef0365ffb26e,15:49:35,26/03/2024
html-keyboard-response,201,407411,0.0-83.0-2.0,,,,delaylearn,learning,feedback_duration_window,kOQt9bBZ04NJ8LMjzNzE8gOCad02,kOQt9bBZ04NJ8LMjzNzE8gOCad02,,,,,,,,,,,,,,,,,,7000.0,,,,5f467b8d74eeef0365ffb26e,15:49:35,26/03/2024
html-keyboard-response,202,408915,0.0-83.0-3.0,,<div style='margin:auto;width: auto; font-size: 150%'><span style='font-weight: bold; font-size: 100px; color: green;'>+10 points!</span><br><br></div>,,delaylearn,learning,feedback_image_window,kOQt9bBZ04NJ8LMjzNzE8gOCad02,kOQt9bBZ04NJ8LMjzNzE8gOCad02,,,,,,,,,,,,,,,,,,,,,,5f467b8d74eeef0365ffb26e,15:49:35,26/03/2024
html-keyboard-response,203,411416,0.0-84.0,,"<div style=""font-size:100px;"">+</div>",,delaylearn,learning,ITI,kOQt9bBZ04NJ8LMjzNzE8gOCad02,kOQt9bBZ04NJ8LMjzNzE8gOCad02,,,,,,,,,,,,,,,,,,,2498.0,,,5f467b8d74eeef0365ffb26e,15:49:35,26/03/2024
html-keyboard-response,204,413670,0.0-85.0-0.0,2250.300000011921,"<div style=""display: flex; flex-direction: column; align-items: center; margin-top: -40px;""><img src=""images/pattern_4.png"" style=""width: 234px; height: 230px; margin-top: -50px;""><div style=""display: flex; justify-content: space-between; margin-top: 33px;""><img src=""images/choice_trial_16.png"" style=""width: 408px; height: 417px; margin-right: 200px;""><img src=""images/choice_trial_4.png"" style=""width: 408px; height: 417px;""></div></div>",j,delaylearn,learning,trial,kOQt9bBZ04NJ8LMjzNzE8gOCad02,kOQt9bBZ04NJ8LMjzNzE8gOCad02,2.0,images/choice_trial_16.png,images/choice_trial_4.png,images/pattern_4.png,f,j,7000.0,16.0,4.0,3.0,1.0,37.0,1.0,0.0,4.0,200.0,,,,,,5f467b8d74eeef0365ffb26e,15:49:35,26/03/2024
html-keyboard-response,205,414673,0.0-85.0-1.0,,"<div style=""display: flex; flex-direction: column; align-items: center; margin-top: -40px;""><img src=""images/pattern_4.png"" style=""width: 234px; height: 230px; margin-top: -50px;""><div style=""display: flex; justify-content: space-between; margin-top: 33px;""><img src=""images/choice_trial_4.png"" style=""width: 408px; height: 417px; margin-left:608px;""></div></div>",,delaylearn,learning,display_response,kOQt9bBZ04NJ8LMjzNzE8gOCad02,kOQt9bBZ04NJ8LMjzNzE8gOCad02,,,,,,,,,,,,,,,,,chosen stimuli: images/choice_trial_4.png,,,,,5f467b8d74eeef0365ffb26e,15:49:35,26/03/2024
html-keyboard-response,206,421676,0.0-85.0-2.0,,,,delaylearn,learning,feedback_duration_window,kOQt9bBZ04NJ8LMjzNzE8gOCad02,kOQt9bBZ04NJ8LMjzNzE8gOCad02,,,,,,,,,,,,,,,,,,7000.0,,,,5f467b8d74eeef0365ffb26e,15:49:35,26/03/2024
html-keyboard-response,207,423179,0.0-85.0-3.0,,<div style='margin:auto;width: auto; font-size: 150%'><span style='font-weight: bold; font-size: 100px; color: red;'>0 points!</span><br><br></div>,,delaylearn,learning,feedback_image_window,kOQt9bBZ04NJ8LMjzNzE8gOCad02,kOQt9bBZ04NJ8LMjzNzE8gOCad02,,,,,,,,,,,,,,,,,,,,,,5f467b8d74eeef0365ffb26e,15:49:35,26/03/2024
html-keyboard-response,208,425033,0.0-86.0,,"<div style=""font-size:100px;"">+</div>",,delaylearn,learning,ITI,kOQt9bBZ04NJ8LMjzNzE8gOCad02,kOQt9bBZ04NJ8LMjzNzE8gOCad02,,,,,,,,,,,,,,,,,,,1852.0,,,5f467b8d74eeef0365ffb26e,15:49:35,26/03/2024
html-keyboard-response,209,426686,0.0-87.0-0.0,1649.699999988079,"<div style=""display: flex; flex-direction: column; align-items: center; margin-top: -40px;""><img src=""images/pattern_7.png"" style=""width: 234px; height: 230px; margin-top: -50px;""><div style=""display: flex; justify-content: space-between; margin-top: 33px;""><img src=""images/choice_trial_8.png"" style=""width: 408px; height: 417px; margin-right: 200px;""><img src=""images/choice_trial_15.png"" style=""width: 408px; height: 417px;""></div></div>",f,delaylearn,learning,trial,kOQt9bBZ04NJ8LMjzNzE8gOCad02,kOQt9bBZ04NJ8LMjzNzE8gOCad02,2.0,images/choice_trial_8.png,images/choice_trial_15.png,images/pattern_7.png,f,f,750.0,8.0,15.0,6.0,0.0,38.0,1.0,1.0,8.0,210.0,,,,,,5f467b8d74eeef0365ffb26e,15:49:35,26/03/2024
html-keyboard-response,210,427688,0.0-87.0-1.0,,"<div style=""display: flex; flex-direction: column; align-items: center; margin-top: -40px;""><img src=""images/pattern_7.png"" style=""width: 234px; height: 230px; margin-top: -50px;""><div style=""display: flex; justify-content: space-between; margin-top: 33px;""><img src=""images/choice_trial_8.png"" style=""width: 408px; height: 417px; margin-right: 608px;""></div></div>",,delaylearn,learning,display_response,kOQt9bBZ04NJ8LMjzNzE8gOCad02,kOQt9bBZ04NJ8LMjzNzE8gOCad02,,,,,,,,,,,,,,,,,chosen stimuli: images/choice_trial_8.png,,,,,5f467b8d74eeef0365ffb26e,15:49:35,26/03/2024
html-keyboard-response,211,428441,0.0-87.0-2.0,,,,delaylearn,learning,feedback_duration_window,kOQt9bBZ04NJ8LMjzNzE8gOCad02,kOQt9bBZ04NJ8LMjzNzE8gOCad02,,,,,,,,,,,,,,,,,,750.0,,,,5f467b8d74eeef0365ffb26e,15:49:35,26/03/2024
html-keyboard-response,212,429944,0.0-87.0-3.0,,<div style='margin:auto;width: auto; font-size: 150%'><span style='font-weight: bold; font-size: 100px; color: green;'>+10 points!</span><br><br></div>,,delaylearn,learning,feedback_image_window,kOQt9bBZ04NJ8LMjzNzE8gOCad02,kOQt9bBZ04NJ8LMjzNzE8gOCad02,,,,,,,,,,,,,,,,,,,,,,5f467b8d74eeef0365ffb26e,15:49:35,26/03/2024
html-keyboard-response,213,431797,0.0-88.0,,"<div style=""font-size:100px;"">+</div>",,delaylearn,learning,ITI,kOQt9bBZ04NJ8LMjzNzE8gOCad02,kOQt9bBZ04NJ8LMjzNzE8gOCad02,,,,,,,,,,,,,,,,,,,1851.0,,,5f467b8d74eeef0365ffb26e,15:49:35,26/03/2024
html-keyboard-response,214,433420,0.0-89.0-0.0,1620.800000011921,"<div style=""display: flex; flex-direction: column; align-items: center; margin-top: -40px;""><img src=""images/pattern_1.png"" style=""width: 234px; height: 230px; margin-top: -50px;""><div style=""display: flex; justify-content: space-between; margin-top: 33px;""><img src=""images/choice_trial_3.png"" style=""width: 408px; height: 417px; margin-right: 200px;""><img src=""images/choice_trial_10.png"" style=""width: 408px; height: 417px;""></div></div>",f,delaylearn,learning,trial,kOQt9bBZ04NJ8LMjzNzE8gOCad02,kOQt9bBZ04NJ8LMjzNzE8gOCad02,2.0,images/choice_trial_3.png,images/choice_trial_10.png,images/pattern_1.png,f,f,7000.0,3.0,10.0,1.0,0.0,39.0,1.0,1.0,3.0,220.0,,,,,,5f467b8d74eeef0365ffb26e,15:49:35,26/03/2024
html-keyboard-response,215,434424,0.0-89.0-1.0,,"<div style=""display: flex; flex-direction: column; align-items: center; margin-top: -40px;""><img src=""images/pattern_1.png"" style=""width: 234px; height: 230px; margin-top: -50px;""><div style=""display: flex; justify-content: space-between; margin-top: 33px;""><img src=""images/choice_trial_3.png"" style=""width: 408px; height: 417px; margin-right: 608px;""></div></div>",,delaylearn,learning,display_response,kOQt9bBZ04NJ8LMjzNzE8gOCad02,kOQt9bBZ04NJ8LMjzNzE8gOCad02,,,,,,,,,,,,,,,,,chosen stimuli: images/choice_trial_3.png,,,,,5f467b8d74eeef0365ffb26e,15:49:35,26/03/2024
html-keyboard-response,216,441427,0.0-89.0-2.0,,,,delaylearn,learning,feedback_duration_window,kOQt9bBZ04NJ8LMjzNzE8gOCad02,kOQt9bBZ04NJ8LMjzNzE8gOCad02,,,,,,,,,,,,,,,,,,7000.0,,,,5f467b8d74eeef0365ffb26e,15:49:35,26/03/2024
html-keyboard-response,217,442929,0.0-89.0-3.0,,<div style='margin:auto;width: auto; font-size: 150%'><span style='font-weight: bold; font-size: 100px; color: green;'>+10 points!</span><br><br></div>,,delaylearn,learning,feedback_image_window,kOQt9bBZ04NJ8LMjzNzE8gOCad02,kOQt9bBZ04NJ8LMjzNzE8gOCad02,,,,,,,,,,,,,,,,,,,,,,5f467b8d74eeef0365ffb26e,15:49:35,26/03/2024
html-keyboard-response,218,443432,0.0-90.0-0.0,,,,,,mood_trial_fixation,kOQt9bBZ04NJ8LMjzNzE8gOCad02,,,,,,,,,,,,,,,,,,,,,,,5f467b8d74eeef0365ffb26e,15:49:35,26/03/2024
lmdlab-html-vas-response,219,446435,0.0-90.0-1.0,1999.0,How happy are you right now?,0.412962962962963,delaylearn,learning,mood_trial,kOQt9bBZ04NJ8LMjzNzE8gOCad02,kOQt9bBZ04NJ8LMjzNzE8gOCad02,,,,,,,,,,,,,,,,,,,,"['Very unhappy', 'Very happy']",,5f467b8d74eeef0365ffb26e,15:49:35,26/03/2024
html-keyboard-response,220,448013,0.0-91.0,,"<div style=""font-size:100px;"">+</div>",,delaylearn,learning,ITI,kOQt9bBZ04NJ8LMjzNzE8gOCad02,kOQt9bBZ04NJ8LMjzNzE8gOCad02,,,,,,,,,,,,,,,,,,,1576.0,,,5f467b8d74eeef0365ffb26e,15:49:35,26/03/2024
html-keyboard-response,221,449772,0.0-92.0-0.0,1755.699999988079,"<div style=""display: flex; flex-direction: column; align-items: center; margin-top: -40px;""><img src=""images/pattern_3.png"" style=""width: 234px; height: 230px; margin-top: -50px;""><div style=""display: flex; justify-content: space-between; margin-top: 33px;""><img src=""images/choice_trial_12.png"" style=""width: 408px; height: 417px; margin-right: 200px;""><img src=""images/choice_trial_14.png"" style=""width: 408px; height: 417px;""></div></div>",f,delaylearn,learning,trial,kOQt9bBZ04NJ8LMjzNzE8gOCad02,kOQt9bBZ04NJ8LMjzNzE8gOCad02,2.0,images/choice_trial_12.png,images/choice_trial_14.png,images/pattern_3.png,j,f,7000.0,12.0,14.0,2.0,0.0,40.0,1.0,0.0,12.0,220.0,,,,,,5f467b8d74eeef0365ffb26e,15:49:35,26/03/2024
html-keyboard-response,222,450777,0.0-92.0-1.0,,"<div style=""display: flex; flex-direction: column; align-items: center; margin-top: -40px;""><img src=""images/pattern_3.png"" style=""width: 234px; height: 230px; margin-top: -50px;""><div style=""display: flex; justify-content: space-between; margin-top: 33px;""><img src=""images/choice_trial_12.png"" style=""width: 408px; height: 417px; margin-right: 608px;""></div></div>",,delaylearn,learning,display_response,kOQt9bBZ04NJ8LMjzNzE8gOCad02,kOQt9bBZ04NJ8LMjzNzE8gOCad02,,,,,,,,,,,,,,,,,chosen stimuli: images/choice_trial_12.png,,,,,5f467b8d74eeef0365ffb26e,15:49:35,26/03/2024
html-keyboard-response,223,457780,0.0-92.0-2.0,,,,delaylearn,learning,feedback_duration_window,kOQt9bBZ04NJ8LMjzNzE8gOCad02,kOQt9bBZ04NJ8LMjzNzE8gOCad02,,,,,,,,,,,,,,,,,,7000.0,,,,5f467b8d74eeef0365ffb26e,15:49:35,26/03/2024
html-keyboard-response,224,459284,0.0-92.0-3.0,,<div style='margin:auto;width: auto; font-size: 150%'><span style='font-weight: bold; font-size: 100px; color: red;'>0 points!</span><br><br></div>,,delaylearn,learning,feedback_image_window,kOQt9bBZ04NJ8LMjzNzE8gOCad02,kOQt9bBZ04NJ8LMjzNzE8gOCad02,,,,,,,,,,,,,,,,,,,,,,5f467b8d74eeef0365ffb26e,15:49:35,26/03/2024
html-keyboard-response,225,461575,0.0-93.0,,"<div style=""font-size:100px;"">+</div>",,delaylearn,learning,ITI,kOQt9bBZ04NJ8LMjzNzE8gOCad02,kOQt9bBZ04NJ8LMjzNzE8gOCad02,,,,,,,,,,,,,,,,,,,2289.0,,,5f467b8d74eeef0365ffb26e,15:49:35,26/03/2024
html-keyboard-response,226,463121,0.0-94.0-0.0,1542.699999988079,"<div style=""display: flex; flex-direction: column; align-items: center; margin-top: -40px;""><img src=""images/pattern_7.png"" style=""width: 234px; height: 230px; margin-top: -50px;""><div style=""display: flex; justify-content: space-between; margin-top: 33px;""><img src=""images/choice_trial_15.png"" style=""width: 408px; height: 417px; margin-right: 200px;""><img src=""images/choice_trial_8.png"" style=""width: 408px; height: 417px;""></div></div>",j,delaylearn,learning,trial,kOQt9bBZ04NJ8LMjzNzE8gOCad02,kOQt9bBZ04NJ8LMjzNzE8gOCad02,2.0,images/choice_trial_15.png,images/choice_trial_8.png,images/pattern_7.png,j,j,750.0,15.0,8.0,6.0,1.0,41.0,1.0,1.0,8.0,230.0,,,,,,5f467b8d74eeef0365ffb26e,15:49:35,26/03/2024
html-keyboard-response,227,464124,0.0-94.0-1.0,,"<div style=""display: flex; flex-direction: column; align-items: center; margin-top: -40px;""><img src=""images/pattern_7.png"" style=""width: 234px; height: 230px; margin-top: -50px;""><div style=""display: flex; justify-content: space-between; margin-top: 33px;""><img src=""images/choice_trial_8.png"" style=""width: 408px; height: 417px; margin-left:608px;""></div></div>",,delaylearn,learning,display_response,kOQt9bBZ04NJ8LMjzNzE8gOCad02,kOQt9bBZ04NJ8LMjzNzE8gOCad02,,,,,,,,,,,,,,,,,chosen stimuli: images/choice_trial_8.png,,,,,5f467b8d74eeef0365ffb26e,15:49:35,26/03/2024
html-keyboard-response,228,464878,0.0-94.0-2.0,,,,delaylearn,learning,feedback_duration_window,kOQt9bBZ04NJ8LMjzNzE8gOCad02,kOQt9bBZ04NJ8LMjzNzE8gOCad02,,,,,,,,,,,,,,,,,,750.0,,,,5f467b8d74eeef0365ffb26e,15:49:35,26/03/2024
html-keyboard-response,229,466381,0.0-94.0-3.0,,<div style='margin:auto;width: auto; font-size: 150%'><span style='font-weight: bold; font-size: 100px; color: green;'>+10 points!</span><br><br></div>,,delaylearn,learning,feedback_image_window,kOQt9bBZ04NJ8LMjzNzE8gOCad02,kOQt9bBZ04NJ8LMjzNzE8gOCad02,,,,,,,,,,,,,,,,,,,,,,5f467b8d74eeef0365ffb26e,15:49:35,26/03/2024
html-keyboard-response,230,468167,0.0-95.0,,"<div style=""font-size:100px;"">+</div>",,delaylearn,learning,ITI,kOQt9bBZ04NJ8LMjzNzE8gOCad02,kOQt9bBZ04NJ8LMjzNzE8gOCad02,,,,,,,,,,,,,,,,,,,1783.0,,,5f467b8d74eeef0365ffb26e,15:49:35,26/03/2024
