trial_type,trial_index,time_elapsed,internal_node_id,rt,stimulus,response,exp_name,exp_stage,test_part,subjectID,databaseID,counterbal,choice_stimuli_1,choice_stimuli_2,pattern_stimuli,rewarded_answer,correct_answer,feedback_duration_times,stim_left,stim_right,pair,leftright_counter,trial,response_correct,response_rewarded,chosen_stim,counter,displayed_choice,feedback_durations,ITI_duration,labels,rest_warning,prolificID,start_time,date
pavlovia,0,1070,0.0-0.0,,,,,,,0WkZqo6H3MW5HmHyy9f5yTJi22A2,,,,,,,,,,,,,,,,,,,,,,,634e460a7da3fef3d5a9faf3,9:06:17 AM,2/27/2024
html-keyboard-response,1,4074,0.0-1.0,,"<div style=""font-size:100px;"">+</div>",,delaylearn,learning,pre_fixation,0WkZqo6H3MW5HmHyy9f5yTJi22A2,not found,,,,,,,,,,,,,,,,,,,,,,634e460a7da3fef3d5a9faf3,9:06:17 AM,2/27/2024
html-keyboard-response,2,5404,0.0-2.0-0.0,1317.0,"<div style=""display: flex; flex-direction: column; align-items: center; margin-top: -40px;""><img src=""images/demo_images/pattern_1.png"" style=""width: 234px; height: 230px; margin-top: -50px;""><div style=""display: flex; justify-content: space-between; margin-top: 33px;""><img src=""images/demo_images/choice_trial_2.png"" style=""width: 408px; height: 417px; margin-right: 200px;""><img src=""images/demo_images/choice_trial_1.png"" style=""width: 408px; height: 417px;""></div></div>",j,delaylearn,learning,trial,0WkZqo6H3MW5HmHyy9f5yTJi22A2,0WkZqo6H3MW5HmHyy9f5yTJi22A2,2.0,images/demo_images/choice_trial_2.png,images/demo_images/choice_trial_1.png,images/demo_images/pattern_1.png,j,j,3000.0,2.0,1.0,20.0,1.0,1.0,1.0,1.0,1.0,10.0,,,,,,634e460a7da3fef3d5a9faf3,9:06:17 AM,2/27/2024
html-keyboard-response,3,6423,0.0-2.0-1.0,,"<div style=""display: flex; flex-direction: column; align-items: center; margin-top: -40px;""><img src=""images/demo_images/pattern_1.png"" style=""width: 234px; height: 230px; margin-top: -50px;""><div style=""display: flex; justify-content: space-between; margin-top: 33px;""><img src=""images/demo_images/choice_trial_1.png"" style=""width: 408px; height: 417px; margin-left:608px;""></div></div>",,delaylearn,learning,display_response,0WkZqo6H3MW5HmHyy9f5yTJi22A2,0WkZqo6H3MW5HmHyy9f5yTJi22A2,,,,,,,,,,,,,,,,,chosen stimuli: images/demo_images/choice_trial_1.png,,,,,634e460a7da3fef3d5a9faf3,9:06:17 AM,2/27/2024
html-keyboard-response,4,9444,0.0-2.0-2.0,,,,delaylearn,learning,feedback_duration_window,0WkZqo6H3MW5HmHyy9f5yTJi22A2,0WkZqo6H3MW5HmHyy9f5yTJi22A2,,,,,,,,,,,,,,,,,,3000.0,,,,634e460a7da3fef3d5a9faf3,9:06:17 AM,2/27/2024
html-keyboard-response,5,10963,0.0-2.0-3.0,,<div style='margin:auto;width: auto; font-size: 150%'><span style='font-weight: bold; font-size: 100px; color: green;'>+10 points!</span><br><br></div>,,delaylearn,learning,feedback_image_window,0WkZqo6H3MW5HmHyy9f5yTJi22A2,0WkZqo6H3MW5HmHyy9f5yTJi22A2,,,,,,,,,,,,,,,,,,,,,,634e460a7da3fef3d5a9faf3,9:06:17 AM,2/27/2024
html-keyboard-response,6,12586,0.0-3.0,,"<div style=""font-size:100px;"">+</div>",,delaylearn,learning,ITI,0WkZqo6H3MW5HmHyy9f5yTJi22A2,0WkZqo6H3MW5HmHyy9f5yTJi22A2,,,,,,,,,,,,,,,,,,,1611.0,,,634e460a7da3fef3d5a9faf3,9:06:17 AM,2/27/2024
html-keyboard-response,7,13452,0.0-4.0-0.0,856.0,"<div style=""display: flex; flex-direction: column; align-items: center; margin-top: -40px;""><img src=""images/demo_images/pattern_1.png"" style=""width: 234px; height: 230px; margin-top: -50px;""><div style=""display: flex; justify-content: space-between; margin-top: 33px;""><img src=""images/demo_images/choice_trial_2.png"" style=""width: 408px; height: 417px; margin-right: 200px;""><img src=""images/demo_images/choice_trial_1.png"" style=""width: 408px; height: 417px;""></div></div>",j,delaylearn,learning,trial,0WkZqo6H3MW5HmHyy9f5yTJi22A2,0WkZqo6H3MW5HmHyy9f5yTJi22A2,2.0,images/demo_images/choice_trial_2.png,images/demo_images/choice_trial_1.png,images/demo_images/pattern_1.png,j,j,3000.0,2.0,1.0,20.0,1.0,2.0,1.0,1.0,1.0,20.0,,,,,,634e460a7da3fef3d5a9faf3,9:06:17 AM,2/27/2024
html-keyboard-response,8,14470,0.0-4.0-1.0,,"<div style=""display: flex; flex-direction: column; align-items: center; margin-top: -40px;""><img src=""images/demo_images/pattern_1.png"" style=""width: 234px; height: 230px; margin-top: -50px;""><div style=""display: flex; justify-content: space-between; margin-top: 33px;""><img src=""images/demo_images/choice_trial_1.png"" style=""width: 408px; height: 417px; margin-left:608px;""></div></div>",,delaylearn,learning,display_response,0WkZqo6H3MW5HmHyy9f5yTJi22A2,0WkZqo6H3MW5HmHyy9f5yTJi22A2,,,,,,,,,,,,,,,,,chosen stimuli: images/demo_images/choice_trial_1.png,,,,,634e460a7da3fef3d5a9faf3,9:06:17 AM,2/27/2024
html-keyboard-response,9,17483,0.0-4.0-2.0,,,,delaylearn,learning,feedback_duration_window,0WkZqo6H3MW5HmHyy9f5yTJi22A2,0WkZqo6H3MW5HmHyy9f5yTJi22A2,,,,,,,,,,,,,,,,,,3000.0,,,,634e460a7da3fef3d5a9faf3,9:06:17 AM,2/27/2024
html-keyboard-response,10,19008,0.0-4.0-3.0,,<div style='margin:auto;width: auto; font-size: 150%'><span style='font-weight: bold; font-size: 100px; color: green;'>+10 points!</span><br><br></div>,,delaylearn,learning,feedback_image_window,0WkZqo6H3MW5HmHyy9f5yTJi22A2,0WkZqo6H3MW5HmHyy9f5yTJi22A2,,,,,,,,,,,,,,,,,,,,,,634e460a7da3fef3d5a9faf3,9:06:17 AM,2/27/2024
html-keyboard-response,11,20798,0.0-5.0,,"<div style=""font-size:100px;"">+</div>",,delaylearn,learning,ITI,0WkZqo6H3MW5HmHyy9f5yTJi22A2,0WkZqo6H3MW5HmHyy9f5yTJi22A2,,,,,,,,,,,,,,,,,,,1784.0,,,634e460a7da3fef3d5a9faf3,9:06:17 AM,2/27/2024
html-keyboard-response,12,23814,0.0-6.0-0.0,,"<div style=""display: flex; flex-direction: column; align-items: center; margin-top: -40px;""><img src=""images/demo_images/pattern_1.png"" style=""width: 234px; height: 230px; margin-top: -50px;""><div style=""display: flex; justify-content: space-between; margin-top: 33px;""><img src=""images/demo_images/choice_trial_1.png"" style=""width: 408px; height: 417px; margin-right: 200px;""><img src=""images/demo_images/choice_trial_2.png"" style=""width: 408px; height: 417px;""></div></div>",,delaylearn,learning,trial,0WkZqo6H3MW5HmHyy9f5yTJi22A2,0WkZqo6H3MW5HmHyy9f5yTJi22A2,2.0,images/demo_images/choice_trial_1.png,images/demo_images/choice_trial_2.png,images/demo_images/pattern_1.png,j,f,3000.0,1.0,2.0,20.0,0.0,3.0,0.0,0.0,0.0,20.0,,,,,,634e460a7da3fef3d5a9faf3,9:06:17 AM,2/27/2024
html-keyboard-response,13,24818,0.0-6.0-1.0,,<div style='font-weight: bold; font-size: 75px; color: red;'>Missed Trial <br><br><br><br> Please respond faster</div>,,delaylearn,learning,display_response,0WkZqo6H3MW5HmHyy9f5yTJi22A2,0WkZqo6H3MW5HmHyy9f5yTJi22A2,,,,,,,,,,,,,,,,,Missed trial,,,,,634e460a7da3fef3d5a9faf3,9:06:17 AM,2/27/2024
html-keyboard-response,14,24834,0.0-6.0-2.0,,,,delaylearn,learning,feedback_duration_window,0WkZqo6H3MW5HmHyy9f5yTJi22A2,0WkZqo6H3MW5HmHyy9f5yTJi22A2,,,,,,,,,,,,,,,,,,0.0,,,,634e460a7da3fef3d5a9faf3,9:06:17 AM,2/27/2024
html-keyboard-response,15,24850,0.0-6.0-3.0,,,,delaylearn,learning,feedback_image_window,0WkZqo6H3MW5HmHyy9f5yTJi22A2,0WkZqo6H3MW5HmHyy9f5yTJi22A2,,,,,,,,,,,,,,,,,,,,,,634e460a7da3fef3d5a9faf3,9:06:17 AM,2/27/2024
html-keyboard-response,16,26450,0.0-7.0,,"<div style=""font-size:100px;"">+</div>",,delaylearn,learning,ITI,0WkZqo6H3MW5HmHyy9f5yTJi22A2,0WkZqo6H3MW5HmHyy9f5yTJi22A2,,,,,,,,,,,,,,,,,,,1596.0,,,634e460a7da3fef3d5a9faf3,9:06:17 AM,2/27/2024
html-keyboard-response,17,26898,0.0-8.0-0.0,444.0,"<div style=""display: flex; flex-direction: column; align-items: center; margin-top: -40px;""><img src=""images/demo_images/pattern_1.png"" style=""width: 234px; height: 230px; margin-top: -50px;""><div style=""display: flex; justify-content: space-between; margin-top: 33px;""><img src=""images/demo_images/choice_trial_1.png"" style=""width: 408px; height: 417px; margin-right: 200px;""><img src=""images/demo_images/choice_trial_2.png"" style=""width: 408px; height: 417px;""></div></div>",j,delaylearn,learning,trial,0WkZqo6H3MW5HmHyy9f5yTJi22A2,0WkZqo6H3MW5HmHyy9f5yTJi22A2,2.0,images/demo_images/choice_trial_1.png,images/demo_images/choice_trial_2.png,images/demo_images/pattern_1.png,f,f,3000.0,1.0,2.0,20.0,0.0,4.0,0.0,0.0,2.0,20.0,,,,,,634e460a7da3fef3d5a9faf3,9:06:17 AM,2/27/2024
html-keyboard-response,18,27911,0.0-8.0-1.0,,"<div style=""display: flex; flex-direction: column; align-items: center; margin-top: -40px;""><img src=""images/demo_images/pattern_1.png"" style=""width: 234px; height: 230px; margin-top: -50px;""><div style=""display: flex; justify-content: space-between; margin-top: 33px;""><img src=""images/demo_images/choice_trial_2.png"" style=""width: 408px; height: 417px; margin-left:608px;""></div></div>",,delaylearn,learning,display_response,0WkZqo6H3MW5HmHyy9f5yTJi22A2,0WkZqo6H3MW5HmHyy9f5yTJi22A2,,,,,,,,,,,,,,,,,chosen stimuli: images/demo_images/choice_trial_2.png,,,,,634e460a7da3fef3d5a9faf3,9:06:17 AM,2/27/2024
html-keyboard-response,19,30914,0.0-8.0-2.0,,,,delaylearn,learning,feedback_duration_window,0WkZqo6H3MW5HmHyy9f5yTJi22A2,0WkZqo6H3MW5HmHyy9f5yTJi22A2,,,,,,,,,,,,,,,,,,3000.0,,,,634e460a7da3fef3d5a9faf3,9:06:17 AM,2/27/2024
html-keyboard-response,20,32424,0.0-8.0-3.0,,<div style='margin:auto;width: auto; font-size: 150%'><span style='font-weight: bold; font-size: 100px; color: red;'>0 points!</span><br><br></div>,,delaylearn,learning,feedback_image_window,0WkZqo6H3MW5HmHyy9f5yTJi22A2,0WkZqo6H3MW5HmHyy9f5yTJi22A2,,,,,,,,,,,,,,,,,,,,,,634e460a7da3fef3d5a9faf3,9:06:17 AM,2/27/2024
html-keyboard-response,21,32943,0.0-9.0-0.0,,,,,,mood_trial_fixation,0WkZqo6H3MW5HmHyy9f5yTJi22A2,,,,,,,,,,,,,,,,,,,,,,,634e460a7da3fef3d5a9faf3,9:06:17 AM,2/27/2024
lmdlab-html-vas-response,22,39230,0.0-9.0-1.0,5266.0,How happy are you right now?,0.430555553715906,delaylearn,learning,mood_trial,0WkZqo6H3MW5HmHyy9f5yTJi22A2,0WkZqo6H3MW5HmHyy9f5yTJi22A2,,,,,,,,,,,,,,,,,,,,"['Very unhappy', 'Very happy']",,634e460a7da3fef3d5a9faf3,9:06:17 AM,2/27/2024
html-keyboard-response,23,41149,0.0-10.0,,"<div style=""font-size:100px;"">+</div>",,delaylearn,learning,ITI,0WkZqo6H3MW5HmHyy9f5yTJi22A2,0WkZqo6H3MW5HmHyy9f5yTJi22A2,,,,,,,,,,,,,,,,,,,1913.0,,,634e460a7da3fef3d5a9faf3,9:06:17 AM,2/27/2024
html-keyboard-response,24,41710,0.0-11.0-0.0,552.0,"<div style=""display: flex; flex-direction: column; align-items: center; margin-top: -40px;""><img src=""images/demo_images/pattern_1.png"" style=""width: 234px; height: 230px; margin-top: -50px;""><div style=""display: flex; justify-content: space-between; margin-top: 33px;""><img src=""images/demo_images/choice_trial_2.png"" style=""width: 408px; height: 417px; margin-right: 200px;""><img src=""images/demo_images/choice_trial_1.png"" style=""width: 408px; height: 417px;""></div></div>",j,delaylearn,learning,trial,0WkZqo6H3MW5HmHyy9f5yTJi22A2,0WkZqo6H3MW5HmHyy9f5yTJi22A2,2.0,images/demo_images/choice_trial_2.png,images/demo_images/choice_trial_1.png,images/demo_images/pattern_1.png,j,j,3000.0,2.0,1.0,20.0,1.0,5.0,1.0,1.0,1.0,30.0,,,,,,634e460a7da3fef3d5a9faf3,9:06:17 AM,2/27/2024
html-keyboard-response,25,42724,0.0-11.0-1.0,,"<div style=""display: flex; flex-direction: column; align-items: center; margin-top: -40px;""><img src=""images/demo_images/pattern_1.png"" style=""width: 234px; height: 230px; margin-top: -50px;""><div style=""display: flex; justify-content: space-between; margin-top: 33px;""><img src=""images/demo_images/choice_trial_1.png"" style=""width: 408px; height: 417px; margin-left:608px;""></div></div>",,delaylearn,learning,display_response,0WkZqo6H3MW5HmHyy9f5yTJi22A2,0WkZqo6H3MW5HmHyy9f5yTJi22A2,,,,,,,,,,,,,,,,,chosen stimuli: images/demo_images/choice_trial_1.png,,,,,634e460a7da3fef3d5a9faf3,9:06:17 AM,2/27/2024
html-keyboard-response,26,45738,0.0-11.0-2.0,,,,delaylearn,learning,feedback_duration_window,0WkZqo6H3MW5HmHyy9f5yTJi22A2,0WkZqo6H3MW5HmHyy9f5yTJi22A2,,,,,,,,,,,,,,,,,,3000.0,,,,634e460a7da3fef3d5a9faf3,9:06:17 AM,2/27/2024
html-keyboard-response,27,47247,0.0-11.0-3.0,,<div style='margin:auto;width: auto; font-size: 150%'><span style='font-weight: bold; font-size: 100px; color: green;'>+10 points!</span><br><br></div>,,delaylearn,learning,feedback_image_window,0WkZqo6H3MW5HmHyy9f5yTJi22A2,0WkZqo6H3MW5HmHyy9f5yTJi22A2,,,,,,,,,,,,,,,,,,,,,,634e460a7da3fef3d5a9faf3,9:06:17 AM,2/27/2024
html-keyboard-response,28,49029,0.0-12.0,,"<div style=""font-size:100px;"">+</div>",,delaylearn,learning,ITI,0WkZqo6H3MW5HmHyy9f5yTJi22A2,0WkZqo6H3MW5HmHyy9f5yTJi22A2,,,,,,,,,,,,,,,,,,,1773.0,,,634e460a7da3fef3d5a9faf3,9:06:17 AM,2/27/2024
html-keyboard-response,29,50371,0.0-13.0-0.0,1332.0,"<div style=""display: flex; flex-direction: column; align-items: center; margin-top: -40px;""><img src=""images/demo_images/pattern_1.png"" style=""width: 234px; height: 230px; margin-top: -50px;""><div style=""display: flex; justify-content: space-between; margin-top: 33px;""><img src=""images/demo_images/choice_trial_1.png"" style=""width: 408px; height: 417px; margin-right: 200px;""><img src=""images/demo_images/choice_trial_2.png"" style=""width: 408px; height: 417px;""></div></div>",f,delaylearn,learning,trial,0WkZqo6H3MW5HmHyy9f5yTJi22A2,0WkZqo6H3MW5HmHyy9f5yTJi22A2,2.0,images/demo_images/choice_trial_1.png,images/demo_images/choice_trial_2.png,images/demo_images/pattern_1.png,f,f,3000.0,1.0,2.0,20.0,0.0,6.0,1.0,1.0,1.0,40.0,,,,,,634e460a7da3fef3d5a9faf3,9:06:17 AM,2/27/2024
html-keyboard-response,30,51377,0.0-13.0-1.0,,"<div style=""display: flex; flex-direction: column; align-items: center; margin-top: -40px;""><img src=""images/demo_images/pattern_1.png"" style=""width: 234px; height: 230px; margin-top: -50px;""><div style=""display: flex; justify-content: space-between; margin-top: 33px;""><img src=""images/demo_images/choice_trial_1.png"" style=""width: 408px; height: 417px; margin-right: 608px;""></div></div>",,delaylearn,learning,display_response,0WkZqo6H3MW5HmHyy9f5yTJi22A2,0WkZqo6H3MW5HmHyy9f5yTJi22A2,,,,,,,,,,,,,,,,,chosen stimuli: images/demo_images/choice_trial_1.png,,,,,634e460a7da3fef3d5a9faf3,9:06:17 AM,2/27/2024
html-keyboard-response,31,54395,0.0-13.0-2.0,,,,delaylearn,learning,feedback_duration_window,0WkZqo6H3MW5HmHyy9f5yTJi22A2,0WkZqo6H3MW5HmHyy9f5yTJi22A2,,,,,,,,,,,,,,,,,,3000.0,,,,634e460a7da3fef3d5a9faf3,9:06:17 AM,2/27/2024
html-keyboard-response,32,55899,0.0-13.0-3.0,,<div style='margin:auto;width: auto; font-size: 150%'><span style='font-weight: bold; font-size: 100px; color: green;'>+10 points!</span><br><br></div>,,delaylearn,learning,feedback_image_window,0WkZqo6H3MW5HmHyy9f5yTJi22A2,0WkZqo6H3MW5HmHyy9f5yTJi22A2,,,,,,,,,,,,,,,,,,,,,,634e460a7da3fef3d5a9faf3,9:06:17 AM,2/27/2024
html-button-response,33,254795,0.0-14.0,198888.0,"
  <div style=""display: flex; align-items: center; justify-content: center; height: 80vh;"">
  <div>
          <img src=""images/inst_demo_finish.png"" style=""width: 80vw; height:auto;"">
          <br><br>
      </div>
      <br><br>
  </div>",0,,,,0WkZqo6H3MW5HmHyy9f5yTJi22A2,,,,,,,,,,,,,,,,,,,,,,,634e460a7da3fef3d5a9faf3,9:06:17 AM,2/27/2024
html-keyboard-response,34,262701,0.0-15.0,7903.0,"
  <div style=""display: flex; align-items: center; justify-content: center; height: 80vh;"">
  <div>
          <img src=""images/inst_6.png"" style=""width: 80vw; height:auto;"">
          <br><br>
      </div>
      <br><br>
  </div>",f,,,,0WkZqo6H3MW5HmHyy9f5yTJi22A2,,,,,,,,,,,,,,,,,,,,,,,634e460a7da3fef3d5a9faf3,9:06:17 AM,2/27/2024
html-keyboard-response,35,265710,0.0-16.0,,"<div style=""font-size:100px;"">+</div>",,delaylearn,learning,pre_fixation,0WkZqo6H3MW5HmHyy9f5yTJi22A2,not found,,,,,,,,,,,,,,,,,,,,,,634e460a7da3fef3d5a9faf3,9:06:17 AM,2/27/2024
html-keyboard-response,36,267438,0.0-17.0,,"<div style=""font-size:100px;"">+</div>",,delaylearn,learning,ITI,0WkZqo6H3MW5HmHyy9f5yTJi22A2,0WkZqo6H3MW5HmHyy9f5yTJi22A2,,,,,,,,,,,,,,,,,,,1713.0,,,634e460a7da3fef3d5a9faf3,9:06:17 AM,2/27/2024
html-keyboard-response,37,268565,0.0-18.0-0.0,1116.0,"<div style=""display: flex; flex-direction: column; align-items: center; margin-top: -40px;""><img src=""images/pattern_3.png"" style=""width: 234px; height: 230px; margin-top: -50px;""><div style=""display: flex; justify-content: space-between; margin-top: 33px;""><img src=""images/choice_trial_12.png"" style=""width: 408px; height: 417px; margin-right: 200px;""><img src=""images/choice_trial_14.png"" style=""width: 408px; height: 417px;""></div></div>",j,delaylearn,learning,trial,0WkZqo6H3MW5HmHyy9f5yTJi22A2,0WkZqo6H3MW5HmHyy9f5yTJi22A2,2.0,images/choice_trial_12.png,images/choice_trial_14.png,images/pattern_3.png,f,f,7000.0,12.0,14.0,2.0,0.0,7.0,0.0,0.0,14.0,40.0,,,,,,634e460a7da3fef3d5a9faf3,9:06:17 AM,2/27/2024
html-keyboard-response,38,269575,0.0-18.0-1.0,,"<div style=""display: flex; flex-direction: column; align-items: center; margin-top: -40px;""><img src=""images/pattern_3.png"" style=""width: 234px; height: 230px; margin-top: -50px;""><div style=""display: flex; justify-content: space-between; margin-top: 33px;""><img src=""images/choice_trial_14.png"" style=""width: 408px; height: 417px; margin-left:608px;""></div></div>",,delaylearn,learning,display_response,0WkZqo6H3MW5HmHyy9f5yTJi22A2,0WkZqo6H3MW5HmHyy9f5yTJi22A2,,,,,,,,,,,,,,,,,chosen stimuli: images/choice_trial_14.png,,,,,634e460a7da3fef3d5a9faf3,9:06:17 AM,2/27/2024
html-keyboard-response,39,276581,0.0-18.0-2.0,,,,delaylearn,learning,feedback_duration_window,0WkZqo6H3MW5HmHyy9f5yTJi22A2,0WkZqo6H3MW5HmHyy9f5yTJi22A2,,,,,,,,,,,,,,,,,,7000.0,,,,634e460a7da3fef3d5a9faf3,9:06:17 AM,2/27/2024
html-keyboard-response,40,278095,0.0-18.0-3.0,,<div style='margin:auto;width: auto; font-size: 150%'><span style='font-weight: bold; font-size: 100px; color: red;'>0 points!</span><br><br></div>,,delaylearn,learning,feedback_image_window,0WkZqo6H3MW5HmHyy9f5yTJi22A2,0WkZqo6H3MW5HmHyy9f5yTJi22A2,,,,,,,,,,,,,,,,,,,,,,634e460a7da3fef3d5a9faf3,9:06:17 AM,2/27/2024
html-keyboard-response,41,280372,0.0-19.0,,"<div style=""font-size:100px;"">+</div>",,delaylearn,learning,ITI,0WkZqo6H3MW5HmHyy9f5yTJi22A2,0WkZqo6H3MW5HmHyy9f5yTJi22A2,,,,,,,,,,,,,,,,,,,2269.0,,,634e460a7da3fef3d5a9faf3,9:06:17 AM,2/27/2024
html-keyboard-response,42,282438,0.0-20.0-0.0,2053.0,"<div style=""display: flex; flex-direction: column; align-items: center; margin-top: -40px;""><img src=""images/pattern_7.png"" style=""width: 234px; height: 230px; margin-top: -50px;""><div style=""display: flex; justify-content: space-between; margin-top: 33px;""><img src=""images/choice_trial_15.png"" style=""width: 408px; height: 417px; margin-right: 200px;""><img src=""images/choice_trial_8.png"" style=""width: 408px; height: 417px;""></div></div>",f,delaylearn,learning,trial,0WkZqo6H3MW5HmHyy9f5yTJi22A2,0WkZqo6H3MW5HmHyy9f5yTJi22A2,2.0,images/choice_trial_15.png,images/choice_trial_8.png,images/pattern_7.png,j,j,750.0,15.0,8.0,6.0,1.0,8.0,0.0,0.0,15.0,40.0,,,,,,634e460a7da3fef3d5a9faf3,9:06:17 AM,2/27/2024
html-keyboard-response,43,283452,0.0-20.0-1.0,,"<div style=""display: flex; flex-direction: column; align-items: center; margin-top: -40px;""><img src=""images/pattern_7.png"" style=""width: 234px; height: 230px; margin-top: -50px;""><div style=""display: flex; justify-content: space-between; margin-top: 33px;""><img src=""images/choice_trial_15.png"" style=""width: 408px; height: 417px; margin-right: 608px;""></div></div>",,delaylearn,learning,display_response,0WkZqo6H3MW5HmHyy9f5yTJi22A2,0WkZqo6H3MW5HmHyy9f5yTJi22A2,,,,,,,,,,,,,,,,,chosen stimuli: images/choice_trial_15.png,,,,,634e460a7da3fef3d5a9faf3,9:06:17 AM,2/27/2024
html-keyboard-response,44,284221,0.0-20.0-2.0,,,,delaylearn,learning,feedback_duration_window,0WkZqo6H3MW5HmHyy9f5yTJi22A2,0WkZqo6H3MW5HmHyy9f5yTJi22A2,,,,,,,,,,,,,,,,,,750.0,,,,634e460a7da3fef3d5a9faf3,9:06:17 AM,2/27/2024
html-keyboard-response,45,285730,0.0-20.0-3.0,,<div style='margin:auto;width: auto; font-size: 150%'><span style='font-weight: bold; font-size: 100px; color: red;'>0 points!</span><br><br></div>,,delaylearn,learning,feedback_image_window,0WkZqo6H3MW5HmHyy9f5yTJi22A2,0WkZqo6H3MW5HmHyy9f5yTJi22A2,,,,,,,,,,,,,,,,,,,,,,634e460a7da3fef3d5a9faf3,9:06:17 AM,2/27/2024
html-keyboard-response,46,287335,0.0-21.0,,"<div style=""font-size:100px;"">+</div>",,delaylearn,learning,ITI,0WkZqo6H3MW5HmHyy9f5yTJi22A2,0WkZqo6H3MW5HmHyy9f5yTJi22A2,,,,,,,,,,,,,,,,,,,1596.0,,,634e460a7da3fef3d5a9faf3,9:06:17 AM,2/27/2024
html-keyboard-response,47,289995,0.0-22.0-0.0,2645.0,"<div style=""display: flex; flex-direction: column; align-items: center; margin-top: -40px;""><img src=""images/pattern_4.png"" style=""width: 234px; height: 230px; margin-top: -50px;""><div style=""display: flex; justify-content: space-between; margin-top: 33px;""><img src=""images/choice_trial_4.png"" style=""width: 408px; height: 417px; margin-right: 200px;""><img src=""images/choice_trial_16.png"" style=""width: 408px; height: 417px;""></div></div>",f,delaylearn,learning,trial,0WkZqo6H3MW5HmHyy9f5yTJi22A2,0WkZqo6H3MW5HmHyy9f5yTJi22A2,2.0,images/choice_trial_4.png,images/choice_trial_16.png,images/pattern_4.png,f,f,7000.0,4.0,16.0,3.0,0.0,9.0,1.0,1.0,4.0,50.0,,,,,,634e460a7da3fef3d5a9faf3,9:06:17 AM,2/27/2024
html-keyboard-response,48,291009,0.0-22.0-1.0,,"<div style=""display: flex; flex-direction: column; align-items: center; margin-top: -40px;""><img src=""images/pattern_4.png"" style=""width: 234px; height: 230px; margin-top: -50px;""><div style=""display: flex; justify-content: space-between; margin-top: 33px;""><img src=""images/choice_trial_4.png"" style=""width: 408px; height: 417px; margin-right: 608px;""></div></div>",,delaylearn,learning,display_response,0WkZqo6H3MW5HmHyy9f5yTJi22A2,0WkZqo6H3MW5HmHyy9f5yTJi22A2,,,,,,,,,,,,,,,,,chosen stimuli: images/choice_trial_4.png,,,,,634e460a7da3fef3d5a9faf3,9:06:17 AM,2/27/2024
html-keyboard-response,49,298021,0.0-22.0-2.0,,,,delaylearn,learning,feedback_duration_window,0WkZqo6H3MW5HmHyy9f5yTJi22A2,0WkZqo6H3MW5HmHyy9f5yTJi22A2,,,,,,,,,,,,,,,,,,7000.0,,,,634e460a7da3fef3d5a9faf3,9:06:17 AM,2/27/2024
html-keyboard-response,50,299545,0.0-22.0-3.0,,<div style='margin:auto;width: auto; font-size: 150%'><span style='font-weight: bold; font-size: 100px; color: green;'>+10 points!</span><br><br></div>,,delaylearn,learning,feedback_image_window,0WkZqo6H3MW5HmHyy9f5yTJi22A2,0WkZqo6H3MW5HmHyy9f5yTJi22A2,,,,,,,,,,,,,,,,,,,,,,634e460a7da3fef3d5a9faf3,9:06:17 AM,2/27/2024
html-keyboard-response,51,301256,0.0-23.0,,"<div style=""font-size:100px;"">+</div>",,delaylearn,learning,ITI,0WkZqo6H3MW5HmHyy9f5yTJi22A2,0WkZqo6H3MW5HmHyy9f5yTJi22A2,,,,,,,,,,,,,,,,,,,1700.0,,,634e460a7da3fef3d5a9faf3,9:06:17 AM,2/27/2024
html-keyboard-response,52,302964,0.0-24.0-0.0,1706.0,"<div style=""display: flex; flex-direction: column; align-items: center; margin-top: -40px;""><img src=""images/pattern_5.png"" style=""width: 234px; height: 230px; margin-top: -50px;""><div style=""display: flex; justify-content: space-between; margin-top: 33px;""><img src=""images/choice_trial_9.png"" style=""width: 408px; height: 417px; margin-right: 200px;""><img src=""images/choice_trial_2.png"" style=""width: 408px; height: 417px;""></div></div>",j,delaylearn,learning,trial,0WkZqo6H3MW5HmHyy9f5yTJi22A2,0WkZqo6H3MW5HmHyy9f5yTJi22A2,2.0,images/choice_trial_9.png,images/choice_trial_2.png,images/pattern_5.png,j,j,750.0,9.0,2.0,4.0,1.0,10.0,1.0,1.0,2.0,60.0,,,,,,634e460a7da3fef3d5a9faf3,9:06:17 AM,2/27/2024
html-keyboard-response,53,303978,0.0-24.0-1.0,,"<div style=""display: flex; flex-direction: column; align-items: center; margin-top: -40px;""><img src=""images/pattern_5.png"" style=""width: 234px; height: 230px; margin-top: -50px;""><div style=""display: flex; justify-content: space-between; margin-top: 33px;""><img src=""images/choice_trial_2.png"" style=""width: 408px; height: 417px; margin-left:608px;""></div></div>",,delaylearn,learning,display_response,0WkZqo6H3MW5HmHyy9f5yTJi22A2,0WkZqo6H3MW5HmHyy9f5yTJi22A2,,,,,,,,,,,,,,,,,chosen stimuli: images/choice_trial_2.png,,,,,634e460a7da3fef3d5a9faf3,9:06:17 AM,2/27/2024
html-keyboard-response,54,304747,0.0-24.0-2.0,,,,delaylearn,learning,feedback_duration_window,0WkZqo6H3MW5HmHyy9f5yTJi22A2,0WkZqo6H3MW5HmHyy9f5yTJi22A2,,,,,,,,,,,,,,,,,,750.0,,,,634e460a7da3fef3d5a9faf3,9:06:17 AM,2/27/2024
html-keyboard-response,55,306258,0.0-24.0-3.0,,<div style='margin:auto;width: auto; font-size: 150%'><span style='font-weight: bold; font-size: 100px; color: green;'>+10 points!</span><br><br></div>,,delaylearn,learning,feedback_image_window,0WkZqo6H3MW5HmHyy9f5yTJi22A2,0WkZqo6H3MW5HmHyy9f5yTJi22A2,,,,,,,,,,,,,,,,,,,,,,634e460a7da3fef3d5a9faf3,9:06:17 AM,2/27/2024
html-keyboard-response,56,308535,0.0-25.0,,"<div style=""font-size:100px;"">+</div>",,delaylearn,learning,ITI,0WkZqo6H3MW5HmHyy9f5yTJi22A2,0WkZqo6H3MW5HmHyy9f5yTJi22A2,,,,,,,,,,,,,,,,,,,2260.0,,,634e460a7da3fef3d5a9faf3,9:06:17 AM,2/27/2024
html-keyboard-response,57,310458,0.0-26.0-0.0,1918.0,"<div style=""display: flex; flex-direction: column; align-items: center; margin-top: -40px;""><img src=""images/pattern_6.png"" style=""width: 234px; height: 230px; margin-top: -50px;""><div style=""display: flex; justify-content: space-between; margin-top: 33px;""><img src=""images/choice_trial_11.png"" style=""width: 408px; height: 417px; margin-right: 200px;""><img src=""images/choice_trial_5.png"" style=""width: 408px; height: 417px;""></div></div>",j,delaylearn,learning,trial,0WkZqo6H3MW5HmHyy9f5yTJi22A2,0WkZqo6H3MW5HmHyy9f5yTJi22A2,2.0,images/choice_trial_11.png,images/choice_trial_5.png,images/pattern_6.png,j,f,750.0,11.0,5.0,5.0,0.0,11.0,0.0,1.0,5.0,70.0,,,,,,634e460a7da3fef3d5a9faf3,9:06:17 AM,2/27/2024
html-keyboard-response,58,311477,0.0-26.0-1.0,,"<div style=""display: flex; flex-direction: column; align-items: center; margin-top: -40px;""><img src=""images/pattern_6.png"" style=""width: 234px; height: 230px; margin-top: -50px;""><div style=""display: flex; justify-content: space-between; margin-top: 33px;""><img src=""images/choice_trial_5.png"" style=""width: 408px; height: 417px; margin-left:608px;""></div></div>",,delaylearn,learning,display_response,0WkZqo6H3MW5HmHyy9f5yTJi22A2,0WkZqo6H3MW5HmHyy9f5yTJi22A2,,,,,,,,,,,,,,,,,chosen stimuli: images/choice_trial_5.png,,,,,634e460a7da3fef3d5a9faf3,9:06:17 AM,2/27/2024
html-keyboard-response,59,312233,0.0-26.0-2.0,,,,delaylearn,learning,feedback_duration_window,0WkZqo6H3MW5HmHyy9f5yTJi22A2,0WkZqo6H3MW5HmHyy9f5yTJi22A2,,,,,,,,,,,,,,,,,,750.0,,,,634e460a7da3fef3d5a9faf3,9:06:17 AM,2/27/2024
html-keyboard-response,60,313744,0.0-26.0-3.0,,<div style='margin:auto;width: auto; font-size: 150%'><span style='font-weight: bold; font-size: 100px; color: green;'>+10 points!</span><br><br></div>,,delaylearn,learning,feedback_image_window,0WkZqo6H3MW5HmHyy9f5yTJi22A2,0WkZqo6H3MW5HmHyy9f5yTJi22A2,,,,,,,,,,,,,,,,,,,,,,634e460a7da3fef3d5a9faf3,9:06:17 AM,2/27/2024
html-keyboard-response,61,314263,0.0-27.0-0.0,,,,,,mood_trial_fixation,0WkZqo6H3MW5HmHyy9f5yTJi22A2,,,,,,,,,,,,,,,,,,,,,,,634e460a7da3fef3d5a9faf3,9:06:17 AM,2/27/2024
lmdlab-html-vas-response,62,322437,0.0-27.0-1.0,7160.0,How happy are you right now?,0.6128472252116528,delaylearn,learning,mood_trial,0WkZqo6H3MW5HmHyy9f5yTJi22A2,0WkZqo6H3MW5HmHyy9f5yTJi22A2,,,,,,,,,,,,,,,,,,,,"['Very unhappy', 'Very happy']",,634e460a7da3fef3d5a9faf3,9:06:17 AM,2/27/2024
html-keyboard-response,63,324849,0.0-28.0,,"<div style=""font-size:100px;"">+</div>",,delaylearn,learning,ITI,0WkZqo6H3MW5HmHyy9f5yTJi22A2,0WkZqo6H3MW5HmHyy9f5yTJi22A2,,,,,,,,,,,,,,,,,,,2385.0,,,634e460a7da3fef3d5a9faf3,9:06:17 AM,2/27/2024
html-keyboard-response,64,326959,0.0-29.0-0.0,2103.0,"<div style=""display: flex; flex-direction: column; align-items: center; margin-top: -40px;""><img src=""images/pattern_1.png"" style=""width: 234px; height: 230px; margin-top: -50px;""><div style=""display: flex; justify-content: space-between; margin-top: 33px;""><img src=""images/choice_trial_10.png"" style=""width: 408px; height: 417px; margin-right: 200px;""><img src=""images/choice_trial_3.png"" style=""width: 408px; height: 417px;""></div></div>",j,delaylearn,learning,trial,0WkZqo6H3MW5HmHyy9f5yTJi22A2,0WkZqo6H3MW5HmHyy9f5yTJi22A2,2.0,images/choice_trial_10.png,images/choice_trial_3.png,images/pattern_1.png,j,j,7000.0,10.0,3.0,1.0,1.0,12.0,1.0,1.0,3.0,80.0,,,,,,634e460a7da3fef3d5a9faf3,9:06:17 AM,2/27/2024
html-keyboard-response,65,327970,0.0-29.0-1.0,,"<div style=""display: flex; flex-direction: column; align-items: center; margin-top: -40px;""><img src=""images/pattern_1.png"" style=""width: 234px; height: 230px; margin-top: -50px;""><div style=""display: flex; justify-content: space-between; margin-top: 33px;""><img src=""images/choice_trial_3.png"" style=""width: 408px; height: 417px; margin-left:608px;""></div></div>",,delaylearn,learning,display_response,0WkZqo6H3MW5HmHyy9f5yTJi22A2,0WkZqo6H3MW5HmHyy9f5yTJi22A2,,,,,,,,,,,,,,,,,chosen stimuli: images/choice_trial_3.png,,,,,634e460a7da3fef3d5a9faf3,9:06:17 AM,2/27/2024
html-keyboard-response,66,334978,0.0-29.0-2.0,,,,delaylearn,learning,feedback_duration_window,0WkZqo6H3MW5HmHyy9f5yTJi22A2,0WkZqo6H3MW5HmHyy9f5yTJi22A2,,,,,,,,,,,,,,,,,,7000.0,,,,634e460a7da3fef3d5a9faf3,9:06:17 AM,2/27/2024
html-keyboard-response,67,336501,0.0-29.0-3.0,,<div style='margin:auto;width: auto; font-size: 150%'><span style='font-weight: bold; font-size: 100px; color: green;'>+10 points!</span><br><br></div>,,delaylearn,learning,feedback_image_window,0WkZqo6H3MW5HmHyy9f5yTJi22A2,0WkZqo6H3MW5HmHyy9f5yTJi22A2,,,,,,,,,,,,,,,,,,,,,,634e460a7da3fef3d5a9faf3,9:06:17 AM,2/27/2024
html-keyboard-response,68,338890,0.0-30.0,,"<div style=""font-size:100px;"">+</div>",,delaylearn,learning,ITI,0WkZqo6H3MW5HmHyy9f5yTJi22A2,0WkZqo6H3MW5HmHyy9f5yTJi22A2,,,,,,,,,,,,,,,,,,,2371.0,,,634e460a7da3fef3d5a9faf3,9:06:17 AM,2/27/2024
html-keyboard-response,69,341908,0.0-31.0-0.0,,"<div style=""display: flex; flex-direction: column; align-items: center; margin-top: -40px;""><img src=""images/pattern_3.png"" style=""width: 234px; height: 230px; margin-top: -50px;""><div style=""display: flex; justify-content: space-between; margin-top: 33px;""><img src=""images/choice_trial_14.png"" style=""width: 408px; height: 417px; margin-right: 200px;""><img src=""images/choice_trial_12.png"" style=""width: 408px; height: 417px;""></div></div>",,delaylearn,learning,trial,0WkZqo6H3MW5HmHyy9f5yTJi22A2,0WkZqo6H3MW5HmHyy9f5yTJi22A2,2.0,images/choice_trial_14.png,images/choice_trial_12.png,images/pattern_3.png,f,j,7000.0,14.0,12.0,2.0,1.0,13.0,0.0,0.0,0.0,80.0,,,,,,634e460a7da3fef3d5a9faf3,9:06:17 AM,2/27/2024
html-keyboard-response,70,342917,0.0-31.0-1.0,,<div style='font-weight: bold; font-size: 75px; color: red;'>Missed Trial <br><br><br><br> Please respond faster</div>,,delaylearn,learning,display_response,0WkZqo6H3MW5HmHyy9f5yTJi22A2,0WkZqo6H3MW5HmHyy9f5yTJi22A2,,,,,,,,,,,,,,,,,Missed trial,,,,,634e460a7da3fef3d5a9faf3,9:06:17 AM,2/27/2024
html-keyboard-response,71,342934,0.0-31.0-2.0,,,,delaylearn,learning,feedback_duration_window,0WkZqo6H3MW5HmHyy9f5yTJi22A2,0WkZqo6H3MW5HmHyy9f5yTJi22A2,,,,,,,,,,,,,,,,,,0.0,,,,634e460a7da3fef3d5a9faf3,9:06:17 AM,2/27/2024
html-keyboard-response,72,342946,0.0-31.0-3.0,,,,delaylearn,learning,feedback_image_window,0WkZqo6H3MW5HmHyy9f5yTJi22A2,0WkZqo6H3MW5HmHyy9f5yTJi22A2,,,,,,,,,,,,,,,,,,,,,,634e460a7da3fef3d5a9faf3,9:06:17 AM,2/27/2024
html-keyboard-response,73,344970,0.0-32.0,,"<div style=""font-size:100px;"">+</div>",,delaylearn,learning,ITI,0WkZqo6H3MW5HmHyy9f5yTJi22A2,0WkZqo6H3MW5HmHyy9f5yTJi22A2,,,,,,,,,,,,,,,,,,,2012.0,,,634e460a7da3fef3d5a9faf3,9:06:17 AM,2/27/2024
html-keyboard-response,74,345617,0.0-33.0-0.0,641.0,"<div style=""display: flex; flex-direction: column; align-items: center; margin-top: -40px;""><img src=""images/pattern_5.png"" style=""width: 234px; height: 230px; margin-top: -50px;""><div style=""display: flex; justify-content: space-between; margin-top: 33px;""><img src=""images/choice_trial_2.png"" style=""width: 408px; height: 417px; margin-right: 200px;""><img src=""images/choice_trial_9.png"" style=""width: 408px; height: 417px;""></div></div>",j,delaylearn,learning,trial,0WkZqo6H3MW5HmHyy9f5yTJi22A2,0WkZqo6H3MW5HmHyy9f5yTJi22A2,2.0,images/choice_trial_2.png,images/choice_trial_9.png,images/pattern_5.png,f,f,750.0,2.0,9.0,4.0,0.0,14.0,0.0,0.0,9.0,80.0,,,,,,634e460a7da3fef3d5a9faf3,9:06:17 AM,2/27/2024
html-keyboard-response,75,346622,0.0-33.0-1.0,,"<div style=""display: flex; flex-direction: column; align-items: center; margin-top: -40px;""><img src=""images/pattern_5.png"" style=""width: 234px; height: 230px; margin-top: -50px;""><div style=""display: flex; justify-content: space-between; margin-top: 33px;""><img src=""images/choice_trial_9.png"" style=""width: 408px; height: 417px; margin-left:608px;""></div></div>",,delaylearn,learning,display_response,0WkZqo6H3MW5HmHyy9f5yTJi22A2,0WkZqo6H3MW5HmHyy9f5yTJi22A2,,,,,,,,,,,,,,,,,chosen stimuli: images/choice_trial_9.png,,,,,634e460a7da3fef3d5a9faf3,9:06:17 AM,2/27/2024
html-keyboard-response,76,347376,0.0-33.0-2.0,,,,delaylearn,learning,feedback_duration_window,0WkZqo6H3MW5HmHyy9f5yTJi22A2,0WkZqo6H3MW5HmHyy9f5yTJi22A2,,,,,,,,,,,,,,,,,,750.0,,,,634e460a7da3fef3d5a9faf3,9:06:17 AM,2/27/2024
html-keyboard-response,77,348888,0.0-33.0-3.0,,<div style='margin:auto;width: auto; font-size: 150%'><span style='font-weight: bold; font-size: 100px; color: red;'>0 points!</span><br><br></div>,,delaylearn,learning,feedback_image_window,0WkZqo6H3MW5HmHyy9f5yTJi22A2,0WkZqo6H3MW5HmHyy9f5yTJi22A2,,,,,,,,,,,,,,,,,,,,,,634e460a7da3fef3d5a9faf3,9:06:17 AM,2/27/2024
html-keyboard-response,78,349391,0.0-34.0-0.0,,,,,,mood_trial_fixation,0WkZqo6H3MW5HmHyy9f5yTJi22A2,,,,,,,,,,,,,,,,,,,,,,,634e460a7da3fef3d5a9faf3,9:06:17 AM,2/27/2024
lmdlab-html-vas-response,79,354367,0.0-34.0-1.0,3958.0,How happy are you right now?,0.5520833347130705,delaylearn,learning,mood_trial,0WkZqo6H3MW5HmHyy9f5yTJi22A2,0WkZqo6H3MW5HmHyy9f5yTJi22A2,,,,,,,,,,,,,,,,,,,,"['Very unhappy', 'Very happy']",,634e460a7da3fef3d5a9faf3,9:06:17 AM,2/27/2024
html-keyboard-response,80,356059,0.0-35.0,,"<div style=""font-size:100px;"">+</div>",,delaylearn,learning,ITI,0WkZqo6H3MW5HmHyy9f5yTJi22A2,0WkZqo6H3MW5HmHyy9f5yTJi22A2,,,,,,,,,,,,,,,,,,,1657.0,,,634e460a7da3fef3d5a9faf3,9:06:17 AM,2/27/2024
html-keyboard-response,81,357660,0.0-36.0-0.0,1595.0,"<div style=""display: flex; flex-direction: column; align-items: center; margin-top: -40px;""><img src=""images/pattern_6.png"" style=""width: 234px; height: 230px; margin-top: -50px;""><div style=""display: flex; justify-content: space-between; margin-top: 33px;""><img src=""images/choice_trial_11.png"" style=""width: 408px; height: 417px; margin-right: 200px;""><img src=""images/choice_trial_5.png"" style=""width: 408px; height: 417px;""></div></div>",j,delaylearn,learning,trial,0WkZqo6H3MW5HmHyy9f5yTJi22A2,0WkZqo6H3MW5HmHyy9f5yTJi22A2,2.0,images/choice_trial_11.png,images/choice_trial_5.png,images/pattern_6.png,f,f,750.0,11.0,5.0,5.0,0.0,15.0,0.0,0.0,5.0,80.0,,,,,,634e460a7da3fef3d5a9faf3,9:06:17 AM,2/27/2024
html-keyboard-response,82,358687,0.0-36.0-1.0,,"<div style=""display: flex; flex-direction: column; align-items: center; margin-top: -40px;""><img src=""images/pattern_6.png"" style=""width: 234px; height: 230px; margin-top: -50px;""><div style=""display: flex; justify-content: space-between; margin-top: 33px;""><img src=""images/choice_trial_5.png"" style=""width: 408px; height: 417px; margin-left:608px;""></div></div>",,delaylearn,learning,display_response,0WkZqo6H3MW5HmHyy9f5yTJi22A2,0WkZqo6H3MW5HmHyy9f5yTJi22A2,,,,,,,,,,,,,,,,,chosen stimuli: images/choice_trial_5.png,,,,,634e460a7da3fef3d5a9faf3,9:06:17 AM,2/27/2024
html-keyboard-response,83,359444,0.0-36.0-2.0,,,,delaylearn,learning,feedback_duration_window,0WkZqo6H3MW5HmHyy9f5yTJi22A2,0WkZqo6H3MW5HmHyy9f5yTJi22A2,,,,,,,,,,,,,,,,,,750.0,,,,634e460a7da3fef3d5a9faf3,9:06:17 AM,2/27/2024
html-keyboard-response,84,360965,0.0-36.0-3.0,,<div style='margin:auto;width: auto; font-size: 150%'><span style='font-weight: bold; font-size: 100px; color: red;'>0 points!</span><br><br></div>,,delaylearn,learning,feedback_image_window,0WkZqo6H3MW5HmHyy9f5yTJi22A2,0WkZqo6H3MW5HmHyy9f5yTJi22A2,,,,,,,,,,,,,,,,,,,,,,634e460a7da3fef3d5a9faf3,9:06:17 AM,2/27/2024
html-keyboard-response,85,363042,0.0-37.0,,"<div style=""font-size:100px;"">+</div>",,delaylearn,learning,ITI,0WkZqo6H3MW5HmHyy9f5yTJi22A2,0WkZqo6H3MW5HmHyy9f5yTJi22A2,,,,,,,,,,,,,,,,,,,2059.0,,,634e460a7da3fef3d5a9faf3,9:06:17 AM,2/27/2024
html-keyboard-response,86,364015,0.0-38.0-0.0,967.0,"<div style=""display: flex; flex-direction: column; align-items: center; margin-top: -40px;""><img src=""images/pattern_4.png"" style=""width: 234px; height: 230px; margin-top: -50px;""><div style=""display: flex; justify-content: space-between; margin-top: 33px;""><img src=""images/choice_trial_16.png"" style=""width: 408px; height: 417px; margin-right: 200px;""><img src=""images/choice_trial_4.png"" style=""width: 408px; height: 417px;""></div></div>",f,delaylearn,learning,trial,0WkZqo6H3MW5HmHyy9f5yTJi22A2,0WkZqo6H3MW5HmHyy9f5yTJi22A2,2.0,images/choice_trial_16.png,images/choice_trial_4.png,images/pattern_4.png,j,j,7000.0,16.0,4.0,3.0,1.0,16.0,0.0,0.0,16.0,80.0,,,,,,634e460a7da3fef3d5a9faf3,9:06:17 AM,2/27/2024
html-keyboard-response,87,365025,0.0-38.0-1.0,,"<div style=""display: flex; flex-direction: column; align-items: center; margin-top: -40px;""><img src=""images/pattern_4.png"" style=""width: 234px; height: 230px; margin-top: -50px;""><div style=""display: flex; justify-content: space-between; margin-top: 33px;""><img src=""images/choice_trial_16.png"" style=""width: 408px; height: 417px; margin-right: 608px;""></div></div>",,delaylearn,learning,display_response,0WkZqo6H3MW5HmHyy9f5yTJi22A2,0WkZqo6H3MW5HmHyy9f5yTJi22A2,,,,,,,,,,,,,,,,,chosen stimuli: images/choice_trial_16.png,,,,,634e460a7da3fef3d5a9faf3,9:06:17 AM,2/27/2024
html-keyboard-response,88,372029,0.0-38.0-2.0,,,,delaylearn,learning,feedback_duration_window,0WkZqo6H3MW5HmHyy9f5yTJi22A2,0WkZqo6H3MW5HmHyy9f5yTJi22A2,,,,,,,,,,,,,,,,,,7000.0,,,,634e460a7da3fef3d5a9faf3,9:06:17 AM,2/27/2024
html-keyboard-response,89,373542,0.0-38.0-3.0,,<div style='margin:auto;width: auto; font-size: 150%'><span style='font-weight: bold; font-size: 100px; color: red;'>0 points!</span><br><br></div>,,delaylearn,learning,feedback_image_window,0WkZqo6H3MW5HmHyy9f5yTJi22A2,0WkZqo6H3MW5HmHyy9f5yTJi22A2,,,,,,,,,,,,,,,,,,,,,,634e460a7da3fef3d5a9faf3,9:06:17 AM,2/27/2024
html-keyboard-response,90,375854,0.0-39.0,,"<div style=""font-size:100px;"">+</div>",,delaylearn,learning,ITI,0WkZqo6H3MW5HmHyy9f5yTJi22A2,0WkZqo6H3MW5HmHyy9f5yTJi22A2,,,,,,,,,,,,,,,,,,,2304.0,,,634e460a7da3fef3d5a9faf3,9:06:17 AM,2/27/2024
html-keyboard-response,91,376664,0.0-40.0-0.0,796.0,"<div style=""display: flex; flex-direction: column; align-items: center; margin-top: -40px;""><img src=""images/pattern_7.png"" style=""width: 234px; height: 230px; margin-top: -50px;""><div style=""display: flex; justify-content: space-between; margin-top: 33px;""><img src=""images/choice_trial_8.png"" style=""width: 408px; height: 417px; margin-right: 200px;""><img src=""images/choice_trial_15.png"" style=""width: 408px; height: 417px;""></div></div>",f,delaylearn,learning,trial,0WkZqo6H3MW5HmHyy9f5yTJi22A2,0WkZqo6H3MW5HmHyy9f5yTJi22A2,2.0,images/choice_trial_8.png,images/choice_trial_15.png,images/pattern_7.png,j,f,750.0,8.0,15.0,6.0,0.0,17.0,1.0,0.0,8.0,80.0,,,,,,634e460a7da3fef3d5a9faf3,9:06:17 AM,2/27/2024
html-keyboard-response,92,377677,0.0-40.0-1.0,,"<div style=""display: flex; flex-direction: column; align-items: center; margin-top: -40px;""><img src=""images/pattern_7.png"" style=""width: 234px; height: 230px; margin-top: -50px;""><div style=""display: flex; justify-content: space-between; margin-top: 33px;""><img src=""images/choice_trial_8.png"" style=""width: 408px; height: 417px; margin-right: 608px;""></div></div>",,delaylearn,learning,display_response,0WkZqo6H3MW5HmHyy9f5yTJi22A2,0WkZqo6H3MW5HmHyy9f5yTJi22A2,,,,,,,,,,,,,,,,,chosen stimuli: images/choice_trial_8.png,,,,,634e460a7da3fef3d5a9faf3,9:06:17 AM,2/27/2024
html-keyboard-response,93,378441,0.0-40.0-2.0,,,,delaylearn,learning,feedback_duration_window,0WkZqo6H3MW5HmHyy9f5yTJi22A2,0WkZqo6H3MW5HmHyy9f5yTJi22A2,,,,,,,,,,,,,,,,,,750.0,,,,634e460a7da3fef3d5a9faf3,9:06:17 AM,2/27/2024
html-keyboard-response,94,379948,0.0-40.0-3.0,,<div style='margin:auto;width: auto; font-size: 150%'><span style='font-weight: bold; font-size: 100px; color: red;'>0 points!</span><br><br></div>,,delaylearn,learning,feedback_image_window,0WkZqo6H3MW5HmHyy9f5yTJi22A2,0WkZqo6H3MW5HmHyy9f5yTJi22A2,,,,,,,,,,,,,,,,,,,,,,634e460a7da3fef3d5a9faf3,9:06:17 AM,2/27/2024
html-keyboard-response,95,381491,0.0-41.0,,"<div style=""font-size:100px;"">+</div>",,delaylearn,learning,ITI,0WkZqo6H3MW5HmHyy9f5yTJi22A2,0WkZqo6H3MW5HmHyy9f5yTJi22A2,,,,,,,,,,,,,,,,,,,1534.0,,,634e460a7da3fef3d5a9faf3,9:06:17 AM,2/27/2024
html-keyboard-response,96,382506,0.0-42.0-0.0,1004.0,"<div style=""display: flex; flex-direction: column; align-items: center; margin-top: -40px;""><img src=""images/pattern_1.png"" style=""width: 234px; height: 230px; margin-top: -50px;""><div style=""display: flex; justify-content: space-between; margin-top: 33px;""><img src=""images/choice_trial_3.png"" style=""width: 408px; height: 417px; margin-right: 200px;""><img src=""images/choice_trial_10.png"" style=""width: 408px; height: 417px;""></div></div>",j,delaylearn,learning,trial,0WkZqo6H3MW5HmHyy9f5yTJi22A2,0WkZqo6H3MW5HmHyy9f5yTJi22A2,2.0,images/choice_trial_3.png,images/choice_trial_10.png,images/pattern_1.png,f,f,7000.0,3.0,10.0,1.0,0.0,18.0,0.0,0.0,10.0,80.0,,,,,,634e460a7da3fef3d5a9faf3,9:06:17 AM,2/27/2024
html-keyboard-response,97,383518,0.0-42.0-1.0,,"<div style=""display: flex; flex-direction: column; align-items: center; margin-top: -40px;""><img src=""images/pattern_1.png"" style=""width: 234px; height: 230px; margin-top: -50px;""><div style=""display: flex; justify-content: space-between; margin-top: 33px;""><img src=""images/choice_trial_10.png"" style=""width: 408px; height: 417px; margin-left:608px;""></div></div>",,delaylearn,learning,display_response,0WkZqo6H3MW5HmHyy9f5yTJi22A2,0WkZqo6H3MW5HmHyy9f5yTJi22A2,,,,,,,,,,,,,,,,,chosen stimuli: images/choice_trial_10.png,,,,,634e460a7da3fef3d5a9faf3,9:06:17 AM,2/27/2024
html-keyboard-response,98,390523,0.0-42.0-2.0,,,,delaylearn,learning,feedback_duration_window,0WkZqo6H3MW5HmHyy9f5yTJi22A2,0WkZqo6H3MW5HmHyy9f5yTJi22A2,,,,,,,,,,,,,,,,,,7000.0,,,,634e460a7da3fef3d5a9faf3,9:06:17 AM,2/27/2024
html-keyboard-response,99,392030,0.0-42.0-3.0,,<div style='margin:auto;width: auto; font-size: 150%'><span style='font-weight: bold; font-size: 100px; color: red;'>0 points!</span><br><br></div>,,delaylearn,learning,feedback_image_window,0WkZqo6H3MW5HmHyy9f5yTJi22A2,0WkZqo6H3MW5HmHyy9f5yTJi22A2,,,,,,,,,,,,,,,,,,,,,,634e460a7da3fef3d5a9faf3,9:06:17 AM,2/27/2024
html-keyboard-response,100,394403,0.0-43.0,,"<div style=""font-size:100px;"">+</div>",,delaylearn,learning,ITI,0WkZqo6H3MW5HmHyy9f5yTJi22A2,0WkZqo6H3MW5HmHyy9f5yTJi22A2,,,,,,,,,,,,,,,,,,,2266.0,,,634e460a7da3fef3d5a9faf3,9:06:17 AM,2/27/2024
html-keyboard-response,101,395149,0.0-44.0-0.0,732.0,"<div style=""display: flex; flex-direction: column; align-items: center; margin-top: -40px;""><img src=""images/pattern_6.png"" style=""width: 234px; height: 230px; margin-top: -50px;""><div style=""display: flex; justify-content: space-between; margin-top: 33px;""><img src=""images/choice_trial_5.png"" style=""width: 408px; height: 417px; margin-right: 200px;""><img src=""images/choice_trial_11.png"" style=""width: 408px; height: 417px;""></div></div>",j,delaylearn,learning,trial,0WkZqo6H3MW5HmHyy9f5yTJi22A2,0WkZqo6H3MW5HmHyy9f5yTJi22A2,2.0,images/choice_trial_5.png,images/choice_trial_11.png,images/pattern_6.png,j,j,750.0,5.0,11.0,5.0,1.0,19.0,1.0,1.0,11.0,90.0,,,,,,634e460a7da3fef3d5a9faf3,9:06:17 AM,2/27/2024
html-keyboard-response,102,396160,0.0-44.0-1.0,,"<div style=""display: flex; flex-direction: column; align-items: center; margin-top: -40px;""><img src=""images/pattern_6.png"" style=""width: 234px; height: 230px; margin-top: -50px;""><div style=""display: flex; justify-content: space-between; margin-top: 33px;""><img src=""images/choice_trial_11.png"" style=""width: 408px; height: 417px; margin-left:608px;""></div></div>",,delaylearn,learning,display_response,0WkZqo6H3MW5HmHyy9f5yTJi22A2,0WkZqo6H3MW5HmHyy9f5yTJi22A2,,,,,,,,,,,,,,,,,chosen stimuli: images/choice_trial_11.png,,,,,634e460a7da3fef3d5a9faf3,9:06:17 AM,2/27/2024
html-keyboard-response,103,396912,0.0-44.0-2.0,,,,delaylearn,learning,feedback_duration_window,0WkZqo6H3MW5HmHyy9f5yTJi22A2,0WkZqo6H3MW5HmHyy9f5yTJi22A2,,,,,,,,,,,,,,,,,,750.0,,,,634e460a7da3fef3d5a9faf3,9:06:17 AM,2/27/2024
html-keyboard-response,104,398423,0.0-44.0-3.0,,<div style='margin:auto;width: auto; font-size: 150%'><span style='font-weight: bold; font-size: 100px; color: green;'>+10 points!</span><br><br></div>,,delaylearn,learning,feedback_image_window,0WkZqo6H3MW5HmHyy9f5yTJi22A2,0WkZqo6H3MW5HmHyy9f5yTJi22A2,,,,,,,,,,,,,,,,,,,,,,634e460a7da3fef3d5a9faf3,9:06:17 AM,2/27/2024
html-keyboard-response,105,400562,0.0-45.0,,"<div style=""font-size:100px;"">+</div>",,delaylearn,learning,ITI,0WkZqo6H3MW5HmHyy9f5yTJi22A2,0WkZqo6H3MW5HmHyy9f5yTJi22A2,,,,,,,,,,,,,,,,,,,2134.0,,,634e460a7da3fef3d5a9faf3,9:06:17 AM,2/27/2024
html-keyboard-response,106,402127,0.0-46.0-0.0,1551.0,"<div style=""display: flex; flex-direction: column; align-items: center; margin-top: -40px;""><img src=""images/pattern_4.png"" style=""width: 234px; height: 230px; margin-top: -50px;""><div style=""display: flex; justify-content: space-between; margin-top: 33px;""><img src=""images/choice_trial_4.png"" style=""width: 408px; height: 417px; margin-right: 200px;""><img src=""images/choice_trial_16.png"" style=""width: 408px; height: 417px;""></div></div>",j,delaylearn,learning,trial,0WkZqo6H3MW5HmHyy9f5yTJi22A2,0WkZqo6H3MW5HmHyy9f5yTJi22A2,2.0,images/choice_trial_4.png,images/choice_trial_16.png,images/pattern_4.png,f,f,7000.0,4.0,16.0,3.0,0.0,20.0,0.0,0.0,16.0,90.0,,,,,,634e460a7da3fef3d5a9faf3,9:06:17 AM,2/27/2024
html-keyboard-response,107,403138,0.0-46.0-1.0,,"<div style=""display: flex; flex-direction: column; align-items: center; margin-top: -40px;""><img src=""images/pattern_4.png"" style=""width: 234px; height: 230px; margin-top: -50px;""><div style=""display: flex; justify-content: space-between; margin-top: 33px;""><img src=""images/choice_trial_16.png"" style=""width: 408px; height: 417px; margin-left:608px;""></div></div>",,delaylearn,learning,display_response,0WkZqo6H3MW5HmHyy9f5yTJi22A2,0WkZqo6H3MW5HmHyy9f5yTJi22A2,,,,,,,,,,,,,,,,,chosen stimuli: images/choice_trial_16.png,,,,,634e460a7da3fef3d5a9faf3,9:06:17 AM,2/27/2024
html-keyboard-response,108,410155,0.0-46.0-2.0,,,,delaylearn,learning,feedback_duration_window,0WkZqo6H3MW5HmHyy9f5yTJi22A2,0WkZqo6H3MW5HmHyy9f5yTJi22A2,,,,,,,,,,,,,,,,,,7000.0,,,,634e460a7da3fef3d5a9faf3,9:06:17 AM,2/27/2024
html-keyboard-response,109,411672,0.0-46.0-3.0,,<div style='margin:auto;width: auto; font-size: 150%'><span style='font-weight: bold; font-size: 100px; color: red;'>0 points!</span><br><br></div>,,delaylearn,learning,feedback_image_window,0WkZqo6H3MW5HmHyy9f5yTJi22A2,0WkZqo6H3MW5HmHyy9f5yTJi22A2,,,,,,,,,,,,,,,,,,,,,,634e460a7da3fef3d5a9faf3,9:06:17 AM,2/27/2024
html-keyboard-response,110,412174,0.0-47.0-0.0,,,,,,mood_trial_fixation,0WkZqo6H3MW5HmHyy9f5yTJi22A2,,,,,,,,,,,,,,,,,,,,,,,634e460a7da3fef3d5a9faf3,9:06:17 AM,2/27/2024
lmdlab-html-vas-response,111,418812,0.0-47.0-1.0,5609.0,How happy are you right now?,0.5651041683913381,delaylearn,learning,mood_trial,0WkZqo6H3MW5HmHyy9f5yTJi22A2,0WkZqo6H3MW5HmHyy9f5yTJi22A2,,,,,,,,,,,,,,,,,,,,"['Very unhappy', 'Very happy']",,634e460a7da3fef3d5a9faf3,9:06:17 AM,2/27/2024
html-keyboard-response,112,421300,0.0-48.0,,"<div style=""font-size:100px;"">+</div>",,delaylearn,learning,ITI,0WkZqo6H3MW5HmHyy9f5yTJi22A2,0WkZqo6H3MW5HmHyy9f5yTJi22A2,,,,,,,,,,,,,,,,,,,2472.0,,,634e460a7da3fef3d5a9faf3,9:06:17 AM,2/27/2024
html-keyboard-response,113,422039,0.0-49.0-0.0,729.0,"<div style=""display: flex; flex-direction: column; align-items: center; margin-top: -40px;""><img src=""images/pattern_7.png"" style=""width: 234px; height: 230px; margin-top: -50px;""><div style=""display: flex; justify-content: space-between; margin-top: 33px;""><img src=""images/choice_trial_15.png"" style=""width: 408px; height: 417px; margin-right: 200px;""><img src=""images/choice_trial_8.png"" style=""width: 408px; height: 417px;""></div></div>",j,delaylearn,learning,trial,0WkZqo6H3MW5HmHyy9f5yTJi22A2,0WkZqo6H3MW5HmHyy9f5yTJi22A2,2.0,images/choice_trial_15.png,images/choice_trial_8.png,images/pattern_7.png,j,j,750.0,15.0,8.0,6.0,1.0,21.0,1.0,1.0,8.0,100.0,,,,,,634e460a7da3fef3d5a9faf3,9:06:17 AM,2/27/2024
html-keyboard-response,114,423058,0.0-49.0-1.0,,"<div style=""display: flex; flex-direction: column; align-items: center; margin-top: -40px;""><img src=""images/pattern_7.png"" style=""width: 234px; height: 230px; margin-top: -50px;""><div style=""display: flex; justify-content: space-between; margin-top: 33px;""><img src=""images/choice_trial_8.png"" style=""width: 408px; height: 417px; margin-left:608px;""></div></div>",,delaylearn,learning,display_response,0WkZqo6H3MW5HmHyy9f5yTJi22A2,0WkZqo6H3MW5HmHyy9f5yTJi22A2,,,,,,,,,,,,,,,,,chosen stimuli: images/choice_trial_8.png,,,,,634e460a7da3fef3d5a9faf3,9:06:17 AM,2/27/2024
html-keyboard-response,115,423827,0.0-49.0-2.0,,,,delaylearn,learning,feedback_duration_window,0WkZqo6H3MW5HmHyy9f5yTJi22A2,0WkZqo6H3MW5HmHyy9f5yTJi22A2,,,,,,,,,,,,,,,,,,750.0,,,,634e460a7da3fef3d5a9faf3,9:06:17 AM,2/27/2024
html-keyboard-response,116,425337,0.0-49.0-3.0,,<div style='margin:auto;width: auto; font-size: 150%'><span style='font-weight: bold; font-size: 100px; color: green;'>+10 points!</span><br><br></div>,,delaylearn,learning,feedback_image_window,0WkZqo6H3MW5HmHyy9f5yTJi22A2,0WkZqo6H3MW5HmHyy9f5yTJi22A2,,,,,,,,,,,,,,,,,,,,,,634e460a7da3fef3d5a9faf3,9:06:17 AM,2/27/2024
html-keyboard-response,117,427008,0.0-50.0,,"<div style=""font-size:100px;"">+</div>",,delaylearn,learning,ITI,0WkZqo6H3MW5HmHyy9f5yTJi22A2,0WkZqo6H3MW5HmHyy9f5yTJi22A2,,,,,,,,,,,,,,,,,,,1659.0,,,634e460a7da3fef3d5a9faf3,9:06:17 AM,2/27/2024
html-keyboard-response,118,427702,0.0-51.0-0.0,681.0,"<div style=""display: flex; flex-direction: column; align-items: center; margin-top: -40px;""><img src=""images/pattern_1.png"" style=""width: 234px; height: 230px; margin-top: -50px;""><div style=""display: flex; justify-content: space-between; margin-top: 33px;""><img src=""images/choice_trial_10.png"" style=""width: 408px; height: 417px; margin-right: 200px;""><img src=""images/choice_trial_3.png"" style=""width: 408px; height: 417px;""></div></div>",f,delaylearn,learning,trial,0WkZqo6H3MW5HmHyy9f5yTJi22A2,0WkZqo6H3MW5HmHyy9f5yTJi22A2,2.0,images/choice_trial_10.png,images/choice_trial_3.png,images/pattern_1.png,f,j,7000.0,10.0,3.0,1.0,1.0,22.0,0.0,1.0,10.0,110.0,,,,,,634e460a7da3fef3d5a9faf3,9:06:17 AM,2/27/2024
html-keyboard-response,119,428715,0.0-51.0-1.0,,"<div style=""display: flex; flex-direction: column; align-items: center; margin-top: -40px;""><img src=""images/pattern_1.png"" style=""width: 234px; height: 230px; margin-top: -50px;""><div style=""display: flex; justify-content: space-between; margin-top: 33px;""><img src=""images/choice_trial_10.png"" style=""width: 408px; height: 417px; margin-right: 608px;""></div></div>",,delaylearn,learning,display_response,0WkZqo6H3MW5HmHyy9f5yTJi22A2,0WkZqo6H3MW5HmHyy9f5yTJi22A2,,,,,,,,,,,,,,,,,chosen stimuli: images/choice_trial_10.png,,,,,634e460a7da3fef3d5a9faf3,9:06:17 AM,2/27/2024
html-keyboard-response,120,435724,0.0-51.0-2.0,,,,delaylearn,learning,feedback_duration_window,0WkZqo6H3MW5HmHyy9f5yTJi22A2,0WkZqo6H3MW5HmHyy9f5yTJi22A2,,,,,,,,,,,,,,,,,,7000.0,,,,634e460a7da3fef3d5a9faf3,9:06:17 AM,2/27/2024
html-keyboard-response,121,437247,0.0-51.0-3.0,,<div style='margin:auto;width: auto; font-size: 150%'><span style='font-weight: bold; font-size: 100px; color: green;'>+10 points!</span><br><br></div>,,delaylearn,learning,feedback_image_window,0WkZqo6H3MW5HmHyy9f5yTJi22A2,0WkZqo6H3MW5HmHyy9f5yTJi22A2,,,,,,,,,,,,,,,,,,,,,,634e460a7da3fef3d5a9faf3,9:06:17 AM,2/27/2024
html-keyboard-response,122,439539,0.0-52.0,,"<div style=""font-size:100px;"">+</div>",,delaylearn,learning,ITI,0WkZqo6H3MW5HmHyy9f5yTJi22A2,0WkZqo6H3MW5HmHyy9f5yTJi22A2,,,,,,,,,,,,,,,,,,,2285.0,,,634e460a7da3fef3d5a9faf3,9:06:17 AM,2/27/2024
html-keyboard-response,123,440447,0.0-53.0-0.0,892.0,"<div style=""display: flex; flex-direction: column; align-items: center; margin-top: -40px;""><img src=""images/pattern_5.png"" style=""width: 234px; height: 230px; margin-top: -50px;""><div style=""display: flex; justify-content: space-between; margin-top: 33px;""><img src=""images/choice_trial_9.png"" style=""width: 408px; height: 417px; margin-right: 200px;""><img src=""images/choice_trial_2.png"" style=""width: 408px; height: 417px;""></div></div>",f,delaylearn,learning,trial,0WkZqo6H3MW5HmHyy9f5yTJi22A2,0WkZqo6H3MW5HmHyy9f5yTJi22A2,2.0,images/choice_trial_9.png,images/choice_trial_2.png,images/pattern_5.png,j,j,750.0,9.0,2.0,4.0,1.0,23.0,0.0,0.0,9.0,110.0,,,,,,634e460a7da3fef3d5a9faf3,9:06:17 AM,2/27/2024
html-keyboard-response,124,441459,0.0-53.0-1.0,,"<div style=""display: flex; flex-direction: column; align-items: center; margin-top: -40px;""><img src=""images/pattern_5.png"" style=""width: 234px; height: 230px; margin-top: -50px;""><div style=""display: flex; justify-content: space-between; margin-top: 33px;""><img src=""images/choice_trial_9.png"" style=""width: 408px; height: 417px; margin-right: 608px;""></div></div>",,delaylearn,learning,display_response,0WkZqo6H3MW5HmHyy9f5yTJi22A2,0WkZqo6H3MW5HmHyy9f5yTJi22A2,,,,,,,,,,,,,,,,,chosen stimuli: images/choice_trial_9.png,,,,,634e460a7da3fef3d5a9faf3,9:06:17 AM,2/27/2024
html-keyboard-response,125,442214,0.0-53.0-2.0,,,,delaylearn,learning,feedback_duration_window,0WkZqo6H3MW5HmHyy9f5yTJi22A2,0WkZqo6H3MW5HmHyy9f5yTJi22A2,,,,,,,,,,,,,,,,,,750.0,,,,634e460a7da3fef3d5a9faf3,9:06:17 AM,2/27/2024
html-keyboard-response,126,443723,0.0-53.0-3.0,,<div style='margin:auto;width: auto; font-size: 150%'><span style='font-weight: bold; font-size: 100px; color: red;'>0 points!</span><br><br></div>,,delaylearn,learning,feedback_image_window,0WkZqo6H3MW5HmHyy9f5yTJi22A2,0WkZqo6H3MW5HmHyy9f5yTJi22A2,,,,,,,,,,,,,,,,,,,,,,634e460a7da3fef3d5a9faf3,9:06:17 AM,2/27/2024
html-keyboard-response,127,445356,0.0-54.0,,"<div style=""font-size:100px;"">+</div>",,delaylearn,learning,ITI,0WkZqo6H3MW5HmHyy9f5yTJi22A2,0WkZqo6H3MW5HmHyy9f5yTJi22A2,,,,,,,,,,,,,,,,,,,1621.0,,,634e460a7da3fef3d5a9faf3,9:06:17 AM,2/27/2024
html-keyboard-response,128,445978,0.0-55.0-0.0,615.0,"<div style=""display: flex; flex-direction: column; align-items: center; margin-top: -40px;""><img src=""images/pattern_3.png"" style=""width: 234px; height: 230px; margin-top: -50px;""><div style=""display: flex; justify-content: space-between; margin-top: 33px;""><img src=""images/choice_trial_14.png"" style=""width: 408px; height: 417px; margin-right: 200px;""><img src=""images/choice_trial_12.png"" style=""width: 408px; height: 417px;""></div></div>",f,delaylearn,learning,trial,0WkZqo6H3MW5HmHyy9f5yTJi22A2,0WkZqo6H3MW5HmHyy9f5yTJi22A2,2.0,images/choice_trial_14.png,images/choice_trial_12.png,images/pattern_3.png,j,j,7000.0,14.0,12.0,2.0,1.0,24.0,0.0,0.0,14.0,110.0,,,,,,634e460a7da3fef3d5a9faf3,9:06:17 AM,2/27/2024
html-keyboard-response,129,446989,0.0-55.0-1.0,,"<div style=""display: flex; flex-direction: column; align-items: center; margin-top: -40px;""><img src=""images/pattern_3.png"" style=""width: 234px; height: 230px; margin-top: -50px;""><div style=""display: flex; justify-content: space-between; margin-top: 33px;""><img src=""images/choice_trial_14.png"" style=""width: 408px; height: 417px; margin-right: 608px;""></div></div>",,delaylearn,learning,display_response,0WkZqo6H3MW5HmHyy9f5yTJi22A2,0WkZqo6H3MW5HmHyy9f5yTJi22A2,,,,,,,,,,,,,,,,,chosen stimuli: images/choice_trial_14.png,,,,,634e460a7da3fef3d5a9faf3,9:06:17 AM,2/27/2024
html-keyboard-response,130,453996,0.0-55.0-2.0,,,,delaylearn,learning,feedback_duration_window,0WkZqo6H3MW5HmHyy9f5yTJi22A2,0WkZqo6H3MW5HmHyy9f5yTJi22A2,,,,,,,,,,,,,,,,,,7000.0,,,,634e460a7da3fef3d5a9faf3,9:06:17 AM,2/27/2024
html-keyboard-response,131,455503,0.0-55.0-3.0,,<div style='margin:auto;width: auto; font-size: 150%'><span style='font-weight: bold; font-size: 100px; color: red;'>0 points!</span><br><br></div>,,delaylearn,learning,feedback_image_window,0WkZqo6H3MW5HmHyy9f5yTJi22A2,0WkZqo6H3MW5HmHyy9f5yTJi22A2,,,,,,,,,,,,,,,,,,,,,,634e460a7da3fef3d5a9faf3,9:06:17 AM,2/27/2024
lmdlab-html-vas-response,132,461080,0.0-56.0-0.0,4063.0,*How <b><u>confident</u></b> are you feeling about your answers at this moment?*,0.6215277809971645,rewlearn,rate_confidence,,0WkZqo6H3MW5HmHyy9f5yTJi22A2,0WkZqo6H3MW5HmHyy9f5yTJi22A2,,,,,,,,,,,,,,,,,,,,"['No confidence', 'Complete confidence']",,634e460a7da3fef3d5a9faf3,9:06:17 AM,2/27/2024
lmdlab-rest-trial-limit,133,473923,0.0-56.0-1.0,11315.0,"<div style=""font-size:40px;""><b>Please take a break!</b><br><br><br><br><p>Great work: you earned undefined points.<br><br><br><p>You have completed part(s) 1 of 6.<br><br><br><br>When you are ready to continue<br><br><br>please click the button.</p><br><br>",0,delaylearn,learning,break,0WkZqo6H3MW5HmHyy9f5yTJi22A2,0WkZqo6H3MW5HmHyy9f5yTJi22A2,,,,,,,,,,,,,,,,,,,,,0.0,634e460a7da3fef3d5a9faf3,9:06:17 AM,2/27/2024
html-keyboard-response,134,476939,0.0-56.0-2.0,,"<div style=""font-size:100px;"">+</div>",,delaylearn,learning,pre_fixation,0WkZqo6H3MW5HmHyy9f5yTJi22A2,not found,,,,,,,,,,,,,,,,,,,,,,634e460a7da3fef3d5a9faf3,9:06:17 AM,2/27/2024
lmdlab-html-vas-response,135,482217,0.0-56.0-3.0-0.0,4246.0,How happy are you right now?,0.5846354189087396,delaylearn,learning,mood_baseline,0WkZqo6H3MW5HmHyy9f5yTJi22A2,0WkZqo6H3MW5HmHyy9f5yTJi22A2,,,,,,,,,,,,,,,,,,,,"['Very unhappy', 'Very happy']",,634e460a7da3fef3d5a9faf3,9:06:17 AM,2/27/2024
html-keyboard-response,136,483741,0.0-56.0-3.0-1.0,,,,,,mood_baseline_fixation,0WkZqo6H3MW5HmHyy9f5yTJi22A2,,,,,,,,,,,,,,,,,,,,,,,634e460a7da3fef3d5a9faf3,9:06:17 AM,2/27/2024
html-keyboard-response,137,485953,0.0-57.0,,"<div style=""font-size:100px;"">+</div>",,delaylearn,learning,ITI,0WkZqo6H3MW5HmHyy9f5yTJi22A2,0WkZqo6H3MW5HmHyy9f5yTJi22A2,,,,,,,,,,,,,,,,,,,2197.0,,,634e460a7da3fef3d5a9faf3,9:06:17 AM,2/27/2024
html-keyboard-response,138,486637,0.0-58.0-0.0,675.0,"<div style=""display: flex; flex-direction: column; align-items: center; margin-top: -40px;""><img src=""images/pattern_7.png"" style=""width: 234px; height: 230px; margin-top: -50px;""><div style=""display: flex; justify-content: space-between; margin-top: 33px;""><img src=""images/choice_trial_15.png"" style=""width: 408px; height: 417px; margin-right: 200px;""><img src=""images/choice_trial_8.png"" style=""width: 408px; height: 417px;""></div></div>",f,delaylearn,learning,trial,0WkZqo6H3MW5HmHyy9f5yTJi22A2,0WkZqo6H3MW5HmHyy9f5yTJi22A2,2.0,images/choice_trial_15.png,images/choice_trial_8.png,images/pattern_7.png,j,j,750.0,15.0,8.0,6.0,1.0,25.0,0.0,0.0,15.0,110.0,,,,,,634e460a7da3fef3d5a9faf3,9:06:17 AM,2/27/2024
html-keyboard-response,139,487659,0.0-58.0-1.0,,"<div style=""display: flex; flex-direction: column; align-items: center; margin-top: -40px;""><img src=""images/pattern_7.png"" style=""width: 234px; height: 230px; margin-top: -50px;""><div style=""display: flex; justify-content: space-between; margin-top: 33px;""><img src=""images/choice_trial_15.png"" style=""width: 408px; height: 417px; margin-right: 608px;""></div></div>",,delaylearn,learning,display_response,0WkZqo6H3MW5HmHyy9f5yTJi22A2,0WkZqo6H3MW5HmHyy9f5yTJi22A2,,,,,,,,,,,,,,,,,chosen stimuli: images/choice_trial_15.png,,,,,634e460a7da3fef3d5a9faf3,9:06:17 AM,2/27/2024
html-keyboard-response,140,488424,0.0-58.0-2.0,,,,delaylearn,learning,feedback_duration_window,0WkZqo6H3MW5HmHyy9f5yTJi22A2,0WkZqo6H3MW5HmHyy9f5yTJi22A2,,,,,,,,,,,,,,,,,,750.0,,,,634e460a7da3fef3d5a9faf3,9:06:17 AM,2/27/2024
html-keyboard-response,141,489952,0.0-58.0-3.0,,<div style='margin:auto;width: auto; font-size: 150%'><span style='font-weight: bold; font-size: 100px; color: red;'>0 points!</span><br><br></div>,,delaylearn,learning,feedback_image_window,0WkZqo6H3MW5HmHyy9f5yTJi22A2,0WkZqo6H3MW5HmHyy9f5yTJi22A2,,,,,,,,,,,,,,,,,,,,,,634e460a7da3fef3d5a9faf3,9:06:17 AM,2/27/2024
html-keyboard-response,142,490469,0.0-59.0-0.0,,,,,,mood_trial_fixation,0WkZqo6H3MW5HmHyy9f5yTJi22A2,,,,,,,,,,,,,,,,,,,,,,,634e460a7da3fef3d5a9faf3,9:06:17 AM,2/27/2024
lmdlab-html-vas-response,143,495759,0.0-59.0-1.0,4276.0,How happy are you right now?,0.14409721279401813,delaylearn,learning,mood_trial,0WkZqo6H3MW5HmHyy9f5yTJi22A2,0WkZqo6H3MW5HmHyy9f5yTJi22A2,,,,,,,,,,,,,,,,,,,,"['Very unhappy', 'Very happy']",,634e460a7da3fef3d5a9faf3,9:06:17 AM,2/27/2024
html-keyboard-response,144,497878,0.0-60.0,,"<div style=""font-size:100px;"">+</div>",,delaylearn,learning,ITI,0WkZqo6H3MW5HmHyy9f5yTJi22A2,0WkZqo6H3MW5HmHyy9f5yTJi22A2,,,,,,,,,,,,,,,,,,,2101.0,,,634e460a7da3fef3d5a9faf3,9:06:17 AM,2/27/2024
html-keyboard-response,145,499393,0.0-61.0-0.0,1508.0,"<div style=""display: flex; flex-direction: column; align-items: center; margin-top: -40px;""><img src=""images/pattern_1.png"" style=""width: 234px; height: 230px; margin-top: -50px;""><div style=""display: flex; justify-content: space-between; margin-top: 33px;""><img src=""images/choice_trial_3.png"" style=""width: 408px; height: 417px; margin-right: 200px;""><img src=""images/choice_trial_10.png"" style=""width: 408px; height: 417px;""></div></div>",f,delaylearn,learning,trial,0WkZqo6H3MW5HmHyy9f5yTJi22A2,0WkZqo6H3MW5HmHyy9f5yTJi22A2,2.0,images/choice_trial_3.png,images/choice_trial_10.png,images/pattern_1.png,f,f,7000.0,3.0,10.0,1.0,0.0,26.0,1.0,1.0,3.0,120.0,,,,,,634e460a7da3fef3d5a9faf3,9:06:17 AM,2/27/2024
html-keyboard-response,146,500406,0.0-61.0-1.0,,"<div style=""display: flex; flex-direction: column; align-items: center; margin-top: -40px;""><img src=""images/pattern_1.png"" style=""width: 234px; height: 230px; margin-top: -50px;""><div style=""display: flex; justify-content: space-between; margin-top: 33px;""><img src=""images/choice_trial_3.png"" style=""width: 408px; height: 417px; margin-right: 608px;""></div></div>",,delaylearn,learning,display_response,0WkZqo6H3MW5HmHyy9f5yTJi22A2,0WkZqo6H3MW5HmHyy9f5yTJi22A2,,,,,,,,,,,,,,,,,chosen stimuli: images/choice_trial_3.png,,,,,634e460a7da3fef3d5a9faf3,9:06:17 AM,2/27/2024
html-keyboard-response,147,507428,0.0-61.0-2.0,,,,delaylearn,learning,feedback_duration_window,0WkZqo6H3MW5HmHyy9f5yTJi22A2,0WkZqo6H3MW5HmHyy9f5yTJi22A2,,,,,,,,,,,,,,,,,,7000.0,,,,634e460a7da3fef3d5a9faf3,9:06:17 AM,2/27/2024
html-keyboard-response,148,508935,0.0-61.0-3.0,,<div style='margin:auto;width: auto; font-size: 150%'><span style='font-weight: bold; font-size: 100px; color: green;'>+10 points!</span><br><br></div>,,delaylearn,learning,feedback_image_window,0WkZqo6H3MW5HmHyy9f5yTJi22A2,0WkZqo6H3MW5HmHyy9f5yTJi22A2,,,,,,,,,,,,,,,,,,,,,,634e460a7da3fef3d5a9faf3,9:06:17 AM,2/27/2024
html-keyboard-response,149,510715,0.0-62.0,,"<div style=""font-size:100px;"">+</div>",,delaylearn,learning,ITI,0WkZqo6H3MW5HmHyy9f5yTJi22A2,0WkZqo6H3MW5HmHyy9f5yTJi22A2,,,,,,,,,,,,,,,,,,,1764.0,,,634e460a7da3fef3d5a9faf3,9:06:17 AM,2/27/2024
html-keyboard-response,150,512744,0.0-63.0-0.0,2017.0,"<div style=""display: flex; flex-direction: column; align-items: center; margin-top: -40px;""><img src=""images/pattern_5.png"" style=""width: 234px; height: 230px; margin-top: -50px;""><div style=""display: flex; justify-content: space-between; margin-top: 33px;""><img src=""images/choice_trial_2.png"" style=""width: 408px; height: 417px; margin-right: 200px;""><img src=""images/choice_trial_9.png"" style=""width: 408px; height: 417px;""></div></div>",f,delaylearn,learning,trial,0WkZqo6H3MW5HmHyy9f5yTJi22A2,0WkZqo6H3MW5HmHyy9f5yTJi22A2,2.0,images/choice_trial_2.png,images/choice_trial_9.png,images/pattern_5.png,f,f,750.0,2.0,9.0,4.0,0.0,27.0,1.0,1.0,2.0,130.0,,,,,,634e460a7da3fef3d5a9faf3,9:06:17 AM,2/27/2024
html-keyboard-response,151,513758,0.0-63.0-1.0,,"<div style=""display: flex; flex-direction: column; align-items: center; margin-top: -40px;""><img src=""images/pattern_5.png"" style=""width: 234px; height: 230px; margin-top: -50px;""><div style=""display: flex; justify-content: space-between; margin-top: 33px;""><img src=""images/choice_trial_2.png"" style=""width: 408px; height: 417px; margin-right: 608px;""></div></div>",,delaylearn,learning,display_response,0WkZqo6H3MW5HmHyy9f5yTJi22A2,0WkZqo6H3MW5HmHyy9f5yTJi22A2,,,,,,,,,,,,,,,,,chosen stimuli: images/choice_trial_2.png,,,,,634e460a7da3fef3d5a9faf3,9:06:17 AM,2/27/2024
html-keyboard-response,152,514514,0.0-63.0-2.0,,,,delaylearn,learning,feedback_duration_window,0WkZqo6H3MW5HmHyy9f5yTJi22A2,0WkZqo6H3MW5HmHyy9f5yTJi22A2,,,,,,,,,,,,,,,,,,750.0,,,,634e460a7da3fef3d5a9faf3,9:06:17 AM,2/27/2024
html-keyboard-response,153,516019,0.0-63.0-3.0,,<div style='margin:auto;width: auto; font-size: 150%'><span style='font-weight: bold; font-size: 100px; color: green;'>+10 points!</span><br><br></div>,,delaylearn,learning,feedback_image_window,0WkZqo6H3MW5HmHyy9f5yTJi22A2,0WkZqo6H3MW5HmHyy9f5yTJi22A2,,,,,,,,,,,,,,,,,,,,,,634e460a7da3fef3d5a9faf3,9:06:17 AM,2/27/2024
html-keyboard-response,154,517625,0.0-64.0,,"<div style=""font-size:100px;"">+</div>",,delaylearn,learning,ITI,0WkZqo6H3MW5HmHyy9f5yTJi22A2,0WkZqo6H3MW5HmHyy9f5yTJi22A2,,,,,,,,,,,,,,,,,,,1588.0,,,634e460a7da3fef3d5a9faf3,9:06:17 AM,2/27/2024
html-keyboard-response,155,519161,0.0-65.0-0.0,1521.0,"<div style=""display: flex; flex-direction: column; align-items: center; margin-top: -40px;""><img src=""images/pattern_6.png"" style=""width: 234px; height: 230px; margin-top: -50px;""><div style=""display: flex; justify-content: space-between; margin-top: 33px;""><img src=""images/choice_trial_5.png"" style=""width: 408px; height: 417px; margin-right: 200px;""><img src=""images/choice_trial_11.png"" style=""width: 408px; height: 417px;""></div></div>",f,delaylearn,learning,trial,0WkZqo6H3MW5HmHyy9f5yTJi22A2,0WkZqo6H3MW5HmHyy9f5yTJi22A2,2.0,images/choice_trial_5.png,images/choice_trial_11.png,images/pattern_6.png,j,j,750.0,5.0,11.0,5.0,1.0,28.0,0.0,0.0,5.0,130.0,,,,,,634e460a7da3fef3d5a9faf3,9:06:17 AM,2/27/2024
html-keyboard-response,156,520171,0.0-65.0-1.0,,"<div style=""display: flex; flex-direction: column; align-items: center; margin-top: -40px;""><img src=""images/pattern_6.png"" style=""width: 234px; height: 230px; margin-top: -50px;""><div style=""display: flex; justify-content: space-between; margin-top: 33px;""><img src=""images/choice_trial_5.png"" style=""width: 408px; height: 417px; margin-right: 608px;""></div></div>",,delaylearn,learning,display_response,0WkZqo6H3MW5HmHyy9f5yTJi22A2,0WkZqo6H3MW5HmHyy9f5yTJi22A2,,,,,,,,,,,,,,,,,chosen stimuli: images/choice_trial_5.png,,,,,634e460a7da3fef3d5a9faf3,9:06:17 AM,2/27/2024
html-keyboard-response,157,520928,0.0-65.0-2.0,,,,delaylearn,learning,feedback_duration_window,0WkZqo6H3MW5HmHyy9f5yTJi22A2,0WkZqo6H3MW5HmHyy9f5yTJi22A2,,,,,,,,,,,,,,,,,,750.0,,,,634e460a7da3fef3d5a9faf3,9:06:17 AM,2/27/2024
html-keyboard-response,158,522450,0.0-65.0-3.0,,<div style='margin:auto;width: auto; font-size: 150%'><span style='font-weight: bold; font-size: 100px; color: red;'>0 points!</span><br><br></div>,,delaylearn,learning,feedback_image_window,0WkZqo6H3MW5HmHyy9f5yTJi22A2,0WkZqo6H3MW5HmHyy9f5yTJi22A2,,,,,,,,,,,,,,,,,,,,,,634e460a7da3fef3d5a9faf3,9:06:17 AM,2/27/2024
html-keyboard-response,159,522965,0.0-66.0-0.0,,,,,,mood_trial_fixation,0WkZqo6H3MW5HmHyy9f5yTJi22A2,,,,,,,,,,,,,,,,,,,,,,,634e460a7da3fef3d5a9faf3,9:06:17 AM,2/27/2024
lmdlab-html-vas-response,160,529089,0.0-66.0-1.0,5096.0,How happy are you right now?,0.5412326399811809,delaylearn,learning,mood_trial,0WkZqo6H3MW5HmHyy9f5yTJi22A2,0WkZqo6H3MW5HmHyy9f5yTJi22A2,,,,,,,,,,,,,,,,,,,,"['Very unhappy', 'Very happy']",,634e460a7da3fef3d5a9faf3,9:06:17 AM,2/27/2024
html-keyboard-response,161,531425,0.0-67.0,,"<div style=""font-size:100px;"">+</div>",,delaylearn,learning,ITI,0WkZqo6H3MW5HmHyy9f5yTJi22A2,0WkZqo6H3MW5HmHyy9f5yTJi22A2,,,,,,,,,,,,,,,,,,,2313.0,,,634e460a7da3fef3d5a9faf3,9:06:17 AM,2/27/2024
html-keyboard-response,162,532490,0.0-68.0-0.0,1042.0,"<div style=""display: flex; flex-direction: column; align-items: center; margin-top: -40px;""><img src=""images/pattern_4.png"" style=""width: 234px; height: 230px; margin-top: -50px;""><div style=""display: flex; justify-content: space-between; margin-top: 33px;""><img src=""images/choice_trial_16.png"" style=""width: 408px; height: 417px; margin-right: 200px;""><img src=""images/choice_trial_4.png"" style=""width: 408px; height: 417px;""></div></div>",f,delaylearn,learning,trial,0WkZqo6H3MW5HmHyy9f5yTJi22A2,0WkZqo6H3MW5HmHyy9f5yTJi22A2,2.0,images/choice_trial_16.png,images/choice_trial_4.png,images/pattern_4.png,j,j,7000.0,16.0,4.0,3.0,1.0,29.0,0.0,0.0,16.0,130.0,,,,,,634e460a7da3fef3d5a9faf3,9:06:17 AM,2/27/2024
html-keyboard-response,163,533510,0.0-68.0-1.0,,"<div style=""display: flex; flex-direction: column; align-items: center; margin-top: -40px;""><img src=""images/pattern_4.png"" style=""width: 234px; height: 230px; margin-top: -50px;""><div style=""display: flex; justify-content: space-between; margin-top: 33px;""><img src=""images/choice_trial_16.png"" style=""width: 408px; height: 417px; margin-right: 608px;""></div></div>",,delaylearn,learning,display_response,0WkZqo6H3MW5HmHyy9f5yTJi22A2,0WkZqo6H3MW5HmHyy9f5yTJi22A2,,,,,,,,,,,,,,,,,chosen stimuli: images/choice_trial_16.png,,,,,634e460a7da3fef3d5a9faf3,9:06:17 AM,2/27/2024
html-keyboard-response,164,540527,0.0-68.0-2.0,,,,delaylearn,learning,feedback_duration_window,0WkZqo6H3MW5HmHyy9f5yTJi22A2,0WkZqo6H3MW5HmHyy9f5yTJi22A2,,,,,,,,,,,,,,,,,,7000.0,,,,634e460a7da3fef3d5a9faf3,9:06:17 AM,2/27/2024
html-keyboard-response,165,542050,0.0-68.0-3.0,,<div style='margin:auto;width: auto; font-size: 150%'><span style='font-weight: bold; font-size: 100px; color: red;'>0 points!</span><br><br></div>,,delaylearn,learning,feedback_image_window,0WkZqo6H3MW5HmHyy9f5yTJi22A2,0WkZqo6H3MW5HmHyy9f5yTJi22A2,,,,,,,,,,,,,,,,,,,,,,634e460a7da3fef3d5a9faf3,9:06:17 AM,2/27/2024
html-keyboard-response,166,544121,0.0-69.0,,"<div style=""font-size:100px;"">+</div>",,delaylearn,learning,ITI,0WkZqo6H3MW5HmHyy9f5yTJi22A2,0WkZqo6H3MW5HmHyy9f5yTJi22A2,,,,,,,,,,,,,,,,,,,2056.0,,,634e460a7da3fef3d5a9faf3,9:06:17 AM,2/27/2024
html-keyboard-response,167,545405,0.0-70.0-0.0,1270.0,"<div style=""display: flex; flex-direction: column; align-items: center; margin-top: -40px;""><img src=""images/pattern_3.png"" style=""width: 234px; height: 230px; margin-top: -50px;""><div style=""display: flex; justify-content: space-between; margin-top: 33px;""><img src=""images/choice_trial_14.png"" style=""width: 408px; height: 417px; margin-right: 200px;""><img src=""images/choice_trial_12.png"" style=""width: 408px; height: 417px;""></div></div>",f,delaylearn,learning,trial,0WkZqo6H3MW5HmHyy9f5yTJi22A2,0WkZqo6H3MW5HmHyy9f5yTJi22A2,2.0,images/choice_trial_14.png,images/choice_trial_12.png,images/pattern_3.png,j,j,7000.0,14.0,12.0,2.0,1.0,30.0,0.0,0.0,14.0,130.0,,,,,,634e460a7da3fef3d5a9faf3,9:06:17 AM,2/27/2024
html-keyboard-response,168,546415,0.0-70.0-1.0,,"<div style=""display: flex; flex-direction: column; align-items: center; margin-top: -40px;""><img src=""images/pattern_3.png"" style=""width: 234px; height: 230px; margin-top: -50px;""><div style=""display: flex; justify-content: space-between; margin-top: 33px;""><img src=""images/choice_trial_14.png"" style=""width: 408px; height: 417px; margin-right: 608px;""></div></div>",,delaylearn,learning,display_response,0WkZqo6H3MW5HmHyy9f5yTJi22A2,0WkZqo6H3MW5HmHyy9f5yTJi22A2,,,,,,,,,,,,,,,,,chosen stimuli: images/choice_trial_14.png,,,,,634e460a7da3fef3d5a9faf3,9:06:17 AM,2/27/2024
html-keyboard-response,169,553425,0.0-70.0-2.0,,,,delaylearn,learning,feedback_duration_window,0WkZqo6H3MW5HmHyy9f5yTJi22A2,0WkZqo6H3MW5HmHyy9f5yTJi22A2,,,,,,,,,,,,,,,,,,7000.0,,,,634e460a7da3fef3d5a9faf3,9:06:17 AM,2/27/2024
html-keyboard-response,170,554951,0.0-70.0-3.0,,<div style='margin:auto;width: auto; font-size: 150%'><span style='font-weight: bold; font-size: 100px; color: red;'>0 points!</span><br><br></div>,,delaylearn,learning,feedback_image_window,0WkZqo6H3MW5HmHyy9f5yTJi22A2,0WkZqo6H3MW5HmHyy9f5yTJi22A2,,,,,,,,,,,,,,,,,,,,,,634e460a7da3fef3d5a9faf3,9:06:17 AM,2/27/2024
html-keyboard-response,171,557153,0.0-71.0,,"<div style=""font-size:100px;"">+</div>",,delaylearn,learning,ITI,0WkZqo6H3MW5HmHyy9f5yTJi22A2,0WkZqo6H3MW5HmHyy9f5yTJi22A2,,,,,,,,,,,,,,,,,,,2187.0,,,634e460a7da3fef3d5a9faf3,9:06:17 AM,2/27/2024
html-keyboard-response,172,558403,0.0-72.0-0.0,1236.0,"<div style=""display: flex; flex-direction: column; align-items: center; margin-top: -40px;""><img src=""images/pattern_5.png"" style=""width: 234px; height: 230px; margin-top: -50px;""><div style=""display: flex; justify-content: space-between; margin-top: 33px;""><img src=""images/choice_trial_2.png"" style=""width: 408px; height: 417px; margin-right: 200px;""><img src=""images/choice_trial_9.png"" style=""width: 408px; height: 417px;""></div></div>",f,delaylearn,learning,trial,0WkZqo6H3MW5HmHyy9f5yTJi22A2,0WkZqo6H3MW5HmHyy9f5yTJi22A2,2.0,images/choice_trial_2.png,images/choice_trial_9.png,images/pattern_5.png,j,f,750.0,2.0,9.0,4.0,0.0,31.0,1.0,0.0,2.0,130.0,,,,,,634e460a7da3fef3d5a9faf3,9:06:17 AM,2/27/2024
html-keyboard-response,173,559415,0.0-72.0-1.0,,"<div style=""display: flex; flex-direction: column; align-items: center; margin-top: -40px;""><img src=""images/pattern_5.png"" style=""width: 234px; height: 230px; margin-top: -50px;""><div style=""display: flex; justify-content: space-between; margin-top: 33px;""><img src=""images/choice_trial_2.png"" style=""width: 408px; height: 417px; margin-right: 608px;""></div></div>",,delaylearn,learning,display_response,0WkZqo6H3MW5HmHyy9f5yTJi22A2,0WkZqo6H3MW5HmHyy9f5yTJi22A2,,,,,,,,,,,,,,,,,chosen stimuli: images/choice_trial_2.png,,,,,634e460a7da3fef3d5a9faf3,9:06:17 AM,2/27/2024
html-keyboard-response,174,560183,0.0-72.0-2.0,,,,delaylearn,learning,feedback_duration_window,0WkZqo6H3MW5HmHyy9f5yTJi22A2,0WkZqo6H3MW5HmHyy9f5yTJi22A2,,,,,,,,,,,,,,,,,,750.0,,,,634e460a7da3fef3d5a9faf3,9:06:17 AM,2/27/2024
html-keyboard-response,175,561693,0.0-72.0-3.0,,<div style='margin:auto;width: auto; font-size: 150%'><span style='font-weight: bold; font-size: 100px; color: red;'>0 points!</span><br><br></div>,,delaylearn,learning,feedback_image_window,0WkZqo6H3MW5HmHyy9f5yTJi22A2,0WkZqo6H3MW5HmHyy9f5yTJi22A2,,,,,,,,,,,,,,,,,,,,,,634e460a7da3fef3d5a9faf3,9:06:17 AM,2/27/2024
html-keyboard-response,176,563408,0.0-73.0,,"<div style=""font-size:100px;"">+</div>",,delaylearn,learning,ITI,0WkZqo6H3MW5HmHyy9f5yTJi22A2,0WkZqo6H3MW5HmHyy9f5yTJi22A2,,,,,,,,,,,,,,,,,,,1701.0,,,634e460a7da3fef3d5a9faf3,9:06:17 AM,2/27/2024
html-keyboard-response,177,564012,0.0-74.0-0.0,589.0,"<div style=""display: flex; flex-direction: column; align-items: center; margin-top: -40px;""><img src=""images/pattern_1.png"" style=""width: 234px; height: 230px; margin-top: -50px;""><div style=""display: flex; justify-content: space-between; margin-top: 33px;""><img src=""images/choice_trial_3.png"" style=""width: 408px; height: 417px; margin-right: 200px;""><img src=""images/choice_trial_10.png"" style=""width: 408px; height: 417px;""></div></div>",j,delaylearn,learning,trial,0WkZqo6H3MW5HmHyy9f5yTJi22A2,0WkZqo6H3MW5HmHyy9f5yTJi22A2,2.0,images/choice_trial_3.png,images/choice_trial_10.png,images/pattern_1.png,f,f,7000.0,3.0,10.0,1.0,0.0,32.0,0.0,0.0,10.0,130.0,,,,,,634e460a7da3fef3d5a9faf3,9:06:17 AM,2/27/2024
html-keyboard-response,178,565021,0.0-74.0-1.0,,"<div style=""display: flex; flex-direction: column; align-items: center; margin-top: -40px;""><img src=""images/pattern_1.png"" style=""width: 234px; height: 230px; margin-top: -50px;""><div style=""display: flex; justify-content: space-between; margin-top: 33px;""><img src=""images/choice_trial_10.png"" style=""width: 408px; height: 417px; margin-left:608px;""></div></div>",,delaylearn,learning,display_response,0WkZqo6H3MW5HmHyy9f5yTJi22A2,0WkZqo6H3MW5HmHyy9f5yTJi22A2,,,,,,,,,,,,,,,,,chosen stimuli: images/choice_trial_10.png,,,,,634e460a7da3fef3d5a9faf3,9:06:17 AM,2/27/2024
html-keyboard-response,179,572028,0.0-74.0-2.0,,,,delaylearn,learning,feedback_duration_window,0WkZqo6H3MW5HmHyy9f5yTJi22A2,0WkZqo6H3MW5HmHyy9f5yTJi22A2,,,,,,,,,,,,,,,,,,7000.0,,,,634e460a7da3fef3d5a9faf3,9:06:17 AM,2/27/2024
html-keyboard-response,180,573549,0.0-74.0-3.0,,<div style='margin:auto;width: auto; font-size: 150%'><span style='font-weight: bold; font-size: 100px; color: red;'>0 points!</span><br><br></div>,,delaylearn,learning,feedback_image_window,0WkZqo6H3MW5HmHyy9f5yTJi22A2,0WkZqo6H3MW5HmHyy9f5yTJi22A2,,,,,,,,,,,,,,,,,,,,,,634e460a7da3fef3d5a9faf3,9:06:17 AM,2/27/2024
html-keyboard-response,181,574055,0.0-75.0-0.0,,,,,,mood_trial_fixation,0WkZqo6H3MW5HmHyy9f5yTJi22A2,,,,,,,,,,,,,,,,,,,,,,,634e460a7da3fef3d5a9faf3,9:06:17 AM,2/27/2024
lmdlab-html-vas-response,182,579855,0.0-75.0-1.0,4776.0,How happy are you right now?,0.5390625010348029,delaylearn,learning,mood_trial,0WkZqo6H3MW5HmHyy9f5yTJi22A2,0WkZqo6H3MW5HmHyy9f5yTJi22A2,,,,,,,,,,,,,,,,,,,,"['Very unhappy', 'Very happy']",,634e460a7da3fef3d5a9faf3,9:06:17 AM,2/27/2024
html-keyboard-response,183,581560,0.0-76.0,,"<div style=""font-size:100px;"">+</div>",,delaylearn,learning,ITI,0WkZqo6H3MW5HmHyy9f5yTJi22A2,0WkZqo6H3MW5HmHyy9f5yTJi22A2,,,,,,,,,,,,,,,,,,,1689.0,,,634e460a7da3fef3d5a9faf3,9:06:17 AM,2/27/2024
html-keyboard-response,184,583408,0.0-77.0-0.0,1837.0,"<div style=""display: flex; flex-direction: column; align-items: center; margin-top: -40px;""><img src=""images/pattern_6.png"" style=""width: 234px; height: 230px; margin-top: -50px;""><div style=""display: flex; justify-content: space-between; margin-top: 33px;""><img src=""images/choice_trial_11.png"" style=""width: 408px; height: 417px; margin-right: 200px;""><img src=""images/choice_trial_5.png"" style=""width: 408px; height: 417px;""></div></div>",f,delaylearn,learning,trial,0WkZqo6H3MW5HmHyy9f5yTJi22A2,0WkZqo6H3MW5HmHyy9f5yTJi22A2,2.0,images/choice_trial_11.png,images/choice_trial_5.png,images/pattern_6.png,j,f,750.0,11.0,5.0,5.0,0.0,33.0,1.0,0.0,11.0,130.0,,,,,,634e460a7da3fef3d5a9faf3,9:06:17 AM,2/27/2024
html-keyboard-response,185,584420,0.0-77.0-1.0,,"<div style=""display: flex; flex-direction: column; align-items: center; margin-top: -40px;""><img src=""images/pattern_6.png"" style=""width: 234px; height: 230px; margin-top: -50px;""><div style=""display: flex; justify-content: space-between; margin-top: 33px;""><img src=""images/choice_trial_11.png"" style=""width: 408px; height: 417px; margin-right: 608px;""></div></div>",,delaylearn,learning,display_response,0WkZqo6H3MW5HmHyy9f5yTJi22A2,0WkZqo6H3MW5HmHyy9f5yTJi22A2,,,,,,,,,,,,,,,,,chosen stimuli: images/choice_trial_11.png,,,,,634e460a7da3fef3d5a9faf3,9:06:17 AM,2/27/2024
html-keyboard-response,186,585220,0.0-77.0-2.0,,,,delaylearn,learning,feedback_duration_window,0WkZqo6H3MW5HmHyy9f5yTJi22A2,0WkZqo6H3MW5HmHyy9f5yTJi22A2,,,,,,,,,,,,,,,,,,750.0,,,,634e460a7da3fef3d5a9faf3,9:06:17 AM,2/27/2024
html-keyboard-response,187,586729,0.0-77.0-3.0,,<div style='margin:auto;width: auto; font-size: 150%'><span style='font-weight: bold; font-size: 100px; color: red;'>0 points!</span><br><br></div>,,delaylearn,learning,feedback_image_window,0WkZqo6H3MW5HmHyy9f5yTJi22A2,0WkZqo6H3MW5HmHyy9f5yTJi22A2,,,,,,,,,,,,,,,,,,,,,,634e460a7da3fef3d5a9faf3,9:06:17 AM,2/27/2024
html-keyboard-response,188,588505,0.0-78.0,,"<div style=""font-size:100px;"">+</div>",,delaylearn,learning,ITI,0WkZqo6H3MW5HmHyy9f5yTJi22A2,0WkZqo6H3MW5HmHyy9f5yTJi22A2,,,,,,,,,,,,,,,,,,,1773.0,,,634e460a7da3fef3d5a9faf3,9:06:17 AM,2/27/2024
html-keyboard-response,189,589283,0.0-79.0-0.0,769.0,"<div style=""display: flex; flex-direction: column; align-items: center; margin-top: -40px;""><img src=""images/pattern_3.png"" style=""width: 234px; height: 230px; margin-top: -50px;""><div style=""display: flex; justify-content: space-between; margin-top: 33px;""><img src=""images/choice_trial_14.png"" style=""width: 408px; height: 417px; margin-right: 200px;""><img src=""images/choice_trial_12.png"" style=""width: 408px; height: 417px;""></div></div>",f,delaylearn,learning,trial,0WkZqo6H3MW5HmHyy9f5yTJi22A2,0WkZqo6H3MW5HmHyy9f5yTJi22A2,2.0,images/choice_trial_14.png,images/choice_trial_12.png,images/pattern_3.png,j,j,7000.0,14.0,12.0,2.0,1.0,34.0,0.0,0.0,14.0,130.0,,,,,,634e460a7da3fef3d5a9faf3,9:06:17 AM,2/27/2024
html-keyboard-response,190,590302,0.0-79.0-1.0,,"<div style=""display: flex; flex-direction: column; align-items: center; margin-top: -40px;""><img src=""images/pattern_3.png"" style=""width: 234px; height: 230px; margin-top: -50px;""><div style=""display: flex; justify-content: space-between; margin-top: 33px;""><img src=""images/choice_trial_14.png"" style=""width: 408px; height: 417px; margin-right: 608px;""></div></div>",,delaylearn,learning,display_response,0WkZqo6H3MW5HmHyy9f5yTJi22A2,0WkZqo6H3MW5HmHyy9f5yTJi22A2,,,,,,,,,,,,,,,,,chosen stimuli: images/choice_trial_14.png,,,,,634e460a7da3fef3d5a9faf3,9:06:17 AM,2/27/2024
html-keyboard-response,191,597320,0.0-79.0-2.0,,,,delaylearn,learning,feedback_duration_window,0WkZqo6H3MW5HmHyy9f5yTJi22A2,0WkZqo6H3MW5HmHyy9f5yTJi22A2,,,,,,,,,,,,,,,,,,7000.0,,,,634e460a7da3fef3d5a9faf3,9:06:17 AM,2/27/2024
html-keyboard-response,192,598832,0.0-79.0-3.0,,<div style='margin:auto;width: auto; font-size: 150%'><span style='font-weight: bold; font-size: 100px; color: red;'>0 points!</span><br><br></div>,,delaylearn,learning,feedback_image_window,0WkZqo6H3MW5HmHyy9f5yTJi22A2,0WkZqo6H3MW5HmHyy9f5yTJi22A2,,,,,,,,,,,,,,,,,,,,,,634e460a7da3fef3d5a9faf3,9:06:17 AM,2/27/2024
html-keyboard-response,193,600563,0.0-80.0,,"<div style=""font-size:100px;"">+</div>",,delaylearn,learning,ITI,0WkZqo6H3MW5HmHyy9f5yTJi22A2,0WkZqo6H3MW5HmHyy9f5yTJi22A2,,,,,,,,,,,,,,,,,,,1709.0,,,634e460a7da3fef3d5a9faf3,9:06:17 AM,2/27/2024
html-keyboard-response,194,602413,0.0-81.0-0.0,1835.0,"<div style=""display: flex; flex-direction: column; align-items: center; margin-top: -40px;""><img src=""images/pattern_4.png"" style=""width: 234px; height: 230px; margin-top: -50px;""><div style=""display: flex; justify-content: space-between; margin-top: 33px;""><img src=""images/choice_trial_16.png"" style=""width: 408px; height: 417px; margin-right: 200px;""><img src=""images/choice_trial_4.png"" style=""width: 408px; height: 417px;""></div></div>",j,delaylearn,learning,trial,0WkZqo6H3MW5HmHyy9f5yTJi22A2,0WkZqo6H3MW5HmHyy9f5yTJi22A2,2.0,images/choice_trial_16.png,images/choice_trial_4.png,images/pattern_4.png,f,j,7000.0,16.0,4.0,3.0,1.0,35.0,1.0,0.0,4.0,130.0,,,,,,634e460a7da3fef3d5a9faf3,9:06:17 AM,2/27/2024
html-keyboard-response,195,603420,0.0-81.0-1.0,,"<div style=""display: flex; flex-direction: column; align-items: center; margin-top: -40px;""><img src=""images/pattern_4.png"" style=""width: 234px; height: 230px; margin-top: -50px;""><div style=""display: flex; justify-content: space-between; margin-top: 33px;""><img src=""images/choice_trial_4.png"" style=""width: 408px; height: 417px; margin-left:608px;""></div></div>",,delaylearn,learning,display_response,0WkZqo6H3MW5HmHyy9f5yTJi22A2,0WkZqo6H3MW5HmHyy9f5yTJi22A2,,,,,,,,,,,,,,,,,chosen stimuli: images/choice_trial_4.png,,,,,634e460a7da3fef3d5a9faf3,9:06:17 AM,2/27/2024
html-keyboard-response,196,610432,0.0-81.0-2.0,,,,delaylearn,learning,feedback_duration_window,0WkZqo6H3MW5HmHyy9f5yTJi22A2,0WkZqo6H3MW5HmHyy9f5yTJi22A2,,,,,,,,,,,,,,,,,,7000.0,,,,634e460a7da3fef3d5a9faf3,9:06:17 AM,2/27/2024
html-keyboard-response,197,611940,0.0-81.0-3.0,,<div style='margin:auto;width: auto; font-size: 150%'><span style='font-weight: bold; font-size: 100px; color: red;'>0 points!</span><br><br></div>,,delaylearn,learning,feedback_image_window,0WkZqo6H3MW5HmHyy9f5yTJi22A2,0WkZqo6H3MW5HmHyy9f5yTJi22A2,,,,,,,,,,,,,,,,,,,,,,634e460a7da3fef3d5a9faf3,9:06:17 AM,2/27/2024
html-keyboard-response,198,613919,0.0-82.0,,"<div style=""font-size:100px;"">+</div>",,delaylearn,learning,ITI,0WkZqo6H3MW5HmHyy9f5yTJi22A2,0WkZqo6H3MW5HmHyy9f5yTJi22A2,,,,,,,,,,,,,,,,,,,1965.0,,,634e460a7da3fef3d5a9faf3,9:06:17 AM,2/27/2024
html-keyboard-response,199,614545,0.0-83.0-0.0,609.0,"<div style=""display: flex; flex-direction: column; align-items: center; margin-top: -40px;""><img src=""images/pattern_7.png"" style=""width: 234px; height: 230px; margin-top: -50px;""><div style=""display: flex; justify-content: space-between; margin-top: 33px;""><img src=""images/choice_trial_8.png"" style=""width: 408px; height: 417px; margin-right: 200px;""><img src=""images/choice_trial_15.png"" style=""width: 408px; height: 417px;""></div></div>",f,delaylearn,learning,trial,0WkZqo6H3MW5HmHyy9f5yTJi22A2,0WkZqo6H3MW5HmHyy9f5yTJi22A2,2.0,images/choice_trial_8.png,images/choice_trial_15.png,images/pattern_7.png,f,f,750.0,8.0,15.0,6.0,0.0,36.0,1.0,1.0,8.0,140.0,,,,,,634e460a7da3fef3d5a9faf3,9:06:17 AM,2/27/2024
html-keyboard-response,200,615552,0.0-83.0-1.0,,"<div style=""display: flex; flex-direction: column; align-items: center; margin-top: -40px;""><img src=""images/pattern_7.png"" style=""width: 234px; height: 230px; margin-top: -50px;""><div style=""display: flex; justify-content: space-between; margin-top: 33px;""><img src=""images/choice_trial_8.png"" style=""width: 408px; height: 417px; margin-right: 608px;""></div></div>",,delaylearn,learning,display_response,0WkZqo6H3MW5HmHyy9f5yTJi22A2,0WkZqo6H3MW5HmHyy9f5yTJi22A2,,,,,,,,,,,,,,,,,chosen stimuli: images/choice_trial_8.png,,,,,634e460a7da3fef3d5a9faf3,9:06:17 AM,2/27/2024
html-keyboard-response,201,616306,0.0-83.0-2.0,,,,delaylearn,learning,feedback_duration_window,0WkZqo6H3MW5HmHyy9f5yTJi22A2,0WkZqo6H3MW5HmHyy9f5yTJi22A2,,,,,,,,,,,,,,,,,,750.0,,,,634e460a7da3fef3d5a9faf3,9:06:17 AM,2/27/2024
html-keyboard-response,202,617819,0.0-83.0-3.0,,<div style='margin:auto;width: auto; font-size: 150%'><span style='font-weight: bold; font-size: 100px; color: green;'>+10 points!</span><br><br></div>,,delaylearn,learning,feedback_image_window,0WkZqo6H3MW5HmHyy9f5yTJi22A2,0WkZqo6H3MW5HmHyy9f5yTJi22A2,,,,,,,,,,,,,,,,,,,,,,634e460a7da3fef3d5a9faf3,9:06:17 AM,2/27/2024
html-keyboard-response,203,619623,0.0-84.0,,"<div style=""font-size:100px;"">+</div>",,delaylearn,learning,ITI,0WkZqo6H3MW5HmHyy9f5yTJi22A2,0WkZqo6H3MW5HmHyy9f5yTJi22A2,,,,,,,,,,,,,,,,,,,1787.0,,,634e460a7da3fef3d5a9faf3,9:06:17 AM,2/27/2024
html-keyboard-response,204,620782,0.0-85.0-0.0,1144.0,"<div style=""display: flex; flex-direction: column; align-items: center; margin-top: -40px;""><img src=""images/pattern_1.png"" style=""width: 234px; height: 230px; margin-top: -50px;""><div style=""display: flex; justify-content: space-between; margin-top: 33px;""><img src=""images/choice_trial_3.png"" style=""width: 408px; height: 417px; margin-right: 200px;""><img src=""images/choice_trial_10.png"" style=""width: 408px; height: 417px;""></div></div>",f,delaylearn,learning,trial,0WkZqo6H3MW5HmHyy9f5yTJi22A2,0WkZqo6H3MW5HmHyy9f5yTJi22A2,2.0,images/choice_trial_3.png,images/choice_trial_10.png,images/pattern_1.png,f,f,7000.0,3.0,10.0,1.0,0.0,37.0,1.0,1.0,3.0,150.0,,,,,,634e460a7da3fef3d5a9faf3,9:06:17 AM,2/27/2024
html-keyboard-response,205,621789,0.0-85.0-1.0,,"<div style=""display: flex; flex-direction: column; align-items: center; margin-top: -40px;""><img src=""images/pattern_1.png"" style=""width: 234px; height: 230px; margin-top: -50px;""><div style=""display: flex; justify-content: space-between; margin-top: 33px;""><img src=""images/choice_trial_3.png"" style=""width: 408px; height: 417px; margin-right: 608px;""></div></div>",,delaylearn,learning,display_response,0WkZqo6H3MW5HmHyy9f5yTJi22A2,0WkZqo6H3MW5HmHyy9f5yTJi22A2,,,,,,,,,,,,,,,,,chosen stimuli: images/choice_trial_3.png,,,,,634e460a7da3fef3d5a9faf3,9:06:17 AM,2/27/2024
html-keyboard-response,206,628810,0.0-85.0-2.0,,,,delaylearn,learning,feedback_duration_window,0WkZqo6H3MW5HmHyy9f5yTJi22A2,0WkZqo6H3MW5HmHyy9f5yTJi22A2,,,,,,,,,,,,,,,,,,7000.0,,,,634e460a7da3fef3d5a9faf3,9:06:17 AM,2/27/2024
html-keyboard-response,207,630316,0.0-85.0-3.0,,<div style='margin:auto;width: auto; font-size: 150%'><span style='font-weight: bold; font-size: 100px; color: green;'>+10 points!</span><br><br></div>,,delaylearn,learning,feedback_image_window,0WkZqo6H3MW5HmHyy9f5yTJi22A2,0WkZqo6H3MW5HmHyy9f5yTJi22A2,,,,,,,,,,,,,,,,,,,,,,634e460a7da3fef3d5a9faf3,9:06:17 AM,2/27/2024
html-keyboard-response,208,630822,0.0-86.0-0.0,,,,,,mood_trial_fixation,0WkZqo6H3MW5HmHyy9f5yTJi22A2,,,,,,,,,,,,,,,,,,,,,,,634e460a7da3fef3d5a9faf3,9:06:17 AM,2/27/2024
lmdlab-html-vas-response,209,635360,0.0-86.0-1.0,3510.0,How happy are you right now?,0.7039930609595262,delaylearn,learning,mood_trial,0WkZqo6H3MW5HmHyy9f5yTJi22A2,0WkZqo6H3MW5HmHyy9f5yTJi22A2,,,,,,,,,,,,,,,,,,,,"['Very unhappy', 'Very happy']",,634e460a7da3fef3d5a9faf3,9:06:17 AM,2/27/2024
html-keyboard-response,210,637682,0.0-87.0,,"<div style=""font-size:100px;"">+</div>",,delaylearn,learning,ITI,0WkZqo6H3MW5HmHyy9f5yTJi22A2,0WkZqo6H3MW5HmHyy9f5yTJi22A2,,,,,,,,,,,,,,,,,,,2303.0,,,634e460a7da3fef3d5a9faf3,9:06:17 AM,2/27/2024
html-keyboard-response,211,640703,0.0-88.0-0.0,,"<div style=""display: flex; flex-direction: column; align-items: center; margin-top: -40px;""><img src=""images/pattern_3.png"" style=""width: 234px; height: 230px; margin-top: -50px;""><div style=""display: flex; justify-content: space-between; margin-top: 33px;""><img src=""images/choice_trial_12.png"" style=""width: 408px; height: 417px; margin-right: 200px;""><img src=""images/choice_trial_14.png"" style=""width: 408px; height: 417px;""></div></div>",,delaylearn,learning,trial,0WkZqo6H3MW5HmHyy9f5yTJi22A2,0WkZqo6H3MW5HmHyy9f5yTJi22A2,2.0,images/choice_trial_12.png,images/choice_trial_14.png,images/pattern_3.png,j,f,7000.0,12.0,14.0,2.0,0.0,38.0,0.0,0.0,0.0,150.0,,,,,,634e460a7da3fef3d5a9faf3,9:06:17 AM,2/27/2024
html-keyboard-response,212,641724,0.0-88.0-1.0,,<div style='font-weight: bold; font-size: 75px; color: red;'>Missed Trial <br><br><br><br> Please respond faster</div>,,delaylearn,learning,display_response,0WkZqo6H3MW5HmHyy9f5yTJi22A2,0WkZqo6H3MW5HmHyy9f5yTJi22A2,,,,,,,,,,,,,,,,,Missed trial,,,,,634e460a7da3fef3d5a9faf3,9:06:17 AM,2/27/2024
html-keyboard-response,213,641742,0.0-88.0-2.0,,,,delaylearn,learning,feedback_duration_window,0WkZqo6H3MW5HmHyy9f5yTJi22A2,0WkZqo6H3MW5HmHyy9f5yTJi22A2,,,,,,,,,,,,,,,,,,0.0,,,,634e460a7da3fef3d5a9faf3,9:06:17 AM,2/27/2024
html-keyboard-response,214,641760,0.0-88.0-3.0,,,,delaylearn,learning,feedback_image_window,0WkZqo6H3MW5HmHyy9f5yTJi22A2,0WkZqo6H3MW5HmHyy9f5yTJi22A2,,,,,,,,,,,,,,,,,,,,,,634e460a7da3fef3d5a9faf3,9:06:17 AM,2/27/2024
html-keyboard-response,215,643341,0.0-89.0,,"<div style=""font-size:100px;"">+</div>",,delaylearn,learning,ITI,0WkZqo6H3MW5HmHyy9f5yTJi22A2,0WkZqo6H3MW5HmHyy9f5yTJi22A2,,,,,,,,,,,,,,,,,,,1575.0,,,634e460a7da3fef3d5a9faf3,9:06:17 AM,2/27/2024
html-keyboard-response,216,644884,0.0-90.0-0.0,1536.0,"<div style=""display: flex; flex-direction: column; align-items: center; margin-top: -40px;""><img src=""images/pattern_7.png"" style=""width: 234px; height: 230px; margin-top: -50px;""><div style=""display: flex; justify-content: space-between; margin-top: 33px;""><img src=""images/choice_trial_15.png"" style=""width: 408px; height: 417px; margin-right: 200px;""><img src=""images/choice_trial_8.png"" style=""width: 408px; height: 417px;""></div></div>",j,delaylearn,learning,trial,0WkZqo6H3MW5HmHyy9f5yTJi22A2,0WkZqo6H3MW5HmHyy9f5yTJi22A2,2.0,images/choice_trial_15.png,images/choice_trial_8.png,images/pattern_7.png,j,j,750.0,15.0,8.0,6.0,1.0,39.0,1.0,1.0,8.0,160.0,,,,,,634e460a7da3fef3d5a9faf3,9:06:17 AM,2/27/2024
html-keyboard-response,217,645902,0.0-90.0-1.0,,"<div style=""display: flex; flex-direction: column; align-items: center; margin-top: -40px;""><img src=""images/pattern_7.png"" style=""width: 234px; height: 230px; margin-top: -50px;""><div style=""display: flex; justify-content: space-between; margin-top: 33px;""><img src=""images/choice_trial_8.png"" style=""width: 408px; height: 417px; margin-left:608px;""></div></div>",,delaylearn,learning,display_response,0WkZqo6H3MW5HmHyy9f5yTJi22A2,0WkZqo6H3MW5HmHyy9f5yTJi22A2,,,,,,,,,,,,,,,,,chosen stimuli: images/choice_trial_8.png,,,,,634e460a7da3fef3d5a9faf3,9:06:17 AM,2/27/2024
html-keyboard-response,218,646657,0.0-90.0-2.0,,,,delaylearn,learning,feedback_duration_window,0WkZqo6H3MW5HmHyy9f5yTJi22A2,0WkZqo6H3MW5HmHyy9f5yTJi22A2,,,,,,,,,,,,,,,,,,750.0,,,,634e460a7da3fef3d5a9faf3,9:06:17 AM,2/27/2024
html-keyboard-response,219,648166,0.0-90.0-3.0,,<div style='margin:auto;width: auto; font-size: 150%'><span style='font-weight: bold; font-size: 100px; color: green;'>+10 points!</span><br><br></div>,,delaylearn,learning,feedback_image_window,0WkZqo6H3MW5HmHyy9f5yTJi22A2,0WkZqo6H3MW5HmHyy9f5yTJi22A2,,,,,,,,,,,,,,,,,,,,,,634e460a7da3fef3d5a9faf3,9:06:17 AM,2/27/2024
html-keyboard-response,220,650526,0.0-91.0,,"<div style=""font-size:100px;"">+</div>",,delaylearn,learning,ITI,0WkZqo6H3MW5HmHyy9f5yTJi22A2,0WkZqo6H3MW5HmHyy9f5yTJi22A2,,,,,,,,,,,,,,,,,,,2346.0,,,634e460a7da3fef3d5a9faf3,9:06:17 AM,2/27/2024
html-keyboard-response,221,651115,0.0-92.0-0.0,578.0,"<div style=""display: flex; flex-direction: column; align-items: center; margin-top: -40px;""><img src=""images/pattern_5.png"" style=""width: 234px; height: 230px; margin-top: -50px;""><div style=""display: flex; justify-content: space-between; margin-top: 33px;""><img src=""images/choice_trial_9.png"" style=""width: 408px; height: 417px; margin-right: 200px;""><img src=""images/choice_trial_2.png"" style=""width: 408px; height: 417px;""></div></div>",f,delaylearn,learning,trial,0WkZqo6H3MW5HmHyy9f5yTJi22A2,0WkZqo6H3MW5HmHyy9f5yTJi22A2,2.0,images/choice_trial_9.png,images/choice_trial_2.png,images/pattern_5.png,j,j,750.0,9.0,2.0,4.0,1.0,40.0,0.0,0.0,9.0,160.0,,,,,,634e460a7da3fef3d5a9faf3,9:06:17 AM,2/27/2024
html-keyboard-response,222,652128,0.0-92.0-1.0,,"<div style=""display: flex; flex-direction: column; align-items: center; margin-top: -40px;""><img src=""images/pattern_5.png"" style=""width: 234px; height: 230px; margin-top: -50px;""><div style=""display: flex; justify-content: space-between; margin-top: 33px;""><img src=""images/choice_trial_9.png"" style=""width: 408px; height: 417px; margin-right: 608px;""></div></div>",,delaylearn,learning,display_response,0WkZqo6H3MW5HmHyy9f5yTJi22A2,0WkZqo6H3MW5HmHyy9f5yTJi22A2,,,,,,,,,,,,,,,,,chosen stimuli: images/choice_trial_9.png,,,,,634e460a7da3fef3d5a9faf3,9:06:17 AM,2/27/2024
html-keyboard-response,223,652897,0.0-92.0-2.0,,,,delaylearn,learning,feedback_duration_window,0WkZqo6H3MW5HmHyy9f5yTJi22A2,0WkZqo6H3MW5HmHyy9f5yTJi22A2,,,,,,,,,,,,,,,,,,750.0,,,,634e460a7da3fef3d5a9faf3,9:06:17 AM,2/27/2024
html-keyboard-response,224,654406,0.0-92.0-3.0,,<div style='margin:auto;width: auto; font-size: 150%'><span style='font-weight: bold; font-size: 100px; color: red;'>0 points!</span><br><br></div>,,delaylearn,learning,feedback_image_window,0WkZqo6H3MW5HmHyy9f5yTJi22A2,0WkZqo6H3MW5HmHyy9f5yTJi22A2,,,,,,,,,,,,,,,,,,,,,,634e460a7da3fef3d5a9faf3,9:06:17 AM,2/27/2024
html-keyboard-response,225,654923,0.0-93.0-0.0,,,,,,mood_trial_fixation,0WkZqo6H3MW5HmHyy9f5yTJi22A2,,,,,,,,,,,,,,,,,,,,,,,634e460a7da3fef3d5a9faf3,9:06:17 AM,2/27/2024
lmdlab-html-vas-response,226,664226,0.0-93.0-1.0,8283.0,How happy are you right now?,0.6193576420507866,delaylearn,learning,mood_trial,0WkZqo6H3MW5HmHyy9f5yTJi22A2,0WkZqo6H3MW5HmHyy9f5yTJi22A2,,,,,,,,,,,,,,,,,,,,"['Very unhappy', 'Very happy']",,634e460a7da3fef3d5a9faf3,9:06:17 AM,2/27/2024
html-keyboard-response,227,666286,0.0-94.0,,"<div style=""font-size:100px;"">+</div>",,delaylearn,learning,ITI,0WkZqo6H3MW5HmHyy9f5yTJi22A2,0WkZqo6H3MW5HmHyy9f5yTJi22A2,,,,,,,,,,,,,,,,,,,2034.0,,,634e460a7da3fef3d5a9faf3,9:06:17 AM,2/27/2024
html-keyboard-response,228,667981,0.0-95.0-0.0,1687.0,"<div style=""display: flex; flex-direction: column; align-items: center; margin-top: -40px;""><img src=""images/pattern_4.png"" style=""width: 234px; height: 230px; margin-top: -50px;""><div style=""display: flex; justify-content: space-between; margin-top: 33px;""><img src=""images/choice_trial_4.png"" style=""width: 408px; height: 417px; margin-right: 200px;""><img src=""images/choice_trial_16.png"" style=""width: 408px; height: 417px;""></div></div>",j,delaylearn,learning,trial,0WkZqo6H3MW5HmHyy9f5yTJi22A2,0WkZqo6H3MW5HmHyy9f5yTJi22A2,2.0,images/choice_trial_4.png,images/choice_trial_16.png,images/pattern_4.png,f,f,7000.0,4.0,16.0,3.0,0.0,41.0,0.0,0.0,16.0,160.0,,,,,,634e460a7da3fef3d5a9faf3,9:06:17 AM,2/27/2024
html-keyboard-response,229,669004,0.0-95.0-1.0,,"<div style=""display: flex; flex-direction: column; align-items: center; margin-top: -40px;""><img src=""images/pattern_4.png"" style=""width: 234px; height: 230px; margin-top: -50px;""><div style=""display: flex; justify-content: space-between; margin-top: 33px;""><img src=""images/choice_trial_16.png"" style=""width: 408px; height: 417px; margin-left:608px;""></div></div>",,delaylearn,learning,display_response,0WkZqo6H3MW5HmHyy9f5yTJi22A2,0WkZqo6H3MW5HmHyy9f5yTJi22A2,,,,,,,,,,,,,,,,,chosen stimuli: images/choice_trial_16.png,,,,,634e460a7da3fef3d5a9faf3,9:06:17 AM,2/27/2024
html-keyboard-response,230,676068,0.0-95.0-2.0,,,,delaylearn,learning,feedback_duration_window,0WkZqo6H3MW5HmHyy9f5yTJi22A2,0WkZqo6H3MW5HmHyy9f5yTJi22A2,,,,,,,,,,,,,,,,,,7000.0,,,,634e460a7da3fef3d5a9faf3,9:06:17 AM,2/27/2024
html-keyboard-response,231,677574,0.0-95.0-3.0,,<div style='margin:auto;width: auto; font-size: 150%'><span style='font-weight: bold; font-size: 100px; color: red;'>0 points!</span><br><br></div>,,delaylearn,learning,feedback_image_window,0WkZqo6H3MW5HmHyy9f5yTJi22A2,0WkZqo6H3MW5HmHyy9f5yTJi22A2,,,,,,,,,,,,,,,,,,,,,,634e460a7da3fef3d5a9faf3,9:06:17 AM,2/27/2024
html-keyboard-response,232,679994,0.0-96.0,,"<div style=""font-size:100px;"">+</div>",,delaylearn,learning,ITI,0WkZqo6H3MW5HmHyy9f5yTJi22A2,0WkZqo6H3MW5HmHyy9f5yTJi22A2,,,,,,,,,,,,,,,,,,,2410.0,,,634e460a7da3fef3d5a9faf3,9:06:17 AM,2/27/2024
html-keyboard-response,233,681693,0.0-97.0-0.0,1680.0,"<div style=""display: flex; flex-direction: column; align-items: center; margin-top: -40px;""><img src=""images/pattern_6.png"" style=""width: 234px; height: 230px; margin-top: -50px;""><div style=""display: flex; justify-content: space-between; margin-top: 33px;""><img src=""images/choice_trial_5.png"" style=""width: 408px; height: 417px; margin-right: 200px;""><img src=""images/choice_trial_11.png"" style=""width: 408px; height: 417px;""></div></div>",f,delaylearn,learning,trial,0WkZqo6H3MW5HmHyy9f5yTJi22A2,0WkZqo6H3MW5HmHyy9f5yTJi22A2,2.0,images/choice_trial_5.png,images/choice_trial_11.png,images/pattern_6.png,j,j,750.0,5.0,11.0,5.0,1.0,42.0,0.0,0.0,5.0,160.0,,,,,,634e460a7da3fef3d5a9faf3,9:06:17 AM,2/27/2024
html-keyboard-response,234,682716,0.0-97.0-1.0,,"<div style=""display: flex; flex-direction: column; align-items: center; margin-top: -40px;""><img src=""images/pattern_6.png"" style=""width: 234px; height: 230px; margin-top: -50px;""><div style=""display: flex; justify-content: space-between; margin-top: 33px;""><img src=""images/choice_trial_5.png"" style=""width: 408px; height: 417px; margin-right: 608px;""></div></div>",,delaylearn,learning,display_response,0WkZqo6H3MW5HmHyy9f5yTJi22A2,0WkZqo6H3MW5HmHyy9f5yTJi22A2,,,,,,,,,,,,,,,,,chosen stimuli: images/choice_trial_5.png,,,,,634e460a7da3fef3d5a9faf3,9:06:17 AM,2/27/2024
