trial_type,trial_index,time_elapsed,internal_node_id,rt,stimulus,response,exp_name,exp_stage,test_part,subjectID,databaseID,counterbal,choice_stimuli_1,choice_stimuli_2,pattern_stimuli,rewarded_answer,correct_answer,feedback_duration_times,stim_left,stim_right,pair,leftright_counter,trial,response_correct,response_rewarded,chosen_stim,counter,displayed_choice,feedback_durations,ITI_duration,labels,rest_warning,prolificID,start_time,date
pavlovia,0,485,0.0-0.0,,,,,,,BMN4zMU9PwdgRSTOmX2osTnrKBC3,,,,,,,,,,,,,,,,,,,,,,,63d3f99c57f6b09e77ce7c82,16:53:20,27/03/2024
html-keyboard-response,1,3491,0.0-1.0,,"<div style=""font-size:100px;"">+</div>",,delaylearn,learning,pre_fixation,BMN4zMU9PwdgRSTOmX2osTnrKBC3,,,,,,,,,,,,,,,,,,,,,,,63d3f99c57f6b09e77ce7c82,16:53:20,27/03/2024
html-keyboard-response,2,4757,0.0-2.0-0.0,1263.0,"<div style=""display: flex; flex-direction: column; align-items: center; margin-top: -40px;""><img src=""images/demo_images/pattern_1.png"" style=""width: 234px; height: 230px; margin-top: -50px;""><div style=""display: flex; justify-content: space-between; margin-top: 33px;""><img src=""images/demo_images/choice_trial_2.png"" style=""width: 408px; height: 417px; margin-right: 200px;""><img src=""images/demo_images/choice_trial_1.png"" style=""width: 408px; height: 417px;""></div></div>",f,delaylearn,learning,trial,BMN4zMU9PwdgRSTOmX2osTnrKBC3,BMN4zMU9PwdgRSTOmX2osTnrKBC3,1.0,images/demo_images/choice_trial_2.png,images/demo_images/choice_trial_1.png,images/demo_images/pattern_1.png,j,j,3000.0,2.0,1.0,20.0,1.0,1.0,0.0,0.0,2.0,0.0,,,,,,63d3f99c57f6b09e77ce7c82,16:53:20,27/03/2024
html-keyboard-response,3,5765,0.0-2.0-1.0,,"<div style=""display: flex; flex-direction: column; align-items: center; margin-top: -40px;""><img src=""images/demo_images/pattern_1.png"" style=""width: 234px; height: 230px; margin-top: -50px;""><div style=""display: flex; justify-content: space-between; margin-top: 33px;""><img src=""images/demo_images/choice_trial_2.png"" style=""width: 408px; height: 417px; margin-right: 608px;""></div></div>",,delaylearn,learning,display_response,BMN4zMU9PwdgRSTOmX2osTnrKBC3,BMN4zMU9PwdgRSTOmX2osTnrKBC3,,,,,,,,,,,,,,,,,chosen stimuli: images/demo_images/choice_trial_2.png,,,,,63d3f99c57f6b09e77ce7c82,16:53:20,27/03/2024
html-keyboard-response,4,8772,0.0-2.0-2.0,,,,delaylearn,learning,feedback_duration_window,BMN4zMU9PwdgRSTOmX2osTnrKBC3,BMN4zMU9PwdgRSTOmX2osTnrKBC3,,,,,,,,,,,,,,,,,,3000.0,,,,63d3f99c57f6b09e77ce7c82,16:53:20,27/03/2024
html-keyboard-response,5,10281,0.0-2.0-3.0,,<div style='margin:auto;width: auto; font-size: 150%'><span style='font-weight: bold; font-size: 100px; color: red;'>0 points!</span><br><br></div>,,delaylearn,learning,feedback_image_window,BMN4zMU9PwdgRSTOmX2osTnrKBC3,BMN4zMU9PwdgRSTOmX2osTnrKBC3,,,,,,,,,,,,,,,,,,,,,,63d3f99c57f6b09e77ce7c82,16:53:20,27/03/2024
html-keyboard-response,6,12012,0.0-3.0,,"<div style=""font-size:100px;"">+</div>",,delaylearn,learning,ITI,BMN4zMU9PwdgRSTOmX2osTnrKBC3,BMN4zMU9PwdgRSTOmX2osTnrKBC3,,,,,,,,,,,,,,,,,,,1726.0,,,63d3f99c57f6b09e77ce7c82,16:53:20,27/03/2024
html-keyboard-response,7,12734,0.0-4.0-0.0,719.0,"<div style=""display: flex; flex-direction: column; align-items: center; margin-top: -40px;""><img src=""images/demo_images/pattern_1.png"" style=""width: 234px; height: 230px; margin-top: -50px;""><div style=""display: flex; justify-content: space-between; margin-top: 33px;""><img src=""images/demo_images/choice_trial_2.png"" style=""width: 408px; height: 417px; margin-right: 200px;""><img src=""images/demo_images/choice_trial_1.png"" style=""width: 408px; height: 417px;""></div></div>",j,delaylearn,learning,trial,BMN4zMU9PwdgRSTOmX2osTnrKBC3,BMN4zMU9PwdgRSTOmX2osTnrKBC3,1.0,images/demo_images/choice_trial_2.png,images/demo_images/choice_trial_1.png,images/demo_images/pattern_1.png,j,j,3000.0,2.0,1.0,20.0,1.0,2.0,1.0,1.0,1.0,10.0,,,,,,63d3f99c57f6b09e77ce7c82,16:53:20,27/03/2024
html-keyboard-response,8,13741,0.0-4.0-1.0,,"<div style=""display: flex; flex-direction: column; align-items: center; margin-top: -40px;""><img src=""images/demo_images/pattern_1.png"" style=""width: 234px; height: 230px; margin-top: -50px;""><div style=""display: flex; justify-content: space-between; margin-top: 33px;""><img src=""images/demo_images/choice_trial_1.png"" style=""width: 408px; height: 417px; margin-left:608px;""></div></div>",,delaylearn,learning,display_response,BMN4zMU9PwdgRSTOmX2osTnrKBC3,BMN4zMU9PwdgRSTOmX2osTnrKBC3,,,,,,,,,,,,,,,,,chosen stimuli: images/demo_images/choice_trial_1.png,,,,,63d3f99c57f6b09e77ce7c82,16:53:20,27/03/2024
html-keyboard-response,9,16748,0.0-4.0-2.0,,,,delaylearn,learning,feedback_duration_window,BMN4zMU9PwdgRSTOmX2osTnrKBC3,BMN4zMU9PwdgRSTOmX2osTnrKBC3,,,,,,,,,,,,,,,,,,3000.0,,,,63d3f99c57f6b09e77ce7c82,16:53:20,27/03/2024
html-keyboard-response,10,18256,0.0-4.0-3.0,,<div style='margin:auto;width: auto; font-size: 150%'><span style='font-weight: bold; font-size: 100px; color: green;'>+10 points!</span><br><br></div>,,delaylearn,learning,feedback_image_window,BMN4zMU9PwdgRSTOmX2osTnrKBC3,BMN4zMU9PwdgRSTOmX2osTnrKBC3,,,,,,,,,,,,,,,,,,,,,,63d3f99c57f6b09e77ce7c82,16:53:20,27/03/2024
html-keyboard-response,11,20000,0.0-5.0,,"<div style=""font-size:100px;"">+</div>",,delaylearn,learning,ITI,BMN4zMU9PwdgRSTOmX2osTnrKBC3,BMN4zMU9PwdgRSTOmX2osTnrKBC3,,,,,,,,,,,,,,,,,,,1690.0,,,63d3f99c57f6b09e77ce7c82,16:53:20,27/03/2024
html-keyboard-response,12,20831,0.0-6.0-0.0,825.0,"<div style=""display: flex; flex-direction: column; align-items: center; margin-top: -40px;""><img src=""images/demo_images/pattern_1.png"" style=""width: 234px; height: 230px; margin-top: -50px;""><div style=""display: flex; justify-content: space-between; margin-top: 33px;""><img src=""images/demo_images/choice_trial_1.png"" style=""width: 408px; height: 417px; margin-right: 200px;""><img src=""images/demo_images/choice_trial_2.png"" style=""width: 408px; height: 417px;""></div></div>",f,delaylearn,learning,trial,BMN4zMU9PwdgRSTOmX2osTnrKBC3,BMN4zMU9PwdgRSTOmX2osTnrKBC3,1.0,images/demo_images/choice_trial_1.png,images/demo_images/choice_trial_2.png,images/demo_images/pattern_1.png,j,f,3000.0,1.0,2.0,20.0,0.0,3.0,1.0,0.0,1.0,10.0,,,,,,63d3f99c57f6b09e77ce7c82,16:53:20,27/03/2024
html-keyboard-response,13,21838,0.0-6.0-1.0,,"<div style=""display: flex; flex-direction: column; align-items: center; margin-top: -40px;""><img src=""images/demo_images/pattern_1.png"" style=""width: 234px; height: 230px; margin-top: -50px;""><div style=""display: flex; justify-content: space-between; margin-top: 33px;""><img src=""images/demo_images/choice_trial_1.png"" style=""width: 408px; height: 417px; margin-right: 608px;""></div></div>",,delaylearn,learning,display_response,BMN4zMU9PwdgRSTOmX2osTnrKBC3,BMN4zMU9PwdgRSTOmX2osTnrKBC3,,,,,,,,,,,,,,,,,chosen stimuli: images/demo_images/choice_trial_1.png,,,,,63d3f99c57f6b09e77ce7c82,16:53:20,27/03/2024
html-keyboard-response,14,24845,0.0-6.0-2.0,,,,delaylearn,learning,feedback_duration_window,BMN4zMU9PwdgRSTOmX2osTnrKBC3,BMN4zMU9PwdgRSTOmX2osTnrKBC3,,,,,,,,,,,,,,,,,,3000.0,,,,63d3f99c57f6b09e77ce7c82,16:53:20,27/03/2024
html-keyboard-response,15,26352,0.0-6.0-3.0,,<div style='margin:auto;width: auto; font-size: 150%'><span style='font-weight: bold; font-size: 100px; color: red;'>0 points!</span><br><br></div>,,delaylearn,learning,feedback_image_window,BMN4zMU9PwdgRSTOmX2osTnrKBC3,BMN4zMU9PwdgRSTOmX2osTnrKBC3,,,,,,,,,,,,,,,,,,,,,,63d3f99c57f6b09e77ce7c82,16:53:20,27/03/2024
html-keyboard-response,16,28770,0.0-7.0,,"<div style=""font-size:100px;"">+</div>",,delaylearn,learning,ITI,BMN4zMU9PwdgRSTOmX2osTnrKBC3,BMN4zMU9PwdgRSTOmX2osTnrKBC3,,,,,,,,,,,,,,,,,,,2411.0,,,63d3f99c57f6b09e77ce7c82,16:53:20,27/03/2024
html-keyboard-response,17,30446,0.0-8.0-0.0,1672.0,"<div style=""display: flex; flex-direction: column; align-items: center; margin-top: -40px;""><img src=""images/demo_images/pattern_1.png"" style=""width: 234px; height: 230px; margin-top: -50px;""><div style=""display: flex; justify-content: space-between; margin-top: 33px;""><img src=""images/demo_images/choice_trial_1.png"" style=""width: 408px; height: 417px; margin-right: 200px;""><img src=""images/demo_images/choice_trial_2.png"" style=""width: 408px; height: 417px;""></div></div>",j,delaylearn,learning,trial,BMN4zMU9PwdgRSTOmX2osTnrKBC3,BMN4zMU9PwdgRSTOmX2osTnrKBC3,1.0,images/demo_images/choice_trial_1.png,images/demo_images/choice_trial_2.png,images/demo_images/pattern_1.png,f,f,3000.0,1.0,2.0,20.0,0.0,4.0,0.0,0.0,2.0,10.0,,,,,,63d3f99c57f6b09e77ce7c82,16:53:20,27/03/2024
html-keyboard-response,18,31454,0.0-8.0-1.0,,"<div style=""display: flex; flex-direction: column; align-items: center; margin-top: -40px;""><img src=""images/demo_images/pattern_1.png"" style=""width: 234px; height: 230px; margin-top: -50px;""><div style=""display: flex; justify-content: space-between; margin-top: 33px;""><img src=""images/demo_images/choice_trial_2.png"" style=""width: 408px; height: 417px; margin-left:608px;""></div></div>",,delaylearn,learning,display_response,BMN4zMU9PwdgRSTOmX2osTnrKBC3,BMN4zMU9PwdgRSTOmX2osTnrKBC3,,,,,,,,,,,,,,,,,chosen stimuli: images/demo_images/choice_trial_2.png,,,,,63d3f99c57f6b09e77ce7c82,16:53:20,27/03/2024
html-keyboard-response,19,34461,0.0-8.0-2.0,,,,delaylearn,learning,feedback_duration_window,BMN4zMU9PwdgRSTOmX2osTnrKBC3,BMN4zMU9PwdgRSTOmX2osTnrKBC3,,,,,,,,,,,,,,,,,,3000.0,,,,63d3f99c57f6b09e77ce7c82,16:53:20,27/03/2024
html-keyboard-response,20,35969,0.0-8.0-3.0,,<div style='margin:auto;width: auto; font-size: 150%'><span style='font-weight: bold; font-size: 100px; color: red;'>0 points!</span><br><br></div>,,delaylearn,learning,feedback_image_window,BMN4zMU9PwdgRSTOmX2osTnrKBC3,BMN4zMU9PwdgRSTOmX2osTnrKBC3,,,,,,,,,,,,,,,,,,,,,,63d3f99c57f6b09e77ce7c82,16:53:20,27/03/2024
html-keyboard-response,21,36477,0.0-9.0-0.0,,,,,,mood_trial_fixation,BMN4zMU9PwdgRSTOmX2osTnrKBC3,,,,,,,,,,,,,,,,,,,,,,,63d3f99c57f6b09e77ce7c82,16:53:20,27/03/2024
lmdlab-html-vas-response,22,42472,0.0-9.0-1.0,4986.0,How happy are you right now?,0.2601246105919003,delaylearn,learning,mood_trial,BMN4zMU9PwdgRSTOmX2osTnrKBC3,BMN4zMU9PwdgRSTOmX2osTnrKBC3,,,,,,,,,,,,,,,,,,,,"['Very unhappy', 'Very happy']",,63d3f99c57f6b09e77ce7c82,16:53:20,27/03/2024
html-keyboard-response,23,44411,0.0-10.0,,"<div style=""font-size:100px;"">+</div>",,delaylearn,learning,ITI,BMN4zMU9PwdgRSTOmX2osTnrKBC3,BMN4zMU9PwdgRSTOmX2osTnrKBC3,,,,,,,,,,,,,,,,,,,1931.0,,,63d3f99c57f6b09e77ce7c82,16:53:20,27/03/2024
html-keyboard-response,24,46071,0.0-11.0-0.0,1656.0,"<div style=""display: flex; flex-direction: column; align-items: center; margin-top: -40px;""><img src=""images/demo_images/pattern_1.png"" style=""width: 234px; height: 230px; margin-top: -50px;""><div style=""display: flex; justify-content: space-between; margin-top: 33px;""><img src=""images/demo_images/choice_trial_2.png"" style=""width: 408px; height: 417px; margin-right: 200px;""><img src=""images/demo_images/choice_trial_1.png"" style=""width: 408px; height: 417px;""></div></div>",j,delaylearn,learning,trial,BMN4zMU9PwdgRSTOmX2osTnrKBC3,BMN4zMU9PwdgRSTOmX2osTnrKBC3,1.0,images/demo_images/choice_trial_2.png,images/demo_images/choice_trial_1.png,images/demo_images/pattern_1.png,j,j,3000.0,2.0,1.0,20.0,1.0,5.0,1.0,1.0,1.0,20.0,,,,,,63d3f99c57f6b09e77ce7c82,16:53:20,27/03/2024
html-keyboard-response,25,47079,0.0-11.0-1.0,,"<div style=""display: flex; flex-direction: column; align-items: center; margin-top: -40px;""><img src=""images/demo_images/pattern_1.png"" style=""width: 234px; height: 230px; margin-top: -50px;""><div style=""display: flex; justify-content: space-between; margin-top: 33px;""><img src=""images/demo_images/choice_trial_1.png"" style=""width: 408px; height: 417px; margin-left:608px;""></div></div>",,delaylearn,learning,display_response,BMN4zMU9PwdgRSTOmX2osTnrKBC3,BMN4zMU9PwdgRSTOmX2osTnrKBC3,,,,,,,,,,,,,,,,,chosen stimuli: images/demo_images/choice_trial_1.png,,,,,63d3f99c57f6b09e77ce7c82,16:53:20,27/03/2024
html-keyboard-response,26,50086,0.0-11.0-2.0,,,,delaylearn,learning,feedback_duration_window,BMN4zMU9PwdgRSTOmX2osTnrKBC3,BMN4zMU9PwdgRSTOmX2osTnrKBC3,,,,,,,,,,,,,,,,,,3000.0,,,,63d3f99c57f6b09e77ce7c82,16:53:20,27/03/2024
html-keyboard-response,27,51595,0.0-11.0-3.0,,<div style='margin:auto;width: auto; font-size: 150%'><span style='font-weight: bold; font-size: 100px; color: green;'>+10 points!</span><br><br></div>,,delaylearn,learning,feedback_image_window,BMN4zMU9PwdgRSTOmX2osTnrKBC3,BMN4zMU9PwdgRSTOmX2osTnrKBC3,,,,,,,,,,,,,,,,,,,,,,63d3f99c57f6b09e77ce7c82,16:53:20,27/03/2024
html-keyboard-response,28,53866,0.0-12.0,,"<div style=""font-size:100px;"">+</div>",,delaylearn,learning,ITI,BMN4zMU9PwdgRSTOmX2osTnrKBC3,BMN4zMU9PwdgRSTOmX2osTnrKBC3,,,,,,,,,,,,,,,,,,,2264.0,,,63d3f99c57f6b09e77ce7c82,16:53:20,27/03/2024
html-keyboard-response,29,54772,0.0-13.0-0.0,900.0,"<div style=""display: flex; flex-direction: column; align-items: center; margin-top: -40px;""><img src=""images/demo_images/pattern_1.png"" style=""width: 234px; height: 230px; margin-top: -50px;""><div style=""display: flex; justify-content: space-between; margin-top: 33px;""><img src=""images/demo_images/choice_trial_1.png"" style=""width: 408px; height: 417px; margin-right: 200px;""><img src=""images/demo_images/choice_trial_2.png"" style=""width: 408px; height: 417px;""></div></div>",f,delaylearn,learning,trial,BMN4zMU9PwdgRSTOmX2osTnrKBC3,BMN4zMU9PwdgRSTOmX2osTnrKBC3,1.0,images/demo_images/choice_trial_1.png,images/demo_images/choice_trial_2.png,images/demo_images/pattern_1.png,f,f,3000.0,1.0,2.0,20.0,0.0,6.0,1.0,1.0,1.0,30.0,,,,,,63d3f99c57f6b09e77ce7c82,16:53:20,27/03/2024
html-keyboard-response,30,55792,0.0-13.0-1.0,,"<div style=""display: flex; flex-direction: column; align-items: center; margin-top: -40px;""><img src=""images/demo_images/pattern_1.png"" style=""width: 234px; height: 230px; margin-top: -50px;""><div style=""display: flex; justify-content: space-between; margin-top: 33px;""><img src=""images/demo_images/choice_trial_1.png"" style=""width: 408px; height: 417px; margin-right: 608px;""></div></div>",,delaylearn,learning,display_response,BMN4zMU9PwdgRSTOmX2osTnrKBC3,BMN4zMU9PwdgRSTOmX2osTnrKBC3,,,,,,,,,,,,,,,,,chosen stimuli: images/demo_images/choice_trial_1.png,,,,,63d3f99c57f6b09e77ce7c82,16:53:20,27/03/2024
html-keyboard-response,31,58799,0.0-13.0-2.0,,,,delaylearn,learning,feedback_duration_window,BMN4zMU9PwdgRSTOmX2osTnrKBC3,BMN4zMU9PwdgRSTOmX2osTnrKBC3,,,,,,,,,,,,,,,,,,3000.0,,,,63d3f99c57f6b09e77ce7c82,16:53:20,27/03/2024
html-keyboard-response,32,60307,0.0-13.0-3.0,,<div style='margin:auto;width: auto; font-size: 150%'><span style='font-weight: bold; font-size: 100px; color: green;'>+10 points!</span><br><br></div>,,delaylearn,learning,feedback_image_window,BMN4zMU9PwdgRSTOmX2osTnrKBC3,BMN4zMU9PwdgRSTOmX2osTnrKBC3,,,,,,,,,,,,,,,,,,,,,,63d3f99c57f6b09e77ce7c82,16:53:20,27/03/2024
html-keyboard-response,33,62455,0.0-14.0,,"<div style=""font-size:100px;"">+</div>",,delaylearn,learning,ITI,BMN4zMU9PwdgRSTOmX2osTnrKBC3,BMN4zMU9PwdgRSTOmX2osTnrKBC3,,,,,,,,,,,,,,,,,,,2145.0,,,63d3f99c57f6b09e77ce7c82,16:53:20,27/03/2024
html-keyboard-response,34,63354,0.0-15.0-0.0,895.0,"<div style=""display: flex; flex-direction: column; align-items: center; margin-top: -40px;""><img src=""images/demo_images/pattern_1.png"" style=""width: 234px; height: 230px; margin-top: -50px;""><div style=""display: flex; justify-content: space-between; margin-top: 33px;""><img src=""images/demo_images/choice_trial_2.png"" style=""width: 408px; height: 417px; margin-right: 200px;""><img src=""images/demo_images/choice_trial_1.png"" style=""width: 408px; height: 417px;""></div></div>",j,delaylearn,learning,trial,BMN4zMU9PwdgRSTOmX2osTnrKBC3,BMN4zMU9PwdgRSTOmX2osTnrKBC3,1.0,images/demo_images/choice_trial_2.png,images/demo_images/choice_trial_1.png,images/demo_images/pattern_1.png,j,j,3000.0,2.0,1.0,20.0,1.0,7.0,1.0,1.0,1.0,40.0,,,,,,63d3f99c57f6b09e77ce7c82,16:53:20,27/03/2024
html-keyboard-response,35,64414,0.0-15.0-1.0,,"<div style=""display: flex; flex-direction: column; align-items: center; margin-top: -40px;""><img src=""images/demo_images/pattern_1.png"" style=""width: 234px; height: 230px; margin-top: -50px;""><div style=""display: flex; justify-content: space-between; margin-top: 33px;""><img src=""images/demo_images/choice_trial_1.png"" style=""width: 408px; height: 417px; margin-left:608px;""></div></div>",,delaylearn,learning,display_response,BMN4zMU9PwdgRSTOmX2osTnrKBC3,BMN4zMU9PwdgRSTOmX2osTnrKBC3,,,,,,,,,,,,,,,,,chosen stimuli: images/demo_images/choice_trial_1.png,,,,,63d3f99c57f6b09e77ce7c82,16:53:20,27/03/2024
html-keyboard-response,36,67422,0.0-15.0-2.0,,,,delaylearn,learning,feedback_duration_window,BMN4zMU9PwdgRSTOmX2osTnrKBC3,BMN4zMU9PwdgRSTOmX2osTnrKBC3,,,,,,,,,,,,,,,,,,3000.0,,,,63d3f99c57f6b09e77ce7c82,16:53:20,27/03/2024
html-keyboard-response,37,68931,0.0-15.0-3.0,,<div style='margin:auto;width: auto; font-size: 150%'><span style='font-weight: bold; font-size: 100px; color: green;'>+10 points!</span><br><br></div>,,delaylearn,learning,feedback_image_window,BMN4zMU9PwdgRSTOmX2osTnrKBC3,BMN4zMU9PwdgRSTOmX2osTnrKBC3,,,,,,,,,,,,,,,,,,,,,,63d3f99c57f6b09e77ce7c82,16:53:20,27/03/2024
html-keyboard-response,38,71393,0.0-16.0,,"<div style=""font-size:100px;"">+</div>",,delaylearn,learning,ITI,BMN4zMU9PwdgRSTOmX2osTnrKBC3,BMN4zMU9PwdgRSTOmX2osTnrKBC3,,,,,,,,,,,,,,,,,,,2454.0,,,63d3f99c57f6b09e77ce7c82,16:53:20,27/03/2024
html-keyboard-response,39,72009,0.0-17.0-0.0,613.0,"<div style=""display: flex; flex-direction: column; align-items: center; margin-top: -40px;""><img src=""images/demo_images/pattern_1.png"" style=""width: 234px; height: 230px; margin-top: -50px;""><div style=""display: flex; justify-content: space-between; margin-top: 33px;""><img src=""images/demo_images/choice_trial_1.png"" style=""width: 408px; height: 417px; margin-right: 200px;""><img src=""images/demo_images/choice_trial_2.png"" style=""width: 408px; height: 417px;""></div></div>",f,delaylearn,learning,trial,BMN4zMU9PwdgRSTOmX2osTnrKBC3,BMN4zMU9PwdgRSTOmX2osTnrKBC3,1.0,images/demo_images/choice_trial_1.png,images/demo_images/choice_trial_2.png,images/demo_images/pattern_1.png,f,f,3000.0,1.0,2.0,20.0,0.0,8.0,1.0,1.0,1.0,50.0,,,,,,63d3f99c57f6b09e77ce7c82,16:53:20,27/03/2024
html-keyboard-response,40,73018,0.0-17.0-1.0,,"<div style=""display: flex; flex-direction: column; align-items: center; margin-top: -40px;""><img src=""images/demo_images/pattern_1.png"" style=""width: 234px; height: 230px; margin-top: -50px;""><div style=""display: flex; justify-content: space-between; margin-top: 33px;""><img src=""images/demo_images/choice_trial_1.png"" style=""width: 408px; height: 417px; margin-right: 608px;""></div></div>",,delaylearn,learning,display_response,BMN4zMU9PwdgRSTOmX2osTnrKBC3,BMN4zMU9PwdgRSTOmX2osTnrKBC3,,,,,,,,,,,,,,,,,chosen stimuli: images/demo_images/choice_trial_1.png,,,,,63d3f99c57f6b09e77ce7c82,16:53:20,27/03/2024
html-keyboard-response,41,76025,0.0-17.0-2.0,,,,delaylearn,learning,feedback_duration_window,BMN4zMU9PwdgRSTOmX2osTnrKBC3,BMN4zMU9PwdgRSTOmX2osTnrKBC3,,,,,,,,,,,,,,,,,,3000.0,,,,63d3f99c57f6b09e77ce7c82,16:53:20,27/03/2024
html-keyboard-response,42,77534,0.0-17.0-3.0,,<div style='margin:auto;width: auto; font-size: 150%'><span style='font-weight: bold; font-size: 100px; color: green;'>+10 points!</span><br><br></div>,,delaylearn,learning,feedback_image_window,BMN4zMU9PwdgRSTOmX2osTnrKBC3,BMN4zMU9PwdgRSTOmX2osTnrKBC3,,,,,,,,,,,,,,,,,,,,,,63d3f99c57f6b09e77ce7c82,16:53:20,27/03/2024
html-button-response,43,80033,0.0-18.0,2497.0,"
  <div style=""display: flex; align-items: center; justify-content: center; height: 80vh;"">
  <div>
          <img src=""images/inst_demo_finish.png"" style=""width: 80vw; height:auto;"">
          <br><br>
      </div>
      <br><br>
  </div>",0,,,,BMN4zMU9PwdgRSTOmX2osTnrKBC3,,,,,,,,,,,,,,,,,,,,,,,63d3f99c57f6b09e77ce7c82,16:53:20,27/03/2024
html-keyboard-response,44,85097,0.0-19.0,5059.0,"
  <div style=""display: flex; align-items: center; justify-content: center; height: 80vh;"">
  <div>
          <img src=""images/inst_6.png"" style=""width: 80vw; height:auto;"">
          <br><br>
      </div>
      <br><br>
  </div>",f,,,,BMN4zMU9PwdgRSTOmX2osTnrKBC3,,,,,,,,,,,,,,,,,,,,,,,63d3f99c57f6b09e77ce7c82,16:53:20,27/03/2024
html-keyboard-response,45,88105,0.0-20.0,,"<div style=""font-size:100px;"">+</div>",,delaylearn,learning,pre_fixation,BMN4zMU9PwdgRSTOmX2osTnrKBC3,,,,,,,,,,,,,,,,,,,,,,,63d3f99c57f6b09e77ce7c82,16:53:20,27/03/2024
html-keyboard-response,46,89909,0.0-21.0,,"<div style=""font-size:100px;"">+</div>",,delaylearn,learning,ITI,BMN4zMU9PwdgRSTOmX2osTnrKBC3,BMN4zMU9PwdgRSTOmX2osTnrKBC3,,,,,,,,,,,,,,,,,,,1794.0,,,63d3f99c57f6b09e77ce7c82,16:53:20,27/03/2024
html-keyboard-response,47,91714,0.0-22.0-0.0,1799.0,"<div style=""display: flex; flex-direction: column; align-items: center; margin-top: -40px;""><img src=""images/pattern_3.png"" style=""width: 234px; height: 230px; margin-top: -50px;""><div style=""display: flex; justify-content: space-between; margin-top: 33px;""><img src=""images/choice_trial_5.png"" style=""width: 408px; height: 417px; margin-right: 200px;""><img src=""images/choice_trial_6.png"" style=""width: 408px; height: 417px;""></div></div>",j,delaylearn,learning,trial,BMN4zMU9PwdgRSTOmX2osTnrKBC3,BMN4zMU9PwdgRSTOmX2osTnrKBC3,1.0,images/choice_trial_5.png,images/choice_trial_6.png,images/pattern_3.png,f,f,7000.0,5.0,6.0,2.0,0.0,9.0,0.0,0.0,6.0,50.0,,,,,,63d3f99c57f6b09e77ce7c82,16:53:20,27/03/2024
html-keyboard-response,48,92722,0.0-22.0-1.0,,"<div style=""display: flex; flex-direction: column; align-items: center; margin-top: -40px;""><img src=""images/pattern_3.png"" style=""width: 234px; height: 230px; margin-top: -50px;""><div style=""display: flex; justify-content: space-between; margin-top: 33px;""><img src=""images/choice_trial_6.png"" style=""width: 408px; height: 417px; margin-left:608px;""></div></div>",,delaylearn,learning,display_response,BMN4zMU9PwdgRSTOmX2osTnrKBC3,BMN4zMU9PwdgRSTOmX2osTnrKBC3,,,,,,,,,,,,,,,,,chosen stimuli: images/choice_trial_6.png,,,,,63d3f99c57f6b09e77ce7c82,16:53:20,27/03/2024
html-keyboard-response,49,99729,0.0-22.0-2.0,,,,delaylearn,learning,feedback_duration_window,BMN4zMU9PwdgRSTOmX2osTnrKBC3,BMN4zMU9PwdgRSTOmX2osTnrKBC3,,,,,,,,,,,,,,,,,,7000.0,,,,63d3f99c57f6b09e77ce7c82,16:53:20,27/03/2024
html-keyboard-response,50,101239,0.0-22.0-3.0,,<div style='margin:auto;width: auto; font-size: 150%'><span style='font-weight: bold; font-size: 100px; color: red;'>0 points!</span><br><br></div>,,delaylearn,learning,feedback_image_window,BMN4zMU9PwdgRSTOmX2osTnrKBC3,BMN4zMU9PwdgRSTOmX2osTnrKBC3,,,,,,,,,,,,,,,,,,,,,,63d3f99c57f6b09e77ce7c82,16:53:20,27/03/2024
html-keyboard-response,51,103049,0.0-23.0,,"<div style=""font-size:100px;"">+</div>",,delaylearn,learning,ITI,BMN4zMU9PwdgRSTOmX2osTnrKBC3,BMN4zMU9PwdgRSTOmX2osTnrKBC3,,,,,,,,,,,,,,,,,,,1808.0,,,63d3f99c57f6b09e77ce7c82,16:53:20,27/03/2024
html-keyboard-response,52,105219,0.0-24.0-0.0,2164.0,"<div style=""display: flex; flex-direction: column; align-items: center; margin-top: -40px;""><img src=""images/pattern_7.png"" style=""width: 234px; height: 230px; margin-top: -50px;""><div style=""display: flex; justify-content: space-between; margin-top: 33px;""><img src=""images/choice_trial_14.png"" style=""width: 408px; height: 417px; margin-right: 200px;""><img src=""images/choice_trial_13.png"" style=""width: 408px; height: 417px;""></div></div>",j,delaylearn,learning,trial,BMN4zMU9PwdgRSTOmX2osTnrKBC3,BMN4zMU9PwdgRSTOmX2osTnrKBC3,1.0,images/choice_trial_14.png,images/choice_trial_13.png,images/pattern_7.png,j,j,750.0,14.0,13.0,6.0,1.0,10.0,1.0,1.0,13.0,60.0,,,,,,63d3f99c57f6b09e77ce7c82,16:53:20,27/03/2024
html-keyboard-response,53,106227,0.0-24.0-1.0,,"<div style=""display: flex; flex-direction: column; align-items: center; margin-top: -40px;""><img src=""images/pattern_7.png"" style=""width: 234px; height: 230px; margin-top: -50px;""><div style=""display: flex; justify-content: space-between; margin-top: 33px;""><img src=""images/choice_trial_13.png"" style=""width: 408px; height: 417px; margin-left:608px;""></div></div>",,delaylearn,learning,display_response,BMN4zMU9PwdgRSTOmX2osTnrKBC3,BMN4zMU9PwdgRSTOmX2osTnrKBC3,,,,,,,,,,,,,,,,,chosen stimuli: images/choice_trial_13.png,,,,,63d3f99c57f6b09e77ce7c82,16:53:20,27/03/2024
html-keyboard-response,54,106983,0.0-24.0-2.0,,,,delaylearn,learning,feedback_duration_window,BMN4zMU9PwdgRSTOmX2osTnrKBC3,BMN4zMU9PwdgRSTOmX2osTnrKBC3,,,,,,,,,,,,,,,,,,750.0,,,,63d3f99c57f6b09e77ce7c82,16:53:20,27/03/2024
html-keyboard-response,55,108490,0.0-24.0-3.0,,<div style='margin:auto;width: auto; font-size: 150%'><span style='font-weight: bold; font-size: 100px; color: green;'>+10 points!</span><br><br></div>,,delaylearn,learning,feedback_image_window,BMN4zMU9PwdgRSTOmX2osTnrKBC3,BMN4zMU9PwdgRSTOmX2osTnrKBC3,,,,,,,,,,,,,,,,,,,,,,63d3f99c57f6b09e77ce7c82,16:53:20,27/03/2024
html-keyboard-response,56,110511,0.0-25.0,,"<div style=""font-size:100px;"">+</div>",,delaylearn,learning,ITI,BMN4zMU9PwdgRSTOmX2osTnrKBC3,BMN4zMU9PwdgRSTOmX2osTnrKBC3,,,,,,,,,,,,,,,,,,,2014.0,,,63d3f99c57f6b09e77ce7c82,16:53:20,27/03/2024
html-keyboard-response,57,112326,0.0-26.0-0.0,1810.0,"<div style=""display: flex; flex-direction: column; align-items: center; margin-top: -40px;""><img src=""images/pattern_4.png"" style=""width: 234px; height: 230px; margin-top: -50px;""><div style=""display: flex; justify-content: space-between; margin-top: 33px;""><img src=""images/choice_trial_7.png"" style=""width: 408px; height: 417px; margin-right: 200px;""><img src=""images/choice_trial_8.png"" style=""width: 408px; height: 417px;""></div></div>",f,delaylearn,learning,trial,BMN4zMU9PwdgRSTOmX2osTnrKBC3,BMN4zMU9PwdgRSTOmX2osTnrKBC3,1.0,images/choice_trial_7.png,images/choice_trial_8.png,images/pattern_4.png,f,f,7000.0,7.0,8.0,3.0,0.0,11.0,1.0,1.0,7.0,70.0,,,,,,63d3f99c57f6b09e77ce7c82,16:53:20,27/03/2024
html-keyboard-response,58,113334,0.0-26.0-1.0,,"<div style=""display: flex; flex-direction: column; align-items: center; margin-top: -40px;""><img src=""images/pattern_4.png"" style=""width: 234px; height: 230px; margin-top: -50px;""><div style=""display: flex; justify-content: space-between; margin-top: 33px;""><img src=""images/choice_trial_7.png"" style=""width: 408px; height: 417px; margin-right: 608px;""></div></div>",,delaylearn,learning,display_response,BMN4zMU9PwdgRSTOmX2osTnrKBC3,BMN4zMU9PwdgRSTOmX2osTnrKBC3,,,,,,,,,,,,,,,,,chosen stimuli: images/choice_trial_7.png,,,,,63d3f99c57f6b09e77ce7c82,16:53:20,27/03/2024
html-keyboard-response,59,120342,0.0-26.0-2.0,,,,delaylearn,learning,feedback_duration_window,BMN4zMU9PwdgRSTOmX2osTnrKBC3,BMN4zMU9PwdgRSTOmX2osTnrKBC3,,,,,,,,,,,,,,,,,,7000.0,,,,63d3f99c57f6b09e77ce7c82,16:53:20,27/03/2024
html-keyboard-response,60,121850,0.0-26.0-3.0,,<div style='margin:auto;width: auto; font-size: 150%'><span style='font-weight: bold; font-size: 100px; color: green;'>+10 points!</span><br><br></div>,,delaylearn,learning,feedback_image_window,BMN4zMU9PwdgRSTOmX2osTnrKBC3,BMN4zMU9PwdgRSTOmX2osTnrKBC3,,,,,,,,,,,,,,,,,,,,,,63d3f99c57f6b09e77ce7c82,16:53:20,27/03/2024
html-keyboard-response,61,124347,0.0-27.0,,"<div style=""font-size:100px;"">+</div>",,delaylearn,learning,ITI,BMN4zMU9PwdgRSTOmX2osTnrKBC3,BMN4zMU9PwdgRSTOmX2osTnrKBC3,,,,,,,,,,,,,,,,,,,2491.0,,,63d3f99c57f6b09e77ce7c82,16:53:20,27/03/2024
html-keyboard-response,62,126610,0.0-28.0-0.0,2258.0,"<div style=""display: flex; flex-direction: column; align-items: center; margin-top: -40px;""><img src=""images/pattern_5.png"" style=""width: 234px; height: 230px; margin-top: -50px;""><div style=""display: flex; justify-content: space-between; margin-top: 33px;""><img src=""images/choice_trial_10.png"" style=""width: 408px; height: 417px; margin-right: 200px;""><img src=""images/choice_trial_9.png"" style=""width: 408px; height: 417px;""></div></div>",j,delaylearn,learning,trial,BMN4zMU9PwdgRSTOmX2osTnrKBC3,BMN4zMU9PwdgRSTOmX2osTnrKBC3,1.0,images/choice_trial_10.png,images/choice_trial_9.png,images/pattern_5.png,j,j,750.0,10.0,9.0,4.0,1.0,12.0,1.0,1.0,9.0,80.0,,,,,,63d3f99c57f6b09e77ce7c82,16:53:20,27/03/2024
html-keyboard-response,63,127616,0.0-28.0-1.0,,"<div style=""display: flex; flex-direction: column; align-items: center; margin-top: -40px;""><img src=""images/pattern_5.png"" style=""width: 234px; height: 230px; margin-top: -50px;""><div style=""display: flex; justify-content: space-between; margin-top: 33px;""><img src=""images/choice_trial_9.png"" style=""width: 408px; height: 417px; margin-left:608px;""></div></div>",,delaylearn,learning,display_response,BMN4zMU9PwdgRSTOmX2osTnrKBC3,BMN4zMU9PwdgRSTOmX2osTnrKBC3,,,,,,,,,,,,,,,,,chosen stimuli: images/choice_trial_9.png,,,,,63d3f99c57f6b09e77ce7c82,16:53:20,27/03/2024
html-keyboard-response,64,128424,0.0-28.0-2.0,,,,delaylearn,learning,feedback_duration_window,BMN4zMU9PwdgRSTOmX2osTnrKBC3,BMN4zMU9PwdgRSTOmX2osTnrKBC3,,,,,,,,,,,,,,,,,,750.0,,,,63d3f99c57f6b09e77ce7c82,16:53:20,27/03/2024
html-keyboard-response,65,129931,0.0-28.0-3.0,,<div style='margin:auto;width: auto; font-size: 150%'><span style='font-weight: bold; font-size: 100px; color: green;'>+10 points!</span><br><br></div>,,delaylearn,learning,feedback_image_window,BMN4zMU9PwdgRSTOmX2osTnrKBC3,BMN4zMU9PwdgRSTOmX2osTnrKBC3,,,,,,,,,,,,,,,,,,,,,,63d3f99c57f6b09e77ce7c82,16:53:20,27/03/2024
html-keyboard-response,66,131853,0.0-29.0,,"<div style=""font-size:100px;"">+</div>",,delaylearn,learning,ITI,BMN4zMU9PwdgRSTOmX2osTnrKBC3,BMN4zMU9PwdgRSTOmX2osTnrKBC3,,,,,,,,,,,,,,,,,,,1916.0,,,63d3f99c57f6b09e77ce7c82,16:53:20,27/03/2024
html-keyboard-response,67,133562,0.0-30.0-0.0,1704.0,"<div style=""display: flex; flex-direction: column; align-items: center; margin-top: -40px;""><img src=""images/pattern_6.png"" style=""width: 234px; height: 230px; margin-top: -50px;""><div style=""display: flex; justify-content: space-between; margin-top: 33px;""><img src=""images/choice_trial_11.png"" style=""width: 408px; height: 417px; margin-right: 200px;""><img src=""images/choice_trial_12.png"" style=""width: 408px; height: 417px;""></div></div>",f,delaylearn,learning,trial,BMN4zMU9PwdgRSTOmX2osTnrKBC3,BMN4zMU9PwdgRSTOmX2osTnrKBC3,1.0,images/choice_trial_11.png,images/choice_trial_12.png,images/pattern_6.png,j,f,750.0,11.0,12.0,5.0,0.0,13.0,1.0,0.0,11.0,80.0,,,,,,63d3f99c57f6b09e77ce7c82,16:53:20,27/03/2024
html-keyboard-response,68,134567,0.0-30.0-1.0,,"<div style=""display: flex; flex-direction: column; align-items: center; margin-top: -40px;""><img src=""images/pattern_6.png"" style=""width: 234px; height: 230px; margin-top: -50px;""><div style=""display: flex; justify-content: space-between; margin-top: 33px;""><img src=""images/choice_trial_11.png"" style=""width: 408px; height: 417px; margin-right: 608px;""></div></div>",,delaylearn,learning,display_response,BMN4zMU9PwdgRSTOmX2osTnrKBC3,BMN4zMU9PwdgRSTOmX2osTnrKBC3,,,,,,,,,,,,,,,,,chosen stimuli: images/choice_trial_11.png,,,,,63d3f99c57f6b09e77ce7c82,16:53:20,27/03/2024
html-keyboard-response,69,135366,0.0-30.0-2.0,,,,delaylearn,learning,feedback_duration_window,BMN4zMU9PwdgRSTOmX2osTnrKBC3,BMN4zMU9PwdgRSTOmX2osTnrKBC3,,,,,,,,,,,,,,,,,,750.0,,,,63d3f99c57f6b09e77ce7c82,16:53:20,27/03/2024
html-keyboard-response,70,136873,0.0-30.0-3.0,,<div style='margin:auto;width: auto; font-size: 150%'><span style='font-weight: bold; font-size: 100px; color: red;'>0 points!</span><br><br></div>,,delaylearn,learning,feedback_image_window,BMN4zMU9PwdgRSTOmX2osTnrKBC3,BMN4zMU9PwdgRSTOmX2osTnrKBC3,,,,,,,,,,,,,,,,,,,,,,63d3f99c57f6b09e77ce7c82,16:53:20,27/03/2024
html-keyboard-response,71,137382,0.0-31.0-0.0,,,,,,mood_trial_fixation,BMN4zMU9PwdgRSTOmX2osTnrKBC3,,,,,,,,,,,,,,,,,,,,,,,63d3f99c57f6b09e77ce7c82,16:53:20,27/03/2024
lmdlab-html-vas-response,72,141479,0.0-31.0-1.0,3087.0,How happy are you right now?,0.27414330218068533,delaylearn,learning,mood_trial,BMN4zMU9PwdgRSTOmX2osTnrKBC3,BMN4zMU9PwdgRSTOmX2osTnrKBC3,,,,,,,,,,,,,,,,,,,,"['Very unhappy', 'Very happy']",,63d3f99c57f6b09e77ce7c82,16:53:20,27/03/2024
html-keyboard-response,73,143463,0.0-32.0,,"<div style=""font-size:100px;"">+</div>",,delaylearn,learning,ITI,BMN4zMU9PwdgRSTOmX2osTnrKBC3,BMN4zMU9PwdgRSTOmX2osTnrKBC3,,,,,,,,,,,,,,,,,,,1976.0,,,63d3f99c57f6b09e77ce7c82,16:53:20,27/03/2024
html-keyboard-response,74,145249,0.0-33.0-0.0,1779.0,"<div style=""display: flex; flex-direction: column; align-items: center; margin-top: -40px;""><img src=""images/pattern_1.png"" style=""width: 234px; height: 230px; margin-top: -50px;""><div style=""display: flex; justify-content: space-between; margin-top: 33px;""><img src=""images/choice_trial_2.png"" style=""width: 408px; height: 417px; margin-right: 200px;""><img src=""images/choice_trial_1.png"" style=""width: 408px; height: 417px;""></div></div>",f,delaylearn,learning,trial,BMN4zMU9PwdgRSTOmX2osTnrKBC3,BMN4zMU9PwdgRSTOmX2osTnrKBC3,1.0,images/choice_trial_2.png,images/choice_trial_1.png,images/pattern_1.png,j,j,7000.0,2.0,1.0,1.0,1.0,14.0,0.0,0.0,2.0,80.0,,,,,,63d3f99c57f6b09e77ce7c82,16:53:20,27/03/2024
html-keyboard-response,75,146255,0.0-33.0-1.0,,"<div style=""display: flex; flex-direction: column; align-items: center; margin-top: -40px;""><img src=""images/pattern_1.png"" style=""width: 234px; height: 230px; margin-top: -50px;""><div style=""display: flex; justify-content: space-between; margin-top: 33px;""><img src=""images/choice_trial_2.png"" style=""width: 408px; height: 417px; margin-right: 608px;""></div></div>",,delaylearn,learning,display_response,BMN4zMU9PwdgRSTOmX2osTnrKBC3,BMN4zMU9PwdgRSTOmX2osTnrKBC3,,,,,,,,,,,,,,,,,chosen stimuli: images/choice_trial_2.png,,,,,63d3f99c57f6b09e77ce7c82,16:53:20,27/03/2024
html-keyboard-response,76,153259,0.0-33.0-2.0,,,,delaylearn,learning,feedback_duration_window,BMN4zMU9PwdgRSTOmX2osTnrKBC3,BMN4zMU9PwdgRSTOmX2osTnrKBC3,,,,,,,,,,,,,,,,,,7000.0,,,,63d3f99c57f6b09e77ce7c82,16:53:20,27/03/2024
html-keyboard-response,77,154768,0.0-33.0-3.0,,<div style='margin:auto;width: auto; font-size: 150%'><span style='font-weight: bold; font-size: 100px; color: red;'>0 points!</span><br><br></div>,,delaylearn,learning,feedback_image_window,BMN4zMU9PwdgRSTOmX2osTnrKBC3,BMN4zMU9PwdgRSTOmX2osTnrKBC3,,,,,,,,,,,,,,,,,,,,,,63d3f99c57f6b09e77ce7c82,16:53:20,27/03/2024
html-keyboard-response,78,157019,0.0-34.0,,"<div style=""font-size:100px;"">+</div>",,delaylearn,learning,ITI,BMN4zMU9PwdgRSTOmX2osTnrKBC3,BMN4zMU9PwdgRSTOmX2osTnrKBC3,,,,,,,,,,,,,,,,,,,2243.0,,,63d3f99c57f6b09e77ce7c82,16:53:20,27/03/2024
html-keyboard-response,79,158846,0.0-35.0-0.0,1822.0,"<div style=""display: flex; flex-direction: column; align-items: center; margin-top: -40px;""><img src=""images/pattern_3.png"" style=""width: 234px; height: 230px; margin-top: -50px;""><div style=""display: flex; justify-content: space-between; margin-top: 33px;""><img src=""images/choice_trial_6.png"" style=""width: 408px; height: 417px; margin-right: 200px;""><img src=""images/choice_trial_5.png"" style=""width: 408px; height: 417px;""></div></div>",j,delaylearn,learning,trial,BMN4zMU9PwdgRSTOmX2osTnrKBC3,BMN4zMU9PwdgRSTOmX2osTnrKBC3,1.0,images/choice_trial_6.png,images/choice_trial_5.png,images/pattern_3.png,f,j,7000.0,6.0,5.0,2.0,1.0,15.0,1.0,0.0,5.0,80.0,,,,,,63d3f99c57f6b09e77ce7c82,16:53:20,27/03/2024
html-keyboard-response,80,159854,0.0-35.0-1.0,,"<div style=""display: flex; flex-direction: column; align-items: center; margin-top: -40px;""><img src=""images/pattern_3.png"" style=""width: 234px; height: 230px; margin-top: -50px;""><div style=""display: flex; justify-content: space-between; margin-top: 33px;""><img src=""images/choice_trial_5.png"" style=""width: 408px; height: 417px; margin-left:608px;""></div></div>",,delaylearn,learning,display_response,BMN4zMU9PwdgRSTOmX2osTnrKBC3,BMN4zMU9PwdgRSTOmX2osTnrKBC3,,,,,,,,,,,,,,,,,chosen stimuli: images/choice_trial_5.png,,,,,63d3f99c57f6b09e77ce7c82,16:53:20,27/03/2024
html-keyboard-response,81,166857,0.0-35.0-2.0,,,,delaylearn,learning,feedback_duration_window,BMN4zMU9PwdgRSTOmX2osTnrKBC3,BMN4zMU9PwdgRSTOmX2osTnrKBC3,,,,,,,,,,,,,,,,,,7000.0,,,,63d3f99c57f6b09e77ce7c82,16:53:20,27/03/2024
html-keyboard-response,82,168363,0.0-35.0-3.0,,<div style='margin:auto;width: auto; font-size: 150%'><span style='font-weight: bold; font-size: 100px; color: red;'>0 points!</span><br><br></div>,,delaylearn,learning,feedback_image_window,BMN4zMU9PwdgRSTOmX2osTnrKBC3,BMN4zMU9PwdgRSTOmX2osTnrKBC3,,,,,,,,,,,,,,,,,,,,,,63d3f99c57f6b09e77ce7c82,16:53:20,27/03/2024
html-keyboard-response,83,170429,0.0-36.0,,"<div style=""font-size:100px;"">+</div>",,delaylearn,learning,ITI,BMN4zMU9PwdgRSTOmX2osTnrKBC3,BMN4zMU9PwdgRSTOmX2osTnrKBC3,,,,,,,,,,,,,,,,,,,2058.0,,,63d3f99c57f6b09e77ce7c82,16:53:20,27/03/2024
html-keyboard-response,84,171750,0.0-37.0-0.0,1316.0,"<div style=""display: flex; flex-direction: column; align-items: center; margin-top: -40px;""><img src=""images/pattern_5.png"" style=""width: 234px; height: 230px; margin-top: -50px;""><div style=""display: flex; justify-content: space-between; margin-top: 33px;""><img src=""images/choice_trial_9.png"" style=""width: 408px; height: 417px; margin-right: 200px;""><img src=""images/choice_trial_10.png"" style=""width: 408px; height: 417px;""></div></div>",f,delaylearn,learning,trial,BMN4zMU9PwdgRSTOmX2osTnrKBC3,BMN4zMU9PwdgRSTOmX2osTnrKBC3,1.0,images/choice_trial_9.png,images/choice_trial_10.png,images/pattern_5.png,f,f,750.0,9.0,10.0,4.0,0.0,16.0,1.0,1.0,9.0,90.0,,,,,,63d3f99c57f6b09e77ce7c82,16:53:20,27/03/2024
html-keyboard-response,85,172754,0.0-37.0-1.0,,"<div style=""display: flex; flex-direction: column; align-items: center; margin-top: -40px;""><img src=""images/pattern_5.png"" style=""width: 234px; height: 230px; margin-top: -50px;""><div style=""display: flex; justify-content: space-between; margin-top: 33px;""><img src=""images/choice_trial_9.png"" style=""width: 408px; height: 417px; margin-right: 608px;""></div></div>",,delaylearn,learning,display_response,BMN4zMU9PwdgRSTOmX2osTnrKBC3,BMN4zMU9PwdgRSTOmX2osTnrKBC3,,,,,,,,,,,,,,,,,chosen stimuli: images/choice_trial_9.png,,,,,63d3f99c57f6b09e77ce7c82,16:53:20,27/03/2024
html-keyboard-response,86,173512,0.0-37.0-2.0,,,,delaylearn,learning,feedback_duration_window,BMN4zMU9PwdgRSTOmX2osTnrKBC3,BMN4zMU9PwdgRSTOmX2osTnrKBC3,,,,,,,,,,,,,,,,,,750.0,,,,63d3f99c57f6b09e77ce7c82,16:53:20,27/03/2024
html-keyboard-response,87,175018,0.0-37.0-3.0,,<div style='margin:auto;width: auto; font-size: 150%'><span style='font-weight: bold; font-size: 100px; color: green;'>+10 points!</span><br><br></div>,,delaylearn,learning,feedback_image_window,BMN4zMU9PwdgRSTOmX2osTnrKBC3,BMN4zMU9PwdgRSTOmX2osTnrKBC3,,,,,,,,,,,,,,,,,,,,,,63d3f99c57f6b09e77ce7c82,16:53:20,27/03/2024
html-keyboard-response,88,175526,0.0-38.0-0.0,,,,,,mood_trial_fixation,BMN4zMU9PwdgRSTOmX2osTnrKBC3,,,,,,,,,,,,,,,,,,,,,,,63d3f99c57f6b09e77ce7c82,16:53:20,27/03/2024
lmdlab-html-vas-response,89,179595,0.0-38.0-1.0,3059.0,How happy are you right now?,0.32710280373831774,delaylearn,learning,mood_trial,BMN4zMU9PwdgRSTOmX2osTnrKBC3,BMN4zMU9PwdgRSTOmX2osTnrKBC3,,,,,,,,,,,,,,,,,,,,"['Very unhappy', 'Very happy']",,63d3f99c57f6b09e77ce7c82,16:53:20,27/03/2024
html-keyboard-response,90,181783,0.0-39.0,,"<div style=""font-size:100px;"">+</div>",,delaylearn,learning,ITI,BMN4zMU9PwdgRSTOmX2osTnrKBC3,BMN4zMU9PwdgRSTOmX2osTnrKBC3,,,,,,,,,,,,,,,,,,,2180.0,,,63d3f99c57f6b09e77ce7c82,16:53:20,27/03/2024
html-keyboard-response,91,183613,0.0-40.0-0.0,1823.0,"<div style=""display: flex; flex-direction: column; align-items: center; margin-top: -40px;""><img src=""images/pattern_6.png"" style=""width: 234px; height: 230px; margin-top: -50px;""><div style=""display: flex; justify-content: space-between; margin-top: 33px;""><img src=""images/choice_trial_11.png"" style=""width: 408px; height: 417px; margin-right: 200px;""><img src=""images/choice_trial_12.png"" style=""width: 408px; height: 417px;""></div></div>",j,delaylearn,learning,trial,BMN4zMU9PwdgRSTOmX2osTnrKBC3,BMN4zMU9PwdgRSTOmX2osTnrKBC3,1.0,images/choice_trial_11.png,images/choice_trial_12.png,images/pattern_6.png,f,f,750.0,11.0,12.0,5.0,0.0,17.0,0.0,0.0,12.0,90.0,,,,,,63d3f99c57f6b09e77ce7c82,16:53:20,27/03/2024
html-keyboard-response,92,184621,0.0-40.0-1.0,,"<div style=""display: flex; flex-direction: column; align-items: center; margin-top: -40px;""><img src=""images/pattern_6.png"" style=""width: 234px; height: 230px; margin-top: -50px;""><div style=""display: flex; justify-content: space-between; margin-top: 33px;""><img src=""images/choice_trial_12.png"" style=""width: 408px; height: 417px; margin-left:608px;""></div></div>",,delaylearn,learning,display_response,BMN4zMU9PwdgRSTOmX2osTnrKBC3,BMN4zMU9PwdgRSTOmX2osTnrKBC3,,,,,,,,,,,,,,,,,chosen stimuli: images/choice_trial_12.png,,,,,63d3f99c57f6b09e77ce7c82,16:53:20,27/03/2024
html-keyboard-response,93,185377,0.0-40.0-2.0,,,,delaylearn,learning,feedback_duration_window,BMN4zMU9PwdgRSTOmX2osTnrKBC3,BMN4zMU9PwdgRSTOmX2osTnrKBC3,,,,,,,,,,,,,,,,,,750.0,,,,63d3f99c57f6b09e77ce7c82,16:53:20,27/03/2024
html-keyboard-response,94,186883,0.0-40.0-3.0,,<div style='margin:auto;width: auto; font-size: 150%'><span style='font-weight: bold; font-size: 100px; color: red;'>0 points!</span><br><br></div>,,delaylearn,learning,feedback_image_window,BMN4zMU9PwdgRSTOmX2osTnrKBC3,BMN4zMU9PwdgRSTOmX2osTnrKBC3,,,,,,,,,,,,,,,,,,,,,,63d3f99c57f6b09e77ce7c82,16:53:20,27/03/2024
html-keyboard-response,95,189151,0.0-41.0,,"<div style=""font-size:100px;"">+</div>",,delaylearn,learning,ITI,BMN4zMU9PwdgRSTOmX2osTnrKBC3,BMN4zMU9PwdgRSTOmX2osTnrKBC3,,,,,,,,,,,,,,,,,,,2261.0,,,63d3f99c57f6b09e77ce7c82,16:53:20,27/03/2024
html-keyboard-response,96,190517,0.0-42.0-0.0,1361.0,"<div style=""display: flex; flex-direction: column; align-items: center; margin-top: -40px;""><img src=""images/pattern_4.png"" style=""width: 234px; height: 230px; margin-top: -50px;""><div style=""display: flex; justify-content: space-between; margin-top: 33px;""><img src=""images/choice_trial_8.png"" style=""width: 408px; height: 417px; margin-right: 200px;""><img src=""images/choice_trial_7.png"" style=""width: 408px; height: 417px;""></div></div>",j,delaylearn,learning,trial,BMN4zMU9PwdgRSTOmX2osTnrKBC3,BMN4zMU9PwdgRSTOmX2osTnrKBC3,1.0,images/choice_trial_8.png,images/choice_trial_7.png,images/pattern_4.png,j,j,7000.0,8.0,7.0,3.0,1.0,18.0,1.0,1.0,7.0,100.0,,,,,,63d3f99c57f6b09e77ce7c82,16:53:20,27/03/2024
html-keyboard-response,97,191526,0.0-42.0-1.0,,"<div style=""display: flex; flex-direction: column; align-items: center; margin-top: -40px;""><img src=""images/pattern_4.png"" style=""width: 234px; height: 230px; margin-top: -50px;""><div style=""display: flex; justify-content: space-between; margin-top: 33px;""><img src=""images/choice_trial_7.png"" style=""width: 408px; height: 417px; margin-left:608px;""></div></div>",,delaylearn,learning,display_response,BMN4zMU9PwdgRSTOmX2osTnrKBC3,BMN4zMU9PwdgRSTOmX2osTnrKBC3,,,,,,,,,,,,,,,,,chosen stimuli: images/choice_trial_7.png,,,,,63d3f99c57f6b09e77ce7c82,16:53:20,27/03/2024
html-keyboard-response,98,198528,0.0-42.0-2.0,,,,delaylearn,learning,feedback_duration_window,BMN4zMU9PwdgRSTOmX2osTnrKBC3,BMN4zMU9PwdgRSTOmX2osTnrKBC3,,,,,,,,,,,,,,,,,,7000.0,,,,63d3f99c57f6b09e77ce7c82,16:53:20,27/03/2024
html-keyboard-response,99,200033,0.0-42.0-3.0,,<div style='margin:auto;width: auto; font-size: 150%'><span style='font-weight: bold; font-size: 100px; color: green;'>+10 points!</span><br><br></div>,,delaylearn,learning,feedback_image_window,BMN4zMU9PwdgRSTOmX2osTnrKBC3,BMN4zMU9PwdgRSTOmX2osTnrKBC3,,,,,,,,,,,,,,,,,,,,,,63d3f99c57f6b09e77ce7c82,16:53:20,27/03/2024
html-keyboard-response,100,201681,0.0-43.0,,"<div style=""font-size:100px;"">+</div>",,delaylearn,learning,ITI,BMN4zMU9PwdgRSTOmX2osTnrKBC3,BMN4zMU9PwdgRSTOmX2osTnrKBC3,,,,,,,,,,,,,,,,,,,1641.0,,,63d3f99c57f6b09e77ce7c82,16:53:20,27/03/2024
html-keyboard-response,101,203018,0.0-44.0-0.0,1331.0,"<div style=""display: flex; flex-direction: column; align-items: center; margin-top: -40px;""><img src=""images/pattern_7.png"" style=""width: 234px; height: 230px; margin-top: -50px;""><div style=""display: flex; justify-content: space-between; margin-top: 33px;""><img src=""images/choice_trial_13.png"" style=""width: 408px; height: 417px; margin-right: 200px;""><img src=""images/choice_trial_14.png"" style=""width: 408px; height: 417px;""></div></div>",f,delaylearn,learning,trial,BMN4zMU9PwdgRSTOmX2osTnrKBC3,BMN4zMU9PwdgRSTOmX2osTnrKBC3,1.0,images/choice_trial_13.png,images/choice_trial_14.png,images/pattern_7.png,j,f,750.0,13.0,14.0,6.0,0.0,19.0,1.0,0.0,13.0,100.0,,,,,,63d3f99c57f6b09e77ce7c82,16:53:20,27/03/2024
html-keyboard-response,102,204025,0.0-44.0-1.0,,"<div style=""display: flex; flex-direction: column; align-items: center; margin-top: -40px;""><img src=""images/pattern_7.png"" style=""width: 234px; height: 230px; margin-top: -50px;""><div style=""display: flex; justify-content: space-between; margin-top: 33px;""><img src=""images/choice_trial_13.png"" style=""width: 408px; height: 417px; margin-right: 608px;""></div></div>",,delaylearn,learning,display_response,BMN4zMU9PwdgRSTOmX2osTnrKBC3,BMN4zMU9PwdgRSTOmX2osTnrKBC3,,,,,,,,,,,,,,,,,chosen stimuli: images/choice_trial_13.png,,,,,63d3f99c57f6b09e77ce7c82,16:53:20,27/03/2024
html-keyboard-response,103,204782,0.0-44.0-2.0,,,,delaylearn,learning,feedback_duration_window,BMN4zMU9PwdgRSTOmX2osTnrKBC3,BMN4zMU9PwdgRSTOmX2osTnrKBC3,,,,,,,,,,,,,,,,,,750.0,,,,63d3f99c57f6b09e77ce7c82,16:53:20,27/03/2024
html-keyboard-response,104,206288,0.0-44.0-3.0,,<div style='margin:auto;width: auto; font-size: 150%'><span style='font-weight: bold; font-size: 100px; color: red;'>0 points!</span><br><br></div>,,delaylearn,learning,feedback_image_window,BMN4zMU9PwdgRSTOmX2osTnrKBC3,BMN4zMU9PwdgRSTOmX2osTnrKBC3,,,,,,,,,,,,,,,,,,,,,,63d3f99c57f6b09e77ce7c82,16:53:20,27/03/2024
html-keyboard-response,105,208549,0.0-45.0,,"<div style=""font-size:100px;"">+</div>",,delaylearn,learning,ITI,BMN4zMU9PwdgRSTOmX2osTnrKBC3,BMN4zMU9PwdgRSTOmX2osTnrKBC3,,,,,,,,,,,,,,,,,,,2254.0,,,63d3f99c57f6b09e77ce7c82,16:53:20,27/03/2024
html-keyboard-response,106,210892,0.0-46.0-0.0,2338.0,"<div style=""display: flex; flex-direction: column; align-items: center; margin-top: -40px;""><img src=""images/pattern_1.png"" style=""width: 234px; height: 230px; margin-top: -50px;""><div style=""display: flex; justify-content: space-between; margin-top: 33px;""><img src=""images/choice_trial_1.png"" style=""width: 408px; height: 417px; margin-right: 200px;""><img src=""images/choice_trial_2.png"" style=""width: 408px; height: 417px;""></div></div>",j,delaylearn,learning,trial,BMN4zMU9PwdgRSTOmX2osTnrKBC3,BMN4zMU9PwdgRSTOmX2osTnrKBC3,1.0,images/choice_trial_1.png,images/choice_trial_2.png,images/pattern_1.png,f,f,7000.0,1.0,2.0,1.0,0.0,20.0,0.0,0.0,2.0,100.0,,,,,,63d3f99c57f6b09e77ce7c82,16:53:20,27/03/2024
html-keyboard-response,107,211899,0.0-46.0-1.0,,"<div style=""display: flex; flex-direction: column; align-items: center; margin-top: -40px;""><img src=""images/pattern_1.png"" style=""width: 234px; height: 230px; margin-top: -50px;""><div style=""display: flex; justify-content: space-between; margin-top: 33px;""><img src=""images/choice_trial_2.png"" style=""width: 408px; height: 417px; margin-left:608px;""></div></div>",,delaylearn,learning,display_response,BMN4zMU9PwdgRSTOmX2osTnrKBC3,BMN4zMU9PwdgRSTOmX2osTnrKBC3,,,,,,,,,,,,,,,,,chosen stimuli: images/choice_trial_2.png,,,,,63d3f99c57f6b09e77ce7c82,16:53:20,27/03/2024
html-keyboard-response,108,218908,0.0-46.0-2.0,,,,delaylearn,learning,feedback_duration_window,BMN4zMU9PwdgRSTOmX2osTnrKBC3,BMN4zMU9PwdgRSTOmX2osTnrKBC3,,,,,,,,,,,,,,,,,,7000.0,,,,63d3f99c57f6b09e77ce7c82,16:53:20,27/03/2024
html-keyboard-response,109,220416,0.0-46.0-3.0,,<div style='margin:auto;width: auto; font-size: 150%'><span style='font-weight: bold; font-size: 100px; color: red;'>0 points!</span><br><br></div>,,delaylearn,learning,feedback_image_window,BMN4zMU9PwdgRSTOmX2osTnrKBC3,BMN4zMU9PwdgRSTOmX2osTnrKBC3,,,,,,,,,,,,,,,,,,,,,,63d3f99c57f6b09e77ce7c82,16:53:20,27/03/2024
html-keyboard-response,110,222511,0.0-47.0,,"<div style=""font-size:100px;"">+</div>",,delaylearn,learning,ITI,BMN4zMU9PwdgRSTOmX2osTnrKBC3,BMN4zMU9PwdgRSTOmX2osTnrKBC3,,,,,,,,,,,,,,,,,,,2087.0,,,63d3f99c57f6b09e77ce7c82,16:53:20,27/03/2024
html-keyboard-response,111,225262,0.0-48.0-0.0,2744.0,"<div style=""display: flex; flex-direction: column; align-items: center; margin-top: -40px;""><img src=""images/pattern_6.png"" style=""width: 234px; height: 230px; margin-top: -50px;""><div style=""display: flex; justify-content: space-between; margin-top: 33px;""><img src=""images/choice_trial_12.png"" style=""width: 408px; height: 417px; margin-right: 200px;""><img src=""images/choice_trial_11.png"" style=""width: 408px; height: 417px;""></div></div>",f,delaylearn,learning,trial,BMN4zMU9PwdgRSTOmX2osTnrKBC3,BMN4zMU9PwdgRSTOmX2osTnrKBC3,1.0,images/choice_trial_12.png,images/choice_trial_11.png,images/pattern_6.png,j,j,750.0,12.0,11.0,5.0,1.0,21.0,0.0,0.0,12.0,100.0,,,,,,63d3f99c57f6b09e77ce7c82,16:53:20,27/03/2024
html-keyboard-response,112,226271,0.0-48.0-1.0,,"<div style=""display: flex; flex-direction: column; align-items: center; margin-top: -40px;""><img src=""images/pattern_6.png"" style=""width: 234px; height: 230px; margin-top: -50px;""><div style=""display: flex; justify-content: space-between; margin-top: 33px;""><img src=""images/choice_trial_12.png"" style=""width: 408px; height: 417px; margin-right: 608px;""></div></div>",,delaylearn,learning,display_response,BMN4zMU9PwdgRSTOmX2osTnrKBC3,BMN4zMU9PwdgRSTOmX2osTnrKBC3,,,,,,,,,,,,,,,,,chosen stimuli: images/choice_trial_12.png,,,,,63d3f99c57f6b09e77ce7c82,16:53:20,27/03/2024
html-keyboard-response,113,227028,0.0-48.0-2.0,,,,delaylearn,learning,feedback_duration_window,BMN4zMU9PwdgRSTOmX2osTnrKBC3,BMN4zMU9PwdgRSTOmX2osTnrKBC3,,,,,,,,,,,,,,,,,,750.0,,,,63d3f99c57f6b09e77ce7c82,16:53:20,27/03/2024
html-keyboard-response,114,228534,0.0-48.0-3.0,,<div style='margin:auto;width: auto; font-size: 150%'><span style='font-weight: bold; font-size: 100px; color: red;'>0 points!</span><br><br></div>,,delaylearn,learning,feedback_image_window,BMN4zMU9PwdgRSTOmX2osTnrKBC3,BMN4zMU9PwdgRSTOmX2osTnrKBC3,,,,,,,,,,,,,,,,,,,,,,63d3f99c57f6b09e77ce7c82,16:53:20,27/03/2024
html-keyboard-response,115,230570,0.0-49.0,,"<div style=""font-size:100px;"">+</div>",,delaylearn,learning,ITI,BMN4zMU9PwdgRSTOmX2osTnrKBC3,BMN4zMU9PwdgRSTOmX2osTnrKBC3,,,,,,,,,,,,,,,,,,,2028.0,,,63d3f99c57f6b09e77ce7c82,16:53:20,27/03/2024
html-keyboard-response,116,233577,0.0-50.0-0.0,,"<div style=""display: flex; flex-direction: column; align-items: center; margin-top: -40px;""><img src=""images/pattern_4.png"" style=""width: 234px; height: 230px; margin-top: -50px;""><div style=""display: flex; justify-content: space-between; margin-top: 33px;""><img src=""images/choice_trial_7.png"" style=""width: 408px; height: 417px; margin-right: 200px;""><img src=""images/choice_trial_8.png"" style=""width: 408px; height: 417px;""></div></div>",,delaylearn,learning,trial,BMN4zMU9PwdgRSTOmX2osTnrKBC3,BMN4zMU9PwdgRSTOmX2osTnrKBC3,1.0,images/choice_trial_7.png,images/choice_trial_8.png,images/pattern_4.png,f,f,7000.0,7.0,8.0,3.0,0.0,22.0,0.0,0.0,0.0,100.0,,,,,,63d3f99c57f6b09e77ce7c82,16:53:20,27/03/2024
html-keyboard-response,117,234586,0.0-50.0-1.0,,<div style='font-weight: bold; font-size: 75px; color: red;'>Missed Trial <br><br><br><br> Please respond faster</div>,,delaylearn,learning,display_response,BMN4zMU9PwdgRSTOmX2osTnrKBC3,BMN4zMU9PwdgRSTOmX2osTnrKBC3,,,,,,,,,,,,,,,,,Missed trial,,,,,63d3f99c57f6b09e77ce7c82,16:53:20,27/03/2024
html-keyboard-response,118,234593,0.0-50.0-2.0,,,,delaylearn,learning,feedback_duration_window,BMN4zMU9PwdgRSTOmX2osTnrKBC3,BMN4zMU9PwdgRSTOmX2osTnrKBC3,,,,,,,,,,,,,,,,,,0.0,,,,63d3f99c57f6b09e77ce7c82,16:53:20,27/03/2024
html-keyboard-response,119,234598,0.0-50.0-3.0,,,,delaylearn,learning,feedback_image_window,BMN4zMU9PwdgRSTOmX2osTnrKBC3,BMN4zMU9PwdgRSTOmX2osTnrKBC3,,,,,,,,,,,,,,,,,,,,,,63d3f99c57f6b09e77ce7c82,16:53:20,27/03/2024
html-keyboard-response,120,235104,0.0-51.0-0.0,,,,,,mood_trial_fixation,BMN4zMU9PwdgRSTOmX2osTnrKBC3,,,,,,,,,,,,,,,,,,,,,,,63d3f99c57f6b09e77ce7c82,16:53:20,27/03/2024
lmdlab-html-vas-response,121,239046,0.0-51.0-1.0,2933.0,How happy are you right now?,0.205607476635514,delaylearn,learning,mood_trial,BMN4zMU9PwdgRSTOmX2osTnrKBC3,BMN4zMU9PwdgRSTOmX2osTnrKBC3,,,,,,,,,,,,,,,,,,,,"['Very unhappy', 'Very happy']",,63d3f99c57f6b09e77ce7c82,16:53:20,27/03/2024
html-keyboard-response,122,241076,0.0-52.0,,"<div style=""font-size:100px;"">+</div>",,delaylearn,learning,ITI,BMN4zMU9PwdgRSTOmX2osTnrKBC3,BMN4zMU9PwdgRSTOmX2osTnrKBC3,,,,,,,,,,,,,,,,,,,2022.0,,,63d3f99c57f6b09e77ce7c82,16:53:20,27/03/2024
html-keyboard-response,123,242211,0.0-53.0-0.0,1128.0,"<div style=""display: flex; flex-direction: column; align-items: center; margin-top: -40px;""><img src=""images/pattern_7.png"" style=""width: 234px; height: 230px; margin-top: -50px;""><div style=""display: flex; justify-content: space-between; margin-top: 33px;""><img src=""images/choice_trial_14.png"" style=""width: 408px; height: 417px; margin-right: 200px;""><img src=""images/choice_trial_13.png"" style=""width: 408px; height: 417px;""></div></div>",j,delaylearn,learning,trial,BMN4zMU9PwdgRSTOmX2osTnrKBC3,BMN4zMU9PwdgRSTOmX2osTnrKBC3,1.0,images/choice_trial_14.png,images/choice_trial_13.png,images/pattern_7.png,j,j,750.0,14.0,13.0,6.0,1.0,23.0,1.0,1.0,13.0,110.0,,,,,,63d3f99c57f6b09e77ce7c82,16:53:20,27/03/2024
html-keyboard-response,124,243218,0.0-53.0-1.0,,"<div style=""display: flex; flex-direction: column; align-items: center; margin-top: -40px;""><img src=""images/pattern_7.png"" style=""width: 234px; height: 230px; margin-top: -50px;""><div style=""display: flex; justify-content: space-between; margin-top: 33px;""><img src=""images/choice_trial_13.png"" style=""width: 408px; height: 417px; margin-left:608px;""></div></div>",,delaylearn,learning,display_response,BMN4zMU9PwdgRSTOmX2osTnrKBC3,BMN4zMU9PwdgRSTOmX2osTnrKBC3,,,,,,,,,,,,,,,,,chosen stimuli: images/choice_trial_13.png,,,,,63d3f99c57f6b09e77ce7c82,16:53:20,27/03/2024
html-keyboard-response,125,243971,0.0-53.0-2.0,,,,delaylearn,learning,feedback_duration_window,BMN4zMU9PwdgRSTOmX2osTnrKBC3,BMN4zMU9PwdgRSTOmX2osTnrKBC3,,,,,,,,,,,,,,,,,,750.0,,,,63d3f99c57f6b09e77ce7c82,16:53:20,27/03/2024
html-keyboard-response,126,245477,0.0-53.0-3.0,,<div style='margin:auto;width: auto; font-size: 150%'><span style='font-weight: bold; font-size: 100px; color: green;'>+10 points!</span><br><br></div>,,delaylearn,learning,feedback_image_window,BMN4zMU9PwdgRSTOmX2osTnrKBC3,BMN4zMU9PwdgRSTOmX2osTnrKBC3,,,,,,,,,,,,,,,,,,,,,,63d3f99c57f6b09e77ce7c82,16:53:20,27/03/2024
html-keyboard-response,127,247357,0.0-54.0,,"<div style=""font-size:100px;"">+</div>",,delaylearn,learning,ITI,BMN4zMU9PwdgRSTOmX2osTnrKBC3,BMN4zMU9PwdgRSTOmX2osTnrKBC3,,,,,,,,,,,,,,,,,,,1872.0,,,63d3f99c57f6b09e77ce7c82,16:53:20,27/03/2024
html-keyboard-response,128,248689,0.0-55.0-0.0,1328.0,"<div style=""display: flex; flex-direction: column; align-items: center; margin-top: -40px;""><img src=""images/pattern_1.png"" style=""width: 234px; height: 230px; margin-top: -50px;""><div style=""display: flex; justify-content: space-between; margin-top: 33px;""><img src=""images/choice_trial_2.png"" style=""width: 408px; height: 417px; margin-right: 200px;""><img src=""images/choice_trial_1.png"" style=""width: 408px; height: 417px;""></div></div>",f,delaylearn,learning,trial,BMN4zMU9PwdgRSTOmX2osTnrKBC3,BMN4zMU9PwdgRSTOmX2osTnrKBC3,1.0,images/choice_trial_2.png,images/choice_trial_1.png,images/pattern_1.png,f,j,7000.0,2.0,1.0,1.0,1.0,24.0,0.0,1.0,2.0,120.0,,,,,,63d3f99c57f6b09e77ce7c82,16:53:20,27/03/2024
html-keyboard-response,129,249694,0.0-55.0-1.0,,"<div style=""display: flex; flex-direction: column; align-items: center; margin-top: -40px;""><img src=""images/pattern_1.png"" style=""width: 234px; height: 230px; margin-top: -50px;""><div style=""display: flex; justify-content: space-between; margin-top: 33px;""><img src=""images/choice_trial_2.png"" style=""width: 408px; height: 417px; margin-right: 608px;""></div></div>",,delaylearn,learning,display_response,BMN4zMU9PwdgRSTOmX2osTnrKBC3,BMN4zMU9PwdgRSTOmX2osTnrKBC3,,,,,,,,,,,,,,,,,chosen stimuli: images/choice_trial_2.png,,,,,63d3f99c57f6b09e77ce7c82,16:53:20,27/03/2024
html-keyboard-response,130,256702,0.0-55.0-2.0,,,,delaylearn,learning,feedback_duration_window,BMN4zMU9PwdgRSTOmX2osTnrKBC3,BMN4zMU9PwdgRSTOmX2osTnrKBC3,,,,,,,,,,,,,,,,,,7000.0,,,,63d3f99c57f6b09e77ce7c82,16:53:20,27/03/2024
html-keyboard-response,131,258212,0.0-55.0-3.0,,<div style='margin:auto;width: auto; font-size: 150%'><span style='font-weight: bold; font-size: 100px; color: green;'>+10 points!</span><br><br></div>,,delaylearn,learning,feedback_image_window,BMN4zMU9PwdgRSTOmX2osTnrKBC3,BMN4zMU9PwdgRSTOmX2osTnrKBC3,,,,,,,,,,,,,,,,,,,,,,63d3f99c57f6b09e77ce7c82,16:53:20,27/03/2024
html-keyboard-response,132,260720,0.0-56.0,,"<div style=""font-size:100px;"">+</div>",,delaylearn,learning,ITI,BMN4zMU9PwdgRSTOmX2osTnrKBC3,BMN4zMU9PwdgRSTOmX2osTnrKBC3,,,,,,,,,,,,,,,,,,,2500.0,,,63d3f99c57f6b09e77ce7c82,16:53:20,27/03/2024
html-keyboard-response,133,261956,0.0-57.0-0.0,1230.0,"<div style=""display: flex; flex-direction: column; align-items: center; margin-top: -40px;""><img src=""images/pattern_5.png"" style=""width: 234px; height: 230px; margin-top: -50px;""><div style=""display: flex; justify-content: space-between; margin-top: 33px;""><img src=""images/choice_trial_10.png"" style=""width: 408px; height: 417px; margin-right: 200px;""><img src=""images/choice_trial_9.png"" style=""width: 408px; height: 417px;""></div></div>",j,delaylearn,learning,trial,BMN4zMU9PwdgRSTOmX2osTnrKBC3,BMN4zMU9PwdgRSTOmX2osTnrKBC3,1.0,images/choice_trial_10.png,images/choice_trial_9.png,images/pattern_5.png,j,j,750.0,10.0,9.0,4.0,1.0,25.0,1.0,1.0,9.0,130.0,,,,,,63d3f99c57f6b09e77ce7c82,16:53:20,27/03/2024
html-keyboard-response,134,262963,0.0-57.0-1.0,,"<div style=""display: flex; flex-direction: column; align-items: center; margin-top: -40px;""><img src=""images/pattern_5.png"" style=""width: 234px; height: 230px; margin-top: -50px;""><div style=""display: flex; justify-content: space-between; margin-top: 33px;""><img src=""images/choice_trial_9.png"" style=""width: 408px; height: 417px; margin-left:608px;""></div></div>",,delaylearn,learning,display_response,BMN4zMU9PwdgRSTOmX2osTnrKBC3,BMN4zMU9PwdgRSTOmX2osTnrKBC3,,,,,,,,,,,,,,,,,chosen stimuli: images/choice_trial_9.png,,,,,63d3f99c57f6b09e77ce7c82,16:53:20,27/03/2024
html-keyboard-response,135,263720,0.0-57.0-2.0,,,,delaylearn,learning,feedback_duration_window,BMN4zMU9PwdgRSTOmX2osTnrKBC3,BMN4zMU9PwdgRSTOmX2osTnrKBC3,,,,,,,,,,,,,,,,,,750.0,,,,63d3f99c57f6b09e77ce7c82,16:53:20,27/03/2024
html-keyboard-response,136,265222,0.0-57.0-3.0,,<div style='margin:auto;width: auto; font-size: 150%'><span style='font-weight: bold; font-size: 100px; color: green;'>+10 points!</span><br><br></div>,,delaylearn,learning,feedback_image_window,BMN4zMU9PwdgRSTOmX2osTnrKBC3,BMN4zMU9PwdgRSTOmX2osTnrKBC3,,,,,,,,,,,,,,,,,,,,,,63d3f99c57f6b09e77ce7c82,16:53:20,27/03/2024
html-keyboard-response,137,267177,0.0-58.0,,"<div style=""font-size:100px;"">+</div>",,delaylearn,learning,ITI,BMN4zMU9PwdgRSTOmX2osTnrKBC3,BMN4zMU9PwdgRSTOmX2osTnrKBC3,,,,,,,,,,,,,,,,,,,1950.0,,,63d3f99c57f6b09e77ce7c82,16:53:20,27/03/2024
html-keyboard-response,138,268539,0.0-59.0-0.0,1358.0,"<div style=""display: flex; flex-direction: column; align-items: center; margin-top: -40px;""><img src=""images/pattern_3.png"" style=""width: 234px; height: 230px; margin-top: -50px;""><div style=""display: flex; justify-content: space-between; margin-top: 33px;""><img src=""images/choice_trial_6.png"" style=""width: 408px; height: 417px; margin-right: 200px;""><img src=""images/choice_trial_5.png"" style=""width: 408px; height: 417px;""></div></div>",f,delaylearn,learning,trial,BMN4zMU9PwdgRSTOmX2osTnrKBC3,BMN4zMU9PwdgRSTOmX2osTnrKBC3,1.0,images/choice_trial_6.png,images/choice_trial_5.png,images/pattern_3.png,j,j,7000.0,6.0,5.0,2.0,1.0,26.0,0.0,0.0,6.0,130.0,,,,,,63d3f99c57f6b09e77ce7c82,16:53:20,27/03/2024
html-keyboard-response,139,269546,0.0-59.0-1.0,,"<div style=""display: flex; flex-direction: column; align-items: center; margin-top: -40px;""><img src=""images/pattern_3.png"" style=""width: 234px; height: 230px; margin-top: -50px;""><div style=""display: flex; justify-content: space-between; margin-top: 33px;""><img src=""images/choice_trial_6.png"" style=""width: 408px; height: 417px; margin-right: 608px;""></div></div>",,delaylearn,learning,display_response,BMN4zMU9PwdgRSTOmX2osTnrKBC3,BMN4zMU9PwdgRSTOmX2osTnrKBC3,,,,,,,,,,,,,,,,,chosen stimuli: images/choice_trial_6.png,,,,,63d3f99c57f6b09e77ce7c82,16:53:20,27/03/2024
html-keyboard-response,140,276551,0.0-59.0-2.0,,,,delaylearn,learning,feedback_duration_window,BMN4zMU9PwdgRSTOmX2osTnrKBC3,BMN4zMU9PwdgRSTOmX2osTnrKBC3,,,,,,,,,,,,,,,,,,7000.0,,,,63d3f99c57f6b09e77ce7c82,16:53:20,27/03/2024
html-keyboard-response,141,278060,0.0-59.0-3.0,,<div style='margin:auto;width: auto; font-size: 150%'><span style='font-weight: bold; font-size: 100px; color: red;'>0 points!</span><br><br></div>,,delaylearn,learning,feedback_image_window,BMN4zMU9PwdgRSTOmX2osTnrKBC3,BMN4zMU9PwdgRSTOmX2osTnrKBC3,,,,,,,,,,,,,,,,,,,,,,63d3f99c57f6b09e77ce7c82,16:53:20,27/03/2024
lmdlab-html-vas-response,142,283154,0.0-60.0-0.0,3584.0,*How <b><u>confident</u></b> are you feeling about your answers at this moment?*,0.1526739292798384,rewlearn,rate_confidence,,BMN4zMU9PwdgRSTOmX2osTnrKBC3,BMN4zMU9PwdgRSTOmX2osTnrKBC3,,,,,,,,,,,,,,,,,,,,"['No confidence', 'Complete confidence']",,63d3f99c57f6b09e77ce7c82,16:53:20,27/03/2024
lmdlab-rest-trial-limit,143,291091,0.0-60.0-1.0,6427.0,"<div style=""font-size:40px;""><b>Please take a break!</b><br><br><br><br><p>Great work: you earned 130 points.<br><br><br><p>You have completed part(s) 1 of 5.<br><br><br><br>When you are ready to continue<br><br><br>please click the button.</p><br><br>",0,delaylearn,learning,break,BMN4zMU9PwdgRSTOmX2osTnrKBC3,BMN4zMU9PwdgRSTOmX2osTnrKBC3,,,,,,,,,,,,,,,,,,,,,0.0,63d3f99c57f6b09e77ce7c82,16:53:20,27/03/2024
html-keyboard-response,144,294102,0.0-60.0-2.0,,"<div style=""font-size:100px;"">+</div>",,delaylearn,learning,pre_fixation,BMN4zMU9PwdgRSTOmX2osTnrKBC3,,,,,,,,,,,,,,,,,,,,,,,63d3f99c57f6b09e77ce7c82,16:53:20,27/03/2024
lmdlab-html-vas-response,145,297818,0.0-60.0-3.0-0.0,2704.0,How happy are you right now?,0.2819314641744548,delaylearn,learning,mood_baseline,BMN4zMU9PwdgRSTOmX2osTnrKBC3,BMN4zMU9PwdgRSTOmX2osTnrKBC3,,,,,,,,,,,,,,,,,,,,"['Very unhappy', 'Very happy']",,63d3f99c57f6b09e77ce7c82,16:53:20,27/03/2024
html-keyboard-response,146,299326,0.0-60.0-3.0-1.0,,,,,,mood_baseline_fixation,BMN4zMU9PwdgRSTOmX2osTnrKBC3,,,,,,,,,,,,,,,,,,,,,,,63d3f99c57f6b09e77ce7c82,16:53:20,27/03/2024
html-keyboard-response,147,301684,0.0-61.0,,"<div style=""font-size:100px;"">+</div>",,delaylearn,learning,ITI,BMN4zMU9PwdgRSTOmX2osTnrKBC3,BMN4zMU9PwdgRSTOmX2osTnrKBC3,,,,,,,,,,,,,,,,,,,2351.0,,,63d3f99c57f6b09e77ce7c82,16:53:20,27/03/2024
html-keyboard-response,148,302869,0.0-62.0-0.0,1180.0,"<div style=""display: flex; flex-direction: column; align-items: center; margin-top: -40px;""><img src=""images/pattern_7.png"" style=""width: 234px; height: 230px; margin-top: -50px;""><div style=""display: flex; justify-content: space-between; margin-top: 33px;""><img src=""images/choice_trial_14.png"" style=""width: 408px; height: 417px; margin-right: 200px;""><img src=""images/choice_trial_13.png"" style=""width: 408px; height: 417px;""></div></div>",j,delaylearn,learning,trial,BMN4zMU9PwdgRSTOmX2osTnrKBC3,BMN4zMU9PwdgRSTOmX2osTnrKBC3,1.0,images/choice_trial_14.png,images/choice_trial_13.png,images/pattern_7.png,j,j,750.0,14.0,13.0,6.0,1.0,27.0,1.0,1.0,13.0,140.0,,,,,,63d3f99c57f6b09e77ce7c82,16:53:20,27/03/2024
html-keyboard-response,149,303877,0.0-62.0-1.0,,"<div style=""display: flex; flex-direction: column; align-items: center; margin-top: -40px;""><img src=""images/pattern_7.png"" style=""width: 234px; height: 230px; margin-top: -50px;""><div style=""display: flex; justify-content: space-between; margin-top: 33px;""><img src=""images/choice_trial_13.png"" style=""width: 408px; height: 417px; margin-left:608px;""></div></div>",,delaylearn,learning,display_response,BMN4zMU9PwdgRSTOmX2osTnrKBC3,BMN4zMU9PwdgRSTOmX2osTnrKBC3,,,,,,,,,,,,,,,,,chosen stimuli: images/choice_trial_13.png,,,,,63d3f99c57f6b09e77ce7c82,16:53:20,27/03/2024
html-keyboard-response,150,304634,0.0-62.0-2.0,,,,delaylearn,learning,feedback_duration_window,BMN4zMU9PwdgRSTOmX2osTnrKBC3,BMN4zMU9PwdgRSTOmX2osTnrKBC3,,,,,,,,,,,,,,,,,,750.0,,,,63d3f99c57f6b09e77ce7c82,16:53:20,27/03/2024
html-keyboard-response,151,306141,0.0-62.0-3.0,,<div style='margin:auto;width: auto; font-size: 150%'><span style='font-weight: bold; font-size: 100px; color: green;'>+10 points!</span><br><br></div>,,delaylearn,learning,feedback_image_window,BMN4zMU9PwdgRSTOmX2osTnrKBC3,BMN4zMU9PwdgRSTOmX2osTnrKBC3,,,,,,,,,,,,,,,,,,,,,,63d3f99c57f6b09e77ce7c82,16:53:20,27/03/2024
html-keyboard-response,152,306647,0.0-63.0-0.0,,,,,,mood_trial_fixation,BMN4zMU9PwdgRSTOmX2osTnrKBC3,,,,,,,,,,,,,,,,,,,,,,,63d3f99c57f6b09e77ce7c82,16:53:20,27/03/2024
lmdlab-html-vas-response,153,310746,0.0-63.0-1.0,3087.0,How happy are you right now?,0.2507788161993769,delaylearn,learning,mood_trial,BMN4zMU9PwdgRSTOmX2osTnrKBC3,BMN4zMU9PwdgRSTOmX2osTnrKBC3,,,,,,,,,,,,,,,,,,,,"['Very unhappy', 'Very happy']",,63d3f99c57f6b09e77ce7c82,16:53:20,27/03/2024
html-keyboard-response,154,312969,0.0-64.0,,"<div style=""font-size:100px;"">+</div>",,delaylearn,learning,ITI,BMN4zMU9PwdgRSTOmX2osTnrKBC3,BMN4zMU9PwdgRSTOmX2osTnrKBC3,,,,,,,,,,,,,,,,,,,2214.0,,,63d3f99c57f6b09e77ce7c82,16:53:20,27/03/2024
html-keyboard-response,155,314319,0.0-65.0-0.0,1346.0,"<div style=""display: flex; flex-direction: column; align-items: center; margin-top: -40px;""><img src=""images/pattern_1.png"" style=""width: 234px; height: 230px; margin-top: -50px;""><div style=""display: flex; justify-content: space-between; margin-top: 33px;""><img src=""images/choice_trial_1.png"" style=""width: 408px; height: 417px; margin-right: 200px;""><img src=""images/choice_trial_2.png"" style=""width: 408px; height: 417px;""></div></div>",j,delaylearn,learning,trial,BMN4zMU9PwdgRSTOmX2osTnrKBC3,BMN4zMU9PwdgRSTOmX2osTnrKBC3,1.0,images/choice_trial_1.png,images/choice_trial_2.png,images/pattern_1.png,f,f,7000.0,1.0,2.0,1.0,0.0,28.0,0.0,0.0,2.0,140.0,,,,,,63d3f99c57f6b09e77ce7c82,16:53:20,27/03/2024
html-keyboard-response,156,315325,0.0-65.0-1.0,,"<div style=""display: flex; flex-direction: column; align-items: center; margin-top: -40px;""><img src=""images/pattern_1.png"" style=""width: 234px; height: 230px; margin-top: -50px;""><div style=""display: flex; justify-content: space-between; margin-top: 33px;""><img src=""images/choice_trial_2.png"" style=""width: 408px; height: 417px; margin-left:608px;""></div></div>",,delaylearn,learning,display_response,BMN4zMU9PwdgRSTOmX2osTnrKBC3,BMN4zMU9PwdgRSTOmX2osTnrKBC3,,,,,,,,,,,,,,,,,chosen stimuli: images/choice_trial_2.png,,,,,63d3f99c57f6b09e77ce7c82,16:53:20,27/03/2024
html-keyboard-response,157,322333,0.0-65.0-2.0,,,,delaylearn,learning,feedback_duration_window,BMN4zMU9PwdgRSTOmX2osTnrKBC3,BMN4zMU9PwdgRSTOmX2osTnrKBC3,,,,,,,,,,,,,,,,,,7000.0,,,,63d3f99c57f6b09e77ce7c82,16:53:20,27/03/2024
html-keyboard-response,158,323843,0.0-65.0-3.0,,<div style='margin:auto;width: auto; font-size: 150%'><span style='font-weight: bold; font-size: 100px; color: red;'>0 points!</span><br><br></div>,,delaylearn,learning,feedback_image_window,BMN4zMU9PwdgRSTOmX2osTnrKBC3,BMN4zMU9PwdgRSTOmX2osTnrKBC3,,,,,,,,,,,,,,,,,,,,,,63d3f99c57f6b09e77ce7c82,16:53:20,27/03/2024
html-keyboard-response,159,326171,0.0-66.0,,"<div style=""font-size:100px;"">+</div>",,delaylearn,learning,ITI,BMN4zMU9PwdgRSTOmX2osTnrKBC3,BMN4zMU9PwdgRSTOmX2osTnrKBC3,,,,,,,,,,,,,,,,,,,2319.0,,,63d3f99c57f6b09e77ce7c82,16:53:20,27/03/2024
html-keyboard-response,160,327017,0.0-67.0-0.0,840.0,"<div style=""display: flex; flex-direction: column; align-items: center; margin-top: -40px;""><img src=""images/pattern_5.png"" style=""width: 234px; height: 230px; margin-top: -50px;""><div style=""display: flex; justify-content: space-between; margin-top: 33px;""><img src=""images/choice_trial_9.png"" style=""width: 408px; height: 417px; margin-right: 200px;""><img src=""images/choice_trial_10.png"" style=""width: 408px; height: 417px;""></div></div>",f,delaylearn,learning,trial,BMN4zMU9PwdgRSTOmX2osTnrKBC3,BMN4zMU9PwdgRSTOmX2osTnrKBC3,1.0,images/choice_trial_9.png,images/choice_trial_10.png,images/pattern_5.png,f,f,750.0,9.0,10.0,4.0,0.0,29.0,1.0,1.0,9.0,150.0,,,,,,63d3f99c57f6b09e77ce7c82,16:53:20,27/03/2024
html-keyboard-response,161,328024,0.0-67.0-1.0,,"<div style=""display: flex; flex-direction: column; align-items: center; margin-top: -40px;""><img src=""images/pattern_5.png"" style=""width: 234px; height: 230px; margin-top: -50px;""><div style=""display: flex; justify-content: space-between; margin-top: 33px;""><img src=""images/choice_trial_9.png"" style=""width: 408px; height: 417px; margin-right: 608px;""></div></div>",,delaylearn,learning,display_response,BMN4zMU9PwdgRSTOmX2osTnrKBC3,BMN4zMU9PwdgRSTOmX2osTnrKBC3,,,,,,,,,,,,,,,,,chosen stimuli: images/choice_trial_9.png,,,,,63d3f99c57f6b09e77ce7c82,16:53:20,27/03/2024
html-keyboard-response,162,328781,0.0-67.0-2.0,,,,delaylearn,learning,feedback_duration_window,BMN4zMU9PwdgRSTOmX2osTnrKBC3,BMN4zMU9PwdgRSTOmX2osTnrKBC3,,,,,,,,,,,,,,,,,,750.0,,,,63d3f99c57f6b09e77ce7c82,16:53:20,27/03/2024
html-keyboard-response,163,330288,0.0-67.0-3.0,,<div style='margin:auto;width: auto; font-size: 150%'><span style='font-weight: bold; font-size: 100px; color: green;'>+10 points!</span><br><br></div>,,delaylearn,learning,feedback_image_window,BMN4zMU9PwdgRSTOmX2osTnrKBC3,BMN4zMU9PwdgRSTOmX2osTnrKBC3,,,,,,,,,,,,,,,,,,,,,,63d3f99c57f6b09e77ce7c82,16:53:20,27/03/2024
html-keyboard-response,164,332046,0.0-68.0,,"<div style=""font-size:100px;"">+</div>",,delaylearn,learning,ITI,BMN4zMU9PwdgRSTOmX2osTnrKBC3,BMN4zMU9PwdgRSTOmX2osTnrKBC3,,,,,,,,,,,,,,,,,,,1751.0,,,63d3f99c57f6b09e77ce7c82,16:53:20,27/03/2024
html-keyboard-response,165,333395,0.0-69.0-0.0,1342.0,"<div style=""display: flex; flex-direction: column; align-items: center; margin-top: -40px;""><img src=""images/pattern_6.png"" style=""width: 234px; height: 230px; margin-top: -50px;""><div style=""display: flex; justify-content: space-between; margin-top: 33px;""><img src=""images/choice_trial_12.png"" style=""width: 408px; height: 417px; margin-right: 200px;""><img src=""images/choice_trial_11.png"" style=""width: 408px; height: 417px;""></div></div>",j,delaylearn,learning,trial,BMN4zMU9PwdgRSTOmX2osTnrKBC3,BMN4zMU9PwdgRSTOmX2osTnrKBC3,1.0,images/choice_trial_12.png,images/choice_trial_11.png,images/pattern_6.png,j,j,750.0,12.0,11.0,5.0,1.0,30.0,1.0,1.0,11.0,160.0,,,,,,63d3f99c57f6b09e77ce7c82,16:53:20,27/03/2024
html-keyboard-response,166,334402,0.0-69.0-1.0,,"<div style=""display: flex; flex-direction: column; align-items: center; margin-top: -40px;""><img src=""images/pattern_6.png"" style=""width: 234px; height: 230px; margin-top: -50px;""><div style=""display: flex; justify-content: space-between; margin-top: 33px;""><img src=""images/choice_trial_11.png"" style=""width: 408px; height: 417px; margin-left:608px;""></div></div>",,delaylearn,learning,display_response,BMN4zMU9PwdgRSTOmX2osTnrKBC3,BMN4zMU9PwdgRSTOmX2osTnrKBC3,,,,,,,,,,,,,,,,,chosen stimuli: images/choice_trial_11.png,,,,,63d3f99c57f6b09e77ce7c82,16:53:20,27/03/2024
html-keyboard-response,167,335159,0.0-69.0-2.0,,,,delaylearn,learning,feedback_duration_window,BMN4zMU9PwdgRSTOmX2osTnrKBC3,BMN4zMU9PwdgRSTOmX2osTnrKBC3,,,,,,,,,,,,,,,,,,750.0,,,,63d3f99c57f6b09e77ce7c82,16:53:20,27/03/2024
html-keyboard-response,168,336666,0.0-69.0-3.0,,<div style='margin:auto;width: auto; font-size: 150%'><span style='font-weight: bold; font-size: 100px; color: green;'>+10 points!</span><br><br></div>,,delaylearn,learning,feedback_image_window,BMN4zMU9PwdgRSTOmX2osTnrKBC3,BMN4zMU9PwdgRSTOmX2osTnrKBC3,,,,,,,,,,,,,,,,,,,,,,63d3f99c57f6b09e77ce7c82,16:53:20,27/03/2024
html-keyboard-response,169,337170,0.0-70.0-0.0,,,,,,mood_trial_fixation,BMN4zMU9PwdgRSTOmX2osTnrKBC3,,,,,,,,,,,,,,,,,,,,,,,63d3f99c57f6b09e77ce7c82,16:53:20,27/03/2024
lmdlab-html-vas-response,170,340997,0.0-70.0-1.0,2817.0,How happy are you right now?,0.278816199376947,delaylearn,learning,mood_trial,BMN4zMU9PwdgRSTOmX2osTnrKBC3,BMN4zMU9PwdgRSTOmX2osTnrKBC3,,,,,,,,,,,,,,,,,,,,"['Very unhappy', 'Very happy']",,63d3f99c57f6b09e77ce7c82,16:53:20,27/03/2024
html-keyboard-response,171,342962,0.0-71.0,,"<div style=""font-size:100px;"">+</div>",,delaylearn,learning,ITI,BMN4zMU9PwdgRSTOmX2osTnrKBC3,BMN4zMU9PwdgRSTOmX2osTnrKBC3,,,,,,,,,,,,,,,,,,,1956.0,,,63d3f99c57f6b09e77ce7c82,16:53:20,27/03/2024
html-keyboard-response,172,344562,0.0-72.0-0.0,1593.0,"<div style=""display: flex; flex-direction: column; align-items: center; margin-top: -40px;""><img src=""images/pattern_4.png"" style=""width: 234px; height: 230px; margin-top: -50px;""><div style=""display: flex; justify-content: space-between; margin-top: 33px;""><img src=""images/choice_trial_8.png"" style=""width: 408px; height: 417px; margin-right: 200px;""><img src=""images/choice_trial_7.png"" style=""width: 408px; height: 417px;""></div></div>",j,delaylearn,learning,trial,BMN4zMU9PwdgRSTOmX2osTnrKBC3,BMN4zMU9PwdgRSTOmX2osTnrKBC3,1.0,images/choice_trial_8.png,images/choice_trial_7.png,images/pattern_4.png,j,j,7000.0,8.0,7.0,3.0,1.0,31.0,1.0,1.0,7.0,170.0,,,,,,63d3f99c57f6b09e77ce7c82,16:53:20,27/03/2024
html-keyboard-response,173,345570,0.0-72.0-1.0,,"<div style=""display: flex; flex-direction: column; align-items: center; margin-top: -40px;""><img src=""images/pattern_4.png"" style=""width: 234px; height: 230px; margin-top: -50px;""><div style=""display: flex; justify-content: space-between; margin-top: 33px;""><img src=""images/choice_trial_7.png"" style=""width: 408px; height: 417px; margin-left:608px;""></div></div>",,delaylearn,learning,display_response,BMN4zMU9PwdgRSTOmX2osTnrKBC3,BMN4zMU9PwdgRSTOmX2osTnrKBC3,,,,,,,,,,,,,,,,,chosen stimuli: images/choice_trial_7.png,,,,,63d3f99c57f6b09e77ce7c82,16:53:20,27/03/2024
html-keyboard-response,174,352578,0.0-72.0-2.0,,,,delaylearn,learning,feedback_duration_window,BMN4zMU9PwdgRSTOmX2osTnrKBC3,BMN4zMU9PwdgRSTOmX2osTnrKBC3,,,,,,,,,,,,,,,,,,7000.0,,,,63d3f99c57f6b09e77ce7c82,16:53:20,27/03/2024
html-keyboard-response,175,354087,0.0-72.0-3.0,,<div style='margin:auto;width: auto; font-size: 150%'><span style='font-weight: bold; font-size: 100px; color: green;'>+10 points!</span><br><br></div>,,delaylearn,learning,feedback_image_window,BMN4zMU9PwdgRSTOmX2osTnrKBC3,BMN4zMU9PwdgRSTOmX2osTnrKBC3,,,,,,,,,,,,,,,,,,,,,,63d3f99c57f6b09e77ce7c82,16:53:20,27/03/2024
html-keyboard-response,176,355696,0.0-73.0,,"<div style=""font-size:100px;"">+</div>",,delaylearn,learning,ITI,BMN4zMU9PwdgRSTOmX2osTnrKBC3,BMN4zMU9PwdgRSTOmX2osTnrKBC3,,,,,,,,,,,,,,,,,,,1601.0,,,63d3f99c57f6b09e77ce7c82,16:53:20,27/03/2024
html-keyboard-response,177,356858,0.0-74.0-0.0,1156.0,"<div style=""display: flex; flex-direction: column; align-items: center; margin-top: -40px;""><img src=""images/pattern_3.png"" style=""width: 234px; height: 230px; margin-top: -50px;""><div style=""display: flex; justify-content: space-between; margin-top: 33px;""><img src=""images/choice_trial_6.png"" style=""width: 408px; height: 417px; margin-right: 200px;""><img src=""images/choice_trial_5.png"" style=""width: 408px; height: 417px;""></div></div>",f,delaylearn,learning,trial,BMN4zMU9PwdgRSTOmX2osTnrKBC3,BMN4zMU9PwdgRSTOmX2osTnrKBC3,1.0,images/choice_trial_6.png,images/choice_trial_5.png,images/pattern_3.png,j,j,7000.0,6.0,5.0,2.0,1.0,32.0,0.0,0.0,6.0,170.0,,,,,,63d3f99c57f6b09e77ce7c82,16:53:20,27/03/2024
html-keyboard-response,178,357865,0.0-74.0-1.0,,"<div style=""display: flex; flex-direction: column; align-items: center; margin-top: -40px;""><img src=""images/pattern_3.png"" style=""width: 234px; height: 230px; margin-top: -50px;""><div style=""display: flex; justify-content: space-between; margin-top: 33px;""><img src=""images/choice_trial_6.png"" style=""width: 408px; height: 417px; margin-right: 608px;""></div></div>",,delaylearn,learning,display_response,BMN4zMU9PwdgRSTOmX2osTnrKBC3,BMN4zMU9PwdgRSTOmX2osTnrKBC3,,,,,,,,,,,,,,,,,chosen stimuli: images/choice_trial_6.png,,,,,63d3f99c57f6b09e77ce7c82,16:53:20,27/03/2024
html-keyboard-response,179,364871,0.0-74.0-2.0,,,,delaylearn,learning,feedback_duration_window,BMN4zMU9PwdgRSTOmX2osTnrKBC3,BMN4zMU9PwdgRSTOmX2osTnrKBC3,,,,,,,,,,,,,,,,,,7000.0,,,,63d3f99c57f6b09e77ce7c82,16:53:20,27/03/2024
html-keyboard-response,180,366378,0.0-74.0-3.0,,<div style='margin:auto;width: auto; font-size: 150%'><span style='font-weight: bold; font-size: 100px; color: red;'>0 points!</span><br><br></div>,,delaylearn,learning,feedback_image_window,BMN4zMU9PwdgRSTOmX2osTnrKBC3,BMN4zMU9PwdgRSTOmX2osTnrKBC3,,,,,,,,,,,,,,,,,,,,,,63d3f99c57f6b09e77ce7c82,16:53:20,27/03/2024
html-keyboard-response,181,368882,0.0-75.0,,"<div style=""font-size:100px;"">+</div>",,delaylearn,learning,ITI,BMN4zMU9PwdgRSTOmX2osTnrKBC3,BMN4zMU9PwdgRSTOmX2osTnrKBC3,,,,,,,,,,,,,,,,,,,2424.0,,,63d3f99c57f6b09e77ce7c82,16:53:20,27/03/2024
html-keyboard-response,182,369890,0.0-76.0-0.0,1001.0,"<div style=""display: flex; flex-direction: column; align-items: center; margin-top: -40px;""><img src=""images/pattern_5.png"" style=""width: 234px; height: 230px; margin-top: -50px;""><div style=""display: flex; justify-content: space-between; margin-top: 33px;""><img src=""images/choice_trial_9.png"" style=""width: 408px; height: 417px; margin-right: 200px;""><img src=""images/choice_trial_10.png"" style=""width: 408px; height: 417px;""></div></div>",f,delaylearn,learning,trial,BMN4zMU9PwdgRSTOmX2osTnrKBC3,BMN4zMU9PwdgRSTOmX2osTnrKBC3,1.0,images/choice_trial_9.png,images/choice_trial_10.png,images/pattern_5.png,j,f,750.0,9.0,10.0,4.0,0.0,33.0,1.0,0.0,9.0,170.0,,,,,,63d3f99c57f6b09e77ce7c82,16:53:20,27/03/2024
html-keyboard-response,183,370892,0.0-76.0-1.0,,"<div style=""display: flex; flex-direction: column; align-items: center; margin-top: -40px;""><img src=""images/pattern_5.png"" style=""width: 234px; height: 230px; margin-top: -50px;""><div style=""display: flex; justify-content: space-between; margin-top: 33px;""><img src=""images/choice_trial_9.png"" style=""width: 408px; height: 417px; margin-right: 608px;""></div></div>",,delaylearn,learning,display_response,BMN4zMU9PwdgRSTOmX2osTnrKBC3,BMN4zMU9PwdgRSTOmX2osTnrKBC3,,,,,,,,,,,,,,,,,chosen stimuli: images/choice_trial_9.png,,,,,63d3f99c57f6b09e77ce7c82,16:53:20,27/03/2024
html-keyboard-response,184,371649,0.0-76.0-2.0,,,,delaylearn,learning,feedback_duration_window,BMN4zMU9PwdgRSTOmX2osTnrKBC3,BMN4zMU9PwdgRSTOmX2osTnrKBC3,,,,,,,,,,,,,,,,,,750.0,,,,63d3f99c57f6b09e77ce7c82,16:53:20,27/03/2024
html-keyboard-response,185,373157,0.0-76.0-3.0,,<div style='margin:auto;width: auto; font-size: 150%'><span style='font-weight: bold; font-size: 100px; color: red;'>0 points!</span><br><br></div>,,delaylearn,learning,feedback_image_window,BMN4zMU9PwdgRSTOmX2osTnrKBC3,BMN4zMU9PwdgRSTOmX2osTnrKBC3,,,,,,,,,,,,,,,,,,,,,,63d3f99c57f6b09e77ce7c82,16:53:20,27/03/2024
html-keyboard-response,186,375337,0.0-77.0,,"<div style=""font-size:100px;"">+</div>",,delaylearn,learning,ITI,BMN4zMU9PwdgRSTOmX2osTnrKBC3,BMN4zMU9PwdgRSTOmX2osTnrKBC3,,,,,,,,,,,,,,,,,,,2175.0,,,63d3f99c57f6b09e77ce7c82,16:53:20,27/03/2024
html-keyboard-response,187,377228,0.0-78.0-0.0,1886.0,"<div style=""display: flex; flex-direction: column; align-items: center; margin-top: -40px;""><img src=""images/pattern_1.png"" style=""width: 234px; height: 230px; margin-top: -50px;""><div style=""display: flex; justify-content: space-between; margin-top: 33px;""><img src=""images/choice_trial_1.png"" style=""width: 408px; height: 417px; margin-right: 200px;""><img src=""images/choice_trial_2.png"" style=""width: 408px; height: 417px;""></div></div>",f,delaylearn,learning,trial,BMN4zMU9PwdgRSTOmX2osTnrKBC3,BMN4zMU9PwdgRSTOmX2osTnrKBC3,1.0,images/choice_trial_1.png,images/choice_trial_2.png,images/pattern_1.png,f,f,7000.0,1.0,2.0,1.0,0.0,34.0,1.0,1.0,1.0,180.0,,,,,,63d3f99c57f6b09e77ce7c82,16:53:20,27/03/2024
html-keyboard-response,188,378235,0.0-78.0-1.0,,"<div style=""display: flex; flex-direction: column; align-items: center; margin-top: -40px;""><img src=""images/pattern_1.png"" style=""width: 234px; height: 230px; margin-top: -50px;""><div style=""display: flex; justify-content: space-between; margin-top: 33px;""><img src=""images/choice_trial_1.png"" style=""width: 408px; height: 417px; margin-right: 608px;""></div></div>",,delaylearn,learning,display_response,BMN4zMU9PwdgRSTOmX2osTnrKBC3,BMN4zMU9PwdgRSTOmX2osTnrKBC3,,,,,,,,,,,,,,,,,chosen stimuli: images/choice_trial_1.png,,,,,63d3f99c57f6b09e77ce7c82,16:53:20,27/03/2024
html-keyboard-response,189,385329,0.0-78.0-2.0,,,,delaylearn,learning,feedback_duration_window,BMN4zMU9PwdgRSTOmX2osTnrKBC3,BMN4zMU9PwdgRSTOmX2osTnrKBC3,,,,,,,,,,,,,,,,,,7000.0,,,,63d3f99c57f6b09e77ce7c82,16:53:20,27/03/2024
html-keyboard-response,190,386838,0.0-78.0-3.0,,<div style='margin:auto;width: auto; font-size: 150%'><span style='font-weight: bold; font-size: 100px; color: green;'>+10 points!</span><br><br></div>,,delaylearn,learning,feedback_image_window,BMN4zMU9PwdgRSTOmX2osTnrKBC3,BMN4zMU9PwdgRSTOmX2osTnrKBC3,,,,,,,,,,,,,,,,,,,,,,63d3f99c57f6b09e77ce7c82,16:53:20,27/03/2024
html-keyboard-response,191,387345,0.0-79.0-0.0,,,,,,mood_trial_fixation,BMN4zMU9PwdgRSTOmX2osTnrKBC3,,,,,,,,,,,,,,,,,,,,,,,63d3f99c57f6b09e77ce7c82,16:53:20,27/03/2024
lmdlab-html-vas-response,192,391061,0.0-79.0-1.0,2707.0,How happy are you right now?,0.1059190031152648,delaylearn,learning,mood_trial,BMN4zMU9PwdgRSTOmX2osTnrKBC3,BMN4zMU9PwdgRSTOmX2osTnrKBC3,,,,,,,,,,,,,,,,,,,,"['Very unhappy', 'Very happy']",,63d3f99c57f6b09e77ce7c82,16:53:20,27/03/2024
html-keyboard-response,193,393228,0.0-80.0,,"<div style=""font-size:100px;"">+</div>",,delaylearn,learning,ITI,BMN4zMU9PwdgRSTOmX2osTnrKBC3,BMN4zMU9PwdgRSTOmX2osTnrKBC3,,,,,,,,,,,,,,,,,,,2160.0,,,63d3f99c57f6b09e77ce7c82,16:53:20,27/03/2024
html-keyboard-response,194,394583,0.0-81.0-0.0,1351.0,"<div style=""display: flex; flex-direction: column; align-items: center; margin-top: -40px;""><img src=""images/pattern_6.png"" style=""width: 234px; height: 230px; margin-top: -50px;""><div style=""display: flex; justify-content: space-between; margin-top: 33px;""><img src=""images/choice_trial_11.png"" style=""width: 408px; height: 417px; margin-right: 200px;""><img src=""images/choice_trial_12.png"" style=""width: 408px; height: 417px;""></div></div>",f,delaylearn,learning,trial,BMN4zMU9PwdgRSTOmX2osTnrKBC3,BMN4zMU9PwdgRSTOmX2osTnrKBC3,1.0,images/choice_trial_11.png,images/choice_trial_12.png,images/pattern_6.png,j,f,750.0,11.0,12.0,5.0,0.0,35.0,1.0,0.0,11.0,180.0,,,,,,63d3f99c57f6b09e77ce7c82,16:53:20,27/03/2024
html-keyboard-response,195,395590,0.0-81.0-1.0,,"<div style=""display: flex; flex-direction: column; align-items: center; margin-top: -40px;""><img src=""images/pattern_6.png"" style=""width: 234px; height: 230px; margin-top: -50px;""><div style=""display: flex; justify-content: space-between; margin-top: 33px;""><img src=""images/choice_trial_11.png"" style=""width: 408px; height: 417px; margin-right: 608px;""></div></div>",,delaylearn,learning,display_response,BMN4zMU9PwdgRSTOmX2osTnrKBC3,BMN4zMU9PwdgRSTOmX2osTnrKBC3,,,,,,,,,,,,,,,,,chosen stimuli: images/choice_trial_11.png,,,,,63d3f99c57f6b09e77ce7c82,16:53:20,27/03/2024
html-keyboard-response,196,396348,0.0-81.0-2.0,,,,delaylearn,learning,feedback_duration_window,BMN4zMU9PwdgRSTOmX2osTnrKBC3,BMN4zMU9PwdgRSTOmX2osTnrKBC3,,,,,,,,,,,,,,,,,,750.0,,,,63d3f99c57f6b09e77ce7c82,16:53:20,27/03/2024
html-keyboard-response,197,397855,0.0-81.0-3.0,,<div style='margin:auto;width: auto; font-size: 150%'><span style='font-weight: bold; font-size: 100px; color: red;'>0 points!</span><br><br></div>,,delaylearn,learning,feedback_image_window,BMN4zMU9PwdgRSTOmX2osTnrKBC3,BMN4zMU9PwdgRSTOmX2osTnrKBC3,,,,,,,,,,,,,,,,,,,,,,63d3f99c57f6b09e77ce7c82,16:53:20,27/03/2024
html-keyboard-response,198,399807,0.0-82.0,,"<div style=""font-size:100px;"">+</div>",,delaylearn,learning,ITI,BMN4zMU9PwdgRSTOmX2osTnrKBC3,BMN4zMU9PwdgRSTOmX2osTnrKBC3,,,,,,,,,,,,,,,,,,,1945.0,,,63d3f99c57f6b09e77ce7c82,16:53:20,27/03/2024
html-keyboard-response,199,400637,0.0-83.0-0.0,826.0,"<div style=""display: flex; flex-direction: column; align-items: center; margin-top: -40px;""><img src=""images/pattern_3.png"" style=""width: 234px; height: 230px; margin-top: -50px;""><div style=""display: flex; justify-content: space-between; margin-top: 33px;""><img src=""images/choice_trial_6.png"" style=""width: 408px; height: 417px; margin-right: 200px;""><img src=""images/choice_trial_5.png"" style=""width: 408px; height: 417px;""></div></div>",j,delaylearn,learning,trial,BMN4zMU9PwdgRSTOmX2osTnrKBC3,BMN4zMU9PwdgRSTOmX2osTnrKBC3,1.0,images/choice_trial_6.png,images/choice_trial_5.png,images/pattern_3.png,j,j,7000.0,6.0,5.0,2.0,1.0,36.0,1.0,1.0,5.0,190.0,,,,,,63d3f99c57f6b09e77ce7c82,16:53:20,27/03/2024
html-keyboard-response,200,401645,0.0-83.0-1.0,,"<div style=""display: flex; flex-direction: column; align-items: center; margin-top: -40px;""><img src=""images/pattern_3.png"" style=""width: 234px; height: 230px; margin-top: -50px;""><div style=""display: flex; justify-content: space-between; margin-top: 33px;""><img src=""images/choice_trial_5.png"" style=""width: 408px; height: 417px; margin-left:608px;""></div></div>",,delaylearn,learning,display_response,BMN4zMU9PwdgRSTOmX2osTnrKBC3,BMN4zMU9PwdgRSTOmX2osTnrKBC3,,,,,,,,,,,,,,,,,chosen stimuli: images/choice_trial_5.png,,,,,63d3f99c57f6b09e77ce7c82,16:53:20,27/03/2024
html-keyboard-response,201,408652,0.0-83.0-2.0,,,,delaylearn,learning,feedback_duration_window,BMN4zMU9PwdgRSTOmX2osTnrKBC3,BMN4zMU9PwdgRSTOmX2osTnrKBC3,,,,,,,,,,,,,,,,,,7000.0,,,,63d3f99c57f6b09e77ce7c82,16:53:20,27/03/2024
html-keyboard-response,202,410159,0.0-83.0-3.0,,<div style='margin:auto;width: auto; font-size: 150%'><span style='font-weight: bold; font-size: 100px; color: green;'>+10 points!</span><br><br></div>,,delaylearn,learning,feedback_image_window,BMN4zMU9PwdgRSTOmX2osTnrKBC3,BMN4zMU9PwdgRSTOmX2osTnrKBC3,,,,,,,,,,,,,,,,,,,,,,63d3f99c57f6b09e77ce7c82,16:53:20,27/03/2024
html-keyboard-response,203,412607,0.0-84.0,,"<div style=""font-size:100px;"">+</div>",,delaylearn,learning,ITI,BMN4zMU9PwdgRSTOmX2osTnrKBC3,BMN4zMU9PwdgRSTOmX2osTnrKBC3,,,,,,,,,,,,,,,,,,,2440.0,,,63d3f99c57f6b09e77ce7c82,16:53:20,27/03/2024
html-keyboard-response,204,414100,0.0-85.0-0.0,1486.0,"<div style=""display: flex; flex-direction: column; align-items: center; margin-top: -40px;""><img src=""images/pattern_4.png"" style=""width: 234px; height: 230px; margin-top: -50px;""><div style=""display: flex; justify-content: space-between; margin-top: 33px;""><img src=""images/choice_trial_8.png"" style=""width: 408px; height: 417px; margin-right: 200px;""><img src=""images/choice_trial_7.png"" style=""width: 408px; height: 417px;""></div></div>",f,delaylearn,learning,trial,BMN4zMU9PwdgRSTOmX2osTnrKBC3,BMN4zMU9PwdgRSTOmX2osTnrKBC3,1.0,images/choice_trial_8.png,images/choice_trial_7.png,images/pattern_4.png,f,j,7000.0,8.0,7.0,3.0,1.0,37.0,0.0,1.0,8.0,200.0,,,,,,63d3f99c57f6b09e77ce7c82,16:53:20,27/03/2024
html-keyboard-response,205,415107,0.0-85.0-1.0,,"<div style=""display: flex; flex-direction: column; align-items: center; margin-top: -40px;""><img src=""images/pattern_4.png"" style=""width: 234px; height: 230px; margin-top: -50px;""><div style=""display: flex; justify-content: space-between; margin-top: 33px;""><img src=""images/choice_trial_8.png"" style=""width: 408px; height: 417px; margin-right: 608px;""></div></div>",,delaylearn,learning,display_response,BMN4zMU9PwdgRSTOmX2osTnrKBC3,BMN4zMU9PwdgRSTOmX2osTnrKBC3,,,,,,,,,,,,,,,,,chosen stimuli: images/choice_trial_8.png,,,,,63d3f99c57f6b09e77ce7c82,16:53:20,27/03/2024
html-keyboard-response,206,422115,0.0-85.0-2.0,,,,delaylearn,learning,feedback_duration_window,BMN4zMU9PwdgRSTOmX2osTnrKBC3,BMN4zMU9PwdgRSTOmX2osTnrKBC3,,,,,,,,,,,,,,,,,,7000.0,,,,63d3f99c57f6b09e77ce7c82,16:53:20,27/03/2024
html-keyboard-response,207,423624,0.0-85.0-3.0,,<div style='margin:auto;width: auto; font-size: 150%'><span style='font-weight: bold; font-size: 100px; color: green;'>+10 points!</span><br><br></div>,,delaylearn,learning,feedback_image_window,BMN4zMU9PwdgRSTOmX2osTnrKBC3,BMN4zMU9PwdgRSTOmX2osTnrKBC3,,,,,,,,,,,,,,,,,,,,,,63d3f99c57f6b09e77ce7c82,16:53:20,27/03/2024
html-keyboard-response,208,425978,0.0-86.0,,"<div style=""font-size:100px;"">+</div>",,delaylearn,learning,ITI,BMN4zMU9PwdgRSTOmX2osTnrKBC3,BMN4zMU9PwdgRSTOmX2osTnrKBC3,,,,,,,,,,,,,,,,,,,2347.0,,,63d3f99c57f6b09e77ce7c82,16:53:20,27/03/2024
html-keyboard-response,209,427167,0.0-87.0-0.0,1183.0,"<div style=""display: flex; flex-direction: column; align-items: center; margin-top: -40px;""><img src=""images/pattern_7.png"" style=""width: 234px; height: 230px; margin-top: -50px;""><div style=""display: flex; justify-content: space-between; margin-top: 33px;""><img src=""images/choice_trial_13.png"" style=""width: 408px; height: 417px; margin-right: 200px;""><img src=""images/choice_trial_14.png"" style=""width: 408px; height: 417px;""></div></div>",f,delaylearn,learning,trial,BMN4zMU9PwdgRSTOmX2osTnrKBC3,BMN4zMU9PwdgRSTOmX2osTnrKBC3,1.0,images/choice_trial_13.png,images/choice_trial_14.png,images/pattern_7.png,f,f,750.0,13.0,14.0,6.0,0.0,38.0,1.0,1.0,13.0,210.0,,,,,,63d3f99c57f6b09e77ce7c82,16:53:20,27/03/2024
html-keyboard-response,210,428173,0.0-87.0-1.0,,"<div style=""display: flex; flex-direction: column; align-items: center; margin-top: -40px;""><img src=""images/pattern_7.png"" style=""width: 234px; height: 230px; margin-top: -50px;""><div style=""display: flex; justify-content: space-between; margin-top: 33px;""><img src=""images/choice_trial_13.png"" style=""width: 408px; height: 417px; margin-right: 608px;""></div></div>",,delaylearn,learning,display_response,BMN4zMU9PwdgRSTOmX2osTnrKBC3,BMN4zMU9PwdgRSTOmX2osTnrKBC3,,,,,,,,,,,,,,,,,chosen stimuli: images/choice_trial_13.png,,,,,63d3f99c57f6b09e77ce7c82,16:53:20,27/03/2024
html-keyboard-response,211,428930,0.0-87.0-2.0,,,,delaylearn,learning,feedback_duration_window,BMN4zMU9PwdgRSTOmX2osTnrKBC3,BMN4zMU9PwdgRSTOmX2osTnrKBC3,,,,,,,,,,,,,,,,,,750.0,,,,63d3f99c57f6b09e77ce7c82,16:53:20,27/03/2024
html-keyboard-response,212,430437,0.0-87.0-3.0,,<div style='margin:auto;width: auto; font-size: 150%'><span style='font-weight: bold; font-size: 100px; color: green;'>+10 points!</span><br><br></div>,,delaylearn,learning,feedback_image_window,BMN4zMU9PwdgRSTOmX2osTnrKBC3,BMN4zMU9PwdgRSTOmX2osTnrKBC3,,,,,,,,,,,,,,,,,,,,,,63d3f99c57f6b09e77ce7c82,16:53:20,27/03/2024
html-keyboard-response,213,432595,0.0-88.0,,"<div style=""font-size:100px;"">+</div>",,delaylearn,learning,ITI,BMN4zMU9PwdgRSTOmX2osTnrKBC3,BMN4zMU9PwdgRSTOmX2osTnrKBC3,,,,,,,,,,,,,,,,,,,2151.0,,,63d3f99c57f6b09e77ce7c82,16:53:20,27/03/2024
html-keyboard-response,214,434165,0.0-89.0-0.0,1566.0,"<div style=""display: flex; flex-direction: column; align-items: center; margin-top: -40px;""><img src=""images/pattern_1.png"" style=""width: 234px; height: 230px; margin-top: -50px;""><div style=""display: flex; justify-content: space-between; margin-top: 33px;""><img src=""images/choice_trial_1.png"" style=""width: 408px; height: 417px; margin-right: 200px;""><img src=""images/choice_trial_2.png"" style=""width: 408px; height: 417px;""></div></div>",j,delaylearn,learning,trial,BMN4zMU9PwdgRSTOmX2osTnrKBC3,BMN4zMU9PwdgRSTOmX2osTnrKBC3,1.0,images/choice_trial_1.png,images/choice_trial_2.png,images/pattern_1.png,f,f,7000.0,1.0,2.0,1.0,0.0,39.0,0.0,0.0,2.0,210.0,,,,,,63d3f99c57f6b09e77ce7c82,16:53:20,27/03/2024
html-keyboard-response,215,435170,0.0-89.0-1.0,,"<div style=""display: flex; flex-direction: column; align-items: center; margin-top: -40px;""><img src=""images/pattern_1.png"" style=""width: 234px; height: 230px; margin-top: -50px;""><div style=""display: flex; justify-content: space-between; margin-top: 33px;""><img src=""images/choice_trial_2.png"" style=""width: 408px; height: 417px; margin-left:608px;""></div></div>",,delaylearn,learning,display_response,BMN4zMU9PwdgRSTOmX2osTnrKBC3,BMN4zMU9PwdgRSTOmX2osTnrKBC3,,,,,,,,,,,,,,,,,chosen stimuli: images/choice_trial_2.png,,,,,63d3f99c57f6b09e77ce7c82,16:53:20,27/03/2024
html-keyboard-response,216,442180,0.0-89.0-2.0,,,,delaylearn,learning,feedback_duration_window,BMN4zMU9PwdgRSTOmX2osTnrKBC3,BMN4zMU9PwdgRSTOmX2osTnrKBC3,,,,,,,,,,,,,,,,,,7000.0,,,,63d3f99c57f6b09e77ce7c82,16:53:20,27/03/2024
html-keyboard-response,217,443686,0.0-89.0-3.0,,<div style='margin:auto;width: auto; font-size: 150%'><span style='font-weight: bold; font-size: 100px; color: red;'>0 points!</span><br><br></div>,,delaylearn,learning,feedback_image_window,BMN4zMU9PwdgRSTOmX2osTnrKBC3,BMN4zMU9PwdgRSTOmX2osTnrKBC3,,,,,,,,,,,,,,,,,,,,,,63d3f99c57f6b09e77ce7c82,16:53:20,27/03/2024
html-keyboard-response,218,444190,0.0-90.0-0.0,,,,,,mood_trial_fixation,BMN4zMU9PwdgRSTOmX2osTnrKBC3,,,,,,,,,,,,,,,,,,,,,,,63d3f99c57f6b09e77ce7c82,16:53:20,27/03/2024
lmdlab-html-vas-response,219,447759,0.0-90.0-1.0,2560.0,How happy are you right now?,0.1542056074766355,delaylearn,learning,mood_trial,BMN4zMU9PwdgRSTOmX2osTnrKBC3,BMN4zMU9PwdgRSTOmX2osTnrKBC3,,,,,,,,,,,,,,,,,,,,"['Very unhappy', 'Very happy']",,63d3f99c57f6b09e77ce7c82,16:53:20,27/03/2024
html-keyboard-response,220,449395,0.0-91.0,,"<div style=""font-size:100px;"">+</div>",,delaylearn,learning,ITI,BMN4zMU9PwdgRSTOmX2osTnrKBC3,BMN4zMU9PwdgRSTOmX2osTnrKBC3,,,,,,,,,,,,,,,,,,,1629.0,,,63d3f99c57f6b09e77ce7c82,16:53:20,27/03/2024
html-keyboard-response,221,450522,0.0-92.0-0.0,1120.0,"<div style=""display: flex; flex-direction: column; align-items: center; margin-top: -40px;""><img src=""images/pattern_3.png"" style=""width: 234px; height: 230px; margin-top: -50px;""><div style=""display: flex; justify-content: space-between; margin-top: 33px;""><img src=""images/choice_trial_5.png"" style=""width: 408px; height: 417px; margin-right: 200px;""><img src=""images/choice_trial_6.png"" style=""width: 408px; height: 417px;""></div></div>",f,delaylearn,learning,trial,BMN4zMU9PwdgRSTOmX2osTnrKBC3,BMN4zMU9PwdgRSTOmX2osTnrKBC3,1.0,images/choice_trial_5.png,images/choice_trial_6.png,images/pattern_3.png,j,f,7000.0,5.0,6.0,2.0,0.0,40.0,1.0,0.0,5.0,210.0,,,,,,63d3f99c57f6b09e77ce7c82,16:53:20,27/03/2024
html-keyboard-response,222,451529,0.0-92.0-1.0,,"<div style=""display: flex; flex-direction: column; align-items: center; margin-top: -40px;""><img src=""images/pattern_3.png"" style=""width: 234px; height: 230px; margin-top: -50px;""><div style=""display: flex; justify-content: space-between; margin-top: 33px;""><img src=""images/choice_trial_5.png"" style=""width: 408px; height: 417px; margin-right: 608px;""></div></div>",,delaylearn,learning,display_response,BMN4zMU9PwdgRSTOmX2osTnrKBC3,BMN4zMU9PwdgRSTOmX2osTnrKBC3,,,,,,,,,,,,,,,,,chosen stimuli: images/choice_trial_5.png,,,,,63d3f99c57f6b09e77ce7c82,16:53:20,27/03/2024
html-keyboard-response,223,458536,0.0-92.0-2.0,,,,delaylearn,learning,feedback_duration_window,BMN4zMU9PwdgRSTOmX2osTnrKBC3,BMN4zMU9PwdgRSTOmX2osTnrKBC3,,,,,,,,,,,,,,,,,,7000.0,,,,63d3f99c57f6b09e77ce7c82,16:53:20,27/03/2024
html-keyboard-response,224,460045,0.0-92.0-3.0,,<div style='margin:auto;width: auto; font-size: 150%'><span style='font-weight: bold; font-size: 100px; color: red;'>0 points!</span><br><br></div>,,delaylearn,learning,feedback_image_window,BMN4zMU9PwdgRSTOmX2osTnrKBC3,BMN4zMU9PwdgRSTOmX2osTnrKBC3,,,,,,,,,,,,,,,,,,,,,,63d3f99c57f6b09e77ce7c82,16:53:20,27/03/2024
html-keyboard-response,225,461692,0.0-93.0,,"<div style=""font-size:100px;"">+</div>",,delaylearn,learning,ITI,BMN4zMU9PwdgRSTOmX2osTnrKBC3,BMN4zMU9PwdgRSTOmX2osTnrKBC3,,,,,,,,,,,,,,,,,,,1644.0,,,63d3f99c57f6b09e77ce7c82,16:53:20,27/03/2024
html-keyboard-response,226,462820,0.0-94.0-0.0,1121.0,"<div style=""display: flex; flex-direction: column; align-items: center; margin-top: -40px;""><img src=""images/pattern_7.png"" style=""width: 234px; height: 230px; margin-top: -50px;""><div style=""display: flex; justify-content: space-between; margin-top: 33px;""><img src=""images/choice_trial_14.png"" style=""width: 408px; height: 417px; margin-right: 200px;""><img src=""images/choice_trial_13.png"" style=""width: 408px; height: 417px;""></div></div>",j,delaylearn,learning,trial,BMN4zMU9PwdgRSTOmX2osTnrKBC3,BMN4zMU9PwdgRSTOmX2osTnrKBC3,1.0,images/choice_trial_14.png,images/choice_trial_13.png,images/pattern_7.png,j,j,750.0,14.0,13.0,6.0,1.0,41.0,1.0,1.0,13.0,220.0,,,,,,63d3f99c57f6b09e77ce7c82,16:53:20,27/03/2024
html-keyboard-response,227,463827,0.0-94.0-1.0,,"<div style=""display: flex; flex-direction: column; align-items: center; margin-top: -40px;""><img src=""images/pattern_7.png"" style=""width: 234px; height: 230px; margin-top: -50px;""><div style=""display: flex; justify-content: space-between; margin-top: 33px;""><img src=""images/choice_trial_13.png"" style=""width: 408px; height: 417px; margin-left:608px;""></div></div>",,delaylearn,learning,display_response,BMN4zMU9PwdgRSTOmX2osTnrKBC3,BMN4zMU9PwdgRSTOmX2osTnrKBC3,,,,,,,,,,,,,,,,,chosen stimuli: images/choice_trial_13.png,,,,,63d3f99c57f6b09e77ce7c82,16:53:20,27/03/2024
html-keyboard-response,228,464580,0.0-94.0-2.0,,,,delaylearn,learning,feedback_duration_window,BMN4zMU9PwdgRSTOmX2osTnrKBC3,BMN4zMU9PwdgRSTOmX2osTnrKBC3,,,,,,,,,,,,,,,,,,750.0,,,,63d3f99c57f6b09e77ce7c82,16:53:20,27/03/2024
html-keyboard-response,229,466086,0.0-94.0-3.0,,<div style='margin:auto;width: auto; font-size: 150%'><span style='font-weight: bold; font-size: 100px; color: green;'>+10 points!</span><br><br></div>,,delaylearn,learning,feedback_image_window,BMN4zMU9PwdgRSTOmX2osTnrKBC3,BMN4zMU9PwdgRSTOmX2osTnrKBC3,,,,,,,,,,,,,,,,,,,,,,63d3f99c57f6b09e77ce7c82,16:53:20,27/03/2024
html-keyboard-response,230,468232,0.0-95.0,,"<div style=""font-size:100px;"">+</div>",,delaylearn,learning,ITI,BMN4zMU9PwdgRSTOmX2osTnrKBC3,BMN4zMU9PwdgRSTOmX2osTnrKBC3,,,,,,,,,,,,,,,,,,,2140.0,,,63d3f99c57f6b09e77ce7c82,16:53:20,27/03/2024
html-keyboard-response,231,469129,0.0-96.0-0.0,891.0,"<div style=""display: flex; flex-direction: column; align-items: center; margin-top: -40px;""><img src=""images/pattern_5.png"" style=""width: 234px; height: 230px; margin-top: -50px;""><div style=""display: flex; justify-content: space-between; margin-top: 33px;""><img src=""images/choice_trial_10.png"" style=""width: 408px; height: 417px; margin-right: 200px;""><img src=""images/choice_trial_9.png"" style=""width: 408px; height: 417px;""></div></div>",j,delaylearn,learning,trial,BMN4zMU9PwdgRSTOmX2osTnrKBC3,BMN4zMU9PwdgRSTOmX2osTnrKBC3,1.0,images/choice_trial_10.png,images/choice_trial_9.png,images/pattern_5.png,j,j,750.0,10.0,9.0,4.0,1.0,42.0,1.0,1.0,9.0,230.0,,,,,,63d3f99c57f6b09e77ce7c82,16:53:20,27/03/2024
