trial_type,trial_index,time_elapsed,internal_node_id,rt,stimulus,response,exp_name,exp_stage,test_part,subjectID,databaseID,counterbal,choice_stimuli_1,choice_stimuli_2,pattern_stimuli,rewarded_answer,correct_answer,feedback_duration_times,stim_left,stim_right,pair,leftright_counter,trial,response_correct,response_rewarded,chosen_stim,counter,displayed_choice,feedback_durations,ITI_duration,labels,rest_warning,prolificID,start_time,date
pavlovia,0,508,0.0-0.0,,,,,,,DZVOo0AA4lTmWVxv6XoOgE5gLH63,,,,,,,,,,,,,,,,,,,,,,,65562141ae0a6660324ce572,09:06:07,27/02/2024
html-keyboard-response,1,3511,0.0-1.0,,"<div style=""font-size:100px;"">+</div>",,delaylearn,learning,pre_fixation,DZVOo0AA4lTmWVxv6XoOgE5gLH63,,,,,,,,,,,,,,,,,,,,,,,65562141ae0a6660324ce572,09:06:07,27/02/2024
html-keyboard-response,2,5239,0.0-2.0-0.0,1721.6999999997206,"<div style=""display: flex; flex-direction: column; align-items: center; margin-top: -40px;""><img src=""images/demo_images/pattern_1.png"" style=""width: 234px; height: 230px; margin-top: -50px;""><div style=""display: flex; justify-content: space-between; margin-top: 33px;""><img src=""images/demo_images/choice_trial_2.png"" style=""width: 408px; height: 417px; margin-right: 200px;""><img src=""images/demo_images/choice_trial_1.png"" style=""width: 408px; height: 417px;""></div></div>",f,delaylearn,learning,trial,DZVOo0AA4lTmWVxv6XoOgE5gLH63,DZVOo0AA4lTmWVxv6XoOgE5gLH63,1.0,images/demo_images/choice_trial_2.png,images/demo_images/choice_trial_1.png,images/demo_images/pattern_1.png,j,j,3000.0,2.0,1.0,20.0,1.0,1.0,0.0,0.0,2.0,0.0,,,,,,65562141ae0a6660324ce572,09:06:07,27/02/2024
html-keyboard-response,3,6244,0.0-2.0-1.0,,"<div style=""display: flex; flex-direction: column; align-items: center; margin-top: -40px;""><img src=""images/demo_images/pattern_1.png"" style=""width: 234px; height: 230px; margin-top: -50px;""><div style=""display: flex; justify-content: space-between; margin-top: 33px;""><img src=""images/demo_images/choice_trial_2.png"" style=""width: 408px; height: 417px; margin-right: 608px;""></div></div>",,delaylearn,learning,display_response,DZVOo0AA4lTmWVxv6XoOgE5gLH63,DZVOo0AA4lTmWVxv6XoOgE5gLH63,,,,,,,,,,,,,,,,,chosen stimuli: images/demo_images/choice_trial_2.png,,,,,65562141ae0a6660324ce572,09:06:07,27/02/2024
html-keyboard-response,4,9248,0.0-2.0-2.0,,,,delaylearn,learning,feedback_duration_window,DZVOo0AA4lTmWVxv6XoOgE5gLH63,DZVOo0AA4lTmWVxv6XoOgE5gLH63,,,,,,,,,,,,,,,,,,3000.0,,,,65562141ae0a6660324ce572,09:06:07,27/02/2024
html-keyboard-response,5,10752,0.0-2.0-3.0,,<div style='margin:auto;width: auto; font-size: 150%'><span style='font-weight: bold; font-size: 100px; color: red;'>0 points!</span><br><br></div>,,delaylearn,learning,feedback_image_window,DZVOo0AA4lTmWVxv6XoOgE5gLH63,DZVOo0AA4lTmWVxv6XoOgE5gLH63,,,,,,,,,,,,,,,,,,,,,,65562141ae0a6660324ce572,09:06:07,27/02/2024
html-keyboard-response,6,12891,0.0-3.0,,"<div style=""font-size:100px;"">+</div>",,delaylearn,learning,ITI,DZVOo0AA4lTmWVxv6XoOgE5gLH63,DZVOo0AA4lTmWVxv6XoOgE5gLH63,,,,,,,,,,,,,,,,,,,2137.0,,,65562141ae0a6660324ce572,09:06:07,27/02/2024
html-keyboard-response,7,13687,0.0-4.0-0.0,790.7000000001863,"<div style=""display: flex; flex-direction: column; align-items: center; margin-top: -40px;""><img src=""images/demo_images/pattern_1.png"" style=""width: 234px; height: 230px; margin-top: -50px;""><div style=""display: flex; justify-content: space-between; margin-top: 33px;""><img src=""images/demo_images/choice_trial_2.png"" style=""width: 408px; height: 417px; margin-right: 200px;""><img src=""images/demo_images/choice_trial_1.png"" style=""width: 408px; height: 417px;""></div></div>",j,delaylearn,learning,trial,DZVOo0AA4lTmWVxv6XoOgE5gLH63,DZVOo0AA4lTmWVxv6XoOgE5gLH63,1.0,images/demo_images/choice_trial_2.png,images/demo_images/choice_trial_1.png,images/demo_images/pattern_1.png,j,j,3000.0,2.0,1.0,20.0,1.0,2.0,1.0,1.0,1.0,10.0,,,,,,65562141ae0a6660324ce572,09:06:07,27/02/2024
html-keyboard-response,8,14691,0.0-4.0-1.0,,"<div style=""display: flex; flex-direction: column; align-items: center; margin-top: -40px;""><img src=""images/demo_images/pattern_1.png"" style=""width: 234px; height: 230px; margin-top: -50px;""><div style=""display: flex; justify-content: space-between; margin-top: 33px;""><img src=""images/demo_images/choice_trial_1.png"" style=""width: 408px; height: 417px; margin-left:608px;""></div></div>",,delaylearn,learning,display_response,DZVOo0AA4lTmWVxv6XoOgE5gLH63,DZVOo0AA4lTmWVxv6XoOgE5gLH63,,,,,,,,,,,,,,,,,chosen stimuli: images/demo_images/choice_trial_1.png,,,,,65562141ae0a6660324ce572,09:06:07,27/02/2024
html-keyboard-response,9,17693,0.0-4.0-2.0,,,,delaylearn,learning,feedback_duration_window,DZVOo0AA4lTmWVxv6XoOgE5gLH63,DZVOo0AA4lTmWVxv6XoOgE5gLH63,,,,,,,,,,,,,,,,,,3000.0,,,,65562141ae0a6660324ce572,09:06:07,27/02/2024
html-keyboard-response,10,19196,0.0-4.0-3.0,,<div style='margin:auto;width: auto; font-size: 150%'><span style='font-weight: bold; font-size: 100px; color: green;'>+10 points!</span><br><br></div>,,delaylearn,learning,feedback_image_window,DZVOo0AA4lTmWVxv6XoOgE5gLH63,DZVOo0AA4lTmWVxv6XoOgE5gLH63,,,,,,,,,,,,,,,,,,,,,,65562141ae0a6660324ce572,09:06:07,27/02/2024
html-keyboard-response,11,21075,0.0-5.0,,"<div style=""font-size:100px;"">+</div>",,delaylearn,learning,ITI,DZVOo0AA4lTmWVxv6XoOgE5gLH63,DZVOo0AA4lTmWVxv6XoOgE5gLH63,,,,,,,,,,,,,,,,,,,1876.0,,,65562141ae0a6660324ce572,09:06:07,27/02/2024
html-keyboard-response,12,22286,0.0-6.0-0.0,1206.5,"<div style=""display: flex; flex-direction: column; align-items: center; margin-top: -40px;""><img src=""images/demo_images/pattern_1.png"" style=""width: 234px; height: 230px; margin-top: -50px;""><div style=""display: flex; justify-content: space-between; margin-top: 33px;""><img src=""images/demo_images/choice_trial_1.png"" style=""width: 408px; height: 417px; margin-right: 200px;""><img src=""images/demo_images/choice_trial_2.png"" style=""width: 408px; height: 417px;""></div></div>",f,delaylearn,learning,trial,DZVOo0AA4lTmWVxv6XoOgE5gLH63,DZVOo0AA4lTmWVxv6XoOgE5gLH63,1.0,images/demo_images/choice_trial_1.png,images/demo_images/choice_trial_2.png,images/demo_images/pattern_1.png,j,f,3000.0,1.0,2.0,20.0,0.0,3.0,1.0,0.0,1.0,10.0,,,,,,65562141ae0a6660324ce572,09:06:07,27/02/2024
html-keyboard-response,13,23290,0.0-6.0-1.0,,"<div style=""display: flex; flex-direction: column; align-items: center; margin-top: -40px;""><img src=""images/demo_images/pattern_1.png"" style=""width: 234px; height: 230px; margin-top: -50px;""><div style=""display: flex; justify-content: space-between; margin-top: 33px;""><img src=""images/demo_images/choice_trial_1.png"" style=""width: 408px; height: 417px; margin-right: 608px;""></div></div>",,delaylearn,learning,display_response,DZVOo0AA4lTmWVxv6XoOgE5gLH63,DZVOo0AA4lTmWVxv6XoOgE5gLH63,,,,,,,,,,,,,,,,,chosen stimuli: images/demo_images/choice_trial_1.png,,,,,65562141ae0a6660324ce572,09:06:07,27/02/2024
html-keyboard-response,14,26292,0.0-6.0-2.0,,,,delaylearn,learning,feedback_duration_window,DZVOo0AA4lTmWVxv6XoOgE5gLH63,DZVOo0AA4lTmWVxv6XoOgE5gLH63,,,,,,,,,,,,,,,,,,3000.0,,,,65562141ae0a6660324ce572,09:06:07,27/02/2024
html-keyboard-response,15,27795,0.0-6.0-3.0,,<div style='margin:auto;width: auto; font-size: 150%'><span style='font-weight: bold; font-size: 100px; color: red;'>0 points!</span><br><br></div>,,delaylearn,learning,feedback_image_window,DZVOo0AA4lTmWVxv6XoOgE5gLH63,DZVOo0AA4lTmWVxv6XoOgE5gLH63,,,,,,,,,,,,,,,,,,,,,,65562141ae0a6660324ce572,09:06:07,27/02/2024
html-keyboard-response,16,29751,0.0-7.0,,"<div style=""font-size:100px;"">+</div>",,delaylearn,learning,ITI,DZVOo0AA4lTmWVxv6XoOgE5gLH63,DZVOo0AA4lTmWVxv6XoOgE5gLH63,,,,,,,,,,,,,,,,,,,1954.0,,,65562141ae0a6660324ce572,09:06:07,27/02/2024
html-keyboard-response,17,32034,0.0-8.0-0.0,2277.399999999907,"<div style=""display: flex; flex-direction: column; align-items: center; margin-top: -40px;""><img src=""images/demo_images/pattern_1.png"" style=""width: 234px; height: 230px; margin-top: -50px;""><div style=""display: flex; justify-content: space-between; margin-top: 33px;""><img src=""images/demo_images/choice_trial_1.png"" style=""width: 408px; height: 417px; margin-right: 200px;""><img src=""images/demo_images/choice_trial_2.png"" style=""width: 408px; height: 417px;""></div></div>",f,delaylearn,learning,trial,DZVOo0AA4lTmWVxv6XoOgE5gLH63,DZVOo0AA4lTmWVxv6XoOgE5gLH63,1.0,images/demo_images/choice_trial_1.png,images/demo_images/choice_trial_2.png,images/demo_images/pattern_1.png,f,f,3000.0,1.0,2.0,20.0,0.0,4.0,1.0,1.0,1.0,20.0,,,,,,65562141ae0a6660324ce572,09:06:07,27/02/2024
html-keyboard-response,18,33038,0.0-8.0-1.0,,"<div style=""display: flex; flex-direction: column; align-items: center; margin-top: -40px;""><img src=""images/demo_images/pattern_1.png"" style=""width: 234px; height: 230px; margin-top: -50px;""><div style=""display: flex; justify-content: space-between; margin-top: 33px;""><img src=""images/demo_images/choice_trial_1.png"" style=""width: 408px; height: 417px; margin-right: 608px;""></div></div>",,delaylearn,learning,display_response,DZVOo0AA4lTmWVxv6XoOgE5gLH63,DZVOo0AA4lTmWVxv6XoOgE5gLH63,,,,,,,,,,,,,,,,,chosen stimuli: images/demo_images/choice_trial_1.png,,,,,65562141ae0a6660324ce572,09:06:07,27/02/2024
html-keyboard-response,19,36041,0.0-8.0-2.0,,,,delaylearn,learning,feedback_duration_window,DZVOo0AA4lTmWVxv6XoOgE5gLH63,DZVOo0AA4lTmWVxv6XoOgE5gLH63,,,,,,,,,,,,,,,,,,3000.0,,,,65562141ae0a6660324ce572,09:06:07,27/02/2024
html-keyboard-response,20,37543,0.0-8.0-3.0,,<div style='margin:auto;width: auto; font-size: 150%'><span style='font-weight: bold; font-size: 100px; color: green;'>+10 points!</span><br><br></div>,,delaylearn,learning,feedback_image_window,DZVOo0AA4lTmWVxv6XoOgE5gLH63,DZVOo0AA4lTmWVxv6XoOgE5gLH63,,,,,,,,,,,,,,,,,,,,,,65562141ae0a6660324ce572,09:06:07,27/02/2024
html-keyboard-response,21,38046,0.0-9.0-0.0,,,,,,mood_trial_fixation,DZVOo0AA4lTmWVxv6XoOgE5gLH63,,,,,,,,,,,,,,,,,,,,,,,65562141ae0a6660324ce572,09:06:07,27/02/2024
lmdlab-html-vas-response,22,42497,0.0-9.0-1.0,3435.0,How happy are you right now?,0.4891661862941236,delaylearn,learning,mood_trial,DZVOo0AA4lTmWVxv6XoOgE5gLH63,DZVOo0AA4lTmWVxv6XoOgE5gLH63,,,,,,,,,,,,,,,,,,,,"['Very unhappy', 'Very happy']",,65562141ae0a6660324ce572,09:06:07,27/02/2024
html-keyboard-response,23,44592,0.0-10.0,,"<div style=""font-size:100px;"">+</div>",,delaylearn,learning,ITI,DZVOo0AA4lTmWVxv6XoOgE5gLH63,DZVOo0AA4lTmWVxv6XoOgE5gLH63,,,,,,,,,,,,,,,,,,,2093.0,,,65562141ae0a6660324ce572,09:06:07,27/02/2024
html-keyboard-response,24,46133,0.0-11.0-0.0,1536.1000000000931,"<div style=""display: flex; flex-direction: column; align-items: center; margin-top: -40px;""><img src=""images/demo_images/pattern_1.png"" style=""width: 234px; height: 230px; margin-top: -50px;""><div style=""display: flex; justify-content: space-between; margin-top: 33px;""><img src=""images/demo_images/choice_trial_2.png"" style=""width: 408px; height: 417px; margin-right: 200px;""><img src=""images/demo_images/choice_trial_1.png"" style=""width: 408px; height: 417px;""></div></div>",j,delaylearn,learning,trial,DZVOo0AA4lTmWVxv6XoOgE5gLH63,DZVOo0AA4lTmWVxv6XoOgE5gLH63,1.0,images/demo_images/choice_trial_2.png,images/demo_images/choice_trial_1.png,images/demo_images/pattern_1.png,j,j,3000.0,2.0,1.0,20.0,1.0,5.0,1.0,1.0,1.0,30.0,,,,,,65562141ae0a6660324ce572,09:06:07,27/02/2024
html-keyboard-response,25,47138,0.0-11.0-1.0,,"<div style=""display: flex; flex-direction: column; align-items: center; margin-top: -40px;""><img src=""images/demo_images/pattern_1.png"" style=""width: 234px; height: 230px; margin-top: -50px;""><div style=""display: flex; justify-content: space-between; margin-top: 33px;""><img src=""images/demo_images/choice_trial_1.png"" style=""width: 408px; height: 417px; margin-left:608px;""></div></div>",,delaylearn,learning,display_response,DZVOo0AA4lTmWVxv6XoOgE5gLH63,DZVOo0AA4lTmWVxv6XoOgE5gLH63,,,,,,,,,,,,,,,,,chosen stimuli: images/demo_images/choice_trial_1.png,,,,,65562141ae0a6660324ce572,09:06:07,27/02/2024
html-keyboard-response,26,50141,0.0-11.0-2.0,,,,delaylearn,learning,feedback_duration_window,DZVOo0AA4lTmWVxv6XoOgE5gLH63,DZVOo0AA4lTmWVxv6XoOgE5gLH63,,,,,,,,,,,,,,,,,,3000.0,,,,65562141ae0a6660324ce572,09:06:07,27/02/2024
html-keyboard-response,27,51644,0.0-11.0-3.0,,<div style='margin:auto;width: auto; font-size: 150%'><span style='font-weight: bold; font-size: 100px; color: green;'>+10 points!</span><br><br></div>,,delaylearn,learning,feedback_image_window,DZVOo0AA4lTmWVxv6XoOgE5gLH63,DZVOo0AA4lTmWVxv6XoOgE5gLH63,,,,,,,,,,,,,,,,,,,,,,65562141ae0a6660324ce572,09:06:07,27/02/2024
html-keyboard-response,28,53787,0.0-12.0,,"<div style=""font-size:100px;"">+</div>",,delaylearn,learning,ITI,DZVOo0AA4lTmWVxv6XoOgE5gLH63,DZVOo0AA4lTmWVxv6XoOgE5gLH63,,,,,,,,,,,,,,,,,,,2140.0,,,65562141ae0a6660324ce572,09:06:07,27/02/2024
html-keyboard-response,29,55717,0.0-13.0-0.0,1924.9000000003725,"<div style=""display: flex; flex-direction: column; align-items: center; margin-top: -40px;""><img src=""images/demo_images/pattern_1.png"" style=""width: 234px; height: 230px; margin-top: -50px;""><div style=""display: flex; justify-content: space-between; margin-top: 33px;""><img src=""images/demo_images/choice_trial_1.png"" style=""width: 408px; height: 417px; margin-right: 200px;""><img src=""images/demo_images/choice_trial_2.png"" style=""width: 408px; height: 417px;""></div></div>",f,delaylearn,learning,trial,DZVOo0AA4lTmWVxv6XoOgE5gLH63,DZVOo0AA4lTmWVxv6XoOgE5gLH63,1.0,images/demo_images/choice_trial_1.png,images/demo_images/choice_trial_2.png,images/demo_images/pattern_1.png,f,f,3000.0,1.0,2.0,20.0,0.0,6.0,1.0,1.0,1.0,40.0,,,,,,65562141ae0a6660324ce572,09:06:07,27/02/2024
html-keyboard-response,30,56721,0.0-13.0-1.0,,"<div style=""display: flex; flex-direction: column; align-items: center; margin-top: -40px;""><img src=""images/demo_images/pattern_1.png"" style=""width: 234px; height: 230px; margin-top: -50px;""><div style=""display: flex; justify-content: space-between; margin-top: 33px;""><img src=""images/demo_images/choice_trial_1.png"" style=""width: 408px; height: 417px; margin-right: 608px;""></div></div>",,delaylearn,learning,display_response,DZVOo0AA4lTmWVxv6XoOgE5gLH63,DZVOo0AA4lTmWVxv6XoOgE5gLH63,,,,,,,,,,,,,,,,,chosen stimuli: images/demo_images/choice_trial_1.png,,,,,65562141ae0a6660324ce572,09:06:07,27/02/2024
html-keyboard-response,31,59724,0.0-13.0-2.0,,,,delaylearn,learning,feedback_duration_window,DZVOo0AA4lTmWVxv6XoOgE5gLH63,DZVOo0AA4lTmWVxv6XoOgE5gLH63,,,,,,,,,,,,,,,,,,3000.0,,,,65562141ae0a6660324ce572,09:06:07,27/02/2024
html-keyboard-response,32,61226,0.0-13.0-3.0,,<div style='margin:auto;width: auto; font-size: 150%'><span style='font-weight: bold; font-size: 100px; color: green;'>+10 points!</span><br><br></div>,,delaylearn,learning,feedback_image_window,DZVOo0AA4lTmWVxv6XoOgE5gLH63,DZVOo0AA4lTmWVxv6XoOgE5gLH63,,,,,,,,,,,,,,,,,,,,,,65562141ae0a6660324ce572,09:06:07,27/02/2024
html-button-response,33,80002,0.0-14.0,18772.5,"
  <div style=""display: flex; align-items: center; justify-content: center; height: 80vh;"">
  <div>
          <img src=""images/inst_demo_finish.png"" style=""width: 80vw; height:auto;"">
          <br><br>
      </div>
      <br><br>
  </div>",0,,,,DZVOo0AA4lTmWVxv6XoOgE5gLH63,,,,,,,,,,,,,,,,,,,,,,,65562141ae0a6660324ce572,09:06:07,27/02/2024
html-keyboard-response,34,82875,0.0-15.0,2871.100000000093,"
  <div style=""display: flex; align-items: center; justify-content: center; height: 80vh;"">
  <div>
          <img src=""images/inst_6.png"" style=""width: 80vw; height:auto;"">
          <br><br>
      </div>
      <br><br>
  </div>",f,,,,DZVOo0AA4lTmWVxv6XoOgE5gLH63,,,,,,,,,,,,,,,,,,,,,,,65562141ae0a6660324ce572,09:06:07,27/02/2024
html-keyboard-response,35,85878,0.0-16.0,,"<div style=""font-size:100px;"">+</div>",,delaylearn,learning,pre_fixation,DZVOo0AA4lTmWVxv6XoOgE5gLH63,,,,,,,,,,,,,,,,,,,,,,,65562141ae0a6660324ce572,09:06:07,27/02/2024
html-keyboard-response,36,88109,0.0-17.0,,"<div style=""font-size:100px;"">+</div>",,delaylearn,learning,ITI,DZVOo0AA4lTmWVxv6XoOgE5gLH63,DZVOo0AA4lTmWVxv6XoOgE5gLH63,,,,,,,,,,,,,,,,,,,2228.0,,,65562141ae0a6660324ce572,09:06:07,27/02/2024
html-keyboard-response,37,89925,0.0-18.0-0.0,1810.9000000003725,"<div style=""display: flex; flex-direction: column; align-items: center; margin-top: -40px;""><img src=""images/pattern_3.png"" style=""width: 234px; height: 230px; margin-top: -50px;""><div style=""display: flex; justify-content: space-between; margin-top: 33px;""><img src=""images/choice_trial_5.png"" style=""width: 408px; height: 417px; margin-right: 200px;""><img src=""images/choice_trial_6.png"" style=""width: 408px; height: 417px;""></div></div>",j,delaylearn,learning,trial,DZVOo0AA4lTmWVxv6XoOgE5gLH63,DZVOo0AA4lTmWVxv6XoOgE5gLH63,1.0,images/choice_trial_5.png,images/choice_trial_6.png,images/pattern_3.png,f,f,7000.0,5.0,6.0,2.0,0.0,7.0,0.0,0.0,6.0,40.0,,,,,,65562141ae0a6660324ce572,09:06:07,27/02/2024
html-keyboard-response,38,90929,0.0-18.0-1.0,,"<div style=""display: flex; flex-direction: column; align-items: center; margin-top: -40px;""><img src=""images/pattern_3.png"" style=""width: 234px; height: 230px; margin-top: -50px;""><div style=""display: flex; justify-content: space-between; margin-top: 33px;""><img src=""images/choice_trial_6.png"" style=""width: 408px; height: 417px; margin-left:608px;""></div></div>",,delaylearn,learning,display_response,DZVOo0AA4lTmWVxv6XoOgE5gLH63,DZVOo0AA4lTmWVxv6XoOgE5gLH63,,,,,,,,,,,,,,,,,chosen stimuli: images/choice_trial_6.png,,,,,65562141ae0a6660324ce572,09:06:07,27/02/2024
html-keyboard-response,39,97932,0.0-18.0-2.0,,,,delaylearn,learning,feedback_duration_window,DZVOo0AA4lTmWVxv6XoOgE5gLH63,DZVOo0AA4lTmWVxv6XoOgE5gLH63,,,,,,,,,,,,,,,,,,7000.0,,,,65562141ae0a6660324ce572,09:06:07,27/02/2024
html-keyboard-response,40,99435,0.0-18.0-3.0,,<div style='margin:auto;width: auto; font-size: 150%'><span style='font-weight: bold; font-size: 100px; color: red;'>0 points!</span><br><br></div>,,delaylearn,learning,feedback_image_window,DZVOo0AA4lTmWVxv6XoOgE5gLH63,DZVOo0AA4lTmWVxv6XoOgE5gLH63,,,,,,,,,,,,,,,,,,,,,,65562141ae0a6660324ce572,09:06:07,27/02/2024
html-keyboard-response,41,101118,0.0-19.0,,"<div style=""font-size:100px;"">+</div>",,delaylearn,learning,ITI,DZVOo0AA4lTmWVxv6XoOgE5gLH63,DZVOo0AA4lTmWVxv6XoOgE5gLH63,,,,,,,,,,,,,,,,,,,1681.0,,,65562141ae0a6660324ce572,09:06:07,27/02/2024
html-keyboard-response,42,102910,0.0-20.0-0.0,1787.3000000002794,"<div style=""display: flex; flex-direction: column; align-items: center; margin-top: -40px;""><img src=""images/pattern_7.png"" style=""width: 234px; height: 230px; margin-top: -50px;""><div style=""display: flex; justify-content: space-between; margin-top: 33px;""><img src=""images/choice_trial_14.png"" style=""width: 408px; height: 417px; margin-right: 200px;""><img src=""images/choice_trial_13.png"" style=""width: 408px; height: 417px;""></div></div>",f,delaylearn,learning,trial,DZVOo0AA4lTmWVxv6XoOgE5gLH63,DZVOo0AA4lTmWVxv6XoOgE5gLH63,1.0,images/choice_trial_14.png,images/choice_trial_13.png,images/pattern_7.png,j,j,750.0,14.0,13.0,6.0,1.0,8.0,0.0,0.0,14.0,40.0,,,,,,65562141ae0a6660324ce572,09:06:07,27/02/2024
html-keyboard-response,43,103914,0.0-20.0-1.0,,"<div style=""display: flex; flex-direction: column; align-items: center; margin-top: -40px;""><img src=""images/pattern_7.png"" style=""width: 234px; height: 230px; margin-top: -50px;""><div style=""display: flex; justify-content: space-between; margin-top: 33px;""><img src=""images/choice_trial_14.png"" style=""width: 408px; height: 417px; margin-right: 608px;""></div></div>",,delaylearn,learning,display_response,DZVOo0AA4lTmWVxv6XoOgE5gLH63,DZVOo0AA4lTmWVxv6XoOgE5gLH63,,,,,,,,,,,,,,,,,chosen stimuli: images/choice_trial_14.png,,,,,65562141ae0a6660324ce572,09:06:07,27/02/2024
html-keyboard-response,44,104667,0.0-20.0-2.0,,,,delaylearn,learning,feedback_duration_window,DZVOo0AA4lTmWVxv6XoOgE5gLH63,DZVOo0AA4lTmWVxv6XoOgE5gLH63,,,,,,,,,,,,,,,,,,750.0,,,,65562141ae0a6660324ce572,09:06:07,27/02/2024
html-keyboard-response,45,106169,0.0-20.0-3.0,,<div style='margin:auto;width: auto; font-size: 150%'><span style='font-weight: bold; font-size: 100px; color: red;'>0 points!</span><br><br></div>,,delaylearn,learning,feedback_image_window,DZVOo0AA4lTmWVxv6XoOgE5gLH63,DZVOo0AA4lTmWVxv6XoOgE5gLH63,,,,,,,,,,,,,,,,,,,,,,65562141ae0a6660324ce572,09:06:07,27/02/2024
html-keyboard-response,46,107961,0.0-21.0,,"<div style=""font-size:100px;"">+</div>",,delaylearn,learning,ITI,DZVOo0AA4lTmWVxv6XoOgE5gLH63,DZVOo0AA4lTmWVxv6XoOgE5gLH63,,,,,,,,,,,,,,,,,,,1789.0,,,65562141ae0a6660324ce572,09:06:07,27/02/2024
html-keyboard-response,47,109403,0.0-22.0-0.0,1437.1000000000931,"<div style=""display: flex; flex-direction: column; align-items: center; margin-top: -40px;""><img src=""images/pattern_4.png"" style=""width: 234px; height: 230px; margin-top: -50px;""><div style=""display: flex; justify-content: space-between; margin-top: 33px;""><img src=""images/choice_trial_7.png"" style=""width: 408px; height: 417px; margin-right: 200px;""><img src=""images/choice_trial_8.png"" style=""width: 408px; height: 417px;""></div></div>",f,delaylearn,learning,trial,DZVOo0AA4lTmWVxv6XoOgE5gLH63,DZVOo0AA4lTmWVxv6XoOgE5gLH63,1.0,images/choice_trial_7.png,images/choice_trial_8.png,images/pattern_4.png,f,f,7000.0,7.0,8.0,3.0,0.0,9.0,1.0,1.0,7.0,50.0,,,,,,65562141ae0a6660324ce572,09:06:07,27/02/2024
html-keyboard-response,48,110407,0.0-22.0-1.0,,"<div style=""display: flex; flex-direction: column; align-items: center; margin-top: -40px;""><img src=""images/pattern_4.png"" style=""width: 234px; height: 230px; margin-top: -50px;""><div style=""display: flex; justify-content: space-between; margin-top: 33px;""><img src=""images/choice_trial_7.png"" style=""width: 408px; height: 417px; margin-right: 608px;""></div></div>",,delaylearn,learning,display_response,DZVOo0AA4lTmWVxv6XoOgE5gLH63,DZVOo0AA4lTmWVxv6XoOgE5gLH63,,,,,,,,,,,,,,,,,chosen stimuli: images/choice_trial_7.png,,,,,65562141ae0a6660324ce572,09:06:07,27/02/2024
html-keyboard-response,49,117409,0.0-22.0-2.0,,,,delaylearn,learning,feedback_duration_window,DZVOo0AA4lTmWVxv6XoOgE5gLH63,DZVOo0AA4lTmWVxv6XoOgE5gLH63,,,,,,,,,,,,,,,,,,7000.0,,,,65562141ae0a6660324ce572,09:06:07,27/02/2024
html-keyboard-response,50,118914,0.0-22.0-3.0,,<div style='margin:auto;width: auto; font-size: 150%'><span style='font-weight: bold; font-size: 100px; color: green;'>+10 points!</span><br><br></div>,,delaylearn,learning,feedback_image_window,DZVOo0AA4lTmWVxv6XoOgE5gLH63,DZVOo0AA4lTmWVxv6XoOgE5gLH63,,,,,,,,,,,,,,,,,,,,,,65562141ae0a6660324ce572,09:06:07,27/02/2024
html-keyboard-response,51,121398,0.0-23.0,,"<div style=""font-size:100px;"">+</div>",,delaylearn,learning,ITI,DZVOo0AA4lTmWVxv6XoOgE5gLH63,DZVOo0AA4lTmWVxv6XoOgE5gLH63,,,,,,,,,,,,,,,,,,,2482.0,,,65562141ae0a6660324ce572,09:06:07,27/02/2024
html-keyboard-response,52,123634,0.0-24.0-0.0,2230.7000000001863,"<div style=""display: flex; flex-direction: column; align-items: center; margin-top: -40px;""><img src=""images/pattern_5.png"" style=""width: 234px; height: 230px; margin-top: -50px;""><div style=""display: flex; justify-content: space-between; margin-top: 33px;""><img src=""images/choice_trial_10.png"" style=""width: 408px; height: 417px; margin-right: 200px;""><img src=""images/choice_trial_9.png"" style=""width: 408px; height: 417px;""></div></div>",f,delaylearn,learning,trial,DZVOo0AA4lTmWVxv6XoOgE5gLH63,DZVOo0AA4lTmWVxv6XoOgE5gLH63,1.0,images/choice_trial_10.png,images/choice_trial_9.png,images/pattern_5.png,j,j,750.0,10.0,9.0,4.0,1.0,10.0,0.0,0.0,10.0,50.0,,,,,,65562141ae0a6660324ce572,09:06:07,27/02/2024
html-keyboard-response,53,124639,0.0-24.0-1.0,,"<div style=""display: flex; flex-direction: column; align-items: center; margin-top: -40px;""><img src=""images/pattern_5.png"" style=""width: 234px; height: 230px; margin-top: -50px;""><div style=""display: flex; justify-content: space-between; margin-top: 33px;""><img src=""images/choice_trial_10.png"" style=""width: 408px; height: 417px; margin-right: 608px;""></div></div>",,delaylearn,learning,display_response,DZVOo0AA4lTmWVxv6XoOgE5gLH63,DZVOo0AA4lTmWVxv6XoOgE5gLH63,,,,,,,,,,,,,,,,,chosen stimuli: images/choice_trial_10.png,,,,,65562141ae0a6660324ce572,09:06:07,27/02/2024
html-keyboard-response,54,125391,0.0-24.0-2.0,,,,delaylearn,learning,feedback_duration_window,DZVOo0AA4lTmWVxv6XoOgE5gLH63,DZVOo0AA4lTmWVxv6XoOgE5gLH63,,,,,,,,,,,,,,,,,,750.0,,,,65562141ae0a6660324ce572,09:06:07,27/02/2024
html-keyboard-response,55,126894,0.0-24.0-3.0,,<div style='margin:auto;width: auto; font-size: 150%'><span style='font-weight: bold; font-size: 100px; color: red;'>0 points!</span><br><br></div>,,delaylearn,learning,feedback_image_window,DZVOo0AA4lTmWVxv6XoOgE5gLH63,DZVOo0AA4lTmWVxv6XoOgE5gLH63,,,,,,,,,,,,,,,,,,,,,,65562141ae0a6660324ce572,09:06:07,27/02/2024
html-keyboard-response,56,128938,0.0-25.0,,"<div style=""font-size:100px;"">+</div>",,delaylearn,learning,ITI,DZVOo0AA4lTmWVxv6XoOgE5gLH63,DZVOo0AA4lTmWVxv6XoOgE5gLH63,,,,,,,,,,,,,,,,,,,2042.0,,,65562141ae0a6660324ce572,09:06:07,27/02/2024
html-keyboard-response,57,131024,0.0-26.0-0.0,2080.2000000001863,"<div style=""display: flex; flex-direction: column; align-items: center; margin-top: -40px;""><img src=""images/pattern_6.png"" style=""width: 234px; height: 230px; margin-top: -50px;""><div style=""display: flex; justify-content: space-between; margin-top: 33px;""><img src=""images/choice_trial_11.png"" style=""width: 408px; height: 417px; margin-right: 200px;""><img src=""images/choice_trial_12.png"" style=""width: 408px; height: 417px;""></div></div>",f,delaylearn,learning,trial,DZVOo0AA4lTmWVxv6XoOgE5gLH63,DZVOo0AA4lTmWVxv6XoOgE5gLH63,1.0,images/choice_trial_11.png,images/choice_trial_12.png,images/pattern_6.png,j,f,750.0,11.0,12.0,5.0,0.0,11.0,1.0,0.0,11.0,50.0,,,,,,65562141ae0a6660324ce572,09:06:07,27/02/2024
html-keyboard-response,58,132028,0.0-26.0-1.0,,"<div style=""display: flex; flex-direction: column; align-items: center; margin-top: -40px;""><img src=""images/pattern_6.png"" style=""width: 234px; height: 230px; margin-top: -50px;""><div style=""display: flex; justify-content: space-between; margin-top: 33px;""><img src=""images/choice_trial_11.png"" style=""width: 408px; height: 417px; margin-right: 608px;""></div></div>",,delaylearn,learning,display_response,DZVOo0AA4lTmWVxv6XoOgE5gLH63,DZVOo0AA4lTmWVxv6XoOgE5gLH63,,,,,,,,,,,,,,,,,chosen stimuli: images/choice_trial_11.png,,,,,65562141ae0a6660324ce572,09:06:07,27/02/2024
html-keyboard-response,59,132781,0.0-26.0-2.0,,,,delaylearn,learning,feedback_duration_window,DZVOo0AA4lTmWVxv6XoOgE5gLH63,DZVOo0AA4lTmWVxv6XoOgE5gLH63,,,,,,,,,,,,,,,,,,750.0,,,,65562141ae0a6660324ce572,09:06:07,27/02/2024
html-keyboard-response,60,134283,0.0-26.0-3.0,,<div style='margin:auto;width: auto; font-size: 150%'><span style='font-weight: bold; font-size: 100px; color: red;'>0 points!</span><br><br></div>,,delaylearn,learning,feedback_image_window,DZVOo0AA4lTmWVxv6XoOgE5gLH63,DZVOo0AA4lTmWVxv6XoOgE5gLH63,,,,,,,,,,,,,,,,,,,,,,65562141ae0a6660324ce572,09:06:07,27/02/2024
html-keyboard-response,61,134785,0.0-27.0-0.0,,,,,,mood_trial_fixation,DZVOo0AA4lTmWVxv6XoOgE5gLH63,,,,,,,,,,,,,,,,,,,,,,,65562141ae0a6660324ce572,09:06:07,27/02/2024
lmdlab-html-vas-response,62,138657,0.0-27.0-1.0,2864.0,How happy are you right now?,0.4891661862941236,delaylearn,learning,mood_trial,DZVOo0AA4lTmWVxv6XoOgE5gLH63,DZVOo0AA4lTmWVxv6XoOgE5gLH63,,,,,,,,,,,,,,,,,,,,"['Very unhappy', 'Very happy']",,65562141ae0a6660324ce572,09:06:07,27/02/2024
html-keyboard-response,63,140715,0.0-28.0,,"<div style=""font-size:100px;"">+</div>",,delaylearn,learning,ITI,DZVOo0AA4lTmWVxv6XoOgE5gLH63,DZVOo0AA4lTmWVxv6XoOgE5gLH63,,,,,,,,,,,,,,,,,,,2056.0,,,65562141ae0a6660324ce572,09:06:07,27/02/2024
html-keyboard-response,64,142213,0.0-29.0-0.0,1492.5,"<div style=""display: flex; flex-direction: column; align-items: center; margin-top: -40px;""><img src=""images/pattern_1.png"" style=""width: 234px; height: 230px; margin-top: -50px;""><div style=""display: flex; justify-content: space-between; margin-top: 33px;""><img src=""images/choice_trial_2.png"" style=""width: 408px; height: 417px; margin-right: 200px;""><img src=""images/choice_trial_1.png"" style=""width: 408px; height: 417px;""></div></div>",f,delaylearn,learning,trial,DZVOo0AA4lTmWVxv6XoOgE5gLH63,DZVOo0AA4lTmWVxv6XoOgE5gLH63,1.0,images/choice_trial_2.png,images/choice_trial_1.png,images/pattern_1.png,j,j,7000.0,2.0,1.0,1.0,1.0,12.0,0.0,0.0,2.0,50.0,,,,,,65562141ae0a6660324ce572,09:06:07,27/02/2024
html-keyboard-response,65,143219,0.0-29.0-1.0,,"<div style=""display: flex; flex-direction: column; align-items: center; margin-top: -40px;""><img src=""images/pattern_1.png"" style=""width: 234px; height: 230px; margin-top: -50px;""><div style=""display: flex; justify-content: space-between; margin-top: 33px;""><img src=""images/choice_trial_2.png"" style=""width: 408px; height: 417px; margin-right: 608px;""></div></div>",,delaylearn,learning,display_response,DZVOo0AA4lTmWVxv6XoOgE5gLH63,DZVOo0AA4lTmWVxv6XoOgE5gLH63,,,,,,,,,,,,,,,,,chosen stimuli: images/choice_trial_2.png,,,,,65562141ae0a6660324ce572,09:06:07,27/02/2024
html-keyboard-response,66,150221,0.0-29.0-2.0,,,,delaylearn,learning,feedback_duration_window,DZVOo0AA4lTmWVxv6XoOgE5gLH63,DZVOo0AA4lTmWVxv6XoOgE5gLH63,,,,,,,,,,,,,,,,,,7000.0,,,,65562141ae0a6660324ce572,09:06:07,27/02/2024
html-keyboard-response,67,151724,0.0-29.0-3.0,,<div style='margin:auto;width: auto; font-size: 150%'><span style='font-weight: bold; font-size: 100px; color: red;'>0 points!</span><br><br></div>,,delaylearn,learning,feedback_image_window,DZVOo0AA4lTmWVxv6XoOgE5gLH63,DZVOo0AA4lTmWVxv6XoOgE5gLH63,,,,,,,,,,,,,,,,,,,,,,65562141ae0a6660324ce572,09:06:07,27/02/2024
html-keyboard-response,68,153918,0.0-30.0,,"<div style=""font-size:100px;"">+</div>",,delaylearn,learning,ITI,DZVOo0AA4lTmWVxv6XoOgE5gLH63,DZVOo0AA4lTmWVxv6XoOgE5gLH63,,,,,,,,,,,,,,,,,,,2192.0,,,65562141ae0a6660324ce572,09:06:07,27/02/2024
html-keyboard-response,69,156924,0.0-31.0-0.0,,"<div style=""display: flex; flex-direction: column; align-items: center; margin-top: -40px;""><img src=""images/pattern_3.png"" style=""width: 234px; height: 230px; margin-top: -50px;""><div style=""display: flex; justify-content: space-between; margin-top: 33px;""><img src=""images/choice_trial_6.png"" style=""width: 408px; height: 417px; margin-right: 200px;""><img src=""images/choice_trial_5.png"" style=""width: 408px; height: 417px;""></div></div>",,delaylearn,learning,trial,DZVOo0AA4lTmWVxv6XoOgE5gLH63,DZVOo0AA4lTmWVxv6XoOgE5gLH63,1.0,images/choice_trial_6.png,images/choice_trial_5.png,images/pattern_3.png,f,j,7000.0,6.0,5.0,2.0,1.0,13.0,0.0,0.0,0.0,50.0,,,,,,65562141ae0a6660324ce572,09:06:07,27/02/2024
html-keyboard-response,70,157927,0.0-31.0-1.0,,<div style='font-weight: bold; font-size: 75px; color: red;'>Missed Trial <br><br><br><br> Please respond faster</div>,,delaylearn,learning,display_response,DZVOo0AA4lTmWVxv6XoOgE5gLH63,DZVOo0AA4lTmWVxv6XoOgE5gLH63,,,,,,,,,,,,,,,,,Missed trial,,,,,65562141ae0a6660324ce572,09:06:07,27/02/2024
html-keyboard-response,71,157933,0.0-31.0-2.0,,,,delaylearn,learning,feedback_duration_window,DZVOo0AA4lTmWVxv6XoOgE5gLH63,DZVOo0AA4lTmWVxv6XoOgE5gLH63,,,,,,,,,,,,,,,,,,0.0,,,,65562141ae0a6660324ce572,09:06:07,27/02/2024
html-keyboard-response,72,157939,0.0-31.0-3.0,,,,delaylearn,learning,feedback_image_window,DZVOo0AA4lTmWVxv6XoOgE5gLH63,DZVOo0AA4lTmWVxv6XoOgE5gLH63,,,,,,,,,,,,,,,,,,,,,,65562141ae0a6660324ce572,09:06:07,27/02/2024
html-keyboard-response,73,160073,0.0-32.0,,"<div style=""font-size:100px;"">+</div>",,delaylearn,learning,ITI,DZVOo0AA4lTmWVxv6XoOgE5gLH63,DZVOo0AA4lTmWVxv6XoOgE5gLH63,,,,,,,,,,,,,,,,,,,2132.0,,,65562141ae0a6660324ce572,09:06:07,27/02/2024
html-keyboard-response,74,162096,0.0-33.0-0.0,2018.7999999998137,"<div style=""display: flex; flex-direction: column; align-items: center; margin-top: -40px;""><img src=""images/pattern_5.png"" style=""width: 234px; height: 230px; margin-top: -50px;""><div style=""display: flex; justify-content: space-between; margin-top: 33px;""><img src=""images/choice_trial_9.png"" style=""width: 408px; height: 417px; margin-right: 200px;""><img src=""images/choice_trial_10.png"" style=""width: 408px; height: 417px;""></div></div>",j,delaylearn,learning,trial,DZVOo0AA4lTmWVxv6XoOgE5gLH63,DZVOo0AA4lTmWVxv6XoOgE5gLH63,1.0,images/choice_trial_9.png,images/choice_trial_10.png,images/pattern_5.png,f,f,750.0,9.0,10.0,4.0,0.0,14.0,0.0,0.0,10.0,50.0,,,,,,65562141ae0a6660324ce572,09:06:07,27/02/2024
html-keyboard-response,75,163100,0.0-33.0-1.0,,"<div style=""display: flex; flex-direction: column; align-items: center; margin-top: -40px;""><img src=""images/pattern_5.png"" style=""width: 234px; height: 230px; margin-top: -50px;""><div style=""display: flex; justify-content: space-between; margin-top: 33px;""><img src=""images/choice_trial_10.png"" style=""width: 408px; height: 417px; margin-left:608px;""></div></div>",,delaylearn,learning,display_response,DZVOo0AA4lTmWVxv6XoOgE5gLH63,DZVOo0AA4lTmWVxv6XoOgE5gLH63,,,,,,,,,,,,,,,,,chosen stimuli: images/choice_trial_10.png,,,,,65562141ae0a6660324ce572,09:06:07,27/02/2024
html-keyboard-response,76,163852,0.0-33.0-2.0,,,,delaylearn,learning,feedback_duration_window,DZVOo0AA4lTmWVxv6XoOgE5gLH63,DZVOo0AA4lTmWVxv6XoOgE5gLH63,,,,,,,,,,,,,,,,,,750.0,,,,65562141ae0a6660324ce572,09:06:07,27/02/2024
html-keyboard-response,77,165355,0.0-33.0-3.0,,<div style='margin:auto;width: auto; font-size: 150%'><span style='font-weight: bold; font-size: 100px; color: red;'>0 points!</span><br><br></div>,,delaylearn,learning,feedback_image_window,DZVOo0AA4lTmWVxv6XoOgE5gLH63,DZVOo0AA4lTmWVxv6XoOgE5gLH63,,,,,,,,,,,,,,,,,,,,,,65562141ae0a6660324ce572,09:06:07,27/02/2024
html-keyboard-response,78,165857,0.0-34.0-0.0,,,,,,mood_trial_fixation,DZVOo0AA4lTmWVxv6XoOgE5gLH63,,,,,,,,,,,,,,,,,,,,,,,65562141ae0a6660324ce572,09:06:07,27/02/2024
lmdlab-html-vas-response,79,169626,0.0-34.0-1.0,2762.0,How happy are you right now?,0.5173781831745278,delaylearn,learning,mood_trial,DZVOo0AA4lTmWVxv6XoOgE5gLH63,DZVOo0AA4lTmWVxv6XoOgE5gLH63,,,,,,,,,,,,,,,,,,,,"['Very unhappy', 'Very happy']",,65562141ae0a6660324ce572,09:06:07,27/02/2024
html-keyboard-response,80,171868,0.0-35.0,,"<div style=""font-size:100px;"">+</div>",,delaylearn,learning,ITI,DZVOo0AA4lTmWVxv6XoOgE5gLH63,DZVOo0AA4lTmWVxv6XoOgE5gLH63,,,,,,,,,,,,,,,,,,,2240.0,,,65562141ae0a6660324ce572,09:06:07,27/02/2024
html-keyboard-response,81,173227,0.0-36.0-0.0,1354.0,"<div style=""display: flex; flex-direction: column; align-items: center; margin-top: -40px;""><img src=""images/pattern_6.png"" style=""width: 234px; height: 230px; margin-top: -50px;""><div style=""display: flex; justify-content: space-between; margin-top: 33px;""><img src=""images/choice_trial_11.png"" style=""width: 408px; height: 417px; margin-right: 200px;""><img src=""images/choice_trial_12.png"" style=""width: 408px; height: 417px;""></div></div>",j,delaylearn,learning,trial,DZVOo0AA4lTmWVxv6XoOgE5gLH63,DZVOo0AA4lTmWVxv6XoOgE5gLH63,1.0,images/choice_trial_11.png,images/choice_trial_12.png,images/pattern_6.png,f,f,750.0,11.0,12.0,5.0,0.0,15.0,0.0,0.0,12.0,50.0,,,,,,65562141ae0a6660324ce572,09:06:07,27/02/2024
html-keyboard-response,82,174231,0.0-36.0-1.0,,"<div style=""display: flex; flex-direction: column; align-items: center; margin-top: -40px;""><img src=""images/pattern_6.png"" style=""width: 234px; height: 230px; margin-top: -50px;""><div style=""display: flex; justify-content: space-between; margin-top: 33px;""><img src=""images/choice_trial_12.png"" style=""width: 408px; height: 417px; margin-left:608px;""></div></div>",,delaylearn,learning,display_response,DZVOo0AA4lTmWVxv6XoOgE5gLH63,DZVOo0AA4lTmWVxv6XoOgE5gLH63,,,,,,,,,,,,,,,,,chosen stimuli: images/choice_trial_12.png,,,,,65562141ae0a6660324ce572,09:06:07,27/02/2024
html-keyboard-response,83,174983,0.0-36.0-2.0,,,,delaylearn,learning,feedback_duration_window,DZVOo0AA4lTmWVxv6XoOgE5gLH63,DZVOo0AA4lTmWVxv6XoOgE5gLH63,,,,,,,,,,,,,,,,,,750.0,,,,65562141ae0a6660324ce572,09:06:07,27/02/2024
html-keyboard-response,84,176485,0.0-36.0-3.0,,<div style='margin:auto;width: auto; font-size: 150%'><span style='font-weight: bold; font-size: 100px; color: red;'>0 points!</span><br><br></div>,,delaylearn,learning,feedback_image_window,DZVOo0AA4lTmWVxv6XoOgE5gLH63,DZVOo0AA4lTmWVxv6XoOgE5gLH63,,,,,,,,,,,,,,,,,,,,,,65562141ae0a6660324ce572,09:06:07,27/02/2024
html-keyboard-response,85,178108,0.0-37.0,,"<div style=""font-size:100px;"">+</div>",,delaylearn,learning,ITI,DZVOo0AA4lTmWVxv6XoOgE5gLH63,DZVOo0AA4lTmWVxv6XoOgE5gLH63,,,,,,,,,,,,,,,,,,,1620.0,,,65562141ae0a6660324ce572,09:06:07,27/02/2024
html-keyboard-response,86,180308,0.0-38.0-0.0,2194.7000000001863,"<div style=""display: flex; flex-direction: column; align-items: center; margin-top: -40px;""><img src=""images/pattern_4.png"" style=""width: 234px; height: 230px; margin-top: -50px;""><div style=""display: flex; justify-content: space-between; margin-top: 33px;""><img src=""images/choice_trial_8.png"" style=""width: 408px; height: 417px; margin-right: 200px;""><img src=""images/choice_trial_7.png"" style=""width: 408px; height: 417px;""></div></div>",j,delaylearn,learning,trial,DZVOo0AA4lTmWVxv6XoOgE5gLH63,DZVOo0AA4lTmWVxv6XoOgE5gLH63,1.0,images/choice_trial_8.png,images/choice_trial_7.png,images/pattern_4.png,j,j,7000.0,8.0,7.0,3.0,1.0,16.0,1.0,1.0,7.0,60.0,,,,,,65562141ae0a6660324ce572,09:06:07,27/02/2024
html-keyboard-response,87,181312,0.0-38.0-1.0,,"<div style=""display: flex; flex-direction: column; align-items: center; margin-top: -40px;""><img src=""images/pattern_4.png"" style=""width: 234px; height: 230px; margin-top: -50px;""><div style=""display: flex; justify-content: space-between; margin-top: 33px;""><img src=""images/choice_trial_7.png"" style=""width: 408px; height: 417px; margin-left:608px;""></div></div>",,delaylearn,learning,display_response,DZVOo0AA4lTmWVxv6XoOgE5gLH63,DZVOo0AA4lTmWVxv6XoOgE5gLH63,,,,,,,,,,,,,,,,,chosen stimuli: images/choice_trial_7.png,,,,,65562141ae0a6660324ce572,09:06:07,27/02/2024
html-keyboard-response,88,188315,0.0-38.0-2.0,,,,delaylearn,learning,feedback_duration_window,DZVOo0AA4lTmWVxv6XoOgE5gLH63,DZVOo0AA4lTmWVxv6XoOgE5gLH63,,,,,,,,,,,,,,,,,,7000.0,,,,65562141ae0a6660324ce572,09:06:07,27/02/2024
html-keyboard-response,89,189818,0.0-38.0-3.0,,<div style='margin:auto;width: auto; font-size: 150%'><span style='font-weight: bold; font-size: 100px; color: green;'>+10 points!</span><br><br></div>,,delaylearn,learning,feedback_image_window,DZVOo0AA4lTmWVxv6XoOgE5gLH63,DZVOo0AA4lTmWVxv6XoOgE5gLH63,,,,,,,,,,,,,,,,,,,,,,65562141ae0a6660324ce572,09:06:07,27/02/2024
html-keyboard-response,90,191716,0.0-39.0,,"<div style=""font-size:100px;"">+</div>",,delaylearn,learning,ITI,DZVOo0AA4lTmWVxv6XoOgE5gLH63,DZVOo0AA4lTmWVxv6XoOgE5gLH63,,,,,,,,,,,,,,,,,,,1896.0,,,65562141ae0a6660324ce572,09:06:07,27/02/2024
html-keyboard-response,91,193260,0.0-40.0-0.0,1537.1000000000931,"<div style=""display: flex; flex-direction: column; align-items: center; margin-top: -40px;""><img src=""images/pattern_7.png"" style=""width: 234px; height: 230px; margin-top: -50px;""><div style=""display: flex; justify-content: space-between; margin-top: 33px;""><img src=""images/choice_trial_13.png"" style=""width: 408px; height: 417px; margin-right: 200px;""><img src=""images/choice_trial_14.png"" style=""width: 408px; height: 417px;""></div></div>",f,delaylearn,learning,trial,DZVOo0AA4lTmWVxv6XoOgE5gLH63,DZVOo0AA4lTmWVxv6XoOgE5gLH63,1.0,images/choice_trial_13.png,images/choice_trial_14.png,images/pattern_7.png,j,f,750.0,13.0,14.0,6.0,0.0,17.0,1.0,0.0,13.0,60.0,,,,,,65562141ae0a6660324ce572,09:06:07,27/02/2024
html-keyboard-response,92,194264,0.0-40.0-1.0,,"<div style=""display: flex; flex-direction: column; align-items: center; margin-top: -40px;""><img src=""images/pattern_7.png"" style=""width: 234px; height: 230px; margin-top: -50px;""><div style=""display: flex; justify-content: space-between; margin-top: 33px;""><img src=""images/choice_trial_13.png"" style=""width: 408px; height: 417px; margin-right: 608px;""></div></div>",,delaylearn,learning,display_response,DZVOo0AA4lTmWVxv6XoOgE5gLH63,DZVOo0AA4lTmWVxv6XoOgE5gLH63,,,,,,,,,,,,,,,,,chosen stimuli: images/choice_trial_13.png,,,,,65562141ae0a6660324ce572,09:06:07,27/02/2024
html-keyboard-response,93,195016,0.0-40.0-2.0,,,,delaylearn,learning,feedback_duration_window,DZVOo0AA4lTmWVxv6XoOgE5gLH63,DZVOo0AA4lTmWVxv6XoOgE5gLH63,,,,,,,,,,,,,,,,,,750.0,,,,65562141ae0a6660324ce572,09:06:07,27/02/2024
html-keyboard-response,94,196519,0.0-40.0-3.0,,<div style='margin:auto;width: auto; font-size: 150%'><span style='font-weight: bold; font-size: 100px; color: red;'>0 points!</span><br><br></div>,,delaylearn,learning,feedback_image_window,DZVOo0AA4lTmWVxv6XoOgE5gLH63,DZVOo0AA4lTmWVxv6XoOgE5gLH63,,,,,,,,,,,,,,,,,,,,,,65562141ae0a6660324ce572,09:06:07,27/02/2024
html-keyboard-response,95,198859,0.0-41.0,,"<div style=""font-size:100px;"">+</div>",,delaylearn,learning,ITI,DZVOo0AA4lTmWVxv6XoOgE5gLH63,DZVOo0AA4lTmWVxv6XoOgE5gLH63,,,,,,,,,,,,,,,,,,,2338.0,,,65562141ae0a6660324ce572,09:06:07,27/02/2024
html-keyboard-response,96,200064,0.0-42.0-0.0,1202.0,"<div style=""display: flex; flex-direction: column; align-items: center; margin-top: -40px;""><img src=""images/pattern_1.png"" style=""width: 234px; height: 230px; margin-top: -50px;""><div style=""display: flex; justify-content: space-between; margin-top: 33px;""><img src=""images/choice_trial_1.png"" style=""width: 408px; height: 417px; margin-right: 200px;""><img src=""images/choice_trial_2.png"" style=""width: 408px; height: 417px;""></div></div>",f,delaylearn,learning,trial,DZVOo0AA4lTmWVxv6XoOgE5gLH63,DZVOo0AA4lTmWVxv6XoOgE5gLH63,1.0,images/choice_trial_1.png,images/choice_trial_2.png,images/pattern_1.png,f,f,7000.0,1.0,2.0,1.0,0.0,18.0,1.0,1.0,1.0,70.0,,,,,,65562141ae0a6660324ce572,09:06:07,27/02/2024
html-keyboard-response,97,201067,0.0-42.0-1.0,,"<div style=""display: flex; flex-direction: column; align-items: center; margin-top: -40px;""><img src=""images/pattern_1.png"" style=""width: 234px; height: 230px; margin-top: -50px;""><div style=""display: flex; justify-content: space-between; margin-top: 33px;""><img src=""images/choice_trial_1.png"" style=""width: 408px; height: 417px; margin-right: 608px;""></div></div>",,delaylearn,learning,display_response,DZVOo0AA4lTmWVxv6XoOgE5gLH63,DZVOo0AA4lTmWVxv6XoOgE5gLH63,,,,,,,,,,,,,,,,,chosen stimuli: images/choice_trial_1.png,,,,,65562141ae0a6660324ce572,09:06:07,27/02/2024
html-keyboard-response,98,208069,0.0-42.0-2.0,,,,delaylearn,learning,feedback_duration_window,DZVOo0AA4lTmWVxv6XoOgE5gLH63,DZVOo0AA4lTmWVxv6XoOgE5gLH63,,,,,,,,,,,,,,,,,,7000.0,,,,65562141ae0a6660324ce572,09:06:07,27/02/2024
html-keyboard-response,99,209572,0.0-42.0-3.0,,<div style='margin:auto;width: auto; font-size: 150%'><span style='font-weight: bold; font-size: 100px; color: green;'>+10 points!</span><br><br></div>,,delaylearn,learning,feedback_image_window,DZVOo0AA4lTmWVxv6XoOgE5gLH63,DZVOo0AA4lTmWVxv6XoOgE5gLH63,,,,,,,,,,,,,,,,,,,,,,65562141ae0a6660324ce572,09:06:07,27/02/2024
html-keyboard-response,100,211870,0.0-43.0,,"<div style=""font-size:100px;"">+</div>",,delaylearn,learning,ITI,DZVOo0AA4lTmWVxv6XoOgE5gLH63,DZVOo0AA4lTmWVxv6XoOgE5gLH63,,,,,,,,,,,,,,,,,,,2296.0,,,65562141ae0a6660324ce572,09:06:07,27/02/2024
html-keyboard-response,101,213909,0.0-44.0-0.0,2033.5,"<div style=""display: flex; flex-direction: column; align-items: center; margin-top: -40px;""><img src=""images/pattern_6.png"" style=""width: 234px; height: 230px; margin-top: -50px;""><div style=""display: flex; justify-content: space-between; margin-top: 33px;""><img src=""images/choice_trial_12.png"" style=""width: 408px; height: 417px; margin-right: 200px;""><img src=""images/choice_trial_11.png"" style=""width: 408px; height: 417px;""></div></div>",f,delaylearn,learning,trial,DZVOo0AA4lTmWVxv6XoOgE5gLH63,DZVOo0AA4lTmWVxv6XoOgE5gLH63,1.0,images/choice_trial_12.png,images/choice_trial_11.png,images/pattern_6.png,j,j,750.0,12.0,11.0,5.0,1.0,19.0,0.0,0.0,12.0,70.0,,,,,,65562141ae0a6660324ce572,09:06:07,27/02/2024
html-keyboard-response,102,214914,0.0-44.0-1.0,,"<div style=""display: flex; flex-direction: column; align-items: center; margin-top: -40px;""><img src=""images/pattern_6.png"" style=""width: 234px; height: 230px; margin-top: -50px;""><div style=""display: flex; justify-content: space-between; margin-top: 33px;""><img src=""images/choice_trial_12.png"" style=""width: 408px; height: 417px; margin-right: 608px;""></div></div>",,delaylearn,learning,display_response,DZVOo0AA4lTmWVxv6XoOgE5gLH63,DZVOo0AA4lTmWVxv6XoOgE5gLH63,,,,,,,,,,,,,,,,,chosen stimuli: images/choice_trial_12.png,,,,,65562141ae0a6660324ce572,09:06:07,27/02/2024
html-keyboard-response,103,215666,0.0-44.0-2.0,,,,delaylearn,learning,feedback_duration_window,DZVOo0AA4lTmWVxv6XoOgE5gLH63,DZVOo0AA4lTmWVxv6XoOgE5gLH63,,,,,,,,,,,,,,,,,,750.0,,,,65562141ae0a6660324ce572,09:06:07,27/02/2024
html-keyboard-response,104,217169,0.0-44.0-3.0,,<div style='margin:auto;width: auto; font-size: 150%'><span style='font-weight: bold; font-size: 100px; color: red;'>0 points!</span><br><br></div>,,delaylearn,learning,feedback_image_window,DZVOo0AA4lTmWVxv6XoOgE5gLH63,DZVOo0AA4lTmWVxv6XoOgE5gLH63,,,,,,,,,,,,,,,,,,,,,,65562141ae0a6660324ce572,09:06:07,27/02/2024
html-keyboard-response,105,218935,0.0-45.0,,"<div style=""font-size:100px;"">+</div>",,delaylearn,learning,ITI,DZVOo0AA4lTmWVxv6XoOgE5gLH63,DZVOo0AA4lTmWVxv6XoOgE5gLH63,,,,,,,,,,,,,,,,,,,1764.0,,,65562141ae0a6660324ce572,09:06:07,27/02/2024
html-keyboard-response,106,220136,0.0-46.0-0.0,1194.5999999996275,"<div style=""display: flex; flex-direction: column; align-items: center; margin-top: -40px;""><img src=""images/pattern_4.png"" style=""width: 234px; height: 230px; margin-top: -50px;""><div style=""display: flex; justify-content: space-between; margin-top: 33px;""><img src=""images/choice_trial_7.png"" style=""width: 408px; height: 417px; margin-right: 200px;""><img src=""images/choice_trial_8.png"" style=""width: 408px; height: 417px;""></div></div>",f,delaylearn,learning,trial,DZVOo0AA4lTmWVxv6XoOgE5gLH63,DZVOo0AA4lTmWVxv6XoOgE5gLH63,1.0,images/choice_trial_7.png,images/choice_trial_8.png,images/pattern_4.png,f,f,7000.0,7.0,8.0,3.0,0.0,20.0,1.0,1.0,7.0,80.0,,,,,,65562141ae0a6660324ce572,09:06:07,27/02/2024
html-keyboard-response,107,221140,0.0-46.0-1.0,,"<div style=""display: flex; flex-direction: column; align-items: center; margin-top: -40px;""><img src=""images/pattern_4.png"" style=""width: 234px; height: 230px; margin-top: -50px;""><div style=""display: flex; justify-content: space-between; margin-top: 33px;""><img src=""images/choice_trial_7.png"" style=""width: 408px; height: 417px; margin-right: 608px;""></div></div>",,delaylearn,learning,display_response,DZVOo0AA4lTmWVxv6XoOgE5gLH63,DZVOo0AA4lTmWVxv6XoOgE5gLH63,,,,,,,,,,,,,,,,,chosen stimuli: images/choice_trial_7.png,,,,,65562141ae0a6660324ce572,09:06:07,27/02/2024
html-keyboard-response,108,228142,0.0-46.0-2.0,,,,delaylearn,learning,feedback_duration_window,DZVOo0AA4lTmWVxv6XoOgE5gLH63,DZVOo0AA4lTmWVxv6XoOgE5gLH63,,,,,,,,,,,,,,,,,,7000.0,,,,65562141ae0a6660324ce572,09:06:07,27/02/2024
html-keyboard-response,109,229645,0.0-46.0-3.0,,<div style='margin:auto;width: auto; font-size: 150%'><span style='font-weight: bold; font-size: 100px; color: green;'>+10 points!</span><br><br></div>,,delaylearn,learning,feedback_image_window,DZVOo0AA4lTmWVxv6XoOgE5gLH63,DZVOo0AA4lTmWVxv6XoOgE5gLH63,,,,,,,,,,,,,,,,,,,,,,65562141ae0a6660324ce572,09:06:07,27/02/2024
html-keyboard-response,110,230147,0.0-47.0-0.0,,,,,,mood_trial_fixation,DZVOo0AA4lTmWVxv6XoOgE5gLH63,,,,,,,,,,,,,,,,,,,,,,,65562141ae0a6660324ce572,09:06:07,27/02/2024
lmdlab-html-vas-response,111,234414,0.0-47.0-1.0,3259.0,How happy are you right now?,0.5369095656301922,delaylearn,learning,mood_trial,DZVOo0AA4lTmWVxv6XoOgE5gLH63,DZVOo0AA4lTmWVxv6XoOgE5gLH63,,,,,,,,,,,,,,,,,,,,"['Very unhappy', 'Very happy']",,65562141ae0a6660324ce572,09:06:07,27/02/2024
html-keyboard-response,112,236077,0.0-48.0,,"<div style=""font-size:100px;"">+</div>",,delaylearn,learning,ITI,DZVOo0AA4lTmWVxv6XoOgE5gLH63,DZVOo0AA4lTmWVxv6XoOgE5gLH63,,,,,,,,,,,,,,,,,,,1662.0,,,65562141ae0a6660324ce572,09:06:07,27/02/2024
html-keyboard-response,113,237279,0.0-49.0-0.0,1199.0,"<div style=""display: flex; flex-direction: column; align-items: center; margin-top: -40px;""><img src=""images/pattern_7.png"" style=""width: 234px; height: 230px; margin-top: -50px;""><div style=""display: flex; justify-content: space-between; margin-top: 33px;""><img src=""images/choice_trial_14.png"" style=""width: 408px; height: 417px; margin-right: 200px;""><img src=""images/choice_trial_13.png"" style=""width: 408px; height: 417px;""></div></div>",f,delaylearn,learning,trial,DZVOo0AA4lTmWVxv6XoOgE5gLH63,DZVOo0AA4lTmWVxv6XoOgE5gLH63,1.0,images/choice_trial_14.png,images/choice_trial_13.png,images/pattern_7.png,j,j,750.0,14.0,13.0,6.0,1.0,21.0,0.0,0.0,14.0,80.0,,,,,,65562141ae0a6660324ce572,09:06:07,27/02/2024
html-keyboard-response,114,238282,0.0-49.0-1.0,,"<div style=""display: flex; flex-direction: column; align-items: center; margin-top: -40px;""><img src=""images/pattern_7.png"" style=""width: 234px; height: 230px; margin-top: -50px;""><div style=""display: flex; justify-content: space-between; margin-top: 33px;""><img src=""images/choice_trial_14.png"" style=""width: 408px; height: 417px; margin-right: 608px;""></div></div>",,delaylearn,learning,display_response,DZVOo0AA4lTmWVxv6XoOgE5gLH63,DZVOo0AA4lTmWVxv6XoOgE5gLH63,,,,,,,,,,,,,,,,,chosen stimuli: images/choice_trial_14.png,,,,,65562141ae0a6660324ce572,09:06:07,27/02/2024
html-keyboard-response,115,239035,0.0-49.0-2.0,,,,delaylearn,learning,feedback_duration_window,DZVOo0AA4lTmWVxv6XoOgE5gLH63,DZVOo0AA4lTmWVxv6XoOgE5gLH63,,,,,,,,,,,,,,,,,,750.0,,,,65562141ae0a6660324ce572,09:06:07,27/02/2024
html-keyboard-response,116,240538,0.0-49.0-3.0,,<div style='margin:auto;width: auto; font-size: 150%'><span style='font-weight: bold; font-size: 100px; color: red;'>0 points!</span><br><br></div>,,delaylearn,learning,feedback_image_window,DZVOo0AA4lTmWVxv6XoOgE5gLH63,DZVOo0AA4lTmWVxv6XoOgE5gLH63,,,,,,,,,,,,,,,,,,,,,,65562141ae0a6660324ce572,09:06:07,27/02/2024
html-keyboard-response,117,242286,0.0-50.0,,"<div style=""font-size:100px;"">+</div>",,delaylearn,learning,ITI,DZVOo0AA4lTmWVxv6XoOgE5gLH63,DZVOo0AA4lTmWVxv6XoOgE5gLH63,,,,,,,,,,,,,,,,,,,1746.0,,,65562141ae0a6660324ce572,09:06:07,27/02/2024
html-keyboard-response,118,243490,0.0-51.0-0.0,1197.2000000001863,"<div style=""display: flex; flex-direction: column; align-items: center; margin-top: -40px;""><img src=""images/pattern_1.png"" style=""width: 234px; height: 230px; margin-top: -50px;""><div style=""display: flex; justify-content: space-between; margin-top: 33px;""><img src=""images/choice_trial_2.png"" style=""width: 408px; height: 417px; margin-right: 200px;""><img src=""images/choice_trial_1.png"" style=""width: 408px; height: 417px;""></div></div>",f,delaylearn,learning,trial,DZVOo0AA4lTmWVxv6XoOgE5gLH63,DZVOo0AA4lTmWVxv6XoOgE5gLH63,1.0,images/choice_trial_2.png,images/choice_trial_1.png,images/pattern_1.png,f,j,7000.0,2.0,1.0,1.0,1.0,22.0,0.0,1.0,2.0,90.0,,,,,,65562141ae0a6660324ce572,09:06:07,27/02/2024
html-keyboard-response,119,244494,0.0-51.0-1.0,,"<div style=""display: flex; flex-direction: column; align-items: center; margin-top: -40px;""><img src=""images/pattern_1.png"" style=""width: 234px; height: 230px; margin-top: -50px;""><div style=""display: flex; justify-content: space-between; margin-top: 33px;""><img src=""images/choice_trial_2.png"" style=""width: 408px; height: 417px; margin-right: 608px;""></div></div>",,delaylearn,learning,display_response,DZVOo0AA4lTmWVxv6XoOgE5gLH63,DZVOo0AA4lTmWVxv6XoOgE5gLH63,,,,,,,,,,,,,,,,,chosen stimuli: images/choice_trial_2.png,,,,,65562141ae0a6660324ce572,09:06:07,27/02/2024
html-keyboard-response,120,251497,0.0-51.0-2.0,,,,delaylearn,learning,feedback_duration_window,DZVOo0AA4lTmWVxv6XoOgE5gLH63,DZVOo0AA4lTmWVxv6XoOgE5gLH63,,,,,,,,,,,,,,,,,,7000.0,,,,65562141ae0a6660324ce572,09:06:07,27/02/2024
html-keyboard-response,121,252999,0.0-51.0-3.0,,<div style='margin:auto;width: auto; font-size: 150%'><span style='font-weight: bold; font-size: 100px; color: green;'>+10 points!</span><br><br></div>,,delaylearn,learning,feedback_image_window,DZVOo0AA4lTmWVxv6XoOgE5gLH63,DZVOo0AA4lTmWVxv6XoOgE5gLH63,,,,,,,,,,,,,,,,,,,,,,65562141ae0a6660324ce572,09:06:07,27/02/2024
html-keyboard-response,122,254750,0.0-52.0,,"<div style=""font-size:100px;"">+</div>",,delaylearn,learning,ITI,DZVOo0AA4lTmWVxv6XoOgE5gLH63,DZVOo0AA4lTmWVxv6XoOgE5gLH63,,,,,,,,,,,,,,,,,,,1749.0,,,65562141ae0a6660324ce572,09:06:07,27/02/2024
html-keyboard-response,123,255180,0.0-53.0-0.0,424.1999999997206,"<div style=""display: flex; flex-direction: column; align-items: center; margin-top: -40px;""><img src=""images/pattern_5.png"" style=""width: 234px; height: 230px; margin-top: -50px;""><div style=""display: flex; justify-content: space-between; margin-top: 33px;""><img src=""images/choice_trial_10.png"" style=""width: 408px; height: 417px; margin-right: 200px;""><img src=""images/choice_trial_9.png"" style=""width: 408px; height: 417px;""></div></div>",j,delaylearn,learning,trial,DZVOo0AA4lTmWVxv6XoOgE5gLH63,DZVOo0AA4lTmWVxv6XoOgE5gLH63,1.0,images/choice_trial_10.png,images/choice_trial_9.png,images/pattern_5.png,j,j,750.0,10.0,9.0,4.0,1.0,23.0,1.0,1.0,9.0,100.0,,,,,,65562141ae0a6660324ce572,09:06:07,27/02/2024
html-keyboard-response,124,256185,0.0-53.0-1.0,,"<div style=""display: flex; flex-direction: column; align-items: center; margin-top: -40px;""><img src=""images/pattern_5.png"" style=""width: 234px; height: 230px; margin-top: -50px;""><div style=""display: flex; justify-content: space-between; margin-top: 33px;""><img src=""images/choice_trial_9.png"" style=""width: 408px; height: 417px; margin-left:608px;""></div></div>",,delaylearn,learning,display_response,DZVOo0AA4lTmWVxv6XoOgE5gLH63,DZVOo0AA4lTmWVxv6XoOgE5gLH63,,,,,,,,,,,,,,,,,chosen stimuli: images/choice_trial_9.png,,,,,65562141ae0a6660324ce572,09:06:07,27/02/2024
html-keyboard-response,125,256937,0.0-53.0-2.0,,,,delaylearn,learning,feedback_duration_window,DZVOo0AA4lTmWVxv6XoOgE5gLH63,DZVOo0AA4lTmWVxv6XoOgE5gLH63,,,,,,,,,,,,,,,,,,750.0,,,,65562141ae0a6660324ce572,09:06:07,27/02/2024
html-keyboard-response,126,258440,0.0-53.0-3.0,,<div style='margin:auto;width: auto; font-size: 150%'><span style='font-weight: bold; font-size: 100px; color: green;'>+10 points!</span><br><br></div>,,delaylearn,learning,feedback_image_window,DZVOo0AA4lTmWVxv6XoOgE5gLH63,DZVOo0AA4lTmWVxv6XoOgE5gLH63,,,,,,,,,,,,,,,,,,,,,,65562141ae0a6660324ce572,09:06:07,27/02/2024
html-keyboard-response,127,260515,0.0-54.0,,"<div style=""font-size:100px;"">+</div>",,delaylearn,learning,ITI,DZVOo0AA4lTmWVxv6XoOgE5gLH63,DZVOo0AA4lTmWVxv6XoOgE5gLH63,,,,,,,,,,,,,,,,,,,2073.0,,,65562141ae0a6660324ce572,09:06:07,27/02/2024
html-keyboard-response,128,261841,0.0-55.0-0.0,1319.5,"<div style=""display: flex; flex-direction: column; align-items: center; margin-top: -40px;""><img src=""images/pattern_3.png"" style=""width: 234px; height: 230px; margin-top: -50px;""><div style=""display: flex; justify-content: space-between; margin-top: 33px;""><img src=""images/choice_trial_6.png"" style=""width: 408px; height: 417px; margin-right: 200px;""><img src=""images/choice_trial_5.png"" style=""width: 408px; height: 417px;""></div></div>",f,delaylearn,learning,trial,DZVOo0AA4lTmWVxv6XoOgE5gLH63,DZVOo0AA4lTmWVxv6XoOgE5gLH63,1.0,images/choice_trial_6.png,images/choice_trial_5.png,images/pattern_3.png,j,j,7000.0,6.0,5.0,2.0,1.0,24.0,0.0,0.0,6.0,100.0,,,,,,65562141ae0a6660324ce572,09:06:07,27/02/2024
html-keyboard-response,129,262845,0.0-55.0-1.0,,"<div style=""display: flex; flex-direction: column; align-items: center; margin-top: -40px;""><img src=""images/pattern_3.png"" style=""width: 234px; height: 230px; margin-top: -50px;""><div style=""display: flex; justify-content: space-between; margin-top: 33px;""><img src=""images/choice_trial_6.png"" style=""width: 408px; height: 417px; margin-right: 608px;""></div></div>",,delaylearn,learning,display_response,DZVOo0AA4lTmWVxv6XoOgE5gLH63,DZVOo0AA4lTmWVxv6XoOgE5gLH63,,,,,,,,,,,,,,,,,chosen stimuli: images/choice_trial_6.png,,,,,65562141ae0a6660324ce572,09:06:07,27/02/2024
html-keyboard-response,130,269848,0.0-55.0-2.0,,,,delaylearn,learning,feedback_duration_window,DZVOo0AA4lTmWVxv6XoOgE5gLH63,DZVOo0AA4lTmWVxv6XoOgE5gLH63,,,,,,,,,,,,,,,,,,7000.0,,,,65562141ae0a6660324ce572,09:06:07,27/02/2024
html-keyboard-response,131,271350,0.0-55.0-3.0,,<div style='margin:auto;width: auto; font-size: 150%'><span style='font-weight: bold; font-size: 100px; color: red;'>0 points!</span><br><br></div>,,delaylearn,learning,feedback_image_window,DZVOo0AA4lTmWVxv6XoOgE5gLH63,DZVOo0AA4lTmWVxv6XoOgE5gLH63,,,,,,,,,,,,,,,,,,,,,,65562141ae0a6660324ce572,09:06:07,27/02/2024
lmdlab-html-vas-response,132,277678,0.0-56.0-0.0,4810.0,*How <b><u>confident</u></b> are you feeling about your answers at this moment?*,0.2005357566715269,rewlearn,rate_confidence,,DZVOo0AA4lTmWVxv6XoOgE5gLH63,DZVOo0AA4lTmWVxv6XoOgE5gLH63,,,,,,,,,,,,,,,,,,,,"['No confidence', 'Complete confidence']",,65562141ae0a6660324ce572,09:06:07,27/02/2024
lmdlab-rest-trial-limit,133,335140,0.0-56.0-1.0,55956.5,"<div style=""font-size:40px;""><b>Please take a break!</b><br><br><br><br><p>Great work: you earned undefined points.<br><br><br><p>You have completed part(s) 1 of 6.<br><br><br><br>When you are ready to continue<br><br><br>please click the button.</p><br><br>",0,delaylearn,learning,break,DZVOo0AA4lTmWVxv6XoOgE5gLH63,DZVOo0AA4lTmWVxv6XoOgE5gLH63,,,,,,,,,,,,,,,,,,,,,0.0,65562141ae0a6660324ce572,09:06:07,27/02/2024
html-keyboard-response,134,338143,0.0-56.0-2.0,,"<div style=""font-size:100px;"">+</div>",,delaylearn,learning,pre_fixation,DZVOo0AA4lTmWVxv6XoOgE5gLH63,,,,,,,,,,,,,,,,,,,,,,,65562141ae0a6660324ce572,09:06:07,27/02/2024
lmdlab-html-vas-response,135,342611,0.0-56.0-3.0-0.0,3459.0,How happy are you right now?,0.4804855718693839,delaylearn,learning,mood_baseline,DZVOo0AA4lTmWVxv6XoOgE5gLH63,DZVOo0AA4lTmWVxv6XoOgE5gLH63,,,,,,,,,,,,,,,,,,,,"['Very unhappy', 'Very happy']",,65562141ae0a6660324ce572,09:06:07,27/02/2024
html-keyboard-response,136,344113,0.0-56.0-3.0-1.0,,,,,,mood_baseline_fixation,DZVOo0AA4lTmWVxv6XoOgE5gLH63,,,,,,,,,,,,,,,,,,,,,,,65562141ae0a6660324ce572,09:06:07,27/02/2024
html-keyboard-response,137,346175,0.0-57.0,,"<div style=""font-size:100px;"">+</div>",,delaylearn,learning,ITI,DZVOo0AA4lTmWVxv6XoOgE5gLH63,DZVOo0AA4lTmWVxv6XoOgE5gLH63,,,,,,,,,,,,,,,,,,,2060.0,,,65562141ae0a6660324ce572,09:06:07,27/02/2024
html-keyboard-response,138,347659,0.0-58.0-0.0,1478.0,"<div style=""display: flex; flex-direction: column; align-items: center; margin-top: -40px;""><img src=""images/pattern_7.png"" style=""width: 234px; height: 230px; margin-top: -50px;""><div style=""display: flex; justify-content: space-between; margin-top: 33px;""><img src=""images/choice_trial_14.png"" style=""width: 408px; height: 417px; margin-right: 200px;""><img src=""images/choice_trial_13.png"" style=""width: 408px; height: 417px;""></div></div>",f,delaylearn,learning,trial,DZVOo0AA4lTmWVxv6XoOgE5gLH63,DZVOo0AA4lTmWVxv6XoOgE5gLH63,1.0,images/choice_trial_14.png,images/choice_trial_13.png,images/pattern_7.png,j,j,750.0,14.0,13.0,6.0,1.0,25.0,0.0,0.0,14.0,100.0,,,,,,65562141ae0a6660324ce572,09:06:07,27/02/2024
html-keyboard-response,139,348664,0.0-58.0-1.0,,"<div style=""display: flex; flex-direction: column; align-items: center; margin-top: -40px;""><img src=""images/pattern_7.png"" style=""width: 234px; height: 230px; margin-top: -50px;""><div style=""display: flex; justify-content: space-between; margin-top: 33px;""><img src=""images/choice_trial_14.png"" style=""width: 408px; height: 417px; margin-right: 608px;""></div></div>",,delaylearn,learning,display_response,DZVOo0AA4lTmWVxv6XoOgE5gLH63,DZVOo0AA4lTmWVxv6XoOgE5gLH63,,,,,,,,,,,,,,,,,chosen stimuli: images/choice_trial_14.png,,,,,65562141ae0a6660324ce572,09:06:07,27/02/2024
html-keyboard-response,140,349416,0.0-58.0-2.0,,,,delaylearn,learning,feedback_duration_window,DZVOo0AA4lTmWVxv6XoOgE5gLH63,DZVOo0AA4lTmWVxv6XoOgE5gLH63,,,,,,,,,,,,,,,,,,750.0,,,,65562141ae0a6660324ce572,09:06:07,27/02/2024
html-keyboard-response,141,350919,0.0-58.0-3.0,,<div style='margin:auto;width: auto; font-size: 150%'><span style='font-weight: bold; font-size: 100px; color: red;'>0 points!</span><br><br></div>,,delaylearn,learning,feedback_image_window,DZVOo0AA4lTmWVxv6XoOgE5gLH63,DZVOo0AA4lTmWVxv6XoOgE5gLH63,,,,,,,,,,,,,,,,,,,,,,65562141ae0a6660324ce572,09:06:07,27/02/2024
html-keyboard-response,142,351422,0.0-59.0-0.0,,,,,,mood_trial_fixation,DZVOo0AA4lTmWVxv6XoOgE5gLH63,,,,,,,,,,,,,,,,,,,,,,,65562141ae0a6660324ce572,09:06:07,27/02/2024
lmdlab-html-vas-response,143,356259,0.0-59.0-1.0,3830.0,How happy are you right now?,0.49133633990030856,delaylearn,learning,mood_trial,DZVOo0AA4lTmWVxv6XoOgE5gLH63,DZVOo0AA4lTmWVxv6XoOgE5gLH63,,,,,,,,,,,,,,,,,,,,"['Very unhappy', 'Very happy']",,65562141ae0a6660324ce572,09:06:07,27/02/2024
html-keyboard-response,144,358140,0.0-60.0,,"<div style=""font-size:100px;"">+</div>",,delaylearn,learning,ITI,DZVOo0AA4lTmWVxv6XoOgE5gLH63,DZVOo0AA4lTmWVxv6XoOgE5gLH63,,,,,,,,,,,,,,,,,,,1879.0,,,65562141ae0a6660324ce572,09:06:07,27/02/2024
html-keyboard-response,145,360799,0.0-61.0-0.0,2652.0,"<div style=""display: flex; flex-direction: column; align-items: center; margin-top: -40px;""><img src=""images/pattern_1.png"" style=""width: 234px; height: 230px; margin-top: -50px;""><div style=""display: flex; justify-content: space-between; margin-top: 33px;""><img src=""images/choice_trial_1.png"" style=""width: 408px; height: 417px; margin-right: 200px;""><img src=""images/choice_trial_2.png"" style=""width: 408px; height: 417px;""></div></div>",f,delaylearn,learning,trial,DZVOo0AA4lTmWVxv6XoOgE5gLH63,DZVOo0AA4lTmWVxv6XoOgE5gLH63,1.0,images/choice_trial_1.png,images/choice_trial_2.png,images/pattern_1.png,f,f,7000.0,1.0,2.0,1.0,0.0,26.0,1.0,1.0,1.0,110.0,,,,,,65562141ae0a6660324ce572,09:06:07,27/02/2024
html-keyboard-response,146,361803,0.0-61.0-1.0,,"<div style=""display: flex; flex-direction: column; align-items: center; margin-top: -40px;""><img src=""images/pattern_1.png"" style=""width: 234px; height: 230px; margin-top: -50px;""><div style=""display: flex; justify-content: space-between; margin-top: 33px;""><img src=""images/choice_trial_1.png"" style=""width: 408px; height: 417px; margin-right: 608px;""></div></div>",,delaylearn,learning,display_response,DZVOo0AA4lTmWVxv6XoOgE5gLH63,DZVOo0AA4lTmWVxv6XoOgE5gLH63,,,,,,,,,,,,,,,,,chosen stimuli: images/choice_trial_1.png,,,,,65562141ae0a6660324ce572,09:06:07,27/02/2024
html-keyboard-response,147,368805,0.0-61.0-2.0,,,,delaylearn,learning,feedback_duration_window,DZVOo0AA4lTmWVxv6XoOgE5gLH63,DZVOo0AA4lTmWVxv6XoOgE5gLH63,,,,,,,,,,,,,,,,,,7000.0,,,,65562141ae0a6660324ce572,09:06:07,27/02/2024
html-keyboard-response,148,370308,0.0-61.0-3.0,,<div style='margin:auto;width: auto; font-size: 150%'><span style='font-weight: bold; font-size: 100px; color: green;'>+10 points!</span><br><br></div>,,delaylearn,learning,feedback_image_window,DZVOo0AA4lTmWVxv6XoOgE5gLH63,DZVOo0AA4lTmWVxv6XoOgE5gLH63,,,,,,,,,,,,,,,,,,,,,,65562141ae0a6660324ce572,09:06:07,27/02/2024
html-keyboard-response,149,372124,0.0-62.0,,"<div style=""font-size:100px;"">+</div>",,delaylearn,learning,ITI,DZVOo0AA4lTmWVxv6XoOgE5gLH63,DZVOo0AA4lTmWVxv6XoOgE5gLH63,,,,,,,,,,,,,,,,,,,1814.0,,,65562141ae0a6660324ce572,09:06:07,27/02/2024
html-keyboard-response,150,373850,0.0-63.0-0.0,1718.7999999998137,"<div style=""display: flex; flex-direction: column; align-items: center; margin-top: -40px;""><img src=""images/pattern_5.png"" style=""width: 234px; height: 230px; margin-top: -50px;""><div style=""display: flex; justify-content: space-between; margin-top: 33px;""><img src=""images/choice_trial_9.png"" style=""width: 408px; height: 417px; margin-right: 200px;""><img src=""images/choice_trial_10.png"" style=""width: 408px; height: 417px;""></div></div>",f,delaylearn,learning,trial,DZVOo0AA4lTmWVxv6XoOgE5gLH63,DZVOo0AA4lTmWVxv6XoOgE5gLH63,1.0,images/choice_trial_9.png,images/choice_trial_10.png,images/pattern_5.png,f,f,750.0,9.0,10.0,4.0,0.0,27.0,1.0,1.0,9.0,120.0,,,,,,65562141ae0a6660324ce572,09:06:07,27/02/2024
html-keyboard-response,151,374854,0.0-63.0-1.0,,"<div style=""display: flex; flex-direction: column; align-items: center; margin-top: -40px;""><img src=""images/pattern_5.png"" style=""width: 234px; height: 230px; margin-top: -50px;""><div style=""display: flex; justify-content: space-between; margin-top: 33px;""><img src=""images/choice_trial_9.png"" style=""width: 408px; height: 417px; margin-right: 608px;""></div></div>",,delaylearn,learning,display_response,DZVOo0AA4lTmWVxv6XoOgE5gLH63,DZVOo0AA4lTmWVxv6XoOgE5gLH63,,,,,,,,,,,,,,,,,chosen stimuli: images/choice_trial_9.png,,,,,65562141ae0a6660324ce572,09:06:07,27/02/2024
html-keyboard-response,152,375606,0.0-63.0-2.0,,,,delaylearn,learning,feedback_duration_window,DZVOo0AA4lTmWVxv6XoOgE5gLH63,DZVOo0AA4lTmWVxv6XoOgE5gLH63,,,,,,,,,,,,,,,,,,750.0,,,,65562141ae0a6660324ce572,09:06:07,27/02/2024
html-keyboard-response,153,377109,0.0-63.0-3.0,,<div style='margin:auto;width: auto; font-size: 150%'><span style='font-weight: bold; font-size: 100px; color: green;'>+10 points!</span><br><br></div>,,delaylearn,learning,feedback_image_window,DZVOo0AA4lTmWVxv6XoOgE5gLH63,DZVOo0AA4lTmWVxv6XoOgE5gLH63,,,,,,,,,,,,,,,,,,,,,,65562141ae0a6660324ce572,09:06:07,27/02/2024
html-keyboard-response,154,379374,0.0-64.0,,"<div style=""font-size:100px;"">+</div>",,delaylearn,learning,ITI,DZVOo0AA4lTmWVxv6XoOgE5gLH63,DZVOo0AA4lTmWVxv6XoOgE5gLH63,,,,,,,,,,,,,,,,,,,2263.0,,,65562141ae0a6660324ce572,09:06:07,27/02/2024
html-keyboard-response,155,381089,0.0-65.0-0.0,1708.0,"<div style=""display: flex; flex-direction: column; align-items: center; margin-top: -40px;""><img src=""images/pattern_6.png"" style=""width: 234px; height: 230px; margin-top: -50px;""><div style=""display: flex; justify-content: space-between; margin-top: 33px;""><img src=""images/choice_trial_12.png"" style=""width: 408px; height: 417px; margin-right: 200px;""><img src=""images/choice_trial_11.png"" style=""width: 408px; height: 417px;""></div></div>",j,delaylearn,learning,trial,DZVOo0AA4lTmWVxv6XoOgE5gLH63,DZVOo0AA4lTmWVxv6XoOgE5gLH63,1.0,images/choice_trial_12.png,images/choice_trial_11.png,images/pattern_6.png,j,j,750.0,12.0,11.0,5.0,1.0,28.0,1.0,1.0,11.0,130.0,,,,,,65562141ae0a6660324ce572,09:06:07,27/02/2024
html-keyboard-response,156,382093,0.0-65.0-1.0,,"<div style=""display: flex; flex-direction: column; align-items: center; margin-top: -40px;""><img src=""images/pattern_6.png"" style=""width: 234px; height: 230px; margin-top: -50px;""><div style=""display: flex; justify-content: space-between; margin-top: 33px;""><img src=""images/choice_trial_11.png"" style=""width: 408px; height: 417px; margin-left:608px;""></div></div>",,delaylearn,learning,display_response,DZVOo0AA4lTmWVxv6XoOgE5gLH63,DZVOo0AA4lTmWVxv6XoOgE5gLH63,,,,,,,,,,,,,,,,,chosen stimuli: images/choice_trial_11.png,,,,,65562141ae0a6660324ce572,09:06:07,27/02/2024
html-keyboard-response,157,382845,0.0-65.0-2.0,,,,delaylearn,learning,feedback_duration_window,DZVOo0AA4lTmWVxv6XoOgE5gLH63,DZVOo0AA4lTmWVxv6XoOgE5gLH63,,,,,,,,,,,,,,,,,,750.0,,,,65562141ae0a6660324ce572,09:06:07,27/02/2024
html-keyboard-response,158,384348,0.0-65.0-3.0,,<div style='margin:auto;width: auto; font-size: 150%'><span style='font-weight: bold; font-size: 100px; color: green;'>+10 points!</span><br><br></div>,,delaylearn,learning,feedback_image_window,DZVOo0AA4lTmWVxv6XoOgE5gLH63,DZVOo0AA4lTmWVxv6XoOgE5gLH63,,,,,,,,,,,,,,,,,,,,,,65562141ae0a6660324ce572,09:06:07,27/02/2024
html-keyboard-response,159,384850,0.0-66.0-0.0,,,,,,mood_trial_fixation,DZVOo0AA4lTmWVxv6XoOgE5gLH63,,,,,,,,,,,,,,,,,,,,,,,65562141ae0a6660324ce572,09:06:07,27/02/2024
lmdlab-html-vas-response,160,390187,0.0-66.0-1.0,4328.0,How happy are you right now?,0.40453019565291104,delaylearn,learning,mood_trial,DZVOo0AA4lTmWVxv6XoOgE5gLH63,DZVOo0AA4lTmWVxv6XoOgE5gLH63,,,,,,,,,,,,,,,,,,,,"['Very unhappy', 'Very happy']",,65562141ae0a6660324ce572,09:06:07,27/02/2024
html-keyboard-response,161,391724,0.0-67.0,,"<div style=""font-size:100px;"">+</div>",,delaylearn,learning,ITI,DZVOo0AA4lTmWVxv6XoOgE5gLH63,DZVOo0AA4lTmWVxv6XoOgE5gLH63,,,,,,,,,,,,,,,,,,,1535.0,,,65562141ae0a6660324ce572,09:06:07,27/02/2024
html-keyboard-response,162,394347,0.0-68.0-0.0,2615.9000000003725,"<div style=""display: flex; flex-direction: column; align-items: center; margin-top: -40px;""><img src=""images/pattern_4.png"" style=""width: 234px; height: 230px; margin-top: -50px;""><div style=""display: flex; justify-content: space-between; margin-top: 33px;""><img src=""images/choice_trial_8.png"" style=""width: 408px; height: 417px; margin-right: 200px;""><img src=""images/choice_trial_7.png"" style=""width: 408px; height: 417px;""></div></div>",j,delaylearn,learning,trial,DZVOo0AA4lTmWVxv6XoOgE5gLH63,DZVOo0AA4lTmWVxv6XoOgE5gLH63,1.0,images/choice_trial_8.png,images/choice_trial_7.png,images/pattern_4.png,j,j,7000.0,8.0,7.0,3.0,1.0,29.0,1.0,1.0,7.0,140.0,,,,,,65562141ae0a6660324ce572,09:06:07,27/02/2024
html-keyboard-response,163,395352,0.0-68.0-1.0,,"<div style=""display: flex; flex-direction: column; align-items: center; margin-top: -40px;""><img src=""images/pattern_4.png"" style=""width: 234px; height: 230px; margin-top: -50px;""><div style=""display: flex; justify-content: space-between; margin-top: 33px;""><img src=""images/choice_trial_7.png"" style=""width: 408px; height: 417px; margin-left:608px;""></div></div>",,delaylearn,learning,display_response,DZVOo0AA4lTmWVxv6XoOgE5gLH63,DZVOo0AA4lTmWVxv6XoOgE5gLH63,,,,,,,,,,,,,,,,,chosen stimuli: images/choice_trial_7.png,,,,,65562141ae0a6660324ce572,09:06:07,27/02/2024
html-keyboard-response,164,402354,0.0-68.0-2.0,,,,delaylearn,learning,feedback_duration_window,DZVOo0AA4lTmWVxv6XoOgE5gLH63,DZVOo0AA4lTmWVxv6XoOgE5gLH63,,,,,,,,,,,,,,,,,,7000.0,,,,65562141ae0a6660324ce572,09:06:07,27/02/2024
html-keyboard-response,165,403857,0.0-68.0-3.0,,<div style='margin:auto;width: auto; font-size: 150%'><span style='font-weight: bold; font-size: 100px; color: green;'>+10 points!</span><br><br></div>,,delaylearn,learning,feedback_image_window,DZVOo0AA4lTmWVxv6XoOgE5gLH63,DZVOo0AA4lTmWVxv6XoOgE5gLH63,,,,,,,,,,,,,,,,,,,,,,65562141ae0a6660324ce572,09:06:07,27/02/2024
html-keyboard-response,166,406216,0.0-69.0,,"<div style=""font-size:100px;"">+</div>",,delaylearn,learning,ITI,DZVOo0AA4lTmWVxv6XoOgE5gLH63,DZVOo0AA4lTmWVxv6XoOgE5gLH63,,,,,,,,,,,,,,,,,,,2356.0,,,65562141ae0a6660324ce572,09:06:07,27/02/2024
html-keyboard-response,167,408015,0.0-70.0-0.0,1793.8000000002794,"<div style=""display: flex; flex-direction: column; align-items: center; margin-top: -40px;""><img src=""images/pattern_3.png"" style=""width: 234px; height: 230px; margin-top: -50px;""><div style=""display: flex; justify-content: space-between; margin-top: 33px;""><img src=""images/choice_trial_6.png"" style=""width: 408px; height: 417px; margin-right: 200px;""><img src=""images/choice_trial_5.png"" style=""width: 408px; height: 417px;""></div></div>",f,delaylearn,learning,trial,DZVOo0AA4lTmWVxv6XoOgE5gLH63,DZVOo0AA4lTmWVxv6XoOgE5gLH63,1.0,images/choice_trial_6.png,images/choice_trial_5.png,images/pattern_3.png,j,j,7000.0,6.0,5.0,2.0,1.0,30.0,0.0,0.0,6.0,140.0,,,,,,65562141ae0a6660324ce572,09:06:07,27/02/2024
html-keyboard-response,168,409020,0.0-70.0-1.0,,"<div style=""display: flex; flex-direction: column; align-items: center; margin-top: -40px;""><img src=""images/pattern_3.png"" style=""width: 234px; height: 230px; margin-top: -50px;""><div style=""display: flex; justify-content: space-between; margin-top: 33px;""><img src=""images/choice_trial_6.png"" style=""width: 408px; height: 417px; margin-right: 608px;""></div></div>",,delaylearn,learning,display_response,DZVOo0AA4lTmWVxv6XoOgE5gLH63,DZVOo0AA4lTmWVxv6XoOgE5gLH63,,,,,,,,,,,,,,,,,chosen stimuli: images/choice_trial_6.png,,,,,65562141ae0a6660324ce572,09:06:07,27/02/2024
html-keyboard-response,169,416022,0.0-70.0-2.0,,,,delaylearn,learning,feedback_duration_window,DZVOo0AA4lTmWVxv6XoOgE5gLH63,DZVOo0AA4lTmWVxv6XoOgE5gLH63,,,,,,,,,,,,,,,,,,7000.0,,,,65562141ae0a6660324ce572,09:06:07,27/02/2024
html-keyboard-response,170,417524,0.0-70.0-3.0,,<div style='margin:auto;width: auto; font-size: 150%'><span style='font-weight: bold; font-size: 100px; color: red;'>0 points!</span><br><br></div>,,delaylearn,learning,feedback_image_window,DZVOo0AA4lTmWVxv6XoOgE5gLH63,DZVOo0AA4lTmWVxv6XoOgE5gLH63,,,,,,,,,,,,,,,,,,,,,,65562141ae0a6660324ce572,09:06:07,27/02/2024
html-keyboard-response,171,419386,0.0-71.0,,"<div style=""font-size:100px;"">+</div>",,delaylearn,learning,ITI,DZVOo0AA4lTmWVxv6XoOgE5gLH63,DZVOo0AA4lTmWVxv6XoOgE5gLH63,,,,,,,,,,,,,,,,,,,1859.0,,,65562141ae0a6660324ce572,09:06:07,27/02/2024
html-keyboard-response,172,421393,0.0-72.0-0.0,1999.2999999998137,"<div style=""display: flex; flex-direction: column; align-items: center; margin-top: -40px;""><img src=""images/pattern_5.png"" style=""width: 234px; height: 230px; margin-top: -50px;""><div style=""display: flex; justify-content: space-between; margin-top: 33px;""><img src=""images/choice_trial_9.png"" style=""width: 408px; height: 417px; margin-right: 200px;""><img src=""images/choice_trial_10.png"" style=""width: 408px; height: 417px;""></div></div>",f,delaylearn,learning,trial,DZVOo0AA4lTmWVxv6XoOgE5gLH63,DZVOo0AA4lTmWVxv6XoOgE5gLH63,1.0,images/choice_trial_9.png,images/choice_trial_10.png,images/pattern_5.png,j,f,750.0,9.0,10.0,4.0,0.0,31.0,1.0,0.0,9.0,140.0,,,,,,65562141ae0a6660324ce572,09:06:07,27/02/2024
html-keyboard-response,173,422397,0.0-72.0-1.0,,"<div style=""display: flex; flex-direction: column; align-items: center; margin-top: -40px;""><img src=""images/pattern_5.png"" style=""width: 234px; height: 230px; margin-top: -50px;""><div style=""display: flex; justify-content: space-between; margin-top: 33px;""><img src=""images/choice_trial_9.png"" style=""width: 408px; height: 417px; margin-right: 608px;""></div></div>",,delaylearn,learning,display_response,DZVOo0AA4lTmWVxv6XoOgE5gLH63,DZVOo0AA4lTmWVxv6XoOgE5gLH63,,,,,,,,,,,,,,,,,chosen stimuli: images/choice_trial_9.png,,,,,65562141ae0a6660324ce572,09:06:07,27/02/2024
html-keyboard-response,174,423149,0.0-72.0-2.0,,,,delaylearn,learning,feedback_duration_window,DZVOo0AA4lTmWVxv6XoOgE5gLH63,DZVOo0AA4lTmWVxv6XoOgE5gLH63,,,,,,,,,,,,,,,,,,750.0,,,,65562141ae0a6660324ce572,09:06:07,27/02/2024
html-keyboard-response,175,424652,0.0-72.0-3.0,,<div style='margin:auto;width: auto; font-size: 150%'><span style='font-weight: bold; font-size: 100px; color: red;'>0 points!</span><br><br></div>,,delaylearn,learning,feedback_image_window,DZVOo0AA4lTmWVxv6XoOgE5gLH63,DZVOo0AA4lTmWVxv6XoOgE5gLH63,,,,,,,,,,,,,,,,,,,,,,65562141ae0a6660324ce572,09:06:07,27/02/2024
html-keyboard-response,176,427110,0.0-73.0,,"<div style=""font-size:100px;"">+</div>",,delaylearn,learning,ITI,DZVOo0AA4lTmWVxv6XoOgE5gLH63,DZVOo0AA4lTmWVxv6XoOgE5gLH63,,,,,,,,,,,,,,,,,,,2456.0,,,65562141ae0a6660324ce572,09:06:07,27/02/2024
html-keyboard-response,177,428635,0.0-74.0-0.0,1519.0999999996275,"<div style=""display: flex; flex-direction: column; align-items: center; margin-top: -40px;""><img src=""images/pattern_1.png"" style=""width: 234px; height: 230px; margin-top: -50px;""><div style=""display: flex; justify-content: space-between; margin-top: 33px;""><img src=""images/choice_trial_1.png"" style=""width: 408px; height: 417px; margin-right: 200px;""><img src=""images/choice_trial_2.png"" style=""width: 408px; height: 417px;""></div></div>",f,delaylearn,learning,trial,DZVOo0AA4lTmWVxv6XoOgE5gLH63,DZVOo0AA4lTmWVxv6XoOgE5gLH63,1.0,images/choice_trial_1.png,images/choice_trial_2.png,images/pattern_1.png,f,f,7000.0,1.0,2.0,1.0,0.0,32.0,1.0,1.0,1.0,150.0,,,,,,65562141ae0a6660324ce572,09:06:07,27/02/2024
html-keyboard-response,178,429640,0.0-74.0-1.0,,"<div style=""display: flex; flex-direction: column; align-items: center; margin-top: -40px;""><img src=""images/pattern_1.png"" style=""width: 234px; height: 230px; margin-top: -50px;""><div style=""display: flex; justify-content: space-between; margin-top: 33px;""><img src=""images/choice_trial_1.png"" style=""width: 408px; height: 417px; margin-right: 608px;""></div></div>",,delaylearn,learning,display_response,DZVOo0AA4lTmWVxv6XoOgE5gLH63,DZVOo0AA4lTmWVxv6XoOgE5gLH63,,,,,,,,,,,,,,,,,chosen stimuli: images/choice_trial_1.png,,,,,65562141ae0a6660324ce572,09:06:07,27/02/2024
html-keyboard-response,179,436643,0.0-74.0-2.0,,,,delaylearn,learning,feedback_duration_window,DZVOo0AA4lTmWVxv6XoOgE5gLH63,DZVOo0AA4lTmWVxv6XoOgE5gLH63,,,,,,,,,,,,,,,,,,7000.0,,,,65562141ae0a6660324ce572,09:06:07,27/02/2024
html-keyboard-response,180,438146,0.0-74.0-3.0,,<div style='margin:auto;width: auto; font-size: 150%'><span style='font-weight: bold; font-size: 100px; color: green;'>+10 points!</span><br><br></div>,,delaylearn,learning,feedback_image_window,DZVOo0AA4lTmWVxv6XoOgE5gLH63,DZVOo0AA4lTmWVxv6XoOgE5gLH63,,,,,,,,,,,,,,,,,,,,,,65562141ae0a6660324ce572,09:06:07,27/02/2024
html-keyboard-response,181,438648,0.0-75.0-0.0,,,,,,mood_trial_fixation,DZVOo0AA4lTmWVxv6XoOgE5gLH63,,,,,,,,,,,,,,,,,,,,,,,65562141ae0a6660324ce572,09:06:07,27/02/2024
lmdlab-html-vas-response,182,442883,0.0-75.0-1.0,3227.0,How happy are you right now?,0.5043572615374182,delaylearn,learning,mood_trial,DZVOo0AA4lTmWVxv6XoOgE5gLH63,DZVOo0AA4lTmWVxv6XoOgE5gLH63,,,,,,,,,,,,,,,,,,,,"['Very unhappy', 'Very happy']",,65562141ae0a6660324ce572,09:06:07,27/02/2024
html-keyboard-response,183,445277,0.0-76.0,,"<div style=""font-size:100px;"">+</div>",,delaylearn,learning,ITI,DZVOo0AA4lTmWVxv6XoOgE5gLH63,DZVOo0AA4lTmWVxv6XoOgE5gLH63,,,,,,,,,,,,,,,,,,,2391.0,,,65562141ae0a6660324ce572,09:06:07,27/02/2024
html-keyboard-response,184,448285,0.0-77.0-0.0,,"<div style=""display: flex; flex-direction: column; align-items: center; margin-top: -40px;""><img src=""images/pattern_6.png"" style=""width: 234px; height: 230px; margin-top: -50px;""><div style=""display: flex; justify-content: space-between; margin-top: 33px;""><img src=""images/choice_trial_11.png"" style=""width: 408px; height: 417px; margin-right: 200px;""><img src=""images/choice_trial_12.png"" style=""width: 408px; height: 417px;""></div></div>",,delaylearn,learning,trial,DZVOo0AA4lTmWVxv6XoOgE5gLH63,DZVOo0AA4lTmWVxv6XoOgE5gLH63,1.0,images/choice_trial_11.png,images/choice_trial_12.png,images/pattern_6.png,j,f,750.0,11.0,12.0,5.0,0.0,33.0,0.0,0.0,0.0,150.0,,,,,,65562141ae0a6660324ce572,09:06:07,27/02/2024
html-keyboard-response,185,449288,0.0-77.0-1.0,,<div style='font-weight: bold; font-size: 75px; color: red;'>Missed Trial <br><br><br><br> Please respond faster</div>,,delaylearn,learning,display_response,DZVOo0AA4lTmWVxv6XoOgE5gLH63,DZVOo0AA4lTmWVxv6XoOgE5gLH63,,,,,,,,,,,,,,,,,Missed trial,,,,,65562141ae0a6660324ce572,09:06:07,27/02/2024
html-keyboard-response,186,449295,0.0-77.0-2.0,,,,delaylearn,learning,feedback_duration_window,DZVOo0AA4lTmWVxv6XoOgE5gLH63,DZVOo0AA4lTmWVxv6XoOgE5gLH63,,,,,,,,,,,,,,,,,,0.0,,,,65562141ae0a6660324ce572,09:06:07,27/02/2024
html-keyboard-response,187,449302,0.0-77.0-3.0,,,,delaylearn,learning,feedback_image_window,DZVOo0AA4lTmWVxv6XoOgE5gLH63,DZVOo0AA4lTmWVxv6XoOgE5gLH63,,,,,,,,,,,,,,,,,,,,,,65562141ae0a6660324ce572,09:06:07,27/02/2024
html-keyboard-response,188,451496,0.0-78.0,,"<div style=""font-size:100px;"">+</div>",,delaylearn,learning,ITI,DZVOo0AA4lTmWVxv6XoOgE5gLH63,DZVOo0AA4lTmWVxv6XoOgE5gLH63,,,,,,,,,,,,,,,,,,,2192.0,,,65562141ae0a6660324ce572,09:06:07,27/02/2024
html-keyboard-response,189,452616,0.0-79.0-0.0,1112.7000000001863,"<div style=""display: flex; flex-direction: column; align-items: center; margin-top: -40px;""><img src=""images/pattern_3.png"" style=""width: 234px; height: 230px; margin-top: -50px;""><div style=""display: flex; justify-content: space-between; margin-top: 33px;""><img src=""images/choice_trial_6.png"" style=""width: 408px; height: 417px; margin-right: 200px;""><img src=""images/choice_trial_5.png"" style=""width: 408px; height: 417px;""></div></div>",f,delaylearn,learning,trial,DZVOo0AA4lTmWVxv6XoOgE5gLH63,DZVOo0AA4lTmWVxv6XoOgE5gLH63,1.0,images/choice_trial_6.png,images/choice_trial_5.png,images/pattern_3.png,j,j,7000.0,6.0,5.0,2.0,1.0,34.0,0.0,0.0,6.0,150.0,,,,,,65562141ae0a6660324ce572,09:06:07,27/02/2024
html-keyboard-response,190,453619,0.0-79.0-1.0,,"<div style=""display: flex; flex-direction: column; align-items: center; margin-top: -40px;""><img src=""images/pattern_3.png"" style=""width: 234px; height: 230px; margin-top: -50px;""><div style=""display: flex; justify-content: space-between; margin-top: 33px;""><img src=""images/choice_trial_6.png"" style=""width: 408px; height: 417px; margin-right: 608px;""></div></div>",,delaylearn,learning,display_response,DZVOo0AA4lTmWVxv6XoOgE5gLH63,DZVOo0AA4lTmWVxv6XoOgE5gLH63,,,,,,,,,,,,,,,,,chosen stimuli: images/choice_trial_6.png,,,,,65562141ae0a6660324ce572,09:06:07,27/02/2024
html-keyboard-response,191,460622,0.0-79.0-2.0,,,,delaylearn,learning,feedback_duration_window,DZVOo0AA4lTmWVxv6XoOgE5gLH63,DZVOo0AA4lTmWVxv6XoOgE5gLH63,,,,,,,,,,,,,,,,,,7000.0,,,,65562141ae0a6660324ce572,09:06:07,27/02/2024
html-keyboard-response,192,462125,0.0-79.0-3.0,,<div style='margin:auto;width: auto; font-size: 150%'><span style='font-weight: bold; font-size: 100px; color: red;'>0 points!</span><br><br></div>,,delaylearn,learning,feedback_image_window,DZVOo0AA4lTmWVxv6XoOgE5gLH63,DZVOo0AA4lTmWVxv6XoOgE5gLH63,,,,,,,,,,,,,,,,,,,,,,65562141ae0a6660324ce572,09:06:07,27/02/2024
html-keyboard-response,193,463750,0.0-80.0,,"<div style=""font-size:100px;"">+</div>",,delaylearn,learning,ITI,DZVOo0AA4lTmWVxv6XoOgE5gLH63,DZVOo0AA4lTmWVxv6XoOgE5gLH63,,,,,,,,,,,,,,,,,,,1623.0,,,65562141ae0a6660324ce572,09:06:07,27/02/2024
html-keyboard-response,194,465238,0.0-81.0-0.0,1481.3999999999069,"<div style=""display: flex; flex-direction: column; align-items: center; margin-top: -40px;""><img src=""images/pattern_4.png"" style=""width: 234px; height: 230px; margin-top: -50px;""><div style=""display: flex; justify-content: space-between; margin-top: 33px;""><img src=""images/choice_trial_8.png"" style=""width: 408px; height: 417px; margin-right: 200px;""><img src=""images/choice_trial_7.png"" style=""width: 408px; height: 417px;""></div></div>",f,delaylearn,learning,trial,DZVOo0AA4lTmWVxv6XoOgE5gLH63,DZVOo0AA4lTmWVxv6XoOgE5gLH63,1.0,images/choice_trial_8.png,images/choice_trial_7.png,images/pattern_4.png,f,j,7000.0,8.0,7.0,3.0,1.0,35.0,0.0,1.0,8.0,160.0,,,,,,65562141ae0a6660324ce572,09:06:07,27/02/2024
html-keyboard-response,195,466243,0.0-81.0-1.0,,"<div style=""display: flex; flex-direction: column; align-items: center; margin-top: -40px;""><img src=""images/pattern_4.png"" style=""width: 234px; height: 230px; margin-top: -50px;""><div style=""display: flex; justify-content: space-between; margin-top: 33px;""><img src=""images/choice_trial_8.png"" style=""width: 408px; height: 417px; margin-right: 608px;""></div></div>",,delaylearn,learning,display_response,DZVOo0AA4lTmWVxv6XoOgE5gLH63,DZVOo0AA4lTmWVxv6XoOgE5gLH63,,,,,,,,,,,,,,,,,chosen stimuli: images/choice_trial_8.png,,,,,65562141ae0a6660324ce572,09:06:07,27/02/2024
html-keyboard-response,196,473245,0.0-81.0-2.0,,,,delaylearn,learning,feedback_duration_window,DZVOo0AA4lTmWVxv6XoOgE5gLH63,DZVOo0AA4lTmWVxv6XoOgE5gLH63,,,,,,,,,,,,,,,,,,7000.0,,,,65562141ae0a6660324ce572,09:06:07,27/02/2024
html-keyboard-response,197,474748,0.0-81.0-3.0,,<div style='margin:auto;width: auto; font-size: 150%'><span style='font-weight: bold; font-size: 100px; color: green;'>+10 points!</span><br><br></div>,,delaylearn,learning,feedback_image_window,DZVOo0AA4lTmWVxv6XoOgE5gLH63,DZVOo0AA4lTmWVxv6XoOgE5gLH63,,,,,,,,,,,,,,,,,,,,,,65562141ae0a6660324ce572,09:06:07,27/02/2024
html-keyboard-response,198,477122,0.0-82.0,,"<div style=""font-size:100px;"">+</div>",,delaylearn,learning,ITI,DZVOo0AA4lTmWVxv6XoOgE5gLH63,DZVOo0AA4lTmWVxv6XoOgE5gLH63,,,,,,,,,,,,,,,,,,,2372.0,,,65562141ae0a6660324ce572,09:06:07,27/02/2024
html-keyboard-response,199,478598,0.0-83.0-0.0,1467.7000000001863,"<div style=""display: flex; flex-direction: column; align-items: center; margin-top: -40px;""><img src=""images/pattern_7.png"" style=""width: 234px; height: 230px; margin-top: -50px;""><div style=""display: flex; justify-content: space-between; margin-top: 33px;""><img src=""images/choice_trial_13.png"" style=""width: 408px; height: 417px; margin-right: 200px;""><img src=""images/choice_trial_14.png"" style=""width: 408px; height: 417px;""></div></div>",f,delaylearn,learning,trial,DZVOo0AA4lTmWVxv6XoOgE5gLH63,DZVOo0AA4lTmWVxv6XoOgE5gLH63,1.0,images/choice_trial_13.png,images/choice_trial_14.png,images/pattern_7.png,f,f,750.0,13.0,14.0,6.0,0.0,36.0,1.0,1.0,13.0,170.0,,,,,,65562141ae0a6660324ce572,09:06:07,27/02/2024
html-keyboard-response,200,479602,0.0-83.0-1.0,,"<div style=""display: flex; flex-direction: column; align-items: center; margin-top: -40px;""><img src=""images/pattern_7.png"" style=""width: 234px; height: 230px; margin-top: -50px;""><div style=""display: flex; justify-content: space-between; margin-top: 33px;""><img src=""images/choice_trial_13.png"" style=""width: 408px; height: 417px; margin-right: 608px;""></div></div>",,delaylearn,learning,display_response,DZVOo0AA4lTmWVxv6XoOgE5gLH63,DZVOo0AA4lTmWVxv6XoOgE5gLH63,,,,,,,,,,,,,,,,,chosen stimuli: images/choice_trial_13.png,,,,,65562141ae0a6660324ce572,09:06:07,27/02/2024
html-keyboard-response,201,480354,0.0-83.0-2.0,,,,delaylearn,learning,feedback_duration_window,DZVOo0AA4lTmWVxv6XoOgE5gLH63,DZVOo0AA4lTmWVxv6XoOgE5gLH63,,,,,,,,,,,,,,,,,,750.0,,,,65562141ae0a6660324ce572,09:06:07,27/02/2024
html-keyboard-response,202,481857,0.0-83.0-3.0,,<div style='margin:auto;width: auto; font-size: 150%'><span style='font-weight: bold; font-size: 100px; color: green;'>+10 points!</span><br><br></div>,,delaylearn,learning,feedback_image_window,DZVOo0AA4lTmWVxv6XoOgE5gLH63,DZVOo0AA4lTmWVxv6XoOgE5gLH63,,,,,,,,,,,,,,,,,,,,,,65562141ae0a6660324ce572,09:06:07,27/02/2024
html-keyboard-response,203,484038,0.0-84.0,,"<div style=""font-size:100px;"">+</div>",,delaylearn,learning,ITI,DZVOo0AA4lTmWVxv6XoOgE5gLH63,DZVOo0AA4lTmWVxv6XoOgE5gLH63,,,,,,,,,,,,,,,,,,,2179.0,,,65562141ae0a6660324ce572,09:06:07,27/02/2024
html-keyboard-response,204,485365,0.0-85.0-0.0,1319.1000000000931,"<div style=""display: flex; flex-direction: column; align-items: center; margin-top: -40px;""><img src=""images/pattern_1.png"" style=""width: 234px; height: 230px; margin-top: -50px;""><div style=""display: flex; justify-content: space-between; margin-top: 33px;""><img src=""images/choice_trial_1.png"" style=""width: 408px; height: 417px; margin-right: 200px;""><img src=""images/choice_trial_2.png"" style=""width: 408px; height: 417px;""></div></div>",f,delaylearn,learning,trial,DZVOo0AA4lTmWVxv6XoOgE5gLH63,DZVOo0AA4lTmWVxv6XoOgE5gLH63,1.0,images/choice_trial_1.png,images/choice_trial_2.png,images/pattern_1.png,f,f,7000.0,1.0,2.0,1.0,0.0,37.0,1.0,1.0,1.0,180.0,,,,,,65562141ae0a6660324ce572,09:06:07,27/02/2024
html-keyboard-response,205,486370,0.0-85.0-1.0,,"<div style=""display: flex; flex-direction: column; align-items: center; margin-top: -40px;""><img src=""images/pattern_1.png"" style=""width: 234px; height: 230px; margin-top: -50px;""><div style=""display: flex; justify-content: space-between; margin-top: 33px;""><img src=""images/choice_trial_1.png"" style=""width: 408px; height: 417px; margin-right: 608px;""></div></div>",,delaylearn,learning,display_response,DZVOo0AA4lTmWVxv6XoOgE5gLH63,DZVOo0AA4lTmWVxv6XoOgE5gLH63,,,,,,,,,,,,,,,,,chosen stimuli: images/choice_trial_1.png,,,,,65562141ae0a6660324ce572,09:06:07,27/02/2024
html-keyboard-response,206,493372,0.0-85.0-2.0,,,,delaylearn,learning,feedback_duration_window,DZVOo0AA4lTmWVxv6XoOgE5gLH63,DZVOo0AA4lTmWVxv6XoOgE5gLH63,,,,,,,,,,,,,,,,,,7000.0,,,,65562141ae0a6660324ce572,09:06:07,27/02/2024
html-keyboard-response,207,494875,0.0-85.0-3.0,,<div style='margin:auto;width: auto; font-size: 150%'><span style='font-weight: bold; font-size: 100px; color: green;'>+10 points!</span><br><br></div>,,delaylearn,learning,feedback_image_window,DZVOo0AA4lTmWVxv6XoOgE5gLH63,DZVOo0AA4lTmWVxv6XoOgE5gLH63,,,,,,,,,,,,,,,,,,,,,,65562141ae0a6660324ce572,09:06:07,27/02/2024
html-keyboard-response,208,495377,0.0-86.0-0.0,,,,,,mood_trial_fixation,DZVOo0AA4lTmWVxv6XoOgE5gLH63,,,,,,,,,,,,,,,,,,,,,,,65562141ae0a6660324ce572,09:06:07,27/02/2024
lmdlab-html-vas-response,209,500888,0.0-86.0-1.0,4503.0,How happy are you right now?,0.47831541826319895,delaylearn,learning,mood_trial,DZVOo0AA4lTmWVxv6XoOgE5gLH63,DZVOo0AA4lTmWVxv6XoOgE5gLH63,,,,,,,,,,,,,,,,,,,,"['Very unhappy', 'Very happy']",,65562141ae0a6660324ce572,09:06:07,27/02/2024
html-keyboard-response,210,503354,0.0-87.0,,"<div style=""font-size:100px;"">+</div>",,delaylearn,learning,ITI,DZVOo0AA4lTmWVxv6XoOgE5gLH63,DZVOo0AA4lTmWVxv6XoOgE5gLH63,,,,,,,,,,,,,,,,,,,2463.0,,,65562141ae0a6660324ce572,09:06:07,27/02/2024
html-keyboard-response,211,505651,0.0-88.0-0.0,2290.600000000093,"<div style=""display: flex; flex-direction: column; align-items: center; margin-top: -40px;""><img src=""images/pattern_3.png"" style=""width: 234px; height: 230px; margin-top: -50px;""><div style=""display: flex; justify-content: space-between; margin-top: 33px;""><img src=""images/choice_trial_5.png"" style=""width: 408px; height: 417px; margin-right: 200px;""><img src=""images/choice_trial_6.png"" style=""width: 408px; height: 417px;""></div></div>",f,delaylearn,learning,trial,DZVOo0AA4lTmWVxv6XoOgE5gLH63,DZVOo0AA4lTmWVxv6XoOgE5gLH63,1.0,images/choice_trial_5.png,images/choice_trial_6.png,images/pattern_3.png,j,f,7000.0,5.0,6.0,2.0,0.0,38.0,1.0,0.0,5.0,180.0,,,,,,65562141ae0a6660324ce572,09:06:07,27/02/2024
html-keyboard-response,212,506656,0.0-88.0-1.0,,"<div style=""display: flex; flex-direction: column; align-items: center; margin-top: -40px;""><img src=""images/pattern_3.png"" style=""width: 234px; height: 230px; margin-top: -50px;""><div style=""display: flex; justify-content: space-between; margin-top: 33px;""><img src=""images/choice_trial_5.png"" style=""width: 408px; height: 417px; margin-right: 608px;""></div></div>",,delaylearn,learning,display_response,DZVOo0AA4lTmWVxv6XoOgE5gLH63,DZVOo0AA4lTmWVxv6XoOgE5gLH63,,,,,,,,,,,,,,,,,chosen stimuli: images/choice_trial_5.png,,,,,65562141ae0a6660324ce572,09:06:07,27/02/2024
html-keyboard-response,213,513659,0.0-88.0-2.0,,,,delaylearn,learning,feedback_duration_window,DZVOo0AA4lTmWVxv6XoOgE5gLH63,DZVOo0AA4lTmWVxv6XoOgE5gLH63,,,,,,,,,,,,,,,,,,7000.0,,,,65562141ae0a6660324ce572,09:06:07,27/02/2024
html-keyboard-response,214,515162,0.0-88.0-3.0,,<div style='margin:auto;width: auto; font-size: 150%'><span style='font-weight: bold; font-size: 100px; color: red;'>0 points!</span><br><br></div>,,delaylearn,learning,feedback_image_window,DZVOo0AA4lTmWVxv6XoOgE5gLH63,DZVOo0AA4lTmWVxv6XoOgE5gLH63,,,,,,,,,,,,,,,,,,,,,,65562141ae0a6660324ce572,09:06:07,27/02/2024
html-keyboard-response,215,517400,0.0-89.0,,"<div style=""font-size:100px;"">+</div>",,delaylearn,learning,ITI,DZVOo0AA4lTmWVxv6XoOgE5gLH63,DZVOo0AA4lTmWVxv6XoOgE5gLH63,,,,,,,,,,,,,,,,,,,2236.0,,,65562141ae0a6660324ce572,09:06:07,27/02/2024
html-keyboard-response,216,518861,0.0-90.0-0.0,1457.8999999999069,"<div style=""display: flex; flex-direction: column; align-items: center; margin-top: -40px;""><img src=""images/pattern_7.png"" style=""width: 234px; height: 230px; margin-top: -50px;""><div style=""display: flex; justify-content: space-between; margin-top: 33px;""><img src=""images/choice_trial_14.png"" style=""width: 408px; height: 417px; margin-right: 200px;""><img src=""images/choice_trial_13.png"" style=""width: 408px; height: 417px;""></div></div>",f,delaylearn,learning,trial,DZVOo0AA4lTmWVxv6XoOgE5gLH63,DZVOo0AA4lTmWVxv6XoOgE5gLH63,1.0,images/choice_trial_14.png,images/choice_trial_13.png,images/pattern_7.png,j,j,750.0,14.0,13.0,6.0,1.0,39.0,0.0,0.0,14.0,180.0,,,,,,65562141ae0a6660324ce572,09:06:07,27/02/2024
html-keyboard-response,217,519866,0.0-90.0-1.0,,"<div style=""display: flex; flex-direction: column; align-items: center; margin-top: -40px;""><img src=""images/pattern_7.png"" style=""width: 234px; height: 230px; margin-top: -50px;""><div style=""display: flex; justify-content: space-between; margin-top: 33px;""><img src=""images/choice_trial_14.png"" style=""width: 408px; height: 417px; margin-right: 608px;""></div></div>",,delaylearn,learning,display_response,DZVOo0AA4lTmWVxv6XoOgE5gLH63,DZVOo0AA4lTmWVxv6XoOgE5gLH63,,,,,,,,,,,,,,,,,chosen stimuli: images/choice_trial_14.png,,,,,65562141ae0a6660324ce572,09:06:07,27/02/2024
html-keyboard-response,218,520618,0.0-90.0-2.0,,,,delaylearn,learning,feedback_duration_window,DZVOo0AA4lTmWVxv6XoOgE5gLH63,DZVOo0AA4lTmWVxv6XoOgE5gLH63,,,,,,,,,,,,,,,,,,750.0,,,,65562141ae0a6660324ce572,09:06:07,27/02/2024
html-keyboard-response,219,522121,0.0-90.0-3.0,,<div style='margin:auto;width: auto; font-size: 150%'><span style='font-weight: bold; font-size: 100px; color: red;'>0 points!</span><br><br></div>,,delaylearn,learning,feedback_image_window,DZVOo0AA4lTmWVxv6XoOgE5gLH63,DZVOo0AA4lTmWVxv6XoOgE5gLH63,,,,,,,,,,,,,,,,,,,,,,65562141ae0a6660324ce572,09:06:07,27/02/2024
html-keyboard-response,220,523666,0.0-91.0,,"<div style=""font-size:100px;"">+</div>",,delaylearn,learning,ITI,DZVOo0AA4lTmWVxv6XoOgE5gLH63,DZVOo0AA4lTmWVxv6XoOgE5gLH63,,,,,,,,,,,,,,,,,,,1541.0,,,65562141ae0a6660324ce572,09:06:07,27/02/2024
html-keyboard-response,221,525526,0.0-92.0-0.0,1848.2000000001863,"<div style=""display: flex; flex-direction: column; align-items: center; margin-top: -40px;""><img src=""images/pattern_5.png"" style=""width: 234px; height: 230px; margin-top: -50px;""><div style=""display: flex; justify-content: space-between; margin-top: 33px;""><img src=""images/choice_trial_10.png"" style=""width: 408px; height: 417px; margin-right: 200px;""><img src=""images/choice_trial_9.png"" style=""width: 408px; height: 417px;""></div></div>",j,delaylearn,learning,trial,DZVOo0AA4lTmWVxv6XoOgE5gLH63,DZVOo0AA4lTmWVxv6XoOgE5gLH63,1.0,images/choice_trial_10.png,images/choice_trial_9.png,images/pattern_5.png,j,j,750.0,10.0,9.0,4.0,1.0,40.0,1.0,1.0,9.0,190.0,,,,,,65562141ae0a6660324ce572,09:06:07,27/02/2024
html-keyboard-response,222,526530,0.0-92.0-1.0,,"<div style=""display: flex; flex-direction: column; align-items: center; margin-top: -40px;""><img src=""images/pattern_5.png"" style=""width: 234px; height: 230px; margin-top: -50px;""><div style=""display: flex; justify-content: space-between; margin-top: 33px;""><img src=""images/choice_trial_9.png"" style=""width: 408px; height: 417px; margin-left:608px;""></div></div>",,delaylearn,learning,display_response,DZVOo0AA4lTmWVxv6XoOgE5gLH63,DZVOo0AA4lTmWVxv6XoOgE5gLH63,,,,,,,,,,,,,,,,,chosen stimuli: images/choice_trial_9.png,,,,,65562141ae0a6660324ce572,09:06:07,27/02/2024
html-keyboard-response,223,527282,0.0-92.0-2.0,,,,delaylearn,learning,feedback_duration_window,DZVOo0AA4lTmWVxv6XoOgE5gLH63,DZVOo0AA4lTmWVxv6XoOgE5gLH63,,,,,,,,,,,,,,,,,,750.0,,,,65562141ae0a6660324ce572,09:06:07,27/02/2024
html-keyboard-response,224,528785,0.0-92.0-3.0,,<div style='margin:auto;width: auto; font-size: 150%'><span style='font-weight: bold; font-size: 100px; color: green;'>+10 points!</span><br><br></div>,,delaylearn,learning,feedback_image_window,DZVOo0AA4lTmWVxv6XoOgE5gLH63,DZVOo0AA4lTmWVxv6XoOgE5gLH63,,,,,,,,,,,,,,,,,,,,,,65562141ae0a6660324ce572,09:06:07,27/02/2024
html-keyboard-response,225,529288,0.0-93.0-0.0,,,,,,mood_trial_fixation,DZVOo0AA4lTmWVxv6XoOgE5gLH63,,,,,,,,,,,,,,,,,,,,,,,65562141ae0a6660324ce572,09:06:07,27/02/2024
lmdlab-html-vas-response,226,534348,0.0-93.0-1.0,4052.0,How happy are you right now?,0.48482587908175373,delaylearn,learning,mood_trial,DZVOo0AA4lTmWVxv6XoOgE5gLH63,DZVOo0AA4lTmWVxv6XoOgE5gLH63,,,,,,,,,,,,,,,,,,,,"['Very unhappy', 'Very happy']",,65562141ae0a6660324ce572,09:06:07,27/02/2024
html-keyboard-response,227,536730,0.0-94.0,,"<div style=""font-size:100px;"">+</div>",,delaylearn,learning,ITI,DZVOo0AA4lTmWVxv6XoOgE5gLH63,DZVOo0AA4lTmWVxv6XoOgE5gLH63,,,,,,,,,,,,,,,,,,,2379.0,,,65562141ae0a6660324ce572,09:06:07,27/02/2024
html-keyboard-response,228,538203,0.0-95.0-0.0,1465.7999999998137,"<div style=""display: flex; flex-direction: column; align-items: center; margin-top: -40px;""><img src=""images/pattern_4.png"" style=""width: 234px; height: 230px; margin-top: -50px;""><div style=""display: flex; justify-content: space-between; margin-top: 33px;""><img src=""images/choice_trial_7.png"" style=""width: 408px; height: 417px; margin-right: 200px;""><img src=""images/choice_trial_8.png"" style=""width: 408px; height: 417px;""></div></div>",j,delaylearn,learning,trial,DZVOo0AA4lTmWVxv6XoOgE5gLH63,DZVOo0AA4lTmWVxv6XoOgE5gLH63,1.0,images/choice_trial_7.png,images/choice_trial_8.png,images/pattern_4.png,f,f,7000.0,7.0,8.0,3.0,0.0,41.0,0.0,0.0,8.0,190.0,,,,,,65562141ae0a6660324ce572,09:06:07,27/02/2024
html-keyboard-response,229,539208,0.0-95.0-1.0,,"<div style=""display: flex; flex-direction: column; align-items: center; margin-top: -40px;""><img src=""images/pattern_4.png"" style=""width: 234px; height: 230px; margin-top: -50px;""><div style=""display: flex; justify-content: space-between; margin-top: 33px;""><img src=""images/choice_trial_8.png"" style=""width: 408px; height: 417px; margin-left:608px;""></div></div>",,delaylearn,learning,display_response,DZVOo0AA4lTmWVxv6XoOgE5gLH63,DZVOo0AA4lTmWVxv6XoOgE5gLH63,,,,,,,,,,,,,,,,,chosen stimuli: images/choice_trial_8.png,,,,,65562141ae0a6660324ce572,09:06:07,27/02/2024
html-keyboard-response,230,546210,0.0-95.0-2.0,,,,delaylearn,learning,feedback_duration_window,DZVOo0AA4lTmWVxv6XoOgE5gLH63,DZVOo0AA4lTmWVxv6XoOgE5gLH63,,,,,,,,,,,,,,,,,,7000.0,,,,65562141ae0a6660324ce572,09:06:07,27/02/2024
html-keyboard-response,231,547713,0.0-95.0-3.0,,<div style='margin:auto;width: auto; font-size: 150%'><span style='font-weight: bold; font-size: 100px; color: red;'>0 points!</span><br><br></div>,,delaylearn,learning,feedback_image_window,DZVOo0AA4lTmWVxv6XoOgE5gLH63,DZVOo0AA4lTmWVxv6XoOgE5gLH63,,,,,,,,,,,,,,,,,,,,,,65562141ae0a6660324ce572,09:06:07,27/02/2024
html-keyboard-response,232,550002,0.0-96.0,,"<div style=""font-size:100px;"">+</div>",,delaylearn,learning,ITI,DZVOo0AA4lTmWVxv6XoOgE5gLH63,DZVOo0AA4lTmWVxv6XoOgE5gLH63,,,,,,,,,,,,,,,,,,,2286.0,,,65562141ae0a6660324ce572,09:06:07,27/02/2024
html-keyboard-response,233,551977,0.0-97.0-0.0,1966.3000000002794,"<div style=""display: flex; flex-direction: column; align-items: center; margin-top: -40px;""><img src=""images/pattern_6.png"" style=""width: 234px; height: 230px; margin-top: -50px;""><div style=""display: flex; justify-content: space-between; margin-top: 33px;""><img src=""images/choice_trial_12.png"" style=""width: 408px; height: 417px; margin-right: 200px;""><img src=""images/choice_trial_11.png"" style=""width: 408px; height: 417px;""></div></div>",f,delaylearn,learning,trial,DZVOo0AA4lTmWVxv6XoOgE5gLH63,DZVOo0AA4lTmWVxv6XoOgE5gLH63,1.0,images/choice_trial_12.png,images/choice_trial_11.png,images/pattern_6.png,j,j,750.0,12.0,11.0,5.0,1.0,42.0,0.0,0.0,12.0,190.0,,,,,,65562141ae0a6660324ce572,09:06:07,27/02/2024
