trial_type,trial_index,time_elapsed,internal_node_id,rt,stimulus,response,exp_name,exp_stage,test_part,subjectID,databaseID,counterbal,choice_stimuli_1,choice_stimuli_2,pattern_stimuli,rewarded_answer,correct_answer,feedback_duration_times,stim_left,stim_right,pair,leftright_counter,trial,response_correct,response_rewarded,chosen_stim,counter,displayed_choice,feedback_durations,ITI_duration,labels,rest_warning,prolificID,start_time,date
pavlovia,0,965,0.0-0.0,,,,,,,J8wfYS52IZOQXuy13hENthGXNqy2,,,,,,,,,,,,,,,,,,,,,,,65c8ae4d5f25e8b4062a4c93,10:07:05,27/02/2024
html-keyboard-response,1,3969,0.0-1.0,,"<div style=""font-size:100px;"">+</div>",,delaylearn,learning,pre_fixation,J8wfYS52IZOQXuy13hENthGXNqy2,,,,,,,,,,,,,,,,,,,,,,,65c8ae4d5f25e8b4062a4c93,10:07:05,27/02/2024
html-keyboard-response,2,4692,0.0-2.0-0.0,720.2000000029802,"<div style=""display: flex; flex-direction: column; align-items: center; margin-top: -40px;""><img src=""images/demo_images/pattern_1.png"" style=""width: 234px; height: 230px; margin-top: -50px;""><div style=""display: flex; justify-content: space-between; margin-top: 33px;""><img src=""images/demo_images/choice_trial_2.png"" style=""width: 408px; height: 417px; margin-right: 200px;""><img src=""images/demo_images/choice_trial_1.png"" style=""width: 408px; height: 417px;""></div></div>",f,delaylearn,learning,trial,J8wfYS52IZOQXuy13hENthGXNqy2,J8wfYS52IZOQXuy13hENthGXNqy2,2.0,images/demo_images/choice_trial_2.png,images/demo_images/choice_trial_1.png,images/demo_images/pattern_1.png,j,j,3000.0,2.0,1.0,20.0,1.0,1.0,0.0,0.0,2.0,0.0,,,,,,65c8ae4d5f25e8b4062a4c93,10:07:05,27/02/2024
html-keyboard-response,3,5696,0.0-2.0-1.0,,"<div style=""display: flex; flex-direction: column; align-items: center; margin-top: -40px;""><img src=""images/demo_images/pattern_1.png"" style=""width: 234px; height: 230px; margin-top: -50px;""><div style=""display: flex; justify-content: space-between; margin-top: 33px;""><img src=""images/demo_images/choice_trial_2.png"" style=""width: 408px; height: 417px; margin-right: 608px;""></div></div>",,delaylearn,learning,display_response,J8wfYS52IZOQXuy13hENthGXNqy2,J8wfYS52IZOQXuy13hENthGXNqy2,,,,,,,,,,,,,,,,,chosen stimuli: images/demo_images/choice_trial_2.png,,,,,65c8ae4d5f25e8b4062a4c93,10:07:05,27/02/2024
html-keyboard-response,4,8700,0.0-2.0-2.0,,,,delaylearn,learning,feedback_duration_window,J8wfYS52IZOQXuy13hENthGXNqy2,J8wfYS52IZOQXuy13hENthGXNqy2,,,,,,,,,,,,,,,,,,3000.0,,,,65c8ae4d5f25e8b4062a4c93,10:07:05,27/02/2024
html-keyboard-response,5,10204,0.0-2.0-3.0,,<div style='margin:auto;width: auto; font-size: 150%'><span style='font-weight: bold; font-size: 100px; color: red;'>0 points!</span><br><br></div>,,delaylearn,learning,feedback_image_window,J8wfYS52IZOQXuy13hENthGXNqy2,J8wfYS52IZOQXuy13hENthGXNqy2,,,,,,,,,,,,,,,,,,,,,,65c8ae4d5f25e8b4062a4c93,10:07:05,27/02/2024
html-keyboard-response,6,11812,0.0-3.0,,"<div style=""font-size:100px;"">+</div>",,delaylearn,learning,ITI,J8wfYS52IZOQXuy13hENthGXNqy2,J8wfYS52IZOQXuy13hENthGXNqy2,,,,,,,,,,,,,,,,,,,1604.0,,,65c8ae4d5f25e8b4062a4c93,10:07:05,27/02/2024
html-keyboard-response,7,13431,0.0-4.0-0.0,1615.9000000059605,"<div style=""display: flex; flex-direction: column; align-items: center; margin-top: -40px;""><img src=""images/demo_images/pattern_1.png"" style=""width: 234px; height: 230px; margin-top: -50px;""><div style=""display: flex; justify-content: space-between; margin-top: 33px;""><img src=""images/demo_images/choice_trial_2.png"" style=""width: 408px; height: 417px; margin-right: 200px;""><img src=""images/demo_images/choice_trial_1.png"" style=""width: 408px; height: 417px;""></div></div>",f,delaylearn,learning,trial,J8wfYS52IZOQXuy13hENthGXNqy2,J8wfYS52IZOQXuy13hENthGXNqy2,2.0,images/demo_images/choice_trial_2.png,images/demo_images/choice_trial_1.png,images/demo_images/pattern_1.png,j,j,3000.0,2.0,1.0,20.0,1.0,2.0,0.0,0.0,2.0,0.0,,,,,,65c8ae4d5f25e8b4062a4c93,10:07:05,27/02/2024
html-keyboard-response,8,14436,0.0-4.0-1.0,,"<div style=""display: flex; flex-direction: column; align-items: center; margin-top: -40px;""><img src=""images/demo_images/pattern_1.png"" style=""width: 234px; height: 230px; margin-top: -50px;""><div style=""display: flex; justify-content: space-between; margin-top: 33px;""><img src=""images/demo_images/choice_trial_2.png"" style=""width: 408px; height: 417px; margin-right: 608px;""></div></div>",,delaylearn,learning,display_response,J8wfYS52IZOQXuy13hENthGXNqy2,J8wfYS52IZOQXuy13hENthGXNqy2,,,,,,,,,,,,,,,,,chosen stimuli: images/demo_images/choice_trial_2.png,,,,,65c8ae4d5f25e8b4062a4c93,10:07:05,27/02/2024
html-keyboard-response,9,17439,0.0-4.0-2.0,,,,delaylearn,learning,feedback_duration_window,J8wfYS52IZOQXuy13hENthGXNqy2,J8wfYS52IZOQXuy13hENthGXNqy2,,,,,,,,,,,,,,,,,,3000.0,,,,65c8ae4d5f25e8b4062a4c93,10:07:05,27/02/2024
html-keyboard-response,10,18942,0.0-4.0-3.0,,<div style='margin:auto;width: auto; font-size: 150%'><span style='font-weight: bold; font-size: 100px; color: red;'>0 points!</span><br><br></div>,,delaylearn,learning,feedback_image_window,J8wfYS52IZOQXuy13hENthGXNqy2,J8wfYS52IZOQXuy13hENthGXNqy2,,,,,,,,,,,,,,,,,,,,,,65c8ae4d5f25e8b4062a4c93,10:07:05,27/02/2024
html-keyboard-response,11,20834,0.0-5.0,,"<div style=""font-size:100px;"">+</div>",,delaylearn,learning,ITI,J8wfYS52IZOQXuy13hENthGXNqy2,J8wfYS52IZOQXuy13hENthGXNqy2,,,,,,,,,,,,,,,,,,,1889.0,,,65c8ae4d5f25e8b4062a4c93,10:07:05,27/02/2024
html-keyboard-response,12,21339,0.0-6.0-0.0,502.3999999910593,"<div style=""display: flex; flex-direction: column; align-items: center; margin-top: -40px;""><img src=""images/demo_images/pattern_1.png"" style=""width: 234px; height: 230px; margin-top: -50px;""><div style=""display: flex; justify-content: space-between; margin-top: 33px;""><img src=""images/demo_images/choice_trial_1.png"" style=""width: 408px; height: 417px; margin-right: 200px;""><img src=""images/demo_images/choice_trial_2.png"" style=""width: 408px; height: 417px;""></div></div>",j,delaylearn,learning,trial,J8wfYS52IZOQXuy13hENthGXNqy2,J8wfYS52IZOQXuy13hENthGXNqy2,2.0,images/demo_images/choice_trial_1.png,images/demo_images/choice_trial_2.png,images/demo_images/pattern_1.png,j,f,3000.0,1.0,2.0,20.0,0.0,3.0,0.0,1.0,2.0,10.0,,,,,,65c8ae4d5f25e8b4062a4c93,10:07:05,27/02/2024
html-keyboard-response,13,22343,0.0-6.0-1.0,,"<div style=""display: flex; flex-direction: column; align-items: center; margin-top: -40px;""><img src=""images/demo_images/pattern_1.png"" style=""width: 234px; height: 230px; margin-top: -50px;""><div style=""display: flex; justify-content: space-between; margin-top: 33px;""><img src=""images/demo_images/choice_trial_2.png"" style=""width: 408px; height: 417px; margin-left:608px;""></div></div>",,delaylearn,learning,display_response,J8wfYS52IZOQXuy13hENthGXNqy2,J8wfYS52IZOQXuy13hENthGXNqy2,,,,,,,,,,,,,,,,,chosen stimuli: images/demo_images/choice_trial_2.png,,,,,65c8ae4d5f25e8b4062a4c93,10:07:05,27/02/2024
html-keyboard-response,14,25347,0.0-6.0-2.0,,,,delaylearn,learning,feedback_duration_window,J8wfYS52IZOQXuy13hENthGXNqy2,J8wfYS52IZOQXuy13hENthGXNqy2,,,,,,,,,,,,,,,,,,3000.0,,,,65c8ae4d5f25e8b4062a4c93,10:07:05,27/02/2024
html-keyboard-response,15,26851,0.0-6.0-3.0,,<div style='margin:auto;width: auto; font-size: 150%'><span style='font-weight: bold; font-size: 100px; color: green;'>+10 points!</span><br><br></div>,,delaylearn,learning,feedback_image_window,J8wfYS52IZOQXuy13hENthGXNqy2,J8wfYS52IZOQXuy13hENthGXNqy2,,,,,,,,,,,,,,,,,,,,,,65c8ae4d5f25e8b4062a4c93,10:07:05,27/02/2024
html-keyboard-response,16,28550,0.0-7.0,,"<div style=""font-size:100px;"">+</div>",,delaylearn,learning,ITI,J8wfYS52IZOQXuy13hENthGXNqy2,J8wfYS52IZOQXuy13hENthGXNqy2,,,,,,,,,,,,,,,,,,,1696.0,,,65c8ae4d5f25e8b4062a4c93,10:07:05,27/02/2024
html-keyboard-response,17,29572,0.0-8.0-0.0,1019.3999999910593,"<div style=""display: flex; flex-direction: column; align-items: center; margin-top: -40px;""><img src=""images/demo_images/pattern_1.png"" style=""width: 234px; height: 230px; margin-top: -50px;""><div style=""display: flex; justify-content: space-between; margin-top: 33px;""><img src=""images/demo_images/choice_trial_1.png"" style=""width: 408px; height: 417px; margin-right: 200px;""><img src=""images/demo_images/choice_trial_2.png"" style=""width: 408px; height: 417px;""></div></div>",j,delaylearn,learning,trial,J8wfYS52IZOQXuy13hENthGXNqy2,J8wfYS52IZOQXuy13hENthGXNqy2,2.0,images/demo_images/choice_trial_1.png,images/demo_images/choice_trial_2.png,images/demo_images/pattern_1.png,f,f,3000.0,1.0,2.0,20.0,0.0,4.0,0.0,0.0,2.0,10.0,,,,,,65c8ae4d5f25e8b4062a4c93,10:07:05,27/02/2024
html-keyboard-response,18,30575,0.0-8.0-1.0,,"<div style=""display: flex; flex-direction: column; align-items: center; margin-top: -40px;""><img src=""images/demo_images/pattern_1.png"" style=""width: 234px; height: 230px; margin-top: -50px;""><div style=""display: flex; justify-content: space-between; margin-top: 33px;""><img src=""images/demo_images/choice_trial_2.png"" style=""width: 408px; height: 417px; margin-left:608px;""></div></div>",,delaylearn,learning,display_response,J8wfYS52IZOQXuy13hENthGXNqy2,J8wfYS52IZOQXuy13hENthGXNqy2,,,,,,,,,,,,,,,,,chosen stimuli: images/demo_images/choice_trial_2.png,,,,,65c8ae4d5f25e8b4062a4c93,10:07:05,27/02/2024
html-keyboard-response,19,33578,0.0-8.0-2.0,,,,delaylearn,learning,feedback_duration_window,J8wfYS52IZOQXuy13hENthGXNqy2,J8wfYS52IZOQXuy13hENthGXNqy2,,,,,,,,,,,,,,,,,,3000.0,,,,65c8ae4d5f25e8b4062a4c93,10:07:05,27/02/2024
html-keyboard-response,20,35081,0.0-8.0-3.0,,<div style='margin:auto;width: auto; font-size: 150%'><span style='font-weight: bold; font-size: 100px; color: red;'>0 points!</span><br><br></div>,,delaylearn,learning,feedback_image_window,J8wfYS52IZOQXuy13hENthGXNqy2,J8wfYS52IZOQXuy13hENthGXNqy2,,,,,,,,,,,,,,,,,,,,,,65c8ae4d5f25e8b4062a4c93,10:07:05,27/02/2024
html-keyboard-response,21,35584,0.0-9.0-0.0,,,,,,mood_trial_fixation,J8wfYS52IZOQXuy13hENthGXNqy2,,,,,,,,,,,,,,,,,,,,,,,65c8ae4d5f25e8b4062a4c93,10:07:05,27/02/2024
lmdlab-html-vas-response,22,39709,0.0-9.0-1.0,3111.0,How happy are you right now?,0.4740740740740741,delaylearn,learning,mood_trial,J8wfYS52IZOQXuy13hENthGXNqy2,J8wfYS52IZOQXuy13hENthGXNqy2,,,,,,,,,,,,,,,,,,,,"['Very unhappy', 'Very happy']",,65c8ae4d5f25e8b4062a4c93,10:07:05,27/02/2024
html-keyboard-response,23,41932,0.0-10.0,,"<div style=""font-size:100px;"">+</div>",,delaylearn,learning,ITI,J8wfYS52IZOQXuy13hENthGXNqy2,J8wfYS52IZOQXuy13hENthGXNqy2,,,,,,,,,,,,,,,,,,,2220.0,,,65c8ae4d5f25e8b4062a4c93,10:07:05,27/02/2024
html-keyboard-response,24,43287,0.0-11.0-0.0,1351.5,"<div style=""display: flex; flex-direction: column; align-items: center; margin-top: -40px;""><img src=""images/demo_images/pattern_1.png"" style=""width: 234px; height: 230px; margin-top: -50px;""><div style=""display: flex; justify-content: space-between; margin-top: 33px;""><img src=""images/demo_images/choice_trial_2.png"" style=""width: 408px; height: 417px; margin-right: 200px;""><img src=""images/demo_images/choice_trial_1.png"" style=""width: 408px; height: 417px;""></div></div>",j,delaylearn,learning,trial,J8wfYS52IZOQXuy13hENthGXNqy2,J8wfYS52IZOQXuy13hENthGXNqy2,2.0,images/demo_images/choice_trial_2.png,images/demo_images/choice_trial_1.png,images/demo_images/pattern_1.png,j,j,3000.0,2.0,1.0,20.0,1.0,5.0,1.0,1.0,1.0,20.0,,,,,,65c8ae4d5f25e8b4062a4c93,10:07:05,27/02/2024
html-keyboard-response,25,44291,0.0-11.0-1.0,,"<div style=""display: flex; flex-direction: column; align-items: center; margin-top: -40px;""><img src=""images/demo_images/pattern_1.png"" style=""width: 234px; height: 230px; margin-top: -50px;""><div style=""display: flex; justify-content: space-between; margin-top: 33px;""><img src=""images/demo_images/choice_trial_1.png"" style=""width: 408px; height: 417px; margin-left:608px;""></div></div>",,delaylearn,learning,display_response,J8wfYS52IZOQXuy13hENthGXNqy2,J8wfYS52IZOQXuy13hENthGXNqy2,,,,,,,,,,,,,,,,,chosen stimuli: images/demo_images/choice_trial_1.png,,,,,65c8ae4d5f25e8b4062a4c93,10:07:05,27/02/2024
html-keyboard-response,26,47294,0.0-11.0-2.0,,,,delaylearn,learning,feedback_duration_window,J8wfYS52IZOQXuy13hENthGXNqy2,J8wfYS52IZOQXuy13hENthGXNqy2,,,,,,,,,,,,,,,,,,3000.0,,,,65c8ae4d5f25e8b4062a4c93,10:07:05,27/02/2024
html-keyboard-response,27,48798,0.0-11.0-3.0,,<div style='margin:auto;width: auto; font-size: 150%'><span style='font-weight: bold; font-size: 100px; color: green;'>+10 points!</span><br><br></div>,,delaylearn,learning,feedback_image_window,J8wfYS52IZOQXuy13hENthGXNqy2,J8wfYS52IZOQXuy13hENthGXNqy2,,,,,,,,,,,,,,,,,,,,,,65c8ae4d5f25e8b4062a4c93,10:07:05,27/02/2024
html-keyboard-response,28,50342,0.0-12.0,,"<div style=""font-size:100px;"">+</div>",,delaylearn,learning,ITI,J8wfYS52IZOQXuy13hENthGXNqy2,J8wfYS52IZOQXuy13hENthGXNqy2,,,,,,,,,,,,,,,,,,,1541.0,,,65c8ae4d5f25e8b4062a4c93,10:07:05,27/02/2024
html-keyboard-response,29,51964,0.0-13.0-0.0,1618.800000011921,"<div style=""display: flex; flex-direction: column; align-items: center; margin-top: -40px;""><img src=""images/demo_images/pattern_1.png"" style=""width: 234px; height: 230px; margin-top: -50px;""><div style=""display: flex; justify-content: space-between; margin-top: 33px;""><img src=""images/demo_images/choice_trial_1.png"" style=""width: 408px; height: 417px; margin-right: 200px;""><img src=""images/demo_images/choice_trial_2.png"" style=""width: 408px; height: 417px;""></div></div>",f,delaylearn,learning,trial,J8wfYS52IZOQXuy13hENthGXNqy2,J8wfYS52IZOQXuy13hENthGXNqy2,2.0,images/demo_images/choice_trial_1.png,images/demo_images/choice_trial_2.png,images/demo_images/pattern_1.png,f,f,3000.0,1.0,2.0,20.0,0.0,6.0,1.0,1.0,1.0,30.0,,,,,,65c8ae4d5f25e8b4062a4c93,10:07:05,27/02/2024
html-keyboard-response,30,52967,0.0-13.0-1.0,,"<div style=""display: flex; flex-direction: column; align-items: center; margin-top: -40px;""><img src=""images/demo_images/pattern_1.png"" style=""width: 234px; height: 230px; margin-top: -50px;""><div style=""display: flex; justify-content: space-between; margin-top: 33px;""><img src=""images/demo_images/choice_trial_1.png"" style=""width: 408px; height: 417px; margin-right: 608px;""></div></div>",,delaylearn,learning,display_response,J8wfYS52IZOQXuy13hENthGXNqy2,J8wfYS52IZOQXuy13hENthGXNqy2,,,,,,,,,,,,,,,,,chosen stimuli: images/demo_images/choice_trial_1.png,,,,,65c8ae4d5f25e8b4062a4c93,10:07:05,27/02/2024
html-keyboard-response,31,55971,0.0-13.0-2.0,,,,delaylearn,learning,feedback_duration_window,J8wfYS52IZOQXuy13hENthGXNqy2,J8wfYS52IZOQXuy13hENthGXNqy2,,,,,,,,,,,,,,,,,,3000.0,,,,65c8ae4d5f25e8b4062a4c93,10:07:05,27/02/2024
html-keyboard-response,32,57474,0.0-13.0-3.0,,<div style='margin:auto;width: auto; font-size: 150%'><span style='font-weight: bold; font-size: 100px; color: green;'>+10 points!</span><br><br></div>,,delaylearn,learning,feedback_image_window,J8wfYS52IZOQXuy13hENthGXNqy2,J8wfYS52IZOQXuy13hENthGXNqy2,,,,,,,,,,,,,,,,,,,,,,65c8ae4d5f25e8b4062a4c93,10:07:05,27/02/2024
html-button-response,33,59908,0.0-14.0,2431.199999988079,"
  <div style=""display: flex; align-items: center; justify-content: center; height: 80vh;"">
  <div>
          <img src=""images/inst_demo_finish.png"" style=""width: 80vw; height:auto;"">
          <br><br>
      </div>
      <br><br>
  </div>",0,,,,J8wfYS52IZOQXuy13hENthGXNqy2,,,,,,,,,,,,,,,,,,,,,,,65c8ae4d5f25e8b4062a4c93,10:07:05,27/02/2024
html-keyboard-response,34,63719,0.0-15.0,3810.0999999940395,"
  <div style=""display: flex; align-items: center; justify-content: center; height: 80vh;"">
  <div>
          <img src=""images/inst_6.png"" style=""width: 80vw; height:auto;"">
          <br><br>
      </div>
      <br><br>
  </div>",f,,,,J8wfYS52IZOQXuy13hENthGXNqy2,,,,,,,,,,,,,,,,,,,,,,,65c8ae4d5f25e8b4062a4c93,10:07:05,27/02/2024
html-keyboard-response,35,66722,0.0-16.0,,"<div style=""font-size:100px;"">+</div>",,delaylearn,learning,pre_fixation,J8wfYS52IZOQXuy13hENthGXNqy2,,,,,,,,,,,,,,,,,,,,,,,65c8ae4d5f25e8b4062a4c93,10:07:05,27/02/2024
html-keyboard-response,36,68947,0.0-17.0,,"<div style=""font-size:100px;"">+</div>",,delaylearn,learning,ITI,J8wfYS52IZOQXuy13hENthGXNqy2,J8wfYS52IZOQXuy13hENthGXNqy2,,,,,,,,,,,,,,,,,,,2221.0,,,65c8ae4d5f25e8b4062a4c93,10:07:05,27/02/2024
html-keyboard-response,37,70151,0.0-18.0-0.0,1201.5999999940395,"<div style=""display: flex; flex-direction: column; align-items: center; margin-top: -40px;""><img src=""images/pattern_3.png"" style=""width: 234px; height: 230px; margin-top: -50px;""><div style=""display: flex; justify-content: space-between; margin-top: 33px;""><img src=""images/choice_trial_12.png"" style=""width: 408px; height: 417px; margin-right: 200px;""><img src=""images/choice_trial_14.png"" style=""width: 408px; height: 417px;""></div></div>",j,delaylearn,learning,trial,J8wfYS52IZOQXuy13hENthGXNqy2,J8wfYS52IZOQXuy13hENthGXNqy2,2.0,images/choice_trial_12.png,images/choice_trial_14.png,images/pattern_3.png,f,f,7000.0,12.0,14.0,2.0,0.0,7.0,0.0,0.0,14.0,30.0,,,,,,65c8ae4d5f25e8b4062a4c93,10:07:05,27/02/2024
html-keyboard-response,38,71155,0.0-18.0-1.0,,"<div style=""display: flex; flex-direction: column; align-items: center; margin-top: -40px;""><img src=""images/pattern_3.png"" style=""width: 234px; height: 230px; margin-top: -50px;""><div style=""display: flex; justify-content: space-between; margin-top: 33px;""><img src=""images/choice_trial_14.png"" style=""width: 408px; height: 417px; margin-left:608px;""></div></div>",,delaylearn,learning,display_response,J8wfYS52IZOQXuy13hENthGXNqy2,J8wfYS52IZOQXuy13hENthGXNqy2,,,,,,,,,,,,,,,,,chosen stimuli: images/choice_trial_14.png,,,,,65c8ae4d5f25e8b4062a4c93,10:07:05,27/02/2024
html-keyboard-response,39,78158,0.0-18.0-2.0,,,,delaylearn,learning,feedback_duration_window,J8wfYS52IZOQXuy13hENthGXNqy2,J8wfYS52IZOQXuy13hENthGXNqy2,,,,,,,,,,,,,,,,,,7000.0,,,,65c8ae4d5f25e8b4062a4c93,10:07:05,27/02/2024
html-keyboard-response,40,79661,0.0-18.0-3.0,,<div style='margin:auto;width: auto; font-size: 150%'><span style='font-weight: bold; font-size: 100px; color: red;'>0 points!</span><br><br></div>,,delaylearn,learning,feedback_image_window,J8wfYS52IZOQXuy13hENthGXNqy2,J8wfYS52IZOQXuy13hENthGXNqy2,,,,,,,,,,,,,,,,,,,,,,65c8ae4d5f25e8b4062a4c93,10:07:05,27/02/2024
html-keyboard-response,41,81627,0.0-19.0,,"<div style=""font-size:100px;"">+</div>",,delaylearn,learning,ITI,J8wfYS52IZOQXuy13hENthGXNqy2,J8wfYS52IZOQXuy13hENthGXNqy2,,,,,,,,,,,,,,,,,,,1963.0,,,65c8ae4d5f25e8b4062a4c93,10:07:05,27/02/2024
html-keyboard-response,42,82624,0.0-20.0-0.0,994.0999999940395,"<div style=""display: flex; flex-direction: column; align-items: center; margin-top: -40px;""><img src=""images/pattern_7.png"" style=""width: 234px; height: 230px; margin-top: -50px;""><div style=""display: flex; justify-content: space-between; margin-top: 33px;""><img src=""images/choice_trial_15.png"" style=""width: 408px; height: 417px; margin-right: 200px;""><img src=""images/choice_trial_8.png"" style=""width: 408px; height: 417px;""></div></div>",f,delaylearn,learning,trial,J8wfYS52IZOQXuy13hENthGXNqy2,J8wfYS52IZOQXuy13hENthGXNqy2,2.0,images/choice_trial_15.png,images/choice_trial_8.png,images/pattern_7.png,j,j,750.0,15.0,8.0,6.0,1.0,8.0,0.0,0.0,15.0,30.0,,,,,,65c8ae4d5f25e8b4062a4c93,10:07:05,27/02/2024
html-keyboard-response,43,83628,0.0-20.0-1.0,,"<div style=""display: flex; flex-direction: column; align-items: center; margin-top: -40px;""><img src=""images/pattern_7.png"" style=""width: 234px; height: 230px; margin-top: -50px;""><div style=""display: flex; justify-content: space-between; margin-top: 33px;""><img src=""images/choice_trial_15.png"" style=""width: 408px; height: 417px; margin-right: 608px;""></div></div>",,delaylearn,learning,display_response,J8wfYS52IZOQXuy13hENthGXNqy2,J8wfYS52IZOQXuy13hENthGXNqy2,,,,,,,,,,,,,,,,,chosen stimuli: images/choice_trial_15.png,,,,,65c8ae4d5f25e8b4062a4c93,10:07:05,27/02/2024
html-keyboard-response,44,84381,0.0-20.0-2.0,,,,delaylearn,learning,feedback_duration_window,J8wfYS52IZOQXuy13hENthGXNqy2,J8wfYS52IZOQXuy13hENthGXNqy2,,,,,,,,,,,,,,,,,,750.0,,,,65c8ae4d5f25e8b4062a4c93,10:07:05,27/02/2024
html-keyboard-response,45,85885,0.0-20.0-3.0,,<div style='margin:auto;width: auto; font-size: 150%'><span style='font-weight: bold; font-size: 100px; color: red;'>0 points!</span><br><br></div>,,delaylearn,learning,feedback_image_window,J8wfYS52IZOQXuy13hENthGXNqy2,J8wfYS52IZOQXuy13hENthGXNqy2,,,,,,,,,,,,,,,,,,,,,,65c8ae4d5f25e8b4062a4c93,10:07:05,27/02/2024
html-keyboard-response,46,88038,0.0-21.0,,"<div style=""font-size:100px;"">+</div>",,delaylearn,learning,ITI,J8wfYS52IZOQXuy13hENthGXNqy2,J8wfYS52IZOQXuy13hENthGXNqy2,,,,,,,,,,,,,,,,,,,2151.0,,,65c8ae4d5f25e8b4062a4c93,10:07:05,27/02/2024
html-keyboard-response,47,89375,0.0-22.0-0.0,1334.1000000089407,"<div style=""display: flex; flex-direction: column; align-items: center; margin-top: -40px;""><img src=""images/pattern_4.png"" style=""width: 234px; height: 230px; margin-top: -50px;""><div style=""display: flex; justify-content: space-between; margin-top: 33px;""><img src=""images/choice_trial_4.png"" style=""width: 408px; height: 417px; margin-right: 200px;""><img src=""images/choice_trial_16.png"" style=""width: 408px; height: 417px;""></div></div>",f,delaylearn,learning,trial,J8wfYS52IZOQXuy13hENthGXNqy2,J8wfYS52IZOQXuy13hENthGXNqy2,2.0,images/choice_trial_4.png,images/choice_trial_16.png,images/pattern_4.png,f,f,7000.0,4.0,16.0,3.0,0.0,9.0,1.0,1.0,4.0,40.0,,,,,,65c8ae4d5f25e8b4062a4c93,10:07:05,27/02/2024
html-keyboard-response,48,90379,0.0-22.0-1.0,,"<div style=""display: flex; flex-direction: column; align-items: center; margin-top: -40px;""><img src=""images/pattern_4.png"" style=""width: 234px; height: 230px; margin-top: -50px;""><div style=""display: flex; justify-content: space-between; margin-top: 33px;""><img src=""images/choice_trial_4.png"" style=""width: 408px; height: 417px; margin-right: 608px;""></div></div>",,delaylearn,learning,display_response,J8wfYS52IZOQXuy13hENthGXNqy2,J8wfYS52IZOQXuy13hENthGXNqy2,,,,,,,,,,,,,,,,,chosen stimuli: images/choice_trial_4.png,,,,,65c8ae4d5f25e8b4062a4c93,10:07:05,27/02/2024
html-keyboard-response,49,97382,0.0-22.0-2.0,,,,delaylearn,learning,feedback_duration_window,J8wfYS52IZOQXuy13hENthGXNqy2,J8wfYS52IZOQXuy13hENthGXNqy2,,,,,,,,,,,,,,,,,,7000.0,,,,65c8ae4d5f25e8b4062a4c93,10:07:05,27/02/2024
html-keyboard-response,50,98886,0.0-22.0-3.0,,<div style='margin:auto;width: auto; font-size: 150%'><span style='font-weight: bold; font-size: 100px; color: green;'>+10 points!</span><br><br></div>,,delaylearn,learning,feedback_image_window,J8wfYS52IZOQXuy13hENthGXNqy2,J8wfYS52IZOQXuy13hENthGXNqy2,,,,,,,,,,,,,,,,,,,,,,65c8ae4d5f25e8b4062a4c93,10:07:05,27/02/2024
html-keyboard-response,51,100475,0.0-23.0,,"<div style=""font-size:100px;"">+</div>",,delaylearn,learning,ITI,J8wfYS52IZOQXuy13hENthGXNqy2,J8wfYS52IZOQXuy13hENthGXNqy2,,,,,,,,,,,,,,,,,,,1586.0,,,65c8ae4d5f25e8b4062a4c93,10:07:05,27/02/2024
html-keyboard-response,52,101763,0.0-24.0-0.0,1285.4000000059605,"<div style=""display: flex; flex-direction: column; align-items: center; margin-top: -40px;""><img src=""images/pattern_5.png"" style=""width: 234px; height: 230px; margin-top: -50px;""><div style=""display: flex; justify-content: space-between; margin-top: 33px;""><img src=""images/choice_trial_9.png"" style=""width: 408px; height: 417px; margin-right: 200px;""><img src=""images/choice_trial_2.png"" style=""width: 408px; height: 417px;""></div></div>",f,delaylearn,learning,trial,J8wfYS52IZOQXuy13hENthGXNqy2,J8wfYS52IZOQXuy13hENthGXNqy2,2.0,images/choice_trial_9.png,images/choice_trial_2.png,images/pattern_5.png,j,j,750.0,9.0,2.0,4.0,1.0,10.0,0.0,0.0,9.0,40.0,,,,,,65c8ae4d5f25e8b4062a4c93,10:07:05,27/02/2024
html-keyboard-response,53,102767,0.0-24.0-1.0,,"<div style=""display: flex; flex-direction: column; align-items: center; margin-top: -40px;""><img src=""images/pattern_5.png"" style=""width: 234px; height: 230px; margin-top: -50px;""><div style=""display: flex; justify-content: space-between; margin-top: 33px;""><img src=""images/choice_trial_9.png"" style=""width: 408px; height: 417px; margin-right: 608px;""></div></div>",,delaylearn,learning,display_response,J8wfYS52IZOQXuy13hENthGXNqy2,J8wfYS52IZOQXuy13hENthGXNqy2,,,,,,,,,,,,,,,,,chosen stimuli: images/choice_trial_9.png,,,,,65c8ae4d5f25e8b4062a4c93,10:07:05,27/02/2024
html-keyboard-response,54,103520,0.0-24.0-2.0,,,,delaylearn,learning,feedback_duration_window,J8wfYS52IZOQXuy13hENthGXNqy2,J8wfYS52IZOQXuy13hENthGXNqy2,,,,,,,,,,,,,,,,,,750.0,,,,65c8ae4d5f25e8b4062a4c93,10:07:05,27/02/2024
html-keyboard-response,55,105024,0.0-24.0-3.0,,<div style='margin:auto;width: auto; font-size: 150%'><span style='font-weight: bold; font-size: 100px; color: red;'>0 points!</span><br><br></div>,,delaylearn,learning,feedback_image_window,J8wfYS52IZOQXuy13hENthGXNqy2,J8wfYS52IZOQXuy13hENthGXNqy2,,,,,,,,,,,,,,,,,,,,,,65c8ae4d5f25e8b4062a4c93,10:07:05,27/02/2024
html-keyboard-response,56,106779,0.0-25.0,,"<div style=""font-size:100px;"">+</div>",,delaylearn,learning,ITI,J8wfYS52IZOQXuy13hENthGXNqy2,J8wfYS52IZOQXuy13hENthGXNqy2,,,,,,,,,,,,,,,,,,,1751.0,,,65c8ae4d5f25e8b4062a4c93,10:07:05,27/02/2024
html-keyboard-response,57,107957,0.0-26.0-0.0,1174.6000000089407,"<div style=""display: flex; flex-direction: column; align-items: center; margin-top: -40px;""><img src=""images/pattern_6.png"" style=""width: 234px; height: 230px; margin-top: -50px;""><div style=""display: flex; justify-content: space-between; margin-top: 33px;""><img src=""images/choice_trial_11.png"" style=""width: 408px; height: 417px; margin-right: 200px;""><img src=""images/choice_trial_5.png"" style=""width: 408px; height: 417px;""></div></div>",j,delaylearn,learning,trial,J8wfYS52IZOQXuy13hENthGXNqy2,J8wfYS52IZOQXuy13hENthGXNqy2,2.0,images/choice_trial_11.png,images/choice_trial_5.png,images/pattern_6.png,j,f,750.0,11.0,5.0,5.0,0.0,11.0,0.0,1.0,5.0,50.0,,,,,,65c8ae4d5f25e8b4062a4c93,10:07:05,27/02/2024
html-keyboard-response,58,108960,0.0-26.0-1.0,,"<div style=""display: flex; flex-direction: column; align-items: center; margin-top: -40px;""><img src=""images/pattern_6.png"" style=""width: 234px; height: 230px; margin-top: -50px;""><div style=""display: flex; justify-content: space-between; margin-top: 33px;""><img src=""images/choice_trial_5.png"" style=""width: 408px; height: 417px; margin-left:608px;""></div></div>",,delaylearn,learning,display_response,J8wfYS52IZOQXuy13hENthGXNqy2,J8wfYS52IZOQXuy13hENthGXNqy2,,,,,,,,,,,,,,,,,chosen stimuli: images/choice_trial_5.png,,,,,65c8ae4d5f25e8b4062a4c93,10:07:05,27/02/2024
html-keyboard-response,59,109713,0.0-26.0-2.0,,,,delaylearn,learning,feedback_duration_window,J8wfYS52IZOQXuy13hENthGXNqy2,J8wfYS52IZOQXuy13hENthGXNqy2,,,,,,,,,,,,,,,,,,750.0,,,,65c8ae4d5f25e8b4062a4c93,10:07:05,27/02/2024
html-keyboard-response,60,111216,0.0-26.0-3.0,,<div style='margin:auto;width: auto; font-size: 150%'><span style='font-weight: bold; font-size: 100px; color: green;'>+10 points!</span><br><br></div>,,delaylearn,learning,feedback_image_window,J8wfYS52IZOQXuy13hENthGXNqy2,J8wfYS52IZOQXuy13hENthGXNqy2,,,,,,,,,,,,,,,,,,,,,,65c8ae4d5f25e8b4062a4c93,10:07:05,27/02/2024
html-keyboard-response,61,111719,0.0-27.0-0.0,,,,,,mood_trial_fixation,J8wfYS52IZOQXuy13hENthGXNqy2,,,,,,,,,,,,,,,,,,,,,,,65c8ae4d5f25e8b4062a4c93,10:07:05,27/02/2024
lmdlab-html-vas-response,62,116109,0.0-27.0-1.0,3383.0,How happy are you right now?,0.6055555555555555,delaylearn,learning,mood_trial,J8wfYS52IZOQXuy13hENthGXNqy2,J8wfYS52IZOQXuy13hENthGXNqy2,,,,,,,,,,,,,,,,,,,,"['Very unhappy', 'Very happy']",,65c8ae4d5f25e8b4062a4c93,10:07:05,27/02/2024
html-keyboard-response,63,118062,0.0-28.0,,"<div style=""font-size:100px;"">+</div>",,delaylearn,learning,ITI,J8wfYS52IZOQXuy13hENthGXNqy2,J8wfYS52IZOQXuy13hENthGXNqy2,,,,,,,,,,,,,,,,,,,1950.0,,,65c8ae4d5f25e8b4062a4c93,10:07:05,27/02/2024
html-keyboard-response,64,119324,0.0-29.0-0.0,1258.2999999970198,"<div style=""display: flex; flex-direction: column; align-items: center; margin-top: -40px;""><img src=""images/pattern_1.png"" style=""width: 234px; height: 230px; margin-top: -50px;""><div style=""display: flex; justify-content: space-between; margin-top: 33px;""><img src=""images/choice_trial_10.png"" style=""width: 408px; height: 417px; margin-right: 200px;""><img src=""images/choice_trial_3.png"" style=""width: 408px; height: 417px;""></div></div>",f,delaylearn,learning,trial,J8wfYS52IZOQXuy13hENthGXNqy2,J8wfYS52IZOQXuy13hENthGXNqy2,2.0,images/choice_trial_10.png,images/choice_trial_3.png,images/pattern_1.png,j,j,7000.0,10.0,3.0,1.0,1.0,12.0,0.0,0.0,10.0,50.0,,,,,,65c8ae4d5f25e8b4062a4c93,10:07:05,27/02/2024
html-keyboard-response,65,120328,0.0-29.0-1.0,,"<div style=""display: flex; flex-direction: column; align-items: center; margin-top: -40px;""><img src=""images/pattern_1.png"" style=""width: 234px; height: 230px; margin-top: -50px;""><div style=""display: flex; justify-content: space-between; margin-top: 33px;""><img src=""images/choice_trial_10.png"" style=""width: 408px; height: 417px; margin-right: 608px;""></div></div>",,delaylearn,learning,display_response,J8wfYS52IZOQXuy13hENthGXNqy2,J8wfYS52IZOQXuy13hENthGXNqy2,,,,,,,,,,,,,,,,,chosen stimuli: images/choice_trial_10.png,,,,,65c8ae4d5f25e8b4062a4c93,10:07:05,27/02/2024
html-keyboard-response,66,127331,0.0-29.0-2.0,,,,delaylearn,learning,feedback_duration_window,J8wfYS52IZOQXuy13hENthGXNqy2,J8wfYS52IZOQXuy13hENthGXNqy2,,,,,,,,,,,,,,,,,,7000.0,,,,65c8ae4d5f25e8b4062a4c93,10:07:05,27/02/2024
html-keyboard-response,67,128835,0.0-29.0-3.0,,<div style='margin:auto;width: auto; font-size: 150%'><span style='font-weight: bold; font-size: 100px; color: red;'>0 points!</span><br><br></div>,,delaylearn,learning,feedback_image_window,J8wfYS52IZOQXuy13hENthGXNqy2,J8wfYS52IZOQXuy13hENthGXNqy2,,,,,,,,,,,,,,,,,,,,,,65c8ae4d5f25e8b4062a4c93,10:07:05,27/02/2024
html-keyboard-response,68,131112,0.0-30.0,,"<div style=""font-size:100px;"">+</div>",,delaylearn,learning,ITI,J8wfYS52IZOQXuy13hENthGXNqy2,J8wfYS52IZOQXuy13hENthGXNqy2,,,,,,,,,,,,,,,,,,,2274.0,,,65c8ae4d5f25e8b4062a4c93,10:07:05,27/02/2024
html-keyboard-response,69,131874,0.0-31.0-0.0,759.1000000089407,"<div style=""display: flex; flex-direction: column; align-items: center; margin-top: -40px;""><img src=""images/pattern_3.png"" style=""width: 234px; height: 230px; margin-top: -50px;""><div style=""display: flex; justify-content: space-between; margin-top: 33px;""><img src=""images/choice_trial_14.png"" style=""width: 408px; height: 417px; margin-right: 200px;""><img src=""images/choice_trial_12.png"" style=""width: 408px; height: 417px;""></div></div>",j,delaylearn,learning,trial,J8wfYS52IZOQXuy13hENthGXNqy2,J8wfYS52IZOQXuy13hENthGXNqy2,2.0,images/choice_trial_14.png,images/choice_trial_12.png,images/pattern_3.png,f,j,7000.0,14.0,12.0,2.0,1.0,13.0,1.0,0.0,12.0,50.0,,,,,,65c8ae4d5f25e8b4062a4c93,10:07:05,27/02/2024
html-keyboard-response,70,132878,0.0-31.0-1.0,,"<div style=""display: flex; flex-direction: column; align-items: center; margin-top: -40px;""><img src=""images/pattern_3.png"" style=""width: 234px; height: 230px; margin-top: -50px;""><div style=""display: flex; justify-content: space-between; margin-top: 33px;""><img src=""images/choice_trial_12.png"" style=""width: 408px; height: 417px; margin-left:608px;""></div></div>",,delaylearn,learning,display_response,J8wfYS52IZOQXuy13hENthGXNqy2,J8wfYS52IZOQXuy13hENthGXNqy2,,,,,,,,,,,,,,,,,chosen stimuli: images/choice_trial_12.png,,,,,65c8ae4d5f25e8b4062a4c93,10:07:05,27/02/2024
html-keyboard-response,71,139881,0.0-31.0-2.0,,,,delaylearn,learning,feedback_duration_window,J8wfYS52IZOQXuy13hENthGXNqy2,J8wfYS52IZOQXuy13hENthGXNqy2,,,,,,,,,,,,,,,,,,7000.0,,,,65c8ae4d5f25e8b4062a4c93,10:07:05,27/02/2024
html-keyboard-response,72,141386,0.0-31.0-3.0,,<div style='margin:auto;width: auto; font-size: 150%'><span style='font-weight: bold; font-size: 100px; color: red;'>0 points!</span><br><br></div>,,delaylearn,learning,feedback_image_window,J8wfYS52IZOQXuy13hENthGXNqy2,J8wfYS52IZOQXuy13hENthGXNqy2,,,,,,,,,,,,,,,,,,,,,,65c8ae4d5f25e8b4062a4c93,10:07:05,27/02/2024
html-keyboard-response,73,143241,0.0-32.0,,"<div style=""font-size:100px;"">+</div>",,delaylearn,learning,ITI,J8wfYS52IZOQXuy13hENthGXNqy2,J8wfYS52IZOQXuy13hENthGXNqy2,,,,,,,,,,,,,,,,,,,1852.0,,,65c8ae4d5f25e8b4062a4c93,10:07:05,27/02/2024
html-keyboard-response,74,145017,0.0-33.0-0.0,1773.2000000029802,"<div style=""display: flex; flex-direction: column; align-items: center; margin-top: -40px;""><img src=""images/pattern_5.png"" style=""width: 234px; height: 230px; margin-top: -50px;""><div style=""display: flex; justify-content: space-between; margin-top: 33px;""><img src=""images/choice_trial_2.png"" style=""width: 408px; height: 417px; margin-right: 200px;""><img src=""images/choice_trial_9.png"" style=""width: 408px; height: 417px;""></div></div>",f,delaylearn,learning,trial,J8wfYS52IZOQXuy13hENthGXNqy2,J8wfYS52IZOQXuy13hENthGXNqy2,2.0,images/choice_trial_2.png,images/choice_trial_9.png,images/pattern_5.png,f,f,750.0,2.0,9.0,4.0,0.0,14.0,1.0,1.0,2.0,60.0,,,,,,65c8ae4d5f25e8b4062a4c93,10:07:05,27/02/2024
html-keyboard-response,75,146021,0.0-33.0-1.0,,"<div style=""display: flex; flex-direction: column; align-items: center; margin-top: -40px;""><img src=""images/pattern_5.png"" style=""width: 234px; height: 230px; margin-top: -50px;""><div style=""display: flex; justify-content: space-between; margin-top: 33px;""><img src=""images/choice_trial_2.png"" style=""width: 408px; height: 417px; margin-right: 608px;""></div></div>",,delaylearn,learning,display_response,J8wfYS52IZOQXuy13hENthGXNqy2,J8wfYS52IZOQXuy13hENthGXNqy2,,,,,,,,,,,,,,,,,chosen stimuli: images/choice_trial_2.png,,,,,65c8ae4d5f25e8b4062a4c93,10:07:05,27/02/2024
html-keyboard-response,76,146774,0.0-33.0-2.0,,,,delaylearn,learning,feedback_duration_window,J8wfYS52IZOQXuy13hENthGXNqy2,J8wfYS52IZOQXuy13hENthGXNqy2,,,,,,,,,,,,,,,,,,750.0,,,,65c8ae4d5f25e8b4062a4c93,10:07:05,27/02/2024
html-keyboard-response,77,148277,0.0-33.0-3.0,,<div style='margin:auto;width: auto; font-size: 150%'><span style='font-weight: bold; font-size: 100px; color: green;'>+10 points!</span><br><br></div>,,delaylearn,learning,feedback_image_window,J8wfYS52IZOQXuy13hENthGXNqy2,J8wfYS52IZOQXuy13hENthGXNqy2,,,,,,,,,,,,,,,,,,,,,,65c8ae4d5f25e8b4062a4c93,10:07:05,27/02/2024
html-keyboard-response,78,148780,0.0-34.0-0.0,,,,,,mood_trial_fixation,J8wfYS52IZOQXuy13hENthGXNqy2,,,,,,,,,,,,,,,,,,,,,,,65c8ae4d5f25e8b4062a4c93,10:07:05,27/02/2024
lmdlab-html-vas-response,79,152561,0.0-34.0-1.0,2773.0,How happy are you right now?,0.5481481481481482,delaylearn,learning,mood_trial,J8wfYS52IZOQXuy13hENthGXNqy2,J8wfYS52IZOQXuy13hENthGXNqy2,,,,,,,,,,,,,,,,,,,,"['Very unhappy', 'Very happy']",,65c8ae4d5f25e8b4062a4c93,10:07:05,27/02/2024
html-keyboard-response,80,154603,0.0-35.0,,"<div style=""font-size:100px;"">+</div>",,delaylearn,learning,ITI,J8wfYS52IZOQXuy13hENthGXNqy2,J8wfYS52IZOQXuy13hENthGXNqy2,,,,,,,,,,,,,,,,,,,2039.0,,,65c8ae4d5f25e8b4062a4c93,10:07:05,27/02/2024
html-keyboard-response,81,156350,0.0-36.0-0.0,1743.5,"<div style=""display: flex; flex-direction: column; align-items: center; margin-top: -40px;""><img src=""images/pattern_6.png"" style=""width: 234px; height: 230px; margin-top: -50px;""><div style=""display: flex; justify-content: space-between; margin-top: 33px;""><img src=""images/choice_trial_11.png"" style=""width: 408px; height: 417px; margin-right: 200px;""><img src=""images/choice_trial_5.png"" style=""width: 408px; height: 417px;""></div></div>",j,delaylearn,learning,trial,J8wfYS52IZOQXuy13hENthGXNqy2,J8wfYS52IZOQXuy13hENthGXNqy2,2.0,images/choice_trial_11.png,images/choice_trial_5.png,images/pattern_6.png,f,f,750.0,11.0,5.0,5.0,0.0,15.0,0.0,0.0,5.0,60.0,,,,,,65c8ae4d5f25e8b4062a4c93,10:07:05,27/02/2024
html-keyboard-response,82,157354,0.0-36.0-1.0,,"<div style=""display: flex; flex-direction: column; align-items: center; margin-top: -40px;""><img src=""images/pattern_6.png"" style=""width: 234px; height: 230px; margin-top: -50px;""><div style=""display: flex; justify-content: space-between; margin-top: 33px;""><img src=""images/choice_trial_5.png"" style=""width: 408px; height: 417px; margin-left:608px;""></div></div>",,delaylearn,learning,display_response,J8wfYS52IZOQXuy13hENthGXNqy2,J8wfYS52IZOQXuy13hENthGXNqy2,,,,,,,,,,,,,,,,,chosen stimuli: images/choice_trial_5.png,,,,,65c8ae4d5f25e8b4062a4c93,10:07:05,27/02/2024
html-keyboard-response,83,158107,0.0-36.0-2.0,,,,delaylearn,learning,feedback_duration_window,J8wfYS52IZOQXuy13hENthGXNqy2,J8wfYS52IZOQXuy13hENthGXNqy2,,,,,,,,,,,,,,,,,,750.0,,,,65c8ae4d5f25e8b4062a4c93,10:07:05,27/02/2024
html-keyboard-response,84,159611,0.0-36.0-3.0,,<div style='margin:auto;width: auto; font-size: 150%'><span style='font-weight: bold; font-size: 100px; color: red;'>0 points!</span><br><br></div>,,delaylearn,learning,feedback_image_window,J8wfYS52IZOQXuy13hENthGXNqy2,J8wfYS52IZOQXuy13hENthGXNqy2,,,,,,,,,,,,,,,,,,,,,,65c8ae4d5f25e8b4062a4c93,10:07:05,27/02/2024
html-keyboard-response,85,161987,0.0-37.0,,"<div style=""font-size:100px;"">+</div>",,delaylearn,learning,ITI,J8wfYS52IZOQXuy13hENthGXNqy2,J8wfYS52IZOQXuy13hENthGXNqy2,,,,,,,,,,,,,,,,,,,2374.0,,,65c8ae4d5f25e8b4062a4c93,10:07:05,27/02/2024
html-keyboard-response,86,164022,0.0-38.0-0.0,2031.2000000029802,"<div style=""display: flex; flex-direction: column; align-items: center; margin-top: -40px;""><img src=""images/pattern_4.png"" style=""width: 234px; height: 230px; margin-top: -50px;""><div style=""display: flex; justify-content: space-between; margin-top: 33px;""><img src=""images/choice_trial_16.png"" style=""width: 408px; height: 417px; margin-right: 200px;""><img src=""images/choice_trial_4.png"" style=""width: 408px; height: 417px;""></div></div>",j,delaylearn,learning,trial,J8wfYS52IZOQXuy13hENthGXNqy2,J8wfYS52IZOQXuy13hENthGXNqy2,2.0,images/choice_trial_16.png,images/choice_trial_4.png,images/pattern_4.png,j,j,7000.0,16.0,4.0,3.0,1.0,16.0,1.0,1.0,4.0,70.0,,,,,,65c8ae4d5f25e8b4062a4c93,10:07:05,27/02/2024
html-keyboard-response,87,165025,0.0-38.0-1.0,,"<div style=""display: flex; flex-direction: column; align-items: center; margin-top: -40px;""><img src=""images/pattern_4.png"" style=""width: 234px; height: 230px; margin-top: -50px;""><div style=""display: flex; justify-content: space-between; margin-top: 33px;""><img src=""images/choice_trial_4.png"" style=""width: 408px; height: 417px; margin-left:608px;""></div></div>",,delaylearn,learning,display_response,J8wfYS52IZOQXuy13hENthGXNqy2,J8wfYS52IZOQXuy13hENthGXNqy2,,,,,,,,,,,,,,,,,chosen stimuli: images/choice_trial_4.png,,,,,65c8ae4d5f25e8b4062a4c93,10:07:05,27/02/2024
html-keyboard-response,88,171963,0.0-38.0-2.0,,,,delaylearn,learning,feedback_duration_window,J8wfYS52IZOQXuy13hENthGXNqy2,J8wfYS52IZOQXuy13hENthGXNqy2,,,,,,,,,,,,,,,,,,7000.0,,,,65c8ae4d5f25e8b4062a4c93,10:07:05,27/02/2024
html-keyboard-response,89,173467,0.0-38.0-3.0,,<div style='margin:auto;width: auto; font-size: 150%'><span style='font-weight: bold; font-size: 100px; color: green;'>+10 points!</span><br><br></div>,,delaylearn,learning,feedback_image_window,J8wfYS52IZOQXuy13hENthGXNqy2,J8wfYS52IZOQXuy13hENthGXNqy2,,,,,,,,,,,,,,,,,,,,,,65c8ae4d5f25e8b4062a4c93,10:07:05,27/02/2024
html-keyboard-response,90,175706,0.0-39.0,,"<div style=""font-size:100px;"">+</div>",,delaylearn,learning,ITI,J8wfYS52IZOQXuy13hENthGXNqy2,J8wfYS52IZOQXuy13hENthGXNqy2,,,,,,,,,,,,,,,,,,,2236.0,,,65c8ae4d5f25e8b4062a4c93,10:07:05,27/02/2024
html-keyboard-response,91,177092,0.0-40.0-0.0,1382.5,"<div style=""display: flex; flex-direction: column; align-items: center; margin-top: -40px;""><img src=""images/pattern_7.png"" style=""width: 234px; height: 230px; margin-top: -50px;""><div style=""display: flex; justify-content: space-between; margin-top: 33px;""><img src=""images/choice_trial_8.png"" style=""width: 408px; height: 417px; margin-right: 200px;""><img src=""images/choice_trial_15.png"" style=""width: 408px; height: 417px;""></div></div>",f,delaylearn,learning,trial,J8wfYS52IZOQXuy13hENthGXNqy2,J8wfYS52IZOQXuy13hENthGXNqy2,2.0,images/choice_trial_8.png,images/choice_trial_15.png,images/pattern_7.png,j,f,750.0,8.0,15.0,6.0,0.0,17.0,1.0,0.0,8.0,70.0,,,,,,65c8ae4d5f25e8b4062a4c93,10:07:05,27/02/2024
html-keyboard-response,92,178096,0.0-40.0-1.0,,"<div style=""display: flex; flex-direction: column; align-items: center; margin-top: -40px;""><img src=""images/pattern_7.png"" style=""width: 234px; height: 230px; margin-top: -50px;""><div style=""display: flex; justify-content: space-between; margin-top: 33px;""><img src=""images/choice_trial_8.png"" style=""width: 408px; height: 417px; margin-right: 608px;""></div></div>",,delaylearn,learning,display_response,J8wfYS52IZOQXuy13hENthGXNqy2,J8wfYS52IZOQXuy13hENthGXNqy2,,,,,,,,,,,,,,,,,chosen stimuli: images/choice_trial_8.png,,,,,65c8ae4d5f25e8b4062a4c93,10:07:05,27/02/2024
html-keyboard-response,93,178848,0.0-40.0-2.0,,,,delaylearn,learning,feedback_duration_window,J8wfYS52IZOQXuy13hENthGXNqy2,J8wfYS52IZOQXuy13hENthGXNqy2,,,,,,,,,,,,,,,,,,750.0,,,,65c8ae4d5f25e8b4062a4c93,10:07:05,27/02/2024
html-keyboard-response,94,180351,0.0-40.0-3.0,,<div style='margin:auto;width: auto; font-size: 150%'><span style='font-weight: bold; font-size: 100px; color: red;'>0 points!</span><br><br></div>,,delaylearn,learning,feedback_image_window,J8wfYS52IZOQXuy13hENthGXNqy2,J8wfYS52IZOQXuy13hENthGXNqy2,,,,,,,,,,,,,,,,,,,,,,65c8ae4d5f25e8b4062a4c93,10:07:05,27/02/2024
html-keyboard-response,95,182413,0.0-41.0,,"<div style=""font-size:100px;"">+</div>",,delaylearn,learning,ITI,J8wfYS52IZOQXuy13hENthGXNqy2,J8wfYS52IZOQXuy13hENthGXNqy2,,,,,,,,,,,,,,,,,,,2059.0,,,65c8ae4d5f25e8b4062a4c93,10:07:05,27/02/2024
html-keyboard-response,96,184021,0.0-42.0-0.0,1605.1000000089407,"<div style=""display: flex; flex-direction: column; align-items: center; margin-top: -40px;""><img src=""images/pattern_1.png"" style=""width: 234px; height: 230px; margin-top: -50px;""><div style=""display: flex; justify-content: space-between; margin-top: 33px;""><img src=""images/choice_trial_3.png"" style=""width: 408px; height: 417px; margin-right: 200px;""><img src=""images/choice_trial_10.png"" style=""width: 408px; height: 417px;""></div></div>",f,delaylearn,learning,trial,J8wfYS52IZOQXuy13hENthGXNqy2,J8wfYS52IZOQXuy13hENthGXNqy2,2.0,images/choice_trial_3.png,images/choice_trial_10.png,images/pattern_1.png,f,f,7000.0,3.0,10.0,1.0,0.0,18.0,1.0,1.0,3.0,80.0,,,,,,65c8ae4d5f25e8b4062a4c93,10:07:05,27/02/2024
html-keyboard-response,97,185025,0.0-42.0-1.0,,"<div style=""display: flex; flex-direction: column; align-items: center; margin-top: -40px;""><img src=""images/pattern_1.png"" style=""width: 234px; height: 230px; margin-top: -50px;""><div style=""display: flex; justify-content: space-between; margin-top: 33px;""><img src=""images/choice_trial_3.png"" style=""width: 408px; height: 417px; margin-right: 608px;""></div></div>",,delaylearn,learning,display_response,J8wfYS52IZOQXuy13hENthGXNqy2,J8wfYS52IZOQXuy13hENthGXNqy2,,,,,,,,,,,,,,,,,chosen stimuli: images/choice_trial_3.png,,,,,65c8ae4d5f25e8b4062a4c93,10:07:05,27/02/2024
html-keyboard-response,98,192028,0.0-42.0-2.0,,,,delaylearn,learning,feedback_duration_window,J8wfYS52IZOQXuy13hENthGXNqy2,J8wfYS52IZOQXuy13hENthGXNqy2,,,,,,,,,,,,,,,,,,7000.0,,,,65c8ae4d5f25e8b4062a4c93,10:07:05,27/02/2024
html-keyboard-response,99,193532,0.0-42.0-3.0,,<div style='margin:auto;width: auto; font-size: 150%'><span style='font-weight: bold; font-size: 100px; color: green;'>+10 points!</span><br><br></div>,,delaylearn,learning,feedback_image_window,J8wfYS52IZOQXuy13hENthGXNqy2,J8wfYS52IZOQXuy13hENthGXNqy2,,,,,,,,,,,,,,,,,,,,,,65c8ae4d5f25e8b4062a4c93,10:07:05,27/02/2024
html-keyboard-response,100,195391,0.0-43.0,,"<div style=""font-size:100px;"">+</div>",,delaylearn,learning,ITI,J8wfYS52IZOQXuy13hENthGXNqy2,J8wfYS52IZOQXuy13hENthGXNqy2,,,,,,,,,,,,,,,,,,,1856.0,,,65c8ae4d5f25e8b4062a4c93,10:07:05,27/02/2024
html-keyboard-response,101,197270,0.0-44.0-0.0,1875.7000000029802,"<div style=""display: flex; flex-direction: column; align-items: center; margin-top: -40px;""><img src=""images/pattern_6.png"" style=""width: 234px; height: 230px; margin-top: -50px;""><div style=""display: flex; justify-content: space-between; margin-top: 33px;""><img src=""images/choice_trial_5.png"" style=""width: 408px; height: 417px; margin-right: 200px;""><img src=""images/choice_trial_11.png"" style=""width: 408px; height: 417px;""></div></div>",f,delaylearn,learning,trial,J8wfYS52IZOQXuy13hENthGXNqy2,J8wfYS52IZOQXuy13hENthGXNqy2,2.0,images/choice_trial_5.png,images/choice_trial_11.png,images/pattern_6.png,j,j,750.0,5.0,11.0,5.0,1.0,19.0,0.0,0.0,5.0,80.0,,,,,,65c8ae4d5f25e8b4062a4c93,10:07:05,27/02/2024
html-keyboard-response,102,198273,0.0-44.0-1.0,,"<div style=""display: flex; flex-direction: column; align-items: center; margin-top: -40px;""><img src=""images/pattern_6.png"" style=""width: 234px; height: 230px; margin-top: -50px;""><div style=""display: flex; justify-content: space-between; margin-top: 33px;""><img src=""images/choice_trial_5.png"" style=""width: 408px; height: 417px; margin-right: 608px;""></div></div>",,delaylearn,learning,display_response,J8wfYS52IZOQXuy13hENthGXNqy2,J8wfYS52IZOQXuy13hENthGXNqy2,,,,,,,,,,,,,,,,,chosen stimuli: images/choice_trial_5.png,,,,,65c8ae4d5f25e8b4062a4c93,10:07:05,27/02/2024
html-keyboard-response,103,199026,0.0-44.0-2.0,,,,delaylearn,learning,feedback_duration_window,J8wfYS52IZOQXuy13hENthGXNqy2,J8wfYS52IZOQXuy13hENthGXNqy2,,,,,,,,,,,,,,,,,,750.0,,,,65c8ae4d5f25e8b4062a4c93,10:07:05,27/02/2024
html-keyboard-response,104,200530,0.0-44.0-3.0,,<div style='margin:auto;width: auto; font-size: 150%'><span style='font-weight: bold; font-size: 100px; color: red;'>0 points!</span><br><br></div>,,delaylearn,learning,feedback_image_window,J8wfYS52IZOQXuy13hENthGXNqy2,J8wfYS52IZOQXuy13hENthGXNqy2,,,,,,,,,,,,,,,,,,,,,,65c8ae4d5f25e8b4062a4c93,10:07:05,27/02/2024
html-keyboard-response,105,202859,0.0-45.0,,"<div style=""font-size:100px;"">+</div>",,delaylearn,learning,ITI,J8wfYS52IZOQXuy13hENthGXNqy2,J8wfYS52IZOQXuy13hENthGXNqy2,,,,,,,,,,,,,,,,,,,2327.0,,,65c8ae4d5f25e8b4062a4c93,10:07:05,27/02/2024
html-keyboard-response,106,204412,0.0-46.0-0.0,1550.5,"<div style=""display: flex; flex-direction: column; align-items: center; margin-top: -40px;""><img src=""images/pattern_4.png"" style=""width: 234px; height: 230px; margin-top: -50px;""><div style=""display: flex; justify-content: space-between; margin-top: 33px;""><img src=""images/choice_trial_4.png"" style=""width: 408px; height: 417px; margin-right: 200px;""><img src=""images/choice_trial_16.png"" style=""width: 408px; height: 417px;""></div></div>",f,delaylearn,learning,trial,J8wfYS52IZOQXuy13hENthGXNqy2,J8wfYS52IZOQXuy13hENthGXNqy2,2.0,images/choice_trial_4.png,images/choice_trial_16.png,images/pattern_4.png,f,f,7000.0,4.0,16.0,3.0,0.0,20.0,1.0,1.0,4.0,90.0,,,,,,65c8ae4d5f25e8b4062a4c93,10:07:05,27/02/2024
html-keyboard-response,107,205416,0.0-46.0-1.0,,"<div style=""display: flex; flex-direction: column; align-items: center; margin-top: -40px;""><img src=""images/pattern_4.png"" style=""width: 234px; height: 230px; margin-top: -50px;""><div style=""display: flex; justify-content: space-between; margin-top: 33px;""><img src=""images/choice_trial_4.png"" style=""width: 408px; height: 417px; margin-right: 608px;""></div></div>",,delaylearn,learning,display_response,J8wfYS52IZOQXuy13hENthGXNqy2,J8wfYS52IZOQXuy13hENthGXNqy2,,,,,,,,,,,,,,,,,chosen stimuli: images/choice_trial_4.png,,,,,65c8ae4d5f25e8b4062a4c93,10:07:05,27/02/2024
html-keyboard-response,108,212420,0.0-46.0-2.0,,,,delaylearn,learning,feedback_duration_window,J8wfYS52IZOQXuy13hENthGXNqy2,J8wfYS52IZOQXuy13hENthGXNqy2,,,,,,,,,,,,,,,,,,7000.0,,,,65c8ae4d5f25e8b4062a4c93,10:07:05,27/02/2024
html-keyboard-response,109,213924,0.0-46.0-3.0,,<div style='margin:auto;width: auto; font-size: 150%'><span style='font-weight: bold; font-size: 100px; color: green;'>+10 points!</span><br><br></div>,,delaylearn,learning,feedback_image_window,J8wfYS52IZOQXuy13hENthGXNqy2,J8wfYS52IZOQXuy13hENthGXNqy2,,,,,,,,,,,,,,,,,,,,,,65c8ae4d5f25e8b4062a4c93,10:07:05,27/02/2024
html-keyboard-response,110,214426,0.0-47.0-0.0,,,,,,mood_trial_fixation,J8wfYS52IZOQXuy13hENthGXNqy2,,,,,,,,,,,,,,,,,,,,,,,65c8ae4d5f25e8b4062a4c93,10:07:05,27/02/2024
lmdlab-html-vas-response,111,218929,0.0-47.0-1.0,3497.0,How happy are you right now?,0.6166666666666667,delaylearn,learning,mood_trial,J8wfYS52IZOQXuy13hENthGXNqy2,J8wfYS52IZOQXuy13hENthGXNqy2,,,,,,,,,,,,,,,,,,,,"['Very unhappy', 'Very happy']",,65c8ae4d5f25e8b4062a4c93,10:07:05,27/02/2024
html-keyboard-response,112,220615,0.0-48.0,,"<div style=""font-size:100px;"">+</div>",,delaylearn,learning,ITI,J8wfYS52IZOQXuy13hENthGXNqy2,J8wfYS52IZOQXuy13hENthGXNqy2,,,,,,,,,,,,,,,,,,,1683.0,,,65c8ae4d5f25e8b4062a4c93,10:07:05,27/02/2024
html-keyboard-response,113,221921,0.0-49.0-0.0,1302.7000000029802,"<div style=""display: flex; flex-direction: column; align-items: center; margin-top: -40px;""><img src=""images/pattern_7.png"" style=""width: 234px; height: 230px; margin-top: -50px;""><div style=""display: flex; justify-content: space-between; margin-top: 33px;""><img src=""images/choice_trial_15.png"" style=""width: 408px; height: 417px; margin-right: 200px;""><img src=""images/choice_trial_8.png"" style=""width: 408px; height: 417px;""></div></div>",j,delaylearn,learning,trial,J8wfYS52IZOQXuy13hENthGXNqy2,J8wfYS52IZOQXuy13hENthGXNqy2,2.0,images/choice_trial_15.png,images/choice_trial_8.png,images/pattern_7.png,j,j,750.0,15.0,8.0,6.0,1.0,21.0,1.0,1.0,8.0,100.0,,,,,,65c8ae4d5f25e8b4062a4c93,10:07:05,27/02/2024
html-keyboard-response,114,222925,0.0-49.0-1.0,,"<div style=""display: flex; flex-direction: column; align-items: center; margin-top: -40px;""><img src=""images/pattern_7.png"" style=""width: 234px; height: 230px; margin-top: -50px;""><div style=""display: flex; justify-content: space-between; margin-top: 33px;""><img src=""images/choice_trial_8.png"" style=""width: 408px; height: 417px; margin-left:608px;""></div></div>",,delaylearn,learning,display_response,J8wfYS52IZOQXuy13hENthGXNqy2,J8wfYS52IZOQXuy13hENthGXNqy2,,,,,,,,,,,,,,,,,chosen stimuli: images/choice_trial_8.png,,,,,65c8ae4d5f25e8b4062a4c93,10:07:05,27/02/2024
html-keyboard-response,115,223678,0.0-49.0-2.0,,,,delaylearn,learning,feedback_duration_window,J8wfYS52IZOQXuy13hENthGXNqy2,J8wfYS52IZOQXuy13hENthGXNqy2,,,,,,,,,,,,,,,,,,750.0,,,,65c8ae4d5f25e8b4062a4c93,10:07:05,27/02/2024
html-keyboard-response,116,225182,0.0-49.0-3.0,,<div style='margin:auto;width: auto; font-size: 150%'><span style='font-weight: bold; font-size: 100px; color: green;'>+10 points!</span><br><br></div>,,delaylearn,learning,feedback_image_window,J8wfYS52IZOQXuy13hENthGXNqy2,J8wfYS52IZOQXuy13hENthGXNqy2,,,,,,,,,,,,,,,,,,,,,,65c8ae4d5f25e8b4062a4c93,10:07:05,27/02/2024
html-keyboard-response,117,227677,0.0-50.0,,"<div style=""font-size:100px;"">+</div>",,delaylearn,learning,ITI,J8wfYS52IZOQXuy13hENthGXNqy2,J8wfYS52IZOQXuy13hENthGXNqy2,,,,,,,,,,,,,,,,,,,2493.0,,,65c8ae4d5f25e8b4062a4c93,10:07:05,27/02/2024
html-keyboard-response,118,228446,0.0-51.0-0.0,765.5,"<div style=""display: flex; flex-direction: column; align-items: center; margin-top: -40px;""><img src=""images/pattern_1.png"" style=""width: 234px; height: 230px; margin-top: -50px;""><div style=""display: flex; justify-content: space-between; margin-top: 33px;""><img src=""images/choice_trial_10.png"" style=""width: 408px; height: 417px; margin-right: 200px;""><img src=""images/choice_trial_3.png"" style=""width: 408px; height: 417px;""></div></div>",f,delaylearn,learning,trial,J8wfYS52IZOQXuy13hENthGXNqy2,J8wfYS52IZOQXuy13hENthGXNqy2,2.0,images/choice_trial_10.png,images/choice_trial_3.png,images/pattern_1.png,f,j,7000.0,10.0,3.0,1.0,1.0,22.0,0.0,1.0,10.0,110.0,,,,,,65c8ae4d5f25e8b4062a4c93,10:07:05,27/02/2024
html-keyboard-response,119,229449,0.0-51.0-1.0,,"<div style=""display: flex; flex-direction: column; align-items: center; margin-top: -40px;""><img src=""images/pattern_1.png"" style=""width: 234px; height: 230px; margin-top: -50px;""><div style=""display: flex; justify-content: space-between; margin-top: 33px;""><img src=""images/choice_trial_10.png"" style=""width: 408px; height: 417px; margin-right: 608px;""></div></div>",,delaylearn,learning,display_response,J8wfYS52IZOQXuy13hENthGXNqy2,J8wfYS52IZOQXuy13hENthGXNqy2,,,,,,,,,,,,,,,,,chosen stimuli: images/choice_trial_10.png,,,,,65c8ae4d5f25e8b4062a4c93,10:07:05,27/02/2024
html-keyboard-response,120,236452,0.0-51.0-2.0,,,,delaylearn,learning,feedback_duration_window,J8wfYS52IZOQXuy13hENthGXNqy2,J8wfYS52IZOQXuy13hENthGXNqy2,,,,,,,,,,,,,,,,,,7000.0,,,,65c8ae4d5f25e8b4062a4c93,10:07:05,27/02/2024
html-keyboard-response,121,237955,0.0-51.0-3.0,,<div style='margin:auto;width: auto; font-size: 150%'><span style='font-weight: bold; font-size: 100px; color: green;'>+10 points!</span><br><br></div>,,delaylearn,learning,feedback_image_window,J8wfYS52IZOQXuy13hENthGXNqy2,J8wfYS52IZOQXuy13hENthGXNqy2,,,,,,,,,,,,,,,,,,,,,,65c8ae4d5f25e8b4062a4c93,10:07:05,27/02/2024
html-keyboard-response,122,239966,0.0-52.0,,"<div style=""font-size:100px;"">+</div>",,delaylearn,learning,ITI,J8wfYS52IZOQXuy13hENthGXNqy2,J8wfYS52IZOQXuy13hENthGXNqy2,,,,,,,,,,,,,,,,,,,2007.0,,,65c8ae4d5f25e8b4062a4c93,10:07:05,27/02/2024
html-keyboard-response,123,241038,0.0-53.0-0.0,1069.2000000029802,"<div style=""display: flex; flex-direction: column; align-items: center; margin-top: -40px;""><img src=""images/pattern_5.png"" style=""width: 234px; height: 230px; margin-top: -50px;""><div style=""display: flex; justify-content: space-between; margin-top: 33px;""><img src=""images/choice_trial_9.png"" style=""width: 408px; height: 417px; margin-right: 200px;""><img src=""images/choice_trial_2.png"" style=""width: 408px; height: 417px;""></div></div>",j,delaylearn,learning,trial,J8wfYS52IZOQXuy13hENthGXNqy2,J8wfYS52IZOQXuy13hENthGXNqy2,2.0,images/choice_trial_9.png,images/choice_trial_2.png,images/pattern_5.png,j,j,750.0,9.0,2.0,4.0,1.0,23.0,1.0,1.0,2.0,120.0,,,,,,65c8ae4d5f25e8b4062a4c93,10:07:05,27/02/2024
html-keyboard-response,124,242042,0.0-53.0-1.0,,"<div style=""display: flex; flex-direction: column; align-items: center; margin-top: -40px;""><img src=""images/pattern_5.png"" style=""width: 234px; height: 230px; margin-top: -50px;""><div style=""display: flex; justify-content: space-between; margin-top: 33px;""><img src=""images/choice_trial_2.png"" style=""width: 408px; height: 417px; margin-left:608px;""></div></div>",,delaylearn,learning,display_response,J8wfYS52IZOQXuy13hENthGXNqy2,J8wfYS52IZOQXuy13hENthGXNqy2,,,,,,,,,,,,,,,,,chosen stimuli: images/choice_trial_2.png,,,,,65c8ae4d5f25e8b4062a4c93,10:07:05,27/02/2024
html-keyboard-response,125,242796,0.0-53.0-2.0,,,,delaylearn,learning,feedback_duration_window,J8wfYS52IZOQXuy13hENthGXNqy2,J8wfYS52IZOQXuy13hENthGXNqy2,,,,,,,,,,,,,,,,,,750.0,,,,65c8ae4d5f25e8b4062a4c93,10:07:05,27/02/2024
html-keyboard-response,126,244299,0.0-53.0-3.0,,<div style='margin:auto;width: auto; font-size: 150%'><span style='font-weight: bold; font-size: 100px; color: green;'>+10 points!</span><br><br></div>,,delaylearn,learning,feedback_image_window,J8wfYS52IZOQXuy13hENthGXNqy2,J8wfYS52IZOQXuy13hENthGXNqy2,,,,,,,,,,,,,,,,,,,,,,65c8ae4d5f25e8b4062a4c93,10:07:05,27/02/2024
html-keyboard-response,127,246482,0.0-54.0,,"<div style=""font-size:100px;"">+</div>",,delaylearn,learning,ITI,J8wfYS52IZOQXuy13hENthGXNqy2,J8wfYS52IZOQXuy13hENthGXNqy2,,,,,,,,,,,,,,,,,,,2181.0,,,65c8ae4d5f25e8b4062a4c93,10:07:05,27/02/2024
html-keyboard-response,128,248319,0.0-55.0-0.0,1833.3999999910593,"<div style=""display: flex; flex-direction: column; align-items: center; margin-top: -40px;""><img src=""images/pattern_3.png"" style=""width: 234px; height: 230px; margin-top: -50px;""><div style=""display: flex; justify-content: space-between; margin-top: 33px;""><img src=""images/choice_trial_14.png"" style=""width: 408px; height: 417px; margin-right: 200px;""><img src=""images/choice_trial_12.png"" style=""width: 408px; height: 417px;""></div></div>",j,delaylearn,learning,trial,J8wfYS52IZOQXuy13hENthGXNqy2,J8wfYS52IZOQXuy13hENthGXNqy2,2.0,images/choice_trial_14.png,images/choice_trial_12.png,images/pattern_3.png,j,j,7000.0,14.0,12.0,2.0,1.0,24.0,1.0,1.0,12.0,130.0,,,,,,65c8ae4d5f25e8b4062a4c93,10:07:05,27/02/2024
html-keyboard-response,129,249323,0.0-55.0-1.0,,"<div style=""display: flex; flex-direction: column; align-items: center; margin-top: -40px;""><img src=""images/pattern_3.png"" style=""width: 234px; height: 230px; margin-top: -50px;""><div style=""display: flex; justify-content: space-between; margin-top: 33px;""><img src=""images/choice_trial_12.png"" style=""width: 408px; height: 417px; margin-left:608px;""></div></div>",,delaylearn,learning,display_response,J8wfYS52IZOQXuy13hENthGXNqy2,J8wfYS52IZOQXuy13hENthGXNqy2,,,,,,,,,,,,,,,,,chosen stimuli: images/choice_trial_12.png,,,,,65c8ae4d5f25e8b4062a4c93,10:07:05,27/02/2024
html-keyboard-response,130,256326,0.0-55.0-2.0,,,,delaylearn,learning,feedback_duration_window,J8wfYS52IZOQXuy13hENthGXNqy2,J8wfYS52IZOQXuy13hENthGXNqy2,,,,,,,,,,,,,,,,,,7000.0,,,,65c8ae4d5f25e8b4062a4c93,10:07:05,27/02/2024
html-keyboard-response,131,257829,0.0-55.0-3.0,,<div style='margin:auto;width: auto; font-size: 150%'><span style='font-weight: bold; font-size: 100px; color: green;'>+10 points!</span><br><br></div>,,delaylearn,learning,feedback_image_window,J8wfYS52IZOQXuy13hENthGXNqy2,J8wfYS52IZOQXuy13hENthGXNqy2,,,,,,,,,,,,,,,,,,,,,,65c8ae4d5f25e8b4062a4c93,10:07:05,27/02/2024
lmdlab-html-vas-response,132,264564,0.0-56.0-0.0,5225.0,*How <b><u>confident</u></b> are you feeling about your answers at this moment?*,0.5333333333333333,rewlearn,rate_confidence,,J8wfYS52IZOQXuy13hENthGXNqy2,J8wfYS52IZOQXuy13hENthGXNqy2,,,,,,,,,,,,,,,,,,,,"['No confidence', 'Complete confidence']",,65c8ae4d5f25e8b4062a4c93,10:07:05,27/02/2024
lmdlab-rest-trial-limit,133,271031,0.0-56.0-1.0,4961.79999999702,"<div style=""font-size:40px;""><b>Please take a break!</b><br><br><br><br><p>Great work: you earned undefined points.<br><br><br><p>You have completed part(s) 1 of 6.<br><br><br><br>When you are ready to continue<br><br><br>please click the button.</p><br><br>",0,delaylearn,learning,break,J8wfYS52IZOQXuy13hENthGXNqy2,J8wfYS52IZOQXuy13hENthGXNqy2,,,,,,,,,,,,,,,,,,,,,0.0,65c8ae4d5f25e8b4062a4c93,10:07:05,27/02/2024
html-keyboard-response,134,274036,0.0-56.0-2.0,,"<div style=""font-size:100px;"">+</div>",,delaylearn,learning,pre_fixation,J8wfYS52IZOQXuy13hENthGXNqy2,,,,,,,,,,,,,,,,,,,,,,,65c8ae4d5f25e8b4062a4c93,10:07:05,27/02/2024
lmdlab-html-vas-response,135,278378,0.0-56.0-3.0-0.0,3335.0,How happy are you right now?,0.5907407407407408,delaylearn,learning,mood_baseline,J8wfYS52IZOQXuy13hENthGXNqy2,J8wfYS52IZOQXuy13hENthGXNqy2,,,,,,,,,,,,,,,,,,,,"['Very unhappy', 'Very happy']",,65c8ae4d5f25e8b4062a4c93,10:07:05,27/02/2024
html-keyboard-response,136,279881,0.0-56.0-3.0-1.0,,,,,,mood_baseline_fixation,J8wfYS52IZOQXuy13hENthGXNqy2,,,,,,,,,,,,,,,,,,,,,,,65c8ae4d5f25e8b4062a4c93,10:07:05,27/02/2024
html-keyboard-response,137,281929,0.0-57.0,,"<div style=""font-size:100px;"">+</div>",,delaylearn,learning,ITI,J8wfYS52IZOQXuy13hENthGXNqy2,J8wfYS52IZOQXuy13hENthGXNqy2,,,,,,,,,,,,,,,,,,,2046.0,,,65c8ae4d5f25e8b4062a4c93,10:07:05,27/02/2024
html-keyboard-response,138,283340,0.0-58.0-0.0,1407.1000000089407,"<div style=""display: flex; flex-direction: column; align-items: center; margin-top: -40px;""><img src=""images/pattern_7.png"" style=""width: 234px; height: 230px; margin-top: -50px;""><div style=""display: flex; justify-content: space-between; margin-top: 33px;""><img src=""images/choice_trial_15.png"" style=""width: 408px; height: 417px; margin-right: 200px;""><img src=""images/choice_trial_8.png"" style=""width: 408px; height: 417px;""></div></div>",j,delaylearn,learning,trial,J8wfYS52IZOQXuy13hENthGXNqy2,J8wfYS52IZOQXuy13hENthGXNqy2,2.0,images/choice_trial_15.png,images/choice_trial_8.png,images/pattern_7.png,j,j,750.0,15.0,8.0,6.0,1.0,25.0,1.0,1.0,8.0,140.0,,,,,,65c8ae4d5f25e8b4062a4c93,10:07:05,27/02/2024
html-keyboard-response,139,284344,0.0-58.0-1.0,,"<div style=""display: flex; flex-direction: column; align-items: center; margin-top: -40px;""><img src=""images/pattern_7.png"" style=""width: 234px; height: 230px; margin-top: -50px;""><div style=""display: flex; justify-content: space-between; margin-top: 33px;""><img src=""images/choice_trial_8.png"" style=""width: 408px; height: 417px; margin-left:608px;""></div></div>",,delaylearn,learning,display_response,J8wfYS52IZOQXuy13hENthGXNqy2,J8wfYS52IZOQXuy13hENthGXNqy2,,,,,,,,,,,,,,,,,chosen stimuli: images/choice_trial_8.png,,,,,65c8ae4d5f25e8b4062a4c93,10:07:05,27/02/2024
html-keyboard-response,140,285098,0.0-58.0-2.0,,,,delaylearn,learning,feedback_duration_window,J8wfYS52IZOQXuy13hENthGXNqy2,J8wfYS52IZOQXuy13hENthGXNqy2,,,,,,,,,,,,,,,,,,750.0,,,,65c8ae4d5f25e8b4062a4c93,10:07:05,27/02/2024
html-keyboard-response,141,286601,0.0-58.0-3.0,,<div style='margin:auto;width: auto; font-size: 150%'><span style='font-weight: bold; font-size: 100px; color: green;'>+10 points!</span><br><br></div>,,delaylearn,learning,feedback_image_window,J8wfYS52IZOQXuy13hENthGXNqy2,J8wfYS52IZOQXuy13hENthGXNqy2,,,,,,,,,,,,,,,,,,,,,,65c8ae4d5f25e8b4062a4c93,10:07:05,27/02/2024
html-keyboard-response,142,287104,0.0-59.0-0.0,,,,,,mood_trial_fixation,J8wfYS52IZOQXuy13hENthGXNqy2,,,,,,,,,,,,,,,,,,,,,,,65c8ae4d5f25e8b4062a4c93,10:07:05,27/02/2024
lmdlab-html-vas-response,143,290563,0.0-59.0-1.0,2453.0,How happy are you right now?,0.6611111111111111,delaylearn,learning,mood_trial,J8wfYS52IZOQXuy13hENthGXNqy2,J8wfYS52IZOQXuy13hENthGXNqy2,,,,,,,,,,,,,,,,,,,,"['Very unhappy', 'Very happy']",,65c8ae4d5f25e8b4062a4c93,10:07:05,27/02/2024
html-keyboard-response,144,292277,0.0-60.0,,"<div style=""font-size:100px;"">+</div>",,delaylearn,learning,ITI,J8wfYS52IZOQXuy13hENthGXNqy2,J8wfYS52IZOQXuy13hENthGXNqy2,,,,,,,,,,,,,,,,,,,1712.0,,,65c8ae4d5f25e8b4062a4c93,10:07:05,27/02/2024
html-keyboard-response,145,293648,0.0-61.0-0.0,1366.9000000059605,"<div style=""display: flex; flex-direction: column; align-items: center; margin-top: -40px;""><img src=""images/pattern_1.png"" style=""width: 234px; height: 230px; margin-top: -50px;""><div style=""display: flex; justify-content: space-between; margin-top: 33px;""><img src=""images/choice_trial_3.png"" style=""width: 408px; height: 417px; margin-right: 200px;""><img src=""images/choice_trial_10.png"" style=""width: 408px; height: 417px;""></div></div>",j,delaylearn,learning,trial,J8wfYS52IZOQXuy13hENthGXNqy2,J8wfYS52IZOQXuy13hENthGXNqy2,2.0,images/choice_trial_3.png,images/choice_trial_10.png,images/pattern_1.png,f,f,7000.0,3.0,10.0,1.0,0.0,26.0,0.0,0.0,10.0,140.0,,,,,,65c8ae4d5f25e8b4062a4c93,10:07:05,27/02/2024
html-keyboard-response,146,294652,0.0-61.0-1.0,,"<div style=""display: flex; flex-direction: column; align-items: center; margin-top: -40px;""><img src=""images/pattern_1.png"" style=""width: 234px; height: 230px; margin-top: -50px;""><div style=""display: flex; justify-content: space-between; margin-top: 33px;""><img src=""images/choice_trial_10.png"" style=""width: 408px; height: 417px; margin-left:608px;""></div></div>",,delaylearn,learning,display_response,J8wfYS52IZOQXuy13hENthGXNqy2,J8wfYS52IZOQXuy13hENthGXNqy2,,,,,,,,,,,,,,,,,chosen stimuli: images/choice_trial_10.png,,,,,65c8ae4d5f25e8b4062a4c93,10:07:05,27/02/2024
html-keyboard-response,147,301655,0.0-61.0-2.0,,,,delaylearn,learning,feedback_duration_window,J8wfYS52IZOQXuy13hENthGXNqy2,J8wfYS52IZOQXuy13hENthGXNqy2,,,,,,,,,,,,,,,,,,7000.0,,,,65c8ae4d5f25e8b4062a4c93,10:07:05,27/02/2024
html-keyboard-response,148,303158,0.0-61.0-3.0,,<div style='margin:auto;width: auto; font-size: 150%'><span style='font-weight: bold; font-size: 100px; color: red;'>0 points!</span><br><br></div>,,delaylearn,learning,feedback_image_window,J8wfYS52IZOQXuy13hENthGXNqy2,J8wfYS52IZOQXuy13hENthGXNqy2,,,,,,,,,,,,,,,,,,,,,,65c8ae4d5f25e8b4062a4c93,10:07:05,27/02/2024
html-keyboard-response,149,305293,0.0-62.0,,"<div style=""font-size:100px;"">+</div>",,delaylearn,learning,ITI,J8wfYS52IZOQXuy13hENthGXNqy2,J8wfYS52IZOQXuy13hENthGXNqy2,,,,,,,,,,,,,,,,,,,2132.0,,,65c8ae4d5f25e8b4062a4c93,10:07:05,27/02/2024
html-keyboard-response,150,306481,0.0-63.0-0.0,1184.1000000089407,"<div style=""display: flex; flex-direction: column; align-items: center; margin-top: -40px;""><img src=""images/pattern_5.png"" style=""width: 234px; height: 230px; margin-top: -50px;""><div style=""display: flex; justify-content: space-between; margin-top: 33px;""><img src=""images/choice_trial_2.png"" style=""width: 408px; height: 417px; margin-right: 200px;""><img src=""images/choice_trial_9.png"" style=""width: 408px; height: 417px;""></div></div>",f,delaylearn,learning,trial,J8wfYS52IZOQXuy13hENthGXNqy2,J8wfYS52IZOQXuy13hENthGXNqy2,2.0,images/choice_trial_2.png,images/choice_trial_9.png,images/pattern_5.png,f,f,750.0,2.0,9.0,4.0,0.0,27.0,1.0,1.0,2.0,150.0,,,,,,65c8ae4d5f25e8b4062a4c93,10:07:05,27/02/2024
html-keyboard-response,151,307485,0.0-63.0-1.0,,"<div style=""display: flex; flex-direction: column; align-items: center; margin-top: -40px;""><img src=""images/pattern_5.png"" style=""width: 234px; height: 230px; margin-top: -50px;""><div style=""display: flex; justify-content: space-between; margin-top: 33px;""><img src=""images/choice_trial_2.png"" style=""width: 408px; height: 417px; margin-right: 608px;""></div></div>",,delaylearn,learning,display_response,J8wfYS52IZOQXuy13hENthGXNqy2,J8wfYS52IZOQXuy13hENthGXNqy2,,,,,,,,,,,,,,,,,chosen stimuli: images/choice_trial_2.png,,,,,65c8ae4d5f25e8b4062a4c93,10:07:05,27/02/2024
html-keyboard-response,152,308238,0.0-63.0-2.0,,,,delaylearn,learning,feedback_duration_window,J8wfYS52IZOQXuy13hENthGXNqy2,J8wfYS52IZOQXuy13hENthGXNqy2,,,,,,,,,,,,,,,,,,750.0,,,,65c8ae4d5f25e8b4062a4c93,10:07:05,27/02/2024
html-keyboard-response,153,309741,0.0-63.0-3.0,,<div style='margin:auto;width: auto; font-size: 150%'><span style='font-weight: bold; font-size: 100px; color: green;'>+10 points!</span><br><br></div>,,delaylearn,learning,feedback_image_window,J8wfYS52IZOQXuy13hENthGXNqy2,J8wfYS52IZOQXuy13hENthGXNqy2,,,,,,,,,,,,,,,,,,,,,,65c8ae4d5f25e8b4062a4c93,10:07:05,27/02/2024
html-keyboard-response,154,311339,0.0-64.0,,"<div style=""font-size:100px;"">+</div>",,delaylearn,learning,ITI,J8wfYS52IZOQXuy13hENthGXNqy2,J8wfYS52IZOQXuy13hENthGXNqy2,,,,,,,,,,,,,,,,,,,1595.0,,,65c8ae4d5f25e8b4062a4c93,10:07:05,27/02/2024
html-keyboard-response,155,312797,0.0-65.0-0.0,1453.7999999970198,"<div style=""display: flex; flex-direction: column; align-items: center; margin-top: -40px;""><img src=""images/pattern_6.png"" style=""width: 234px; height: 230px; margin-top: -50px;""><div style=""display: flex; justify-content: space-between; margin-top: 33px;""><img src=""images/choice_trial_5.png"" style=""width: 408px; height: 417px; margin-right: 200px;""><img src=""images/choice_trial_11.png"" style=""width: 408px; height: 417px;""></div></div>",j,delaylearn,learning,trial,J8wfYS52IZOQXuy13hENthGXNqy2,J8wfYS52IZOQXuy13hENthGXNqy2,2.0,images/choice_trial_5.png,images/choice_trial_11.png,images/pattern_6.png,j,j,750.0,5.0,11.0,5.0,1.0,28.0,1.0,1.0,11.0,160.0,,,,,,65c8ae4d5f25e8b4062a4c93,10:07:05,27/02/2024
html-keyboard-response,156,313801,0.0-65.0-1.0,,"<div style=""display: flex; flex-direction: column; align-items: center; margin-top: -40px;""><img src=""images/pattern_6.png"" style=""width: 234px; height: 230px; margin-top: -50px;""><div style=""display: flex; justify-content: space-between; margin-top: 33px;""><img src=""images/choice_trial_11.png"" style=""width: 408px; height: 417px; margin-left:608px;""></div></div>",,delaylearn,learning,display_response,J8wfYS52IZOQXuy13hENthGXNqy2,J8wfYS52IZOQXuy13hENthGXNqy2,,,,,,,,,,,,,,,,,chosen stimuli: images/choice_trial_11.png,,,,,65c8ae4d5f25e8b4062a4c93,10:07:05,27/02/2024
html-keyboard-response,157,314554,0.0-65.0-2.0,,,,delaylearn,learning,feedback_duration_window,J8wfYS52IZOQXuy13hENthGXNqy2,J8wfYS52IZOQXuy13hENthGXNqy2,,,,,,,,,,,,,,,,,,750.0,,,,65c8ae4d5f25e8b4062a4c93,10:07:05,27/02/2024
html-keyboard-response,158,316057,0.0-65.0-3.0,,<div style='margin:auto;width: auto; font-size: 150%'><span style='font-weight: bold; font-size: 100px; color: green;'>+10 points!</span><br><br></div>,,delaylearn,learning,feedback_image_window,J8wfYS52IZOQXuy13hENthGXNqy2,J8wfYS52IZOQXuy13hENthGXNqy2,,,,,,,,,,,,,,,,,,,,,,65c8ae4d5f25e8b4062a4c93,10:07:05,27/02/2024
html-keyboard-response,159,316560,0.0-66.0-0.0,,,,,,mood_trial_fixation,J8wfYS52IZOQXuy13hENthGXNqy2,,,,,,,,,,,,,,,,,,,,,,,65c8ae4d5f25e8b4062a4c93,10:07:05,27/02/2024
lmdlab-html-vas-response,160,320214,0.0-66.0-1.0,2647.0,How happy are you right now?,0.6777777777777778,delaylearn,learning,mood_trial,J8wfYS52IZOQXuy13hENthGXNqy2,J8wfYS52IZOQXuy13hENthGXNqy2,,,,,,,,,,,,,,,,,,,,"['Very unhappy', 'Very happy']",,65c8ae4d5f25e8b4062a4c93,10:07:05,27/02/2024
html-keyboard-response,161,321816,0.0-67.0,,"<div style=""font-size:100px;"">+</div>",,delaylearn,learning,ITI,J8wfYS52IZOQXuy13hENthGXNqy2,J8wfYS52IZOQXuy13hENthGXNqy2,,,,,,,,,,,,,,,,,,,1599.0,,,65c8ae4d5f25e8b4062a4c93,10:07:05,27/02/2024
html-keyboard-response,162,324024,0.0-68.0-0.0,2204.4000000059605,"<div style=""display: flex; flex-direction: column; align-items: center; margin-top: -40px;""><img src=""images/pattern_4.png"" style=""width: 234px; height: 230px; margin-top: -50px;""><div style=""display: flex; justify-content: space-between; margin-top: 33px;""><img src=""images/choice_trial_16.png"" style=""width: 408px; height: 417px; margin-right: 200px;""><img src=""images/choice_trial_4.png"" style=""width: 408px; height: 417px;""></div></div>",j,delaylearn,learning,trial,J8wfYS52IZOQXuy13hENthGXNqy2,J8wfYS52IZOQXuy13hENthGXNqy2,2.0,images/choice_trial_16.png,images/choice_trial_4.png,images/pattern_4.png,j,j,7000.0,16.0,4.0,3.0,1.0,29.0,1.0,1.0,4.0,170.0,,,,,,65c8ae4d5f25e8b4062a4c93,10:07:05,27/02/2024
html-keyboard-response,163,325029,0.0-68.0-1.0,,"<div style=""display: flex; flex-direction: column; align-items: center; margin-top: -40px;""><img src=""images/pattern_4.png"" style=""width: 234px; height: 230px; margin-top: -50px;""><div style=""display: flex; justify-content: space-between; margin-top: 33px;""><img src=""images/choice_trial_4.png"" style=""width: 408px; height: 417px; margin-left:608px;""></div></div>",,delaylearn,learning,display_response,J8wfYS52IZOQXuy13hENthGXNqy2,J8wfYS52IZOQXuy13hENthGXNqy2,,,,,,,,,,,,,,,,,chosen stimuli: images/choice_trial_4.png,,,,,65c8ae4d5f25e8b4062a4c93,10:07:05,27/02/2024
html-keyboard-response,164,332032,0.0-68.0-2.0,,,,delaylearn,learning,feedback_duration_window,J8wfYS52IZOQXuy13hENthGXNqy2,J8wfYS52IZOQXuy13hENthGXNqy2,,,,,,,,,,,,,,,,,,7000.0,,,,65c8ae4d5f25e8b4062a4c93,10:07:05,27/02/2024
html-keyboard-response,165,333535,0.0-68.0-3.0,,<div style='margin:auto;width: auto; font-size: 150%'><span style='font-weight: bold; font-size: 100px; color: green;'>+10 points!</span><br><br></div>,,delaylearn,learning,feedback_image_window,J8wfYS52IZOQXuy13hENthGXNqy2,J8wfYS52IZOQXuy13hENthGXNqy2,,,,,,,,,,,,,,,,,,,,,,65c8ae4d5f25e8b4062a4c93,10:07:05,27/02/2024
html-keyboard-response,166,335051,0.0-69.0,,"<div style=""font-size:100px;"">+</div>",,delaylearn,learning,ITI,J8wfYS52IZOQXuy13hENthGXNqy2,J8wfYS52IZOQXuy13hENthGXNqy2,,,,,,,,,,,,,,,,,,,1512.0,,,65c8ae4d5f25e8b4062a4c93,10:07:05,27/02/2024
html-keyboard-response,167,336568,0.0-70.0-0.0,1514.0,"<div style=""display: flex; flex-direction: column; align-items: center; margin-top: -40px;""><img src=""images/pattern_3.png"" style=""width: 234px; height: 230px; margin-top: -50px;""><div style=""display: flex; justify-content: space-between; margin-top: 33px;""><img src=""images/choice_trial_14.png"" style=""width: 408px; height: 417px; margin-right: 200px;""><img src=""images/choice_trial_12.png"" style=""width: 408px; height: 417px;""></div></div>",f,delaylearn,learning,trial,J8wfYS52IZOQXuy13hENthGXNqy2,J8wfYS52IZOQXuy13hENthGXNqy2,2.0,images/choice_trial_14.png,images/choice_trial_12.png,images/pattern_3.png,j,j,7000.0,14.0,12.0,2.0,1.0,30.0,0.0,0.0,14.0,170.0,,,,,,65c8ae4d5f25e8b4062a4c93,10:07:05,27/02/2024
html-keyboard-response,168,337572,0.0-70.0-1.0,,"<div style=""display: flex; flex-direction: column; align-items: center; margin-top: -40px;""><img src=""images/pattern_3.png"" style=""width: 234px; height: 230px; margin-top: -50px;""><div style=""display: flex; justify-content: space-between; margin-top: 33px;""><img src=""images/choice_trial_14.png"" style=""width: 408px; height: 417px; margin-right: 608px;""></div></div>",,delaylearn,learning,display_response,J8wfYS52IZOQXuy13hENthGXNqy2,J8wfYS52IZOQXuy13hENthGXNqy2,,,,,,,,,,,,,,,,,chosen stimuli: images/choice_trial_14.png,,,,,65c8ae4d5f25e8b4062a4c93,10:07:05,27/02/2024
html-keyboard-response,169,344574,0.0-70.0-2.0,,,,delaylearn,learning,feedback_duration_window,J8wfYS52IZOQXuy13hENthGXNqy2,J8wfYS52IZOQXuy13hENthGXNqy2,,,,,,,,,,,,,,,,,,7000.0,,,,65c8ae4d5f25e8b4062a4c93,10:07:05,27/02/2024
html-keyboard-response,170,346078,0.0-70.0-3.0,,<div style='margin:auto;width: auto; font-size: 150%'><span style='font-weight: bold; font-size: 100px; color: red;'>0 points!</span><br><br></div>,,delaylearn,learning,feedback_image_window,J8wfYS52IZOQXuy13hENthGXNqy2,J8wfYS52IZOQXuy13hENthGXNqy2,,,,,,,,,,,,,,,,,,,,,,65c8ae4d5f25e8b4062a4c93,10:07:05,27/02/2024
html-keyboard-response,171,348229,0.0-71.0,,"<div style=""font-size:100px;"">+</div>",,delaylearn,learning,ITI,J8wfYS52IZOQXuy13hENthGXNqy2,J8wfYS52IZOQXuy13hENthGXNqy2,,,,,,,,,,,,,,,,,,,2147.0,,,65c8ae4d5f25e8b4062a4c93,10:07:05,27/02/2024
html-keyboard-response,172,349708,0.0-72.0-0.0,1474.7999999970198,"<div style=""display: flex; flex-direction: column; align-items: center; margin-top: -40px;""><img src=""images/pattern_5.png"" style=""width: 234px; height: 230px; margin-top: -50px;""><div style=""display: flex; justify-content: space-between; margin-top: 33px;""><img src=""images/choice_trial_2.png"" style=""width: 408px; height: 417px; margin-right: 200px;""><img src=""images/choice_trial_9.png"" style=""width: 408px; height: 417px;""></div></div>",f,delaylearn,learning,trial,J8wfYS52IZOQXuy13hENthGXNqy2,J8wfYS52IZOQXuy13hENthGXNqy2,2.0,images/choice_trial_2.png,images/choice_trial_9.png,images/pattern_5.png,j,f,750.0,2.0,9.0,4.0,0.0,31.0,1.0,0.0,2.0,170.0,,,,,,65c8ae4d5f25e8b4062a4c93,10:07:05,27/02/2024
html-keyboard-response,173,350711,0.0-72.0-1.0,,"<div style=""display: flex; flex-direction: column; align-items: center; margin-top: -40px;""><img src=""images/pattern_5.png"" style=""width: 234px; height: 230px; margin-top: -50px;""><div style=""display: flex; justify-content: space-between; margin-top: 33px;""><img src=""images/choice_trial_2.png"" style=""width: 408px; height: 417px; margin-right: 608px;""></div></div>",,delaylearn,learning,display_response,J8wfYS52IZOQXuy13hENthGXNqy2,J8wfYS52IZOQXuy13hENthGXNqy2,,,,,,,,,,,,,,,,,chosen stimuli: images/choice_trial_2.png,,,,,65c8ae4d5f25e8b4062a4c93,10:07:05,27/02/2024
html-keyboard-response,174,351464,0.0-72.0-2.0,,,,delaylearn,learning,feedback_duration_window,J8wfYS52IZOQXuy13hENthGXNqy2,J8wfYS52IZOQXuy13hENthGXNqy2,,,,,,,,,,,,,,,,,,750.0,,,,65c8ae4d5f25e8b4062a4c93,10:07:05,27/02/2024
html-keyboard-response,175,352968,0.0-72.0-3.0,,<div style='margin:auto;width: auto; font-size: 150%'><span style='font-weight: bold; font-size: 100px; color: red;'>0 points!</span><br><br></div>,,delaylearn,learning,feedback_image_window,J8wfYS52IZOQXuy13hENthGXNqy2,J8wfYS52IZOQXuy13hENthGXNqy2,,,,,,,,,,,,,,,,,,,,,,65c8ae4d5f25e8b4062a4c93,10:07:05,27/02/2024
html-keyboard-response,176,354823,0.0-73.0,,"<div style=""font-size:100px;"">+</div>",,delaylearn,learning,ITI,J8wfYS52IZOQXuy13hENthGXNqy2,J8wfYS52IZOQXuy13hENthGXNqy2,,,,,,,,,,,,,,,,,,,1852.0,,,65c8ae4d5f25e8b4062a4c93,10:07:05,27/02/2024
html-keyboard-response,177,356115,0.0-74.0-0.0,1288.2999999970198,"<div style=""display: flex; flex-direction: column; align-items: center; margin-top: -40px;""><img src=""images/pattern_1.png"" style=""width: 234px; height: 230px; margin-top: -50px;""><div style=""display: flex; justify-content: space-between; margin-top: 33px;""><img src=""images/choice_trial_3.png"" style=""width: 408px; height: 417px; margin-right: 200px;""><img src=""images/choice_trial_10.png"" style=""width: 408px; height: 417px;""></div></div>",f,delaylearn,learning,trial,J8wfYS52IZOQXuy13hENthGXNqy2,J8wfYS52IZOQXuy13hENthGXNqy2,2.0,images/choice_trial_3.png,images/choice_trial_10.png,images/pattern_1.png,f,f,7000.0,3.0,10.0,1.0,0.0,32.0,1.0,1.0,3.0,180.0,,,,,,65c8ae4d5f25e8b4062a4c93,10:07:05,27/02/2024
html-keyboard-response,178,357120,0.0-74.0-1.0,,"<div style=""display: flex; flex-direction: column; align-items: center; margin-top: -40px;""><img src=""images/pattern_1.png"" style=""width: 234px; height: 230px; margin-top: -50px;""><div style=""display: flex; justify-content: space-between; margin-top: 33px;""><img src=""images/choice_trial_3.png"" style=""width: 408px; height: 417px; margin-right: 608px;""></div></div>",,delaylearn,learning,display_response,J8wfYS52IZOQXuy13hENthGXNqy2,J8wfYS52IZOQXuy13hENthGXNqy2,,,,,,,,,,,,,,,,,chosen stimuli: images/choice_trial_3.png,,,,,65c8ae4d5f25e8b4062a4c93,10:07:05,27/02/2024
html-keyboard-response,179,364122,0.0-74.0-2.0,,,,delaylearn,learning,feedback_duration_window,J8wfYS52IZOQXuy13hENthGXNqy2,J8wfYS52IZOQXuy13hENthGXNqy2,,,,,,,,,,,,,,,,,,7000.0,,,,65c8ae4d5f25e8b4062a4c93,10:07:05,27/02/2024
html-keyboard-response,180,365626,0.0-74.0-3.0,,<div style='margin:auto;width: auto; font-size: 150%'><span style='font-weight: bold; font-size: 100px; color: green;'>+10 points!</span><br><br></div>,,delaylearn,learning,feedback_image_window,J8wfYS52IZOQXuy13hENthGXNqy2,J8wfYS52IZOQXuy13hENthGXNqy2,,,,,,,,,,,,,,,,,,,,,,65c8ae4d5f25e8b4062a4c93,10:07:05,27/02/2024
html-keyboard-response,181,366129,0.0-75.0-0.0,,,,,,mood_trial_fixation,J8wfYS52IZOQXuy13hENthGXNqy2,,,,,,,,,,,,,,,,,,,,,,,65c8ae4d5f25e8b4062a4c93,10:07:05,27/02/2024
lmdlab-html-vas-response,182,369648,0.0-75.0-1.0,2512.0,How happy are you right now?,0.5388888888888889,delaylearn,learning,mood_trial,J8wfYS52IZOQXuy13hENthGXNqy2,J8wfYS52IZOQXuy13hENthGXNqy2,,,,,,,,,,,,,,,,,,,,"['Very unhappy', 'Very happy']",,65c8ae4d5f25e8b4062a4c93,10:07:05,27/02/2024
html-keyboard-response,183,371182,0.0-76.0,,"<div style=""font-size:100px;"">+</div>",,delaylearn,learning,ITI,J8wfYS52IZOQXuy13hENthGXNqy2,J8wfYS52IZOQXuy13hENthGXNqy2,,,,,,,,,,,,,,,,,,,1532.0,,,65c8ae4d5f25e8b4062a4c93,10:07:05,27/02/2024
html-keyboard-response,184,372582,0.0-77.0-0.0,1395.7999999970198,"<div style=""display: flex; flex-direction: column; align-items: center; margin-top: -40px;""><img src=""images/pattern_6.png"" style=""width: 234px; height: 230px; margin-top: -50px;""><div style=""display: flex; justify-content: space-between; margin-top: 33px;""><img src=""images/choice_trial_11.png"" style=""width: 408px; height: 417px; margin-right: 200px;""><img src=""images/choice_trial_5.png"" style=""width: 408px; height: 417px;""></div></div>",f,delaylearn,learning,trial,J8wfYS52IZOQXuy13hENthGXNqy2,J8wfYS52IZOQXuy13hENthGXNqy2,2.0,images/choice_trial_11.png,images/choice_trial_5.png,images/pattern_6.png,j,f,750.0,11.0,5.0,5.0,0.0,33.0,1.0,0.0,11.0,180.0,,,,,,65c8ae4d5f25e8b4062a4c93,10:07:05,27/02/2024
html-keyboard-response,185,373586,0.0-77.0-1.0,,"<div style=""display: flex; flex-direction: column; align-items: center; margin-top: -40px;""><img src=""images/pattern_6.png"" style=""width: 234px; height: 230px; margin-top: -50px;""><div style=""display: flex; justify-content: space-between; margin-top: 33px;""><img src=""images/choice_trial_11.png"" style=""width: 408px; height: 417px; margin-right: 608px;""></div></div>",,delaylearn,learning,display_response,J8wfYS52IZOQXuy13hENthGXNqy2,J8wfYS52IZOQXuy13hENthGXNqy2,,,,,,,,,,,,,,,,,chosen stimuli: images/choice_trial_11.png,,,,,65c8ae4d5f25e8b4062a4c93,10:07:05,27/02/2024
html-keyboard-response,186,374339,0.0-77.0-2.0,,,,delaylearn,learning,feedback_duration_window,J8wfYS52IZOQXuy13hENthGXNqy2,J8wfYS52IZOQXuy13hENthGXNqy2,,,,,,,,,,,,,,,,,,750.0,,,,65c8ae4d5f25e8b4062a4c93,10:07:05,27/02/2024
html-keyboard-response,187,375843,0.0-77.0-3.0,,<div style='margin:auto;width: auto; font-size: 150%'><span style='font-weight: bold; font-size: 100px; color: red;'>0 points!</span><br><br></div>,,delaylearn,learning,feedback_image_window,J8wfYS52IZOQXuy13hENthGXNqy2,J8wfYS52IZOQXuy13hENthGXNqy2,,,,,,,,,,,,,,,,,,,,,,65c8ae4d5f25e8b4062a4c93,10:07:05,27/02/2024
html-keyboard-response,188,378108,0.0-78.0,,"<div style=""font-size:100px;"">+</div>",,delaylearn,learning,ITI,J8wfYS52IZOQXuy13hENthGXNqy2,J8wfYS52IZOQXuy13hENthGXNqy2,,,,,,,,,,,,,,,,,,,2262.0,,,65c8ae4d5f25e8b4062a4c93,10:07:05,27/02/2024
html-keyboard-response,189,379754,0.0-79.0-0.0,1642.5999999940395,"<div style=""display: flex; flex-direction: column; align-items: center; margin-top: -40px;""><img src=""images/pattern_3.png"" style=""width: 234px; height: 230px; margin-top: -50px;""><div style=""display: flex; justify-content: space-between; margin-top: 33px;""><img src=""images/choice_trial_14.png"" style=""width: 408px; height: 417px; margin-right: 200px;""><img src=""images/choice_trial_12.png"" style=""width: 408px; height: 417px;""></div></div>",j,delaylearn,learning,trial,J8wfYS52IZOQXuy13hENthGXNqy2,J8wfYS52IZOQXuy13hENthGXNqy2,2.0,images/choice_trial_14.png,images/choice_trial_12.png,images/pattern_3.png,j,j,7000.0,14.0,12.0,2.0,1.0,34.0,1.0,1.0,12.0,190.0,,,,,,65c8ae4d5f25e8b4062a4c93,10:07:05,27/02/2024
html-keyboard-response,190,380758,0.0-79.0-1.0,,"<div style=""display: flex; flex-direction: column; align-items: center; margin-top: -40px;""><img src=""images/pattern_3.png"" style=""width: 234px; height: 230px; margin-top: -50px;""><div style=""display: flex; justify-content: space-between; margin-top: 33px;""><img src=""images/choice_trial_12.png"" style=""width: 408px; height: 417px; margin-left:608px;""></div></div>",,delaylearn,learning,display_response,J8wfYS52IZOQXuy13hENthGXNqy2,J8wfYS52IZOQXuy13hENthGXNqy2,,,,,,,,,,,,,,,,,chosen stimuli: images/choice_trial_12.png,,,,,65c8ae4d5f25e8b4062a4c93,10:07:05,27/02/2024
html-keyboard-response,191,387761,0.0-79.0-2.0,,,,delaylearn,learning,feedback_duration_window,J8wfYS52IZOQXuy13hENthGXNqy2,J8wfYS52IZOQXuy13hENthGXNqy2,,,,,,,,,,,,,,,,,,7000.0,,,,65c8ae4d5f25e8b4062a4c93,10:07:05,27/02/2024
html-keyboard-response,192,389265,0.0-79.0-3.0,,<div style='margin:auto;width: auto; font-size: 150%'><span style='font-weight: bold; font-size: 100px; color: green;'>+10 points!</span><br><br></div>,,delaylearn,learning,feedback_image_window,J8wfYS52IZOQXuy13hENthGXNqy2,J8wfYS52IZOQXuy13hENthGXNqy2,,,,,,,,,,,,,,,,,,,,,,65c8ae4d5f25e8b4062a4c93,10:07:05,27/02/2024
html-keyboard-response,193,391200,0.0-80.0,,"<div style=""font-size:100px;"">+</div>",,delaylearn,learning,ITI,J8wfYS52IZOQXuy13hENthGXNqy2,J8wfYS52IZOQXuy13hENthGXNqy2,,,,,,,,,,,,,,,,,,,1932.0,,,65c8ae4d5f25e8b4062a4c93,10:07:05,27/02/2024
html-keyboard-response,194,391702,0.0-81.0-0.0,498.19999998807907,"<div style=""display: flex; flex-direction: column; align-items: center; margin-top: -40px;""><img src=""images/pattern_4.png"" style=""width: 234px; height: 230px; margin-top: -50px;""><div style=""display: flex; justify-content: space-between; margin-top: 33px;""><img src=""images/choice_trial_16.png"" style=""width: 408px; height: 417px; margin-right: 200px;""><img src=""images/choice_trial_4.png"" style=""width: 408px; height: 417px;""></div></div>",j,delaylearn,learning,trial,J8wfYS52IZOQXuy13hENthGXNqy2,J8wfYS52IZOQXuy13hENthGXNqy2,2.0,images/choice_trial_16.png,images/choice_trial_4.png,images/pattern_4.png,f,j,7000.0,16.0,4.0,3.0,1.0,35.0,1.0,0.0,4.0,190.0,,,,,,65c8ae4d5f25e8b4062a4c93,10:07:05,27/02/2024
html-keyboard-response,195,392707,0.0-81.0-1.0,,"<div style=""display: flex; flex-direction: column; align-items: center; margin-top: -40px;""><img src=""images/pattern_4.png"" style=""width: 234px; height: 230px; margin-top: -50px;""><div style=""display: flex; justify-content: space-between; margin-top: 33px;""><img src=""images/choice_trial_4.png"" style=""width: 408px; height: 417px; margin-left:608px;""></div></div>",,delaylearn,learning,display_response,J8wfYS52IZOQXuy13hENthGXNqy2,J8wfYS52IZOQXuy13hENthGXNqy2,,,,,,,,,,,,,,,,,chosen stimuli: images/choice_trial_4.png,,,,,65c8ae4d5f25e8b4062a4c93,10:07:05,27/02/2024
html-keyboard-response,196,399709,0.0-81.0-2.0,,,,delaylearn,learning,feedback_duration_window,J8wfYS52IZOQXuy13hENthGXNqy2,J8wfYS52IZOQXuy13hENthGXNqy2,,,,,,,,,,,,,,,,,,7000.0,,,,65c8ae4d5f25e8b4062a4c93,10:07:05,27/02/2024
html-keyboard-response,197,401213,0.0-81.0-3.0,,<div style='margin:auto;width: auto; font-size: 150%'><span style='font-weight: bold; font-size: 100px; color: red;'>0 points!</span><br><br></div>,,delaylearn,learning,feedback_image_window,J8wfYS52IZOQXuy13hENthGXNqy2,J8wfYS52IZOQXuy13hENthGXNqy2,,,,,,,,,,,,,,,,,,,,,,65c8ae4d5f25e8b4062a4c93,10:07:05,27/02/2024
html-keyboard-response,198,403090,0.0-82.0,,"<div style=""font-size:100px;"">+</div>",,delaylearn,learning,ITI,J8wfYS52IZOQXuy13hENthGXNqy2,J8wfYS52IZOQXuy13hENthGXNqy2,,,,,,,,,,,,,,,,,,,1874.0,,,65c8ae4d5f25e8b4062a4c93,10:07:05,27/02/2024
html-keyboard-response,199,404193,0.0-83.0-0.0,1099.0,"<div style=""display: flex; flex-direction: column; align-items: center; margin-top: -40px;""><img src=""images/pattern_7.png"" style=""width: 234px; height: 230px; margin-top: -50px;""><div style=""display: flex; justify-content: space-between; margin-top: 33px;""><img src=""images/choice_trial_8.png"" style=""width: 408px; height: 417px; margin-right: 200px;""><img src=""images/choice_trial_15.png"" style=""width: 408px; height: 417px;""></div></div>",j,delaylearn,learning,trial,J8wfYS52IZOQXuy13hENthGXNqy2,J8wfYS52IZOQXuy13hENthGXNqy2,2.0,images/choice_trial_8.png,images/choice_trial_15.png,images/pattern_7.png,f,f,750.0,8.0,15.0,6.0,0.0,36.0,0.0,0.0,15.0,190.0,,,,,,65c8ae4d5f25e8b4062a4c93,10:07:05,27/02/2024
html-keyboard-response,200,405197,0.0-83.0-1.0,,"<div style=""display: flex; flex-direction: column; align-items: center; margin-top: -40px;""><img src=""images/pattern_7.png"" style=""width: 234px; height: 230px; margin-top: -50px;""><div style=""display: flex; justify-content: space-between; margin-top: 33px;""><img src=""images/choice_trial_15.png"" style=""width: 408px; height: 417px; margin-left:608px;""></div></div>",,delaylearn,learning,display_response,J8wfYS52IZOQXuy13hENthGXNqy2,J8wfYS52IZOQXuy13hENthGXNqy2,,,,,,,,,,,,,,,,,chosen stimuli: images/choice_trial_15.png,,,,,65c8ae4d5f25e8b4062a4c93,10:07:05,27/02/2024
html-keyboard-response,201,405949,0.0-83.0-2.0,,,,delaylearn,learning,feedback_duration_window,J8wfYS52IZOQXuy13hENthGXNqy2,J8wfYS52IZOQXuy13hENthGXNqy2,,,,,,,,,,,,,,,,,,750.0,,,,65c8ae4d5f25e8b4062a4c93,10:07:05,27/02/2024
html-keyboard-response,202,407453,0.0-83.0-3.0,,<div style='margin:auto;width: auto; font-size: 150%'><span style='font-weight: bold; font-size: 100px; color: red;'>0 points!</span><br><br></div>,,delaylearn,learning,feedback_image_window,J8wfYS52IZOQXuy13hENthGXNqy2,J8wfYS52IZOQXuy13hENthGXNqy2,,,,,,,,,,,,,,,,,,,,,,65c8ae4d5f25e8b4062a4c93,10:07:05,27/02/2024
html-keyboard-response,203,409912,0.0-84.0,,"<div style=""font-size:100px;"">+</div>",,delaylearn,learning,ITI,J8wfYS52IZOQXuy13hENthGXNqy2,J8wfYS52IZOQXuy13hENthGXNqy2,,,,,,,,,,,,,,,,,,,2456.0,,,65c8ae4d5f25e8b4062a4c93,10:07:05,27/02/2024
html-keyboard-response,204,411589,0.0-85.0-0.0,1672.5,"<div style=""display: flex; flex-direction: column; align-items: center; margin-top: -40px;""><img src=""images/pattern_1.png"" style=""width: 234px; height: 230px; margin-top: -50px;""><div style=""display: flex; justify-content: space-between; margin-top: 33px;""><img src=""images/choice_trial_3.png"" style=""width: 408px; height: 417px; margin-right: 200px;""><img src=""images/choice_trial_10.png"" style=""width: 408px; height: 417px;""></div></div>",j,delaylearn,learning,trial,J8wfYS52IZOQXuy13hENthGXNqy2,J8wfYS52IZOQXuy13hENthGXNqy2,2.0,images/choice_trial_3.png,images/choice_trial_10.png,images/pattern_1.png,f,f,7000.0,3.0,10.0,1.0,0.0,37.0,0.0,0.0,10.0,190.0,,,,,,65c8ae4d5f25e8b4062a4c93,10:07:05,27/02/2024
html-keyboard-response,205,412593,0.0-85.0-1.0,,"<div style=""display: flex; flex-direction: column; align-items: center; margin-top: -40px;""><img src=""images/pattern_1.png"" style=""width: 234px; height: 230px; margin-top: -50px;""><div style=""display: flex; justify-content: space-between; margin-top: 33px;""><img src=""images/choice_trial_10.png"" style=""width: 408px; height: 417px; margin-left:608px;""></div></div>",,delaylearn,learning,display_response,J8wfYS52IZOQXuy13hENthGXNqy2,J8wfYS52IZOQXuy13hENthGXNqy2,,,,,,,,,,,,,,,,,chosen stimuli: images/choice_trial_10.png,,,,,65c8ae4d5f25e8b4062a4c93,10:07:05,27/02/2024
html-keyboard-response,206,419596,0.0-85.0-2.0,,,,delaylearn,learning,feedback_duration_window,J8wfYS52IZOQXuy13hENthGXNqy2,J8wfYS52IZOQXuy13hENthGXNqy2,,,,,,,,,,,,,,,,,,7000.0,,,,65c8ae4d5f25e8b4062a4c93,10:07:05,27/02/2024
html-keyboard-response,207,421099,0.0-85.0-3.0,,<div style='margin:auto;width: auto; font-size: 150%'><span style='font-weight: bold; font-size: 100px; color: red;'>0 points!</span><br><br></div>,,delaylearn,learning,feedback_image_window,J8wfYS52IZOQXuy13hENthGXNqy2,J8wfYS52IZOQXuy13hENthGXNqy2,,,,,,,,,,,,,,,,,,,,,,65c8ae4d5f25e8b4062a4c93,10:07:05,27/02/2024
html-keyboard-response,208,421601,0.0-86.0-0.0,,,,,,mood_trial_fixation,J8wfYS52IZOQXuy13hENthGXNqy2,,,,,,,,,,,,,,,,,,,,,,,65c8ae4d5f25e8b4062a4c93,10:07:05,27/02/2024
lmdlab-html-vas-response,209,425382,0.0-86.0-1.0,2774.0,How happy are you right now?,0.2777777777777778,delaylearn,learning,mood_trial,J8wfYS52IZOQXuy13hENthGXNqy2,J8wfYS52IZOQXuy13hENthGXNqy2,,,,,,,,,,,,,,,,,,,,"['Very unhappy', 'Very happy']",,65c8ae4d5f25e8b4062a4c93,10:07:05,27/02/2024
html-keyboard-response,210,427141,0.0-87.0,,"<div style=""font-size:100px;"">+</div>",,delaylearn,learning,ITI,J8wfYS52IZOQXuy13hENthGXNqy2,J8wfYS52IZOQXuy13hENthGXNqy2,,,,,,,,,,,,,,,,,,,1757.0,,,65c8ae4d5f25e8b4062a4c93,10:07:05,27/02/2024
html-keyboard-response,211,428500,0.0-88.0-0.0,1353.8999999910593,"<div style=""display: flex; flex-direction: column; align-items: center; margin-top: -40px;""><img src=""images/pattern_3.png"" style=""width: 234px; height: 230px; margin-top: -50px;""><div style=""display: flex; justify-content: space-between; margin-top: 33px;""><img src=""images/choice_trial_12.png"" style=""width: 408px; height: 417px; margin-right: 200px;""><img src=""images/choice_trial_14.png"" style=""width: 408px; height: 417px;""></div></div>",f,delaylearn,learning,trial,J8wfYS52IZOQXuy13hENthGXNqy2,J8wfYS52IZOQXuy13hENthGXNqy2,2.0,images/choice_trial_12.png,images/choice_trial_14.png,images/pattern_3.png,j,f,7000.0,12.0,14.0,2.0,0.0,38.0,1.0,0.0,12.0,190.0,,,,,,65c8ae4d5f25e8b4062a4c93,10:07:05,27/02/2024
html-keyboard-response,212,429504,0.0-88.0-1.0,,"<div style=""display: flex; flex-direction: column; align-items: center; margin-top: -40px;""><img src=""images/pattern_3.png"" style=""width: 234px; height: 230px; margin-top: -50px;""><div style=""display: flex; justify-content: space-between; margin-top: 33px;""><img src=""images/choice_trial_12.png"" style=""width: 408px; height: 417px; margin-right: 608px;""></div></div>",,delaylearn,learning,display_response,J8wfYS52IZOQXuy13hENthGXNqy2,J8wfYS52IZOQXuy13hENthGXNqy2,,,,,,,,,,,,,,,,,chosen stimuli: images/choice_trial_12.png,,,,,65c8ae4d5f25e8b4062a4c93,10:07:05,27/02/2024
html-keyboard-response,213,436506,0.0-88.0-2.0,,,,delaylearn,learning,feedback_duration_window,J8wfYS52IZOQXuy13hENthGXNqy2,J8wfYS52IZOQXuy13hENthGXNqy2,,,,,,,,,,,,,,,,,,7000.0,,,,65c8ae4d5f25e8b4062a4c93,10:07:05,27/02/2024
html-keyboard-response,214,438010,0.0-88.0-3.0,,<div style='margin:auto;width: auto; font-size: 150%'><span style='font-weight: bold; font-size: 100px; color: red;'>0 points!</span><br><br></div>,,delaylearn,learning,feedback_image_window,J8wfYS52IZOQXuy13hENthGXNqy2,J8wfYS52IZOQXuy13hENthGXNqy2,,,,,,,,,,,,,,,,,,,,,,65c8ae4d5f25e8b4062a4c93,10:07:05,27/02/2024
html-keyboard-response,215,439938,0.0-89.0,,"<div style=""font-size:100px;"">+</div>",,delaylearn,learning,ITI,J8wfYS52IZOQXuy13hENthGXNqy2,J8wfYS52IZOQXuy13hENthGXNqy2,,,,,,,,,,,,,,,,,,,1924.0,,,65c8ae4d5f25e8b4062a4c93,10:07:05,27/02/2024
html-keyboard-response,216,441449,0.0-90.0-0.0,1507.5,"<div style=""display: flex; flex-direction: column; align-items: center; margin-top: -40px;""><img src=""images/pattern_7.png"" style=""width: 234px; height: 230px; margin-top: -50px;""><div style=""display: flex; justify-content: space-between; margin-top: 33px;""><img src=""images/choice_trial_15.png"" style=""width: 408px; height: 417px; margin-right: 200px;""><img src=""images/choice_trial_8.png"" style=""width: 408px; height: 417px;""></div></div>",j,delaylearn,learning,trial,J8wfYS52IZOQXuy13hENthGXNqy2,J8wfYS52IZOQXuy13hENthGXNqy2,2.0,images/choice_trial_15.png,images/choice_trial_8.png,images/pattern_7.png,j,j,750.0,15.0,8.0,6.0,1.0,39.0,1.0,1.0,8.0,200.0,,,,,,65c8ae4d5f25e8b4062a4c93,10:07:05,27/02/2024
html-keyboard-response,217,442453,0.0-90.0-1.0,,"<div style=""display: flex; flex-direction: column; align-items: center; margin-top: -40px;""><img src=""images/pattern_7.png"" style=""width: 234px; height: 230px; margin-top: -50px;""><div style=""display: flex; justify-content: space-between; margin-top: 33px;""><img src=""images/choice_trial_8.png"" style=""width: 408px; height: 417px; margin-left:608px;""></div></div>",,delaylearn,learning,display_response,J8wfYS52IZOQXuy13hENthGXNqy2,J8wfYS52IZOQXuy13hENthGXNqy2,,,,,,,,,,,,,,,,,chosen stimuli: images/choice_trial_8.png,,,,,65c8ae4d5f25e8b4062a4c93,10:07:05,27/02/2024
html-keyboard-response,218,443207,0.0-90.0-2.0,,,,delaylearn,learning,feedback_duration_window,J8wfYS52IZOQXuy13hENthGXNqy2,J8wfYS52IZOQXuy13hENthGXNqy2,,,,,,,,,,,,,,,,,,750.0,,,,65c8ae4d5f25e8b4062a4c93,10:07:05,27/02/2024
html-keyboard-response,219,444709,0.0-90.0-3.0,,<div style='margin:auto;width: auto; font-size: 150%'><span style='font-weight: bold; font-size: 100px; color: green;'>+10 points!</span><br><br></div>,,delaylearn,learning,feedback_image_window,J8wfYS52IZOQXuy13hENthGXNqy2,J8wfYS52IZOQXuy13hENthGXNqy2,,,,,,,,,,,,,,,,,,,,,,65c8ae4d5f25e8b4062a4c93,10:07:05,27/02/2024
html-keyboard-response,220,446876,0.0-91.0,,"<div style=""font-size:100px;"">+</div>",,delaylearn,learning,ITI,J8wfYS52IZOQXuy13hENthGXNqy2,J8wfYS52IZOQXuy13hENthGXNqy2,,,,,,,,,,,,,,,,,,,2164.0,,,65c8ae4d5f25e8b4062a4c93,10:07:05,27/02/2024
html-keyboard-response,221,447958,0.0-92.0-0.0,1077.0,"<div style=""display: flex; flex-direction: column; align-items: center; margin-top: -40px;""><img src=""images/pattern_5.png"" style=""width: 234px; height: 230px; margin-top: -50px;""><div style=""display: flex; justify-content: space-between; margin-top: 33px;""><img src=""images/choice_trial_9.png"" style=""width: 408px; height: 417px; margin-right: 200px;""><img src=""images/choice_trial_2.png"" style=""width: 408px; height: 417px;""></div></div>",j,delaylearn,learning,trial,J8wfYS52IZOQXuy13hENthGXNqy2,J8wfYS52IZOQXuy13hENthGXNqy2,2.0,images/choice_trial_9.png,images/choice_trial_2.png,images/pattern_5.png,j,j,750.0,9.0,2.0,4.0,1.0,40.0,1.0,1.0,2.0,210.0,,,,,,65c8ae4d5f25e8b4062a4c93,10:07:05,27/02/2024
html-keyboard-response,222,448961,0.0-92.0-1.0,,"<div style=""display: flex; flex-direction: column; align-items: center; margin-top: -40px;""><img src=""images/pattern_5.png"" style=""width: 234px; height: 230px; margin-top: -50px;""><div style=""display: flex; justify-content: space-between; margin-top: 33px;""><img src=""images/choice_trial_2.png"" style=""width: 408px; height: 417px; margin-left:608px;""></div></div>",,delaylearn,learning,display_response,J8wfYS52IZOQXuy13hENthGXNqy2,J8wfYS52IZOQXuy13hENthGXNqy2,,,,,,,,,,,,,,,,,chosen stimuli: images/choice_trial_2.png,,,,,65c8ae4d5f25e8b4062a4c93,10:07:05,27/02/2024
html-keyboard-response,223,449715,0.0-92.0-2.0,,,,delaylearn,learning,feedback_duration_window,J8wfYS52IZOQXuy13hENthGXNqy2,J8wfYS52IZOQXuy13hENthGXNqy2,,,,,,,,,,,,,,,,,,750.0,,,,65c8ae4d5f25e8b4062a4c93,10:07:05,27/02/2024
html-keyboard-response,224,451219,0.0-92.0-3.0,,<div style='margin:auto;width: auto; font-size: 150%'><span style='font-weight: bold; font-size: 100px; color: green;'>+10 points!</span><br><br></div>,,delaylearn,learning,feedback_image_window,J8wfYS52IZOQXuy13hENthGXNqy2,J8wfYS52IZOQXuy13hENthGXNqy2,,,,,,,,,,,,,,,,,,,,,,65c8ae4d5f25e8b4062a4c93,10:07:05,27/02/2024
html-keyboard-response,225,451721,0.0-93.0-0.0,,,,,,mood_trial_fixation,J8wfYS52IZOQXuy13hENthGXNqy2,,,,,,,,,,,,,,,,,,,,,,,65c8ae4d5f25e8b4062a4c93,10:07:05,27/02/2024
lmdlab-html-vas-response,226,456048,0.0-93.0-1.0,3321.0,How happy are you right now?,0.6648148148148149,delaylearn,learning,mood_trial,J8wfYS52IZOQXuy13hENthGXNqy2,J8wfYS52IZOQXuy13hENthGXNqy2,,,,,,,,,,,,,,,,,,,,"['Very unhappy', 'Very happy']",,65c8ae4d5f25e8b4062a4c93,10:07:05,27/02/2024
html-keyboard-response,227,458385,0.0-94.0,,"<div style=""font-size:100px;"">+</div>",,delaylearn,learning,ITI,J8wfYS52IZOQXuy13hENthGXNqy2,J8wfYS52IZOQXuy13hENthGXNqy2,,,,,,,,,,,,,,,,,,,2333.0,,,65c8ae4d5f25e8b4062a4c93,10:07:05,27/02/2024
html-keyboard-response,228,460414,0.0-95.0-0.0,2025.2999999970198,"<div style=""display: flex; flex-direction: column; align-items: center; margin-top: -40px;""><img src=""images/pattern_4.png"" style=""width: 234px; height: 230px; margin-top: -50px;""><div style=""display: flex; justify-content: space-between; margin-top: 33px;""><img src=""images/choice_trial_4.png"" style=""width: 408px; height: 417px; margin-right: 200px;""><img src=""images/choice_trial_16.png"" style=""width: 408px; height: 417px;""></div></div>",f,delaylearn,learning,trial,J8wfYS52IZOQXuy13hENthGXNqy2,J8wfYS52IZOQXuy13hENthGXNqy2,2.0,images/choice_trial_4.png,images/choice_trial_16.png,images/pattern_4.png,f,f,7000.0,4.0,16.0,3.0,0.0,41.0,1.0,1.0,4.0,220.0,,,,,,65c8ae4d5f25e8b4062a4c93,10:07:05,27/02/2024
html-keyboard-response,229,461418,0.0-95.0-1.0,,"<div style=""display: flex; flex-direction: column; align-items: center; margin-top: -40px;""><img src=""images/pattern_4.png"" style=""width: 234px; height: 230px; margin-top: -50px;""><div style=""display: flex; justify-content: space-between; margin-top: 33px;""><img src=""images/choice_trial_4.png"" style=""width: 408px; height: 417px; margin-right: 608px;""></div></div>",,delaylearn,learning,display_response,J8wfYS52IZOQXuy13hENthGXNqy2,J8wfYS52IZOQXuy13hENthGXNqy2,,,,,,,,,,,,,,,,,chosen stimuli: images/choice_trial_4.png,,,,,65c8ae4d5f25e8b4062a4c93,10:07:05,27/02/2024
html-keyboard-response,230,468421,0.0-95.0-2.0,,,,delaylearn,learning,feedback_duration_window,J8wfYS52IZOQXuy13hENthGXNqy2,J8wfYS52IZOQXuy13hENthGXNqy2,,,,,,,,,,,,,,,,,,7000.0,,,,65c8ae4d5f25e8b4062a4c93,10:07:05,27/02/2024
html-keyboard-response,231,469924,0.0-95.0-3.0,,<div style='margin:auto;width: auto; font-size: 150%'><span style='font-weight: bold; font-size: 100px; color: green;'>+10 points!</span><br><br></div>,,delaylearn,learning,feedback_image_window,J8wfYS52IZOQXuy13hENthGXNqy2,J8wfYS52IZOQXuy13hENthGXNqy2,,,,,,,,,,,,,,,,,,,,,,65c8ae4d5f25e8b4062a4c93,10:07:05,27/02/2024
