trial_type,trial_index,time_elapsed,internal_node_id,rt,stimulus,response,exp_name,exp_stage,test_part,subjectID,databaseID,counterbal,choice_stimuli_1,choice_stimuli_2,pattern_stimuli,rewarded_answer,correct_answer,feedback_duration_times,stim_left,stim_right,pair,leftright_counter,trial,response_correct,response_rewarded,chosen_stim,counter,displayed_choice,feedback_durations,ITI_duration,labels,rest_warning,prolificID,start_time,date
pavlovia,0,556,0.0-0.0,,,,,,,Rvut4qHuFrVPHZPchKuPCYuIpDG2,,,,,,,,,,,,,,,,,,,,,,,5bf8a27021a4e1000194fc76,15:37:39,26/03/2024
html-keyboard-response,1,3564,0.0-1.0,,"<div style=""font-size:100px;"">+</div>",,delaylearn,learning,pre_fixation,Rvut4qHuFrVPHZPchKuPCYuIpDG2,,,,,,,,,,,,,,,,,,,,,,,5bf8a27021a4e1000194fc76,15:37:39,26/03/2024
html-keyboard-response,2,4819,0.0-2.0-0.0,1252.0,"<div style=""display: flex; flex-direction: column; align-items: center; margin-top: -40px;""><img src=""images/demo_images/pattern_1.png"" style=""width: 234px; height: 230px; margin-top: -50px;""><div style=""display: flex; justify-content: space-between; margin-top: 33px;""><img src=""images/demo_images/choice_trial_2.png"" style=""width: 408px; height: 417px; margin-right: 200px;""><img src=""images/demo_images/choice_trial_1.png"" style=""width: 408px; height: 417px;""></div></div>",j,delaylearn,learning,trial,Rvut4qHuFrVPHZPchKuPCYuIpDG2,Rvut4qHuFrVPHZPchKuPCYuIpDG2,5.0,images/demo_images/choice_trial_2.png,images/demo_images/choice_trial_1.png,images/demo_images/pattern_1.png,j,j,3000.0,2.0,1.0,20.0,1.0,1.0,1.0,1.0,1.0,10.0,,,,,,5bf8a27021a4e1000194fc76,15:37:39,26/03/2024
html-keyboard-response,3,5822,0.0-2.0-1.0,,"<div style=""display: flex; flex-direction: column; align-items: center; margin-top: -40px;""><img src=""images/demo_images/pattern_1.png"" style=""width: 234px; height: 230px; margin-top: -50px;""><div style=""display: flex; justify-content: space-between; margin-top: 33px;""><img src=""images/demo_images/choice_trial_1.png"" style=""width: 408px; height: 417px; margin-left:608px;""></div></div>",,delaylearn,learning,display_response,Rvut4qHuFrVPHZPchKuPCYuIpDG2,Rvut4qHuFrVPHZPchKuPCYuIpDG2,,,,,,,,,,,,,,,,,chosen stimuli: images/demo_images/choice_trial_1.png,,,,,5bf8a27021a4e1000194fc76,15:37:39,26/03/2024
html-keyboard-response,4,8829,0.0-2.0-2.0,,,,delaylearn,learning,feedback_duration_window,Rvut4qHuFrVPHZPchKuPCYuIpDG2,Rvut4qHuFrVPHZPchKuPCYuIpDG2,,,,,,,,,,,,,,,,,,3000.0,,,,5bf8a27021a4e1000194fc76,15:37:39,26/03/2024
html-keyboard-response,5,10334,0.0-2.0-3.0,,<div style='margin:auto;width: auto; font-size: 150%'><span style='font-weight: bold; font-size: 100px; color: green;'>+10 points!</span><br><br></div>,,delaylearn,learning,feedback_image_window,Rvut4qHuFrVPHZPchKuPCYuIpDG2,Rvut4qHuFrVPHZPchKuPCYuIpDG2,,,,,,,,,,,,,,,,,,,,,,5bf8a27021a4e1000194fc76,15:37:39,26/03/2024
html-keyboard-response,6,12763,0.0-3.0,,"<div style=""font-size:100px;"">+</div>",,delaylearn,learning,ITI,Rvut4qHuFrVPHZPchKuPCYuIpDG2,Rvut4qHuFrVPHZPchKuPCYuIpDG2,,,,,,,,,,,,,,,,,,,2426.0,,,5bf8a27021a4e1000194fc76,15:37:39,26/03/2024
html-keyboard-response,7,13303,0.0-4.0-0.0,536.0,"<div style=""display: flex; flex-direction: column; align-items: center; margin-top: -40px;""><img src=""images/demo_images/pattern_1.png"" style=""width: 234px; height: 230px; margin-top: -50px;""><div style=""display: flex; justify-content: space-between; margin-top: 33px;""><img src=""images/demo_images/choice_trial_2.png"" style=""width: 408px; height: 417px; margin-right: 200px;""><img src=""images/demo_images/choice_trial_1.png"" style=""width: 408px; height: 417px;""></div></div>",j,delaylearn,learning,trial,Rvut4qHuFrVPHZPchKuPCYuIpDG2,Rvut4qHuFrVPHZPchKuPCYuIpDG2,5.0,images/demo_images/choice_trial_2.png,images/demo_images/choice_trial_1.png,images/demo_images/pattern_1.png,j,j,3000.0,2.0,1.0,20.0,1.0,2.0,1.0,1.0,1.0,20.0,,,,,,5bf8a27021a4e1000194fc76,15:37:39,26/03/2024
html-keyboard-response,8,14306,0.0-4.0-1.0,,"<div style=""display: flex; flex-direction: column; align-items: center; margin-top: -40px;""><img src=""images/demo_images/pattern_1.png"" style=""width: 234px; height: 230px; margin-top: -50px;""><div style=""display: flex; justify-content: space-between; margin-top: 33px;""><img src=""images/demo_images/choice_trial_1.png"" style=""width: 408px; height: 417px; margin-left:608px;""></div></div>",,delaylearn,learning,display_response,Rvut4qHuFrVPHZPchKuPCYuIpDG2,Rvut4qHuFrVPHZPchKuPCYuIpDG2,,,,,,,,,,,,,,,,,chosen stimuli: images/demo_images/choice_trial_1.png,,,,,5bf8a27021a4e1000194fc76,15:37:39,26/03/2024
html-keyboard-response,9,17311,0.0-4.0-2.0,,,,delaylearn,learning,feedback_duration_window,Rvut4qHuFrVPHZPchKuPCYuIpDG2,Rvut4qHuFrVPHZPchKuPCYuIpDG2,,,,,,,,,,,,,,,,,,3000.0,,,,5bf8a27021a4e1000194fc76,15:37:39,26/03/2024
html-keyboard-response,10,18814,0.0-4.0-3.0,,<div style='margin:auto;width: auto; font-size: 150%'><span style='font-weight: bold; font-size: 100px; color: green;'>+10 points!</span><br><br></div>,,delaylearn,learning,feedback_image_window,Rvut4qHuFrVPHZPchKuPCYuIpDG2,Rvut4qHuFrVPHZPchKuPCYuIpDG2,,,,,,,,,,,,,,,,,,,,,,5bf8a27021a4e1000194fc76,15:37:39,26/03/2024
html-keyboard-response,11,21092,0.0-5.0,,"<div style=""font-size:100px;"">+</div>",,delaylearn,learning,ITI,Rvut4qHuFrVPHZPchKuPCYuIpDG2,Rvut4qHuFrVPHZPchKuPCYuIpDG2,,,,,,,,,,,,,,,,,,,2273.0,,,5bf8a27021a4e1000194fc76,15:37:39,26/03/2024
html-keyboard-response,12,21780,0.0-6.0-0.0,685.0,"<div style=""display: flex; flex-direction: column; align-items: center; margin-top: -40px;""><img src=""images/demo_images/pattern_1.png"" style=""width: 234px; height: 230px; margin-top: -50px;""><div style=""display: flex; justify-content: space-between; margin-top: 33px;""><img src=""images/demo_images/choice_trial_1.png"" style=""width: 408px; height: 417px; margin-right: 200px;""><img src=""images/demo_images/choice_trial_2.png"" style=""width: 408px; height: 417px;""></div></div>",f,delaylearn,learning,trial,Rvut4qHuFrVPHZPchKuPCYuIpDG2,Rvut4qHuFrVPHZPchKuPCYuIpDG2,5.0,images/demo_images/choice_trial_1.png,images/demo_images/choice_trial_2.png,images/demo_images/pattern_1.png,j,f,3000.0,1.0,2.0,20.0,0.0,3.0,1.0,0.0,1.0,20.0,,,,,,5bf8a27021a4e1000194fc76,15:37:39,26/03/2024
html-keyboard-response,13,22784,0.0-6.0-1.0,,"<div style=""display: flex; flex-direction: column; align-items: center; margin-top: -40px;""><img src=""images/demo_images/pattern_1.png"" style=""width: 234px; height: 230px; margin-top: -50px;""><div style=""display: flex; justify-content: space-between; margin-top: 33px;""><img src=""images/demo_images/choice_trial_1.png"" style=""width: 408px; height: 417px; margin-right: 608px;""></div></div>",,delaylearn,learning,display_response,Rvut4qHuFrVPHZPchKuPCYuIpDG2,Rvut4qHuFrVPHZPchKuPCYuIpDG2,,,,,,,,,,,,,,,,,chosen stimuli: images/demo_images/choice_trial_1.png,,,,,5bf8a27021a4e1000194fc76,15:37:39,26/03/2024
html-keyboard-response,14,25791,0.0-6.0-2.0,,,,delaylearn,learning,feedback_duration_window,Rvut4qHuFrVPHZPchKuPCYuIpDG2,Rvut4qHuFrVPHZPchKuPCYuIpDG2,,,,,,,,,,,,,,,,,,3000.0,,,,5bf8a27021a4e1000194fc76,15:37:39,26/03/2024
html-keyboard-response,15,27298,0.0-6.0-3.0,,<div style='margin:auto;width: auto; font-size: 150%'><span style='font-weight: bold; font-size: 100px; color: red;'>0 points!</span><br><br></div>,,delaylearn,learning,feedback_image_window,Rvut4qHuFrVPHZPchKuPCYuIpDG2,Rvut4qHuFrVPHZPchKuPCYuIpDG2,,,,,,,,,,,,,,,,,,,,,,5bf8a27021a4e1000194fc76,15:37:39,26/03/2024
html-keyboard-response,16,28989,0.0-7.0,,"<div style=""font-size:100px;"">+</div>",,delaylearn,learning,ITI,Rvut4qHuFrVPHZPchKuPCYuIpDG2,Rvut4qHuFrVPHZPchKuPCYuIpDG2,,,,,,,,,,,,,,,,,,,1688.0,,,5bf8a27021a4e1000194fc76,15:37:39,26/03/2024
html-keyboard-response,17,30126,0.0-8.0-0.0,1135.0,"<div style=""display: flex; flex-direction: column; align-items: center; margin-top: -40px;""><img src=""images/demo_images/pattern_1.png"" style=""width: 234px; height: 230px; margin-top: -50px;""><div style=""display: flex; justify-content: space-between; margin-top: 33px;""><img src=""images/demo_images/choice_trial_1.png"" style=""width: 408px; height: 417px; margin-right: 200px;""><img src=""images/demo_images/choice_trial_2.png"" style=""width: 408px; height: 417px;""></div></div>",f,delaylearn,learning,trial,Rvut4qHuFrVPHZPchKuPCYuIpDG2,Rvut4qHuFrVPHZPchKuPCYuIpDG2,5.0,images/demo_images/choice_trial_1.png,images/demo_images/choice_trial_2.png,images/demo_images/pattern_1.png,f,f,3000.0,1.0,2.0,20.0,0.0,4.0,1.0,1.0,1.0,30.0,,,,,,5bf8a27021a4e1000194fc76,15:37:39,26/03/2024
html-keyboard-response,18,31132,0.0-8.0-1.0,,"<div style=""display: flex; flex-direction: column; align-items: center; margin-top: -40px;""><img src=""images/demo_images/pattern_1.png"" style=""width: 234px; height: 230px; margin-top: -50px;""><div style=""display: flex; justify-content: space-between; margin-top: 33px;""><img src=""images/demo_images/choice_trial_1.png"" style=""width: 408px; height: 417px; margin-right: 608px;""></div></div>",,delaylearn,learning,display_response,Rvut4qHuFrVPHZPchKuPCYuIpDG2,Rvut4qHuFrVPHZPchKuPCYuIpDG2,,,,,,,,,,,,,,,,,chosen stimuli: images/demo_images/choice_trial_1.png,,,,,5bf8a27021a4e1000194fc76,15:37:39,26/03/2024
html-keyboard-response,19,34137,0.0-8.0-2.0,,,,delaylearn,learning,feedback_duration_window,Rvut4qHuFrVPHZPchKuPCYuIpDG2,Rvut4qHuFrVPHZPchKuPCYuIpDG2,,,,,,,,,,,,,,,,,,3000.0,,,,5bf8a27021a4e1000194fc76,15:37:39,26/03/2024
html-keyboard-response,20,35638,0.0-8.0-3.0,,<div style='margin:auto;width: auto; font-size: 150%'><span style='font-weight: bold; font-size: 100px; color: green;'>+10 points!</span><br><br></div>,,delaylearn,learning,feedback_image_window,Rvut4qHuFrVPHZPchKuPCYuIpDG2,Rvut4qHuFrVPHZPchKuPCYuIpDG2,,,,,,,,,,,,,,,,,,,,,,5bf8a27021a4e1000194fc76,15:37:39,26/03/2024
html-keyboard-response,21,36141,0.0-9.0-0.0,,,,,,mood_trial_fixation,Rvut4qHuFrVPHZPchKuPCYuIpDG2,,,,,,,,,,,,,,,,,,,,,,,5bf8a27021a4e1000194fc76,15:37:39,26/03/2024
lmdlab-html-vas-response,22,42674,0.0-9.0-1.0,5528.0,How happy are you right now?,0.43703703703703706,delaylearn,learning,mood_trial,Rvut4qHuFrVPHZPchKuPCYuIpDG2,Rvut4qHuFrVPHZPchKuPCYuIpDG2,,,,,,,,,,,,,,,,,,,,"['Very unhappy', 'Very happy']",,5bf8a27021a4e1000194fc76,15:37:39,26/03/2024
html-keyboard-response,23,44962,0.0-10.0,,"<div style=""font-size:100px;"">+</div>",,delaylearn,learning,ITI,Rvut4qHuFrVPHZPchKuPCYuIpDG2,Rvut4qHuFrVPHZPchKuPCYuIpDG2,,,,,,,,,,,,,,,,,,,2282.0,,,5bf8a27021a4e1000194fc76,15:37:39,26/03/2024
html-keyboard-response,24,45917,0.0-11.0-0.0,952.0,"<div style=""display: flex; flex-direction: column; align-items: center; margin-top: -40px;""><img src=""images/demo_images/pattern_1.png"" style=""width: 234px; height: 230px; margin-top: -50px;""><div style=""display: flex; justify-content: space-between; margin-top: 33px;""><img src=""images/demo_images/choice_trial_2.png"" style=""width: 408px; height: 417px; margin-right: 200px;""><img src=""images/demo_images/choice_trial_1.png"" style=""width: 408px; height: 417px;""></div></div>",j,delaylearn,learning,trial,Rvut4qHuFrVPHZPchKuPCYuIpDG2,Rvut4qHuFrVPHZPchKuPCYuIpDG2,5.0,images/demo_images/choice_trial_2.png,images/demo_images/choice_trial_1.png,images/demo_images/pattern_1.png,j,j,3000.0,2.0,1.0,20.0,1.0,5.0,1.0,1.0,1.0,40.0,,,,,,5bf8a27021a4e1000194fc76,15:37:39,26/03/2024
html-keyboard-response,25,46923,0.0-11.0-1.0,,"<div style=""display: flex; flex-direction: column; align-items: center; margin-top: -40px;""><img src=""images/demo_images/pattern_1.png"" style=""width: 234px; height: 230px; margin-top: -50px;""><div style=""display: flex; justify-content: space-between; margin-top: 33px;""><img src=""images/demo_images/choice_trial_1.png"" style=""width: 408px; height: 417px; margin-left:608px;""></div></div>",,delaylearn,learning,display_response,Rvut4qHuFrVPHZPchKuPCYuIpDG2,Rvut4qHuFrVPHZPchKuPCYuIpDG2,,,,,,,,,,,,,,,,,chosen stimuli: images/demo_images/choice_trial_1.png,,,,,5bf8a27021a4e1000194fc76,15:37:39,26/03/2024
html-keyboard-response,26,49927,0.0-11.0-2.0,,,,delaylearn,learning,feedback_duration_window,Rvut4qHuFrVPHZPchKuPCYuIpDG2,Rvut4qHuFrVPHZPchKuPCYuIpDG2,,,,,,,,,,,,,,,,,,3000.0,,,,5bf8a27021a4e1000194fc76,15:37:39,26/03/2024
html-keyboard-response,27,51429,0.0-11.0-3.0,,<div style='margin:auto;width: auto; font-size: 150%'><span style='font-weight: bold; font-size: 100px; color: green;'>+10 points!</span><br><br></div>,,delaylearn,learning,feedback_image_window,Rvut4qHuFrVPHZPchKuPCYuIpDG2,Rvut4qHuFrVPHZPchKuPCYuIpDG2,,,,,,,,,,,,,,,,,,,,,,5bf8a27021a4e1000194fc76,15:37:39,26/03/2024
html-keyboard-response,28,53088,0.0-12.0,,"<div style=""font-size:100px;"">+</div>",,delaylearn,learning,ITI,Rvut4qHuFrVPHZPchKuPCYuIpDG2,Rvut4qHuFrVPHZPchKuPCYuIpDG2,,,,,,,,,,,,,,,,,,,1651.0,,,5bf8a27021a4e1000194fc76,15:37:39,26/03/2024
html-keyboard-response,29,53819,0.0-13.0-0.0,727.0,"<div style=""display: flex; flex-direction: column; align-items: center; margin-top: -40px;""><img src=""images/demo_images/pattern_1.png"" style=""width: 234px; height: 230px; margin-top: -50px;""><div style=""display: flex; justify-content: space-between; margin-top: 33px;""><img src=""images/demo_images/choice_trial_1.png"" style=""width: 408px; height: 417px; margin-right: 200px;""><img src=""images/demo_images/choice_trial_2.png"" style=""width: 408px; height: 417px;""></div></div>",f,delaylearn,learning,trial,Rvut4qHuFrVPHZPchKuPCYuIpDG2,Rvut4qHuFrVPHZPchKuPCYuIpDG2,5.0,images/demo_images/choice_trial_1.png,images/demo_images/choice_trial_2.png,images/demo_images/pattern_1.png,f,f,3000.0,1.0,2.0,20.0,0.0,6.0,1.0,1.0,1.0,50.0,,,,,,5bf8a27021a4e1000194fc76,15:37:39,26/03/2024
html-keyboard-response,30,54827,0.0-13.0-1.0,,"<div style=""display: flex; flex-direction: column; align-items: center; margin-top: -40px;""><img src=""images/demo_images/pattern_1.png"" style=""width: 234px; height: 230px; margin-top: -50px;""><div style=""display: flex; justify-content: space-between; margin-top: 33px;""><img src=""images/demo_images/choice_trial_1.png"" style=""width: 408px; height: 417px; margin-right: 608px;""></div></div>",,delaylearn,learning,display_response,Rvut4qHuFrVPHZPchKuPCYuIpDG2,Rvut4qHuFrVPHZPchKuPCYuIpDG2,,,,,,,,,,,,,,,,,chosen stimuli: images/demo_images/choice_trial_1.png,,,,,5bf8a27021a4e1000194fc76,15:37:39,26/03/2024
html-keyboard-response,31,57833,0.0-13.0-2.0,,,,delaylearn,learning,feedback_duration_window,Rvut4qHuFrVPHZPchKuPCYuIpDG2,Rvut4qHuFrVPHZPchKuPCYuIpDG2,,,,,,,,,,,,,,,,,,3000.0,,,,5bf8a27021a4e1000194fc76,15:37:39,26/03/2024
html-keyboard-response,32,59335,0.0-13.0-3.0,,<div style='margin:auto;width: auto; font-size: 150%'><span style='font-weight: bold; font-size: 100px; color: green;'>+10 points!</span><br><br></div>,,delaylearn,learning,feedback_image_window,Rvut4qHuFrVPHZPchKuPCYuIpDG2,Rvut4qHuFrVPHZPchKuPCYuIpDG2,,,,,,,,,,,,,,,,,,,,,,5bf8a27021a4e1000194fc76,15:37:39,26/03/2024
html-keyboard-response,33,61421,0.0-14.0,,"<div style=""font-size:100px;"">+</div>",,delaylearn,learning,ITI,Rvut4qHuFrVPHZPchKuPCYuIpDG2,Rvut4qHuFrVPHZPchKuPCYuIpDG2,,,,,,,,,,,,,,,,,,,2079.0,,,5bf8a27021a4e1000194fc76,15:37:39,26/03/2024
html-keyboard-response,34,62391,0.0-15.0-0.0,966.0,"<div style=""display: flex; flex-direction: column; align-items: center; margin-top: -40px;""><img src=""images/demo_images/pattern_1.png"" style=""width: 234px; height: 230px; margin-top: -50px;""><div style=""display: flex; justify-content: space-between; margin-top: 33px;""><img src=""images/demo_images/choice_trial_2.png"" style=""width: 408px; height: 417px; margin-right: 200px;""><img src=""images/demo_images/choice_trial_1.png"" style=""width: 408px; height: 417px;""></div></div>",j,delaylearn,learning,trial,Rvut4qHuFrVPHZPchKuPCYuIpDG2,Rvut4qHuFrVPHZPchKuPCYuIpDG2,5.0,images/demo_images/choice_trial_2.png,images/demo_images/choice_trial_1.png,images/demo_images/pattern_1.png,j,j,3000.0,2.0,1.0,20.0,1.0,7.0,1.0,1.0,1.0,60.0,,,,,,5bf8a27021a4e1000194fc76,15:37:39,26/03/2024
html-keyboard-response,35,63431,0.0-15.0-1.0,,"<div style=""display: flex; flex-direction: column; align-items: center; margin-top: -40px;""><img src=""images/demo_images/pattern_1.png"" style=""width: 234px; height: 230px; margin-top: -50px;""><div style=""display: flex; justify-content: space-between; margin-top: 33px;""><img src=""images/demo_images/choice_trial_1.png"" style=""width: 408px; height: 417px; margin-left:608px;""></div></div>",,delaylearn,learning,display_response,Rvut4qHuFrVPHZPchKuPCYuIpDG2,Rvut4qHuFrVPHZPchKuPCYuIpDG2,,,,,,,,,,,,,,,,,chosen stimuli: images/demo_images/choice_trial_1.png,,,,,5bf8a27021a4e1000194fc76,15:37:39,26/03/2024
html-keyboard-response,36,66432,0.0-15.0-2.0,,,,delaylearn,learning,feedback_duration_window,Rvut4qHuFrVPHZPchKuPCYuIpDG2,Rvut4qHuFrVPHZPchKuPCYuIpDG2,,,,,,,,,,,,,,,,,,3000.0,,,,5bf8a27021a4e1000194fc76,15:37:39,26/03/2024
html-keyboard-response,37,67936,0.0-15.0-3.0,,<div style='margin:auto;width: auto; font-size: 150%'><span style='font-weight: bold; font-size: 100px; color: green;'>+10 points!</span><br><br></div>,,delaylearn,learning,feedback_image_window,Rvut4qHuFrVPHZPchKuPCYuIpDG2,Rvut4qHuFrVPHZPchKuPCYuIpDG2,,,,,,,,,,,,,,,,,,,,,,5bf8a27021a4e1000194fc76,15:37:39,26/03/2024
html-keyboard-response,38,70182,0.0-16.0,,"<div style=""font-size:100px;"">+</div>",,delaylearn,learning,ITI,Rvut4qHuFrVPHZPchKuPCYuIpDG2,Rvut4qHuFrVPHZPchKuPCYuIpDG2,,,,,,,,,,,,,,,,,,,2242.0,,,5bf8a27021a4e1000194fc76,15:37:39,26/03/2024
html-keyboard-response,39,70882,0.0-17.0-0.0,698.0,"<div style=""display: flex; flex-direction: column; align-items: center; margin-top: -40px;""><img src=""images/demo_images/pattern_1.png"" style=""width: 234px; height: 230px; margin-top: -50px;""><div style=""display: flex; justify-content: space-between; margin-top: 33px;""><img src=""images/demo_images/choice_trial_1.png"" style=""width: 408px; height: 417px; margin-right: 200px;""><img src=""images/demo_images/choice_trial_2.png"" style=""width: 408px; height: 417px;""></div></div>",f,delaylearn,learning,trial,Rvut4qHuFrVPHZPchKuPCYuIpDG2,Rvut4qHuFrVPHZPchKuPCYuIpDG2,5.0,images/demo_images/choice_trial_1.png,images/demo_images/choice_trial_2.png,images/demo_images/pattern_1.png,f,f,3000.0,1.0,2.0,20.0,0.0,8.0,1.0,1.0,1.0,70.0,,,,,,5bf8a27021a4e1000194fc76,15:37:39,26/03/2024
html-keyboard-response,40,71885,0.0-17.0-1.0,,"<div style=""display: flex; flex-direction: column; align-items: center; margin-top: -40px;""><img src=""images/demo_images/pattern_1.png"" style=""width: 234px; height: 230px; margin-top: -50px;""><div style=""display: flex; justify-content: space-between; margin-top: 33px;""><img src=""images/demo_images/choice_trial_1.png"" style=""width: 408px; height: 417px; margin-right: 608px;""></div></div>",,delaylearn,learning,display_response,Rvut4qHuFrVPHZPchKuPCYuIpDG2,Rvut4qHuFrVPHZPchKuPCYuIpDG2,,,,,,,,,,,,,,,,,chosen stimuli: images/demo_images/choice_trial_1.png,,,,,5bf8a27021a4e1000194fc76,15:37:39,26/03/2024
html-keyboard-response,41,74891,0.0-17.0-2.0,,,,delaylearn,learning,feedback_duration_window,Rvut4qHuFrVPHZPchKuPCYuIpDG2,Rvut4qHuFrVPHZPchKuPCYuIpDG2,,,,,,,,,,,,,,,,,,3000.0,,,,5bf8a27021a4e1000194fc76,15:37:39,26/03/2024
html-keyboard-response,42,76398,0.0-17.0-3.0,,<div style='margin:auto;width: auto; font-size: 150%'><span style='font-weight: bold; font-size: 100px; color: green;'>+10 points!</span><br><br></div>,,delaylearn,learning,feedback_image_window,Rvut4qHuFrVPHZPchKuPCYuIpDG2,Rvut4qHuFrVPHZPchKuPCYuIpDG2,,,,,,,,,,,,,,,,,,,,,,5bf8a27021a4e1000194fc76,15:37:39,26/03/2024
html-button-response,43,79780,0.0-18.0,3381.0,"
  <div style=""display: flex; align-items: center; justify-content: center; height: 80vh;"">
  <div>
          <img src=""images/inst_demo_finish.png"" style=""width: 80vw; height:auto;"">
          <br><br>
      </div>
      <br><br>
  </div>",0,,,,Rvut4qHuFrVPHZPchKuPCYuIpDG2,,,,,,,,,,,,,,,,,,,,,,,5bf8a27021a4e1000194fc76,15:37:39,26/03/2024
html-keyboard-response,44,84882,0.0-19.0,5099.0,"
  <div style=""display: flex; align-items: center; justify-content: center; height: 80vh;"">
  <div>
          <img src=""images/inst_6.png"" style=""width: 80vw; height:auto;"">
          <br><br>
      </div>
      <br><br>
  </div>",f,,,,Rvut4qHuFrVPHZPchKuPCYuIpDG2,,,,,,,,,,,,,,,,,,,,,,,5bf8a27021a4e1000194fc76,15:37:39,26/03/2024
html-keyboard-response,45,87888,0.0-20.0,,"<div style=""font-size:100px;"">+</div>",,delaylearn,learning,pre_fixation,Rvut4qHuFrVPHZPchKuPCYuIpDG2,,,,,,,,,,,,,,,,,,,,,,,5bf8a27021a4e1000194fc76,15:37:39,26/03/2024
html-keyboard-response,46,89510,0.0-21.0,,"<div style=""font-size:100px;"">+</div>",,delaylearn,learning,ITI,Rvut4qHuFrVPHZPchKuPCYuIpDG2,Rvut4qHuFrVPHZPchKuPCYuIpDG2,,,,,,,,,,,,,,,,,,,1601.0,,,5bf8a27021a4e1000194fc76,15:37:39,26/03/2024
html-keyboard-response,47,90752,0.0-22.0-0.0,1240.0,"<div style=""display: flex; flex-direction: column; align-items: center; margin-top: -40px;""><img src=""images/pattern_3.png"" style=""width: 234px; height: 230px; margin-top: -50px;""><div style=""display: flex; justify-content: space-between; margin-top: 33px;""><img src=""images/choice_trial_16.png"" style=""width: 408px; height: 417px; margin-right: 200px;""><img src=""images/choice_trial_2.png"" style=""width: 408px; height: 417px;""></div></div>",f,delaylearn,learning,trial,Rvut4qHuFrVPHZPchKuPCYuIpDG2,Rvut4qHuFrVPHZPchKuPCYuIpDG2,5.0,images/choice_trial_16.png,images/choice_trial_2.png,images/pattern_3.png,f,f,7000.0,16.0,2.0,2.0,0.0,9.0,1.0,1.0,16.0,80.0,,,,,,5bf8a27021a4e1000194fc76,15:37:39,26/03/2024
html-keyboard-response,48,91759,0.0-22.0-1.0,,"<div style=""display: flex; flex-direction: column; align-items: center; margin-top: -40px;""><img src=""images/pattern_3.png"" style=""width: 234px; height: 230px; margin-top: -50px;""><div style=""display: flex; justify-content: space-between; margin-top: 33px;""><img src=""images/choice_trial_16.png"" style=""width: 408px; height: 417px; margin-right: 608px;""></div></div>",,delaylearn,learning,display_response,Rvut4qHuFrVPHZPchKuPCYuIpDG2,Rvut4qHuFrVPHZPchKuPCYuIpDG2,,,,,,,,,,,,,,,,,chosen stimuli: images/choice_trial_16.png,,,,,5bf8a27021a4e1000194fc76,15:37:39,26/03/2024
html-keyboard-response,49,98764,0.0-22.0-2.0,,,,delaylearn,learning,feedback_duration_window,Rvut4qHuFrVPHZPchKuPCYuIpDG2,Rvut4qHuFrVPHZPchKuPCYuIpDG2,,,,,,,,,,,,,,,,,,7000.0,,,,5bf8a27021a4e1000194fc76,15:37:39,26/03/2024
html-keyboard-response,50,100271,0.0-22.0-3.0,,<div style='margin:auto;width: auto; font-size: 150%'><span style='font-weight: bold; font-size: 100px; color: green;'>+10 points!</span><br><br></div>,,delaylearn,learning,feedback_image_window,Rvut4qHuFrVPHZPchKuPCYuIpDG2,Rvut4qHuFrVPHZPchKuPCYuIpDG2,,,,,,,,,,,,,,,,,,,,,,5bf8a27021a4e1000194fc76,15:37:39,26/03/2024
html-keyboard-response,51,102084,0.0-23.0,,"<div style=""font-size:100px;"">+</div>",,delaylearn,learning,ITI,Rvut4qHuFrVPHZPchKuPCYuIpDG2,Rvut4qHuFrVPHZPchKuPCYuIpDG2,,,,,,,,,,,,,,,,,,,1811.0,,,5bf8a27021a4e1000194fc76,15:37:39,26/03/2024
html-keyboard-response,52,103509,0.0-24.0-0.0,1421.0,"<div style=""display: flex; flex-direction: column; align-items: center; margin-top: -40px;""><img src=""images/pattern_7.png"" style=""width: 234px; height: 230px; margin-top: -50px;""><div style=""display: flex; justify-content: space-between; margin-top: 33px;""><img src=""images/choice_trial_10.png"" style=""width: 408px; height: 417px; margin-right: 200px;""><img src=""images/choice_trial_8.png"" style=""width: 408px; height: 417px;""></div></div>",j,delaylearn,learning,trial,Rvut4qHuFrVPHZPchKuPCYuIpDG2,Rvut4qHuFrVPHZPchKuPCYuIpDG2,5.0,images/choice_trial_10.png,images/choice_trial_8.png,images/pattern_7.png,j,j,750.0,10.0,8.0,6.0,1.0,10.0,1.0,1.0,8.0,90.0,,,,,,5bf8a27021a4e1000194fc76,15:37:39,26/03/2024
html-keyboard-response,53,104513,0.0-24.0-1.0,,"<div style=""display: flex; flex-direction: column; align-items: center; margin-top: -40px;""><img src=""images/pattern_7.png"" style=""width: 234px; height: 230px; margin-top: -50px;""><div style=""display: flex; justify-content: space-between; margin-top: 33px;""><img src=""images/choice_trial_8.png"" style=""width: 408px; height: 417px; margin-left:608px;""></div></div>",,delaylearn,learning,display_response,Rvut4qHuFrVPHZPchKuPCYuIpDG2,Rvut4qHuFrVPHZPchKuPCYuIpDG2,,,,,,,,,,,,,,,,,chosen stimuli: images/choice_trial_8.png,,,,,5bf8a27021a4e1000194fc76,15:37:39,26/03/2024
html-keyboard-response,54,105268,0.0-24.0-2.0,,,,delaylearn,learning,feedback_duration_window,Rvut4qHuFrVPHZPchKuPCYuIpDG2,Rvut4qHuFrVPHZPchKuPCYuIpDG2,,,,,,,,,,,,,,,,,,750.0,,,,5bf8a27021a4e1000194fc76,15:37:39,26/03/2024
html-keyboard-response,55,106775,0.0-24.0-3.0,,<div style='margin:auto;width: auto; font-size: 150%'><span style='font-weight: bold; font-size: 100px; color: green;'>+10 points!</span><br><br></div>,,delaylearn,learning,feedback_image_window,Rvut4qHuFrVPHZPchKuPCYuIpDG2,Rvut4qHuFrVPHZPchKuPCYuIpDG2,,,,,,,,,,,,,,,,,,,,,,5bf8a27021a4e1000194fc76,15:37:39,26/03/2024
html-keyboard-response,56,108553,0.0-25.0,,"<div style=""font-size:100px;"">+</div>",,delaylearn,learning,ITI,Rvut4qHuFrVPHZPchKuPCYuIpDG2,Rvut4qHuFrVPHZPchKuPCYuIpDG2,,,,,,,,,,,,,,,,,,,1776.0,,,5bf8a27021a4e1000194fc76,15:37:39,26/03/2024
html-keyboard-response,57,109912,0.0-26.0-0.0,1358.0,"<div style=""display: flex; flex-direction: column; align-items: center; margin-top: -40px;""><img src=""images/pattern_4.png"" style=""width: 234px; height: 230px; margin-top: -50px;""><div style=""display: flex; justify-content: space-between; margin-top: 33px;""><img src=""images/choice_trial_11.png"" style=""width: 408px; height: 417px; margin-right: 200px;""><img src=""images/choice_trial_4.png"" style=""width: 408px; height: 417px;""></div></div>",f,delaylearn,learning,trial,Rvut4qHuFrVPHZPchKuPCYuIpDG2,Rvut4qHuFrVPHZPchKuPCYuIpDG2,5.0,images/choice_trial_11.png,images/choice_trial_4.png,images/pattern_4.png,f,f,7000.0,11.0,4.0,3.0,0.0,11.0,1.0,1.0,11.0,100.0,,,,,,5bf8a27021a4e1000194fc76,15:37:39,26/03/2024
html-keyboard-response,58,110916,0.0-26.0-1.0,,"<div style=""display: flex; flex-direction: column; align-items: center; margin-top: -40px;""><img src=""images/pattern_4.png"" style=""width: 234px; height: 230px; margin-top: -50px;""><div style=""display: flex; justify-content: space-between; margin-top: 33px;""><img src=""images/choice_trial_11.png"" style=""width: 408px; height: 417px; margin-right: 608px;""></div></div>",,delaylearn,learning,display_response,Rvut4qHuFrVPHZPchKuPCYuIpDG2,Rvut4qHuFrVPHZPchKuPCYuIpDG2,,,,,,,,,,,,,,,,,chosen stimuli: images/choice_trial_11.png,,,,,5bf8a27021a4e1000194fc76,15:37:39,26/03/2024
html-keyboard-response,59,117924,0.0-26.0-2.0,,,,delaylearn,learning,feedback_duration_window,Rvut4qHuFrVPHZPchKuPCYuIpDG2,Rvut4qHuFrVPHZPchKuPCYuIpDG2,,,,,,,,,,,,,,,,,,7000.0,,,,5bf8a27021a4e1000194fc76,15:37:39,26/03/2024
html-keyboard-response,60,119430,0.0-26.0-3.0,,<div style='margin:auto;width: auto; font-size: 150%'><span style='font-weight: bold; font-size: 100px; color: green;'>+10 points!</span><br><br></div>,,delaylearn,learning,feedback_image_window,Rvut4qHuFrVPHZPchKuPCYuIpDG2,Rvut4qHuFrVPHZPchKuPCYuIpDG2,,,,,,,,,,,,,,,,,,,,,,5bf8a27021a4e1000194fc76,15:37:39,26/03/2024
html-keyboard-response,61,121127,0.0-27.0,,"<div style=""font-size:100px;"">+</div>",,delaylearn,learning,ITI,Rvut4qHuFrVPHZPchKuPCYuIpDG2,Rvut4qHuFrVPHZPchKuPCYuIpDG2,,,,,,,,,,,,,,,,,,,1694.0,,,5bf8a27021a4e1000194fc76,15:37:39,26/03/2024
html-keyboard-response,62,122889,0.0-28.0-0.0,1759.0,"<div style=""display: flex; flex-direction: column; align-items: center; margin-top: -40px;""><img src=""images/pattern_5.png"" style=""width: 234px; height: 230px; margin-top: -50px;""><div style=""display: flex; justify-content: space-between; margin-top: 33px;""><img src=""images/choice_trial_13.png"" style=""width: 408px; height: 417px; margin-right: 200px;""><img src=""images/choice_trial_7.png"" style=""width: 408px; height: 417px;""></div></div>",j,delaylearn,learning,trial,Rvut4qHuFrVPHZPchKuPCYuIpDG2,Rvut4qHuFrVPHZPchKuPCYuIpDG2,5.0,images/choice_trial_13.png,images/choice_trial_7.png,images/pattern_5.png,j,j,750.0,13.0,7.0,4.0,1.0,12.0,1.0,1.0,7.0,110.0,,,,,,5bf8a27021a4e1000194fc76,15:37:39,26/03/2024
html-keyboard-response,63,123896,0.0-28.0-1.0,,"<div style=""display: flex; flex-direction: column; align-items: center; margin-top: -40px;""><img src=""images/pattern_5.png"" style=""width: 234px; height: 230px; margin-top: -50px;""><div style=""display: flex; justify-content: space-between; margin-top: 33px;""><img src=""images/choice_trial_7.png"" style=""width: 408px; height: 417px; margin-left:608px;""></div></div>",,delaylearn,learning,display_response,Rvut4qHuFrVPHZPchKuPCYuIpDG2,Rvut4qHuFrVPHZPchKuPCYuIpDG2,,,,,,,,,,,,,,,,,chosen stimuli: images/choice_trial_7.png,,,,,5bf8a27021a4e1000194fc76,15:37:39,26/03/2024
html-keyboard-response,64,124652,0.0-28.0-2.0,,,,delaylearn,learning,feedback_duration_window,Rvut4qHuFrVPHZPchKuPCYuIpDG2,Rvut4qHuFrVPHZPchKuPCYuIpDG2,,,,,,,,,,,,,,,,,,750.0,,,,5bf8a27021a4e1000194fc76,15:37:39,26/03/2024
html-keyboard-response,65,126158,0.0-28.0-3.0,,<div style='margin:auto;width: auto; font-size: 150%'><span style='font-weight: bold; font-size: 100px; color: green;'>+10 points!</span><br><br></div>,,delaylearn,learning,feedback_image_window,Rvut4qHuFrVPHZPchKuPCYuIpDG2,Rvut4qHuFrVPHZPchKuPCYuIpDG2,,,,,,,,,,,,,,,,,,,,,,5bf8a27021a4e1000194fc76,15:37:39,26/03/2024
html-keyboard-response,66,128541,0.0-29.0,,"<div style=""font-size:100px;"">+</div>",,delaylearn,learning,ITI,Rvut4qHuFrVPHZPchKuPCYuIpDG2,Rvut4qHuFrVPHZPchKuPCYuIpDG2,,,,,,,,,,,,,,,,,,,2376.0,,,5bf8a27021a4e1000194fc76,15:37:39,26/03/2024
html-keyboard-response,67,130246,0.0-30.0-0.0,1702.0,"<div style=""display: flex; flex-direction: column; align-items: center; margin-top: -40px;""><img src=""images/pattern_6.png"" style=""width: 234px; height: 230px; margin-top: -50px;""><div style=""display: flex; justify-content: space-between; margin-top: 33px;""><img src=""images/choice_trial_14.png"" style=""width: 408px; height: 417px; margin-right: 200px;""><img src=""images/choice_trial_9.png"" style=""width: 408px; height: 417px;""></div></div>",j,delaylearn,learning,trial,Rvut4qHuFrVPHZPchKuPCYuIpDG2,Rvut4qHuFrVPHZPchKuPCYuIpDG2,5.0,images/choice_trial_14.png,images/choice_trial_9.png,images/pattern_6.png,j,f,750.0,14.0,9.0,5.0,0.0,13.0,0.0,1.0,9.0,120.0,,,,,,5bf8a27021a4e1000194fc76,15:37:39,26/03/2024
html-keyboard-response,68,131251,0.0-30.0-1.0,,"<div style=""display: flex; flex-direction: column; align-items: center; margin-top: -40px;""><img src=""images/pattern_6.png"" style=""width: 234px; height: 230px; margin-top: -50px;""><div style=""display: flex; justify-content: space-between; margin-top: 33px;""><img src=""images/choice_trial_9.png"" style=""width: 408px; height: 417px; margin-left:608px;""></div></div>",,delaylearn,learning,display_response,Rvut4qHuFrVPHZPchKuPCYuIpDG2,Rvut4qHuFrVPHZPchKuPCYuIpDG2,,,,,,,,,,,,,,,,,chosen stimuli: images/choice_trial_9.png,,,,,5bf8a27021a4e1000194fc76,15:37:39,26/03/2024
html-keyboard-response,69,132008,0.0-30.0-2.0,,,,delaylearn,learning,feedback_duration_window,Rvut4qHuFrVPHZPchKuPCYuIpDG2,Rvut4qHuFrVPHZPchKuPCYuIpDG2,,,,,,,,,,,,,,,,,,750.0,,,,5bf8a27021a4e1000194fc76,15:37:39,26/03/2024
html-keyboard-response,70,133515,0.0-30.0-3.0,,<div style='margin:auto;width: auto; font-size: 150%'><span style='font-weight: bold; font-size: 100px; color: green;'>+10 points!</span><br><br></div>,,delaylearn,learning,feedback_image_window,Rvut4qHuFrVPHZPchKuPCYuIpDG2,Rvut4qHuFrVPHZPchKuPCYuIpDG2,,,,,,,,,,,,,,,,,,,,,,5bf8a27021a4e1000194fc76,15:37:39,26/03/2024
html-keyboard-response,71,134020,0.0-31.0-0.0,,,,,,mood_trial_fixation,Rvut4qHuFrVPHZPchKuPCYuIpDG2,,,,,,,,,,,,,,,,,,,,,,,5bf8a27021a4e1000194fc76,15:37:39,26/03/2024
lmdlab-html-vas-response,72,138917,0.0-31.0-1.0,3884.0,How happy are you right now?,0.7314814814814815,delaylearn,learning,mood_trial,Rvut4qHuFrVPHZPchKuPCYuIpDG2,Rvut4qHuFrVPHZPchKuPCYuIpDG2,,,,,,,,,,,,,,,,,,,,"['Very unhappy', 'Very happy']",,5bf8a27021a4e1000194fc76,15:37:39,26/03/2024
html-keyboard-response,73,141077,0.0-32.0,,"<div style=""font-size:100px;"">+</div>",,delaylearn,learning,ITI,Rvut4qHuFrVPHZPchKuPCYuIpDG2,Rvut4qHuFrVPHZPchKuPCYuIpDG2,,,,,,,,,,,,,,,,,,,2152.0,,,5bf8a27021a4e1000194fc76,15:37:39,26/03/2024
html-keyboard-response,74,142019,0.0-33.0-0.0,938.0,"<div style=""display: flex; flex-direction: column; align-items: center; margin-top: -40px;""><img src=""images/pattern_1.png"" style=""width: 234px; height: 230px; margin-top: -50px;""><div style=""display: flex; justify-content: space-between; margin-top: 33px;""><img src=""images/choice_trial_15.png"" style=""width: 408px; height: 417px; margin-right: 200px;""><img src=""images/choice_trial_6.png"" style=""width: 408px; height: 417px;""></div></div>",j,delaylearn,learning,trial,Rvut4qHuFrVPHZPchKuPCYuIpDG2,Rvut4qHuFrVPHZPchKuPCYuIpDG2,5.0,images/choice_trial_15.png,images/choice_trial_6.png,images/pattern_1.png,j,j,7000.0,15.0,6.0,1.0,1.0,14.0,1.0,1.0,6.0,130.0,,,,,,5bf8a27021a4e1000194fc76,15:37:39,26/03/2024
html-keyboard-response,75,143028,0.0-33.0-1.0,,"<div style=""display: flex; flex-direction: column; align-items: center; margin-top: -40px;""><img src=""images/pattern_1.png"" style=""width: 234px; height: 230px; margin-top: -50px;""><div style=""display: flex; justify-content: space-between; margin-top: 33px;""><img src=""images/choice_trial_6.png"" style=""width: 408px; height: 417px; margin-left:608px;""></div></div>",,delaylearn,learning,display_response,Rvut4qHuFrVPHZPchKuPCYuIpDG2,Rvut4qHuFrVPHZPchKuPCYuIpDG2,,,,,,,,,,,,,,,,,chosen stimuli: images/choice_trial_6.png,,,,,5bf8a27021a4e1000194fc76,15:37:39,26/03/2024
html-keyboard-response,76,150034,0.0-33.0-2.0,,,,delaylearn,learning,feedback_duration_window,Rvut4qHuFrVPHZPchKuPCYuIpDG2,Rvut4qHuFrVPHZPchKuPCYuIpDG2,,,,,,,,,,,,,,,,,,7000.0,,,,5bf8a27021a4e1000194fc76,15:37:39,26/03/2024
html-keyboard-response,77,151538,0.0-33.0-3.0,,<div style='margin:auto;width: auto; font-size: 150%'><span style='font-weight: bold; font-size: 100px; color: green;'>+10 points!</span><br><br></div>,,delaylearn,learning,feedback_image_window,Rvut4qHuFrVPHZPchKuPCYuIpDG2,Rvut4qHuFrVPHZPchKuPCYuIpDG2,,,,,,,,,,,,,,,,,,,,,,5bf8a27021a4e1000194fc76,15:37:39,26/03/2024
html-keyboard-response,78,153664,0.0-34.0,,"<div style=""font-size:100px;"">+</div>",,delaylearn,learning,ITI,Rvut4qHuFrVPHZPchKuPCYuIpDG2,Rvut4qHuFrVPHZPchKuPCYuIpDG2,,,,,,,,,,,,,,,,,,,2123.0,,,5bf8a27021a4e1000194fc76,15:37:39,26/03/2024
html-keyboard-response,79,154691,0.0-35.0-0.0,1025.0,"<div style=""display: flex; flex-direction: column; align-items: center; margin-top: -40px;""><img src=""images/pattern_3.png"" style=""width: 234px; height: 230px; margin-top: -50px;""><div style=""display: flex; justify-content: space-between; margin-top: 33px;""><img src=""images/choice_trial_2.png"" style=""width: 408px; height: 417px; margin-right: 200px;""><img src=""images/choice_trial_16.png"" style=""width: 408px; height: 417px;""></div></div>",j,delaylearn,learning,trial,Rvut4qHuFrVPHZPchKuPCYuIpDG2,Rvut4qHuFrVPHZPchKuPCYuIpDG2,5.0,images/choice_trial_2.png,images/choice_trial_16.png,images/pattern_3.png,f,j,7000.0,2.0,16.0,2.0,1.0,15.0,1.0,0.0,16.0,130.0,,,,,,5bf8a27021a4e1000194fc76,15:37:39,26/03/2024
html-keyboard-response,80,155699,0.0-35.0-1.0,,"<div style=""display: flex; flex-direction: column; align-items: center; margin-top: -40px;""><img src=""images/pattern_3.png"" style=""width: 234px; height: 230px; margin-top: -50px;""><div style=""display: flex; justify-content: space-between; margin-top: 33px;""><img src=""images/choice_trial_16.png"" style=""width: 408px; height: 417px; margin-left:608px;""></div></div>",,delaylearn,learning,display_response,Rvut4qHuFrVPHZPchKuPCYuIpDG2,Rvut4qHuFrVPHZPchKuPCYuIpDG2,,,,,,,,,,,,,,,,,chosen stimuli: images/choice_trial_16.png,,,,,5bf8a27021a4e1000194fc76,15:37:39,26/03/2024
html-keyboard-response,81,162705,0.0-35.0-2.0,,,,delaylearn,learning,feedback_duration_window,Rvut4qHuFrVPHZPchKuPCYuIpDG2,Rvut4qHuFrVPHZPchKuPCYuIpDG2,,,,,,,,,,,,,,,,,,7000.0,,,,5bf8a27021a4e1000194fc76,15:37:39,26/03/2024
html-keyboard-response,82,164223,0.0-35.0-3.0,,<div style='margin:auto;width: auto; font-size: 150%'><span style='font-weight: bold; font-size: 100px; color: red;'>0 points!</span><br><br></div>,,delaylearn,learning,feedback_image_window,Rvut4qHuFrVPHZPchKuPCYuIpDG2,Rvut4qHuFrVPHZPchKuPCYuIpDG2,,,,,,,,,,,,,,,,,,,,,,5bf8a27021a4e1000194fc76,15:37:39,26/03/2024
html-keyboard-response,83,166273,0.0-36.0,,"<div style=""font-size:100px;"">+</div>",,delaylearn,learning,ITI,Rvut4qHuFrVPHZPchKuPCYuIpDG2,Rvut4qHuFrVPHZPchKuPCYuIpDG2,,,,,,,,,,,,,,,,,,,2043.0,,,5bf8a27021a4e1000194fc76,15:37:39,26/03/2024
html-keyboard-response,84,167463,0.0-37.0-0.0,1188.0,"<div style=""display: flex; flex-direction: column; align-items: center; margin-top: -40px;""><img src=""images/pattern_5.png"" style=""width: 234px; height: 230px; margin-top: -50px;""><div style=""display: flex; justify-content: space-between; margin-top: 33px;""><img src=""images/choice_trial_7.png"" style=""width: 408px; height: 417px; margin-right: 200px;""><img src=""images/choice_trial_13.png"" style=""width: 408px; height: 417px;""></div></div>",f,delaylearn,learning,trial,Rvut4qHuFrVPHZPchKuPCYuIpDG2,Rvut4qHuFrVPHZPchKuPCYuIpDG2,5.0,images/choice_trial_7.png,images/choice_trial_13.png,images/pattern_5.png,f,f,750.0,7.0,13.0,4.0,0.0,16.0,1.0,1.0,7.0,140.0,,,,,,5bf8a27021a4e1000194fc76,15:37:39,26/03/2024
html-keyboard-response,85,168471,0.0-37.0-1.0,,"<div style=""display: flex; flex-direction: column; align-items: center; margin-top: -40px;""><img src=""images/pattern_5.png"" style=""width: 234px; height: 230px; margin-top: -50px;""><div style=""display: flex; justify-content: space-between; margin-top: 33px;""><img src=""images/choice_trial_7.png"" style=""width: 408px; height: 417px; margin-right: 608px;""></div></div>",,delaylearn,learning,display_response,Rvut4qHuFrVPHZPchKuPCYuIpDG2,Rvut4qHuFrVPHZPchKuPCYuIpDG2,,,,,,,,,,,,,,,,,chosen stimuli: images/choice_trial_7.png,,,,,5bf8a27021a4e1000194fc76,15:37:39,26/03/2024
html-keyboard-response,86,169223,0.0-37.0-2.0,,,,delaylearn,learning,feedback_duration_window,Rvut4qHuFrVPHZPchKuPCYuIpDG2,Rvut4qHuFrVPHZPchKuPCYuIpDG2,,,,,,,,,,,,,,,,,,750.0,,,,5bf8a27021a4e1000194fc76,15:37:39,26/03/2024
html-keyboard-response,87,170729,0.0-37.0-3.0,,<div style='margin:auto;width: auto; font-size: 150%'><span style='font-weight: bold; font-size: 100px; color: green;'>+10 points!</span><br><br></div>,,delaylearn,learning,feedback_image_window,Rvut4qHuFrVPHZPchKuPCYuIpDG2,Rvut4qHuFrVPHZPchKuPCYuIpDG2,,,,,,,,,,,,,,,,,,,,,,5bf8a27021a4e1000194fc76,15:37:39,26/03/2024
html-keyboard-response,88,171235,0.0-38.0-0.0,,,,,,mood_trial_fixation,Rvut4qHuFrVPHZPchKuPCYuIpDG2,,,,,,,,,,,,,,,,,,,,,,,5bf8a27021a4e1000194fc76,15:37:39,26/03/2024
lmdlab-html-vas-response,89,175120,0.0-38.0-1.0,2877.0,How happy are you right now?,0.5388888888888889,delaylearn,learning,mood_trial,Rvut4qHuFrVPHZPchKuPCYuIpDG2,Rvut4qHuFrVPHZPchKuPCYuIpDG2,,,,,,,,,,,,,,,,,,,,"['Very unhappy', 'Very happy']",,5bf8a27021a4e1000194fc76,15:37:39,26/03/2024
html-keyboard-response,90,177422,0.0-39.0,,"<div style=""font-size:100px;"">+</div>",,delaylearn,learning,ITI,Rvut4qHuFrVPHZPchKuPCYuIpDG2,Rvut4qHuFrVPHZPchKuPCYuIpDG2,,,,,,,,,,,,,,,,,,,2294.0,,,5bf8a27021a4e1000194fc76,15:37:39,26/03/2024
html-keyboard-response,91,178806,0.0-40.0-0.0,1380.0,"<div style=""display: flex; flex-direction: column; align-items: center; margin-top: -40px;""><img src=""images/pattern_6.png"" style=""width: 234px; height: 230px; margin-top: -50px;""><div style=""display: flex; justify-content: space-between; margin-top: 33px;""><img src=""images/choice_trial_14.png"" style=""width: 408px; height: 417px; margin-right: 200px;""><img src=""images/choice_trial_9.png"" style=""width: 408px; height: 417px;""></div></div>",j,delaylearn,learning,trial,Rvut4qHuFrVPHZPchKuPCYuIpDG2,Rvut4qHuFrVPHZPchKuPCYuIpDG2,5.0,images/choice_trial_14.png,images/choice_trial_9.png,images/pattern_6.png,f,f,750.0,14.0,9.0,5.0,0.0,17.0,0.0,0.0,9.0,140.0,,,,,,5bf8a27021a4e1000194fc76,15:37:39,26/03/2024
html-keyboard-response,92,179811,0.0-40.0-1.0,,"<div style=""display: flex; flex-direction: column; align-items: center; margin-top: -40px;""><img src=""images/pattern_6.png"" style=""width: 234px; height: 230px; margin-top: -50px;""><div style=""display: flex; justify-content: space-between; margin-top: 33px;""><img src=""images/choice_trial_9.png"" style=""width: 408px; height: 417px; margin-left:608px;""></div></div>",,delaylearn,learning,display_response,Rvut4qHuFrVPHZPchKuPCYuIpDG2,Rvut4qHuFrVPHZPchKuPCYuIpDG2,,,,,,,,,,,,,,,,,chosen stimuli: images/choice_trial_9.png,,,,,5bf8a27021a4e1000194fc76,15:37:39,26/03/2024
html-keyboard-response,93,180565,0.0-40.0-2.0,,,,delaylearn,learning,feedback_duration_window,Rvut4qHuFrVPHZPchKuPCYuIpDG2,Rvut4qHuFrVPHZPchKuPCYuIpDG2,,,,,,,,,,,,,,,,,,750.0,,,,5bf8a27021a4e1000194fc76,15:37:39,26/03/2024
html-keyboard-response,94,182069,0.0-40.0-3.0,,<div style='margin:auto;width: auto; font-size: 150%'><span style='font-weight: bold; font-size: 100px; color: red;'>0 points!</span><br><br></div>,,delaylearn,learning,feedback_image_window,Rvut4qHuFrVPHZPchKuPCYuIpDG2,Rvut4qHuFrVPHZPchKuPCYuIpDG2,,,,,,,,,,,,,,,,,,,,,,5bf8a27021a4e1000194fc76,15:37:39,26/03/2024
html-keyboard-response,95,183903,0.0-41.0,,"<div style=""font-size:100px;"">+</div>",,delaylearn,learning,ITI,Rvut4qHuFrVPHZPchKuPCYuIpDG2,Rvut4qHuFrVPHZPchKuPCYuIpDG2,,,,,,,,,,,,,,,,,,,1830.0,,,5bf8a27021a4e1000194fc76,15:37:39,26/03/2024
html-keyboard-response,96,185129,0.0-42.0-0.0,1221.0,"<div style=""display: flex; flex-direction: column; align-items: center; margin-top: -40px;""><img src=""images/pattern_4.png"" style=""width: 234px; height: 230px; margin-top: -50px;""><div style=""display: flex; justify-content: space-between; margin-top: 33px;""><img src=""images/choice_trial_4.png"" style=""width: 408px; height: 417px; margin-right: 200px;""><img src=""images/choice_trial_11.png"" style=""width: 408px; height: 417px;""></div></div>",j,delaylearn,learning,trial,Rvut4qHuFrVPHZPchKuPCYuIpDG2,Rvut4qHuFrVPHZPchKuPCYuIpDG2,5.0,images/choice_trial_4.png,images/choice_trial_11.png,images/pattern_4.png,j,j,7000.0,4.0,11.0,3.0,1.0,18.0,1.0,1.0,11.0,150.0,,,,,,5bf8a27021a4e1000194fc76,15:37:39,26/03/2024
html-keyboard-response,97,186137,0.0-42.0-1.0,,"<div style=""display: flex; flex-direction: column; align-items: center; margin-top: -40px;""><img src=""images/pattern_4.png"" style=""width: 234px; height: 230px; margin-top: -50px;""><div style=""display: flex; justify-content: space-between; margin-top: 33px;""><img src=""images/choice_trial_11.png"" style=""width: 408px; height: 417px; margin-left:608px;""></div></div>",,delaylearn,learning,display_response,Rvut4qHuFrVPHZPchKuPCYuIpDG2,Rvut4qHuFrVPHZPchKuPCYuIpDG2,,,,,,,,,,,,,,,,,chosen stimuli: images/choice_trial_11.png,,,,,5bf8a27021a4e1000194fc76,15:37:39,26/03/2024
html-keyboard-response,98,193144,0.0-42.0-2.0,,,,delaylearn,learning,feedback_duration_window,Rvut4qHuFrVPHZPchKuPCYuIpDG2,Rvut4qHuFrVPHZPchKuPCYuIpDG2,,,,,,,,,,,,,,,,,,7000.0,,,,5bf8a27021a4e1000194fc76,15:37:39,26/03/2024
html-keyboard-response,99,194650,0.0-42.0-3.0,,<div style='margin:auto;width: auto; font-size: 150%'><span style='font-weight: bold; font-size: 100px; color: green;'>+10 points!</span><br><br></div>,,delaylearn,learning,feedback_image_window,Rvut4qHuFrVPHZPchKuPCYuIpDG2,Rvut4qHuFrVPHZPchKuPCYuIpDG2,,,,,,,,,,,,,,,,,,,,,,5bf8a27021a4e1000194fc76,15:37:39,26/03/2024
html-keyboard-response,100,196753,0.0-43.0,,"<div style=""font-size:100px;"">+</div>",,delaylearn,learning,ITI,Rvut4qHuFrVPHZPchKuPCYuIpDG2,Rvut4qHuFrVPHZPchKuPCYuIpDG2,,,,,,,,,,,,,,,,,,,2099.0,,,5bf8a27021a4e1000194fc76,15:37:39,26/03/2024
html-keyboard-response,101,197946,0.0-44.0-0.0,1191.0,"<div style=""display: flex; flex-direction: column; align-items: center; margin-top: -40px;""><img src=""images/pattern_7.png"" style=""width: 234px; height: 230px; margin-top: -50px;""><div style=""display: flex; justify-content: space-between; margin-top: 33px;""><img src=""images/choice_trial_8.png"" style=""width: 408px; height: 417px; margin-right: 200px;""><img src=""images/choice_trial_10.png"" style=""width: 408px; height: 417px;""></div></div>",f,delaylearn,learning,trial,Rvut4qHuFrVPHZPchKuPCYuIpDG2,Rvut4qHuFrVPHZPchKuPCYuIpDG2,5.0,images/choice_trial_8.png,images/choice_trial_10.png,images/pattern_7.png,j,f,750.0,8.0,10.0,6.0,0.0,19.0,1.0,0.0,8.0,150.0,,,,,,5bf8a27021a4e1000194fc76,15:37:39,26/03/2024
html-keyboard-response,102,198953,0.0-44.0-1.0,,"<div style=""display: flex; flex-direction: column; align-items: center; margin-top: -40px;""><img src=""images/pattern_7.png"" style=""width: 234px; height: 230px; margin-top: -50px;""><div style=""display: flex; justify-content: space-between; margin-top: 33px;""><img src=""images/choice_trial_8.png"" style=""width: 408px; height: 417px; margin-right: 608px;""></div></div>",,delaylearn,learning,display_response,Rvut4qHuFrVPHZPchKuPCYuIpDG2,Rvut4qHuFrVPHZPchKuPCYuIpDG2,,,,,,,,,,,,,,,,,chosen stimuli: images/choice_trial_8.png,,,,,5bf8a27021a4e1000194fc76,15:37:39,26/03/2024
html-keyboard-response,103,199709,0.0-44.0-2.0,,,,delaylearn,learning,feedback_duration_window,Rvut4qHuFrVPHZPchKuPCYuIpDG2,Rvut4qHuFrVPHZPchKuPCYuIpDG2,,,,,,,,,,,,,,,,,,750.0,,,,5bf8a27021a4e1000194fc76,15:37:39,26/03/2024
html-keyboard-response,104,201212,0.0-44.0-3.0,,<div style='margin:auto;width: auto; font-size: 150%'><span style='font-weight: bold; font-size: 100px; color: red;'>0 points!</span><br><br></div>,,delaylearn,learning,feedback_image_window,Rvut4qHuFrVPHZPchKuPCYuIpDG2,Rvut4qHuFrVPHZPchKuPCYuIpDG2,,,,,,,,,,,,,,,,,,,,,,5bf8a27021a4e1000194fc76,15:37:39,26/03/2024
html-keyboard-response,105,203184,0.0-45.0,,"<div style=""font-size:100px;"">+</div>",,delaylearn,learning,ITI,Rvut4qHuFrVPHZPchKuPCYuIpDG2,Rvut4qHuFrVPHZPchKuPCYuIpDG2,,,,,,,,,,,,,,,,,,,1968.0,,,5bf8a27021a4e1000194fc76,15:37:39,26/03/2024
html-keyboard-response,106,204880,0.0-46.0-0.0,1693.0,"<div style=""display: flex; flex-direction: column; align-items: center; margin-top: -40px;""><img src=""images/pattern_1.png"" style=""width: 234px; height: 230px; margin-top: -50px;""><div style=""display: flex; justify-content: space-between; margin-top: 33px;""><img src=""images/choice_trial_6.png"" style=""width: 408px; height: 417px; margin-right: 200px;""><img src=""images/choice_trial_15.png"" style=""width: 408px; height: 417px;""></div></div>",f,delaylearn,learning,trial,Rvut4qHuFrVPHZPchKuPCYuIpDG2,Rvut4qHuFrVPHZPchKuPCYuIpDG2,5.0,images/choice_trial_6.png,images/choice_trial_15.png,images/pattern_1.png,f,f,7000.0,6.0,15.0,1.0,0.0,20.0,1.0,1.0,6.0,160.0,,,,,,5bf8a27021a4e1000194fc76,15:37:39,26/03/2024
html-keyboard-response,107,205887,0.0-46.0-1.0,,"<div style=""display: flex; flex-direction: column; align-items: center; margin-top: -40px;""><img src=""images/pattern_1.png"" style=""width: 234px; height: 230px; margin-top: -50px;""><div style=""display: flex; justify-content: space-between; margin-top: 33px;""><img src=""images/choice_trial_6.png"" style=""width: 408px; height: 417px; margin-right: 608px;""></div></div>",,delaylearn,learning,display_response,Rvut4qHuFrVPHZPchKuPCYuIpDG2,Rvut4qHuFrVPHZPchKuPCYuIpDG2,,,,,,,,,,,,,,,,,chosen stimuli: images/choice_trial_6.png,,,,,5bf8a27021a4e1000194fc76,15:37:39,26/03/2024
html-keyboard-response,108,212890,0.0-46.0-2.0,,,,delaylearn,learning,feedback_duration_window,Rvut4qHuFrVPHZPchKuPCYuIpDG2,Rvut4qHuFrVPHZPchKuPCYuIpDG2,,,,,,,,,,,,,,,,,,7000.0,,,,5bf8a27021a4e1000194fc76,15:37:39,26/03/2024
html-keyboard-response,109,214392,0.0-46.0-3.0,,<div style='margin:auto;width: auto; font-size: 150%'><span style='font-weight: bold; font-size: 100px; color: green;'>+10 points!</span><br><br></div>,,delaylearn,learning,feedback_image_window,Rvut4qHuFrVPHZPchKuPCYuIpDG2,Rvut4qHuFrVPHZPchKuPCYuIpDG2,,,,,,,,,,,,,,,,,,,,,,5bf8a27021a4e1000194fc76,15:37:39,26/03/2024
html-keyboard-response,110,216530,0.0-47.0,,"<div style=""font-size:100px;"">+</div>",,delaylearn,learning,ITI,Rvut4qHuFrVPHZPchKuPCYuIpDG2,Rvut4qHuFrVPHZPchKuPCYuIpDG2,,,,,,,,,,,,,,,,,,,2134.0,,,5bf8a27021a4e1000194fc76,15:37:39,26/03/2024
html-keyboard-response,111,217500,0.0-48.0-0.0,967.0,"<div style=""display: flex; flex-direction: column; align-items: center; margin-top: -40px;""><img src=""images/pattern_6.png"" style=""width: 234px; height: 230px; margin-top: -50px;""><div style=""display: flex; justify-content: space-between; margin-top: 33px;""><img src=""images/choice_trial_9.png"" style=""width: 408px; height: 417px; margin-right: 200px;""><img src=""images/choice_trial_14.png"" style=""width: 408px; height: 417px;""></div></div>",f,delaylearn,learning,trial,Rvut4qHuFrVPHZPchKuPCYuIpDG2,Rvut4qHuFrVPHZPchKuPCYuIpDG2,5.0,images/choice_trial_9.png,images/choice_trial_14.png,images/pattern_6.png,j,j,750.0,9.0,14.0,5.0,1.0,21.0,0.0,0.0,9.0,160.0,,,,,,5bf8a27021a4e1000194fc76,15:37:39,26/03/2024
html-keyboard-response,112,218502,0.0-48.0-1.0,,"<div style=""display: flex; flex-direction: column; align-items: center; margin-top: -40px;""><img src=""images/pattern_6.png"" style=""width: 234px; height: 230px; margin-top: -50px;""><div style=""display: flex; justify-content: space-between; margin-top: 33px;""><img src=""images/choice_trial_9.png"" style=""width: 408px; height: 417px; margin-right: 608px;""></div></div>",,delaylearn,learning,display_response,Rvut4qHuFrVPHZPchKuPCYuIpDG2,Rvut4qHuFrVPHZPchKuPCYuIpDG2,,,,,,,,,,,,,,,,,chosen stimuli: images/choice_trial_9.png,,,,,5bf8a27021a4e1000194fc76,15:37:39,26/03/2024
html-keyboard-response,113,219254,0.0-48.0-2.0,,,,delaylearn,learning,feedback_duration_window,Rvut4qHuFrVPHZPchKuPCYuIpDG2,Rvut4qHuFrVPHZPchKuPCYuIpDG2,,,,,,,,,,,,,,,,,,750.0,,,,5bf8a27021a4e1000194fc76,15:37:39,26/03/2024
html-keyboard-response,114,220757,0.0-48.0-3.0,,<div style='margin:auto;width: auto; font-size: 150%'><span style='font-weight: bold; font-size: 100px; color: red;'>0 points!</span><br><br></div>,,delaylearn,learning,feedback_image_window,Rvut4qHuFrVPHZPchKuPCYuIpDG2,Rvut4qHuFrVPHZPchKuPCYuIpDG2,,,,,,,,,,,,,,,,,,,,,,5bf8a27021a4e1000194fc76,15:37:39,26/03/2024
html-keyboard-response,115,222333,0.0-49.0,,"<div style=""font-size:100px;"">+</div>",,delaylearn,learning,ITI,Rvut4qHuFrVPHZPchKuPCYuIpDG2,Rvut4qHuFrVPHZPchKuPCYuIpDG2,,,,,,,,,,,,,,,,,,,1537.0,,,5bf8a27021a4e1000194fc76,15:37:39,26/03/2024
html-keyboard-response,116,223476,0.0-50.0-0.0,1140.0,"<div style=""display: flex; flex-direction: column; align-items: center; margin-top: -40px;""><img src=""images/pattern_4.png"" style=""width: 234px; height: 230px; margin-top: -50px;""><div style=""display: flex; justify-content: space-between; margin-top: 33px;""><img src=""images/choice_trial_11.png"" style=""width: 408px; height: 417px; margin-right: 200px;""><img src=""images/choice_trial_4.png"" style=""width: 408px; height: 417px;""></div></div>",f,delaylearn,learning,trial,Rvut4qHuFrVPHZPchKuPCYuIpDG2,Rvut4qHuFrVPHZPchKuPCYuIpDG2,5.0,images/choice_trial_11.png,images/choice_trial_4.png,images/pattern_4.png,f,f,7000.0,11.0,4.0,3.0,0.0,22.0,1.0,1.0,11.0,170.0,,,,,,5bf8a27021a4e1000194fc76,15:37:39,26/03/2024
html-keyboard-response,117,224483,0.0-50.0-1.0,,"<div style=""display: flex; flex-direction: column; align-items: center; margin-top: -40px;""><img src=""images/pattern_4.png"" style=""width: 234px; height: 230px; margin-top: -50px;""><div style=""display: flex; justify-content: space-between; margin-top: 33px;""><img src=""images/choice_trial_11.png"" style=""width: 408px; height: 417px; margin-right: 608px;""></div></div>",,delaylearn,learning,display_response,Rvut4qHuFrVPHZPchKuPCYuIpDG2,Rvut4qHuFrVPHZPchKuPCYuIpDG2,,,,,,,,,,,,,,,,,chosen stimuli: images/choice_trial_11.png,,,,,5bf8a27021a4e1000194fc76,15:37:39,26/03/2024
html-keyboard-response,118,231489,0.0-50.0-2.0,,,,delaylearn,learning,feedback_duration_window,Rvut4qHuFrVPHZPchKuPCYuIpDG2,Rvut4qHuFrVPHZPchKuPCYuIpDG2,,,,,,,,,,,,,,,,,,7000.0,,,,5bf8a27021a4e1000194fc76,15:37:39,26/03/2024
html-keyboard-response,119,232993,0.0-50.0-3.0,,<div style='margin:auto;width: auto; font-size: 150%'><span style='font-weight: bold; font-size: 100px; color: green;'>+10 points!</span><br><br></div>,,delaylearn,learning,feedback_image_window,Rvut4qHuFrVPHZPchKuPCYuIpDG2,Rvut4qHuFrVPHZPchKuPCYuIpDG2,,,,,,,,,,,,,,,,,,,,,,5bf8a27021a4e1000194fc76,15:37:39,26/03/2024
html-keyboard-response,120,233494,0.0-51.0-0.0,,,,,,mood_trial_fixation,Rvut4qHuFrVPHZPchKuPCYuIpDG2,,,,,,,,,,,,,,,,,,,,,,,5bf8a27021a4e1000194fc76,15:37:39,26/03/2024
lmdlab-html-vas-response,121,238156,0.0-51.0-1.0,3654.0,How happy are you right now?,0.4925925925925926,delaylearn,learning,mood_trial,Rvut4qHuFrVPHZPchKuPCYuIpDG2,Rvut4qHuFrVPHZPchKuPCYuIpDG2,,,,,,,,,,,,,,,,,,,,"['Very unhappy', 'Very happy']",,5bf8a27021a4e1000194fc76,15:37:39,26/03/2024
html-keyboard-response,122,240514,0.0-52.0,,"<div style=""font-size:100px;"">+</div>",,delaylearn,learning,ITI,Rvut4qHuFrVPHZPchKuPCYuIpDG2,Rvut4qHuFrVPHZPchKuPCYuIpDG2,,,,,,,,,,,,,,,,,,,2355.0,,,5bf8a27021a4e1000194fc76,15:37:39,26/03/2024
html-keyboard-response,123,242170,0.0-53.0-0.0,1652.0,"<div style=""display: flex; flex-direction: column; align-items: center; margin-top: -40px;""><img src=""images/pattern_7.png"" style=""width: 234px; height: 230px; margin-top: -50px;""><div style=""display: flex; justify-content: space-between; margin-top: 33px;""><img src=""images/choice_trial_10.png"" style=""width: 408px; height: 417px; margin-right: 200px;""><img src=""images/choice_trial_8.png"" style=""width: 408px; height: 417px;""></div></div>",j,delaylearn,learning,trial,Rvut4qHuFrVPHZPchKuPCYuIpDG2,Rvut4qHuFrVPHZPchKuPCYuIpDG2,5.0,images/choice_trial_10.png,images/choice_trial_8.png,images/pattern_7.png,j,j,750.0,10.0,8.0,6.0,1.0,23.0,1.0,1.0,8.0,180.0,,,,,,5bf8a27021a4e1000194fc76,15:37:39,26/03/2024
html-keyboard-response,124,243177,0.0-53.0-1.0,,"<div style=""display: flex; flex-direction: column; align-items: center; margin-top: -40px;""><img src=""images/pattern_7.png"" style=""width: 234px; height: 230px; margin-top: -50px;""><div style=""display: flex; justify-content: space-between; margin-top: 33px;""><img src=""images/choice_trial_8.png"" style=""width: 408px; height: 417px; margin-left:608px;""></div></div>",,delaylearn,learning,display_response,Rvut4qHuFrVPHZPchKuPCYuIpDG2,Rvut4qHuFrVPHZPchKuPCYuIpDG2,,,,,,,,,,,,,,,,,chosen stimuli: images/choice_trial_8.png,,,,,5bf8a27021a4e1000194fc76,15:37:39,26/03/2024
html-keyboard-response,125,243935,0.0-53.0-2.0,,,,delaylearn,learning,feedback_duration_window,Rvut4qHuFrVPHZPchKuPCYuIpDG2,Rvut4qHuFrVPHZPchKuPCYuIpDG2,,,,,,,,,,,,,,,,,,750.0,,,,5bf8a27021a4e1000194fc76,15:37:39,26/03/2024
html-keyboard-response,126,245438,0.0-53.0-3.0,,<div style='margin:auto;width: auto; font-size: 150%'><span style='font-weight: bold; font-size: 100px; color: green;'>+10 points!</span><br><br></div>,,delaylearn,learning,feedback_image_window,Rvut4qHuFrVPHZPchKuPCYuIpDG2,Rvut4qHuFrVPHZPchKuPCYuIpDG2,,,,,,,,,,,,,,,,,,,,,,5bf8a27021a4e1000194fc76,15:37:39,26/03/2024
html-keyboard-response,127,247417,0.0-54.0,,"<div style=""font-size:100px;"">+</div>",,delaylearn,learning,ITI,Rvut4qHuFrVPHZPchKuPCYuIpDG2,Rvut4qHuFrVPHZPchKuPCYuIpDG2,,,,,,,,,,,,,,,,,,,1975.0,,,5bf8a27021a4e1000194fc76,15:37:39,26/03/2024
html-keyboard-response,128,249489,0.0-55.0-0.0,2068.0,"<div style=""display: flex; flex-direction: column; align-items: center; margin-top: -40px;""><img src=""images/pattern_1.png"" style=""width: 234px; height: 230px; margin-top: -50px;""><div style=""display: flex; justify-content: space-between; margin-top: 33px;""><img src=""images/choice_trial_15.png"" style=""width: 408px; height: 417px; margin-right: 200px;""><img src=""images/choice_trial_6.png"" style=""width: 408px; height: 417px;""></div></div>",j,delaylearn,learning,trial,Rvut4qHuFrVPHZPchKuPCYuIpDG2,Rvut4qHuFrVPHZPchKuPCYuIpDG2,5.0,images/choice_trial_15.png,images/choice_trial_6.png,images/pattern_1.png,f,j,7000.0,15.0,6.0,1.0,1.0,24.0,1.0,0.0,6.0,180.0,,,,,,5bf8a27021a4e1000194fc76,15:37:39,26/03/2024
html-keyboard-response,129,250497,0.0-55.0-1.0,,"<div style=""display: flex; flex-direction: column; align-items: center; margin-top: -40px;""><img src=""images/pattern_1.png"" style=""width: 234px; height: 230px; margin-top: -50px;""><div style=""display: flex; justify-content: space-between; margin-top: 33px;""><img src=""images/choice_trial_6.png"" style=""width: 408px; height: 417px; margin-left:608px;""></div></div>",,delaylearn,learning,display_response,Rvut4qHuFrVPHZPchKuPCYuIpDG2,Rvut4qHuFrVPHZPchKuPCYuIpDG2,,,,,,,,,,,,,,,,,chosen stimuli: images/choice_trial_6.png,,,,,5bf8a27021a4e1000194fc76,15:37:39,26/03/2024
html-keyboard-response,130,257502,0.0-55.0-2.0,,,,delaylearn,learning,feedback_duration_window,Rvut4qHuFrVPHZPchKuPCYuIpDG2,Rvut4qHuFrVPHZPchKuPCYuIpDG2,,,,,,,,,,,,,,,,,,7000.0,,,,5bf8a27021a4e1000194fc76,15:37:39,26/03/2024
html-keyboard-response,131,259008,0.0-55.0-3.0,,<div style='margin:auto;width: auto; font-size: 150%'><span style='font-weight: bold; font-size: 100px; color: red;'>0 points!</span><br><br></div>,,delaylearn,learning,feedback_image_window,Rvut4qHuFrVPHZPchKuPCYuIpDG2,Rvut4qHuFrVPHZPchKuPCYuIpDG2,,,,,,,,,,,,,,,,,,,,,,5bf8a27021a4e1000194fc76,15:37:39,26/03/2024
html-keyboard-response,132,261148,0.0-56.0,,"<div style=""font-size:100px;"">+</div>",,delaylearn,learning,ITI,Rvut4qHuFrVPHZPchKuPCYuIpDG2,Rvut4qHuFrVPHZPchKuPCYuIpDG2,,,,,,,,,,,,,,,,,,,2135.0,,,5bf8a27021a4e1000194fc76,15:37:39,26/03/2024
html-keyboard-response,133,263077,0.0-57.0-0.0,1925.0,"<div style=""display: flex; flex-direction: column; align-items: center; margin-top: -40px;""><img src=""images/pattern_5.png"" style=""width: 234px; height: 230px; margin-top: -50px;""><div style=""display: flex; justify-content: space-between; margin-top: 33px;""><img src=""images/choice_trial_13.png"" style=""width: 408px; height: 417px; margin-right: 200px;""><img src=""images/choice_trial_7.png"" style=""width: 408px; height: 417px;""></div></div>",j,delaylearn,learning,trial,Rvut4qHuFrVPHZPchKuPCYuIpDG2,Rvut4qHuFrVPHZPchKuPCYuIpDG2,5.0,images/choice_trial_13.png,images/choice_trial_7.png,images/pattern_5.png,j,j,750.0,13.0,7.0,4.0,1.0,25.0,1.0,1.0,7.0,190.0,,,,,,5bf8a27021a4e1000194fc76,15:37:39,26/03/2024
html-keyboard-response,134,264080,0.0-57.0-1.0,,"<div style=""display: flex; flex-direction: column; align-items: center; margin-top: -40px;""><img src=""images/pattern_5.png"" style=""width: 234px; height: 230px; margin-top: -50px;""><div style=""display: flex; justify-content: space-between; margin-top: 33px;""><img src=""images/choice_trial_7.png"" style=""width: 408px; height: 417px; margin-left:608px;""></div></div>",,delaylearn,learning,display_response,Rvut4qHuFrVPHZPchKuPCYuIpDG2,Rvut4qHuFrVPHZPchKuPCYuIpDG2,,,,,,,,,,,,,,,,,chosen stimuli: images/choice_trial_7.png,,,,,5bf8a27021a4e1000194fc76,15:37:39,26/03/2024
html-keyboard-response,135,264836,0.0-57.0-2.0,,,,delaylearn,learning,feedback_duration_window,Rvut4qHuFrVPHZPchKuPCYuIpDG2,Rvut4qHuFrVPHZPchKuPCYuIpDG2,,,,,,,,,,,,,,,,,,750.0,,,,5bf8a27021a4e1000194fc76,15:37:39,26/03/2024
html-keyboard-response,136,266343,0.0-57.0-3.0,,<div style='margin:auto;width: auto; font-size: 150%'><span style='font-weight: bold; font-size: 100px; color: green;'>+10 points!</span><br><br></div>,,delaylearn,learning,feedback_image_window,Rvut4qHuFrVPHZPchKuPCYuIpDG2,Rvut4qHuFrVPHZPchKuPCYuIpDG2,,,,,,,,,,,,,,,,,,,,,,5bf8a27021a4e1000194fc76,15:37:39,26/03/2024
html-keyboard-response,137,268413,0.0-58.0,,"<div style=""font-size:100px;"">+</div>",,delaylearn,learning,ITI,Rvut4qHuFrVPHZPchKuPCYuIpDG2,Rvut4qHuFrVPHZPchKuPCYuIpDG2,,,,,,,,,,,,,,,,,,,2063.0,,,5bf8a27021a4e1000194fc76,15:37:39,26/03/2024
html-keyboard-response,138,271419,0.0-59.0-0.0,,"<div style=""display: flex; flex-direction: column; align-items: center; margin-top: -40px;""><img src=""images/pattern_3.png"" style=""width: 234px; height: 230px; margin-top: -50px;""><div style=""display: flex; justify-content: space-between; margin-top: 33px;""><img src=""images/choice_trial_2.png"" style=""width: 408px; height: 417px; margin-right: 200px;""><img src=""images/choice_trial_16.png"" style=""width: 408px; height: 417px;""></div></div>",,delaylearn,learning,trial,Rvut4qHuFrVPHZPchKuPCYuIpDG2,Rvut4qHuFrVPHZPchKuPCYuIpDG2,5.0,images/choice_trial_2.png,images/choice_trial_16.png,images/pattern_3.png,j,j,7000.0,2.0,16.0,2.0,1.0,26.0,0.0,0.0,0.0,190.0,,,,,,5bf8a27021a4e1000194fc76,15:37:39,26/03/2024
html-keyboard-response,139,272427,0.0-59.0-1.0,,<div style='font-weight: bold; font-size: 75px; color: red;'>Missed Trial <br><br><br><br> Please respond faster</div>,,delaylearn,learning,display_response,Rvut4qHuFrVPHZPchKuPCYuIpDG2,Rvut4qHuFrVPHZPchKuPCYuIpDG2,,,,,,,,,,,,,,,,,Missed trial,,,,,5bf8a27021a4e1000194fc76,15:37:39,26/03/2024
html-keyboard-response,140,272433,0.0-59.0-2.0,,,,delaylearn,learning,feedback_duration_window,Rvut4qHuFrVPHZPchKuPCYuIpDG2,Rvut4qHuFrVPHZPchKuPCYuIpDG2,,,,,,,,,,,,,,,,,,0.0,,,,5bf8a27021a4e1000194fc76,15:37:39,26/03/2024
html-keyboard-response,141,272440,0.0-59.0-3.0,,,,delaylearn,learning,feedback_image_window,Rvut4qHuFrVPHZPchKuPCYuIpDG2,Rvut4qHuFrVPHZPchKuPCYuIpDG2,,,,,,,,,,,,,,,,,,,,,,5bf8a27021a4e1000194fc76,15:37:39,26/03/2024
lmdlab-html-vas-response,142,279295,0.0-60.0-0.0,5318.0,*How <b><u>confident</u></b> are you feeling about your answers at this moment?*,0.3814814814814815,rewlearn,rate_confidence,,Rvut4qHuFrVPHZPchKuPCYuIpDG2,Rvut4qHuFrVPHZPchKuPCYuIpDG2,,,,,,,,,,,,,,,,,,,,"['No confidence', 'Complete confidence']",,5bf8a27021a4e1000194fc76,15:37:39,26/03/2024
lmdlab-rest-trial-limit,143,286649,0.0-60.0-1.0,5845.0,"<div style=""font-size:40px;""><b>Please take a break!</b><br><br><br><br><p>Great work: you earned 190 points.<br><br><br><p>You have completed part(s) 1 of 5.<br><br><br><br>When you are ready to continue<br><br><br>please click the button.</p><br><br>",0,delaylearn,learning,break,Rvut4qHuFrVPHZPchKuPCYuIpDG2,Rvut4qHuFrVPHZPchKuPCYuIpDG2,,,,,,,,,,,,,,,,,,,,,0.0,5bf8a27021a4e1000194fc76,15:37:39,26/03/2024
html-keyboard-response,144,289651,0.0-60.0-2.0,,"<div style=""font-size:100px;"">+</div>",,delaylearn,learning,pre_fixation,Rvut4qHuFrVPHZPchKuPCYuIpDG2,,,,,,,,,,,,,,,,,,,,,,,5bf8a27021a4e1000194fc76,15:37:39,26/03/2024
lmdlab-html-vas-response,145,294175,0.0-60.0-3.0-0.0,3510.0,How happy are you right now?,0.48703703703703705,delaylearn,learning,mood_baseline,Rvut4qHuFrVPHZPchKuPCYuIpDG2,Rvut4qHuFrVPHZPchKuPCYuIpDG2,,,,,,,,,,,,,,,,,,,,"['Very unhappy', 'Very happy']",,5bf8a27021a4e1000194fc76,15:37:39,26/03/2024
html-keyboard-response,146,295683,0.0-60.0-3.0-1.0,,,,,,mood_baseline_fixation,Rvut4qHuFrVPHZPchKuPCYuIpDG2,,,,,,,,,,,,,,,,,,,,,,,5bf8a27021a4e1000194fc76,15:37:39,26/03/2024
html-keyboard-response,147,297340,0.0-61.0,,"<div style=""font-size:100px;"">+</div>",,delaylearn,learning,ITI,Rvut4qHuFrVPHZPchKuPCYuIpDG2,Rvut4qHuFrVPHZPchKuPCYuIpDG2,,,,,,,,,,,,,,,,,,,1654.0,,,5bf8a27021a4e1000194fc76,15:37:39,26/03/2024
html-keyboard-response,148,298232,0.0-62.0-0.0,889.0,"<div style=""display: flex; flex-direction: column; align-items: center; margin-top: -40px;""><img src=""images/pattern_7.png"" style=""width: 234px; height: 230px; margin-top: -50px;""><div style=""display: flex; justify-content: space-between; margin-top: 33px;""><img src=""images/choice_trial_10.png"" style=""width: 408px; height: 417px; margin-right: 200px;""><img src=""images/choice_trial_8.png"" style=""width: 408px; height: 417px;""></div></div>",j,delaylearn,learning,trial,Rvut4qHuFrVPHZPchKuPCYuIpDG2,Rvut4qHuFrVPHZPchKuPCYuIpDG2,5.0,images/choice_trial_10.png,images/choice_trial_8.png,images/pattern_7.png,j,j,750.0,10.0,8.0,6.0,1.0,27.0,1.0,1.0,8.0,200.0,,,,,,5bf8a27021a4e1000194fc76,15:37:39,26/03/2024
html-keyboard-response,149,299239,0.0-62.0-1.0,,"<div style=""display: flex; flex-direction: column; align-items: center; margin-top: -40px;""><img src=""images/pattern_7.png"" style=""width: 234px; height: 230px; margin-top: -50px;""><div style=""display: flex; justify-content: space-between; margin-top: 33px;""><img src=""images/choice_trial_8.png"" style=""width: 408px; height: 417px; margin-left:608px;""></div></div>",,delaylearn,learning,display_response,Rvut4qHuFrVPHZPchKuPCYuIpDG2,Rvut4qHuFrVPHZPchKuPCYuIpDG2,,,,,,,,,,,,,,,,,chosen stimuli: images/choice_trial_8.png,,,,,5bf8a27021a4e1000194fc76,15:37:39,26/03/2024
html-keyboard-response,150,299997,0.0-62.0-2.0,,,,delaylearn,learning,feedback_duration_window,Rvut4qHuFrVPHZPchKuPCYuIpDG2,Rvut4qHuFrVPHZPchKuPCYuIpDG2,,,,,,,,,,,,,,,,,,750.0,,,,5bf8a27021a4e1000194fc76,15:37:39,26/03/2024
html-keyboard-response,151,301499,0.0-62.0-3.0,,<div style='margin:auto;width: auto; font-size: 150%'><span style='font-weight: bold; font-size: 100px; color: green;'>+10 points!</span><br><br></div>,,delaylearn,learning,feedback_image_window,Rvut4qHuFrVPHZPchKuPCYuIpDG2,Rvut4qHuFrVPHZPchKuPCYuIpDG2,,,,,,,,,,,,,,,,,,,,,,5bf8a27021a4e1000194fc76,15:37:39,26/03/2024
html-keyboard-response,152,302006,0.0-63.0-0.0,,,,,,mood_trial_fixation,Rvut4qHuFrVPHZPchKuPCYuIpDG2,,,,,,,,,,,,,,,,,,,,,,,5bf8a27021a4e1000194fc76,15:37:39,26/03/2024
lmdlab-html-vas-response,153,306341,0.0-63.0-1.0,3328.0,How happy are you right now?,0.524074074074074,delaylearn,learning,mood_trial,Rvut4qHuFrVPHZPchKuPCYuIpDG2,Rvut4qHuFrVPHZPchKuPCYuIpDG2,,,,,,,,,,,,,,,,,,,,"['Very unhappy', 'Very happy']",,5bf8a27021a4e1000194fc76,15:37:39,26/03/2024
html-keyboard-response,154,308599,0.0-64.0,,"<div style=""font-size:100px;"">+</div>",,delaylearn,learning,ITI,Rvut4qHuFrVPHZPchKuPCYuIpDG2,Rvut4qHuFrVPHZPchKuPCYuIpDG2,,,,,,,,,,,,,,,,,,,2256.0,,,5bf8a27021a4e1000194fc76,15:37:39,26/03/2024
html-keyboard-response,155,310147,0.0-65.0-0.0,1545.0,"<div style=""display: flex; flex-direction: column; align-items: center; margin-top: -40px;""><img src=""images/pattern_1.png"" style=""width: 234px; height: 230px; margin-top: -50px;""><div style=""display: flex; justify-content: space-between; margin-top: 33px;""><img src=""images/choice_trial_6.png"" style=""width: 408px; height: 417px; margin-right: 200px;""><img src=""images/choice_trial_15.png"" style=""width: 408px; height: 417px;""></div></div>",j,delaylearn,learning,trial,Rvut4qHuFrVPHZPchKuPCYuIpDG2,Rvut4qHuFrVPHZPchKuPCYuIpDG2,5.0,images/choice_trial_6.png,images/choice_trial_15.png,images/pattern_1.png,f,f,7000.0,6.0,15.0,1.0,0.0,28.0,0.0,0.0,15.0,200.0,,,,,,5bf8a27021a4e1000194fc76,15:37:39,26/03/2024
html-keyboard-response,156,311151,0.0-65.0-1.0,,"<div style=""display: flex; flex-direction: column; align-items: center; margin-top: -40px;""><img src=""images/pattern_1.png"" style=""width: 234px; height: 230px; margin-top: -50px;""><div style=""display: flex; justify-content: space-between; margin-top: 33px;""><img src=""images/choice_trial_15.png"" style=""width: 408px; height: 417px; margin-left:608px;""></div></div>",,delaylearn,learning,display_response,Rvut4qHuFrVPHZPchKuPCYuIpDG2,Rvut4qHuFrVPHZPchKuPCYuIpDG2,,,,,,,,,,,,,,,,,chosen stimuli: images/choice_trial_15.png,,,,,5bf8a27021a4e1000194fc76,15:37:39,26/03/2024
html-keyboard-response,157,318154,0.0-65.0-2.0,,,,delaylearn,learning,feedback_duration_window,Rvut4qHuFrVPHZPchKuPCYuIpDG2,Rvut4qHuFrVPHZPchKuPCYuIpDG2,,,,,,,,,,,,,,,,,,7000.0,,,,5bf8a27021a4e1000194fc76,15:37:39,26/03/2024
html-keyboard-response,158,319662,0.0-65.0-3.0,,<div style='margin:auto;width: auto; font-size: 150%'><span style='font-weight: bold; font-size: 100px; color: red;'>0 points!</span><br><br></div>,,delaylearn,learning,feedback_image_window,Rvut4qHuFrVPHZPchKuPCYuIpDG2,Rvut4qHuFrVPHZPchKuPCYuIpDG2,,,,,,,,,,,,,,,,,,,,,,5bf8a27021a4e1000194fc76,15:37:39,26/03/2024
html-keyboard-response,159,321258,0.0-66.0,,"<div style=""font-size:100px;"">+</div>",,delaylearn,learning,ITI,Rvut4qHuFrVPHZPchKuPCYuIpDG2,Rvut4qHuFrVPHZPchKuPCYuIpDG2,,,,,,,,,,,,,,,,,,,1590.0,,,5bf8a27021a4e1000194fc76,15:37:39,26/03/2024
html-keyboard-response,160,323957,0.0-67.0-0.0,2695.0,"<div style=""display: flex; flex-direction: column; align-items: center; margin-top: -40px;""><img src=""images/pattern_5.png"" style=""width: 234px; height: 230px; margin-top: -50px;""><div style=""display: flex; justify-content: space-between; margin-top: 33px;""><img src=""images/choice_trial_7.png"" style=""width: 408px; height: 417px; margin-right: 200px;""><img src=""images/choice_trial_13.png"" style=""width: 408px; height: 417px;""></div></div>",f,delaylearn,learning,trial,Rvut4qHuFrVPHZPchKuPCYuIpDG2,Rvut4qHuFrVPHZPchKuPCYuIpDG2,5.0,images/choice_trial_7.png,images/choice_trial_13.png,images/pattern_5.png,f,f,750.0,7.0,13.0,4.0,0.0,29.0,1.0,1.0,7.0,210.0,,,,,,5bf8a27021a4e1000194fc76,15:37:39,26/03/2024
html-keyboard-response,161,324962,0.0-67.0-1.0,,"<div style=""display: flex; flex-direction: column; align-items: center; margin-top: -40px;""><img src=""images/pattern_5.png"" style=""width: 234px; height: 230px; margin-top: -50px;""><div style=""display: flex; justify-content: space-between; margin-top: 33px;""><img src=""images/choice_trial_7.png"" style=""width: 408px; height: 417px; margin-right: 608px;""></div></div>",,delaylearn,learning,display_response,Rvut4qHuFrVPHZPchKuPCYuIpDG2,Rvut4qHuFrVPHZPchKuPCYuIpDG2,,,,,,,,,,,,,,,,,chosen stimuli: images/choice_trial_7.png,,,,,5bf8a27021a4e1000194fc76,15:37:39,26/03/2024
html-keyboard-response,162,325719,0.0-67.0-2.0,,,,delaylearn,learning,feedback_duration_window,Rvut4qHuFrVPHZPchKuPCYuIpDG2,Rvut4qHuFrVPHZPchKuPCYuIpDG2,,,,,,,,,,,,,,,,,,750.0,,,,5bf8a27021a4e1000194fc76,15:37:39,26/03/2024
html-keyboard-response,163,327224,0.0-67.0-3.0,,<div style='margin:auto;width: auto; font-size: 150%'><span style='font-weight: bold; font-size: 100px; color: green;'>+10 points!</span><br><br></div>,,delaylearn,learning,feedback_image_window,Rvut4qHuFrVPHZPchKuPCYuIpDG2,Rvut4qHuFrVPHZPchKuPCYuIpDG2,,,,,,,,,,,,,,,,,,,,,,5bf8a27021a4e1000194fc76,15:37:39,26/03/2024
html-keyboard-response,164,329571,0.0-68.0,,"<div style=""font-size:100px;"">+</div>",,delaylearn,learning,ITI,Rvut4qHuFrVPHZPchKuPCYuIpDG2,Rvut4qHuFrVPHZPchKuPCYuIpDG2,,,,,,,,,,,,,,,,,,,2340.0,,,5bf8a27021a4e1000194fc76,15:37:39,26/03/2024
html-keyboard-response,165,331300,0.0-69.0-0.0,1726.0,"<div style=""display: flex; flex-direction: column; align-items: center; margin-top: -40px;""><img src=""images/pattern_6.png"" style=""width: 234px; height: 230px; margin-top: -50px;""><div style=""display: flex; justify-content: space-between; margin-top: 33px;""><img src=""images/choice_trial_9.png"" style=""width: 408px; height: 417px; margin-right: 200px;""><img src=""images/choice_trial_14.png"" style=""width: 408px; height: 417px;""></div></div>",f,delaylearn,learning,trial,Rvut4qHuFrVPHZPchKuPCYuIpDG2,Rvut4qHuFrVPHZPchKuPCYuIpDG2,5.0,images/choice_trial_9.png,images/choice_trial_14.png,images/pattern_6.png,j,j,750.0,9.0,14.0,5.0,1.0,30.0,0.0,0.0,9.0,210.0,,,,,,5bf8a27021a4e1000194fc76,15:37:39,26/03/2024
html-keyboard-response,166,332306,0.0-69.0-1.0,,"<div style=""display: flex; flex-direction: column; align-items: center; margin-top: -40px;""><img src=""images/pattern_6.png"" style=""width: 234px; height: 230px; margin-top: -50px;""><div style=""display: flex; justify-content: space-between; margin-top: 33px;""><img src=""images/choice_trial_9.png"" style=""width: 408px; height: 417px; margin-right: 608px;""></div></div>",,delaylearn,learning,display_response,Rvut4qHuFrVPHZPchKuPCYuIpDG2,Rvut4qHuFrVPHZPchKuPCYuIpDG2,,,,,,,,,,,,,,,,,chosen stimuli: images/choice_trial_9.png,,,,,5bf8a27021a4e1000194fc76,15:37:39,26/03/2024
html-keyboard-response,167,333096,0.0-69.0-2.0,,,,delaylearn,learning,feedback_duration_window,Rvut4qHuFrVPHZPchKuPCYuIpDG2,Rvut4qHuFrVPHZPchKuPCYuIpDG2,,,,,,,,,,,,,,,,,,750.0,,,,5bf8a27021a4e1000194fc76,15:37:39,26/03/2024
html-keyboard-response,168,334650,0.0-69.0-3.0,,<div style='margin:auto;width: auto; font-size: 150%'><span style='font-weight: bold; font-size: 100px; color: red;'>0 points!</span><br><br></div>,,delaylearn,learning,feedback_image_window,Rvut4qHuFrVPHZPchKuPCYuIpDG2,Rvut4qHuFrVPHZPchKuPCYuIpDG2,,,,,,,,,,,,,,,,,,,,,,5bf8a27021a4e1000194fc76,15:37:39,26/03/2024
html-keyboard-response,169,335151,0.0-70.0-0.0,,,,,,mood_trial_fixation,Rvut4qHuFrVPHZPchKuPCYuIpDG2,,,,,,,,,,,,,,,,,,,,,,,5bf8a27021a4e1000194fc76,15:37:39,26/03/2024
lmdlab-html-vas-response,170,339780,0.0-70.0-1.0,3620.0,How happy are you right now?,0.4185185185185185,delaylearn,learning,mood_trial,Rvut4qHuFrVPHZPchKuPCYuIpDG2,Rvut4qHuFrVPHZPchKuPCYuIpDG2,,,,,,,,,,,,,,,,,,,,"['Very unhappy', 'Very happy']",,5bf8a27021a4e1000194fc76,15:37:39,26/03/2024
html-keyboard-response,171,341340,0.0-71.0,,"<div style=""font-size:100px;"">+</div>",,delaylearn,learning,ITI,Rvut4qHuFrVPHZPchKuPCYuIpDG2,Rvut4qHuFrVPHZPchKuPCYuIpDG2,,,,,,,,,,,,,,,,,,,1549.0,,,5bf8a27021a4e1000194fc76,15:37:39,26/03/2024
html-keyboard-response,172,342476,0.0-72.0-0.0,1133.0,"<div style=""display: flex; flex-direction: column; align-items: center; margin-top: -40px;""><img src=""images/pattern_4.png"" style=""width: 234px; height: 230px; margin-top: -50px;""><div style=""display: flex; justify-content: space-between; margin-top: 33px;""><img src=""images/choice_trial_4.png"" style=""width: 408px; height: 417px; margin-right: 200px;""><img src=""images/choice_trial_11.png"" style=""width: 408px; height: 417px;""></div></div>",j,delaylearn,learning,trial,Rvut4qHuFrVPHZPchKuPCYuIpDG2,Rvut4qHuFrVPHZPchKuPCYuIpDG2,5.0,images/choice_trial_4.png,images/choice_trial_11.png,images/pattern_4.png,j,j,7000.0,4.0,11.0,3.0,1.0,31.0,1.0,1.0,11.0,220.0,,,,,,5bf8a27021a4e1000194fc76,15:37:39,26/03/2024
html-keyboard-response,173,343479,0.0-72.0-1.0,,"<div style=""display: flex; flex-direction: column; align-items: center; margin-top: -40px;""><img src=""images/pattern_4.png"" style=""width: 234px; height: 230px; margin-top: -50px;""><div style=""display: flex; justify-content: space-between; margin-top: 33px;""><img src=""images/choice_trial_11.png"" style=""width: 408px; height: 417px; margin-left:608px;""></div></div>",,delaylearn,learning,display_response,Rvut4qHuFrVPHZPchKuPCYuIpDG2,Rvut4qHuFrVPHZPchKuPCYuIpDG2,,,,,,,,,,,,,,,,,chosen stimuli: images/choice_trial_11.png,,,,,5bf8a27021a4e1000194fc76,15:37:39,26/03/2024
html-keyboard-response,174,350487,0.0-72.0-2.0,,,,delaylearn,learning,feedback_duration_window,Rvut4qHuFrVPHZPchKuPCYuIpDG2,Rvut4qHuFrVPHZPchKuPCYuIpDG2,,,,,,,,,,,,,,,,,,7000.0,,,,5bf8a27021a4e1000194fc76,15:37:39,26/03/2024
html-keyboard-response,175,351995,0.0-72.0-3.0,,<div style='margin:auto;width: auto; font-size: 150%'><span style='font-weight: bold; font-size: 100px; color: green;'>+10 points!</span><br><br></div>,,delaylearn,learning,feedback_image_window,Rvut4qHuFrVPHZPchKuPCYuIpDG2,Rvut4qHuFrVPHZPchKuPCYuIpDG2,,,,,,,,,,,,,,,,,,,,,,5bf8a27021a4e1000194fc76,15:37:39,26/03/2024
html-keyboard-response,176,353908,0.0-73.0,,"<div style=""font-size:100px;"">+</div>",,delaylearn,learning,ITI,Rvut4qHuFrVPHZPchKuPCYuIpDG2,Rvut4qHuFrVPHZPchKuPCYuIpDG2,,,,,,,,,,,,,,,,,,,1907.0,,,5bf8a27021a4e1000194fc76,15:37:39,26/03/2024
html-keyboard-response,177,354835,0.0-74.0-0.0,925.0,"<div style=""display: flex; flex-direction: column; align-items: center; margin-top: -40px;""><img src=""images/pattern_3.png"" style=""width: 234px; height: 230px; margin-top: -50px;""><div style=""display: flex; justify-content: space-between; margin-top: 33px;""><img src=""images/choice_trial_2.png"" style=""width: 408px; height: 417px; margin-right: 200px;""><img src=""images/choice_trial_16.png"" style=""width: 408px; height: 417px;""></div></div>",j,delaylearn,learning,trial,Rvut4qHuFrVPHZPchKuPCYuIpDG2,Rvut4qHuFrVPHZPchKuPCYuIpDG2,5.0,images/choice_trial_2.png,images/choice_trial_16.png,images/pattern_3.png,j,j,7000.0,2.0,16.0,2.0,1.0,32.0,1.0,1.0,16.0,230.0,,,,,,5bf8a27021a4e1000194fc76,15:37:39,26/03/2024
html-keyboard-response,178,355837,0.0-74.0-1.0,,"<div style=""display: flex; flex-direction: column; align-items: center; margin-top: -40px;""><img src=""images/pattern_3.png"" style=""width: 234px; height: 230px; margin-top: -50px;""><div style=""display: flex; justify-content: space-between; margin-top: 33px;""><img src=""images/choice_trial_16.png"" style=""width: 408px; height: 417px; margin-left:608px;""></div></div>",,delaylearn,learning,display_response,Rvut4qHuFrVPHZPchKuPCYuIpDG2,Rvut4qHuFrVPHZPchKuPCYuIpDG2,,,,,,,,,,,,,,,,,chosen stimuli: images/choice_trial_16.png,,,,,5bf8a27021a4e1000194fc76,15:37:39,26/03/2024
html-keyboard-response,179,362842,0.0-74.0-2.0,,,,delaylearn,learning,feedback_duration_window,Rvut4qHuFrVPHZPchKuPCYuIpDG2,Rvut4qHuFrVPHZPchKuPCYuIpDG2,,,,,,,,,,,,,,,,,,7000.0,,,,5bf8a27021a4e1000194fc76,15:37:39,26/03/2024
html-keyboard-response,180,364351,0.0-74.0-3.0,,<div style='margin:auto;width: auto; font-size: 150%'><span style='font-weight: bold; font-size: 100px; color: green;'>+10 points!</span><br><br></div>,,delaylearn,learning,feedback_image_window,Rvut4qHuFrVPHZPchKuPCYuIpDG2,Rvut4qHuFrVPHZPchKuPCYuIpDG2,,,,,,,,,,,,,,,,,,,,,,5bf8a27021a4e1000194fc76,15:37:39,26/03/2024
html-keyboard-response,181,366662,0.0-75.0,,"<div style=""font-size:100px;"">+</div>",,delaylearn,learning,ITI,Rvut4qHuFrVPHZPchKuPCYuIpDG2,Rvut4qHuFrVPHZPchKuPCYuIpDG2,,,,,,,,,,,,,,,,,,,2304.0,,,5bf8a27021a4e1000194fc76,15:37:39,26/03/2024
html-keyboard-response,182,368567,0.0-76.0-0.0,1901.0,"<div style=""display: flex; flex-direction: column; align-items: center; margin-top: -40px;""><img src=""images/pattern_5.png"" style=""width: 234px; height: 230px; margin-top: -50px;""><div style=""display: flex; justify-content: space-between; margin-top: 33px;""><img src=""images/choice_trial_7.png"" style=""width: 408px; height: 417px; margin-right: 200px;""><img src=""images/choice_trial_13.png"" style=""width: 408px; height: 417px;""></div></div>",f,delaylearn,learning,trial,Rvut4qHuFrVPHZPchKuPCYuIpDG2,Rvut4qHuFrVPHZPchKuPCYuIpDG2,5.0,images/choice_trial_7.png,images/choice_trial_13.png,images/pattern_5.png,j,f,750.0,7.0,13.0,4.0,0.0,33.0,1.0,0.0,7.0,230.0,,,,,,5bf8a27021a4e1000194fc76,15:37:39,26/03/2024
html-keyboard-response,183,369573,0.0-76.0-1.0,,"<div style=""display: flex; flex-direction: column; align-items: center; margin-top: -40px;""><img src=""images/pattern_5.png"" style=""width: 234px; height: 230px; margin-top: -50px;""><div style=""display: flex; justify-content: space-between; margin-top: 33px;""><img src=""images/choice_trial_7.png"" style=""width: 408px; height: 417px; margin-right: 608px;""></div></div>",,delaylearn,learning,display_response,Rvut4qHuFrVPHZPchKuPCYuIpDG2,Rvut4qHuFrVPHZPchKuPCYuIpDG2,,,,,,,,,,,,,,,,,chosen stimuli: images/choice_trial_7.png,,,,,5bf8a27021a4e1000194fc76,15:37:39,26/03/2024
html-keyboard-response,184,370327,0.0-76.0-2.0,,,,delaylearn,learning,feedback_duration_window,Rvut4qHuFrVPHZPchKuPCYuIpDG2,Rvut4qHuFrVPHZPchKuPCYuIpDG2,,,,,,,,,,,,,,,,,,750.0,,,,5bf8a27021a4e1000194fc76,15:37:39,26/03/2024
html-keyboard-response,185,371828,0.0-76.0-3.0,,<div style='margin:auto;width: auto; font-size: 150%'><span style='font-weight: bold; font-size: 100px; color: red;'>0 points!</span><br><br></div>,,delaylearn,learning,feedback_image_window,Rvut4qHuFrVPHZPchKuPCYuIpDG2,Rvut4qHuFrVPHZPchKuPCYuIpDG2,,,,,,,,,,,,,,,,,,,,,,5bf8a27021a4e1000194fc76,15:37:39,26/03/2024
html-keyboard-response,186,373568,0.0-77.0,,"<div style=""font-size:100px;"">+</div>",,delaylearn,learning,ITI,Rvut4qHuFrVPHZPchKuPCYuIpDG2,Rvut4qHuFrVPHZPchKuPCYuIpDG2,,,,,,,,,,,,,,,,,,,1700.0,,,5bf8a27021a4e1000194fc76,15:37:39,26/03/2024
html-keyboard-response,187,375782,0.0-78.0-0.0,2209.0,"<div style=""display: flex; flex-direction: column; align-items: center; margin-top: -40px;""><img src=""images/pattern_1.png"" style=""width: 234px; height: 230px; margin-top: -50px;""><div style=""display: flex; justify-content: space-between; margin-top: 33px;""><img src=""images/choice_trial_6.png"" style=""width: 408px; height: 417px; margin-right: 200px;""><img src=""images/choice_trial_15.png"" style=""width: 408px; height: 417px;""></div></div>",f,delaylearn,learning,trial,Rvut4qHuFrVPHZPchKuPCYuIpDG2,Rvut4qHuFrVPHZPchKuPCYuIpDG2,5.0,images/choice_trial_6.png,images/choice_trial_15.png,images/pattern_1.png,f,f,7000.0,6.0,15.0,1.0,0.0,34.0,1.0,1.0,6.0,240.0,,,,,,5bf8a27021a4e1000194fc76,15:37:39,26/03/2024
html-keyboard-response,188,376833,0.0-78.0-1.0,,"<div style=""display: flex; flex-direction: column; align-items: center; margin-top: -40px;""><img src=""images/pattern_1.png"" style=""width: 234px; height: 230px; margin-top: -50px;""><div style=""display: flex; justify-content: space-between; margin-top: 33px;""><img src=""images/choice_trial_6.png"" style=""width: 408px; height: 417px; margin-right: 608px;""></div></div>",,delaylearn,learning,display_response,Rvut4qHuFrVPHZPchKuPCYuIpDG2,Rvut4qHuFrVPHZPchKuPCYuIpDG2,,,,,,,,,,,,,,,,,chosen stimuli: images/choice_trial_6.png,,,,,5bf8a27021a4e1000194fc76,15:37:39,26/03/2024
html-keyboard-response,189,383857,0.0-78.0-2.0,,,,delaylearn,learning,feedback_duration_window,Rvut4qHuFrVPHZPchKuPCYuIpDG2,Rvut4qHuFrVPHZPchKuPCYuIpDG2,,,,,,,,,,,,,,,,,,7000.0,,,,5bf8a27021a4e1000194fc76,15:37:39,26/03/2024
html-keyboard-response,190,385360,0.0-78.0-3.0,,<div style='margin:auto;width: auto; font-size: 150%'><span style='font-weight: bold; font-size: 100px; color: green;'>+10 points!</span><br><br></div>,,delaylearn,learning,feedback_image_window,Rvut4qHuFrVPHZPchKuPCYuIpDG2,Rvut4qHuFrVPHZPchKuPCYuIpDG2,,,,,,,,,,,,,,,,,,,,,,5bf8a27021a4e1000194fc76,15:37:39,26/03/2024
html-keyboard-response,191,385866,0.0-79.0-0.0,,,,,,mood_trial_fixation,Rvut4qHuFrVPHZPchKuPCYuIpDG2,,,,,,,,,,,,,,,,,,,,,,,5bf8a27021a4e1000194fc76,15:37:39,26/03/2024
lmdlab-html-vas-response,192,389699,0.0-79.0-1.0,2800.0,How happy are you right now?,0.49444444444444446,delaylearn,learning,mood_trial,Rvut4qHuFrVPHZPchKuPCYuIpDG2,Rvut4qHuFrVPHZPchKuPCYuIpDG2,,,,,,,,,,,,,,,,,,,,"['Very unhappy', 'Very happy']",,5bf8a27021a4e1000194fc76,15:37:39,26/03/2024
html-keyboard-response,193,391470,0.0-80.0,,"<div style=""font-size:100px;"">+</div>",,delaylearn,learning,ITI,Rvut4qHuFrVPHZPchKuPCYuIpDG2,Rvut4qHuFrVPHZPchKuPCYuIpDG2,,,,,,,,,,,,,,,,,,,1764.0,,,5bf8a27021a4e1000194fc76,15:37:39,26/03/2024
html-keyboard-response,194,392416,0.0-81.0-0.0,944.0,"<div style=""display: flex; flex-direction: column; align-items: center; margin-top: -40px;""><img src=""images/pattern_6.png"" style=""width: 234px; height: 230px; margin-top: -50px;""><div style=""display: flex; justify-content: space-between; margin-top: 33px;""><img src=""images/choice_trial_14.png"" style=""width: 408px; height: 417px; margin-right: 200px;""><img src=""images/choice_trial_9.png"" style=""width: 408px; height: 417px;""></div></div>",j,delaylearn,learning,trial,Rvut4qHuFrVPHZPchKuPCYuIpDG2,Rvut4qHuFrVPHZPchKuPCYuIpDG2,5.0,images/choice_trial_14.png,images/choice_trial_9.png,images/pattern_6.png,j,f,750.0,14.0,9.0,5.0,0.0,35.0,0.0,1.0,9.0,250.0,,,,,,5bf8a27021a4e1000194fc76,15:37:39,26/03/2024
html-keyboard-response,195,393418,0.0-81.0-1.0,,"<div style=""display: flex; flex-direction: column; align-items: center; margin-top: -40px;""><img src=""images/pattern_6.png"" style=""width: 234px; height: 230px; margin-top: -50px;""><div style=""display: flex; justify-content: space-between; margin-top: 33px;""><img src=""images/choice_trial_9.png"" style=""width: 408px; height: 417px; margin-left:608px;""></div></div>",,delaylearn,learning,display_response,Rvut4qHuFrVPHZPchKuPCYuIpDG2,Rvut4qHuFrVPHZPchKuPCYuIpDG2,,,,,,,,,,,,,,,,,chosen stimuli: images/choice_trial_9.png,,,,,5bf8a27021a4e1000194fc76,15:37:39,26/03/2024
html-keyboard-response,196,394175,0.0-81.0-2.0,,,,delaylearn,learning,feedback_duration_window,Rvut4qHuFrVPHZPchKuPCYuIpDG2,Rvut4qHuFrVPHZPchKuPCYuIpDG2,,,,,,,,,,,,,,,,,,750.0,,,,5bf8a27021a4e1000194fc76,15:37:39,26/03/2024
html-keyboard-response,197,395680,0.0-81.0-3.0,,<div style='margin:auto;width: auto; font-size: 150%'><span style='font-weight: bold; font-size: 100px; color: green;'>+10 points!</span><br><br></div>,,delaylearn,learning,feedback_image_window,Rvut4qHuFrVPHZPchKuPCYuIpDG2,Rvut4qHuFrVPHZPchKuPCYuIpDG2,,,,,,,,,,,,,,,,,,,,,,5bf8a27021a4e1000194fc76,15:37:39,26/03/2024
html-keyboard-response,198,397685,0.0-82.0,,"<div style=""font-size:100px;"">+</div>",,delaylearn,learning,ITI,Rvut4qHuFrVPHZPchKuPCYuIpDG2,Rvut4qHuFrVPHZPchKuPCYuIpDG2,,,,,,,,,,,,,,,,,,,2002.0,,,5bf8a27021a4e1000194fc76,15:37:39,26/03/2024
html-keyboard-response,199,399326,0.0-83.0-0.0,1637.0,"<div style=""display: flex; flex-direction: column; align-items: center; margin-top: -40px;""><img src=""images/pattern_3.png"" style=""width: 234px; height: 230px; margin-top: -50px;""><div style=""display: flex; justify-content: space-between; margin-top: 33px;""><img src=""images/choice_trial_2.png"" style=""width: 408px; height: 417px; margin-right: 200px;""><img src=""images/choice_trial_16.png"" style=""width: 408px; height: 417px;""></div></div>",j,delaylearn,learning,trial,Rvut4qHuFrVPHZPchKuPCYuIpDG2,Rvut4qHuFrVPHZPchKuPCYuIpDG2,5.0,images/choice_trial_2.png,images/choice_trial_16.png,images/pattern_3.png,j,j,7000.0,2.0,16.0,2.0,1.0,36.0,1.0,1.0,16.0,260.0,,,,,,5bf8a27021a4e1000194fc76,15:37:39,26/03/2024
html-keyboard-response,200,400333,0.0-83.0-1.0,,"<div style=""display: flex; flex-direction: column; align-items: center; margin-top: -40px;""><img src=""images/pattern_3.png"" style=""width: 234px; height: 230px; margin-top: -50px;""><div style=""display: flex; justify-content: space-between; margin-top: 33px;""><img src=""images/choice_trial_16.png"" style=""width: 408px; height: 417px; margin-left:608px;""></div></div>",,delaylearn,learning,display_response,Rvut4qHuFrVPHZPchKuPCYuIpDG2,Rvut4qHuFrVPHZPchKuPCYuIpDG2,,,,,,,,,,,,,,,,,chosen stimuli: images/choice_trial_16.png,,,,,5bf8a27021a4e1000194fc76,15:37:39,26/03/2024
html-keyboard-response,201,407338,0.0-83.0-2.0,,,,delaylearn,learning,feedback_duration_window,Rvut4qHuFrVPHZPchKuPCYuIpDG2,Rvut4qHuFrVPHZPchKuPCYuIpDG2,,,,,,,,,,,,,,,,,,7000.0,,,,5bf8a27021a4e1000194fc76,15:37:39,26/03/2024
html-keyboard-response,202,408841,0.0-83.0-3.0,,<div style='margin:auto;width: auto; font-size: 150%'><span style='font-weight: bold; font-size: 100px; color: green;'>+10 points!</span><br><br></div>,,delaylearn,learning,feedback_image_window,Rvut4qHuFrVPHZPchKuPCYuIpDG2,Rvut4qHuFrVPHZPchKuPCYuIpDG2,,,,,,,,,,,,,,,,,,,,,,5bf8a27021a4e1000194fc76,15:37:39,26/03/2024
html-keyboard-response,203,410552,0.0-84.0,,"<div style=""font-size:100px;"">+</div>",,delaylearn,learning,ITI,Rvut4qHuFrVPHZPchKuPCYuIpDG2,Rvut4qHuFrVPHZPchKuPCYuIpDG2,,,,,,,,,,,,,,,,,,,1704.0,,,5bf8a27021a4e1000194fc76,15:37:39,26/03/2024
html-keyboard-response,204,411579,0.0-85.0-0.0,1023.0,"<div style=""display: flex; flex-direction: column; align-items: center; margin-top: -40px;""><img src=""images/pattern_4.png"" style=""width: 234px; height: 230px; margin-top: -50px;""><div style=""display: flex; justify-content: space-between; margin-top: 33px;""><img src=""images/choice_trial_4.png"" style=""width: 408px; height: 417px; margin-right: 200px;""><img src=""images/choice_trial_11.png"" style=""width: 408px; height: 417px;""></div></div>",j,delaylearn,learning,trial,Rvut4qHuFrVPHZPchKuPCYuIpDG2,Rvut4qHuFrVPHZPchKuPCYuIpDG2,5.0,images/choice_trial_4.png,images/choice_trial_11.png,images/pattern_4.png,f,j,7000.0,4.0,11.0,3.0,1.0,37.0,1.0,0.0,11.0,260.0,,,,,,5bf8a27021a4e1000194fc76,15:37:39,26/03/2024
html-keyboard-response,205,412582,0.0-85.0-1.0,,"<div style=""display: flex; flex-direction: column; align-items: center; margin-top: -40px;""><img src=""images/pattern_4.png"" style=""width: 234px; height: 230px; margin-top: -50px;""><div style=""display: flex; justify-content: space-between; margin-top: 33px;""><img src=""images/choice_trial_11.png"" style=""width: 408px; height: 417px; margin-left:608px;""></div></div>",,delaylearn,learning,display_response,Rvut4qHuFrVPHZPchKuPCYuIpDG2,Rvut4qHuFrVPHZPchKuPCYuIpDG2,,,,,,,,,,,,,,,,,chosen stimuli: images/choice_trial_11.png,,,,,5bf8a27021a4e1000194fc76,15:37:39,26/03/2024
html-keyboard-response,206,419586,0.0-85.0-2.0,,,,delaylearn,learning,feedback_duration_window,Rvut4qHuFrVPHZPchKuPCYuIpDG2,Rvut4qHuFrVPHZPchKuPCYuIpDG2,,,,,,,,,,,,,,,,,,7000.0,,,,5bf8a27021a4e1000194fc76,15:37:39,26/03/2024
html-keyboard-response,207,421094,0.0-85.0-3.0,,<div style='margin:auto;width: auto; font-size: 150%'><span style='font-weight: bold; font-size: 100px; color: red;'>0 points!</span><br><br></div>,,delaylearn,learning,feedback_image_window,Rvut4qHuFrVPHZPchKuPCYuIpDG2,Rvut4qHuFrVPHZPchKuPCYuIpDG2,,,,,,,,,,,,,,,,,,,,,,5bf8a27021a4e1000194fc76,15:37:39,26/03/2024
html-keyboard-response,208,422947,0.0-86.0,,"<div style=""font-size:100px;"">+</div>",,delaylearn,learning,ITI,Rvut4qHuFrVPHZPchKuPCYuIpDG2,Rvut4qHuFrVPHZPchKuPCYuIpDG2,,,,,,,,,,,,,,,,,,,1846.0,,,5bf8a27021a4e1000194fc76,15:37:39,26/03/2024
html-keyboard-response,209,424264,0.0-87.0-0.0,1313.0,"<div style=""display: flex; flex-direction: column; align-items: center; margin-top: -40px;""><img src=""images/pattern_7.png"" style=""width: 234px; height: 230px; margin-top: -50px;""><div style=""display: flex; justify-content: space-between; margin-top: 33px;""><img src=""images/choice_trial_8.png"" style=""width: 408px; height: 417px; margin-right: 200px;""><img src=""images/choice_trial_10.png"" style=""width: 408px; height: 417px;""></div></div>",f,delaylearn,learning,trial,Rvut4qHuFrVPHZPchKuPCYuIpDG2,Rvut4qHuFrVPHZPchKuPCYuIpDG2,5.0,images/choice_trial_8.png,images/choice_trial_10.png,images/pattern_7.png,f,f,750.0,8.0,10.0,6.0,0.0,38.0,1.0,1.0,8.0,270.0,,,,,,5bf8a27021a4e1000194fc76,15:37:39,26/03/2024
html-keyboard-response,210,425267,0.0-87.0-1.0,,"<div style=""display: flex; flex-direction: column; align-items: center; margin-top: -40px;""><img src=""images/pattern_7.png"" style=""width: 234px; height: 230px; margin-top: -50px;""><div style=""display: flex; justify-content: space-between; margin-top: 33px;""><img src=""images/choice_trial_8.png"" style=""width: 408px; height: 417px; margin-right: 608px;""></div></div>",,delaylearn,learning,display_response,Rvut4qHuFrVPHZPchKuPCYuIpDG2,Rvut4qHuFrVPHZPchKuPCYuIpDG2,,,,,,,,,,,,,,,,,chosen stimuli: images/choice_trial_8.png,,,,,5bf8a27021a4e1000194fc76,15:37:39,26/03/2024
html-keyboard-response,211,426021,0.0-87.0-2.0,,,,delaylearn,learning,feedback_duration_window,Rvut4qHuFrVPHZPchKuPCYuIpDG2,Rvut4qHuFrVPHZPchKuPCYuIpDG2,,,,,,,,,,,,,,,,,,750.0,,,,5bf8a27021a4e1000194fc76,15:37:39,26/03/2024
html-keyboard-response,212,427525,0.0-87.0-3.0,,<div style='margin:auto;width: auto; font-size: 150%'><span style='font-weight: bold; font-size: 100px; color: green;'>+10 points!</span><br><br></div>,,delaylearn,learning,feedback_image_window,Rvut4qHuFrVPHZPchKuPCYuIpDG2,Rvut4qHuFrVPHZPchKuPCYuIpDG2,,,,,,,,,,,,,,,,,,,,,,5bf8a27021a4e1000194fc76,15:37:39,26/03/2024
html-keyboard-response,213,429519,0.0-88.0,,"<div style=""font-size:100px;"">+</div>",,delaylearn,learning,ITI,Rvut4qHuFrVPHZPchKuPCYuIpDG2,Rvut4qHuFrVPHZPchKuPCYuIpDG2,,,,,,,,,,,,,,,,,,,1988.0,,,5bf8a27021a4e1000194fc76,15:37:39,26/03/2024
html-keyboard-response,214,431122,0.0-89.0-0.0,1599.0,"<div style=""display: flex; flex-direction: column; align-items: center; margin-top: -40px;""><img src=""images/pattern_1.png"" style=""width: 234px; height: 230px; margin-top: -50px;""><div style=""display: flex; justify-content: space-between; margin-top: 33px;""><img src=""images/choice_trial_6.png"" style=""width: 408px; height: 417px; margin-right: 200px;""><img src=""images/choice_trial_15.png"" style=""width: 408px; height: 417px;""></div></div>",f,delaylearn,learning,trial,Rvut4qHuFrVPHZPchKuPCYuIpDG2,Rvut4qHuFrVPHZPchKuPCYuIpDG2,5.0,images/choice_trial_6.png,images/choice_trial_15.png,images/pattern_1.png,f,f,7000.0,6.0,15.0,1.0,0.0,39.0,1.0,1.0,6.0,280.0,,,,,,5bf8a27021a4e1000194fc76,15:37:39,26/03/2024
html-keyboard-response,215,432125,0.0-89.0-1.0,,"<div style=""display: flex; flex-direction: column; align-items: center; margin-top: -40px;""><img src=""images/pattern_1.png"" style=""width: 234px; height: 230px; margin-top: -50px;""><div style=""display: flex; justify-content: space-between; margin-top: 33px;""><img src=""images/choice_trial_6.png"" style=""width: 408px; height: 417px; margin-right: 608px;""></div></div>",,delaylearn,learning,display_response,Rvut4qHuFrVPHZPchKuPCYuIpDG2,Rvut4qHuFrVPHZPchKuPCYuIpDG2,,,,,,,,,,,,,,,,,chosen stimuli: images/choice_trial_6.png,,,,,5bf8a27021a4e1000194fc76,15:37:39,26/03/2024
html-keyboard-response,216,439131,0.0-89.0-2.0,,,,delaylearn,learning,feedback_duration_window,Rvut4qHuFrVPHZPchKuPCYuIpDG2,Rvut4qHuFrVPHZPchKuPCYuIpDG2,,,,,,,,,,,,,,,,,,7000.0,,,,5bf8a27021a4e1000194fc76,15:37:39,26/03/2024
html-keyboard-response,217,440636,0.0-89.0-3.0,,<div style='margin:auto;width: auto; font-size: 150%'><span style='font-weight: bold; font-size: 100px; color: green;'>+10 points!</span><br><br></div>,,delaylearn,learning,feedback_image_window,Rvut4qHuFrVPHZPchKuPCYuIpDG2,Rvut4qHuFrVPHZPchKuPCYuIpDG2,,,,,,,,,,,,,,,,,,,,,,5bf8a27021a4e1000194fc76,15:37:39,26/03/2024
html-keyboard-response,218,441138,0.0-90.0-0.0,,,,,,mood_trial_fixation,Rvut4qHuFrVPHZPchKuPCYuIpDG2,,,,,,,,,,,,,,,,,,,,,,,5bf8a27021a4e1000194fc76,15:37:39,26/03/2024
lmdlab-html-vas-response,219,444886,0.0-90.0-1.0,2739.0,How happy are you right now?,0.4981481481481482,delaylearn,learning,mood_trial,Rvut4qHuFrVPHZPchKuPCYuIpDG2,Rvut4qHuFrVPHZPchKuPCYuIpDG2,,,,,,,,,,,,,,,,,,,,"['Very unhappy', 'Very happy']",,5bf8a27021a4e1000194fc76,15:37:39,26/03/2024
html-keyboard-response,220,446848,0.0-91.0,,"<div style=""font-size:100px;"">+</div>",,delaylearn,learning,ITI,Rvut4qHuFrVPHZPchKuPCYuIpDG2,Rvut4qHuFrVPHZPchKuPCYuIpDG2,,,,,,,,,,,,,,,,,,,1954.0,,,5bf8a27021a4e1000194fc76,15:37:39,26/03/2024
html-keyboard-response,221,448070,0.0-92.0-0.0,1216.0,"<div style=""display: flex; flex-direction: column; align-items: center; margin-top: -40px;""><img src=""images/pattern_3.png"" style=""width: 234px; height: 230px; margin-top: -50px;""><div style=""display: flex; justify-content: space-between; margin-top: 33px;""><img src=""images/choice_trial_16.png"" style=""width: 408px; height: 417px; margin-right: 200px;""><img src=""images/choice_trial_2.png"" style=""width: 408px; height: 417px;""></div></div>",f,delaylearn,learning,trial,Rvut4qHuFrVPHZPchKuPCYuIpDG2,Rvut4qHuFrVPHZPchKuPCYuIpDG2,5.0,images/choice_trial_16.png,images/choice_trial_2.png,images/pattern_3.png,j,f,7000.0,16.0,2.0,2.0,0.0,40.0,1.0,0.0,16.0,280.0,,,,,,5bf8a27021a4e1000194fc76,15:37:39,26/03/2024
html-keyboard-response,222,449077,0.0-92.0-1.0,,"<div style=""display: flex; flex-direction: column; align-items: center; margin-top: -40px;""><img src=""images/pattern_3.png"" style=""width: 234px; height: 230px; margin-top: -50px;""><div style=""display: flex; justify-content: space-between; margin-top: 33px;""><img src=""images/choice_trial_16.png"" style=""width: 408px; height: 417px; margin-right: 608px;""></div></div>",,delaylearn,learning,display_response,Rvut4qHuFrVPHZPchKuPCYuIpDG2,Rvut4qHuFrVPHZPchKuPCYuIpDG2,,,,,,,,,,,,,,,,,chosen stimuli: images/choice_trial_16.png,,,,,5bf8a27021a4e1000194fc76,15:37:39,26/03/2024
html-keyboard-response,223,456081,0.0-92.0-2.0,,,,delaylearn,learning,feedback_duration_window,Rvut4qHuFrVPHZPchKuPCYuIpDG2,Rvut4qHuFrVPHZPchKuPCYuIpDG2,,,,,,,,,,,,,,,,,,7000.0,,,,5bf8a27021a4e1000194fc76,15:37:39,26/03/2024
html-keyboard-response,224,457584,0.0-92.0-3.0,,<div style='margin:auto;width: auto; font-size: 150%'><span style='font-weight: bold; font-size: 100px; color: red;'>0 points!</span><br><br></div>,,delaylearn,learning,feedback_image_window,Rvut4qHuFrVPHZPchKuPCYuIpDG2,Rvut4qHuFrVPHZPchKuPCYuIpDG2,,,,,,,,,,,,,,,,,,,,,,5bf8a27021a4e1000194fc76,15:37:39,26/03/2024
html-keyboard-response,225,459974,0.0-93.0,,"<div style=""font-size:100px;"">+</div>",,delaylearn,learning,ITI,Rvut4qHuFrVPHZPchKuPCYuIpDG2,Rvut4qHuFrVPHZPchKuPCYuIpDG2,,,,,,,,,,,,,,,,,,,2383.0,,,5bf8a27021a4e1000194fc76,15:37:39,26/03/2024
html-keyboard-response,226,460872,0.0-94.0-0.0,894.0,"<div style=""display: flex; flex-direction: column; align-items: center; margin-top: -40px;""><img src=""images/pattern_7.png"" style=""width: 234px; height: 230px; margin-top: -50px;""><div style=""display: flex; justify-content: space-between; margin-top: 33px;""><img src=""images/choice_trial_10.png"" style=""width: 408px; height: 417px; margin-right: 200px;""><img src=""images/choice_trial_8.png"" style=""width: 408px; height: 417px;""></div></div>",j,delaylearn,learning,trial,Rvut4qHuFrVPHZPchKuPCYuIpDG2,Rvut4qHuFrVPHZPchKuPCYuIpDG2,5.0,images/choice_trial_10.png,images/choice_trial_8.png,images/pattern_7.png,j,j,750.0,10.0,8.0,6.0,1.0,41.0,1.0,1.0,8.0,290.0,,,,,,5bf8a27021a4e1000194fc76,15:37:39,26/03/2024
html-keyboard-response,227,461878,0.0-94.0-1.0,,"<div style=""display: flex; flex-direction: column; align-items: center; margin-top: -40px;""><img src=""images/pattern_7.png"" style=""width: 234px; height: 230px; margin-top: -50px;""><div style=""display: flex; justify-content: space-between; margin-top: 33px;""><img src=""images/choice_trial_8.png"" style=""width: 408px; height: 417px; margin-left:608px;""></div></div>",,delaylearn,learning,display_response,Rvut4qHuFrVPHZPchKuPCYuIpDG2,Rvut4qHuFrVPHZPchKuPCYuIpDG2,,,,,,,,,,,,,,,,,chosen stimuli: images/choice_trial_8.png,,,,,5bf8a27021a4e1000194fc76,15:37:39,26/03/2024
html-keyboard-response,228,462634,0.0-94.0-2.0,,,,delaylearn,learning,feedback_duration_window,Rvut4qHuFrVPHZPchKuPCYuIpDG2,Rvut4qHuFrVPHZPchKuPCYuIpDG2,,,,,,,,,,,,,,,,,,750.0,,,,5bf8a27021a4e1000194fc76,15:37:39,26/03/2024
html-keyboard-response,229,464137,0.0-94.0-3.0,,<div style='margin:auto;width: auto; font-size: 150%'><span style='font-weight: bold; font-size: 100px; color: green;'>+10 points!</span><br><br></div>,,delaylearn,learning,feedback_image_window,Rvut4qHuFrVPHZPchKuPCYuIpDG2,Rvut4qHuFrVPHZPchKuPCYuIpDG2,,,,,,,,,,,,,,,,,,,,,,5bf8a27021a4e1000194fc76,15:37:39,26/03/2024
html-keyboard-response,230,466562,0.0-95.0,,"<div style=""font-size:100px;"">+</div>",,delaylearn,learning,ITI,Rvut4qHuFrVPHZPchKuPCYuIpDG2,Rvut4qHuFrVPHZPchKuPCYuIpDG2,,,,,,,,,,,,,,,,,,,2417.0,,,5bf8a27021a4e1000194fc76,15:37:39,26/03/2024
html-keyboard-response,231,467822,0.0-96.0-0.0,1257.0,"<div style=""display: flex; flex-direction: column; align-items: center; margin-top: -40px;""><img src=""images/pattern_5.png"" style=""width: 234px; height: 230px; margin-top: -50px;""><div style=""display: flex; justify-content: space-between; margin-top: 33px;""><img src=""images/choice_trial_13.png"" style=""width: 408px; height: 417px; margin-right: 200px;""><img src=""images/choice_trial_7.png"" style=""width: 408px; height: 417px;""></div></div>",j,delaylearn,learning,trial,Rvut4qHuFrVPHZPchKuPCYuIpDG2,Rvut4qHuFrVPHZPchKuPCYuIpDG2,5.0,images/choice_trial_13.png,images/choice_trial_7.png,images/pattern_5.png,j,j,750.0,13.0,7.0,4.0,1.0,42.0,1.0,1.0,7.0,300.0,,,,,,5bf8a27021a4e1000194fc76,15:37:39,26/03/2024
