trial_type,trial_index,time_elapsed,internal_node_id,rt,stimulus,response,exp_name,exp_stage,test_part,subjectID,databaseID,counterbal,choice_stimuli_1,choice_stimuli_2,pattern_stimuli,rewarded_answer,correct_answer,feedback_duration_times,stim_left,stim_right,pair,leftright_counter,trial,response_correct,response_rewarded,chosen_stim,counter,displayed_choice,feedback_durations,ITI_duration,labels,rest_warning,prolificID,start_time,date
pavlovia,0,656,0.0-0.0,,,,,,,4sB1vWlK4ZRxFuxaSlueZMJ7w1i1,,,,,,,,,,,,,,,,,,,,,,,60db09ba98a44872897cc587,09:06:25,27/02/2024
html-keyboard-response,1,3668,0.0-1.0,,"<div style=""font-size:100px;"">+</div>",,delaylearn,learning,pre_fixation,4sB1vWlK4ZRxFuxaSlueZMJ7w1i1,,,,,,,,,,,,,,,,,,,,,,,60db09ba98a44872897cc587,09:06:25,27/02/2024
html-keyboard-response,2,5332,0.0-2.0-0.0,1660.5,"<div style=""display: flex; flex-direction: column; align-items: center; margin-top: -40px;""><img src=""images/demo_images/pattern_1.png"" style=""width: 234px; height: 230px; margin-top: -50px;""><div style=""display: flex; justify-content: space-between; margin-top: 33px;""><img src=""images/demo_images/choice_trial_2.png"" style=""width: 408px; height: 417px; margin-right: 200px;""><img src=""images/demo_images/choice_trial_1.png"" style=""width: 408px; height: 417px;""></div></div>",f,delaylearn,learning,trial,4sB1vWlK4ZRxFuxaSlueZMJ7w1i1,4sB1vWlK4ZRxFuxaSlueZMJ7w1i1,1.0,images/demo_images/choice_trial_2.png,images/demo_images/choice_trial_1.png,images/demo_images/pattern_1.png,j,j,3000.0,2.0,1.0,20.0,1.0,1.0,0.0,0.0,2.0,0.0,,,,,,60db09ba98a44872897cc587,09:06:25,27/02/2024
html-keyboard-response,3,6345,0.0-2.0-1.0,,"<div style=""display: flex; flex-direction: column; align-items: center; margin-top: -40px;""><img src=""images/demo_images/pattern_1.png"" style=""width: 234px; height: 230px; margin-top: -50px;""><div style=""display: flex; justify-content: space-between; margin-top: 33px;""><img src=""images/demo_images/choice_trial_2.png"" style=""width: 408px; height: 417px; margin-right: 608px;""></div></div>",,delaylearn,learning,display_response,4sB1vWlK4ZRxFuxaSlueZMJ7w1i1,4sB1vWlK4ZRxFuxaSlueZMJ7w1i1,,,,,,,,,,,,,,,,,chosen stimuli: images/demo_images/choice_trial_2.png,,,,,60db09ba98a44872897cc587,09:06:25,27/02/2024
html-keyboard-response,4,9357,0.0-2.0-2.0,,,,delaylearn,learning,feedback_duration_window,4sB1vWlK4ZRxFuxaSlueZMJ7w1i1,4sB1vWlK4ZRxFuxaSlueZMJ7w1i1,,,,,,,,,,,,,,,,,,3000.0,,,,60db09ba98a44872897cc587,09:06:25,27/02/2024
html-keyboard-response,5,10886,0.0-2.0-3.0,,<div style='margin:auto;width: auto; font-size: 150%'><span style='font-weight: bold; font-size: 100px; color: red;'>0 points!</span><br><br></div>,,delaylearn,learning,feedback_image_window,4sB1vWlK4ZRxFuxaSlueZMJ7w1i1,4sB1vWlK4ZRxFuxaSlueZMJ7w1i1,,,,,,,,,,,,,,,,,,,,,,60db09ba98a44872897cc587,09:06:25,27/02/2024
html-keyboard-response,6,12558,0.0-3.0,,"<div style=""font-size:100px;"">+</div>",,delaylearn,learning,ITI,4sB1vWlK4ZRxFuxaSlueZMJ7w1i1,4sB1vWlK4ZRxFuxaSlueZMJ7w1i1,,,,,,,,,,,,,,,,,,,1647.0,,,60db09ba98a44872897cc587,09:06:25,27/02/2024
html-keyboard-response,7,14188,0.0-4.0-0.0,1626.300000011921,"<div style=""display: flex; flex-direction: column; align-items: center; margin-top: -40px;""><img src=""images/demo_images/pattern_1.png"" style=""width: 234px; height: 230px; margin-top: -50px;""><div style=""display: flex; justify-content: space-between; margin-top: 33px;""><img src=""images/demo_images/choice_trial_2.png"" style=""width: 408px; height: 417px; margin-right: 200px;""><img src=""images/demo_images/choice_trial_1.png"" style=""width: 408px; height: 417px;""></div></div>",f,delaylearn,learning,trial,4sB1vWlK4ZRxFuxaSlueZMJ7w1i1,4sB1vWlK4ZRxFuxaSlueZMJ7w1i1,1.0,images/demo_images/choice_trial_2.png,images/demo_images/choice_trial_1.png,images/demo_images/pattern_1.png,j,j,3000.0,2.0,1.0,20.0,1.0,2.0,0.0,0.0,2.0,0.0,,,,,,60db09ba98a44872897cc587,09:06:25,27/02/2024
html-keyboard-response,8,15191,0.0-4.0-1.0,,"<div style=""display: flex; flex-direction: column; align-items: center; margin-top: -40px;""><img src=""images/demo_images/pattern_1.png"" style=""width: 234px; height: 230px; margin-top: -50px;""><div style=""display: flex; justify-content: space-between; margin-top: 33px;""><img src=""images/demo_images/choice_trial_2.png"" style=""width: 408px; height: 417px; margin-right: 608px;""></div></div>",,delaylearn,learning,display_response,4sB1vWlK4ZRxFuxaSlueZMJ7w1i1,4sB1vWlK4ZRxFuxaSlueZMJ7w1i1,,,,,,,,,,,,,,,,,chosen stimuli: images/demo_images/choice_trial_2.png,,,,,60db09ba98a44872897cc587,09:06:25,27/02/2024
html-keyboard-response,9,18199,0.0-4.0-2.0,,,,delaylearn,learning,feedback_duration_window,4sB1vWlK4ZRxFuxaSlueZMJ7w1i1,4sB1vWlK4ZRxFuxaSlueZMJ7w1i1,,,,,,,,,,,,,,,,,,3000.0,,,,60db09ba98a44872897cc587,09:06:25,27/02/2024
html-keyboard-response,10,19729,0.0-4.0-3.0,,<div style='margin:auto;width: auto; font-size: 150%'><span style='font-weight: bold; font-size: 100px; color: red;'>0 points!</span><br><br></div>,,delaylearn,learning,feedback_image_window,4sB1vWlK4ZRxFuxaSlueZMJ7w1i1,4sB1vWlK4ZRxFuxaSlueZMJ7w1i1,,,,,,,,,,,,,,,,,,,,,,60db09ba98a44872897cc587,09:06:25,27/02/2024
html-keyboard-response,11,21412,0.0-5.0,,"<div style=""font-size:100px;"">+</div>",,delaylearn,learning,ITI,4sB1vWlK4ZRxFuxaSlueZMJ7w1i1,4sB1vWlK4ZRxFuxaSlueZMJ7w1i1,,,,,,,,,,,,,,,,,,,1647.0,,,60db09ba98a44872897cc587,09:06:25,27/02/2024
html-keyboard-response,12,22885,0.0-6.0-0.0,1471.8999999761581,"<div style=""display: flex; flex-direction: column; align-items: center; margin-top: -40px;""><img src=""images/demo_images/pattern_1.png"" style=""width: 234px; height: 230px; margin-top: -50px;""><div style=""display: flex; justify-content: space-between; margin-top: 33px;""><img src=""images/demo_images/choice_trial_1.png"" style=""width: 408px; height: 417px; margin-right: 200px;""><img src=""images/demo_images/choice_trial_2.png"" style=""width: 408px; height: 417px;""></div></div>",j,delaylearn,learning,trial,4sB1vWlK4ZRxFuxaSlueZMJ7w1i1,4sB1vWlK4ZRxFuxaSlueZMJ7w1i1,1.0,images/demo_images/choice_trial_1.png,images/demo_images/choice_trial_2.png,images/demo_images/pattern_1.png,j,f,3000.0,1.0,2.0,20.0,0.0,3.0,0.0,1.0,2.0,10.0,,,,,,60db09ba98a44872897cc587,09:06:25,27/02/2024
html-keyboard-response,13,23891,0.0-6.0-1.0,,"<div style=""display: flex; flex-direction: column; align-items: center; margin-top: -40px;""><img src=""images/demo_images/pattern_1.png"" style=""width: 234px; height: 230px; margin-top: -50px;""><div style=""display: flex; justify-content: space-between; margin-top: 33px;""><img src=""images/demo_images/choice_trial_2.png"" style=""width: 408px; height: 417px; margin-left:608px;""></div></div>",,delaylearn,learning,display_response,4sB1vWlK4ZRxFuxaSlueZMJ7w1i1,4sB1vWlK4ZRxFuxaSlueZMJ7w1i1,,,,,,,,,,,,,,,,,chosen stimuli: images/demo_images/choice_trial_2.png,,,,,60db09ba98a44872897cc587,09:06:25,27/02/2024
html-keyboard-response,14,26897,0.0-6.0-2.0,,,,delaylearn,learning,feedback_duration_window,4sB1vWlK4ZRxFuxaSlueZMJ7w1i1,4sB1vWlK4ZRxFuxaSlueZMJ7w1i1,,,,,,,,,,,,,,,,,,3000.0,,,,60db09ba98a44872897cc587,09:06:25,27/02/2024
html-keyboard-response,15,28408,0.0-6.0-3.0,,<div style='margin:auto;width: auto; font-size: 150%'><span style='font-weight: bold; font-size: 100px; color: green;'>+10 points!</span><br><br></div>,,delaylearn,learning,feedback_image_window,4sB1vWlK4ZRxFuxaSlueZMJ7w1i1,4sB1vWlK4ZRxFuxaSlueZMJ7w1i1,,,,,,,,,,,,,,,,,,,,,,60db09ba98a44872897cc587,09:06:25,27/02/2024
html-keyboard-response,16,30017,0.0-7.0,,"<div style=""font-size:100px;"">+</div>",,delaylearn,learning,ITI,4sB1vWlK4ZRxFuxaSlueZMJ7w1i1,4sB1vWlK4ZRxFuxaSlueZMJ7w1i1,,,,,,,,,,,,,,,,,,,1585.0,,,60db09ba98a44872897cc587,09:06:25,27/02/2024
html-keyboard-response,17,31193,0.0-8.0-0.0,1173.7999999821186,"<div style=""display: flex; flex-direction: column; align-items: center; margin-top: -40px;""><img src=""images/demo_images/pattern_1.png"" style=""width: 234px; height: 230px; margin-top: -50px;""><div style=""display: flex; justify-content: space-between; margin-top: 33px;""><img src=""images/demo_images/choice_trial_1.png"" style=""width: 408px; height: 417px; margin-right: 200px;""><img src=""images/demo_images/choice_trial_2.png"" style=""width: 408px; height: 417px;""></div></div>",j,delaylearn,learning,trial,4sB1vWlK4ZRxFuxaSlueZMJ7w1i1,4sB1vWlK4ZRxFuxaSlueZMJ7w1i1,1.0,images/demo_images/choice_trial_1.png,images/demo_images/choice_trial_2.png,images/demo_images/pattern_1.png,f,f,3000.0,1.0,2.0,20.0,0.0,4.0,0.0,0.0,2.0,10.0,,,,,,60db09ba98a44872897cc587,09:06:25,27/02/2024
html-keyboard-response,18,32199,0.0-8.0-1.0,,"<div style=""display: flex; flex-direction: column; align-items: center; margin-top: -40px;""><img src=""images/demo_images/pattern_1.png"" style=""width: 234px; height: 230px; margin-top: -50px;""><div style=""display: flex; justify-content: space-between; margin-top: 33px;""><img src=""images/demo_images/choice_trial_2.png"" style=""width: 408px; height: 417px; margin-left:608px;""></div></div>",,delaylearn,learning,display_response,4sB1vWlK4ZRxFuxaSlueZMJ7w1i1,4sB1vWlK4ZRxFuxaSlueZMJ7w1i1,,,,,,,,,,,,,,,,,chosen stimuli: images/demo_images/choice_trial_2.png,,,,,60db09ba98a44872897cc587,09:06:25,27/02/2024
html-keyboard-response,19,35201,0.0-8.0-2.0,,,,delaylearn,learning,feedback_duration_window,4sB1vWlK4ZRxFuxaSlueZMJ7w1i1,4sB1vWlK4ZRxFuxaSlueZMJ7w1i1,,,,,,,,,,,,,,,,,,3000.0,,,,60db09ba98a44872897cc587,09:06:25,27/02/2024
html-keyboard-response,20,36715,0.0-8.0-3.0,,<div style='margin:auto;width: auto; font-size: 150%'><span style='font-weight: bold; font-size: 100px; color: red;'>0 points!</span><br><br></div>,,delaylearn,learning,feedback_image_window,4sB1vWlK4ZRxFuxaSlueZMJ7w1i1,4sB1vWlK4ZRxFuxaSlueZMJ7w1i1,,,,,,,,,,,,,,,,,,,,,,60db09ba98a44872897cc587,09:06:25,27/02/2024
html-keyboard-response,21,37221,0.0-9.0-0.0,,,,,,mood_trial_fixation,4sB1vWlK4ZRxFuxaSlueZMJ7w1i1,,,,,,,,,,,,,,,,,,,,,,,60db09ba98a44872897cc587,09:06:25,27/02/2024
lmdlab-html-vas-response,22,46068,0.0-9.0-1.0,7810.0,How happy are you right now?,0.013468695773386304,delaylearn,learning,mood_trial,4sB1vWlK4ZRxFuxaSlueZMJ7w1i1,4sB1vWlK4ZRxFuxaSlueZMJ7w1i1,,,,,,,,,,,,,,,,,,,,"['Very unhappy', 'Very happy']",,60db09ba98a44872897cc587,09:06:25,27/02/2024
html-keyboard-response,23,48558,0.0-10.0,,"<div style=""font-size:100px;"">+</div>",,delaylearn,learning,ITI,4sB1vWlK4ZRxFuxaSlueZMJ7w1i1,4sB1vWlK4ZRxFuxaSlueZMJ7w1i1,,,,,,,,,,,,,,,,,,,2464.0,,,60db09ba98a44872897cc587,09:06:25,27/02/2024
html-keyboard-response,24,49604,0.0-11.0-0.0,1043.0999999940395,"<div style=""display: flex; flex-direction: column; align-items: center; margin-top: -40px;""><img src=""images/demo_images/pattern_1.png"" style=""width: 234px; height: 230px; margin-top: -50px;""><div style=""display: flex; justify-content: space-between; margin-top: 33px;""><img src=""images/demo_images/choice_trial_2.png"" style=""width: 408px; height: 417px; margin-right: 200px;""><img src=""images/demo_images/choice_trial_1.png"" style=""width: 408px; height: 417px;""></div></div>",j,delaylearn,learning,trial,4sB1vWlK4ZRxFuxaSlueZMJ7w1i1,4sB1vWlK4ZRxFuxaSlueZMJ7w1i1,1.0,images/demo_images/choice_trial_2.png,images/demo_images/choice_trial_1.png,images/demo_images/pattern_1.png,j,j,3000.0,2.0,1.0,20.0,1.0,5.0,1.0,1.0,1.0,20.0,,,,,,60db09ba98a44872897cc587,09:06:25,27/02/2024
html-keyboard-response,25,50607,0.0-11.0-1.0,,"<div style=""display: flex; flex-direction: column; align-items: center; margin-top: -40px;""><img src=""images/demo_images/pattern_1.png"" style=""width: 234px; height: 230px; margin-top: -50px;""><div style=""display: flex; justify-content: space-between; margin-top: 33px;""><img src=""images/demo_images/choice_trial_1.png"" style=""width: 408px; height: 417px; margin-left:608px;""></div></div>",,delaylearn,learning,display_response,4sB1vWlK4ZRxFuxaSlueZMJ7w1i1,4sB1vWlK4ZRxFuxaSlueZMJ7w1i1,,,,,,,,,,,,,,,,,chosen stimuli: images/demo_images/choice_trial_1.png,,,,,60db09ba98a44872897cc587,09:06:25,27/02/2024
html-keyboard-response,26,53619,0.0-11.0-2.0,,,,delaylearn,learning,feedback_duration_window,4sB1vWlK4ZRxFuxaSlueZMJ7w1i1,4sB1vWlK4ZRxFuxaSlueZMJ7w1i1,,,,,,,,,,,,,,,,,,3000.0,,,,60db09ba98a44872897cc587,09:06:25,27/02/2024
html-keyboard-response,27,55135,0.0-11.0-3.0,,<div style='margin:auto;width: auto; font-size: 150%'><span style='font-weight: bold; font-size: 100px; color: green;'>+10 points!</span><br><br></div>,,delaylearn,learning,feedback_image_window,4sB1vWlK4ZRxFuxaSlueZMJ7w1i1,4sB1vWlK4ZRxFuxaSlueZMJ7w1i1,,,,,,,,,,,,,,,,,,,,,,60db09ba98a44872897cc587,09:06:25,27/02/2024
html-keyboard-response,28,56991,0.0-12.0,,"<div style=""font-size:100px;"">+</div>",,delaylearn,learning,ITI,4sB1vWlK4ZRxFuxaSlueZMJ7w1i1,4sB1vWlK4ZRxFuxaSlueZMJ7w1i1,,,,,,,,,,,,,,,,,,,1838.0,,,60db09ba98a44872897cc587,09:06:25,27/02/2024
html-keyboard-response,29,57974,0.0-13.0-0.0,980.7000000178814,"<div style=""display: flex; flex-direction: column; align-items: center; margin-top: -40px;""><img src=""images/demo_images/pattern_1.png"" style=""width: 234px; height: 230px; margin-top: -50px;""><div style=""display: flex; justify-content: space-between; margin-top: 33px;""><img src=""images/demo_images/choice_trial_1.png"" style=""width: 408px; height: 417px; margin-right: 200px;""><img src=""images/demo_images/choice_trial_2.png"" style=""width: 408px; height: 417px;""></div></div>",j,delaylearn,learning,trial,4sB1vWlK4ZRxFuxaSlueZMJ7w1i1,4sB1vWlK4ZRxFuxaSlueZMJ7w1i1,1.0,images/demo_images/choice_trial_1.png,images/demo_images/choice_trial_2.png,images/demo_images/pattern_1.png,f,f,3000.0,1.0,2.0,20.0,0.0,6.0,0.0,0.0,2.0,20.0,,,,,,60db09ba98a44872897cc587,09:06:25,27/02/2024
html-keyboard-response,30,58982,0.0-13.0-1.0,,"<div style=""display: flex; flex-direction: column; align-items: center; margin-top: -40px;""><img src=""images/demo_images/pattern_1.png"" style=""width: 234px; height: 230px; margin-top: -50px;""><div style=""display: flex; justify-content: space-between; margin-top: 33px;""><img src=""images/demo_images/choice_trial_2.png"" style=""width: 408px; height: 417px; margin-left:608px;""></div></div>",,delaylearn,learning,display_response,4sB1vWlK4ZRxFuxaSlueZMJ7w1i1,4sB1vWlK4ZRxFuxaSlueZMJ7w1i1,,,,,,,,,,,,,,,,,chosen stimuli: images/demo_images/choice_trial_2.png,,,,,60db09ba98a44872897cc587,09:06:25,27/02/2024
html-keyboard-response,31,61991,0.0-13.0-2.0,,,,delaylearn,learning,feedback_duration_window,4sB1vWlK4ZRxFuxaSlueZMJ7w1i1,4sB1vWlK4ZRxFuxaSlueZMJ7w1i1,,,,,,,,,,,,,,,,,,3000.0,,,,60db09ba98a44872897cc587,09:06:25,27/02/2024
html-keyboard-response,32,63507,0.0-13.0-3.0,,<div style='margin:auto;width: auto; font-size: 150%'><span style='font-weight: bold; font-size: 100px; color: red;'>0 points!</span><br><br></div>,,delaylearn,learning,feedback_image_window,4sB1vWlK4ZRxFuxaSlueZMJ7w1i1,4sB1vWlK4ZRxFuxaSlueZMJ7w1i1,,,,,,,,,,,,,,,,,,,,,,60db09ba98a44872897cc587,09:06:25,27/02/2024
html-button-response,33,68358,0.0-14.0,4849.199999988079,"
  <div style=""display: flex; align-items: center; justify-content: center; height: 80vh;"">
  <div>
          <img src=""images/inst_demo_finish.png"" style=""width: 80vw; height:auto;"">
          <br><br>
      </div>
      <br><br>
  </div>",0,,,,4sB1vWlK4ZRxFuxaSlueZMJ7w1i1,,,,,,,,,,,,,,,,,,,,,,,60db09ba98a44872897cc587,09:06:25,27/02/2024
html-keyboard-response,34,72759,0.0-15.0,4399.4000000059605,"
  <div style=""display: flex; align-items: center; justify-content: center; height: 80vh;"">
  <div>
          <img src=""images/inst_6.png"" style=""width: 80vw; height:auto;"">
          <br><br>
      </div>
      <br><br>
  </div>",f,,,,4sB1vWlK4ZRxFuxaSlueZMJ7w1i1,,,,,,,,,,,,,,,,,,,,,,,60db09ba98a44872897cc587,09:06:25,27/02/2024
html-keyboard-response,35,75774,0.0-16.0,,"<div style=""font-size:100px;"">+</div>",,delaylearn,learning,pre_fixation,4sB1vWlK4ZRxFuxaSlueZMJ7w1i1,,,,,,,,,,,,,,,,,,,,,,,60db09ba98a44872897cc587,09:06:25,27/02/2024
html-keyboard-response,36,78145,0.0-17.0,,"<div style=""font-size:100px;"">+</div>",,delaylearn,learning,ITI,4sB1vWlK4ZRxFuxaSlueZMJ7w1i1,4sB1vWlK4ZRxFuxaSlueZMJ7w1i1,,,,,,,,,,,,,,,,,,,2336.0,,,60db09ba98a44872897cc587,09:06:25,27/02/2024
html-keyboard-response,37,79460,0.0-18.0-0.0,1312.800000011921,"<div style=""display: flex; flex-direction: column; align-items: center; margin-top: -40px;""><img src=""images/pattern_3.png"" style=""width: 234px; height: 230px; margin-top: -50px;""><div style=""display: flex; justify-content: space-between; margin-top: 33px;""><img src=""images/choice_trial_5.png"" style=""width: 408px; height: 417px; margin-right: 200px;""><img src=""images/choice_trial_6.png"" style=""width: 408px; height: 417px;""></div></div>",j,delaylearn,learning,trial,4sB1vWlK4ZRxFuxaSlueZMJ7w1i1,4sB1vWlK4ZRxFuxaSlueZMJ7w1i1,1.0,images/choice_trial_5.png,images/choice_trial_6.png,images/pattern_3.png,f,f,7000.0,5.0,6.0,2.0,0.0,7.0,0.0,0.0,6.0,20.0,,,,,,60db09ba98a44872897cc587,09:06:25,27/02/2024
html-keyboard-response,38,80463,0.0-18.0-1.0,,"<div style=""display: flex; flex-direction: column; align-items: center; margin-top: -40px;""><img src=""images/pattern_3.png"" style=""width: 234px; height: 230px; margin-top: -50px;""><div style=""display: flex; justify-content: space-between; margin-top: 33px;""><img src=""images/choice_trial_6.png"" style=""width: 408px; height: 417px; margin-left:608px;""></div></div>",,delaylearn,learning,display_response,4sB1vWlK4ZRxFuxaSlueZMJ7w1i1,4sB1vWlK4ZRxFuxaSlueZMJ7w1i1,,,,,,,,,,,,,,,,,chosen stimuli: images/choice_trial_6.png,,,,,60db09ba98a44872897cc587,09:06:25,27/02/2024
html-keyboard-response,39,87474,0.0-18.0-2.0,,,,delaylearn,learning,feedback_duration_window,4sB1vWlK4ZRxFuxaSlueZMJ7w1i1,4sB1vWlK4ZRxFuxaSlueZMJ7w1i1,,,,,,,,,,,,,,,,,,7000.0,,,,60db09ba98a44872897cc587,09:06:25,27/02/2024
html-keyboard-response,40,88999,0.0-18.0-3.0,,<div style='margin:auto;width: auto; font-size: 150%'><span style='font-weight: bold; font-size: 100px; color: red;'>0 points!</span><br><br></div>,,delaylearn,learning,feedback_image_window,4sB1vWlK4ZRxFuxaSlueZMJ7w1i1,4sB1vWlK4ZRxFuxaSlueZMJ7w1i1,,,,,,,,,,,,,,,,,,,,,,60db09ba98a44872897cc587,09:06:25,27/02/2024
html-keyboard-response,41,91437,0.0-19.0,,"<div style=""font-size:100px;"">+</div>",,delaylearn,learning,ITI,4sB1vWlK4ZRxFuxaSlueZMJ7w1i1,4sB1vWlK4ZRxFuxaSlueZMJ7w1i1,,,,,,,,,,,,,,,,,,,2431.0,,,60db09ba98a44872897cc587,09:06:25,27/02/2024
html-keyboard-response,42,93197,0.0-20.0-0.0,1758.4000000059605,"<div style=""display: flex; flex-direction: column; align-items: center; margin-top: -40px;""><img src=""images/pattern_7.png"" style=""width: 234px; height: 230px; margin-top: -50px;""><div style=""display: flex; justify-content: space-between; margin-top: 33px;""><img src=""images/choice_trial_14.png"" style=""width: 408px; height: 417px; margin-right: 200px;""><img src=""images/choice_trial_13.png"" style=""width: 408px; height: 417px;""></div></div>",f,delaylearn,learning,trial,4sB1vWlK4ZRxFuxaSlueZMJ7w1i1,4sB1vWlK4ZRxFuxaSlueZMJ7w1i1,1.0,images/choice_trial_14.png,images/choice_trial_13.png,images/pattern_7.png,j,j,750.0,14.0,13.0,6.0,1.0,8.0,0.0,0.0,14.0,20.0,,,,,,60db09ba98a44872897cc587,09:06:25,27/02/2024
html-keyboard-response,43,94206,0.0-20.0-1.0,,"<div style=""display: flex; flex-direction: column; align-items: center; margin-top: -40px;""><img src=""images/pattern_7.png"" style=""width: 234px; height: 230px; margin-top: -50px;""><div style=""display: flex; justify-content: space-between; margin-top: 33px;""><img src=""images/choice_trial_14.png"" style=""width: 408px; height: 417px; margin-right: 608px;""></div></div>",,delaylearn,learning,display_response,4sB1vWlK4ZRxFuxaSlueZMJ7w1i1,4sB1vWlK4ZRxFuxaSlueZMJ7w1i1,,,,,,,,,,,,,,,,,chosen stimuli: images/choice_trial_14.png,,,,,60db09ba98a44872897cc587,09:06:25,27/02/2024
html-keyboard-response,44,94973,0.0-20.0-2.0,,,,delaylearn,learning,feedback_duration_window,4sB1vWlK4ZRxFuxaSlueZMJ7w1i1,4sB1vWlK4ZRxFuxaSlueZMJ7w1i1,,,,,,,,,,,,,,,,,,750.0,,,,60db09ba98a44872897cc587,09:06:25,27/02/2024
html-keyboard-response,45,96511,0.0-20.0-3.0,,<div style='margin:auto;width: auto; font-size: 150%'><span style='font-weight: bold; font-size: 100px; color: red;'>0 points!</span><br><br></div>,,delaylearn,learning,feedback_image_window,4sB1vWlK4ZRxFuxaSlueZMJ7w1i1,4sB1vWlK4ZRxFuxaSlueZMJ7w1i1,,,,,,,,,,,,,,,,,,,,,,60db09ba98a44872897cc587,09:06:25,27/02/2024
html-keyboard-response,46,98574,0.0-21.0,,"<div style=""font-size:100px;"">+</div>",,delaylearn,learning,ITI,4sB1vWlK4ZRxFuxaSlueZMJ7w1i1,4sB1vWlK4ZRxFuxaSlueZMJ7w1i1,,,,,,,,,,,,,,,,,,,2034.0,,,60db09ba98a44872897cc587,09:06:25,27/02/2024
html-keyboard-response,47,99898,0.0-22.0-0.0,1321.5999999940395,"<div style=""display: flex; flex-direction: column; align-items: center; margin-top: -40px;""><img src=""images/pattern_4.png"" style=""width: 234px; height: 230px; margin-top: -50px;""><div style=""display: flex; justify-content: space-between; margin-top: 33px;""><img src=""images/choice_trial_7.png"" style=""width: 408px; height: 417px; margin-right: 200px;""><img src=""images/choice_trial_8.png"" style=""width: 408px; height: 417px;""></div></div>",f,delaylearn,learning,trial,4sB1vWlK4ZRxFuxaSlueZMJ7w1i1,4sB1vWlK4ZRxFuxaSlueZMJ7w1i1,1.0,images/choice_trial_7.png,images/choice_trial_8.png,images/pattern_4.png,f,f,7000.0,7.0,8.0,3.0,0.0,9.0,1.0,1.0,7.0,30.0,,,,,,60db09ba98a44872897cc587,09:06:25,27/02/2024
html-keyboard-response,48,100910,0.0-22.0-1.0,,"<div style=""display: flex; flex-direction: column; align-items: center; margin-top: -40px;""><img src=""images/pattern_4.png"" style=""width: 234px; height: 230px; margin-top: -50px;""><div style=""display: flex; justify-content: space-between; margin-top: 33px;""><img src=""images/choice_trial_7.png"" style=""width: 408px; height: 417px; margin-right: 608px;""></div></div>",,delaylearn,learning,display_response,4sB1vWlK4ZRxFuxaSlueZMJ7w1i1,4sB1vWlK4ZRxFuxaSlueZMJ7w1i1,,,,,,,,,,,,,,,,,chosen stimuli: images/choice_trial_7.png,,,,,60db09ba98a44872897cc587,09:06:25,27/02/2024
html-keyboard-response,49,107934,0.0-22.0-2.0,,,,delaylearn,learning,feedback_duration_window,4sB1vWlK4ZRxFuxaSlueZMJ7w1i1,4sB1vWlK4ZRxFuxaSlueZMJ7w1i1,,,,,,,,,,,,,,,,,,7000.0,,,,60db09ba98a44872897cc587,09:06:25,27/02/2024
html-keyboard-response,50,109462,0.0-22.0-3.0,,<div style='margin:auto;width: auto; font-size: 150%'><span style='font-weight: bold; font-size: 100px; color: green;'>+10 points!</span><br><br></div>,,delaylearn,learning,feedback_image_window,4sB1vWlK4ZRxFuxaSlueZMJ7w1i1,4sB1vWlK4ZRxFuxaSlueZMJ7w1i1,,,,,,,,,,,,,,,,,,,,,,60db09ba98a44872897cc587,09:06:25,27/02/2024
html-keyboard-response,51,111596,0.0-23.0,,"<div style=""font-size:100px;"">+</div>",,delaylearn,learning,ITI,4sB1vWlK4ZRxFuxaSlueZMJ7w1i1,4sB1vWlK4ZRxFuxaSlueZMJ7w1i1,,,,,,,,,,,,,,,,,,,2097.0,,,60db09ba98a44872897cc587,09:06:25,27/02/2024
html-keyboard-response,52,113334,0.0-24.0-0.0,1735.300000011921,"<div style=""display: flex; flex-direction: column; align-items: center; margin-top: -40px;""><img src=""images/pattern_5.png"" style=""width: 234px; height: 230px; margin-top: -50px;""><div style=""display: flex; justify-content: space-between; margin-top: 33px;""><img src=""images/choice_trial_10.png"" style=""width: 408px; height: 417px; margin-right: 200px;""><img src=""images/choice_trial_9.png"" style=""width: 408px; height: 417px;""></div></div>",j,delaylearn,learning,trial,4sB1vWlK4ZRxFuxaSlueZMJ7w1i1,4sB1vWlK4ZRxFuxaSlueZMJ7w1i1,1.0,images/choice_trial_10.png,images/choice_trial_9.png,images/pattern_5.png,j,j,750.0,10.0,9.0,4.0,1.0,10.0,1.0,1.0,9.0,40.0,,,,,,60db09ba98a44872897cc587,09:06:25,27/02/2024
html-keyboard-response,53,114349,0.0-24.0-1.0,,"<div style=""display: flex; flex-direction: column; align-items: center; margin-top: -40px;""><img src=""images/pattern_5.png"" style=""width: 234px; height: 230px; margin-top: -50px;""><div style=""display: flex; justify-content: space-between; margin-top: 33px;""><img src=""images/choice_trial_9.png"" style=""width: 408px; height: 417px; margin-left:608px;""></div></div>",,delaylearn,learning,display_response,4sB1vWlK4ZRxFuxaSlueZMJ7w1i1,4sB1vWlK4ZRxFuxaSlueZMJ7w1i1,,,,,,,,,,,,,,,,,chosen stimuli: images/choice_trial_9.png,,,,,60db09ba98a44872897cc587,09:06:25,27/02/2024
html-keyboard-response,54,115102,0.0-24.0-2.0,,,,delaylearn,learning,feedback_duration_window,4sB1vWlK4ZRxFuxaSlueZMJ7w1i1,4sB1vWlK4ZRxFuxaSlueZMJ7w1i1,,,,,,,,,,,,,,,,,,750.0,,,,60db09ba98a44872897cc587,09:06:25,27/02/2024
html-keyboard-response,55,116610,0.0-24.0-3.0,,<div style='margin:auto;width: auto; font-size: 150%'><span style='font-weight: bold; font-size: 100px; color: green;'>+10 points!</span><br><br></div>,,delaylearn,learning,feedback_image_window,4sB1vWlK4ZRxFuxaSlueZMJ7w1i1,4sB1vWlK4ZRxFuxaSlueZMJ7w1i1,,,,,,,,,,,,,,,,,,,,,,60db09ba98a44872897cc587,09:06:25,27/02/2024
html-keyboard-response,56,118858,0.0-25.0,,"<div style=""font-size:100px;"">+</div>",,delaylearn,learning,ITI,4sB1vWlK4ZRxFuxaSlueZMJ7w1i1,4sB1vWlK4ZRxFuxaSlueZMJ7w1i1,,,,,,,,,,,,,,,,,,,2230.0,,,60db09ba98a44872897cc587,09:06:25,27/02/2024
html-keyboard-response,57,120113,0.0-26.0-0.0,1252.2000000178814,"<div style=""display: flex; flex-direction: column; align-items: center; margin-top: -40px;""><img src=""images/pattern_6.png"" style=""width: 234px; height: 230px; margin-top: -50px;""><div style=""display: flex; justify-content: space-between; margin-top: 33px;""><img src=""images/choice_trial_11.png"" style=""width: 408px; height: 417px; margin-right: 200px;""><img src=""images/choice_trial_12.png"" style=""width: 408px; height: 417px;""></div></div>",f,delaylearn,learning,trial,4sB1vWlK4ZRxFuxaSlueZMJ7w1i1,4sB1vWlK4ZRxFuxaSlueZMJ7w1i1,1.0,images/choice_trial_11.png,images/choice_trial_12.png,images/pattern_6.png,j,f,750.0,11.0,12.0,5.0,0.0,11.0,1.0,0.0,11.0,40.0,,,,,,60db09ba98a44872897cc587,09:06:25,27/02/2024
html-keyboard-response,58,121121,0.0-26.0-1.0,,"<div style=""display: flex; flex-direction: column; align-items: center; margin-top: -40px;""><img src=""images/pattern_6.png"" style=""width: 234px; height: 230px; margin-top: -50px;""><div style=""display: flex; justify-content: space-between; margin-top: 33px;""><img src=""images/choice_trial_11.png"" style=""width: 408px; height: 417px; margin-right: 608px;""></div></div>",,delaylearn,learning,display_response,4sB1vWlK4ZRxFuxaSlueZMJ7w1i1,4sB1vWlK4ZRxFuxaSlueZMJ7w1i1,,,,,,,,,,,,,,,,,chosen stimuli: images/choice_trial_11.png,,,,,60db09ba98a44872897cc587,09:06:25,27/02/2024
html-keyboard-response,59,121878,0.0-26.0-2.0,,,,delaylearn,learning,feedback_duration_window,4sB1vWlK4ZRxFuxaSlueZMJ7w1i1,4sB1vWlK4ZRxFuxaSlueZMJ7w1i1,,,,,,,,,,,,,,,,,,750.0,,,,60db09ba98a44872897cc587,09:06:25,27/02/2024
html-keyboard-response,60,123387,0.0-26.0-3.0,,<div style='margin:auto;width: auto; font-size: 150%'><span style='font-weight: bold; font-size: 100px; color: red;'>0 points!</span><br><br></div>,,delaylearn,learning,feedback_image_window,4sB1vWlK4ZRxFuxaSlueZMJ7w1i1,4sB1vWlK4ZRxFuxaSlueZMJ7w1i1,,,,,,,,,,,,,,,,,,,,,,60db09ba98a44872897cc587,09:06:25,27/02/2024
html-keyboard-response,61,123895,0.0-27.0-0.0,,,,,,mood_trial_fixation,4sB1vWlK4ZRxFuxaSlueZMJ7w1i1,,,,,,,,,,,,,,,,,,,,,,,60db09ba98a44872897cc587,09:06:25,27/02/2024
lmdlab-html-vas-response,62,130072,0.0-27.0-1.0,5158.0,How happy are you right now?,0.32701445167256477,delaylearn,learning,mood_trial,4sB1vWlK4ZRxFuxaSlueZMJ7w1i1,4sB1vWlK4ZRxFuxaSlueZMJ7w1i1,,,,,,,,,,,,,,,,,,,,"['Very unhappy', 'Very happy']",,60db09ba98a44872897cc587,09:06:25,27/02/2024
html-keyboard-response,63,131881,0.0-28.0,,"<div style=""font-size:100px;"">+</div>",,delaylearn,learning,ITI,4sB1vWlK4ZRxFuxaSlueZMJ7w1i1,4sB1vWlK4ZRxFuxaSlueZMJ7w1i1,,,,,,,,,,,,,,,,,,,1797.0,,,60db09ba98a44872897cc587,09:06:25,27/02/2024
html-keyboard-response,64,133179,0.0-29.0-0.0,1294.4000000059605,"<div style=""display: flex; flex-direction: column; align-items: center; margin-top: -40px;""><img src=""images/pattern_1.png"" style=""width: 234px; height: 230px; margin-top: -50px;""><div style=""display: flex; justify-content: space-between; margin-top: 33px;""><img src=""images/choice_trial_2.png"" style=""width: 408px; height: 417px; margin-right: 200px;""><img src=""images/choice_trial_1.png"" style=""width: 408px; height: 417px;""></div></div>",f,delaylearn,learning,trial,4sB1vWlK4ZRxFuxaSlueZMJ7w1i1,4sB1vWlK4ZRxFuxaSlueZMJ7w1i1,1.0,images/choice_trial_2.png,images/choice_trial_1.png,images/pattern_1.png,j,j,7000.0,2.0,1.0,1.0,1.0,12.0,0.0,0.0,2.0,40.0,,,,,,60db09ba98a44872897cc587,09:06:25,27/02/2024
html-keyboard-response,65,134187,0.0-29.0-1.0,,"<div style=""display: flex; flex-direction: column; align-items: center; margin-top: -40px;""><img src=""images/pattern_1.png"" style=""width: 234px; height: 230px; margin-top: -50px;""><div style=""display: flex; justify-content: space-between; margin-top: 33px;""><img src=""images/choice_trial_2.png"" style=""width: 408px; height: 417px; margin-right: 608px;""></div></div>",,delaylearn,learning,display_response,4sB1vWlK4ZRxFuxaSlueZMJ7w1i1,4sB1vWlK4ZRxFuxaSlueZMJ7w1i1,,,,,,,,,,,,,,,,,chosen stimuli: images/choice_trial_2.png,,,,,60db09ba98a44872897cc587,09:06:25,27/02/2024
html-keyboard-response,66,141199,0.0-29.0-2.0,,,,delaylearn,learning,feedback_duration_window,4sB1vWlK4ZRxFuxaSlueZMJ7w1i1,4sB1vWlK4ZRxFuxaSlueZMJ7w1i1,,,,,,,,,,,,,,,,,,7000.0,,,,60db09ba98a44872897cc587,09:06:25,27/02/2024
html-keyboard-response,67,142728,0.0-29.0-3.0,,<div style='margin:auto;width: auto; font-size: 150%'><span style='font-weight: bold; font-size: 100px; color: red;'>0 points!</span><br><br></div>,,delaylearn,learning,feedback_image_window,4sB1vWlK4ZRxFuxaSlueZMJ7w1i1,4sB1vWlK4ZRxFuxaSlueZMJ7w1i1,,,,,,,,,,,,,,,,,,,,,,60db09ba98a44872897cc587,09:06:25,27/02/2024
html-keyboard-response,68,144415,0.0-30.0,,"<div style=""font-size:100px;"">+</div>",,delaylearn,learning,ITI,4sB1vWlK4ZRxFuxaSlueZMJ7w1i1,4sB1vWlK4ZRxFuxaSlueZMJ7w1i1,,,,,,,,,,,,,,,,,,,1669.0,,,60db09ba98a44872897cc587,09:06:25,27/02/2024
html-keyboard-response,69,145554,0.0-31.0-0.0,1136.0999999940395,"<div style=""display: flex; flex-direction: column; align-items: center; margin-top: -40px;""><img src=""images/pattern_3.png"" style=""width: 234px; height: 230px; margin-top: -50px;""><div style=""display: flex; justify-content: space-between; margin-top: 33px;""><img src=""images/choice_trial_6.png"" style=""width: 408px; height: 417px; margin-right: 200px;""><img src=""images/choice_trial_5.png"" style=""width: 408px; height: 417px;""></div></div>",j,delaylearn,learning,trial,4sB1vWlK4ZRxFuxaSlueZMJ7w1i1,4sB1vWlK4ZRxFuxaSlueZMJ7w1i1,1.0,images/choice_trial_6.png,images/choice_trial_5.png,images/pattern_3.png,f,j,7000.0,6.0,5.0,2.0,1.0,13.0,1.0,0.0,5.0,40.0,,,,,,60db09ba98a44872897cc587,09:06:25,27/02/2024
html-keyboard-response,70,146567,0.0-31.0-1.0,,"<div style=""display: flex; flex-direction: column; align-items: center; margin-top: -40px;""><img src=""images/pattern_3.png"" style=""width: 234px; height: 230px; margin-top: -50px;""><div style=""display: flex; justify-content: space-between; margin-top: 33px;""><img src=""images/choice_trial_5.png"" style=""width: 408px; height: 417px; margin-left:608px;""></div></div>",,delaylearn,learning,display_response,4sB1vWlK4ZRxFuxaSlueZMJ7w1i1,4sB1vWlK4ZRxFuxaSlueZMJ7w1i1,,,,,,,,,,,,,,,,,chosen stimuli: images/choice_trial_5.png,,,,,60db09ba98a44872897cc587,09:06:25,27/02/2024
html-keyboard-response,71,153601,0.0-31.0-2.0,,,,delaylearn,learning,feedback_duration_window,4sB1vWlK4ZRxFuxaSlueZMJ7w1i1,4sB1vWlK4ZRxFuxaSlueZMJ7w1i1,,,,,,,,,,,,,,,,,,7000.0,,,,60db09ba98a44872897cc587,09:06:25,27/02/2024
html-keyboard-response,72,155132,0.0-31.0-3.0,,<div style='margin:auto;width: auto; font-size: 150%'><span style='font-weight: bold; font-size: 100px; color: red;'>0 points!</span><br><br></div>,,delaylearn,learning,feedback_image_window,4sB1vWlK4ZRxFuxaSlueZMJ7w1i1,4sB1vWlK4ZRxFuxaSlueZMJ7w1i1,,,,,,,,,,,,,,,,,,,,,,60db09ba98a44872897cc587,09:06:25,27/02/2024
html-keyboard-response,73,157611,0.0-32.0,,"<div style=""font-size:100px;"">+</div>",,delaylearn,learning,ITI,4sB1vWlK4ZRxFuxaSlueZMJ7w1i1,4sB1vWlK4ZRxFuxaSlueZMJ7w1i1,,,,,,,,,,,,,,,,,,,2470.0,,,60db09ba98a44872897cc587,09:06:25,27/02/2024
html-keyboard-response,74,159274,0.0-33.0-0.0,1660.300000011921,"<div style=""display: flex; flex-direction: column; align-items: center; margin-top: -40px;""><img src=""images/pattern_5.png"" style=""width: 234px; height: 230px; margin-top: -50px;""><div style=""display: flex; justify-content: space-between; margin-top: 33px;""><img src=""images/choice_trial_9.png"" style=""width: 408px; height: 417px; margin-right: 200px;""><img src=""images/choice_trial_10.png"" style=""width: 408px; height: 417px;""></div></div>",j,delaylearn,learning,trial,4sB1vWlK4ZRxFuxaSlueZMJ7w1i1,4sB1vWlK4ZRxFuxaSlueZMJ7w1i1,1.0,images/choice_trial_9.png,images/choice_trial_10.png,images/pattern_5.png,f,f,750.0,9.0,10.0,4.0,0.0,14.0,0.0,0.0,10.0,40.0,,,,,,60db09ba98a44872897cc587,09:06:25,27/02/2024
html-keyboard-response,75,160289,0.0-33.0-1.0,,"<div style=""display: flex; flex-direction: column; align-items: center; margin-top: -40px;""><img src=""images/pattern_5.png"" style=""width: 234px; height: 230px; margin-top: -50px;""><div style=""display: flex; justify-content: space-between; margin-top: 33px;""><img src=""images/choice_trial_10.png"" style=""width: 408px; height: 417px; margin-left:608px;""></div></div>",,delaylearn,learning,display_response,4sB1vWlK4ZRxFuxaSlueZMJ7w1i1,4sB1vWlK4ZRxFuxaSlueZMJ7w1i1,,,,,,,,,,,,,,,,,chosen stimuli: images/choice_trial_10.png,,,,,60db09ba98a44872897cc587,09:06:25,27/02/2024
html-keyboard-response,76,161048,0.0-33.0-2.0,,,,delaylearn,learning,feedback_duration_window,4sB1vWlK4ZRxFuxaSlueZMJ7w1i1,4sB1vWlK4ZRxFuxaSlueZMJ7w1i1,,,,,,,,,,,,,,,,,,750.0,,,,60db09ba98a44872897cc587,09:06:25,27/02/2024
html-keyboard-response,77,162551,0.0-33.0-3.0,,<div style='margin:auto;width: auto; font-size: 150%'><span style='font-weight: bold; font-size: 100px; color: red;'>0 points!</span><br><br></div>,,delaylearn,learning,feedback_image_window,4sB1vWlK4ZRxFuxaSlueZMJ7w1i1,4sB1vWlK4ZRxFuxaSlueZMJ7w1i1,,,,,,,,,,,,,,,,,,,,,,60db09ba98a44872897cc587,09:06:25,27/02/2024
html-keyboard-response,78,163063,0.0-34.0-0.0,,,,,,mood_trial_fixation,4sB1vWlK4ZRxFuxaSlueZMJ7w1i1,,,,,,,,,,,,,,,,,,,,,,,60db09ba98a44872897cc587,09:06:25,27/02/2024
lmdlab-html-vas-response,79,168950,0.0-34.0-1.0,4880.0,How happy are you right now?,0.06395487680799979,delaylearn,learning,mood_trial,4sB1vWlK4ZRxFuxaSlueZMJ7w1i1,4sB1vWlK4ZRxFuxaSlueZMJ7w1i1,,,,,,,,,,,,,,,,,,,,"['Very unhappy', 'Very happy']",,60db09ba98a44872897cc587,09:06:25,27/02/2024
html-keyboard-response,80,171370,0.0-35.0,,"<div style=""font-size:100px;"">+</div>",,delaylearn,learning,ITI,4sB1vWlK4ZRxFuxaSlueZMJ7w1i1,4sB1vWlK4ZRxFuxaSlueZMJ7w1i1,,,,,,,,,,,,,,,,,,,2408.0,,,60db09ba98a44872897cc587,09:06:25,27/02/2024
html-keyboard-response,81,172665,0.0-36.0-0.0,1291.9000000059605,"<div style=""display: flex; flex-direction: column; align-items: center; margin-top: -40px;""><img src=""images/pattern_6.png"" style=""width: 234px; height: 230px; margin-top: -50px;""><div style=""display: flex; justify-content: space-between; margin-top: 33px;""><img src=""images/choice_trial_11.png"" style=""width: 408px; height: 417px; margin-right: 200px;""><img src=""images/choice_trial_12.png"" style=""width: 408px; height: 417px;""></div></div>",f,delaylearn,learning,trial,4sB1vWlK4ZRxFuxaSlueZMJ7w1i1,4sB1vWlK4ZRxFuxaSlueZMJ7w1i1,1.0,images/choice_trial_11.png,images/choice_trial_12.png,images/pattern_6.png,f,f,750.0,11.0,12.0,5.0,0.0,15.0,1.0,1.0,11.0,50.0,,,,,,60db09ba98a44872897cc587,09:06:25,27/02/2024
html-keyboard-response,82,173675,0.0-36.0-1.0,,"<div style=""display: flex; flex-direction: column; align-items: center; margin-top: -40px;""><img src=""images/pattern_6.png"" style=""width: 234px; height: 230px; margin-top: -50px;""><div style=""display: flex; justify-content: space-between; margin-top: 33px;""><img src=""images/choice_trial_11.png"" style=""width: 408px; height: 417px; margin-right: 608px;""></div></div>",,delaylearn,learning,display_response,4sB1vWlK4ZRxFuxaSlueZMJ7w1i1,4sB1vWlK4ZRxFuxaSlueZMJ7w1i1,,,,,,,,,,,,,,,,,chosen stimuli: images/choice_trial_11.png,,,,,60db09ba98a44872897cc587,09:06:25,27/02/2024
html-keyboard-response,83,174432,0.0-36.0-2.0,,,,delaylearn,learning,feedback_duration_window,4sB1vWlK4ZRxFuxaSlueZMJ7w1i1,4sB1vWlK4ZRxFuxaSlueZMJ7w1i1,,,,,,,,,,,,,,,,,,750.0,,,,60db09ba98a44872897cc587,09:06:25,27/02/2024
html-keyboard-response,84,175946,0.0-36.0-3.0,,<div style='margin:auto;width: auto; font-size: 150%'><span style='font-weight: bold; font-size: 100px; color: green;'>+10 points!</span><br><br></div>,,delaylearn,learning,feedback_image_window,4sB1vWlK4ZRxFuxaSlueZMJ7w1i1,4sB1vWlK4ZRxFuxaSlueZMJ7w1i1,,,,,,,,,,,,,,,,,,,,,,60db09ba98a44872897cc587,09:06:25,27/02/2024
html-keyboard-response,85,178191,0.0-37.0,,"<div style=""font-size:100px;"">+</div>",,delaylearn,learning,ITI,4sB1vWlK4ZRxFuxaSlueZMJ7w1i1,4sB1vWlK4ZRxFuxaSlueZMJ7w1i1,,,,,,,,,,,,,,,,,,,2239.0,,,60db09ba98a44872897cc587,09:06:25,27/02/2024
html-keyboard-response,86,179924,0.0-38.0-0.0,1731.8999999761581,"<div style=""display: flex; flex-direction: column; align-items: center; margin-top: -40px;""><img src=""images/pattern_4.png"" style=""width: 234px; height: 230px; margin-top: -50px;""><div style=""display: flex; justify-content: space-between; margin-top: 33px;""><img src=""images/choice_trial_8.png"" style=""width: 408px; height: 417px; margin-right: 200px;""><img src=""images/choice_trial_7.png"" style=""width: 408px; height: 417px;""></div></div>",f,delaylearn,learning,trial,4sB1vWlK4ZRxFuxaSlueZMJ7w1i1,4sB1vWlK4ZRxFuxaSlueZMJ7w1i1,1.0,images/choice_trial_8.png,images/choice_trial_7.png,images/pattern_4.png,j,j,7000.0,8.0,7.0,3.0,1.0,16.0,0.0,0.0,8.0,50.0,,,,,,60db09ba98a44872897cc587,09:06:25,27/02/2024
html-keyboard-response,87,180929,0.0-38.0-1.0,,"<div style=""display: flex; flex-direction: column; align-items: center; margin-top: -40px;""><img src=""images/pattern_4.png"" style=""width: 234px; height: 230px; margin-top: -50px;""><div style=""display: flex; justify-content: space-between; margin-top: 33px;""><img src=""images/choice_trial_8.png"" style=""width: 408px; height: 417px; margin-right: 608px;""></div></div>",,delaylearn,learning,display_response,4sB1vWlK4ZRxFuxaSlueZMJ7w1i1,4sB1vWlK4ZRxFuxaSlueZMJ7w1i1,,,,,,,,,,,,,,,,,chosen stimuli: images/choice_trial_8.png,,,,,60db09ba98a44872897cc587,09:06:25,27/02/2024
html-keyboard-response,88,187951,0.0-38.0-2.0,,,,delaylearn,learning,feedback_duration_window,4sB1vWlK4ZRxFuxaSlueZMJ7w1i1,4sB1vWlK4ZRxFuxaSlueZMJ7w1i1,,,,,,,,,,,,,,,,,,7000.0,,,,60db09ba98a44872897cc587,09:06:25,27/02/2024
html-keyboard-response,89,189479,0.0-38.0-3.0,,<div style='margin:auto;width: auto; font-size: 150%'><span style='font-weight: bold; font-size: 100px; color: red;'>0 points!</span><br><br></div>,,delaylearn,learning,feedback_image_window,4sB1vWlK4ZRxFuxaSlueZMJ7w1i1,4sB1vWlK4ZRxFuxaSlueZMJ7w1i1,,,,,,,,,,,,,,,,,,,,,,60db09ba98a44872897cc587,09:06:25,27/02/2024
html-keyboard-response,90,191399,0.0-39.0,,"<div style=""font-size:100px;"">+</div>",,delaylearn,learning,ITI,4sB1vWlK4ZRxFuxaSlueZMJ7w1i1,4sB1vWlK4ZRxFuxaSlueZMJ7w1i1,,,,,,,,,,,,,,,,,,,1890.0,,,60db09ba98a44872897cc587,09:06:25,27/02/2024
html-keyboard-response,91,193423,0.0-40.0-0.0,2020.5,"<div style=""display: flex; flex-direction: column; align-items: center; margin-top: -40px;""><img src=""images/pattern_7.png"" style=""width: 234px; height: 230px; margin-top: -50px;""><div style=""display: flex; justify-content: space-between; margin-top: 33px;""><img src=""images/choice_trial_13.png"" style=""width: 408px; height: 417px; margin-right: 200px;""><img src=""images/choice_trial_14.png"" style=""width: 408px; height: 417px;""></div></div>",j,delaylearn,learning,trial,4sB1vWlK4ZRxFuxaSlueZMJ7w1i1,4sB1vWlK4ZRxFuxaSlueZMJ7w1i1,1.0,images/choice_trial_13.png,images/choice_trial_14.png,images/pattern_7.png,j,f,750.0,13.0,14.0,6.0,0.0,17.0,0.0,1.0,14.0,60.0,,,,,,60db09ba98a44872897cc587,09:06:25,27/02/2024
html-keyboard-response,92,194441,0.0-40.0-1.0,,"<div style=""display: flex; flex-direction: column; align-items: center; margin-top: -40px;""><img src=""images/pattern_7.png"" style=""width: 234px; height: 230px; margin-top: -50px;""><div style=""display: flex; justify-content: space-between; margin-top: 33px;""><img src=""images/choice_trial_14.png"" style=""width: 408px; height: 417px; margin-left:608px;""></div></div>",,delaylearn,learning,display_response,4sB1vWlK4ZRxFuxaSlueZMJ7w1i1,4sB1vWlK4ZRxFuxaSlueZMJ7w1i1,,,,,,,,,,,,,,,,,chosen stimuli: images/choice_trial_14.png,,,,,60db09ba98a44872897cc587,09:06:25,27/02/2024
html-keyboard-response,93,195196,0.0-40.0-2.0,,,,delaylearn,learning,feedback_duration_window,4sB1vWlK4ZRxFuxaSlueZMJ7w1i1,4sB1vWlK4ZRxFuxaSlueZMJ7w1i1,,,,,,,,,,,,,,,,,,750.0,,,,60db09ba98a44872897cc587,09:06:25,27/02/2024
html-keyboard-response,94,196700,0.0-40.0-3.0,,<div style='margin:auto;width: auto; font-size: 150%'><span style='font-weight: bold; font-size: 100px; color: green;'>+10 points!</span><br><br></div>,,delaylearn,learning,feedback_image_window,4sB1vWlK4ZRxFuxaSlueZMJ7w1i1,4sB1vWlK4ZRxFuxaSlueZMJ7w1i1,,,,,,,,,,,,,,,,,,,,,,60db09ba98a44872897cc587,09:06:25,27/02/2024
html-keyboard-response,95,198682,0.0-41.0,,"<div style=""font-size:100px;"">+</div>",,delaylearn,learning,ITI,4sB1vWlK4ZRxFuxaSlueZMJ7w1i1,4sB1vWlK4ZRxFuxaSlueZMJ7w1i1,,,,,,,,,,,,,,,,,,,1973.0,,,60db09ba98a44872897cc587,09:06:25,27/02/2024
html-keyboard-response,96,199679,0.0-42.0-0.0,993.5,"<div style=""display: flex; flex-direction: column; align-items: center; margin-top: -40px;""><img src=""images/pattern_1.png"" style=""width: 234px; height: 230px; margin-top: -50px;""><div style=""display: flex; justify-content: space-between; margin-top: 33px;""><img src=""images/choice_trial_1.png"" style=""width: 408px; height: 417px; margin-right: 200px;""><img src=""images/choice_trial_2.png"" style=""width: 408px; height: 417px;""></div></div>",f,delaylearn,learning,trial,4sB1vWlK4ZRxFuxaSlueZMJ7w1i1,4sB1vWlK4ZRxFuxaSlueZMJ7w1i1,1.0,images/choice_trial_1.png,images/choice_trial_2.png,images/pattern_1.png,f,f,7000.0,1.0,2.0,1.0,0.0,18.0,1.0,1.0,1.0,70.0,,,,,,60db09ba98a44872897cc587,09:06:25,27/02/2024
html-keyboard-response,97,200695,0.0-42.0-1.0,,"<div style=""display: flex; flex-direction: column; align-items: center; margin-top: -40px;""><img src=""images/pattern_1.png"" style=""width: 234px; height: 230px; margin-top: -50px;""><div style=""display: flex; justify-content: space-between; margin-top: 33px;""><img src=""images/choice_trial_1.png"" style=""width: 408px; height: 417px; margin-right: 608px;""></div></div>",,delaylearn,learning,display_response,4sB1vWlK4ZRxFuxaSlueZMJ7w1i1,4sB1vWlK4ZRxFuxaSlueZMJ7w1i1,,,,,,,,,,,,,,,,,chosen stimuli: images/choice_trial_1.png,,,,,60db09ba98a44872897cc587,09:06:25,27/02/2024
html-keyboard-response,98,207717,0.0-42.0-2.0,,,,delaylearn,learning,feedback_duration_window,4sB1vWlK4ZRxFuxaSlueZMJ7w1i1,4sB1vWlK4ZRxFuxaSlueZMJ7w1i1,,,,,,,,,,,,,,,,,,7000.0,,,,60db09ba98a44872897cc587,09:06:25,27/02/2024
html-keyboard-response,99,209246,0.0-42.0-3.0,,<div style='margin:auto;width: auto; font-size: 150%'><span style='font-weight: bold; font-size: 100px; color: green;'>+10 points!</span><br><br></div>,,delaylearn,learning,feedback_image_window,4sB1vWlK4ZRxFuxaSlueZMJ7w1i1,4sB1vWlK4ZRxFuxaSlueZMJ7w1i1,,,,,,,,,,,,,,,,,,,,,,60db09ba98a44872897cc587,09:06:25,27/02/2024
html-keyboard-response,100,211620,0.0-43.0,,"<div style=""font-size:100px;"">+</div>",,delaylearn,learning,ITI,4sB1vWlK4ZRxFuxaSlueZMJ7w1i1,4sB1vWlK4ZRxFuxaSlueZMJ7w1i1,,,,,,,,,,,,,,,,,,,2339.0,,,60db09ba98a44872897cc587,09:06:25,27/02/2024
html-keyboard-response,101,212907,0.0-44.0-0.0,1283.9000000059605,"<div style=""display: flex; flex-direction: column; align-items: center; margin-top: -40px;""><img src=""images/pattern_6.png"" style=""width: 234px; height: 230px; margin-top: -50px;""><div style=""display: flex; justify-content: space-between; margin-top: 33px;""><img src=""images/choice_trial_12.png"" style=""width: 408px; height: 417px; margin-right: 200px;""><img src=""images/choice_trial_11.png"" style=""width: 408px; height: 417px;""></div></div>",j,delaylearn,learning,trial,4sB1vWlK4ZRxFuxaSlueZMJ7w1i1,4sB1vWlK4ZRxFuxaSlueZMJ7w1i1,1.0,images/choice_trial_12.png,images/choice_trial_11.png,images/pattern_6.png,j,j,750.0,12.0,11.0,5.0,1.0,19.0,1.0,1.0,11.0,80.0,,,,,,60db09ba98a44872897cc587,09:06:25,27/02/2024
html-keyboard-response,102,213912,0.0-44.0-1.0,,"<div style=""display: flex; flex-direction: column; align-items: center; margin-top: -40px;""><img src=""images/pattern_6.png"" style=""width: 234px; height: 230px; margin-top: -50px;""><div style=""display: flex; justify-content: space-between; margin-top: 33px;""><img src=""images/choice_trial_11.png"" style=""width: 408px; height: 417px; margin-left:608px;""></div></div>",,delaylearn,learning,display_response,4sB1vWlK4ZRxFuxaSlueZMJ7w1i1,4sB1vWlK4ZRxFuxaSlueZMJ7w1i1,,,,,,,,,,,,,,,,,chosen stimuli: images/choice_trial_11.png,,,,,60db09ba98a44872897cc587,09:06:25,27/02/2024
html-keyboard-response,103,214663,0.0-44.0-2.0,,,,delaylearn,learning,feedback_duration_window,4sB1vWlK4ZRxFuxaSlueZMJ7w1i1,4sB1vWlK4ZRxFuxaSlueZMJ7w1i1,,,,,,,,,,,,,,,,,,750.0,,,,60db09ba98a44872897cc587,09:06:25,27/02/2024
html-keyboard-response,104,216178,0.0-44.0-3.0,,<div style='margin:auto;width: auto; font-size: 150%'><span style='font-weight: bold; font-size: 100px; color: green;'>+10 points!</span><br><br></div>,,delaylearn,learning,feedback_image_window,4sB1vWlK4ZRxFuxaSlueZMJ7w1i1,4sB1vWlK4ZRxFuxaSlueZMJ7w1i1,,,,,,,,,,,,,,,,,,,,,,60db09ba98a44872897cc587,09:06:25,27/02/2024
html-keyboard-response,105,217818,0.0-45.0,,"<div style=""font-size:100px;"">+</div>",,delaylearn,learning,ITI,4sB1vWlK4ZRxFuxaSlueZMJ7w1i1,4sB1vWlK4ZRxFuxaSlueZMJ7w1i1,,,,,,,,,,,,,,,,,,,1637.0,,,60db09ba98a44872897cc587,09:06:25,27/02/2024
html-keyboard-response,106,218646,0.0-46.0-0.0,825.2000000178814,"<div style=""display: flex; flex-direction: column; align-items: center; margin-top: -40px;""><img src=""images/pattern_4.png"" style=""width: 234px; height: 230px; margin-top: -50px;""><div style=""display: flex; justify-content: space-between; margin-top: 33px;""><img src=""images/choice_trial_7.png"" style=""width: 408px; height: 417px; margin-right: 200px;""><img src=""images/choice_trial_8.png"" style=""width: 408px; height: 417px;""></div></div>",j,delaylearn,learning,trial,4sB1vWlK4ZRxFuxaSlueZMJ7w1i1,4sB1vWlK4ZRxFuxaSlueZMJ7w1i1,1.0,images/choice_trial_7.png,images/choice_trial_8.png,images/pattern_4.png,f,f,7000.0,7.0,8.0,3.0,0.0,20.0,0.0,0.0,8.0,80.0,,,,,,60db09ba98a44872897cc587,09:06:25,27/02/2024
html-keyboard-response,107,219660,0.0-46.0-1.0,,"<div style=""display: flex; flex-direction: column; align-items: center; margin-top: -40px;""><img src=""images/pattern_4.png"" style=""width: 234px; height: 230px; margin-top: -50px;""><div style=""display: flex; justify-content: space-between; margin-top: 33px;""><img src=""images/choice_trial_8.png"" style=""width: 408px; height: 417px; margin-left:608px;""></div></div>",,delaylearn,learning,display_response,4sB1vWlK4ZRxFuxaSlueZMJ7w1i1,4sB1vWlK4ZRxFuxaSlueZMJ7w1i1,,,,,,,,,,,,,,,,,chosen stimuli: images/choice_trial_8.png,,,,,60db09ba98a44872897cc587,09:06:25,27/02/2024
html-keyboard-response,108,226676,0.0-46.0-2.0,,,,delaylearn,learning,feedback_duration_window,4sB1vWlK4ZRxFuxaSlueZMJ7w1i1,4sB1vWlK4ZRxFuxaSlueZMJ7w1i1,,,,,,,,,,,,,,,,,,7000.0,,,,60db09ba98a44872897cc587,09:06:25,27/02/2024
html-keyboard-response,109,228205,0.0-46.0-3.0,,<div style='margin:auto;width: auto; font-size: 150%'><span style='font-weight: bold; font-size: 100px; color: red;'>0 points!</span><br><br></div>,,delaylearn,learning,feedback_image_window,4sB1vWlK4ZRxFuxaSlueZMJ7w1i1,4sB1vWlK4ZRxFuxaSlueZMJ7w1i1,,,,,,,,,,,,,,,,,,,,,,60db09ba98a44872897cc587,09:06:25,27/02/2024
html-keyboard-response,110,228715,0.0-47.0-0.0,,,,,,mood_trial_fixation,4sB1vWlK4ZRxFuxaSlueZMJ7w1i1,,,,,,,,,,,,,,,,,,,,,,,60db09ba98a44872897cc587,09:06:25,27/02/2024
lmdlab-html-vas-response,111,234227,0.0-47.0-1.0,4492.0,How happy are you right now?,0.15695573660860357,delaylearn,learning,mood_trial,4sB1vWlK4ZRxFuxaSlueZMJ7w1i1,4sB1vWlK4ZRxFuxaSlueZMJ7w1i1,,,,,,,,,,,,,,,,,,,,"['Very unhappy', 'Very happy']",,60db09ba98a44872897cc587,09:06:25,27/02/2024
html-keyboard-response,112,236407,0.0-48.0,,"<div style=""font-size:100px;"">+</div>",,delaylearn,learning,ITI,4sB1vWlK4ZRxFuxaSlueZMJ7w1i1,4sB1vWlK4ZRxFuxaSlueZMJ7w1i1,,,,,,,,,,,,,,,,,,,2168.0,,,60db09ba98a44872897cc587,09:06:25,27/02/2024
html-keyboard-response,113,237955,0.0-49.0-0.0,1545.5999999940395,"<div style=""display: flex; flex-direction: column; align-items: center; margin-top: -40px;""><img src=""images/pattern_7.png"" style=""width: 234px; height: 230px; margin-top: -50px;""><div style=""display: flex; justify-content: space-between; margin-top: 33px;""><img src=""images/choice_trial_14.png"" style=""width: 408px; height: 417px; margin-right: 200px;""><img src=""images/choice_trial_13.png"" style=""width: 408px; height: 417px;""></div></div>",j,delaylearn,learning,trial,4sB1vWlK4ZRxFuxaSlueZMJ7w1i1,4sB1vWlK4ZRxFuxaSlueZMJ7w1i1,1.0,images/choice_trial_14.png,images/choice_trial_13.png,images/pattern_7.png,j,j,750.0,14.0,13.0,6.0,1.0,21.0,1.0,1.0,13.0,90.0,,,,,,60db09ba98a44872897cc587,09:06:25,27/02/2024
html-keyboard-response,114,238963,0.0-49.0-1.0,,"<div style=""display: flex; flex-direction: column; align-items: center; margin-top: -40px;""><img src=""images/pattern_7.png"" style=""width: 234px; height: 230px; margin-top: -50px;""><div style=""display: flex; justify-content: space-between; margin-top: 33px;""><img src=""images/choice_trial_13.png"" style=""width: 408px; height: 417px; margin-left:608px;""></div></div>",,delaylearn,learning,display_response,4sB1vWlK4ZRxFuxaSlueZMJ7w1i1,4sB1vWlK4ZRxFuxaSlueZMJ7w1i1,,,,,,,,,,,,,,,,,chosen stimuli: images/choice_trial_13.png,,,,,60db09ba98a44872897cc587,09:06:25,27/02/2024
html-keyboard-response,115,239719,0.0-49.0-2.0,,,,delaylearn,learning,feedback_duration_window,4sB1vWlK4ZRxFuxaSlueZMJ7w1i1,4sB1vWlK4ZRxFuxaSlueZMJ7w1i1,,,,,,,,,,,,,,,,,,750.0,,,,60db09ba98a44872897cc587,09:06:25,27/02/2024
html-keyboard-response,116,241230,0.0-49.0-3.0,,<div style='margin:auto;width: auto; font-size: 150%'><span style='font-weight: bold; font-size: 100px; color: green;'>+10 points!</span><br><br></div>,,delaylearn,learning,feedback_image_window,4sB1vWlK4ZRxFuxaSlueZMJ7w1i1,4sB1vWlK4ZRxFuxaSlueZMJ7w1i1,,,,,,,,,,,,,,,,,,,,,,60db09ba98a44872897cc587,09:06:25,27/02/2024
html-keyboard-response,117,243026,0.0-50.0,,"<div style=""font-size:100px;"">+</div>",,delaylearn,learning,ITI,4sB1vWlK4ZRxFuxaSlueZMJ7w1i1,4sB1vWlK4ZRxFuxaSlueZMJ7w1i1,,,,,,,,,,,,,,,,,,,1781.0,,,60db09ba98a44872897cc587,09:06:25,27/02/2024
html-keyboard-response,118,244292,0.0-51.0-0.0,1262.0999999940395,"<div style=""display: flex; flex-direction: column; align-items: center; margin-top: -40px;""><img src=""images/pattern_1.png"" style=""width: 234px; height: 230px; margin-top: -50px;""><div style=""display: flex; justify-content: space-between; margin-top: 33px;""><img src=""images/choice_trial_2.png"" style=""width: 408px; height: 417px; margin-right: 200px;""><img src=""images/choice_trial_1.png"" style=""width: 408px; height: 417px;""></div></div>",f,delaylearn,learning,trial,4sB1vWlK4ZRxFuxaSlueZMJ7w1i1,4sB1vWlK4ZRxFuxaSlueZMJ7w1i1,1.0,images/choice_trial_2.png,images/choice_trial_1.png,images/pattern_1.png,f,j,7000.0,2.0,1.0,1.0,1.0,22.0,0.0,1.0,2.0,100.0,,,,,,60db09ba98a44872897cc587,09:06:25,27/02/2024
html-keyboard-response,119,245304,0.0-51.0-1.0,,"<div style=""display: flex; flex-direction: column; align-items: center; margin-top: -40px;""><img src=""images/pattern_1.png"" style=""width: 234px; height: 230px; margin-top: -50px;""><div style=""display: flex; justify-content: space-between; margin-top: 33px;""><img src=""images/choice_trial_2.png"" style=""width: 408px; height: 417px; margin-right: 608px;""></div></div>",,delaylearn,learning,display_response,4sB1vWlK4ZRxFuxaSlueZMJ7w1i1,4sB1vWlK4ZRxFuxaSlueZMJ7w1i1,,,,,,,,,,,,,,,,,chosen stimuli: images/choice_trial_2.png,,,,,60db09ba98a44872897cc587,09:06:25,27/02/2024
html-keyboard-response,120,252320,0.0-51.0-2.0,,,,delaylearn,learning,feedback_duration_window,4sB1vWlK4ZRxFuxaSlueZMJ7w1i1,4sB1vWlK4ZRxFuxaSlueZMJ7w1i1,,,,,,,,,,,,,,,,,,7000.0,,,,60db09ba98a44872897cc587,09:06:25,27/02/2024
html-keyboard-response,121,253859,0.0-51.0-3.0,,<div style='margin:auto;width: auto; font-size: 150%'><span style='font-weight: bold; font-size: 100px; color: green;'>+10 points!</span><br><br></div>,,delaylearn,learning,feedback_image_window,4sB1vWlK4ZRxFuxaSlueZMJ7w1i1,4sB1vWlK4ZRxFuxaSlueZMJ7w1i1,,,,,,,,,,,,,,,,,,,,,,60db09ba98a44872897cc587,09:06:25,27/02/2024
html-keyboard-response,122,255770,0.0-52.0,,"<div style=""font-size:100px;"">+</div>",,delaylearn,learning,ITI,4sB1vWlK4ZRxFuxaSlueZMJ7w1i1,4sB1vWlK4ZRxFuxaSlueZMJ7w1i1,,,,,,,,,,,,,,,,,,,1893.0,,,60db09ba98a44872897cc587,09:06:25,27/02/2024
html-keyboard-response,123,257448,0.0-53.0-0.0,1676.2999999821186,"<div style=""display: flex; flex-direction: column; align-items: center; margin-top: -40px;""><img src=""images/pattern_5.png"" style=""width: 234px; height: 230px; margin-top: -50px;""><div style=""display: flex; justify-content: space-between; margin-top: 33px;""><img src=""images/choice_trial_10.png"" style=""width: 408px; height: 417px; margin-right: 200px;""><img src=""images/choice_trial_9.png"" style=""width: 408px; height: 417px;""></div></div>",f,delaylearn,learning,trial,4sB1vWlK4ZRxFuxaSlueZMJ7w1i1,4sB1vWlK4ZRxFuxaSlueZMJ7w1i1,1.0,images/choice_trial_10.png,images/choice_trial_9.png,images/pattern_5.png,j,j,750.0,10.0,9.0,4.0,1.0,23.0,0.0,0.0,10.0,100.0,,,,,,60db09ba98a44872897cc587,09:06:25,27/02/2024
html-keyboard-response,124,258459,0.0-53.0-1.0,,"<div style=""display: flex; flex-direction: column; align-items: center; margin-top: -40px;""><img src=""images/pattern_5.png"" style=""width: 234px; height: 230px; margin-top: -50px;""><div style=""display: flex; justify-content: space-between; margin-top: 33px;""><img src=""images/choice_trial_10.png"" style=""width: 408px; height: 417px; margin-right: 608px;""></div></div>",,delaylearn,learning,display_response,4sB1vWlK4ZRxFuxaSlueZMJ7w1i1,4sB1vWlK4ZRxFuxaSlueZMJ7w1i1,,,,,,,,,,,,,,,,,chosen stimuli: images/choice_trial_10.png,,,,,60db09ba98a44872897cc587,09:06:25,27/02/2024
html-keyboard-response,125,259213,0.0-53.0-2.0,,,,delaylearn,learning,feedback_duration_window,4sB1vWlK4ZRxFuxaSlueZMJ7w1i1,4sB1vWlK4ZRxFuxaSlueZMJ7w1i1,,,,,,,,,,,,,,,,,,750.0,,,,60db09ba98a44872897cc587,09:06:25,27/02/2024
html-keyboard-response,126,260720,0.0-53.0-3.0,,<div style='margin:auto;width: auto; font-size: 150%'><span style='font-weight: bold; font-size: 100px; color: red;'>0 points!</span><br><br></div>,,delaylearn,learning,feedback_image_window,4sB1vWlK4ZRxFuxaSlueZMJ7w1i1,4sB1vWlK4ZRxFuxaSlueZMJ7w1i1,,,,,,,,,,,,,,,,,,,,,,60db09ba98a44872897cc587,09:06:25,27/02/2024
html-keyboard-response,127,262920,0.0-54.0,,"<div style=""font-size:100px;"">+</div>",,delaylearn,learning,ITI,4sB1vWlK4ZRxFuxaSlueZMJ7w1i1,4sB1vWlK4ZRxFuxaSlueZMJ7w1i1,,,,,,,,,,,,,,,,,,,2182.0,,,60db09ba98a44872897cc587,09:06:25,27/02/2024
html-keyboard-response,128,264292,0.0-55.0-0.0,1369.4000000059605,"<div style=""display: flex; flex-direction: column; align-items: center; margin-top: -40px;""><img src=""images/pattern_3.png"" style=""width: 234px; height: 230px; margin-top: -50px;""><div style=""display: flex; justify-content: space-between; margin-top: 33px;""><img src=""images/choice_trial_6.png"" style=""width: 408px; height: 417px; margin-right: 200px;""><img src=""images/choice_trial_5.png"" style=""width: 408px; height: 417px;""></div></div>",j,delaylearn,learning,trial,4sB1vWlK4ZRxFuxaSlueZMJ7w1i1,4sB1vWlK4ZRxFuxaSlueZMJ7w1i1,1.0,images/choice_trial_6.png,images/choice_trial_5.png,images/pattern_3.png,j,j,7000.0,6.0,5.0,2.0,1.0,24.0,1.0,1.0,5.0,110.0,,,,,,60db09ba98a44872897cc587,09:06:25,27/02/2024
html-keyboard-response,129,265307,0.0-55.0-1.0,,"<div style=""display: flex; flex-direction: column; align-items: center; margin-top: -40px;""><img src=""images/pattern_3.png"" style=""width: 234px; height: 230px; margin-top: -50px;""><div style=""display: flex; justify-content: space-between; margin-top: 33px;""><img src=""images/choice_trial_5.png"" style=""width: 408px; height: 417px; margin-left:608px;""></div></div>",,delaylearn,learning,display_response,4sB1vWlK4ZRxFuxaSlueZMJ7w1i1,4sB1vWlK4ZRxFuxaSlueZMJ7w1i1,,,,,,,,,,,,,,,,,chosen stimuli: images/choice_trial_5.png,,,,,60db09ba98a44872897cc587,09:06:25,27/02/2024
html-keyboard-response,130,272332,0.0-55.0-2.0,,,,delaylearn,learning,feedback_duration_window,4sB1vWlK4ZRxFuxaSlueZMJ7w1i1,4sB1vWlK4ZRxFuxaSlueZMJ7w1i1,,,,,,,,,,,,,,,,,,7000.0,,,,60db09ba98a44872897cc587,09:06:25,27/02/2024
html-keyboard-response,131,273856,0.0-55.0-3.0,,<div style='margin:auto;width: auto; font-size: 150%'><span style='font-weight: bold; font-size: 100px; color: green;'>+10 points!</span><br><br></div>,,delaylearn,learning,feedback_image_window,4sB1vWlK4ZRxFuxaSlueZMJ7w1i1,4sB1vWlK4ZRxFuxaSlueZMJ7w1i1,,,,,,,,,,,,,,,,,,,,,,60db09ba98a44872897cc587,09:06:25,27/02/2024
lmdlab-html-vas-response,132,281164,0.0-56.0-0.0,5791.0,*How <b><u>confident</u></b> are you feeling about your answers at this moment?*,0.21278033631234822,rewlearn,rate_confidence,,4sB1vWlK4ZRxFuxaSlueZMJ7w1i1,4sB1vWlK4ZRxFuxaSlueZMJ7w1i1,,,,,,,,,,,,,,,,,,,,"['No confidence', 'Complete confidence']",,60db09ba98a44872897cc587,09:06:25,27/02/2024
lmdlab-rest-trial-limit,133,291439,0.0-56.0-1.0,8761.299999982119,"<div style=""font-size:40px;""><b>Please take a break!</b><br><br><br><br><p>Great work: you earned undefined points.<br><br><br><p>You have completed part(s) 1 of 6.<br><br><br><br>When you are ready to continue<br><br><br>please click the button.</p><br><br>",0,delaylearn,learning,break,4sB1vWlK4ZRxFuxaSlueZMJ7w1i1,4sB1vWlK4ZRxFuxaSlueZMJ7w1i1,,,,,,,,,,,,,,,,,,,,,0.0,60db09ba98a44872897cc587,09:06:25,27/02/2024
html-keyboard-response,134,294456,0.0-56.0-2.0,,"<div style=""font-size:100px;"">+</div>",,delaylearn,learning,pre_fixation,4sB1vWlK4ZRxFuxaSlueZMJ7w1i1,,,,,,,,,,,,,,,,,,,,,,,60db09ba98a44872897cc587,09:06:25,27/02/2024
lmdlab-html-vas-response,135,299761,0.0-56.0-3.0-0.0,4269.0,How happy are you right now?,0.17024157372297555,delaylearn,learning,mood_baseline,4sB1vWlK4ZRxFuxaSlueZMJ7w1i1,4sB1vWlK4ZRxFuxaSlueZMJ7w1i1,,,,,,,,,,,,,,,,,,,,"['Very unhappy', 'Very happy']",,60db09ba98a44872897cc587,09:06:25,27/02/2024
html-keyboard-response,136,301272,0.0-56.0-3.0-1.0,,,,,,mood_baseline_fixation,4sB1vWlK4ZRxFuxaSlueZMJ7w1i1,,,,,,,,,,,,,,,,,,,,,,,60db09ba98a44872897cc587,09:06:25,27/02/2024
html-keyboard-response,137,303531,0.0-57.0,,"<div style=""font-size:100px;"">+</div>",,delaylearn,learning,ITI,4sB1vWlK4ZRxFuxaSlueZMJ7w1i1,4sB1vWlK4ZRxFuxaSlueZMJ7w1i1,,,,,,,,,,,,,,,,,,,2246.0,,,60db09ba98a44872897cc587,09:06:25,27/02/2024
html-keyboard-response,138,304615,0.0-58.0-0.0,1080.5999999940395,"<div style=""display: flex; flex-direction: column; align-items: center; margin-top: -40px;""><img src=""images/pattern_7.png"" style=""width: 234px; height: 230px; margin-top: -50px;""><div style=""display: flex; justify-content: space-between; margin-top: 33px;""><img src=""images/choice_trial_14.png"" style=""width: 408px; height: 417px; margin-right: 200px;""><img src=""images/choice_trial_13.png"" style=""width: 408px; height: 417px;""></div></div>",j,delaylearn,learning,trial,4sB1vWlK4ZRxFuxaSlueZMJ7w1i1,4sB1vWlK4ZRxFuxaSlueZMJ7w1i1,1.0,images/choice_trial_14.png,images/choice_trial_13.png,images/pattern_7.png,j,j,750.0,14.0,13.0,6.0,1.0,25.0,1.0,1.0,13.0,120.0,,,,,,60db09ba98a44872897cc587,09:06:25,27/02/2024
html-keyboard-response,139,305628,0.0-58.0-1.0,,"<div style=""display: flex; flex-direction: column; align-items: center; margin-top: -40px;""><img src=""images/pattern_7.png"" style=""width: 234px; height: 230px; margin-top: -50px;""><div style=""display: flex; justify-content: space-between; margin-top: 33px;""><img src=""images/choice_trial_13.png"" style=""width: 408px; height: 417px; margin-left:608px;""></div></div>",,delaylearn,learning,display_response,4sB1vWlK4ZRxFuxaSlueZMJ7w1i1,4sB1vWlK4ZRxFuxaSlueZMJ7w1i1,,,,,,,,,,,,,,,,,chosen stimuli: images/choice_trial_13.png,,,,,60db09ba98a44872897cc587,09:06:25,27/02/2024
html-keyboard-response,140,306386,0.0-58.0-2.0,,,,delaylearn,learning,feedback_duration_window,4sB1vWlK4ZRxFuxaSlueZMJ7w1i1,4sB1vWlK4ZRxFuxaSlueZMJ7w1i1,,,,,,,,,,,,,,,,,,750.0,,,,60db09ba98a44872897cc587,09:06:25,27/02/2024
html-keyboard-response,141,307898,0.0-58.0-3.0,,<div style='margin:auto;width: auto; font-size: 150%'><span style='font-weight: bold; font-size: 100px; color: green;'>+10 points!</span><br><br></div>,,delaylearn,learning,feedback_image_window,4sB1vWlK4ZRxFuxaSlueZMJ7w1i1,4sB1vWlK4ZRxFuxaSlueZMJ7w1i1,,,,,,,,,,,,,,,,,,,,,,60db09ba98a44872897cc587,09:06:25,27/02/2024
html-keyboard-response,142,308404,0.0-59.0-0.0,,,,,,mood_trial_fixation,4sB1vWlK4ZRxFuxaSlueZMJ7w1i1,,,,,,,,,,,,,,,,,,,,,,,60db09ba98a44872897cc587,09:06:25,27/02/2024
lmdlab-html-vas-response,143,313517,0.0-59.0-1.0,4104.0,How happy are you right now?,0.9434772937794241,delaylearn,learning,mood_trial,4sB1vWlK4ZRxFuxaSlueZMJ7w1i1,4sB1vWlK4ZRxFuxaSlueZMJ7w1i1,,,,,,,,,,,,,,,,,,,,"['Very unhappy', 'Very happy']",,60db09ba98a44872897cc587,09:06:25,27/02/2024
html-keyboard-response,144,315058,0.0-60.0,,"<div style=""font-size:100px;"">+</div>",,delaylearn,learning,ITI,4sB1vWlK4ZRxFuxaSlueZMJ7w1i1,4sB1vWlK4ZRxFuxaSlueZMJ7w1i1,,,,,,,,,,,,,,,,,,,1537.0,,,60db09ba98a44872897cc587,09:06:25,27/02/2024
html-keyboard-response,145,315984,0.0-61.0-0.0,922.7999999821186,"<div style=""display: flex; flex-direction: column; align-items: center; margin-top: -40px;""><img src=""images/pattern_1.png"" style=""width: 234px; height: 230px; margin-top: -50px;""><div style=""display: flex; justify-content: space-between; margin-top: 33px;""><img src=""images/choice_trial_1.png"" style=""width: 408px; height: 417px; margin-right: 200px;""><img src=""images/choice_trial_2.png"" style=""width: 408px; height: 417px;""></div></div>",f,delaylearn,learning,trial,4sB1vWlK4ZRxFuxaSlueZMJ7w1i1,4sB1vWlK4ZRxFuxaSlueZMJ7w1i1,1.0,images/choice_trial_1.png,images/choice_trial_2.png,images/pattern_1.png,f,f,7000.0,1.0,2.0,1.0,0.0,26.0,1.0,1.0,1.0,130.0,,,,,,60db09ba98a44872897cc587,09:06:25,27/02/2024
html-keyboard-response,146,317012,0.0-61.0-1.0,,"<div style=""display: flex; flex-direction: column; align-items: center; margin-top: -40px;""><img src=""images/pattern_1.png"" style=""width: 234px; height: 230px; margin-top: -50px;""><div style=""display: flex; justify-content: space-between; margin-top: 33px;""><img src=""images/choice_trial_1.png"" style=""width: 408px; height: 417px; margin-right: 608px;""></div></div>",,delaylearn,learning,display_response,4sB1vWlK4ZRxFuxaSlueZMJ7w1i1,4sB1vWlK4ZRxFuxaSlueZMJ7w1i1,,,,,,,,,,,,,,,,,chosen stimuli: images/choice_trial_1.png,,,,,60db09ba98a44872897cc587,09:06:25,27/02/2024
html-keyboard-response,147,324018,0.0-61.0-2.0,,,,delaylearn,learning,feedback_duration_window,4sB1vWlK4ZRxFuxaSlueZMJ7w1i1,4sB1vWlK4ZRxFuxaSlueZMJ7w1i1,,,,,,,,,,,,,,,,,,7000.0,,,,60db09ba98a44872897cc587,09:06:25,27/02/2024
html-keyboard-response,148,325551,0.0-61.0-3.0,,<div style='margin:auto;width: auto; font-size: 150%'><span style='font-weight: bold; font-size: 100px; color: green;'>+10 points!</span><br><br></div>,,delaylearn,learning,feedback_image_window,4sB1vWlK4ZRxFuxaSlueZMJ7w1i1,4sB1vWlK4ZRxFuxaSlueZMJ7w1i1,,,,,,,,,,,,,,,,,,,,,,60db09ba98a44872897cc587,09:06:25,27/02/2024
html-keyboard-response,149,328044,0.0-62.0,,"<div style=""font-size:100px;"">+</div>",,delaylearn,learning,ITI,4sB1vWlK4ZRxFuxaSlueZMJ7w1i1,4sB1vWlK4ZRxFuxaSlueZMJ7w1i1,,,,,,,,,,,,,,,,,,,2459.0,,,60db09ba98a44872897cc587,09:06:25,27/02/2024
html-keyboard-response,150,329650,0.0-63.0-0.0,1602.0,"<div style=""display: flex; flex-direction: column; align-items: center; margin-top: -40px;""><img src=""images/pattern_5.png"" style=""width: 234px; height: 230px; margin-top: -50px;""><div style=""display: flex; justify-content: space-between; margin-top: 33px;""><img src=""images/choice_trial_9.png"" style=""width: 408px; height: 417px; margin-right: 200px;""><img src=""images/choice_trial_10.png"" style=""width: 408px; height: 417px;""></div></div>",f,delaylearn,learning,trial,4sB1vWlK4ZRxFuxaSlueZMJ7w1i1,4sB1vWlK4ZRxFuxaSlueZMJ7w1i1,1.0,images/choice_trial_9.png,images/choice_trial_10.png,images/pattern_5.png,f,f,750.0,9.0,10.0,4.0,0.0,27.0,1.0,1.0,9.0,140.0,,,,,,60db09ba98a44872897cc587,09:06:25,27/02/2024
html-keyboard-response,151,330652,0.0-63.0-1.0,,"<div style=""display: flex; flex-direction: column; align-items: center; margin-top: -40px;""><img src=""images/pattern_5.png"" style=""width: 234px; height: 230px; margin-top: -50px;""><div style=""display: flex; justify-content: space-between; margin-top: 33px;""><img src=""images/choice_trial_9.png"" style=""width: 408px; height: 417px; margin-right: 608px;""></div></div>",,delaylearn,learning,display_response,4sB1vWlK4ZRxFuxaSlueZMJ7w1i1,4sB1vWlK4ZRxFuxaSlueZMJ7w1i1,,,,,,,,,,,,,,,,,chosen stimuli: images/choice_trial_9.png,,,,,60db09ba98a44872897cc587,09:06:25,27/02/2024
html-keyboard-response,152,331409,0.0-63.0-2.0,,,,delaylearn,learning,feedback_duration_window,4sB1vWlK4ZRxFuxaSlueZMJ7w1i1,4sB1vWlK4ZRxFuxaSlueZMJ7w1i1,,,,,,,,,,,,,,,,,,750.0,,,,60db09ba98a44872897cc587,09:06:25,27/02/2024
html-keyboard-response,153,332925,0.0-63.0-3.0,,<div style='margin:auto;width: auto; font-size: 150%'><span style='font-weight: bold; font-size: 100px; color: green;'>+10 points!</span><br><br></div>,,delaylearn,learning,feedback_image_window,4sB1vWlK4ZRxFuxaSlueZMJ7w1i1,4sB1vWlK4ZRxFuxaSlueZMJ7w1i1,,,,,,,,,,,,,,,,,,,,,,60db09ba98a44872897cc587,09:06:25,27/02/2024
html-keyboard-response,154,334798,0.0-64.0,,"<div style=""font-size:100px;"">+</div>",,delaylearn,learning,ITI,4sB1vWlK4ZRxFuxaSlueZMJ7w1i1,4sB1vWlK4ZRxFuxaSlueZMJ7w1i1,,,,,,,,,,,,,,,,,,,1839.0,,,60db09ba98a44872897cc587,09:06:25,27/02/2024
html-keyboard-response,155,336168,0.0-65.0-0.0,1367.0,"<div style=""display: flex; flex-direction: column; align-items: center; margin-top: -40px;""><img src=""images/pattern_6.png"" style=""width: 234px; height: 230px; margin-top: -50px;""><div style=""display: flex; justify-content: space-between; margin-top: 33px;""><img src=""images/choice_trial_12.png"" style=""width: 408px; height: 417px; margin-right: 200px;""><img src=""images/choice_trial_11.png"" style=""width: 408px; height: 417px;""></div></div>",j,delaylearn,learning,trial,4sB1vWlK4ZRxFuxaSlueZMJ7w1i1,4sB1vWlK4ZRxFuxaSlueZMJ7w1i1,1.0,images/choice_trial_12.png,images/choice_trial_11.png,images/pattern_6.png,j,j,750.0,12.0,11.0,5.0,1.0,28.0,1.0,1.0,11.0,150.0,,,,,,60db09ba98a44872897cc587,09:06:25,27/02/2024
html-keyboard-response,156,337183,0.0-65.0-1.0,,"<div style=""display: flex; flex-direction: column; align-items: center; margin-top: -40px;""><img src=""images/pattern_6.png"" style=""width: 234px; height: 230px; margin-top: -50px;""><div style=""display: flex; justify-content: space-between; margin-top: 33px;""><img src=""images/choice_trial_11.png"" style=""width: 408px; height: 417px; margin-left:608px;""></div></div>",,delaylearn,learning,display_response,4sB1vWlK4ZRxFuxaSlueZMJ7w1i1,4sB1vWlK4ZRxFuxaSlueZMJ7w1i1,,,,,,,,,,,,,,,,,chosen stimuli: images/choice_trial_11.png,,,,,60db09ba98a44872897cc587,09:06:25,27/02/2024
html-keyboard-response,157,337939,0.0-65.0-2.0,,,,delaylearn,learning,feedback_duration_window,4sB1vWlK4ZRxFuxaSlueZMJ7w1i1,4sB1vWlK4ZRxFuxaSlueZMJ7w1i1,,,,,,,,,,,,,,,,,,750.0,,,,60db09ba98a44872897cc587,09:06:25,27/02/2024
html-keyboard-response,158,339454,0.0-65.0-3.0,,<div style='margin:auto;width: auto; font-size: 150%'><span style='font-weight: bold; font-size: 100px; color: green;'>+10 points!</span><br><br></div>,,delaylearn,learning,feedback_image_window,4sB1vWlK4ZRxFuxaSlueZMJ7w1i1,4sB1vWlK4ZRxFuxaSlueZMJ7w1i1,,,,,,,,,,,,,,,,,,,,,,60db09ba98a44872897cc587,09:06:25,27/02/2024
html-keyboard-response,159,339966,0.0-66.0-0.0,,,,,,mood_trial_fixation,4sB1vWlK4ZRxFuxaSlueZMJ7w1i1,,,,,,,,,,,,,,,,,,,,,,,60db09ba98a44872897cc587,09:06:25,27/02/2024
lmdlab-html-vas-response,160,347093,0.0-66.0-1.0,6115.0,How happy are you right now?,0.8265619271729508,delaylearn,learning,mood_trial,4sB1vWlK4ZRxFuxaSlueZMJ7w1i1,4sB1vWlK4ZRxFuxaSlueZMJ7w1i1,,,,,,,,,,,,,,,,,,,,"['Very unhappy', 'Very happy']",,60db09ba98a44872897cc587,09:06:25,27/02/2024
html-keyboard-response,161,348898,0.0-67.0,,"<div style=""font-size:100px;"">+</div>",,delaylearn,learning,ITI,4sB1vWlK4ZRxFuxaSlueZMJ7w1i1,4sB1vWlK4ZRxFuxaSlueZMJ7w1i1,,,,,,,,,,,,,,,,,,,1768.0,,,60db09ba98a44872897cc587,09:06:25,27/02/2024
html-keyboard-response,162,350234,0.0-68.0-0.0,1333.0,"<div style=""display: flex; flex-direction: column; align-items: center; margin-top: -40px;""><img src=""images/pattern_4.png"" style=""width: 234px; height: 230px; margin-top: -50px;""><div style=""display: flex; justify-content: space-between; margin-top: 33px;""><img src=""images/choice_trial_8.png"" style=""width: 408px; height: 417px; margin-right: 200px;""><img src=""images/choice_trial_7.png"" style=""width: 408px; height: 417px;""></div></div>",j,delaylearn,learning,trial,4sB1vWlK4ZRxFuxaSlueZMJ7w1i1,4sB1vWlK4ZRxFuxaSlueZMJ7w1i1,1.0,images/choice_trial_8.png,images/choice_trial_7.png,images/pattern_4.png,j,j,7000.0,8.0,7.0,3.0,1.0,29.0,1.0,1.0,7.0,160.0,,,,,,60db09ba98a44872897cc587,09:06:25,27/02/2024
html-keyboard-response,163,351248,0.0-68.0-1.0,,"<div style=""display: flex; flex-direction: column; align-items: center; margin-top: -40px;""><img src=""images/pattern_4.png"" style=""width: 234px; height: 230px; margin-top: -50px;""><div style=""display: flex; justify-content: space-between; margin-top: 33px;""><img src=""images/choice_trial_7.png"" style=""width: 408px; height: 417px; margin-left:608px;""></div></div>",,delaylearn,learning,display_response,4sB1vWlK4ZRxFuxaSlueZMJ7w1i1,4sB1vWlK4ZRxFuxaSlueZMJ7w1i1,,,,,,,,,,,,,,,,,chosen stimuli: images/choice_trial_7.png,,,,,60db09ba98a44872897cc587,09:06:25,27/02/2024
html-keyboard-response,164,358284,0.0-68.0-2.0,,,,delaylearn,learning,feedback_duration_window,4sB1vWlK4ZRxFuxaSlueZMJ7w1i1,4sB1vWlK4ZRxFuxaSlueZMJ7w1i1,,,,,,,,,,,,,,,,,,7000.0,,,,60db09ba98a44872897cc587,09:06:25,27/02/2024
html-keyboard-response,165,359815,0.0-68.0-3.0,,<div style='margin:auto;width: auto; font-size: 150%'><span style='font-weight: bold; font-size: 100px; color: green;'>+10 points!</span><br><br></div>,,delaylearn,learning,feedback_image_window,4sB1vWlK4ZRxFuxaSlueZMJ7w1i1,4sB1vWlK4ZRxFuxaSlueZMJ7w1i1,,,,,,,,,,,,,,,,,,,,,,60db09ba98a44872897cc587,09:06:25,27/02/2024
html-keyboard-response,166,362147,0.0-69.0,,"<div style=""font-size:100px;"">+</div>",,delaylearn,learning,ITI,4sB1vWlK4ZRxFuxaSlueZMJ7w1i1,4sB1vWlK4ZRxFuxaSlueZMJ7w1i1,,,,,,,,,,,,,,,,,,,2304.0,,,60db09ba98a44872897cc587,09:06:25,27/02/2024
html-keyboard-response,167,363234,0.0-70.0-0.0,1083.3999999761581,"<div style=""display: flex; flex-direction: column; align-items: center; margin-top: -40px;""><img src=""images/pattern_3.png"" style=""width: 234px; height: 230px; margin-top: -50px;""><div style=""display: flex; justify-content: space-between; margin-top: 33px;""><img src=""images/choice_trial_6.png"" style=""width: 408px; height: 417px; margin-right: 200px;""><img src=""images/choice_trial_5.png"" style=""width: 408px; height: 417px;""></div></div>",j,delaylearn,learning,trial,4sB1vWlK4ZRxFuxaSlueZMJ7w1i1,4sB1vWlK4ZRxFuxaSlueZMJ7w1i1,1.0,images/choice_trial_6.png,images/choice_trial_5.png,images/pattern_3.png,j,j,7000.0,6.0,5.0,2.0,1.0,30.0,1.0,1.0,5.0,170.0,,,,,,60db09ba98a44872897cc587,09:06:25,27/02/2024
html-keyboard-response,168,364237,0.0-70.0-1.0,,"<div style=""display: flex; flex-direction: column; align-items: center; margin-top: -40px;""><img src=""images/pattern_3.png"" style=""width: 234px; height: 230px; margin-top: -50px;""><div style=""display: flex; justify-content: space-between; margin-top: 33px;""><img src=""images/choice_trial_5.png"" style=""width: 408px; height: 417px; margin-left:608px;""></div></div>",,delaylearn,learning,display_response,4sB1vWlK4ZRxFuxaSlueZMJ7w1i1,4sB1vWlK4ZRxFuxaSlueZMJ7w1i1,,,,,,,,,,,,,,,,,chosen stimuli: images/choice_trial_5.png,,,,,60db09ba98a44872897cc587,09:06:25,27/02/2024
html-keyboard-response,169,371276,0.0-70.0-2.0,,,,delaylearn,learning,feedback_duration_window,4sB1vWlK4ZRxFuxaSlueZMJ7w1i1,4sB1vWlK4ZRxFuxaSlueZMJ7w1i1,,,,,,,,,,,,,,,,,,7000.0,,,,60db09ba98a44872897cc587,09:06:25,27/02/2024
html-keyboard-response,170,372807,0.0-70.0-3.0,,<div style='margin:auto;width: auto; font-size: 150%'><span style='font-weight: bold; font-size: 100px; color: green;'>+10 points!</span><br><br></div>,,delaylearn,learning,feedback_image_window,4sB1vWlK4ZRxFuxaSlueZMJ7w1i1,4sB1vWlK4ZRxFuxaSlueZMJ7w1i1,,,,,,,,,,,,,,,,,,,,,,60db09ba98a44872897cc587,09:06:25,27/02/2024
html-keyboard-response,171,374398,0.0-71.0,,"<div style=""font-size:100px;"">+</div>",,delaylearn,learning,ITI,4sB1vWlK4ZRxFuxaSlueZMJ7w1i1,4sB1vWlK4ZRxFuxaSlueZMJ7w1i1,,,,,,,,,,,,,,,,,,,1566.0,,,60db09ba98a44872897cc587,09:06:25,27/02/2024
html-keyboard-response,172,375103,0.0-72.0-0.0,701.8000000119209,"<div style=""display: flex; flex-direction: column; align-items: center; margin-top: -40px;""><img src=""images/pattern_5.png"" style=""width: 234px; height: 230px; margin-top: -50px;""><div style=""display: flex; justify-content: space-between; margin-top: 33px;""><img src=""images/choice_trial_9.png"" style=""width: 408px; height: 417px; margin-right: 200px;""><img src=""images/choice_trial_10.png"" style=""width: 408px; height: 417px;""></div></div>",f,delaylearn,learning,trial,4sB1vWlK4ZRxFuxaSlueZMJ7w1i1,4sB1vWlK4ZRxFuxaSlueZMJ7w1i1,1.0,images/choice_trial_9.png,images/choice_trial_10.png,images/pattern_5.png,j,f,750.0,9.0,10.0,4.0,0.0,31.0,1.0,0.0,9.0,170.0,,,,,,60db09ba98a44872897cc587,09:06:25,27/02/2024
html-keyboard-response,173,376113,0.0-72.0-1.0,,"<div style=""display: flex; flex-direction: column; align-items: center; margin-top: -40px;""><img src=""images/pattern_5.png"" style=""width: 234px; height: 230px; margin-top: -50px;""><div style=""display: flex; justify-content: space-between; margin-top: 33px;""><img src=""images/choice_trial_9.png"" style=""width: 408px; height: 417px; margin-right: 608px;""></div></div>",,delaylearn,learning,display_response,4sB1vWlK4ZRxFuxaSlueZMJ7w1i1,4sB1vWlK4ZRxFuxaSlueZMJ7w1i1,,,,,,,,,,,,,,,,,chosen stimuli: images/choice_trial_9.png,,,,,60db09ba98a44872897cc587,09:06:25,27/02/2024
html-keyboard-response,174,376870,0.0-72.0-2.0,,,,delaylearn,learning,feedback_duration_window,4sB1vWlK4ZRxFuxaSlueZMJ7w1i1,4sB1vWlK4ZRxFuxaSlueZMJ7w1i1,,,,,,,,,,,,,,,,,,750.0,,,,60db09ba98a44872897cc587,09:06:25,27/02/2024
html-keyboard-response,175,378385,0.0-72.0-3.0,,<div style='margin:auto;width: auto; font-size: 150%'><span style='font-weight: bold; font-size: 100px; color: red;'>0 points!</span><br><br></div>,,delaylearn,learning,feedback_image_window,4sB1vWlK4ZRxFuxaSlueZMJ7w1i1,4sB1vWlK4ZRxFuxaSlueZMJ7w1i1,,,,,,,,,,,,,,,,,,,,,,60db09ba98a44872897cc587,09:06:25,27/02/2024
html-keyboard-response,176,380397,0.0-73.0,,"<div style=""font-size:100px;"">+</div>",,delaylearn,learning,ITI,4sB1vWlK4ZRxFuxaSlueZMJ7w1i1,4sB1vWlK4ZRxFuxaSlueZMJ7w1i1,,,,,,,,,,,,,,,,,,,1974.0,,,60db09ba98a44872897cc587,09:06:25,27/02/2024
html-keyboard-response,177,381519,0.0-74.0-0.0,1119.1000000238419,"<div style=""display: flex; flex-direction: column; align-items: center; margin-top: -40px;""><img src=""images/pattern_1.png"" style=""width: 234px; height: 230px; margin-top: -50px;""><div style=""display: flex; justify-content: space-between; margin-top: 33px;""><img src=""images/choice_trial_1.png"" style=""width: 408px; height: 417px; margin-right: 200px;""><img src=""images/choice_trial_2.png"" style=""width: 408px; height: 417px;""></div></div>",f,delaylearn,learning,trial,4sB1vWlK4ZRxFuxaSlueZMJ7w1i1,4sB1vWlK4ZRxFuxaSlueZMJ7w1i1,1.0,images/choice_trial_1.png,images/choice_trial_2.png,images/pattern_1.png,f,f,7000.0,1.0,2.0,1.0,0.0,32.0,1.0,1.0,1.0,180.0,,,,,,60db09ba98a44872897cc587,09:06:25,27/02/2024
html-keyboard-response,178,382524,0.0-74.0-1.0,,"<div style=""display: flex; flex-direction: column; align-items: center; margin-top: -40px;""><img src=""images/pattern_1.png"" style=""width: 234px; height: 230px; margin-top: -50px;""><div style=""display: flex; justify-content: space-between; margin-top: 33px;""><img src=""images/choice_trial_1.png"" style=""width: 408px; height: 417px; margin-right: 608px;""></div></div>",,delaylearn,learning,display_response,4sB1vWlK4ZRxFuxaSlueZMJ7w1i1,4sB1vWlK4ZRxFuxaSlueZMJ7w1i1,,,,,,,,,,,,,,,,,chosen stimuli: images/choice_trial_1.png,,,,,60db09ba98a44872897cc587,09:06:25,27/02/2024
html-keyboard-response,179,389543,0.0-74.0-2.0,,,,delaylearn,learning,feedback_duration_window,4sB1vWlK4ZRxFuxaSlueZMJ7w1i1,4sB1vWlK4ZRxFuxaSlueZMJ7w1i1,,,,,,,,,,,,,,,,,,7000.0,,,,60db09ba98a44872897cc587,09:06:25,27/02/2024
html-keyboard-response,180,391077,0.0-74.0-3.0,,<div style='margin:auto;width: auto; font-size: 150%'><span style='font-weight: bold; font-size: 100px; color: green;'>+10 points!</span><br><br></div>,,delaylearn,learning,feedback_image_window,4sB1vWlK4ZRxFuxaSlueZMJ7w1i1,4sB1vWlK4ZRxFuxaSlueZMJ7w1i1,,,,,,,,,,,,,,,,,,,,,,60db09ba98a44872897cc587,09:06:25,27/02/2024
html-keyboard-response,181,391619,0.0-75.0-0.0,,,,,,mood_trial_fixation,4sB1vWlK4ZRxFuxaSlueZMJ7w1i1,,,,,,,,,,,,,,,,,,,,,,,60db09ba98a44872897cc587,09:06:25,27/02/2024
lmdlab-html-vas-response,182,396622,0.0-75.0-1.0,3979.0,How happy are you right now?,0.5953883613828785,delaylearn,learning,mood_trial,4sB1vWlK4ZRxFuxaSlueZMJ7w1i1,4sB1vWlK4ZRxFuxaSlueZMJ7w1i1,,,,,,,,,,,,,,,,,,,,"['Very unhappy', 'Very happy']",,60db09ba98a44872897cc587,09:06:25,27/02/2024
html-keyboard-response,183,398462,0.0-76.0,,"<div style=""font-size:100px;"">+</div>",,delaylearn,learning,ITI,4sB1vWlK4ZRxFuxaSlueZMJ7w1i1,4sB1vWlK4ZRxFuxaSlueZMJ7w1i1,,,,,,,,,,,,,,,,,,,1832.0,,,60db09ba98a44872897cc587,09:06:25,27/02/2024
html-keyboard-response,184,399688,0.0-77.0-0.0,1223.300000011921,"<div style=""display: flex; flex-direction: column; align-items: center; margin-top: -40px;""><img src=""images/pattern_6.png"" style=""width: 234px; height: 230px; margin-top: -50px;""><div style=""display: flex; justify-content: space-between; margin-top: 33px;""><img src=""images/choice_trial_11.png"" style=""width: 408px; height: 417px; margin-right: 200px;""><img src=""images/choice_trial_12.png"" style=""width: 408px; height: 417px;""></div></div>",j,delaylearn,learning,trial,4sB1vWlK4ZRxFuxaSlueZMJ7w1i1,4sB1vWlK4ZRxFuxaSlueZMJ7w1i1,1.0,images/choice_trial_11.png,images/choice_trial_12.png,images/pattern_6.png,j,f,750.0,11.0,12.0,5.0,0.0,33.0,0.0,1.0,12.0,190.0,,,,,,60db09ba98a44872897cc587,09:06:25,27/02/2024
html-keyboard-response,185,400697,0.0-77.0-1.0,,"<div style=""display: flex; flex-direction: column; align-items: center; margin-top: -40px;""><img src=""images/pattern_6.png"" style=""width: 234px; height: 230px; margin-top: -50px;""><div style=""display: flex; justify-content: space-between; margin-top: 33px;""><img src=""images/choice_trial_12.png"" style=""width: 408px; height: 417px; margin-left:608px;""></div></div>",,delaylearn,learning,display_response,4sB1vWlK4ZRxFuxaSlueZMJ7w1i1,4sB1vWlK4ZRxFuxaSlueZMJ7w1i1,,,,,,,,,,,,,,,,,chosen stimuli: images/choice_trial_12.png,,,,,60db09ba98a44872897cc587,09:06:25,27/02/2024
html-keyboard-response,186,401485,0.0-77.0-2.0,,,,delaylearn,learning,feedback_duration_window,4sB1vWlK4ZRxFuxaSlueZMJ7w1i1,4sB1vWlK4ZRxFuxaSlueZMJ7w1i1,,,,,,,,,,,,,,,,,,750.0,,,,60db09ba98a44872897cc587,09:06:25,27/02/2024
html-keyboard-response,187,403021,0.0-77.0-3.0,,<div style='margin:auto;width: auto; font-size: 150%'><span style='font-weight: bold; font-size: 100px; color: green;'>+10 points!</span><br><br></div>,,delaylearn,learning,feedback_image_window,4sB1vWlK4ZRxFuxaSlueZMJ7w1i1,4sB1vWlK4ZRxFuxaSlueZMJ7w1i1,,,,,,,,,,,,,,,,,,,,,,60db09ba98a44872897cc587,09:06:25,27/02/2024
html-keyboard-response,188,405137,0.0-78.0,,"<div style=""font-size:100px;"">+</div>",,delaylearn,learning,ITI,4sB1vWlK4ZRxFuxaSlueZMJ7w1i1,4sB1vWlK4ZRxFuxaSlueZMJ7w1i1,,,,,,,,,,,,,,,,,,,2100.0,,,60db09ba98a44872897cc587,09:06:25,27/02/2024
html-keyboard-response,189,406510,0.0-79.0-0.0,1370.300000011921,"<div style=""display: flex; flex-direction: column; align-items: center; margin-top: -40px;""><img src=""images/pattern_3.png"" style=""width: 234px; height: 230px; margin-top: -50px;""><div style=""display: flex; justify-content: space-between; margin-top: 33px;""><img src=""images/choice_trial_6.png"" style=""width: 408px; height: 417px; margin-right: 200px;""><img src=""images/choice_trial_5.png"" style=""width: 408px; height: 417px;""></div></div>",j,delaylearn,learning,trial,4sB1vWlK4ZRxFuxaSlueZMJ7w1i1,4sB1vWlK4ZRxFuxaSlueZMJ7w1i1,1.0,images/choice_trial_6.png,images/choice_trial_5.png,images/pattern_3.png,j,j,7000.0,6.0,5.0,2.0,1.0,34.0,1.0,1.0,5.0,200.0,,,,,,60db09ba98a44872897cc587,09:06:25,27/02/2024
html-keyboard-response,190,407519,0.0-79.0-1.0,,"<div style=""display: flex; flex-direction: column; align-items: center; margin-top: -40px;""><img src=""images/pattern_3.png"" style=""width: 234px; height: 230px; margin-top: -50px;""><div style=""display: flex; justify-content: space-between; margin-top: 33px;""><img src=""images/choice_trial_5.png"" style=""width: 408px; height: 417px; margin-left:608px;""></div></div>",,delaylearn,learning,display_response,4sB1vWlK4ZRxFuxaSlueZMJ7w1i1,4sB1vWlK4ZRxFuxaSlueZMJ7w1i1,,,,,,,,,,,,,,,,,chosen stimuli: images/choice_trial_5.png,,,,,60db09ba98a44872897cc587,09:06:25,27/02/2024
html-keyboard-response,191,414527,0.0-79.0-2.0,,,,delaylearn,learning,feedback_duration_window,4sB1vWlK4ZRxFuxaSlueZMJ7w1i1,4sB1vWlK4ZRxFuxaSlueZMJ7w1i1,,,,,,,,,,,,,,,,,,7000.0,,,,60db09ba98a44872897cc587,09:06:25,27/02/2024
html-keyboard-response,192,416058,0.0-79.0-3.0,,<div style='margin:auto;width: auto; font-size: 150%'><span style='font-weight: bold; font-size: 100px; color: green;'>+10 points!</span><br><br></div>,,delaylearn,learning,feedback_image_window,4sB1vWlK4ZRxFuxaSlueZMJ7w1i1,4sB1vWlK4ZRxFuxaSlueZMJ7w1i1,,,,,,,,,,,,,,,,,,,,,,60db09ba98a44872897cc587,09:06:25,27/02/2024
html-keyboard-response,193,418254,0.0-80.0,,"<div style=""font-size:100px;"">+</div>",,delaylearn,learning,ITI,4sB1vWlK4ZRxFuxaSlueZMJ7w1i1,4sB1vWlK4ZRxFuxaSlueZMJ7w1i1,,,,,,,,,,,,,,,,,,,2159.0,,,60db09ba98a44872897cc587,09:06:25,27/02/2024
html-keyboard-response,194,419889,0.0-81.0-0.0,1632.4000000059605,"<div style=""display: flex; flex-direction: column; align-items: center; margin-top: -40px;""><img src=""images/pattern_4.png"" style=""width: 234px; height: 230px; margin-top: -50px;""><div style=""display: flex; justify-content: space-between; margin-top: 33px;""><img src=""images/choice_trial_8.png"" style=""width: 408px; height: 417px; margin-right: 200px;""><img src=""images/choice_trial_7.png"" style=""width: 408px; height: 417px;""></div></div>",f,delaylearn,learning,trial,4sB1vWlK4ZRxFuxaSlueZMJ7w1i1,4sB1vWlK4ZRxFuxaSlueZMJ7w1i1,1.0,images/choice_trial_8.png,images/choice_trial_7.png,images/pattern_4.png,f,j,7000.0,8.0,7.0,3.0,1.0,35.0,0.0,1.0,8.0,210.0,,,,,,60db09ba98a44872897cc587,09:06:25,27/02/2024
html-keyboard-response,195,420892,0.0-81.0-1.0,,"<div style=""display: flex; flex-direction: column; align-items: center; margin-top: -40px;""><img src=""images/pattern_4.png"" style=""width: 234px; height: 230px; margin-top: -50px;""><div style=""display: flex; justify-content: space-between; margin-top: 33px;""><img src=""images/choice_trial_8.png"" style=""width: 408px; height: 417px; margin-right: 608px;""></div></div>",,delaylearn,learning,display_response,4sB1vWlK4ZRxFuxaSlueZMJ7w1i1,4sB1vWlK4ZRxFuxaSlueZMJ7w1i1,,,,,,,,,,,,,,,,,chosen stimuli: images/choice_trial_8.png,,,,,60db09ba98a44872897cc587,09:06:25,27/02/2024
html-keyboard-response,196,427912,0.0-81.0-2.0,,,,delaylearn,learning,feedback_duration_window,4sB1vWlK4ZRxFuxaSlueZMJ7w1i1,4sB1vWlK4ZRxFuxaSlueZMJ7w1i1,,,,,,,,,,,,,,,,,,7000.0,,,,60db09ba98a44872897cc587,09:06:25,27/02/2024
html-keyboard-response,197,429422,0.0-81.0-3.0,,<div style='margin:auto;width: auto; font-size: 150%'><span style='font-weight: bold; font-size: 100px; color: green;'>+10 points!</span><br><br></div>,,delaylearn,learning,feedback_image_window,4sB1vWlK4ZRxFuxaSlueZMJ7w1i1,4sB1vWlK4ZRxFuxaSlueZMJ7w1i1,,,,,,,,,,,,,,,,,,,,,,60db09ba98a44872897cc587,09:06:25,27/02/2024
html-keyboard-response,198,431814,0.0-82.0,,"<div style=""font-size:100px;"">+</div>",,delaylearn,learning,ITI,4sB1vWlK4ZRxFuxaSlueZMJ7w1i1,4sB1vWlK4ZRxFuxaSlueZMJ7w1i1,,,,,,,,,,,,,,,,,,,2362.0,,,60db09ba98a44872897cc587,09:06:25,27/02/2024
html-keyboard-response,199,432993,0.0-83.0-0.0,1176.0999999940395,"<div style=""display: flex; flex-direction: column; align-items: center; margin-top: -40px;""><img src=""images/pattern_7.png"" style=""width: 234px; height: 230px; margin-top: -50px;""><div style=""display: flex; justify-content: space-between; margin-top: 33px;""><img src=""images/choice_trial_13.png"" style=""width: 408px; height: 417px; margin-right: 200px;""><img src=""images/choice_trial_14.png"" style=""width: 408px; height: 417px;""></div></div>",f,delaylearn,learning,trial,4sB1vWlK4ZRxFuxaSlueZMJ7w1i1,4sB1vWlK4ZRxFuxaSlueZMJ7w1i1,1.0,images/choice_trial_13.png,images/choice_trial_14.png,images/pattern_7.png,f,f,750.0,13.0,14.0,6.0,0.0,36.0,1.0,1.0,13.0,220.0,,,,,,60db09ba98a44872897cc587,09:06:25,27/02/2024
html-keyboard-response,200,434001,0.0-83.0-1.0,,"<div style=""display: flex; flex-direction: column; align-items: center; margin-top: -40px;""><img src=""images/pattern_7.png"" style=""width: 234px; height: 230px; margin-top: -50px;""><div style=""display: flex; justify-content: space-between; margin-top: 33px;""><img src=""images/choice_trial_13.png"" style=""width: 408px; height: 417px; margin-right: 608px;""></div></div>",,delaylearn,learning,display_response,4sB1vWlK4ZRxFuxaSlueZMJ7w1i1,4sB1vWlK4ZRxFuxaSlueZMJ7w1i1,,,,,,,,,,,,,,,,,chosen stimuli: images/choice_trial_13.png,,,,,60db09ba98a44872897cc587,09:06:25,27/02/2024
html-keyboard-response,201,434758,0.0-83.0-2.0,,,,delaylearn,learning,feedback_duration_window,4sB1vWlK4ZRxFuxaSlueZMJ7w1i1,4sB1vWlK4ZRxFuxaSlueZMJ7w1i1,,,,,,,,,,,,,,,,,,750.0,,,,60db09ba98a44872897cc587,09:06:25,27/02/2024
html-keyboard-response,202,436266,0.0-83.0-3.0,,<div style='margin:auto;width: auto; font-size: 150%'><span style='font-weight: bold; font-size: 100px; color: green;'>+10 points!</span><br><br></div>,,delaylearn,learning,feedback_image_window,4sB1vWlK4ZRxFuxaSlueZMJ7w1i1,4sB1vWlK4ZRxFuxaSlueZMJ7w1i1,,,,,,,,,,,,,,,,,,,,,,60db09ba98a44872897cc587,09:06:25,27/02/2024
html-keyboard-response,203,438145,0.0-84.0,,"<div style=""font-size:100px;"">+</div>",,delaylearn,learning,ITI,4sB1vWlK4ZRxFuxaSlueZMJ7w1i1,4sB1vWlK4ZRxFuxaSlueZMJ7w1i1,,,,,,,,,,,,,,,,,,,1853.0,,,60db09ba98a44872897cc587,09:06:25,27/02/2024
html-keyboard-response,204,439259,0.0-85.0-0.0,1110.5999999940395,"<div style=""display: flex; flex-direction: column; align-items: center; margin-top: -40px;""><img src=""images/pattern_1.png"" style=""width: 234px; height: 230px; margin-top: -50px;""><div style=""display: flex; justify-content: space-between; margin-top: 33px;""><img src=""images/choice_trial_1.png"" style=""width: 408px; height: 417px; margin-right: 200px;""><img src=""images/choice_trial_2.png"" style=""width: 408px; height: 417px;""></div></div>",f,delaylearn,learning,trial,4sB1vWlK4ZRxFuxaSlueZMJ7w1i1,4sB1vWlK4ZRxFuxaSlueZMJ7w1i1,1.0,images/choice_trial_1.png,images/choice_trial_2.png,images/pattern_1.png,f,f,7000.0,1.0,2.0,1.0,0.0,37.0,1.0,1.0,1.0,230.0,,,,,,60db09ba98a44872897cc587,09:06:25,27/02/2024
html-keyboard-response,205,440277,0.0-85.0-1.0,,"<div style=""display: flex; flex-direction: column; align-items: center; margin-top: -40px;""><img src=""images/pattern_1.png"" style=""width: 234px; height: 230px; margin-top: -50px;""><div style=""display: flex; justify-content: space-between; margin-top: 33px;""><img src=""images/choice_trial_1.png"" style=""width: 408px; height: 417px; margin-right: 608px;""></div></div>",,delaylearn,learning,display_response,4sB1vWlK4ZRxFuxaSlueZMJ7w1i1,4sB1vWlK4ZRxFuxaSlueZMJ7w1i1,,,,,,,,,,,,,,,,,chosen stimuli: images/choice_trial_1.png,,,,,60db09ba98a44872897cc587,09:06:25,27/02/2024
html-keyboard-response,206,447297,0.0-85.0-2.0,,,,delaylearn,learning,feedback_duration_window,4sB1vWlK4ZRxFuxaSlueZMJ7w1i1,4sB1vWlK4ZRxFuxaSlueZMJ7w1i1,,,,,,,,,,,,,,,,,,7000.0,,,,60db09ba98a44872897cc587,09:06:25,27/02/2024
html-keyboard-response,207,448824,0.0-85.0-3.0,,<div style='margin:auto;width: auto; font-size: 150%'><span style='font-weight: bold; font-size: 100px; color: green;'>+10 points!</span><br><br></div>,,delaylearn,learning,feedback_image_window,4sB1vWlK4ZRxFuxaSlueZMJ7w1i1,4sB1vWlK4ZRxFuxaSlueZMJ7w1i1,,,,,,,,,,,,,,,,,,,,,,60db09ba98a44872897cc587,09:06:25,27/02/2024
html-keyboard-response,208,449333,0.0-86.0-0.0,,,,,,mood_trial_fixation,4sB1vWlK4ZRxFuxaSlueZMJ7w1i1,,,,,,,,,,,,,,,,,,,,,,,60db09ba98a44872897cc587,09:06:25,27/02/2024
lmdlab-html-vas-response,209,454600,0.0-86.0-1.0,4245.0,How happy are you right now?,0.6379030401488689,delaylearn,learning,mood_trial,4sB1vWlK4ZRxFuxaSlueZMJ7w1i1,4sB1vWlK4ZRxFuxaSlueZMJ7w1i1,,,,,,,,,,,,,,,,,,,,"['Very unhappy', 'Very happy']",,60db09ba98a44872897cc587,09:06:25,27/02/2024
html-keyboard-response,210,456246,0.0-87.0,,"<div style=""font-size:100px;"">+</div>",,delaylearn,learning,ITI,4sB1vWlK4ZRxFuxaSlueZMJ7w1i1,4sB1vWlK4ZRxFuxaSlueZMJ7w1i1,,,,,,,,,,,,,,,,,,,1639.0,,,60db09ba98a44872897cc587,09:06:25,27/02/2024
html-keyboard-response,211,457416,0.0-88.0-0.0,1166.0,"<div style=""display: flex; flex-direction: column; align-items: center; margin-top: -40px;""><img src=""images/pattern_3.png"" style=""width: 234px; height: 230px; margin-top: -50px;""><div style=""display: flex; justify-content: space-between; margin-top: 33px;""><img src=""images/choice_trial_5.png"" style=""width: 408px; height: 417px; margin-right: 200px;""><img src=""images/choice_trial_6.png"" style=""width: 408px; height: 417px;""></div></div>",f,delaylearn,learning,trial,4sB1vWlK4ZRxFuxaSlueZMJ7w1i1,4sB1vWlK4ZRxFuxaSlueZMJ7w1i1,1.0,images/choice_trial_5.png,images/choice_trial_6.png,images/pattern_3.png,j,f,7000.0,5.0,6.0,2.0,0.0,38.0,1.0,0.0,5.0,230.0,,,,,,60db09ba98a44872897cc587,09:06:25,27/02/2024
html-keyboard-response,212,458428,0.0-88.0-1.0,,"<div style=""display: flex; flex-direction: column; align-items: center; margin-top: -40px;""><img src=""images/pattern_3.png"" style=""width: 234px; height: 230px; margin-top: -50px;""><div style=""display: flex; justify-content: space-between; margin-top: 33px;""><img src=""images/choice_trial_5.png"" style=""width: 408px; height: 417px; margin-right: 608px;""></div></div>",,delaylearn,learning,display_response,4sB1vWlK4ZRxFuxaSlueZMJ7w1i1,4sB1vWlK4ZRxFuxaSlueZMJ7w1i1,,,,,,,,,,,,,,,,,chosen stimuli: images/choice_trial_5.png,,,,,60db09ba98a44872897cc587,09:06:25,27/02/2024
html-keyboard-response,213,465448,0.0-88.0-2.0,,,,delaylearn,learning,feedback_duration_window,4sB1vWlK4ZRxFuxaSlueZMJ7w1i1,4sB1vWlK4ZRxFuxaSlueZMJ7w1i1,,,,,,,,,,,,,,,,,,7000.0,,,,60db09ba98a44872897cc587,09:06:25,27/02/2024
html-keyboard-response,214,466970,0.0-88.0-3.0,,<div style='margin:auto;width: auto; font-size: 150%'><span style='font-weight: bold; font-size: 100px; color: red;'>0 points!</span><br><br></div>,,delaylearn,learning,feedback_image_window,4sB1vWlK4ZRxFuxaSlueZMJ7w1i1,4sB1vWlK4ZRxFuxaSlueZMJ7w1i1,,,,,,,,,,,,,,,,,,,,,,60db09ba98a44872897cc587,09:06:25,27/02/2024
html-keyboard-response,215,468651,0.0-89.0,,"<div style=""font-size:100px;"">+</div>",,delaylearn,learning,ITI,4sB1vWlK4ZRxFuxaSlueZMJ7w1i1,4sB1vWlK4ZRxFuxaSlueZMJ7w1i1,,,,,,,,,,,,,,,,,,,1656.0,,,60db09ba98a44872897cc587,09:06:25,27/02/2024
html-keyboard-response,216,469599,0.0-90.0-0.0,945.5999999940395,"<div style=""display: flex; flex-direction: column; align-items: center; margin-top: -40px;""><img src=""images/pattern_7.png"" style=""width: 234px; height: 230px; margin-top: -50px;""><div style=""display: flex; justify-content: space-between; margin-top: 33px;""><img src=""images/choice_trial_14.png"" style=""width: 408px; height: 417px; margin-right: 200px;""><img src=""images/choice_trial_13.png"" style=""width: 408px; height: 417px;""></div></div>",j,delaylearn,learning,trial,4sB1vWlK4ZRxFuxaSlueZMJ7w1i1,4sB1vWlK4ZRxFuxaSlueZMJ7w1i1,1.0,images/choice_trial_14.png,images/choice_trial_13.png,images/pattern_7.png,j,j,750.0,14.0,13.0,6.0,1.0,39.0,1.0,1.0,13.0,240.0,,,,,,60db09ba98a44872897cc587,09:06:25,27/02/2024
html-keyboard-response,217,470605,0.0-90.0-1.0,,"<div style=""display: flex; flex-direction: column; align-items: center; margin-top: -40px;""><img src=""images/pattern_7.png"" style=""width: 234px; height: 230px; margin-top: -50px;""><div style=""display: flex; justify-content: space-between; margin-top: 33px;""><img src=""images/choice_trial_13.png"" style=""width: 408px; height: 417px; margin-left:608px;""></div></div>",,delaylearn,learning,display_response,4sB1vWlK4ZRxFuxaSlueZMJ7w1i1,4sB1vWlK4ZRxFuxaSlueZMJ7w1i1,,,,,,,,,,,,,,,,,chosen stimuli: images/choice_trial_13.png,,,,,60db09ba98a44872897cc587,09:06:25,27/02/2024
html-keyboard-response,218,471359,0.0-90.0-2.0,,,,delaylearn,learning,feedback_duration_window,4sB1vWlK4ZRxFuxaSlueZMJ7w1i1,4sB1vWlK4ZRxFuxaSlueZMJ7w1i1,,,,,,,,,,,,,,,,,,750.0,,,,60db09ba98a44872897cc587,09:06:25,27/02/2024
html-keyboard-response,219,472869,0.0-90.0-3.0,,<div style='margin:auto;width: auto; font-size: 150%'><span style='font-weight: bold; font-size: 100px; color: green;'>+10 points!</span><br><br></div>,,delaylearn,learning,feedback_image_window,4sB1vWlK4ZRxFuxaSlueZMJ7w1i1,4sB1vWlK4ZRxFuxaSlueZMJ7w1i1,,,,,,,,,,,,,,,,,,,,,,60db09ba98a44872897cc587,09:06:25,27/02/2024
html-keyboard-response,220,474716,0.0-91.0,,"<div style=""font-size:100px;"">+</div>",,delaylearn,learning,ITI,4sB1vWlK4ZRxFuxaSlueZMJ7w1i1,4sB1vWlK4ZRxFuxaSlueZMJ7w1i1,,,,,,,,,,,,,,,,,,,1806.0,,,60db09ba98a44872897cc587,09:06:25,27/02/2024
html-keyboard-response,221,475592,0.0-92.0-0.0,868.8999999761581,"<div style=""display: flex; flex-direction: column; align-items: center; margin-top: -40px;""><img src=""images/pattern_5.png"" style=""width: 234px; height: 230px; margin-top: -50px;""><div style=""display: flex; justify-content: space-between; margin-top: 33px;""><img src=""images/choice_trial_10.png"" style=""width: 408px; height: 417px; margin-right: 200px;""><img src=""images/choice_trial_9.png"" style=""width: 408px; height: 417px;""></div></div>",j,delaylearn,learning,trial,4sB1vWlK4ZRxFuxaSlueZMJ7w1i1,4sB1vWlK4ZRxFuxaSlueZMJ7w1i1,1.0,images/choice_trial_10.png,images/choice_trial_9.png,images/pattern_5.png,j,j,750.0,10.0,9.0,4.0,1.0,40.0,1.0,1.0,9.0,250.0,,,,,,60db09ba98a44872897cc587,09:06:25,27/02/2024
html-keyboard-response,222,476599,0.0-92.0-1.0,,"<div style=""display: flex; flex-direction: column; align-items: center; margin-top: -40px;""><img src=""images/pattern_5.png"" style=""width: 234px; height: 230px; margin-top: -50px;""><div style=""display: flex; justify-content: space-between; margin-top: 33px;""><img src=""images/choice_trial_9.png"" style=""width: 408px; height: 417px; margin-left:608px;""></div></div>",,delaylearn,learning,display_response,4sB1vWlK4ZRxFuxaSlueZMJ7w1i1,4sB1vWlK4ZRxFuxaSlueZMJ7w1i1,,,,,,,,,,,,,,,,,chosen stimuli: images/choice_trial_9.png,,,,,60db09ba98a44872897cc587,09:06:25,27/02/2024
html-keyboard-response,223,477357,0.0-92.0-2.0,,,,delaylearn,learning,feedback_duration_window,4sB1vWlK4ZRxFuxaSlueZMJ7w1i1,4sB1vWlK4ZRxFuxaSlueZMJ7w1i1,,,,,,,,,,,,,,,,,,750.0,,,,60db09ba98a44872897cc587,09:06:25,27/02/2024
html-keyboard-response,224,478867,0.0-92.0-3.0,,<div style='margin:auto;width: auto; font-size: 150%'><span style='font-weight: bold; font-size: 100px; color: green;'>+10 points!</span><br><br></div>,,delaylearn,learning,feedback_image_window,4sB1vWlK4ZRxFuxaSlueZMJ7w1i1,4sB1vWlK4ZRxFuxaSlueZMJ7w1i1,,,,,,,,,,,,,,,,,,,,,,60db09ba98a44872897cc587,09:06:25,27/02/2024
html-keyboard-response,225,479374,0.0-93.0-0.0,,,,,,mood_trial_fixation,4sB1vWlK4ZRxFuxaSlueZMJ7w1i1,,,,,,,,,,,,,,,,,,,,,,,60db09ba98a44872897cc587,09:06:25,27/02/2024
lmdlab-html-vas-response,226,485932,0.0-93.0-1.0,5549.0,How happy are you right now?,0.6511888772632408,delaylearn,learning,mood_trial,4sB1vWlK4ZRxFuxaSlueZMJ7w1i1,4sB1vWlK4ZRxFuxaSlueZMJ7w1i1,,,,,,,,,,,,,,,,,,,,"['Very unhappy', 'Very happy']",,60db09ba98a44872897cc587,09:06:25,27/02/2024
html-keyboard-response,227,487704,0.0-94.0,,"<div style=""font-size:100px;"">+</div>",,delaylearn,learning,ITI,4sB1vWlK4ZRxFuxaSlueZMJ7w1i1,4sB1vWlK4ZRxFuxaSlueZMJ7w1i1,,,,,,,,,,,,,,,,,,,1747.0,,,60db09ba98a44872897cc587,09:06:25,27/02/2024
html-keyboard-response,228,488751,0.0-95.0-0.0,1043.0,"<div style=""display: flex; flex-direction: column; align-items: center; margin-top: -40px;""><img src=""images/pattern_4.png"" style=""width: 234px; height: 230px; margin-top: -50px;""><div style=""display: flex; justify-content: space-between; margin-top: 33px;""><img src=""images/choice_trial_7.png"" style=""width: 408px; height: 417px; margin-right: 200px;""><img src=""images/choice_trial_8.png"" style=""width: 408px; height: 417px;""></div></div>",j,delaylearn,learning,trial,4sB1vWlK4ZRxFuxaSlueZMJ7w1i1,4sB1vWlK4ZRxFuxaSlueZMJ7w1i1,1.0,images/choice_trial_7.png,images/choice_trial_8.png,images/pattern_4.png,f,f,7000.0,7.0,8.0,3.0,0.0,41.0,0.0,0.0,8.0,250.0,,,,,,60db09ba98a44872897cc587,09:06:25,27/02/2024
html-keyboard-response,229,489759,0.0-95.0-1.0,,"<div style=""display: flex; flex-direction: column; align-items: center; margin-top: -40px;""><img src=""images/pattern_4.png"" style=""width: 234px; height: 230px; margin-top: -50px;""><div style=""display: flex; justify-content: space-between; margin-top: 33px;""><img src=""images/choice_trial_8.png"" style=""width: 408px; height: 417px; margin-left:608px;""></div></div>",,delaylearn,learning,display_response,4sB1vWlK4ZRxFuxaSlueZMJ7w1i1,4sB1vWlK4ZRxFuxaSlueZMJ7w1i1,,,,,,,,,,,,,,,,,chosen stimuli: images/choice_trial_8.png,,,,,60db09ba98a44872897cc587,09:06:25,27/02/2024
html-keyboard-response,230,496801,0.0-95.0-2.0,,,,delaylearn,learning,feedback_duration_window,4sB1vWlK4ZRxFuxaSlueZMJ7w1i1,4sB1vWlK4ZRxFuxaSlueZMJ7w1i1,,,,,,,,,,,,,,,,,,7000.0,,,,60db09ba98a44872897cc587,09:06:25,27/02/2024
html-keyboard-response,231,498324,0.0-95.0-3.0,,<div style='margin:auto;width: auto; font-size: 150%'><span style='font-weight: bold; font-size: 100px; color: red;'>0 points!</span><br><br></div>,,delaylearn,learning,feedback_image_window,4sB1vWlK4ZRxFuxaSlueZMJ7w1i1,4sB1vWlK4ZRxFuxaSlueZMJ7w1i1,,,,,,,,,,,,,,,,,,,,,,60db09ba98a44872897cc587,09:06:25,27/02/2024
