trial_type,trial_index,time_elapsed,internal_node_id,rt,stimulus,response,exp_name,exp_stage,test_part,subjectID,databaseID,counterbal,choice_stimuli_1,choice_stimuli_2,pattern_stimuli,rewarded_answer,correct_answer,feedback_duration_times,stim_left,stim_right,pair,leftright_counter,trial,response_correct,response_rewarded,chosen_stim,counter,displayed_choice,feedback_durations,ITI_duration,labels,rest_warning,prolificID,start_time,date
pavlovia,0,528,0.0-0.0,,,,,,,aWouyzSSoeT2tKzadVRaQ8pRXf23,,,,,,,,,,,,,,,,,,,,,,,5c86faba6ec6b80001044908,09:06:01,27/02/2024
html-keyboard-response,1,3534,0.0-1.0,,"<div style=""font-size:100px;"">+</div>",,delaylearn,learning,pre_fixation,aWouyzSSoeT2tKzadVRaQ8pRXf23,,,,,,,,,,,,,,,,,,,,,,,5c86faba6ec6b80001044908,09:06:01,27/02/2024
html-keyboard-response,2,5286,0.0-2.0-0.0,1749.0999999940395,"<div style=""display: flex; flex-direction: column; align-items: center; margin-top: -40px;""><img src=""images/demo_images/pattern_1.png"" style=""width: 234px; height: 230px; margin-top: -50px;""><div style=""display: flex; justify-content: space-between; margin-top: 33px;""><img src=""images/demo_images/choice_trial_2.png"" style=""width: 408px; height: 417px; margin-right: 200px;""><img src=""images/demo_images/choice_trial_1.png"" style=""width: 408px; height: 417px;""></div></div>",j,delaylearn,learning,trial,aWouyzSSoeT2tKzadVRaQ8pRXf23,aWouyzSSoeT2tKzadVRaQ8pRXf23,2.0,images/demo_images/choice_trial_2.png,images/demo_images/choice_trial_1.png,images/demo_images/pattern_1.png,j,j,3000.0,2.0,1.0,20.0,1.0,1.0,1.0,1.0,1.0,10.0,,,,,,5c86faba6ec6b80001044908,09:06:01,27/02/2024
html-keyboard-response,3,6293,0.0-2.0-1.0,,"<div style=""display: flex; flex-direction: column; align-items: center; margin-top: -40px;""><img src=""images/demo_images/pattern_1.png"" style=""width: 234px; height: 230px; margin-top: -50px;""><div style=""display: flex; justify-content: space-between; margin-top: 33px;""><img src=""images/demo_images/choice_trial_1.png"" style=""width: 408px; height: 417px; margin-left:608px;""></div></div>",,delaylearn,learning,display_response,aWouyzSSoeT2tKzadVRaQ8pRXf23,aWouyzSSoeT2tKzadVRaQ8pRXf23,,,,,,,,,,,,,,,,,chosen stimuli: images/demo_images/choice_trial_1.png,,,,,5c86faba6ec6b80001044908,09:06:01,27/02/2024
html-keyboard-response,4,9307,0.0-2.0-2.0,,,,delaylearn,learning,feedback_duration_window,aWouyzSSoeT2tKzadVRaQ8pRXf23,aWouyzSSoeT2tKzadVRaQ8pRXf23,,,,,,,,,,,,,,,,,,3000.0,,,,5c86faba6ec6b80001044908,09:06:01,27/02/2024
html-keyboard-response,5,10810,0.0-2.0-3.0,,<div style='margin:auto;width: auto; font-size: 150%'><span style='font-weight: bold; font-size: 100px; color: green;'>+10 points!</span><br><br></div>,,delaylearn,learning,feedback_image_window,aWouyzSSoeT2tKzadVRaQ8pRXf23,aWouyzSSoeT2tKzadVRaQ8pRXf23,,,,,,,,,,,,,,,,,,,,,,5c86faba6ec6b80001044908,09:06:01,27/02/2024
html-keyboard-response,6,12557,0.0-3.0,,"<div style=""font-size:100px;"">+</div>",,delaylearn,learning,ITI,aWouyzSSoeT2tKzadVRaQ8pRXf23,aWouyzSSoeT2tKzadVRaQ8pRXf23,,,,,,,,,,,,,,,,,,,1736.0,,,5c86faba6ec6b80001044908,09:06:01,27/02/2024
html-keyboard-response,7,13909,0.0-4.0-0.0,1349.0,"<div style=""display: flex; flex-direction: column; align-items: center; margin-top: -40px;""><img src=""images/demo_images/pattern_1.png"" style=""width: 234px; height: 230px; margin-top: -50px;""><div style=""display: flex; justify-content: space-between; margin-top: 33px;""><img src=""images/demo_images/choice_trial_2.png"" style=""width: 408px; height: 417px; margin-right: 200px;""><img src=""images/demo_images/choice_trial_1.png"" style=""width: 408px; height: 417px;""></div></div>",j,delaylearn,learning,trial,aWouyzSSoeT2tKzadVRaQ8pRXf23,aWouyzSSoeT2tKzadVRaQ8pRXf23,2.0,images/demo_images/choice_trial_2.png,images/demo_images/choice_trial_1.png,images/demo_images/pattern_1.png,j,j,3000.0,2.0,1.0,20.0,1.0,2.0,1.0,1.0,1.0,20.0,,,,,,5c86faba6ec6b80001044908,09:06:01,27/02/2024
html-keyboard-response,8,14925,0.0-4.0-1.0,,"<div style=""display: flex; flex-direction: column; align-items: center; margin-top: -40px;""><img src=""images/demo_images/pattern_1.png"" style=""width: 234px; height: 230px; margin-top: -50px;""><div style=""display: flex; justify-content: space-between; margin-top: 33px;""><img src=""images/demo_images/choice_trial_1.png"" style=""width: 408px; height: 417px; margin-left:608px;""></div></div>",,delaylearn,learning,display_response,aWouyzSSoeT2tKzadVRaQ8pRXf23,aWouyzSSoeT2tKzadVRaQ8pRXf23,,,,,,,,,,,,,,,,,chosen stimuli: images/demo_images/choice_trial_1.png,,,,,5c86faba6ec6b80001044908,09:06:01,27/02/2024
html-keyboard-response,9,17937,0.0-4.0-2.0,,,,delaylearn,learning,feedback_duration_window,aWouyzSSoeT2tKzadVRaQ8pRXf23,aWouyzSSoeT2tKzadVRaQ8pRXf23,,,,,,,,,,,,,,,,,,3000.0,,,,5c86faba6ec6b80001044908,09:06:01,27/02/2024
html-keyboard-response,10,19453,0.0-4.0-3.0,,<div style='margin:auto;width: auto; font-size: 150%'><span style='font-weight: bold; font-size: 100px; color: green;'>+10 points!</span><br><br></div>,,delaylearn,learning,feedback_image_window,aWouyzSSoeT2tKzadVRaQ8pRXf23,aWouyzSSoeT2tKzadVRaQ8pRXf23,,,,,,,,,,,,,,,,,,,,,,5c86faba6ec6b80001044908,09:06:01,27/02/2024
html-keyboard-response,11,21111,0.0-5.0,,"<div style=""font-size:100px;"">+</div>",,delaylearn,learning,ITI,aWouyzSSoeT2tKzadVRaQ8pRXf23,aWouyzSSoeT2tKzadVRaQ8pRXf23,,,,,,,,,,,,,,,,,,,1655.0,,,5c86faba6ec6b80001044908,09:06:01,27/02/2024
html-keyboard-response,12,22181,0.0-6.0-0.0,1068.2000000029802,"<div style=""display: flex; flex-direction: column; align-items: center; margin-top: -40px;""><img src=""images/demo_images/pattern_1.png"" style=""width: 234px; height: 230px; margin-top: -50px;""><div style=""display: flex; justify-content: space-between; margin-top: 33px;""><img src=""images/demo_images/choice_trial_1.png"" style=""width: 408px; height: 417px; margin-right: 200px;""><img src=""images/demo_images/choice_trial_2.png"" style=""width: 408px; height: 417px;""></div></div>",f,delaylearn,learning,trial,aWouyzSSoeT2tKzadVRaQ8pRXf23,aWouyzSSoeT2tKzadVRaQ8pRXf23,2.0,images/demo_images/choice_trial_1.png,images/demo_images/choice_trial_2.png,images/demo_images/pattern_1.png,j,f,3000.0,1.0,2.0,20.0,0.0,3.0,1.0,0.0,1.0,20.0,,,,,,5c86faba6ec6b80001044908,09:06:01,27/02/2024
html-keyboard-response,13,23184,0.0-6.0-1.0,,"<div style=""display: flex; flex-direction: column; align-items: center; margin-top: -40px;""><img src=""images/demo_images/pattern_1.png"" style=""width: 234px; height: 230px; margin-top: -50px;""><div style=""display: flex; justify-content: space-between; margin-top: 33px;""><img src=""images/demo_images/choice_trial_1.png"" style=""width: 408px; height: 417px; margin-right: 608px;""></div></div>",,delaylearn,learning,display_response,aWouyzSSoeT2tKzadVRaQ8pRXf23,aWouyzSSoeT2tKzadVRaQ8pRXf23,,,,,,,,,,,,,,,,,chosen stimuli: images/demo_images/choice_trial_1.png,,,,,5c86faba6ec6b80001044908,09:06:01,27/02/2024
html-keyboard-response,14,26191,0.0-6.0-2.0,,,,delaylearn,learning,feedback_duration_window,aWouyzSSoeT2tKzadVRaQ8pRXf23,aWouyzSSoeT2tKzadVRaQ8pRXf23,,,,,,,,,,,,,,,,,,3000.0,,,,5c86faba6ec6b80001044908,09:06:01,27/02/2024
html-keyboard-response,15,27699,0.0-6.0-3.0,,<div style='margin:auto;width: auto; font-size: 150%'><span style='font-weight: bold; font-size: 100px; color: red;'>0 points!</span><br><br></div>,,delaylearn,learning,feedback_image_window,aWouyzSSoeT2tKzadVRaQ8pRXf23,aWouyzSSoeT2tKzadVRaQ8pRXf23,,,,,,,,,,,,,,,,,,,,,,5c86faba6ec6b80001044908,09:06:01,27/02/2024
html-keyboard-response,16,29623,0.0-7.0,,"<div style=""font-size:100px;"">+</div>",,delaylearn,learning,ITI,aWouyzSSoeT2tKzadVRaQ8pRXf23,aWouyzSSoeT2tKzadVRaQ8pRXf23,,,,,,,,,,,,,,,,,,,1908.0,,,5c86faba6ec6b80001044908,09:06:01,27/02/2024
html-keyboard-response,17,30852,0.0-8.0-0.0,1226.699999988079,"<div style=""display: flex; flex-direction: column; align-items: center; margin-top: -40px;""><img src=""images/demo_images/pattern_1.png"" style=""width: 234px; height: 230px; margin-top: -50px;""><div style=""display: flex; justify-content: space-between; margin-top: 33px;""><img src=""images/demo_images/choice_trial_1.png"" style=""width: 408px; height: 417px; margin-right: 200px;""><img src=""images/demo_images/choice_trial_2.png"" style=""width: 408px; height: 417px;""></div></div>",j,delaylearn,learning,trial,aWouyzSSoeT2tKzadVRaQ8pRXf23,aWouyzSSoeT2tKzadVRaQ8pRXf23,2.0,images/demo_images/choice_trial_1.png,images/demo_images/choice_trial_2.png,images/demo_images/pattern_1.png,f,f,3000.0,1.0,2.0,20.0,0.0,4.0,0.0,0.0,2.0,20.0,,,,,,5c86faba6ec6b80001044908,09:06:01,27/02/2024
html-keyboard-response,18,31857,0.0-8.0-1.0,,"<div style=""display: flex; flex-direction: column; align-items: center; margin-top: -40px;""><img src=""images/demo_images/pattern_1.png"" style=""width: 234px; height: 230px; margin-top: -50px;""><div style=""display: flex; justify-content: space-between; margin-top: 33px;""><img src=""images/demo_images/choice_trial_2.png"" style=""width: 408px; height: 417px; margin-left:608px;""></div></div>",,delaylearn,learning,display_response,aWouyzSSoeT2tKzadVRaQ8pRXf23,aWouyzSSoeT2tKzadVRaQ8pRXf23,,,,,,,,,,,,,,,,,chosen stimuli: images/demo_images/choice_trial_2.png,,,,,5c86faba6ec6b80001044908,09:06:01,27/02/2024
html-keyboard-response,19,34863,0.0-8.0-2.0,,,,delaylearn,learning,feedback_duration_window,aWouyzSSoeT2tKzadVRaQ8pRXf23,aWouyzSSoeT2tKzadVRaQ8pRXf23,,,,,,,,,,,,,,,,,,3000.0,,,,5c86faba6ec6b80001044908,09:06:01,27/02/2024
html-keyboard-response,20,36379,0.0-8.0-3.0,,<div style='margin:auto;width: auto; font-size: 150%'><span style='font-weight: bold; font-size: 100px; color: red;'>0 points!</span><br><br></div>,,delaylearn,learning,feedback_image_window,aWouyzSSoeT2tKzadVRaQ8pRXf23,aWouyzSSoeT2tKzadVRaQ8pRXf23,,,,,,,,,,,,,,,,,,,,,,5c86faba6ec6b80001044908,09:06:01,27/02/2024
html-keyboard-response,21,36895,0.0-9.0-0.0,,,,,,mood_trial_fixation,aWouyzSSoeT2tKzadVRaQ8pRXf23,,,,,,,,,,,,,,,,,,,,,,,5c86faba6ec6b80001044908,09:06:01,27/02/2024
lmdlab-html-vas-response,22,40585,0.0-9.0-1.0,2670.0,How happy are you right now?,0.6302261706961446,delaylearn,learning,mood_trial,aWouyzSSoeT2tKzadVRaQ8pRXf23,aWouyzSSoeT2tKzadVRaQ8pRXf23,,,,,,,,,,,,,,,,,,,,"['Very unhappy', 'Very happy']",,5c86faba6ec6b80001044908,09:06:01,27/02/2024
html-keyboard-response,23,42123,0.0-10.0,,"<div style=""font-size:100px;"">+</div>",,delaylearn,learning,ITI,aWouyzSSoeT2tKzadVRaQ8pRXf23,aWouyzSSoeT2tKzadVRaQ8pRXf23,,,,,,,,,,,,,,,,,,,1532.0,,,5c86faba6ec6b80001044908,09:06:01,27/02/2024
html-keyboard-response,24,43524,0.0-11.0-0.0,1398.7999999970198,"<div style=""display: flex; flex-direction: column; align-items: center; margin-top: -40px;""><img src=""images/demo_images/pattern_1.png"" style=""width: 234px; height: 230px; margin-top: -50px;""><div style=""display: flex; justify-content: space-between; margin-top: 33px;""><img src=""images/demo_images/choice_trial_2.png"" style=""width: 408px; height: 417px; margin-right: 200px;""><img src=""images/demo_images/choice_trial_1.png"" style=""width: 408px; height: 417px;""></div></div>",j,delaylearn,learning,trial,aWouyzSSoeT2tKzadVRaQ8pRXf23,aWouyzSSoeT2tKzadVRaQ8pRXf23,2.0,images/demo_images/choice_trial_2.png,images/demo_images/choice_trial_1.png,images/demo_images/pattern_1.png,j,j,3000.0,2.0,1.0,20.0,1.0,5.0,1.0,1.0,1.0,30.0,,,,,,5c86faba6ec6b80001044908,09:06:01,27/02/2024
html-keyboard-response,25,44541,0.0-11.0-1.0,,"<div style=""display: flex; flex-direction: column; align-items: center; margin-top: -40px;""><img src=""images/demo_images/pattern_1.png"" style=""width: 234px; height: 230px; margin-top: -50px;""><div style=""display: flex; justify-content: space-between; margin-top: 33px;""><img src=""images/demo_images/choice_trial_1.png"" style=""width: 408px; height: 417px; margin-left:608px;""></div></div>",,delaylearn,learning,display_response,aWouyzSSoeT2tKzadVRaQ8pRXf23,aWouyzSSoeT2tKzadVRaQ8pRXf23,,,,,,,,,,,,,,,,,chosen stimuli: images/demo_images/choice_trial_1.png,,,,,5c86faba6ec6b80001044908,09:06:01,27/02/2024
html-keyboard-response,26,47554,0.0-11.0-2.0,,,,delaylearn,learning,feedback_duration_window,aWouyzSSoeT2tKzadVRaQ8pRXf23,aWouyzSSoeT2tKzadVRaQ8pRXf23,,,,,,,,,,,,,,,,,,3000.0,,,,5c86faba6ec6b80001044908,09:06:01,27/02/2024
html-keyboard-response,27,49056,0.0-11.0-3.0,,<div style='margin:auto;width: auto; font-size: 150%'><span style='font-weight: bold; font-size: 100px; color: green;'>+10 points!</span><br><br></div>,,delaylearn,learning,feedback_image_window,aWouyzSSoeT2tKzadVRaQ8pRXf23,aWouyzSSoeT2tKzadVRaQ8pRXf23,,,,,,,,,,,,,,,,,,,,,,5c86faba6ec6b80001044908,09:06:01,27/02/2024
html-keyboard-response,28,50948,0.0-12.0,,"<div style=""font-size:100px;"">+</div>",,delaylearn,learning,ITI,aWouyzSSoeT2tKzadVRaQ8pRXf23,aWouyzSSoeT2tKzadVRaQ8pRXf23,,,,,,,,,,,,,,,,,,,1889.0,,,5c86faba6ec6b80001044908,09:06:01,27/02/2024
html-keyboard-response,29,51836,0.0-13.0-0.0,885.7999999970198,"<div style=""display: flex; flex-direction: column; align-items: center; margin-top: -40px;""><img src=""images/demo_images/pattern_1.png"" style=""width: 234px; height: 230px; margin-top: -50px;""><div style=""display: flex; justify-content: space-between; margin-top: 33px;""><img src=""images/demo_images/choice_trial_1.png"" style=""width: 408px; height: 417px; margin-right: 200px;""><img src=""images/demo_images/choice_trial_2.png"" style=""width: 408px; height: 417px;""></div></div>",f,delaylearn,learning,trial,aWouyzSSoeT2tKzadVRaQ8pRXf23,aWouyzSSoeT2tKzadVRaQ8pRXf23,2.0,images/demo_images/choice_trial_1.png,images/demo_images/choice_trial_2.png,images/demo_images/pattern_1.png,f,f,3000.0,1.0,2.0,20.0,0.0,6.0,1.0,1.0,1.0,40.0,,,,,,5c86faba6ec6b80001044908,09:06:01,27/02/2024
html-keyboard-response,30,52839,0.0-13.0-1.0,,"<div style=""display: flex; flex-direction: column; align-items: center; margin-top: -40px;""><img src=""images/demo_images/pattern_1.png"" style=""width: 234px; height: 230px; margin-top: -50px;""><div style=""display: flex; justify-content: space-between; margin-top: 33px;""><img src=""images/demo_images/choice_trial_1.png"" style=""width: 408px; height: 417px; margin-right: 608px;""></div></div>",,delaylearn,learning,display_response,aWouyzSSoeT2tKzadVRaQ8pRXf23,aWouyzSSoeT2tKzadVRaQ8pRXf23,,,,,,,,,,,,,,,,,chosen stimuli: images/demo_images/choice_trial_1.png,,,,,5c86faba6ec6b80001044908,09:06:01,27/02/2024
html-keyboard-response,31,55855,0.0-13.0-2.0,,,,delaylearn,learning,feedback_duration_window,aWouyzSSoeT2tKzadVRaQ8pRXf23,aWouyzSSoeT2tKzadVRaQ8pRXf23,,,,,,,,,,,,,,,,,,3000.0,,,,5c86faba6ec6b80001044908,09:06:01,27/02/2024
html-keyboard-response,32,57371,0.0-13.0-3.0,,<div style='margin:auto;width: auto; font-size: 150%'><span style='font-weight: bold; font-size: 100px; color: green;'>+10 points!</span><br><br></div>,,delaylearn,learning,feedback_image_window,aWouyzSSoeT2tKzadVRaQ8pRXf23,aWouyzSSoeT2tKzadVRaQ8pRXf23,,,,,,,,,,,,,,,,,,,,,,5c86faba6ec6b80001044908,09:06:01,27/02/2024
html-button-response,33,61163,0.0-14.0,3790.3999999910593,"
  <div style=""display: flex; align-items: center; justify-content: center; height: 80vh;"">
  <div>
          <img src=""images/inst_demo_finish.png"" style=""width: 80vw; height:auto;"">
          <br><br>
      </div>
      <br><br>
  </div>",0,,,,aWouyzSSoeT2tKzadVRaQ8pRXf23,,,,,,,,,,,,,,,,,,,,,,,5c86faba6ec6b80001044908,09:06:01,27/02/2024
html-keyboard-response,34,65913,0.0-15.0,4748.29999999702,"
  <div style=""display: flex; align-items: center; justify-content: center; height: 80vh;"">
  <div>
          <img src=""images/inst_6.png"" style=""width: 80vw; height:auto;"">
          <br><br>
      </div>
      <br><br>
  </div>",j,,,,aWouyzSSoeT2tKzadVRaQ8pRXf23,,,,,,,,,,,,,,,,,,,,,,,5c86faba6ec6b80001044908,09:06:01,27/02/2024
html-keyboard-response,35,68930,0.0-16.0,,"<div style=""font-size:100px;"">+</div>",,delaylearn,learning,pre_fixation,aWouyzSSoeT2tKzadVRaQ8pRXf23,,,,,,,,,,,,,,,,,,,,,,,5c86faba6ec6b80001044908,09:06:01,27/02/2024
html-keyboard-response,36,71331,0.0-17.0,,"<div style=""font-size:100px;"">+</div>",,delaylearn,learning,ITI,aWouyzSSoeT2tKzadVRaQ8pRXf23,aWouyzSSoeT2tKzadVRaQ8pRXf23,,,,,,,,,,,,,,,,,,,2390.0,,,5c86faba6ec6b80001044908,09:06:01,27/02/2024
html-keyboard-response,37,74339,0.0-18.0-0.0,,"<div style=""display: flex; flex-direction: column; align-items: center; margin-top: -40px;""><img src=""images/pattern_3.png"" style=""width: 234px; height: 230px; margin-top: -50px;""><div style=""display: flex; justify-content: space-between; margin-top: 33px;""><img src=""images/choice_trial_12.png"" style=""width: 408px; height: 417px; margin-right: 200px;""><img src=""images/choice_trial_14.png"" style=""width: 408px; height: 417px;""></div></div>",,delaylearn,learning,trial,aWouyzSSoeT2tKzadVRaQ8pRXf23,aWouyzSSoeT2tKzadVRaQ8pRXf23,2.0,images/choice_trial_12.png,images/choice_trial_14.png,images/pattern_3.png,f,f,7000.0,12.0,14.0,2.0,0.0,7.0,0.0,0.0,0.0,40.0,,,,,,5c86faba6ec6b80001044908,09:06:01,27/02/2024
html-keyboard-response,38,75346,0.0-18.0-1.0,,<div style='font-weight: bold; font-size: 75px; color: red;'>Missed Trial <br><br><br><br> Please respond faster</div>,,delaylearn,learning,display_response,aWouyzSSoeT2tKzadVRaQ8pRXf23,aWouyzSSoeT2tKzadVRaQ8pRXf23,,,,,,,,,,,,,,,,,Missed trial,,,,,5c86faba6ec6b80001044908,09:06:01,27/02/2024
html-keyboard-response,39,75351,0.0-18.0-2.0,,,,delaylearn,learning,feedback_duration_window,aWouyzSSoeT2tKzadVRaQ8pRXf23,aWouyzSSoeT2tKzadVRaQ8pRXf23,,,,,,,,,,,,,,,,,,0.0,,,,5c86faba6ec6b80001044908,09:06:01,27/02/2024
html-keyboard-response,40,75357,0.0-18.0-3.0,,,,delaylearn,learning,feedback_image_window,aWouyzSSoeT2tKzadVRaQ8pRXf23,aWouyzSSoeT2tKzadVRaQ8pRXf23,,,,,,,,,,,,,,,,,,,,,,5c86faba6ec6b80001044908,09:06:01,27/02/2024
html-keyboard-response,41,77112,0.0-19.0,,"<div style=""font-size:100px;"">+</div>",,delaylearn,learning,ITI,aWouyzSSoeT2tKzadVRaQ8pRXf23,aWouyzSSoeT2tKzadVRaQ8pRXf23,,,,,,,,,,,,,,,,,,,1739.0,,,5c86faba6ec6b80001044908,09:06:01,27/02/2024
html-keyboard-response,42,77895,0.0-20.0-0.0,780.1000000089407,"<div style=""display: flex; flex-direction: column; align-items: center; margin-top: -40px;""><img src=""images/pattern_7.png"" style=""width: 234px; height: 230px; margin-top: -50px;""><div style=""display: flex; justify-content: space-between; margin-top: 33px;""><img src=""images/choice_trial_15.png"" style=""width: 408px; height: 417px; margin-right: 200px;""><img src=""images/choice_trial_8.png"" style=""width: 408px; height: 417px;""></div></div>",j,delaylearn,learning,trial,aWouyzSSoeT2tKzadVRaQ8pRXf23,aWouyzSSoeT2tKzadVRaQ8pRXf23,2.0,images/choice_trial_15.png,images/choice_trial_8.png,images/pattern_7.png,j,j,750.0,15.0,8.0,6.0,1.0,8.0,1.0,1.0,8.0,50.0,,,,,,5c86faba6ec6b80001044908,09:06:01,27/02/2024
html-keyboard-response,43,78910,0.0-20.0-1.0,,"<div style=""display: flex; flex-direction: column; align-items: center; margin-top: -40px;""><img src=""images/pattern_7.png"" style=""width: 234px; height: 230px; margin-top: -50px;""><div style=""display: flex; justify-content: space-between; margin-top: 33px;""><img src=""images/choice_trial_8.png"" style=""width: 408px; height: 417px; margin-left:608px;""></div></div>",,delaylearn,learning,display_response,aWouyzSSoeT2tKzadVRaQ8pRXf23,aWouyzSSoeT2tKzadVRaQ8pRXf23,,,,,,,,,,,,,,,,,chosen stimuli: images/choice_trial_8.png,,,,,5c86faba6ec6b80001044908,09:06:01,27/02/2024
html-keyboard-response,44,79676,0.0-20.0-2.0,,,,delaylearn,learning,feedback_duration_window,aWouyzSSoeT2tKzadVRaQ8pRXf23,aWouyzSSoeT2tKzadVRaQ8pRXf23,,,,,,,,,,,,,,,,,,750.0,,,,5c86faba6ec6b80001044908,09:06:01,27/02/2024
html-keyboard-response,45,81193,0.0-20.0-3.0,,<div style='margin:auto;width: auto; font-size: 150%'><span style='font-weight: bold; font-size: 100px; color: green;'>+10 points!</span><br><br></div>,,delaylearn,learning,feedback_image_window,aWouyzSSoeT2tKzadVRaQ8pRXf23,aWouyzSSoeT2tKzadVRaQ8pRXf23,,,,,,,,,,,,,,,,,,,,,,5c86faba6ec6b80001044908,09:06:01,27/02/2024
html-keyboard-response,46,82802,0.0-21.0,,"<div style=""font-size:100px;"">+</div>",,delaylearn,learning,ITI,aWouyzSSoeT2tKzadVRaQ8pRXf23,aWouyzSSoeT2tKzadVRaQ8pRXf23,,,,,,,,,,,,,,,,,,,1608.0,,,5c86faba6ec6b80001044908,09:06:01,27/02/2024
html-keyboard-response,47,84137,0.0-22.0-0.0,1332.7000000029802,"<div style=""display: flex; flex-direction: column; align-items: center; margin-top: -40px;""><img src=""images/pattern_4.png"" style=""width: 234px; height: 230px; margin-top: -50px;""><div style=""display: flex; justify-content: space-between; margin-top: 33px;""><img src=""images/choice_trial_4.png"" style=""width: 408px; height: 417px; margin-right: 200px;""><img src=""images/choice_trial_16.png"" style=""width: 408px; height: 417px;""></div></div>",j,delaylearn,learning,trial,aWouyzSSoeT2tKzadVRaQ8pRXf23,aWouyzSSoeT2tKzadVRaQ8pRXf23,2.0,images/choice_trial_4.png,images/choice_trial_16.png,images/pattern_4.png,f,f,7000.0,4.0,16.0,3.0,0.0,9.0,0.0,0.0,16.0,50.0,,,,,,5c86faba6ec6b80001044908,09:06:01,27/02/2024
html-keyboard-response,48,85143,0.0-22.0-1.0,,"<div style=""display: flex; flex-direction: column; align-items: center; margin-top: -40px;""><img src=""images/pattern_4.png"" style=""width: 234px; height: 230px; margin-top: -50px;""><div style=""display: flex; justify-content: space-between; margin-top: 33px;""><img src=""images/choice_trial_16.png"" style=""width: 408px; height: 417px; margin-left:608px;""></div></div>",,delaylearn,learning,display_response,aWouyzSSoeT2tKzadVRaQ8pRXf23,aWouyzSSoeT2tKzadVRaQ8pRXf23,,,,,,,,,,,,,,,,,chosen stimuli: images/choice_trial_16.png,,,,,5c86faba6ec6b80001044908,09:06:01,27/02/2024
html-keyboard-response,49,92155,0.0-22.0-2.0,,,,delaylearn,learning,feedback_duration_window,aWouyzSSoeT2tKzadVRaQ8pRXf23,aWouyzSSoeT2tKzadVRaQ8pRXf23,,,,,,,,,,,,,,,,,,7000.0,,,,5c86faba6ec6b80001044908,09:06:01,27/02/2024
html-keyboard-response,50,93671,0.0-22.0-3.0,,<div style='margin:auto;width: auto; font-size: 150%'><span style='font-weight: bold; font-size: 100px; color: red;'>0 points!</span><br><br></div>,,delaylearn,learning,feedback_image_window,aWouyzSSoeT2tKzadVRaQ8pRXf23,aWouyzSSoeT2tKzadVRaQ8pRXf23,,,,,,,,,,,,,,,,,,,,,,5c86faba6ec6b80001044908,09:06:01,27/02/2024
html-keyboard-response,51,95765,0.0-23.0,,"<div style=""font-size:100px;"">+</div>",,delaylearn,learning,ITI,aWouyzSSoeT2tKzadVRaQ8pRXf23,aWouyzSSoeT2tKzadVRaQ8pRXf23,,,,,,,,,,,,,,,,,,,2080.0,,,5c86faba6ec6b80001044908,09:06:01,27/02/2024
html-keyboard-response,52,96835,0.0-24.0-0.0,1067.8999999910593,"<div style=""display: flex; flex-direction: column; align-items: center; margin-top: -40px;""><img src=""images/pattern_5.png"" style=""width: 234px; height: 230px; margin-top: -50px;""><div style=""display: flex; justify-content: space-between; margin-top: 33px;""><img src=""images/choice_trial_9.png"" style=""width: 408px; height: 417px; margin-right: 200px;""><img src=""images/choice_trial_2.png"" style=""width: 408px; height: 417px;""></div></div>",f,delaylearn,learning,trial,aWouyzSSoeT2tKzadVRaQ8pRXf23,aWouyzSSoeT2tKzadVRaQ8pRXf23,2.0,images/choice_trial_9.png,images/choice_trial_2.png,images/pattern_5.png,j,j,750.0,9.0,2.0,4.0,1.0,10.0,0.0,0.0,9.0,50.0,,,,,,5c86faba6ec6b80001044908,09:06:01,27/02/2024
html-keyboard-response,53,97852,0.0-24.0-1.0,,"<div style=""display: flex; flex-direction: column; align-items: center; margin-top: -40px;""><img src=""images/pattern_5.png"" style=""width: 234px; height: 230px; margin-top: -50px;""><div style=""display: flex; justify-content: space-between; margin-top: 33px;""><img src=""images/choice_trial_9.png"" style=""width: 408px; height: 417px; margin-right: 608px;""></div></div>",,delaylearn,learning,display_response,aWouyzSSoeT2tKzadVRaQ8pRXf23,aWouyzSSoeT2tKzadVRaQ8pRXf23,,,,,,,,,,,,,,,,,chosen stimuli: images/choice_trial_9.png,,,,,5c86faba6ec6b80001044908,09:06:01,27/02/2024
html-keyboard-response,54,98618,0.0-24.0-2.0,,,,delaylearn,learning,feedback_duration_window,aWouyzSSoeT2tKzadVRaQ8pRXf23,aWouyzSSoeT2tKzadVRaQ8pRXf23,,,,,,,,,,,,,,,,,,750.0,,,,5c86faba6ec6b80001044908,09:06:01,27/02/2024
html-keyboard-response,55,100132,0.0-24.0-3.0,,<div style='margin:auto;width: auto; font-size: 150%'><span style='font-weight: bold; font-size: 100px; color: red;'>0 points!</span><br><br></div>,,delaylearn,learning,feedback_image_window,aWouyzSSoeT2tKzadVRaQ8pRXf23,aWouyzSSoeT2tKzadVRaQ8pRXf23,,,,,,,,,,,,,,,,,,,,,,5c86faba6ec6b80001044908,09:06:01,27/02/2024
html-keyboard-response,56,102261,0.0-25.0,,"<div style=""font-size:100px;"">+</div>",,delaylearn,learning,ITI,aWouyzSSoeT2tKzadVRaQ8pRXf23,aWouyzSSoeT2tKzadVRaQ8pRXf23,,,,,,,,,,,,,,,,,,,2121.0,,,5c86faba6ec6b80001044908,09:06:01,27/02/2024
html-keyboard-response,57,103754,0.0-26.0-0.0,1490.8999999910593,"<div style=""display: flex; flex-direction: column; align-items: center; margin-top: -40px;""><img src=""images/pattern_6.png"" style=""width: 234px; height: 230px; margin-top: -50px;""><div style=""display: flex; justify-content: space-between; margin-top: 33px;""><img src=""images/choice_trial_11.png"" style=""width: 408px; height: 417px; margin-right: 200px;""><img src=""images/choice_trial_5.png"" style=""width: 408px; height: 417px;""></div></div>",j,delaylearn,learning,trial,aWouyzSSoeT2tKzadVRaQ8pRXf23,aWouyzSSoeT2tKzadVRaQ8pRXf23,2.0,images/choice_trial_11.png,images/choice_trial_5.png,images/pattern_6.png,j,f,750.0,11.0,5.0,5.0,0.0,11.0,0.0,1.0,5.0,60.0,,,,,,5c86faba6ec6b80001044908,09:06:01,27/02/2024
html-keyboard-response,58,104770,0.0-26.0-1.0,,"<div style=""display: flex; flex-direction: column; align-items: center; margin-top: -40px;""><img src=""images/pattern_6.png"" style=""width: 234px; height: 230px; margin-top: -50px;""><div style=""display: flex; justify-content: space-between; margin-top: 33px;""><img src=""images/choice_trial_5.png"" style=""width: 408px; height: 417px; margin-left:608px;""></div></div>",,delaylearn,learning,display_response,aWouyzSSoeT2tKzadVRaQ8pRXf23,aWouyzSSoeT2tKzadVRaQ8pRXf23,,,,,,,,,,,,,,,,,chosen stimuli: images/choice_trial_5.png,,,,,5c86faba6ec6b80001044908,09:06:01,27/02/2024
html-keyboard-response,59,105533,0.0-26.0-2.0,,,,delaylearn,learning,feedback_duration_window,aWouyzSSoeT2tKzadVRaQ8pRXf23,aWouyzSSoeT2tKzadVRaQ8pRXf23,,,,,,,,,,,,,,,,,,750.0,,,,5c86faba6ec6b80001044908,09:06:01,27/02/2024
html-keyboard-response,60,107048,0.0-26.0-3.0,,<div style='margin:auto;width: auto; font-size: 150%'><span style='font-weight: bold; font-size: 100px; color: green;'>+10 points!</span><br><br></div>,,delaylearn,learning,feedback_image_window,aWouyzSSoeT2tKzadVRaQ8pRXf23,aWouyzSSoeT2tKzadVRaQ8pRXf23,,,,,,,,,,,,,,,,,,,,,,5c86faba6ec6b80001044908,09:06:01,27/02/2024
html-keyboard-response,61,107565,0.0-27.0-0.0,,,,,,mood_trial_fixation,aWouyzSSoeT2tKzadVRaQ8pRXf23,,,,,,,,,,,,,,,,,,,,,,,5c86faba6ec6b80001044908,09:06:01,27/02/2024
lmdlab-html-vas-response,62,111623,0.0-27.0-1.0,3047.0,How happy are you right now?,0.476145264657014,delaylearn,learning,mood_trial,aWouyzSSoeT2tKzadVRaQ8pRXf23,aWouyzSSoeT2tKzadVRaQ8pRXf23,,,,,,,,,,,,,,,,,,,,"['Very unhappy', 'Very happy']",,5c86faba6ec6b80001044908,09:06:01,27/02/2024
html-keyboard-response,63,113328,0.0-28.0,,"<div style=""font-size:100px;"">+</div>",,delaylearn,learning,ITI,aWouyzSSoeT2tKzadVRaQ8pRXf23,aWouyzSSoeT2tKzadVRaQ8pRXf23,,,,,,,,,,,,,,,,,,,1700.0,,,5c86faba6ec6b80001044908,09:06:01,27/02/2024
html-keyboard-response,64,114407,0.0-29.0-0.0,1077.5999999940395,"<div style=""display: flex; flex-direction: column; align-items: center; margin-top: -40px;""><img src=""images/pattern_1.png"" style=""width: 234px; height: 230px; margin-top: -50px;""><div style=""display: flex; justify-content: space-between; margin-top: 33px;""><img src=""images/choice_trial_10.png"" style=""width: 408px; height: 417px; margin-right: 200px;""><img src=""images/choice_trial_3.png"" style=""width: 408px; height: 417px;""></div></div>",j,delaylearn,learning,trial,aWouyzSSoeT2tKzadVRaQ8pRXf23,aWouyzSSoeT2tKzadVRaQ8pRXf23,2.0,images/choice_trial_10.png,images/choice_trial_3.png,images/pattern_1.png,j,j,7000.0,10.0,3.0,1.0,1.0,12.0,1.0,1.0,3.0,70.0,,,,,,5c86faba6ec6b80001044908,09:06:01,27/02/2024
html-keyboard-response,65,115413,0.0-29.0-1.0,,"<div style=""display: flex; flex-direction: column; align-items: center; margin-top: -40px;""><img src=""images/pattern_1.png"" style=""width: 234px; height: 230px; margin-top: -50px;""><div style=""display: flex; justify-content: space-between; margin-top: 33px;""><img src=""images/choice_trial_3.png"" style=""width: 408px; height: 417px; margin-left:608px;""></div></div>",,delaylearn,learning,display_response,aWouyzSSoeT2tKzadVRaQ8pRXf23,aWouyzSSoeT2tKzadVRaQ8pRXf23,,,,,,,,,,,,,,,,,chosen stimuli: images/choice_trial_3.png,,,,,5c86faba6ec6b80001044908,09:06:01,27/02/2024
html-keyboard-response,66,122417,0.0-29.0-2.0,,,,delaylearn,learning,feedback_duration_window,aWouyzSSoeT2tKzadVRaQ8pRXf23,aWouyzSSoeT2tKzadVRaQ8pRXf23,,,,,,,,,,,,,,,,,,7000.0,,,,5c86faba6ec6b80001044908,09:06:01,27/02/2024
html-keyboard-response,67,123934,0.0-29.0-3.0,,<div style='margin:auto;width: auto; font-size: 150%'><span style='font-weight: bold; font-size: 100px; color: green;'>+10 points!</span><br><br></div>,,delaylearn,learning,feedback_image_window,aWouyzSSoeT2tKzadVRaQ8pRXf23,aWouyzSSoeT2tKzadVRaQ8pRXf23,,,,,,,,,,,,,,,,,,,,,,5c86faba6ec6b80001044908,09:06:01,27/02/2024
html-keyboard-response,68,125644,0.0-30.0,,"<div style=""font-size:100px;"">+</div>",,delaylearn,learning,ITI,aWouyzSSoeT2tKzadVRaQ8pRXf23,aWouyzSSoeT2tKzadVRaQ8pRXf23,,,,,,,,,,,,,,,,,,,1695.0,,,5c86faba6ec6b80001044908,09:06:01,27/02/2024
html-keyboard-response,69,127114,0.0-31.0-0.0,1466.7000000029802,"<div style=""display: flex; flex-direction: column; align-items: center; margin-top: -40px;""><img src=""images/pattern_3.png"" style=""width: 234px; height: 230px; margin-top: -50px;""><div style=""display: flex; justify-content: space-between; margin-top: 33px;""><img src=""images/choice_trial_14.png"" style=""width: 408px; height: 417px; margin-right: 200px;""><img src=""images/choice_trial_12.png"" style=""width: 408px; height: 417px;""></div></div>",f,delaylearn,learning,trial,aWouyzSSoeT2tKzadVRaQ8pRXf23,aWouyzSSoeT2tKzadVRaQ8pRXf23,2.0,images/choice_trial_14.png,images/choice_trial_12.png,images/pattern_3.png,f,j,7000.0,14.0,12.0,2.0,1.0,13.0,0.0,1.0,14.0,80.0,,,,,,5c86faba6ec6b80001044908,09:06:01,27/02/2024
html-keyboard-response,70,128123,0.0-31.0-1.0,,"<div style=""display: flex; flex-direction: column; align-items: center; margin-top: -40px;""><img src=""images/pattern_3.png"" style=""width: 234px; height: 230px; margin-top: -50px;""><div style=""display: flex; justify-content: space-between; margin-top: 33px;""><img src=""images/choice_trial_14.png"" style=""width: 408px; height: 417px; margin-right: 608px;""></div></div>",,delaylearn,learning,display_response,aWouyzSSoeT2tKzadVRaQ8pRXf23,aWouyzSSoeT2tKzadVRaQ8pRXf23,,,,,,,,,,,,,,,,,chosen stimuli: images/choice_trial_14.png,,,,,5c86faba6ec6b80001044908,09:06:01,27/02/2024
html-keyboard-response,71,135136,0.0-31.0-2.0,,,,delaylearn,learning,feedback_duration_window,aWouyzSSoeT2tKzadVRaQ8pRXf23,aWouyzSSoeT2tKzadVRaQ8pRXf23,,,,,,,,,,,,,,,,,,7000.0,,,,5c86faba6ec6b80001044908,09:06:01,27/02/2024
html-keyboard-response,72,136652,0.0-31.0-3.0,,<div style='margin:auto;width: auto; font-size: 150%'><span style='font-weight: bold; font-size: 100px; color: green;'>+10 points!</span><br><br></div>,,delaylearn,learning,feedback_image_window,aWouyzSSoeT2tKzadVRaQ8pRXf23,aWouyzSSoeT2tKzadVRaQ8pRXf23,,,,,,,,,,,,,,,,,,,,,,5c86faba6ec6b80001044908,09:06:01,27/02/2024
html-keyboard-response,73,138710,0.0-32.0,,"<div style=""font-size:100px;"">+</div>",,delaylearn,learning,ITI,aWouyzSSoeT2tKzadVRaQ8pRXf23,aWouyzSSoeT2tKzadVRaQ8pRXf23,,,,,,,,,,,,,,,,,,,2046.0,,,5c86faba6ec6b80001044908,09:06:01,27/02/2024
html-keyboard-response,74,140052,0.0-33.0-0.0,1340.2999999970198,"<div style=""display: flex; flex-direction: column; align-items: center; margin-top: -40px;""><img src=""images/pattern_5.png"" style=""width: 234px; height: 230px; margin-top: -50px;""><div style=""display: flex; justify-content: space-between; margin-top: 33px;""><img src=""images/choice_trial_2.png"" style=""width: 408px; height: 417px; margin-right: 200px;""><img src=""images/choice_trial_9.png"" style=""width: 408px; height: 417px;""></div></div>",f,delaylearn,learning,trial,aWouyzSSoeT2tKzadVRaQ8pRXf23,aWouyzSSoeT2tKzadVRaQ8pRXf23,2.0,images/choice_trial_2.png,images/choice_trial_9.png,images/pattern_5.png,f,f,750.0,2.0,9.0,4.0,0.0,14.0,1.0,1.0,2.0,90.0,,,,,,5c86faba6ec6b80001044908,09:06:01,27/02/2024
html-keyboard-response,75,141067,0.0-33.0-1.0,,"<div style=""display: flex; flex-direction: column; align-items: center; margin-top: -40px;""><img src=""images/pattern_5.png"" style=""width: 234px; height: 230px; margin-top: -50px;""><div style=""display: flex; justify-content: space-between; margin-top: 33px;""><img src=""images/choice_trial_2.png"" style=""width: 408px; height: 417px; margin-right: 608px;""></div></div>",,delaylearn,learning,display_response,aWouyzSSoeT2tKzadVRaQ8pRXf23,aWouyzSSoeT2tKzadVRaQ8pRXf23,,,,,,,,,,,,,,,,,chosen stimuli: images/choice_trial_2.png,,,,,5c86faba6ec6b80001044908,09:06:01,27/02/2024
html-keyboard-response,76,141834,0.0-33.0-2.0,,,,delaylearn,learning,feedback_duration_window,aWouyzSSoeT2tKzadVRaQ8pRXf23,aWouyzSSoeT2tKzadVRaQ8pRXf23,,,,,,,,,,,,,,,,,,750.0,,,,5c86faba6ec6b80001044908,09:06:01,27/02/2024
html-keyboard-response,77,143350,0.0-33.0-3.0,,<div style='margin:auto;width: auto; font-size: 150%'><span style='font-weight: bold; font-size: 100px; color: green;'>+10 points!</span><br><br></div>,,delaylearn,learning,feedback_image_window,aWouyzSSoeT2tKzadVRaQ8pRXf23,aWouyzSSoeT2tKzadVRaQ8pRXf23,,,,,,,,,,,,,,,,,,,,,,5c86faba6ec6b80001044908,09:06:01,27/02/2024
html-keyboard-response,78,143866,0.0-34.0-0.0,,,,,,mood_trial_fixation,aWouyzSSoeT2tKzadVRaQ8pRXf23,,,,,,,,,,,,,,,,,,,,,,,5c86faba6ec6b80001044908,09:06:01,27/02/2024
lmdlab-html-vas-response,79,147370,0.0-34.0-1.0,2494.0,How happy are you right now?,0.6606083211827337,delaylearn,learning,mood_trial,aWouyzSSoeT2tKzadVRaQ8pRXf23,aWouyzSSoeT2tKzadVRaQ8pRXf23,,,,,,,,,,,,,,,,,,,,"['Very unhappy', 'Very happy']",,5c86faba6ec6b80001044908,09:06:01,27/02/2024
html-keyboard-response,80,149256,0.0-35.0,,"<div style=""font-size:100px;"">+</div>",,delaylearn,learning,ITI,aWouyzSSoeT2tKzadVRaQ8pRXf23,aWouyzSSoeT2tKzadVRaQ8pRXf23,,,,,,,,,,,,,,,,,,,1878.0,,,5c86faba6ec6b80001044908,09:06:01,27/02/2024
html-keyboard-response,81,150813,0.0-36.0-0.0,1553.2000000029802,"<div style=""display: flex; flex-direction: column; align-items: center; margin-top: -40px;""><img src=""images/pattern_6.png"" style=""width: 234px; height: 230px; margin-top: -50px;""><div style=""display: flex; justify-content: space-between; margin-top: 33px;""><img src=""images/choice_trial_11.png"" style=""width: 408px; height: 417px; margin-right: 200px;""><img src=""images/choice_trial_5.png"" style=""width: 408px; height: 417px;""></div></div>",j,delaylearn,learning,trial,aWouyzSSoeT2tKzadVRaQ8pRXf23,aWouyzSSoeT2tKzadVRaQ8pRXf23,2.0,images/choice_trial_11.png,images/choice_trial_5.png,images/pattern_6.png,f,f,750.0,11.0,5.0,5.0,0.0,15.0,0.0,0.0,5.0,90.0,,,,,,5c86faba6ec6b80001044908,09:06:01,27/02/2024
html-keyboard-response,82,151830,0.0-36.0-1.0,,"<div style=""display: flex; flex-direction: column; align-items: center; margin-top: -40px;""><img src=""images/pattern_6.png"" style=""width: 234px; height: 230px; margin-top: -50px;""><div style=""display: flex; justify-content: space-between; margin-top: 33px;""><img src=""images/choice_trial_5.png"" style=""width: 408px; height: 417px; margin-left:608px;""></div></div>",,delaylearn,learning,display_response,aWouyzSSoeT2tKzadVRaQ8pRXf23,aWouyzSSoeT2tKzadVRaQ8pRXf23,,,,,,,,,,,,,,,,,chosen stimuli: images/choice_trial_5.png,,,,,5c86faba6ec6b80001044908,09:06:01,27/02/2024
html-keyboard-response,83,152595,0.0-36.0-2.0,,,,delaylearn,learning,feedback_duration_window,aWouyzSSoeT2tKzadVRaQ8pRXf23,aWouyzSSoeT2tKzadVRaQ8pRXf23,,,,,,,,,,,,,,,,,,750.0,,,,5c86faba6ec6b80001044908,09:06:01,27/02/2024
html-keyboard-response,84,154112,0.0-36.0-3.0,,<div style='margin:auto;width: auto; font-size: 150%'><span style='font-weight: bold; font-size: 100px; color: red;'>0 points!</span><br><br></div>,,delaylearn,learning,feedback_image_window,aWouyzSSoeT2tKzadVRaQ8pRXf23,aWouyzSSoeT2tKzadVRaQ8pRXf23,,,,,,,,,,,,,,,,,,,,,,5c86faba6ec6b80001044908,09:06:01,27/02/2024
html-keyboard-response,85,156050,0.0-37.0,,"<div style=""font-size:100px;"">+</div>",,delaylearn,learning,ITI,aWouyzSSoeT2tKzadVRaQ8pRXf23,aWouyzSSoeT2tKzadVRaQ8pRXf23,,,,,,,,,,,,,,,,,,,1925.0,,,5c86faba6ec6b80001044908,09:06:01,27/02/2024
html-keyboard-response,86,157433,0.0-38.0-0.0,1381.2000000029802,"<div style=""display: flex; flex-direction: column; align-items: center; margin-top: -40px;""><img src=""images/pattern_4.png"" style=""width: 234px; height: 230px; margin-top: -50px;""><div style=""display: flex; justify-content: space-between; margin-top: 33px;""><img src=""images/choice_trial_16.png"" style=""width: 408px; height: 417px; margin-right: 200px;""><img src=""images/choice_trial_4.png"" style=""width: 408px; height: 417px;""></div></div>",f,delaylearn,learning,trial,aWouyzSSoeT2tKzadVRaQ8pRXf23,aWouyzSSoeT2tKzadVRaQ8pRXf23,2.0,images/choice_trial_16.png,images/choice_trial_4.png,images/pattern_4.png,j,j,7000.0,16.0,4.0,3.0,1.0,16.0,0.0,0.0,16.0,90.0,,,,,,5c86faba6ec6b80001044908,09:06:01,27/02/2024
html-keyboard-response,87,158443,0.0-38.0-1.0,,"<div style=""display: flex; flex-direction: column; align-items: center; margin-top: -40px;""><img src=""images/pattern_4.png"" style=""width: 234px; height: 230px; margin-top: -50px;""><div style=""display: flex; justify-content: space-between; margin-top: 33px;""><img src=""images/choice_trial_16.png"" style=""width: 408px; height: 417px; margin-right: 608px;""></div></div>",,delaylearn,learning,display_response,aWouyzSSoeT2tKzadVRaQ8pRXf23,aWouyzSSoeT2tKzadVRaQ8pRXf23,,,,,,,,,,,,,,,,,chosen stimuli: images/choice_trial_16.png,,,,,5c86faba6ec6b80001044908,09:06:01,27/02/2024
html-keyboard-response,88,165447,0.0-38.0-2.0,,,,delaylearn,learning,feedback_duration_window,aWouyzSSoeT2tKzadVRaQ8pRXf23,aWouyzSSoeT2tKzadVRaQ8pRXf23,,,,,,,,,,,,,,,,,,7000.0,,,,5c86faba6ec6b80001044908,09:06:01,27/02/2024
html-keyboard-response,89,166957,0.0-38.0-3.0,,<div style='margin:auto;width: auto; font-size: 150%'><span style='font-weight: bold; font-size: 100px; color: red;'>0 points!</span><br><br></div>,,delaylearn,learning,feedback_image_window,aWouyzSSoeT2tKzadVRaQ8pRXf23,aWouyzSSoeT2tKzadVRaQ8pRXf23,,,,,,,,,,,,,,,,,,,,,,5c86faba6ec6b80001044908,09:06:01,27/02/2024
html-keyboard-response,90,169285,0.0-39.0,,"<div style=""font-size:100px;"">+</div>",,delaylearn,learning,ITI,aWouyzSSoeT2tKzadVRaQ8pRXf23,aWouyzSSoeT2tKzadVRaQ8pRXf23,,,,,,,,,,,,,,,,,,,2314.0,,,5c86faba6ec6b80001044908,09:06:01,27/02/2024
html-keyboard-response,91,171558,0.0-40.0-0.0,2271.0,"<div style=""display: flex; flex-direction: column; align-items: center; margin-top: -40px;""><img src=""images/pattern_7.png"" style=""width: 234px; height: 230px; margin-top: -50px;""><div style=""display: flex; justify-content: space-between; margin-top: 33px;""><img src=""images/choice_trial_8.png"" style=""width: 408px; height: 417px; margin-right: 200px;""><img src=""images/choice_trial_15.png"" style=""width: 408px; height: 417px;""></div></div>",j,delaylearn,learning,trial,aWouyzSSoeT2tKzadVRaQ8pRXf23,aWouyzSSoeT2tKzadVRaQ8pRXf23,2.0,images/choice_trial_8.png,images/choice_trial_15.png,images/pattern_7.png,j,f,750.0,8.0,15.0,6.0,0.0,17.0,0.0,1.0,15.0,100.0,,,,,,5c86faba6ec6b80001044908,09:06:01,27/02/2024
html-keyboard-response,92,172570,0.0-40.0-1.0,,"<div style=""display: flex; flex-direction: column; align-items: center; margin-top: -40px;""><img src=""images/pattern_7.png"" style=""width: 234px; height: 230px; margin-top: -50px;""><div style=""display: flex; justify-content: space-between; margin-top: 33px;""><img src=""images/choice_trial_15.png"" style=""width: 408px; height: 417px; margin-left:608px;""></div></div>",,delaylearn,learning,display_response,aWouyzSSoeT2tKzadVRaQ8pRXf23,aWouyzSSoeT2tKzadVRaQ8pRXf23,,,,,,,,,,,,,,,,,chosen stimuli: images/choice_trial_15.png,,,,,5c86faba6ec6b80001044908,09:06:01,27/02/2024
html-keyboard-response,93,173322,0.0-40.0-2.0,,,,delaylearn,learning,feedback_duration_window,aWouyzSSoeT2tKzadVRaQ8pRXf23,aWouyzSSoeT2tKzadVRaQ8pRXf23,,,,,,,,,,,,,,,,,,750.0,,,,5c86faba6ec6b80001044908,09:06:01,27/02/2024
html-keyboard-response,94,174836,0.0-40.0-3.0,,<div style='margin:auto;width: auto; font-size: 150%'><span style='font-weight: bold; font-size: 100px; color: green;'>+10 points!</span><br><br></div>,,delaylearn,learning,feedback_image_window,aWouyzSSoeT2tKzadVRaQ8pRXf23,aWouyzSSoeT2tKzadVRaQ8pRXf23,,,,,,,,,,,,,,,,,,,,,,5c86faba6ec6b80001044908,09:06:01,27/02/2024
html-keyboard-response,95,177024,0.0-41.0,,"<div style=""font-size:100px;"">+</div>",,delaylearn,learning,ITI,aWouyzSSoeT2tKzadVRaQ8pRXf23,aWouyzSSoeT2tKzadVRaQ8pRXf23,,,,,,,,,,,,,,,,,,,2184.0,,,5c86faba6ec6b80001044908,09:06:01,27/02/2024
html-keyboard-response,96,178739,0.0-42.0-0.0,1713.0,"<div style=""display: flex; flex-direction: column; align-items: center; margin-top: -40px;""><img src=""images/pattern_1.png"" style=""width: 234px; height: 230px; margin-top: -50px;""><div style=""display: flex; justify-content: space-between; margin-top: 33px;""><img src=""images/choice_trial_3.png"" style=""width: 408px; height: 417px; margin-right: 200px;""><img src=""images/choice_trial_10.png"" style=""width: 408px; height: 417px;""></div></div>",f,delaylearn,learning,trial,aWouyzSSoeT2tKzadVRaQ8pRXf23,aWouyzSSoeT2tKzadVRaQ8pRXf23,2.0,images/choice_trial_3.png,images/choice_trial_10.png,images/pattern_1.png,f,f,7000.0,3.0,10.0,1.0,0.0,18.0,1.0,1.0,3.0,110.0,,,,,,5c86faba6ec6b80001044908,09:06:01,27/02/2024
html-keyboard-response,97,179751,0.0-42.0-1.0,,"<div style=""display: flex; flex-direction: column; align-items: center; margin-top: -40px;""><img src=""images/pattern_1.png"" style=""width: 234px; height: 230px; margin-top: -50px;""><div style=""display: flex; justify-content: space-between; margin-top: 33px;""><img src=""images/choice_trial_3.png"" style=""width: 408px; height: 417px; margin-right: 608px;""></div></div>",,delaylearn,learning,display_response,aWouyzSSoeT2tKzadVRaQ8pRXf23,aWouyzSSoeT2tKzadVRaQ8pRXf23,,,,,,,,,,,,,,,,,chosen stimuli: images/choice_trial_3.png,,,,,5c86faba6ec6b80001044908,09:06:01,27/02/2024
html-keyboard-response,98,186754,0.0-42.0-2.0,,,,delaylearn,learning,feedback_duration_window,aWouyzSSoeT2tKzadVRaQ8pRXf23,aWouyzSSoeT2tKzadVRaQ8pRXf23,,,,,,,,,,,,,,,,,,7000.0,,,,5c86faba6ec6b80001044908,09:06:01,27/02/2024
html-keyboard-response,99,188266,0.0-42.0-3.0,,<div style='margin:auto;width: auto; font-size: 150%'><span style='font-weight: bold; font-size: 100px; color: green;'>+10 points!</span><br><br></div>,,delaylearn,learning,feedback_image_window,aWouyzSSoeT2tKzadVRaQ8pRXf23,aWouyzSSoeT2tKzadVRaQ8pRXf23,,,,,,,,,,,,,,,,,,,,,,5c86faba6ec6b80001044908,09:06:01,27/02/2024
html-keyboard-response,100,190422,0.0-43.0,,"<div style=""font-size:100px;"">+</div>",,delaylearn,learning,ITI,aWouyzSSoeT2tKzadVRaQ8pRXf23,aWouyzSSoeT2tKzadVRaQ8pRXf23,,,,,,,,,,,,,,,,,,,2150.0,,,5c86faba6ec6b80001044908,09:06:01,27/02/2024
html-keyboard-response,101,192404,0.0-44.0-0.0,1979.800000011921,"<div style=""display: flex; flex-direction: column; align-items: center; margin-top: -40px;""><img src=""images/pattern_6.png"" style=""width: 234px; height: 230px; margin-top: -50px;""><div style=""display: flex; justify-content: space-between; margin-top: 33px;""><img src=""images/choice_trial_5.png"" style=""width: 408px; height: 417px; margin-right: 200px;""><img src=""images/choice_trial_11.png"" style=""width: 408px; height: 417px;""></div></div>",j,delaylearn,learning,trial,aWouyzSSoeT2tKzadVRaQ8pRXf23,aWouyzSSoeT2tKzadVRaQ8pRXf23,2.0,images/choice_trial_5.png,images/choice_trial_11.png,images/pattern_6.png,j,j,750.0,5.0,11.0,5.0,1.0,19.0,1.0,1.0,11.0,120.0,,,,,,5c86faba6ec6b80001044908,09:06:01,27/02/2024
html-keyboard-response,102,193413,0.0-44.0-1.0,,"<div style=""display: flex; flex-direction: column; align-items: center; margin-top: -40px;""><img src=""images/pattern_6.png"" style=""width: 234px; height: 230px; margin-top: -50px;""><div style=""display: flex; justify-content: space-between; margin-top: 33px;""><img src=""images/choice_trial_11.png"" style=""width: 408px; height: 417px; margin-left:608px;""></div></div>",,delaylearn,learning,display_response,aWouyzSSoeT2tKzadVRaQ8pRXf23,aWouyzSSoeT2tKzadVRaQ8pRXf23,,,,,,,,,,,,,,,,,chosen stimuli: images/choice_trial_11.png,,,,,5c86faba6ec6b80001044908,09:06:01,27/02/2024
html-keyboard-response,103,194178,0.0-44.0-2.0,,,,delaylearn,learning,feedback_duration_window,aWouyzSSoeT2tKzadVRaQ8pRXf23,aWouyzSSoeT2tKzadVRaQ8pRXf23,,,,,,,,,,,,,,,,,,750.0,,,,5c86faba6ec6b80001044908,09:06:01,27/02/2024
html-keyboard-response,104,195690,0.0-44.0-3.0,,<div style='margin:auto;width: auto; font-size: 150%'><span style='font-weight: bold; font-size: 100px; color: green;'>+10 points!</span><br><br></div>,,delaylearn,learning,feedback_image_window,aWouyzSSoeT2tKzadVRaQ8pRXf23,aWouyzSSoeT2tKzadVRaQ8pRXf23,,,,,,,,,,,,,,,,,,,,,,5c86faba6ec6b80001044908,09:06:01,27/02/2024
html-keyboard-response,105,198055,0.0-45.0,,"<div style=""font-size:100px;"">+</div>",,delaylearn,learning,ITI,aWouyzSSoeT2tKzadVRaQ8pRXf23,aWouyzSSoeT2tKzadVRaQ8pRXf23,,,,,,,,,,,,,,,,,,,2357.0,,,5c86faba6ec6b80001044908,09:06:01,27/02/2024
html-keyboard-response,106,199756,0.0-46.0-0.0,1699.199999988079,"<div style=""display: flex; flex-direction: column; align-items: center; margin-top: -40px;""><img src=""images/pattern_4.png"" style=""width: 234px; height: 230px; margin-top: -50px;""><div style=""display: flex; justify-content: space-between; margin-top: 33px;""><img src=""images/choice_trial_4.png"" style=""width: 408px; height: 417px; margin-right: 200px;""><img src=""images/choice_trial_16.png"" style=""width: 408px; height: 417px;""></div></div>",j,delaylearn,learning,trial,aWouyzSSoeT2tKzadVRaQ8pRXf23,aWouyzSSoeT2tKzadVRaQ8pRXf23,2.0,images/choice_trial_4.png,images/choice_trial_16.png,images/pattern_4.png,f,f,7000.0,4.0,16.0,3.0,0.0,20.0,0.0,0.0,16.0,120.0,,,,,,5c86faba6ec6b80001044908,09:06:01,27/02/2024
html-keyboard-response,107,200759,0.0-46.0-1.0,,"<div style=""display: flex; flex-direction: column; align-items: center; margin-top: -40px;""><img src=""images/pattern_4.png"" style=""width: 234px; height: 230px; margin-top: -50px;""><div style=""display: flex; justify-content: space-between; margin-top: 33px;""><img src=""images/choice_trial_16.png"" style=""width: 408px; height: 417px; margin-left:608px;""></div></div>",,delaylearn,learning,display_response,aWouyzSSoeT2tKzadVRaQ8pRXf23,aWouyzSSoeT2tKzadVRaQ8pRXf23,,,,,,,,,,,,,,,,,chosen stimuli: images/choice_trial_16.png,,,,,5c86faba6ec6b80001044908,09:06:01,27/02/2024
html-keyboard-response,108,207767,0.0-46.0-2.0,,,,delaylearn,learning,feedback_duration_window,aWouyzSSoeT2tKzadVRaQ8pRXf23,aWouyzSSoeT2tKzadVRaQ8pRXf23,,,,,,,,,,,,,,,,,,7000.0,,,,5c86faba6ec6b80001044908,09:06:01,27/02/2024
html-keyboard-response,109,209273,0.0-46.0-3.0,,<div style='margin:auto;width: auto; font-size: 150%'><span style='font-weight: bold; font-size: 100px; color: red;'>0 points!</span><br><br></div>,,delaylearn,learning,feedback_image_window,aWouyzSSoeT2tKzadVRaQ8pRXf23,aWouyzSSoeT2tKzadVRaQ8pRXf23,,,,,,,,,,,,,,,,,,,,,,5c86faba6ec6b80001044908,09:06:01,27/02/2024
html-keyboard-response,110,209789,0.0-47.0-0.0,,,,,,mood_trial_fixation,aWouyzSSoeT2tKzadVRaQ8pRXf23,,,,,,,,,,,,,,,,,,,,,,,5c86faba6ec6b80001044908,09:06:01,27/02/2024
lmdlab-html-vas-response,111,212796,0.0-47.0-1.0,1998.0,How happy are you right now?,0.5282289512054525,delaylearn,learning,mood_trial,aWouyzSSoeT2tKzadVRaQ8pRXf23,aWouyzSSoeT2tKzadVRaQ8pRXf23,,,,,,,,,,,,,,,,,,,,"['Very unhappy', 'Very happy']",,5c86faba6ec6b80001044908,09:06:01,27/02/2024
html-keyboard-response,112,214476,0.0-48.0,,"<div style=""font-size:100px;"">+</div>",,delaylearn,learning,ITI,aWouyzSSoeT2tKzadVRaQ8pRXf23,aWouyzSSoeT2tKzadVRaQ8pRXf23,,,,,,,,,,,,,,,,,,,1665.0,,,5c86faba6ec6b80001044908,09:06:01,27/02/2024
html-keyboard-response,113,215419,0.0-49.0-0.0,940.0999999940395,"<div style=""display: flex; flex-direction: column; align-items: center; margin-top: -40px;""><img src=""images/pattern_7.png"" style=""width: 234px; height: 230px; margin-top: -50px;""><div style=""display: flex; justify-content: space-between; margin-top: 33px;""><img src=""images/choice_trial_15.png"" style=""width: 408px; height: 417px; margin-right: 200px;""><img src=""images/choice_trial_8.png"" style=""width: 408px; height: 417px;""></div></div>",f,delaylearn,learning,trial,aWouyzSSoeT2tKzadVRaQ8pRXf23,aWouyzSSoeT2tKzadVRaQ8pRXf23,2.0,images/choice_trial_15.png,images/choice_trial_8.png,images/pattern_7.png,j,j,750.0,15.0,8.0,6.0,1.0,21.0,0.0,0.0,15.0,120.0,,,,,,5c86faba6ec6b80001044908,09:06:01,27/02/2024
html-keyboard-response,114,216435,0.0-49.0-1.0,,"<div style=""display: flex; flex-direction: column; align-items: center; margin-top: -40px;""><img src=""images/pattern_7.png"" style=""width: 234px; height: 230px; margin-top: -50px;""><div style=""display: flex; justify-content: space-between; margin-top: 33px;""><img src=""images/choice_trial_15.png"" style=""width: 408px; height: 417px; margin-right: 608px;""></div></div>",,delaylearn,learning,display_response,aWouyzSSoeT2tKzadVRaQ8pRXf23,aWouyzSSoeT2tKzadVRaQ8pRXf23,,,,,,,,,,,,,,,,,chosen stimuli: images/choice_trial_15.png,,,,,5c86faba6ec6b80001044908,09:06:01,27/02/2024
html-keyboard-response,115,217201,0.0-49.0-2.0,,,,delaylearn,learning,feedback_duration_window,aWouyzSSoeT2tKzadVRaQ8pRXf23,aWouyzSSoeT2tKzadVRaQ8pRXf23,,,,,,,,,,,,,,,,,,750.0,,,,5c86faba6ec6b80001044908,09:06:01,27/02/2024
html-keyboard-response,116,218705,0.0-49.0-3.0,,<div style='margin:auto;width: auto; font-size: 150%'><span style='font-weight: bold; font-size: 100px; color: red;'>0 points!</span><br><br></div>,,delaylearn,learning,feedback_image_window,aWouyzSSoeT2tKzadVRaQ8pRXf23,aWouyzSSoeT2tKzadVRaQ8pRXf23,,,,,,,,,,,,,,,,,,,,,,5c86faba6ec6b80001044908,09:06:01,27/02/2024
html-keyboard-response,117,220514,0.0-50.0,,"<div style=""font-size:100px;"">+</div>",,delaylearn,learning,ITI,aWouyzSSoeT2tKzadVRaQ8pRXf23,aWouyzSSoeT2tKzadVRaQ8pRXf23,,,,,,,,,,,,,,,,,,,1802.0,,,5c86faba6ec6b80001044908,09:06:01,27/02/2024
html-keyboard-response,118,221957,0.0-51.0-0.0,1440.7000000029802,"<div style=""display: flex; flex-direction: column; align-items: center; margin-top: -40px;""><img src=""images/pattern_1.png"" style=""width: 234px; height: 230px; margin-top: -50px;""><div style=""display: flex; justify-content: space-between; margin-top: 33px;""><img src=""images/choice_trial_10.png"" style=""width: 408px; height: 417px; margin-right: 200px;""><img src=""images/choice_trial_3.png"" style=""width: 408px; height: 417px;""></div></div>",j,delaylearn,learning,trial,aWouyzSSoeT2tKzadVRaQ8pRXf23,aWouyzSSoeT2tKzadVRaQ8pRXf23,2.0,images/choice_trial_10.png,images/choice_trial_3.png,images/pattern_1.png,f,j,7000.0,10.0,3.0,1.0,1.0,22.0,1.0,0.0,3.0,120.0,,,,,,5c86faba6ec6b80001044908,09:06:01,27/02/2024
html-keyboard-response,119,222967,0.0-51.0-1.0,,"<div style=""display: flex; flex-direction: column; align-items: center; margin-top: -40px;""><img src=""images/pattern_1.png"" style=""width: 234px; height: 230px; margin-top: -50px;""><div style=""display: flex; justify-content: space-between; margin-top: 33px;""><img src=""images/choice_trial_3.png"" style=""width: 408px; height: 417px; margin-left:608px;""></div></div>",,delaylearn,learning,display_response,aWouyzSSoeT2tKzadVRaQ8pRXf23,aWouyzSSoeT2tKzadVRaQ8pRXf23,,,,,,,,,,,,,,,,,chosen stimuli: images/choice_trial_3.png,,,,,5c86faba6ec6b80001044908,09:06:01,27/02/2024
html-keyboard-response,120,229976,0.0-51.0-2.0,,,,delaylearn,learning,feedback_duration_window,aWouyzSSoeT2tKzadVRaQ8pRXf23,aWouyzSSoeT2tKzadVRaQ8pRXf23,,,,,,,,,,,,,,,,,,7000.0,,,,5c86faba6ec6b80001044908,09:06:01,27/02/2024
html-keyboard-response,121,231481,0.0-51.0-3.0,,<div style='margin:auto;width: auto; font-size: 150%'><span style='font-weight: bold; font-size: 100px; color: red;'>0 points!</span><br><br></div>,,delaylearn,learning,feedback_image_window,aWouyzSSoeT2tKzadVRaQ8pRXf23,aWouyzSSoeT2tKzadVRaQ8pRXf23,,,,,,,,,,,,,,,,,,,,,,5c86faba6ec6b80001044908,09:06:01,27/02/2024
html-keyboard-response,122,233074,0.0-52.0,,"<div style=""font-size:100px;"">+</div>",,delaylearn,learning,ITI,aWouyzSSoeT2tKzadVRaQ8pRXf23,aWouyzSSoeT2tKzadVRaQ8pRXf23,,,,,,,,,,,,,,,,,,,1586.0,,,5c86faba6ec6b80001044908,09:06:01,27/02/2024
html-keyboard-response,123,234025,0.0-53.0-0.0,949.3999999910593,"<div style=""display: flex; flex-direction: column; align-items: center; margin-top: -40px;""><img src=""images/pattern_5.png"" style=""width: 234px; height: 230px; margin-top: -50px;""><div style=""display: flex; justify-content: space-between; margin-top: 33px;""><img src=""images/choice_trial_9.png"" style=""width: 408px; height: 417px; margin-right: 200px;""><img src=""images/choice_trial_2.png"" style=""width: 408px; height: 417px;""></div></div>",f,delaylearn,learning,trial,aWouyzSSoeT2tKzadVRaQ8pRXf23,aWouyzSSoeT2tKzadVRaQ8pRXf23,2.0,images/choice_trial_9.png,images/choice_trial_2.png,images/pattern_5.png,j,j,750.0,9.0,2.0,4.0,1.0,23.0,0.0,0.0,9.0,120.0,,,,,,5c86faba6ec6b80001044908,09:06:01,27/02/2024
html-keyboard-response,124,235028,0.0-53.0-1.0,,"<div style=""display: flex; flex-direction: column; align-items: center; margin-top: -40px;""><img src=""images/pattern_5.png"" style=""width: 234px; height: 230px; margin-top: -50px;""><div style=""display: flex; justify-content: space-between; margin-top: 33px;""><img src=""images/choice_trial_9.png"" style=""width: 408px; height: 417px; margin-right: 608px;""></div></div>",,delaylearn,learning,display_response,aWouyzSSoeT2tKzadVRaQ8pRXf23,aWouyzSSoeT2tKzadVRaQ8pRXf23,,,,,,,,,,,,,,,,,chosen stimuli: images/choice_trial_9.png,,,,,5c86faba6ec6b80001044908,09:06:01,27/02/2024
html-keyboard-response,125,235794,0.0-53.0-2.0,,,,delaylearn,learning,feedback_duration_window,aWouyzSSoeT2tKzadVRaQ8pRXf23,aWouyzSSoeT2tKzadVRaQ8pRXf23,,,,,,,,,,,,,,,,,,750.0,,,,5c86faba6ec6b80001044908,09:06:01,27/02/2024
html-keyboard-response,126,237310,0.0-53.0-3.0,,<div style='margin:auto;width: auto; font-size: 150%'><span style='font-weight: bold; font-size: 100px; color: red;'>0 points!</span><br><br></div>,,delaylearn,learning,feedback_image_window,aWouyzSSoeT2tKzadVRaQ8pRXf23,aWouyzSSoeT2tKzadVRaQ8pRXf23,,,,,,,,,,,,,,,,,,,,,,5c86faba6ec6b80001044908,09:06:01,27/02/2024
html-keyboard-response,127,239029,0.0-54.0,,"<div style=""font-size:100px;"">+</div>",,delaylearn,learning,ITI,aWouyzSSoeT2tKzadVRaQ8pRXf23,aWouyzSSoeT2tKzadVRaQ8pRXf23,,,,,,,,,,,,,,,,,,,1711.0,,,5c86faba6ec6b80001044908,09:06:01,27/02/2024
html-keyboard-response,128,240825,0.0-55.0-0.0,1793.9000000059605,"<div style=""display: flex; flex-direction: column; align-items: center; margin-top: -40px;""><img src=""images/pattern_3.png"" style=""width: 234px; height: 230px; margin-top: -50px;""><div style=""display: flex; justify-content: space-between; margin-top: 33px;""><img src=""images/choice_trial_14.png"" style=""width: 408px; height: 417px; margin-right: 200px;""><img src=""images/choice_trial_12.png"" style=""width: 408px; height: 417px;""></div></div>",j,delaylearn,learning,trial,aWouyzSSoeT2tKzadVRaQ8pRXf23,aWouyzSSoeT2tKzadVRaQ8pRXf23,2.0,images/choice_trial_14.png,images/choice_trial_12.png,images/pattern_3.png,j,j,7000.0,14.0,12.0,2.0,1.0,24.0,1.0,1.0,12.0,130.0,,,,,,5c86faba6ec6b80001044908,09:06:01,27/02/2024
html-keyboard-response,129,241842,0.0-55.0-1.0,,"<div style=""display: flex; flex-direction: column; align-items: center; margin-top: -40px;""><img src=""images/pattern_3.png"" style=""width: 234px; height: 230px; margin-top: -50px;""><div style=""display: flex; justify-content: space-between; margin-top: 33px;""><img src=""images/choice_trial_12.png"" style=""width: 408px; height: 417px; margin-left:608px;""></div></div>",,delaylearn,learning,display_response,aWouyzSSoeT2tKzadVRaQ8pRXf23,aWouyzSSoeT2tKzadVRaQ8pRXf23,,,,,,,,,,,,,,,,,chosen stimuli: images/choice_trial_12.png,,,,,5c86faba6ec6b80001044908,09:06:01,27/02/2024
html-keyboard-response,130,248847,0.0-55.0-2.0,,,,delaylearn,learning,feedback_duration_window,aWouyzSSoeT2tKzadVRaQ8pRXf23,aWouyzSSoeT2tKzadVRaQ8pRXf23,,,,,,,,,,,,,,,,,,7000.0,,,,5c86faba6ec6b80001044908,09:06:01,27/02/2024
html-keyboard-response,131,250356,0.0-55.0-3.0,,<div style='margin:auto;width: auto; font-size: 150%'><span style='font-weight: bold; font-size: 100px; color: green;'>+10 points!</span><br><br></div>,,delaylearn,learning,feedback_image_window,aWouyzSSoeT2tKzadVRaQ8pRXf23,aWouyzSSoeT2tKzadVRaQ8pRXf23,,,,,,,,,,,,,,,,,,,,,,5c86faba6ec6b80001044908,09:06:01,27/02/2024
lmdlab-html-vas-response,132,255653,0.0-56.0-0.0,3778.0,*How <b><u>confident</u></b> are you feeling about your answers at this moment?*,0.3047031297684039,rewlearn,rate_confidence,,aWouyzSSoeT2tKzadVRaQ8pRXf23,aWouyzSSoeT2tKzadVRaQ8pRXf23,,,,,,,,,,,,,,,,,,,,"['No confidence', 'Complete confidence']",,5c86faba6ec6b80001044908,09:06:01,27/02/2024
lmdlab-rest-trial-limit,133,264999,0.0-56.0-1.0,7828.20000000298,"<div style=""font-size:40px;""><b>Please take a break!</b><br><br><br><br><p>Great work: you earned undefined points.<br><br><br><p>You have completed part(s) 1 of 6.<br><br><br><br>When you are ready to continue<br><br><br>please click the button.</p><br><br>",0,delaylearn,learning,break,aWouyzSSoeT2tKzadVRaQ8pRXf23,aWouyzSSoeT2tKzadVRaQ8pRXf23,,,,,,,,,,,,,,,,,,,,,0.0,5c86faba6ec6b80001044908,09:06:01,27/02/2024
html-keyboard-response,134,268016,0.0-56.0-2.0,,"<div style=""font-size:100px;"">+</div>",,delaylearn,learning,pre_fixation,aWouyzSSoeT2tKzadVRaQ8pRXf23,,,,,,,,,,,,,,,,,,,,,,,5c86faba6ec6b80001044908,09:06:01,27/02/2024
lmdlab-html-vas-response,135,271479,0.0-56.0-3.0-0.0,2450.0,How happy are you right now?,0.42189142450239053,delaylearn,learning,mood_baseline,aWouyzSSoeT2tKzadVRaQ8pRXf23,aWouyzSSoeT2tKzadVRaQ8pRXf23,,,,,,,,,,,,,,,,,,,,"['Very unhappy', 'Very happy']",,5c86faba6ec6b80001044908,09:06:01,27/02/2024
html-keyboard-response,136,272988,0.0-56.0-3.0-1.0,,,,,,mood_baseline_fixation,aWouyzSSoeT2tKzadVRaQ8pRXf23,,,,,,,,,,,,,,,,,,,,,,,5c86faba6ec6b80001044908,09:06:01,27/02/2024
html-keyboard-response,137,274652,0.0-57.0,,"<div style=""font-size:100px;"">+</div>",,delaylearn,learning,ITI,aWouyzSSoeT2tKzadVRaQ8pRXf23,aWouyzSSoeT2tKzadVRaQ8pRXf23,,,,,,,,,,,,,,,,,,,1647.0,,,5c86faba6ec6b80001044908,09:06:01,27/02/2024
html-keyboard-response,138,275983,0.0-58.0-0.0,1329.9000000059605,"<div style=""display: flex; flex-direction: column; align-items: center; margin-top: -40px;""><img src=""images/pattern_7.png"" style=""width: 234px; height: 230px; margin-top: -50px;""><div style=""display: flex; justify-content: space-between; margin-top: 33px;""><img src=""images/choice_trial_15.png"" style=""width: 408px; height: 417px; margin-right: 200px;""><img src=""images/choice_trial_8.png"" style=""width: 408px; height: 417px;""></div></div>",j,delaylearn,learning,trial,aWouyzSSoeT2tKzadVRaQ8pRXf23,aWouyzSSoeT2tKzadVRaQ8pRXf23,2.0,images/choice_trial_15.png,images/choice_trial_8.png,images/pattern_7.png,j,j,750.0,15.0,8.0,6.0,1.0,25.0,1.0,1.0,8.0,140.0,,,,,,5c86faba6ec6b80001044908,09:06:01,27/02/2024
html-keyboard-response,139,276993,0.0-58.0-1.0,,"<div style=""display: flex; flex-direction: column; align-items: center; margin-top: -40px;""><img src=""images/pattern_7.png"" style=""width: 234px; height: 230px; margin-top: -50px;""><div style=""display: flex; justify-content: space-between; margin-top: 33px;""><img src=""images/choice_trial_8.png"" style=""width: 408px; height: 417px; margin-left:608px;""></div></div>",,delaylearn,learning,display_response,aWouyzSSoeT2tKzadVRaQ8pRXf23,aWouyzSSoeT2tKzadVRaQ8pRXf23,,,,,,,,,,,,,,,,,chosen stimuli: images/choice_trial_8.png,,,,,5c86faba6ec6b80001044908,09:06:01,27/02/2024
html-keyboard-response,140,277760,0.0-58.0-2.0,,,,delaylearn,learning,feedback_duration_window,aWouyzSSoeT2tKzadVRaQ8pRXf23,aWouyzSSoeT2tKzadVRaQ8pRXf23,,,,,,,,,,,,,,,,,,750.0,,,,5c86faba6ec6b80001044908,09:06:01,27/02/2024
html-keyboard-response,141,279276,0.0-58.0-3.0,,<div style='margin:auto;width: auto; font-size: 150%'><span style='font-weight: bold; font-size: 100px; color: green;'>+10 points!</span><br><br></div>,,delaylearn,learning,feedback_image_window,aWouyzSSoeT2tKzadVRaQ8pRXf23,aWouyzSSoeT2tKzadVRaQ8pRXf23,,,,,,,,,,,,,,,,,,,,,,5c86faba6ec6b80001044908,09:06:01,27/02/2024
html-keyboard-response,142,279791,0.0-59.0-0.0,,,,,,mood_trial_fixation,aWouyzSSoeT2tKzadVRaQ8pRXf23,,,,,,,,,,,,,,,,,,,,,,,5c86faba6ec6b80001044908,09:06:01,27/02/2024
lmdlab-html-vas-response,143,282992,0.0-59.0-1.0,2191.0,How happy are you right now?,0.5564409480858568,delaylearn,learning,mood_trial,aWouyzSSoeT2tKzadVRaQ8pRXf23,aWouyzSSoeT2tKzadVRaQ8pRXf23,,,,,,,,,,,,,,,,,,,,"['Very unhappy', 'Very happy']",,5c86faba6ec6b80001044908,09:06:01,27/02/2024
html-keyboard-response,144,285056,0.0-60.0,,"<div style=""font-size:100px;"">+</div>",,delaylearn,learning,ITI,aWouyzSSoeT2tKzadVRaQ8pRXf23,aWouyzSSoeT2tKzadVRaQ8pRXf23,,,,,,,,,,,,,,,,,,,2059.0,,,5c86faba6ec6b80001044908,09:06:01,27/02/2024
html-keyboard-response,145,286144,0.0-61.0-0.0,1085.7999999970198,"<div style=""display: flex; flex-direction: column; align-items: center; margin-top: -40px;""><img src=""images/pattern_1.png"" style=""width: 234px; height: 230px; margin-top: -50px;""><div style=""display: flex; justify-content: space-between; margin-top: 33px;""><img src=""images/choice_trial_3.png"" style=""width: 408px; height: 417px; margin-right: 200px;""><img src=""images/choice_trial_10.png"" style=""width: 408px; height: 417px;""></div></div>",f,delaylearn,learning,trial,aWouyzSSoeT2tKzadVRaQ8pRXf23,aWouyzSSoeT2tKzadVRaQ8pRXf23,2.0,images/choice_trial_3.png,images/choice_trial_10.png,images/pattern_1.png,f,f,7000.0,3.0,10.0,1.0,0.0,26.0,1.0,1.0,3.0,150.0,,,,,,5c86faba6ec6b80001044908,09:06:01,27/02/2024
html-keyboard-response,146,287155,0.0-61.0-1.0,,"<div style=""display: flex; flex-direction: column; align-items: center; margin-top: -40px;""><img src=""images/pattern_1.png"" style=""width: 234px; height: 230px; margin-top: -50px;""><div style=""display: flex; justify-content: space-between; margin-top: 33px;""><img src=""images/choice_trial_3.png"" style=""width: 408px; height: 417px; margin-right: 608px;""></div></div>",,delaylearn,learning,display_response,aWouyzSSoeT2tKzadVRaQ8pRXf23,aWouyzSSoeT2tKzadVRaQ8pRXf23,,,,,,,,,,,,,,,,,chosen stimuli: images/choice_trial_3.png,,,,,5c86faba6ec6b80001044908,09:06:01,27/02/2024
html-keyboard-response,147,294168,0.0-61.0-2.0,,,,delaylearn,learning,feedback_duration_window,aWouyzSSoeT2tKzadVRaQ8pRXf23,aWouyzSSoeT2tKzadVRaQ8pRXf23,,,,,,,,,,,,,,,,,,7000.0,,,,5c86faba6ec6b80001044908,09:06:01,27/02/2024
html-keyboard-response,148,295670,0.0-61.0-3.0,,<div style='margin:auto;width: auto; font-size: 150%'><span style='font-weight: bold; font-size: 100px; color: green;'>+10 points!</span><br><br></div>,,delaylearn,learning,feedback_image_window,aWouyzSSoeT2tKzadVRaQ8pRXf23,aWouyzSSoeT2tKzadVRaQ8pRXf23,,,,,,,,,,,,,,,,,,,,,,5c86faba6ec6b80001044908,09:06:01,27/02/2024
html-keyboard-response,149,297653,0.0-62.0,,"<div style=""font-size:100px;"">+</div>",,delaylearn,learning,ITI,aWouyzSSoeT2tKzadVRaQ8pRXf23,aWouyzSSoeT2tKzadVRaQ8pRXf23,,,,,,,,,,,,,,,,,,,1969.0,,,5c86faba6ec6b80001044908,09:06:01,27/02/2024
html-keyboard-response,150,298605,0.0-63.0-0.0,949.7000000029802,"<div style=""display: flex; flex-direction: column; align-items: center; margin-top: -40px;""><img src=""images/pattern_5.png"" style=""width: 234px; height: 230px; margin-top: -50px;""><div style=""display: flex; justify-content: space-between; margin-top: 33px;""><img src=""images/choice_trial_2.png"" style=""width: 408px; height: 417px; margin-right: 200px;""><img src=""images/choice_trial_9.png"" style=""width: 408px; height: 417px;""></div></div>",j,delaylearn,learning,trial,aWouyzSSoeT2tKzadVRaQ8pRXf23,aWouyzSSoeT2tKzadVRaQ8pRXf23,2.0,images/choice_trial_2.png,images/choice_trial_9.png,images/pattern_5.png,f,f,750.0,2.0,9.0,4.0,0.0,27.0,0.0,0.0,9.0,150.0,,,,,,5c86faba6ec6b80001044908,09:06:01,27/02/2024
html-keyboard-response,151,299617,0.0-63.0-1.0,,"<div style=""display: flex; flex-direction: column; align-items: center; margin-top: -40px;""><img src=""images/pattern_5.png"" style=""width: 234px; height: 230px; margin-top: -50px;""><div style=""display: flex; justify-content: space-between; margin-top: 33px;""><img src=""images/choice_trial_9.png"" style=""width: 408px; height: 417px; margin-left:608px;""></div></div>",,delaylearn,learning,display_response,aWouyzSSoeT2tKzadVRaQ8pRXf23,aWouyzSSoeT2tKzadVRaQ8pRXf23,,,,,,,,,,,,,,,,,chosen stimuli: images/choice_trial_9.png,,,,,5c86faba6ec6b80001044908,09:06:01,27/02/2024
html-keyboard-response,152,300383,0.0-63.0-2.0,,,,delaylearn,learning,feedback_duration_window,aWouyzSSoeT2tKzadVRaQ8pRXf23,aWouyzSSoeT2tKzadVRaQ8pRXf23,,,,,,,,,,,,,,,,,,750.0,,,,5c86faba6ec6b80001044908,09:06:01,27/02/2024
html-keyboard-response,153,301900,0.0-63.0-3.0,,<div style='margin:auto;width: auto; font-size: 150%'><span style='font-weight: bold; font-size: 100px; color: red;'>0 points!</span><br><br></div>,,delaylearn,learning,feedback_image_window,aWouyzSSoeT2tKzadVRaQ8pRXf23,aWouyzSSoeT2tKzadVRaQ8pRXf23,,,,,,,,,,,,,,,,,,,,,,5c86faba6ec6b80001044908,09:06:01,27/02/2024
html-keyboard-response,154,303853,0.0-64.0,,"<div style=""font-size:100px;"">+</div>",,delaylearn,learning,ITI,aWouyzSSoeT2tKzadVRaQ8pRXf23,aWouyzSSoeT2tKzadVRaQ8pRXf23,,,,,,,,,,,,,,,,,,,1941.0,,,5c86faba6ec6b80001044908,09:06:01,27/02/2024
html-keyboard-response,155,304922,0.0-65.0-0.0,1067.0999999940395,"<div style=""display: flex; flex-direction: column; align-items: center; margin-top: -40px;""><img src=""images/pattern_6.png"" style=""width: 234px; height: 230px; margin-top: -50px;""><div style=""display: flex; justify-content: space-between; margin-top: 33px;""><img src=""images/choice_trial_5.png"" style=""width: 408px; height: 417px; margin-right: 200px;""><img src=""images/choice_trial_11.png"" style=""width: 408px; height: 417px;""></div></div>",j,delaylearn,learning,trial,aWouyzSSoeT2tKzadVRaQ8pRXf23,aWouyzSSoeT2tKzadVRaQ8pRXf23,2.0,images/choice_trial_5.png,images/choice_trial_11.png,images/pattern_6.png,j,j,750.0,5.0,11.0,5.0,1.0,28.0,1.0,1.0,11.0,160.0,,,,,,5c86faba6ec6b80001044908,09:06:01,27/02/2024
html-keyboard-response,156,305931,0.0-65.0-1.0,,"<div style=""display: flex; flex-direction: column; align-items: center; margin-top: -40px;""><img src=""images/pattern_6.png"" style=""width: 234px; height: 230px; margin-top: -50px;""><div style=""display: flex; justify-content: space-between; margin-top: 33px;""><img src=""images/choice_trial_11.png"" style=""width: 408px; height: 417px; margin-left:608px;""></div></div>",,delaylearn,learning,display_response,aWouyzSSoeT2tKzadVRaQ8pRXf23,aWouyzSSoeT2tKzadVRaQ8pRXf23,,,,,,,,,,,,,,,,,chosen stimuli: images/choice_trial_11.png,,,,,5c86faba6ec6b80001044908,09:06:01,27/02/2024
html-keyboard-response,157,306697,0.0-65.0-2.0,,,,delaylearn,learning,feedback_duration_window,aWouyzSSoeT2tKzadVRaQ8pRXf23,aWouyzSSoeT2tKzadVRaQ8pRXf23,,,,,,,,,,,,,,,,,,750.0,,,,5c86faba6ec6b80001044908,09:06:01,27/02/2024
html-keyboard-response,158,308213,0.0-65.0-3.0,,<div style='margin:auto;width: auto; font-size: 150%'><span style='font-weight: bold; font-size: 100px; color: green;'>+10 points!</span><br><br></div>,,delaylearn,learning,feedback_image_window,aWouyzSSoeT2tKzadVRaQ8pRXf23,aWouyzSSoeT2tKzadVRaQ8pRXf23,,,,,,,,,,,,,,,,,,,,,,5c86faba6ec6b80001044908,09:06:01,27/02/2024
html-keyboard-response,159,308730,0.0-66.0-0.0,,,,,,mood_trial_fixation,aWouyzSSoeT2tKzadVRaQ8pRXf23,,,,,,,,,,,,,,,,,,,,,,,5c86faba6ec6b80001044908,09:06:01,27/02/2024
lmdlab-html-vas-response,160,311801,0.0-66.0-1.0,2062.0,How happy are you right now?,0.5672917161167814,delaylearn,learning,mood_trial,aWouyzSSoeT2tKzadVRaQ8pRXf23,aWouyzSSoeT2tKzadVRaQ8pRXf23,,,,,,,,,,,,,,,,,,,,"['Very unhappy', 'Very happy']",,5c86faba6ec6b80001044908,09:06:01,27/02/2024
html-keyboard-response,161,313546,0.0-67.0,,"<div style=""font-size:100px;"">+</div>",,delaylearn,learning,ITI,aWouyzSSoeT2tKzadVRaQ8pRXf23,aWouyzSSoeT2tKzadVRaQ8pRXf23,,,,,,,,,,,,,,,,,,,1734.0,,,5c86faba6ec6b80001044908,09:06:01,27/02/2024
html-keyboard-response,162,315486,0.0-68.0-0.0,1937.2000000029802,"<div style=""display: flex; flex-direction: column; align-items: center; margin-top: -40px;""><img src=""images/pattern_4.png"" style=""width: 234px; height: 230px; margin-top: -50px;""><div style=""display: flex; justify-content: space-between; margin-top: 33px;""><img src=""images/choice_trial_16.png"" style=""width: 408px; height: 417px; margin-right: 200px;""><img src=""images/choice_trial_4.png"" style=""width: 408px; height: 417px;""></div></div>",j,delaylearn,learning,trial,aWouyzSSoeT2tKzadVRaQ8pRXf23,aWouyzSSoeT2tKzadVRaQ8pRXf23,2.0,images/choice_trial_16.png,images/choice_trial_4.png,images/pattern_4.png,j,j,7000.0,16.0,4.0,3.0,1.0,29.0,1.0,1.0,4.0,170.0,,,,,,5c86faba6ec6b80001044908,09:06:01,27/02/2024
html-keyboard-response,163,316497,0.0-68.0-1.0,,"<div style=""display: flex; flex-direction: column; align-items: center; margin-top: -40px;""><img src=""images/pattern_4.png"" style=""width: 234px; height: 230px; margin-top: -50px;""><div style=""display: flex; justify-content: space-between; margin-top: 33px;""><img src=""images/choice_trial_4.png"" style=""width: 408px; height: 417px; margin-left:608px;""></div></div>",,delaylearn,learning,display_response,aWouyzSSoeT2tKzadVRaQ8pRXf23,aWouyzSSoeT2tKzadVRaQ8pRXf23,,,,,,,,,,,,,,,,,chosen stimuli: images/choice_trial_4.png,,,,,5c86faba6ec6b80001044908,09:06:01,27/02/2024
html-keyboard-response,164,323510,0.0-68.0-2.0,,,,delaylearn,learning,feedback_duration_window,aWouyzSSoeT2tKzadVRaQ8pRXf23,aWouyzSSoeT2tKzadVRaQ8pRXf23,,,,,,,,,,,,,,,,,,7000.0,,,,5c86faba6ec6b80001044908,09:06:01,27/02/2024
html-keyboard-response,165,325024,0.0-68.0-3.0,,<div style='margin:auto;width: auto; font-size: 150%'><span style='font-weight: bold; font-size: 100px; color: green;'>+10 points!</span><br><br></div>,,delaylearn,learning,feedback_image_window,aWouyzSSoeT2tKzadVRaQ8pRXf23,aWouyzSSoeT2tKzadVRaQ8pRXf23,,,,,,,,,,,,,,,,,,,,,,5c86faba6ec6b80001044908,09:06:01,27/02/2024
html-keyboard-response,166,327212,0.0-69.0,,"<div style=""font-size:100px;"">+</div>",,delaylearn,learning,ITI,aWouyzSSoeT2tKzadVRaQ8pRXf23,aWouyzSSoeT2tKzadVRaQ8pRXf23,,,,,,,,,,,,,,,,,,,2184.0,,,5c86faba6ec6b80001044908,09:06:01,27/02/2024
html-keyboard-response,167,328696,0.0-70.0-0.0,1481.5999999940395,"<div style=""display: flex; flex-direction: column; align-items: center; margin-top: -40px;""><img src=""images/pattern_3.png"" style=""width: 234px; height: 230px; margin-top: -50px;""><div style=""display: flex; justify-content: space-between; margin-top: 33px;""><img src=""images/choice_trial_14.png"" style=""width: 408px; height: 417px; margin-right: 200px;""><img src=""images/choice_trial_12.png"" style=""width: 408px; height: 417px;""></div></div>",j,delaylearn,learning,trial,aWouyzSSoeT2tKzadVRaQ8pRXf23,aWouyzSSoeT2tKzadVRaQ8pRXf23,2.0,images/choice_trial_14.png,images/choice_trial_12.png,images/pattern_3.png,j,j,7000.0,14.0,12.0,2.0,1.0,30.0,1.0,1.0,12.0,180.0,,,,,,5c86faba6ec6b80001044908,09:06:01,27/02/2024
html-keyboard-response,168,329705,0.0-70.0-1.0,,"<div style=""display: flex; flex-direction: column; align-items: center; margin-top: -40px;""><img src=""images/pattern_3.png"" style=""width: 234px; height: 230px; margin-top: -50px;""><div style=""display: flex; justify-content: space-between; margin-top: 33px;""><img src=""images/choice_trial_12.png"" style=""width: 408px; height: 417px; margin-left:608px;""></div></div>",,delaylearn,learning,display_response,aWouyzSSoeT2tKzadVRaQ8pRXf23,aWouyzSSoeT2tKzadVRaQ8pRXf23,,,,,,,,,,,,,,,,,chosen stimuli: images/choice_trial_12.png,,,,,5c86faba6ec6b80001044908,09:06:01,27/02/2024
html-keyboard-response,169,336712,0.0-70.0-2.0,,,,delaylearn,learning,feedback_duration_window,aWouyzSSoeT2tKzadVRaQ8pRXf23,aWouyzSSoeT2tKzadVRaQ8pRXf23,,,,,,,,,,,,,,,,,,7000.0,,,,5c86faba6ec6b80001044908,09:06:01,27/02/2024
html-keyboard-response,170,338218,0.0-70.0-3.0,,<div style='margin:auto;width: auto; font-size: 150%'><span style='font-weight: bold; font-size: 100px; color: green;'>+10 points!</span><br><br></div>,,delaylearn,learning,feedback_image_window,aWouyzSSoeT2tKzadVRaQ8pRXf23,aWouyzSSoeT2tKzadVRaQ8pRXf23,,,,,,,,,,,,,,,,,,,,,,5c86faba6ec6b80001044908,09:06:01,27/02/2024
html-keyboard-response,171,340598,0.0-71.0,,"<div style=""font-size:100px;"">+</div>",,delaylearn,learning,ITI,aWouyzSSoeT2tKzadVRaQ8pRXf23,aWouyzSSoeT2tKzadVRaQ8pRXf23,,,,,,,,,,,,,,,,,,,2363.0,,,5c86faba6ec6b80001044908,09:06:01,27/02/2024
html-keyboard-response,172,341415,0.0-72.0-0.0,814.7999999970198,"<div style=""display: flex; flex-direction: column; align-items: center; margin-top: -40px;""><img src=""images/pattern_5.png"" style=""width: 234px; height: 230px; margin-top: -50px;""><div style=""display: flex; justify-content: space-between; margin-top: 33px;""><img src=""images/choice_trial_2.png"" style=""width: 408px; height: 417px; margin-right: 200px;""><img src=""images/choice_trial_9.png"" style=""width: 408px; height: 417px;""></div></div>",j,delaylearn,learning,trial,aWouyzSSoeT2tKzadVRaQ8pRXf23,aWouyzSSoeT2tKzadVRaQ8pRXf23,2.0,images/choice_trial_2.png,images/choice_trial_9.png,images/pattern_5.png,j,f,750.0,2.0,9.0,4.0,0.0,31.0,0.0,1.0,9.0,190.0,,,,,,5c86faba6ec6b80001044908,09:06:01,27/02/2024
html-keyboard-response,173,342432,0.0-72.0-1.0,,"<div style=""display: flex; flex-direction: column; align-items: center; margin-top: -40px;""><img src=""images/pattern_5.png"" style=""width: 234px; height: 230px; margin-top: -50px;""><div style=""display: flex; justify-content: space-between; margin-top: 33px;""><img src=""images/choice_trial_9.png"" style=""width: 408px; height: 417px; margin-left:608px;""></div></div>",,delaylearn,learning,display_response,aWouyzSSoeT2tKzadVRaQ8pRXf23,aWouyzSSoeT2tKzadVRaQ8pRXf23,,,,,,,,,,,,,,,,,chosen stimuli: images/choice_trial_9.png,,,,,5c86faba6ec6b80001044908,09:06:01,27/02/2024
html-keyboard-response,174,343198,0.0-72.0-2.0,,,,delaylearn,learning,feedback_duration_window,aWouyzSSoeT2tKzadVRaQ8pRXf23,aWouyzSSoeT2tKzadVRaQ8pRXf23,,,,,,,,,,,,,,,,,,750.0,,,,5c86faba6ec6b80001044908,09:06:01,27/02/2024
html-keyboard-response,175,344714,0.0-72.0-3.0,,<div style='margin:auto;width: auto; font-size: 150%'><span style='font-weight: bold; font-size: 100px; color: green;'>+10 points!</span><br><br></div>,,delaylearn,learning,feedback_image_window,aWouyzSSoeT2tKzadVRaQ8pRXf23,aWouyzSSoeT2tKzadVRaQ8pRXf23,,,,,,,,,,,,,,,,,,,,,,5c86faba6ec6b80001044908,09:06:01,27/02/2024
html-keyboard-response,176,346294,0.0-73.0,,"<div style=""font-size:100px;"">+</div>",,delaylearn,learning,ITI,aWouyzSSoeT2tKzadVRaQ8pRXf23,aWouyzSSoeT2tKzadVRaQ8pRXf23,,,,,,,,,,,,,,,,,,,1566.0,,,5c86faba6ec6b80001044908,09:06:01,27/02/2024
html-keyboard-response,177,347534,0.0-74.0-0.0,1238.2999999970198,"<div style=""display: flex; flex-direction: column; align-items: center; margin-top: -40px;""><img src=""images/pattern_1.png"" style=""width: 234px; height: 230px; margin-top: -50px;""><div style=""display: flex; justify-content: space-between; margin-top: 33px;""><img src=""images/choice_trial_3.png"" style=""width: 408px; height: 417px; margin-right: 200px;""><img src=""images/choice_trial_10.png"" style=""width: 408px; height: 417px;""></div></div>",f,delaylearn,learning,trial,aWouyzSSoeT2tKzadVRaQ8pRXf23,aWouyzSSoeT2tKzadVRaQ8pRXf23,2.0,images/choice_trial_3.png,images/choice_trial_10.png,images/pattern_1.png,f,f,7000.0,3.0,10.0,1.0,0.0,32.0,1.0,1.0,3.0,200.0,,,,,,5c86faba6ec6b80001044908,09:06:01,27/02/2024
html-keyboard-response,178,348546,0.0-74.0-1.0,,"<div style=""display: flex; flex-direction: column; align-items: center; margin-top: -40px;""><img src=""images/pattern_1.png"" style=""width: 234px; height: 230px; margin-top: -50px;""><div style=""display: flex; justify-content: space-between; margin-top: 33px;""><img src=""images/choice_trial_3.png"" style=""width: 408px; height: 417px; margin-right: 608px;""></div></div>",,delaylearn,learning,display_response,aWouyzSSoeT2tKzadVRaQ8pRXf23,aWouyzSSoeT2tKzadVRaQ8pRXf23,,,,,,,,,,,,,,,,,chosen stimuli: images/choice_trial_3.png,,,,,5c86faba6ec6b80001044908,09:06:01,27/02/2024
html-keyboard-response,179,355562,0.0-74.0-2.0,,,,delaylearn,learning,feedback_duration_window,aWouyzSSoeT2tKzadVRaQ8pRXf23,aWouyzSSoeT2tKzadVRaQ8pRXf23,,,,,,,,,,,,,,,,,,7000.0,,,,5c86faba6ec6b80001044908,09:06:01,27/02/2024
html-keyboard-response,180,357079,0.0-74.0-3.0,,<div style='margin:auto;width: auto; font-size: 150%'><span style='font-weight: bold; font-size: 100px; color: green;'>+10 points!</span><br><br></div>,,delaylearn,learning,feedback_image_window,aWouyzSSoeT2tKzadVRaQ8pRXf23,aWouyzSSoeT2tKzadVRaQ8pRXf23,,,,,,,,,,,,,,,,,,,,,,5c86faba6ec6b80001044908,09:06:01,27/02/2024
html-keyboard-response,181,357593,0.0-75.0-0.0,,,,,,mood_trial_fixation,aWouyzSSoeT2tKzadVRaQ8pRXf23,,,,,,,,,,,,,,,,,,,,,,,5c86faba6ec6b80001044908,09:06:01,27/02/2024
lmdlab-html-vas-response,182,361103,0.0-75.0-1.0,2500.0,How happy are you right now?,0.6193754026652198,delaylearn,learning,mood_trial,aWouyzSSoeT2tKzadVRaQ8pRXf23,aWouyzSSoeT2tKzadVRaQ8pRXf23,,,,,,,,,,,,,,,,,,,,"['Very unhappy', 'Very happy']",,5c86faba6ec6b80001044908,09:06:01,27/02/2024
html-keyboard-response,183,362937,0.0-76.0,,"<div style=""font-size:100px;"">+</div>",,delaylearn,learning,ITI,aWouyzSSoeT2tKzadVRaQ8pRXf23,aWouyzSSoeT2tKzadVRaQ8pRXf23,,,,,,,,,,,,,,,,,,,1820.0,,,5c86faba6ec6b80001044908,09:06:01,27/02/2024
html-keyboard-response,184,364409,0.0-77.0-0.0,1469.2999999970198,"<div style=""display: flex; flex-direction: column; align-items: center; margin-top: -40px;""><img src=""images/pattern_6.png"" style=""width: 234px; height: 230px; margin-top: -50px;""><div style=""display: flex; justify-content: space-between; margin-top: 33px;""><img src=""images/choice_trial_11.png"" style=""width: 408px; height: 417px; margin-right: 200px;""><img src=""images/choice_trial_5.png"" style=""width: 408px; height: 417px;""></div></div>",j,delaylearn,learning,trial,aWouyzSSoeT2tKzadVRaQ8pRXf23,aWouyzSSoeT2tKzadVRaQ8pRXf23,2.0,images/choice_trial_11.png,images/choice_trial_5.png,images/pattern_6.png,j,f,750.0,11.0,5.0,5.0,0.0,33.0,0.0,1.0,5.0,210.0,,,,,,5c86faba6ec6b80001044908,09:06:01,27/02/2024
html-keyboard-response,185,365422,0.0-77.0-1.0,,"<div style=""display: flex; flex-direction: column; align-items: center; margin-top: -40px;""><img src=""images/pattern_6.png"" style=""width: 234px; height: 230px; margin-top: -50px;""><div style=""display: flex; justify-content: space-between; margin-top: 33px;""><img src=""images/choice_trial_5.png"" style=""width: 408px; height: 417px; margin-left:608px;""></div></div>",,delaylearn,learning,display_response,aWouyzSSoeT2tKzadVRaQ8pRXf23,aWouyzSSoeT2tKzadVRaQ8pRXf23,,,,,,,,,,,,,,,,,chosen stimuli: images/choice_trial_5.png,,,,,5c86faba6ec6b80001044908,09:06:01,27/02/2024
html-keyboard-response,186,366188,0.0-77.0-2.0,,,,delaylearn,learning,feedback_duration_window,aWouyzSSoeT2tKzadVRaQ8pRXf23,aWouyzSSoeT2tKzadVRaQ8pRXf23,,,,,,,,,,,,,,,,,,750.0,,,,5c86faba6ec6b80001044908,09:06:01,27/02/2024
html-keyboard-response,187,367705,0.0-77.0-3.0,,<div style='margin:auto;width: auto; font-size: 150%'><span style='font-weight: bold; font-size: 100px; color: green;'>+10 points!</span><br><br></div>,,delaylearn,learning,feedback_image_window,aWouyzSSoeT2tKzadVRaQ8pRXf23,aWouyzSSoeT2tKzadVRaQ8pRXf23,,,,,,,,,,,,,,,,,,,,,,5c86faba6ec6b80001044908,09:06:01,27/02/2024
html-keyboard-response,188,370129,0.0-78.0,,"<div style=""font-size:100px;"">+</div>",,delaylearn,learning,ITI,aWouyzSSoeT2tKzadVRaQ8pRXf23,aWouyzSSoeT2tKzadVRaQ8pRXf23,,,,,,,,,,,,,,,,,,,2422.0,,,5c86faba6ec6b80001044908,09:06:01,27/02/2024
html-keyboard-response,189,371838,0.0-79.0-0.0,1706.3999999910593,"<div style=""display: flex; flex-direction: column; align-items: center; margin-top: -40px;""><img src=""images/pattern_3.png"" style=""width: 234px; height: 230px; margin-top: -50px;""><div style=""display: flex; justify-content: space-between; margin-top: 33px;""><img src=""images/choice_trial_14.png"" style=""width: 408px; height: 417px; margin-right: 200px;""><img src=""images/choice_trial_12.png"" style=""width: 408px; height: 417px;""></div></div>",j,delaylearn,learning,trial,aWouyzSSoeT2tKzadVRaQ8pRXf23,aWouyzSSoeT2tKzadVRaQ8pRXf23,2.0,images/choice_trial_14.png,images/choice_trial_12.png,images/pattern_3.png,j,j,7000.0,14.0,12.0,2.0,1.0,34.0,1.0,1.0,12.0,220.0,,,,,,5c86faba6ec6b80001044908,09:06:01,27/02/2024
html-keyboard-response,190,372853,0.0-79.0-1.0,,"<div style=""display: flex; flex-direction: column; align-items: center; margin-top: -40px;""><img src=""images/pattern_3.png"" style=""width: 234px; height: 230px; margin-top: -50px;""><div style=""display: flex; justify-content: space-between; margin-top: 33px;""><img src=""images/choice_trial_12.png"" style=""width: 408px; height: 417px; margin-left:608px;""></div></div>",,delaylearn,learning,display_response,aWouyzSSoeT2tKzadVRaQ8pRXf23,aWouyzSSoeT2tKzadVRaQ8pRXf23,,,,,,,,,,,,,,,,,chosen stimuli: images/choice_trial_12.png,,,,,5c86faba6ec6b80001044908,09:06:01,27/02/2024
html-keyboard-response,191,379858,0.0-79.0-2.0,,,,delaylearn,learning,feedback_duration_window,aWouyzSSoeT2tKzadVRaQ8pRXf23,aWouyzSSoeT2tKzadVRaQ8pRXf23,,,,,,,,,,,,,,,,,,7000.0,,,,5c86faba6ec6b80001044908,09:06:01,27/02/2024
html-keyboard-response,192,381367,0.0-79.0-3.0,,<div style='margin:auto;width: auto; font-size: 150%'><span style='font-weight: bold; font-size: 100px; color: green;'>+10 points!</span><br><br></div>,,delaylearn,learning,feedback_image_window,aWouyzSSoeT2tKzadVRaQ8pRXf23,aWouyzSSoeT2tKzadVRaQ8pRXf23,,,,,,,,,,,,,,,,,,,,,,5c86faba6ec6b80001044908,09:06:01,27/02/2024
html-keyboard-response,193,383765,0.0-80.0,,"<div style=""font-size:100px;"">+</div>",,delaylearn,learning,ITI,aWouyzSSoeT2tKzadVRaQ8pRXf23,aWouyzSSoeT2tKzadVRaQ8pRXf23,,,,,,,,,,,,,,,,,,,2393.0,,,5c86faba6ec6b80001044908,09:06:01,27/02/2024
html-keyboard-response,194,384680,0.0-81.0-0.0,913.6000000089407,"<div style=""display: flex; flex-direction: column; align-items: center; margin-top: -40px;""><img src=""images/pattern_4.png"" style=""width: 234px; height: 230px; margin-top: -50px;""><div style=""display: flex; justify-content: space-between; margin-top: 33px;""><img src=""images/choice_trial_16.png"" style=""width: 408px; height: 417px; margin-right: 200px;""><img src=""images/choice_trial_4.png"" style=""width: 408px; height: 417px;""></div></div>",f,delaylearn,learning,trial,aWouyzSSoeT2tKzadVRaQ8pRXf23,aWouyzSSoeT2tKzadVRaQ8pRXf23,2.0,images/choice_trial_16.png,images/choice_trial_4.png,images/pattern_4.png,f,j,7000.0,16.0,4.0,3.0,1.0,35.0,0.0,1.0,16.0,230.0,,,,,,5c86faba6ec6b80001044908,09:06:01,27/02/2024
html-keyboard-response,195,385682,0.0-81.0-1.0,,"<div style=""display: flex; flex-direction: column; align-items: center; margin-top: -40px;""><img src=""images/pattern_4.png"" style=""width: 234px; height: 230px; margin-top: -50px;""><div style=""display: flex; justify-content: space-between; margin-top: 33px;""><img src=""images/choice_trial_16.png"" style=""width: 408px; height: 417px; margin-right: 608px;""></div></div>",,delaylearn,learning,display_response,aWouyzSSoeT2tKzadVRaQ8pRXf23,aWouyzSSoeT2tKzadVRaQ8pRXf23,,,,,,,,,,,,,,,,,chosen stimuli: images/choice_trial_16.png,,,,,5c86faba6ec6b80001044908,09:06:01,27/02/2024
html-keyboard-response,196,392691,0.0-81.0-2.0,,,,delaylearn,learning,feedback_duration_window,aWouyzSSoeT2tKzadVRaQ8pRXf23,aWouyzSSoeT2tKzadVRaQ8pRXf23,,,,,,,,,,,,,,,,,,7000.0,,,,5c86faba6ec6b80001044908,09:06:01,27/02/2024
html-keyboard-response,197,394195,0.0-81.0-3.0,,<div style='margin:auto;width: auto; font-size: 150%'><span style='font-weight: bold; font-size: 100px; color: green;'>+10 points!</span><br><br></div>,,delaylearn,learning,feedback_image_window,aWouyzSSoeT2tKzadVRaQ8pRXf23,aWouyzSSoeT2tKzadVRaQ8pRXf23,,,,,,,,,,,,,,,,,,,,,,5c86faba6ec6b80001044908,09:06:01,27/02/2024
html-keyboard-response,198,395780,0.0-82.0,,"<div style=""font-size:100px;"">+</div>",,delaylearn,learning,ITI,aWouyzSSoeT2tKzadVRaQ8pRXf23,aWouyzSSoeT2tKzadVRaQ8pRXf23,,,,,,,,,,,,,,,,,,,1578.0,,,5c86faba6ec6b80001044908,09:06:01,27/02/2024
html-keyboard-response,199,397088,0.0-83.0-0.0,1305.2000000029802,"<div style=""display: flex; flex-direction: column; align-items: center; margin-top: -40px;""><img src=""images/pattern_7.png"" style=""width: 234px; height: 230px; margin-top: -50px;""><div style=""display: flex; justify-content: space-between; margin-top: 33px;""><img src=""images/choice_trial_8.png"" style=""width: 408px; height: 417px; margin-right: 200px;""><img src=""images/choice_trial_15.png"" style=""width: 408px; height: 417px;""></div></div>",f,delaylearn,learning,trial,aWouyzSSoeT2tKzadVRaQ8pRXf23,aWouyzSSoeT2tKzadVRaQ8pRXf23,2.0,images/choice_trial_8.png,images/choice_trial_15.png,images/pattern_7.png,f,f,750.0,8.0,15.0,6.0,0.0,36.0,1.0,1.0,8.0,240.0,,,,,,5c86faba6ec6b80001044908,09:06:01,27/02/2024
html-keyboard-response,200,398094,0.0-83.0-1.0,,"<div style=""display: flex; flex-direction: column; align-items: center; margin-top: -40px;""><img src=""images/pattern_7.png"" style=""width: 234px; height: 230px; margin-top: -50px;""><div style=""display: flex; justify-content: space-between; margin-top: 33px;""><img src=""images/choice_trial_8.png"" style=""width: 408px; height: 417px; margin-right: 608px;""></div></div>",,delaylearn,learning,display_response,aWouyzSSoeT2tKzadVRaQ8pRXf23,aWouyzSSoeT2tKzadVRaQ8pRXf23,,,,,,,,,,,,,,,,,chosen stimuli: images/choice_trial_8.png,,,,,5c86faba6ec6b80001044908,09:06:01,27/02/2024
html-keyboard-response,201,398858,0.0-83.0-2.0,,,,delaylearn,learning,feedback_duration_window,aWouyzSSoeT2tKzadVRaQ8pRXf23,aWouyzSSoeT2tKzadVRaQ8pRXf23,,,,,,,,,,,,,,,,,,750.0,,,,5c86faba6ec6b80001044908,09:06:01,27/02/2024
html-keyboard-response,202,400360,0.0-83.0-3.0,,<div style='margin:auto;width: auto; font-size: 150%'><span style='font-weight: bold; font-size: 100px; color: green;'>+10 points!</span><br><br></div>,,delaylearn,learning,feedback_image_window,aWouyzSSoeT2tKzadVRaQ8pRXf23,aWouyzSSoeT2tKzadVRaQ8pRXf23,,,,,,,,,,,,,,,,,,,,,,5c86faba6ec6b80001044908,09:06:01,27/02/2024
html-keyboard-response,203,401873,0.0-84.0,,"<div style=""font-size:100px;"">+</div>",,delaylearn,learning,ITI,aWouyzSSoeT2tKzadVRaQ8pRXf23,aWouyzSSoeT2tKzadVRaQ8pRXf23,,,,,,,,,,,,,,,,,,,1501.0,,,5c86faba6ec6b80001044908,09:06:01,27/02/2024
html-keyboard-response,204,403618,0.0-85.0-0.0,1743.1000000089407,"<div style=""display: flex; flex-direction: column; align-items: center; margin-top: -40px;""><img src=""images/pattern_1.png"" style=""width: 234px; height: 230px; margin-top: -50px;""><div style=""display: flex; justify-content: space-between; margin-top: 33px;""><img src=""images/choice_trial_3.png"" style=""width: 408px; height: 417px; margin-right: 200px;""><img src=""images/choice_trial_10.png"" style=""width: 408px; height: 417px;""></div></div>",f,delaylearn,learning,trial,aWouyzSSoeT2tKzadVRaQ8pRXf23,aWouyzSSoeT2tKzadVRaQ8pRXf23,2.0,images/choice_trial_3.png,images/choice_trial_10.png,images/pattern_1.png,f,f,7000.0,3.0,10.0,1.0,0.0,37.0,1.0,1.0,3.0,250.0,,,,,,5c86faba6ec6b80001044908,09:06:01,27/02/2024
html-keyboard-response,205,404624,0.0-85.0-1.0,,"<div style=""display: flex; flex-direction: column; align-items: center; margin-top: -40px;""><img src=""images/pattern_1.png"" style=""width: 234px; height: 230px; margin-top: -50px;""><div style=""display: flex; justify-content: space-between; margin-top: 33px;""><img src=""images/choice_trial_3.png"" style=""width: 408px; height: 417px; margin-right: 608px;""></div></div>",,delaylearn,learning,display_response,aWouyzSSoeT2tKzadVRaQ8pRXf23,aWouyzSSoeT2tKzadVRaQ8pRXf23,,,,,,,,,,,,,,,,,chosen stimuli: images/choice_trial_3.png,,,,,5c86faba6ec6b80001044908,09:06:01,27/02/2024
html-keyboard-response,206,411633,0.0-85.0-2.0,,,,delaylearn,learning,feedback_duration_window,aWouyzSSoeT2tKzadVRaQ8pRXf23,aWouyzSSoeT2tKzadVRaQ8pRXf23,,,,,,,,,,,,,,,,,,7000.0,,,,5c86faba6ec6b80001044908,09:06:01,27/02/2024
html-keyboard-response,207,413138,0.0-85.0-3.0,,<div style='margin:auto;width: auto; font-size: 150%'><span style='font-weight: bold; font-size: 100px; color: green;'>+10 points!</span><br><br></div>,,delaylearn,learning,feedback_image_window,aWouyzSSoeT2tKzadVRaQ8pRXf23,aWouyzSSoeT2tKzadVRaQ8pRXf23,,,,,,,,,,,,,,,,,,,,,,5c86faba6ec6b80001044908,09:06:01,27/02/2024
html-keyboard-response,208,413652,0.0-86.0-0.0,,,,,,mood_trial_fixation,aWouyzSSoeT2tKzadVRaQ8pRXf23,,,,,,,,,,,,,,,,,,,,,,,5c86faba6ec6b80001044908,09:06:01,27/02/2024
lmdlab-html-vas-response,209,416644,0.0-86.0-1.0,1982.0,How happy are you right now?,0.7278830829744668,delaylearn,learning,mood_trial,aWouyzSSoeT2tKzadVRaQ8pRXf23,aWouyzSSoeT2tKzadVRaQ8pRXf23,,,,,,,,,,,,,,,,,,,,"['Very unhappy', 'Very happy']",,5c86faba6ec6b80001044908,09:06:01,27/02/2024
html-keyboard-response,210,418199,0.0-87.0,,"<div style=""font-size:100px;"">+</div>",,delaylearn,learning,ITI,aWouyzSSoeT2tKzadVRaQ8pRXf23,aWouyzSSoeT2tKzadVRaQ8pRXf23,,,,,,,,,,,,,,,,,,,1542.0,,,5c86faba6ec6b80001044908,09:06:01,27/02/2024
html-keyboard-response,211,419859,0.0-88.0-0.0,1658.300000011921,"<div style=""display: flex; flex-direction: column; align-items: center; margin-top: -40px;""><img src=""images/pattern_3.png"" style=""width: 234px; height: 230px; margin-top: -50px;""><div style=""display: flex; justify-content: space-between; margin-top: 33px;""><img src=""images/choice_trial_12.png"" style=""width: 408px; height: 417px; margin-right: 200px;""><img src=""images/choice_trial_14.png"" style=""width: 408px; height: 417px;""></div></div>",f,delaylearn,learning,trial,aWouyzSSoeT2tKzadVRaQ8pRXf23,aWouyzSSoeT2tKzadVRaQ8pRXf23,2.0,images/choice_trial_12.png,images/choice_trial_14.png,images/pattern_3.png,j,f,7000.0,12.0,14.0,2.0,0.0,38.0,1.0,0.0,12.0,250.0,,,,,,5c86faba6ec6b80001044908,09:06:01,27/02/2024
html-keyboard-response,212,420868,0.0-88.0-1.0,,"<div style=""display: flex; flex-direction: column; align-items: center; margin-top: -40px;""><img src=""images/pattern_3.png"" style=""width: 234px; height: 230px; margin-top: -50px;""><div style=""display: flex; justify-content: space-between; margin-top: 33px;""><img src=""images/choice_trial_12.png"" style=""width: 408px; height: 417px; margin-right: 608px;""></div></div>",,delaylearn,learning,display_response,aWouyzSSoeT2tKzadVRaQ8pRXf23,aWouyzSSoeT2tKzadVRaQ8pRXf23,,,,,,,,,,,,,,,,,chosen stimuli: images/choice_trial_12.png,,,,,5c86faba6ec6b80001044908,09:06:01,27/02/2024
html-keyboard-response,213,427882,0.0-88.0-2.0,,,,delaylearn,learning,feedback_duration_window,aWouyzSSoeT2tKzadVRaQ8pRXf23,aWouyzSSoeT2tKzadVRaQ8pRXf23,,,,,,,,,,,,,,,,,,7000.0,,,,5c86faba6ec6b80001044908,09:06:01,27/02/2024
html-keyboard-response,214,429396,0.0-88.0-3.0,,<div style='margin:auto;width: auto; font-size: 150%'><span style='font-weight: bold; font-size: 100px; color: red;'>0 points!</span><br><br></div>,,delaylearn,learning,feedback_image_window,aWouyzSSoeT2tKzadVRaQ8pRXf23,aWouyzSSoeT2tKzadVRaQ8pRXf23,,,,,,,,,,,,,,,,,,,,,,5c86faba6ec6b80001044908,09:06:01,27/02/2024
html-keyboard-response,215,431052,0.0-89.0,,"<div style=""font-size:100px;"">+</div>",,delaylearn,learning,ITI,aWouyzSSoeT2tKzadVRaQ8pRXf23,aWouyzSSoeT2tKzadVRaQ8pRXf23,,,,,,,,,,,,,,,,,,,1650.0,,,5c86faba6ec6b80001044908,09:06:01,27/02/2024
html-keyboard-response,216,432121,0.0-90.0-0.0,1065.0999999940395,"<div style=""display: flex; flex-direction: column; align-items: center; margin-top: -40px;""><img src=""images/pattern_7.png"" style=""width: 234px; height: 230px; margin-top: -50px;""><div style=""display: flex; justify-content: space-between; margin-top: 33px;""><img src=""images/choice_trial_15.png"" style=""width: 408px; height: 417px; margin-right: 200px;""><img src=""images/choice_trial_8.png"" style=""width: 408px; height: 417px;""></div></div>",j,delaylearn,learning,trial,aWouyzSSoeT2tKzadVRaQ8pRXf23,aWouyzSSoeT2tKzadVRaQ8pRXf23,2.0,images/choice_trial_15.png,images/choice_trial_8.png,images/pattern_7.png,j,j,750.0,15.0,8.0,6.0,1.0,39.0,1.0,1.0,8.0,260.0,,,,,,5c86faba6ec6b80001044908,09:06:01,27/02/2024
html-keyboard-response,217,433128,0.0-90.0-1.0,,"<div style=""display: flex; flex-direction: column; align-items: center; margin-top: -40px;""><img src=""images/pattern_7.png"" style=""width: 234px; height: 230px; margin-top: -50px;""><div style=""display: flex; justify-content: space-between; margin-top: 33px;""><img src=""images/choice_trial_8.png"" style=""width: 408px; height: 417px; margin-left:608px;""></div></div>",,delaylearn,learning,display_response,aWouyzSSoeT2tKzadVRaQ8pRXf23,aWouyzSSoeT2tKzadVRaQ8pRXf23,,,,,,,,,,,,,,,,,chosen stimuli: images/choice_trial_8.png,,,,,5c86faba6ec6b80001044908,09:06:01,27/02/2024
html-keyboard-response,218,433894,0.0-90.0-2.0,,,,delaylearn,learning,feedback_duration_window,aWouyzSSoeT2tKzadVRaQ8pRXf23,aWouyzSSoeT2tKzadVRaQ8pRXf23,,,,,,,,,,,,,,,,,,750.0,,,,5c86faba6ec6b80001044908,09:06:01,27/02/2024
html-keyboard-response,219,435410,0.0-90.0-3.0,,<div style='margin:auto;width: auto; font-size: 150%'><span style='font-weight: bold; font-size: 100px; color: green;'>+10 points!</span><br><br></div>,,delaylearn,learning,feedback_image_window,aWouyzSSoeT2tKzadVRaQ8pRXf23,aWouyzSSoeT2tKzadVRaQ8pRXf23,,,,,,,,,,,,,,,,,,,,,,5c86faba6ec6b80001044908,09:06:01,27/02/2024
html-keyboard-response,220,437661,0.0-91.0,,"<div style=""font-size:100px;"">+</div>",,delaylearn,learning,ITI,aWouyzSSoeT2tKzadVRaQ8pRXf23,aWouyzSSoeT2tKzadVRaQ8pRXf23,,,,,,,,,,,,,,,,,,,2239.0,,,5c86faba6ec6b80001044908,09:06:01,27/02/2024
html-keyboard-response,221,438519,0.0-92.0-0.0,856.0999999940395,"<div style=""display: flex; flex-direction: column; align-items: center; margin-top: -40px;""><img src=""images/pattern_5.png"" style=""width: 234px; height: 230px; margin-top: -50px;""><div style=""display: flex; justify-content: space-between; margin-top: 33px;""><img src=""images/choice_trial_9.png"" style=""width: 408px; height: 417px; margin-right: 200px;""><img src=""images/choice_trial_2.png"" style=""width: 408px; height: 417px;""></div></div>",f,delaylearn,learning,trial,aWouyzSSoeT2tKzadVRaQ8pRXf23,aWouyzSSoeT2tKzadVRaQ8pRXf23,2.0,images/choice_trial_9.png,images/choice_trial_2.png,images/pattern_5.png,j,j,750.0,9.0,2.0,4.0,1.0,40.0,0.0,0.0,9.0,260.0,,,,,,5c86faba6ec6b80001044908,09:06:01,27/02/2024
html-keyboard-response,222,439525,0.0-92.0-1.0,,"<div style=""display: flex; flex-direction: column; align-items: center; margin-top: -40px;""><img src=""images/pattern_5.png"" style=""width: 234px; height: 230px; margin-top: -50px;""><div style=""display: flex; justify-content: space-between; margin-top: 33px;""><img src=""images/choice_trial_9.png"" style=""width: 408px; height: 417px; margin-right: 608px;""></div></div>",,delaylearn,learning,display_response,aWouyzSSoeT2tKzadVRaQ8pRXf23,aWouyzSSoeT2tKzadVRaQ8pRXf23,,,,,,,,,,,,,,,,,chosen stimuli: images/choice_trial_9.png,,,,,5c86faba6ec6b80001044908,09:06:01,27/02/2024
html-keyboard-response,223,440291,0.0-92.0-2.0,,,,delaylearn,learning,feedback_duration_window,aWouyzSSoeT2tKzadVRaQ8pRXf23,aWouyzSSoeT2tKzadVRaQ8pRXf23,,,,,,,,,,,,,,,,,,750.0,,,,5c86faba6ec6b80001044908,09:06:01,27/02/2024
html-keyboard-response,224,441808,0.0-92.0-3.0,,<div style='margin:auto;width: auto; font-size: 150%'><span style='font-weight: bold; font-size: 100px; color: red;'>0 points!</span><br><br></div>,,delaylearn,learning,feedback_image_window,aWouyzSSoeT2tKzadVRaQ8pRXf23,aWouyzSSoeT2tKzadVRaQ8pRXf23,,,,,,,,,,,,,,,,,,,,,,5c86faba6ec6b80001044908,09:06:01,27/02/2024
html-keyboard-response,225,442323,0.0-93.0-0.0,,,,,,mood_trial_fixation,aWouyzSSoeT2tKzadVRaQ8pRXf23,,,,,,,,,,,,,,,,,,,,,,,5c86faba6ec6b80001044908,09:06:01,27/02/2024
lmdlab-html-vas-response,226,446250,0.0-93.0-1.0,2903.0,How happy are you right now?,0.3806585059848767,delaylearn,learning,mood_trial,aWouyzSSoeT2tKzadVRaQ8pRXf23,aWouyzSSoeT2tKzadVRaQ8pRXf23,,,,,,,,,,,,,,,,,,,,"['Very unhappy', 'Very happy']",,5c86faba6ec6b80001044908,09:06:01,27/02/2024
html-keyboard-response,227,448668,0.0-94.0,,"<div style=""font-size:100px;"">+</div>",,delaylearn,learning,ITI,aWouyzSSoeT2tKzadVRaQ8pRXf23,aWouyzSSoeT2tKzadVRaQ8pRXf23,,,,,,,,,,,,,,,,,,,2411.0,,,5c86faba6ec6b80001044908,09:06:01,27/02/2024
html-keyboard-response,228,449566,0.0-95.0-0.0,896.2999999970198,"<div style=""display: flex; flex-direction: column; align-items: center; margin-top: -40px;""><img src=""images/pattern_4.png"" style=""width: 234px; height: 230px; margin-top: -50px;""><div style=""display: flex; justify-content: space-between; margin-top: 33px;""><img src=""images/choice_trial_4.png"" style=""width: 408px; height: 417px; margin-right: 200px;""><img src=""images/choice_trial_16.png"" style=""width: 408px; height: 417px;""></div></div>",j,delaylearn,learning,trial,aWouyzSSoeT2tKzadVRaQ8pRXf23,aWouyzSSoeT2tKzadVRaQ8pRXf23,2.0,images/choice_trial_4.png,images/choice_trial_16.png,images/pattern_4.png,f,f,7000.0,4.0,16.0,3.0,0.0,41.0,0.0,0.0,16.0,260.0,,,,,,5c86faba6ec6b80001044908,09:06:01,27/02/2024
html-keyboard-response,229,450583,0.0-95.0-1.0,,"<div style=""display: flex; flex-direction: column; align-items: center; margin-top: -40px;""><img src=""images/pattern_4.png"" style=""width: 234px; height: 230px; margin-top: -50px;""><div style=""display: flex; justify-content: space-between; margin-top: 33px;""><img src=""images/choice_trial_16.png"" style=""width: 408px; height: 417px; margin-left:608px;""></div></div>",,delaylearn,learning,display_response,aWouyzSSoeT2tKzadVRaQ8pRXf23,aWouyzSSoeT2tKzadVRaQ8pRXf23,,,,,,,,,,,,,,,,,chosen stimuli: images/choice_trial_16.png,,,,,5c86faba6ec6b80001044908,09:06:01,27/02/2024
html-keyboard-response,230,457592,0.0-95.0-2.0,,,,delaylearn,learning,feedback_duration_window,aWouyzSSoeT2tKzadVRaQ8pRXf23,aWouyzSSoeT2tKzadVRaQ8pRXf23,,,,,,,,,,,,,,,,,,7000.0,,,,5c86faba6ec6b80001044908,09:06:01,27/02/2024
html-keyboard-response,231,459100,0.0-95.0-3.0,,<div style='margin:auto;width: auto; font-size: 150%'><span style='font-weight: bold; font-size: 100px; color: red;'>0 points!</span><br><br></div>,,delaylearn,learning,feedback_image_window,aWouyzSSoeT2tKzadVRaQ8pRXf23,aWouyzSSoeT2tKzadVRaQ8pRXf23,,,,,,,,,,,,,,,,,,,,,,5c86faba6ec6b80001044908,09:06:01,27/02/2024
html-keyboard-response,232,461413,0.0-96.0,,"<div style=""font-size:100px;"">+</div>",,delaylearn,learning,ITI,aWouyzSSoeT2tKzadVRaQ8pRXf23,aWouyzSSoeT2tKzadVRaQ8pRXf23,,,,,,,,,,,,,,,,,,,2299.0,,,5c86faba6ec6b80001044908,09:06:01,27/02/2024
