trial_type,trial_index,time_elapsed,internal_node_id,rt,stimulus,response,exp_name,exp_stage,test_part,subjectID,databaseID,counterbal,choice_stimuli_1,choice_stimuli_2,pattern_stimuli,rewarded_answer,correct_answer,feedback_duration_times,stim_left,stim_right,pair,leftright_counter,trial,response_correct,response_rewarded,chosen_stim,counter,displayed_choice,feedback_durations,ITI_duration,labels,rest_warning,prolificID,start_time,date
pavlovia,0,595,0.0-0.0,,,,,,,vLQeEK1gXrhebwT2wsdO98lpOuQ2,,,,,,,,,,,,,,,,,,,,,,,5d62e141756469001948081a,16:41:28,27/03/2024
html-keyboard-response,1,3597,0.0-1.0,,"<div style=""font-size:100px;"">+</div>",,delaylearn,learning,pre_fixation,vLQeEK1gXrhebwT2wsdO98lpOuQ2,,,,,,,,,,,,,,,,,,,,,,,5d62e141756469001948081a,16:41:28,27/03/2024
html-keyboard-response,2,4849,0.0-2.0-0.0,1249.0000000000582,"<div style=""display: flex; flex-direction: column; align-items: center; margin-top: -40px;""><img src=""images/demo_images/pattern_1.png"" style=""width: 234px; height: 230px; margin-top: -50px;""><div style=""display: flex; justify-content: space-between; margin-top: 33px;""><img src=""images/demo_images/choice_trial_2.png"" style=""width: 408px; height: 417px; margin-right: 200px;""><img src=""images/demo_images/choice_trial_1.png"" style=""width: 408px; height: 417px;""></div></div>",j,delaylearn,learning,trial,vLQeEK1gXrhebwT2wsdO98lpOuQ2,vLQeEK1gXrhebwT2wsdO98lpOuQ2,3.0,images/demo_images/choice_trial_2.png,images/demo_images/choice_trial_1.png,images/demo_images/pattern_1.png,j,j,3000.0,2.0,1.0,20.0,1.0,1.0,1.0,1.0,1.0,10.0,,,,,,5d62e141756469001948081a,16:41:28,27/03/2024
html-keyboard-response,3,5852,0.0-2.0-1.0,,"<div style=""display: flex; flex-direction: column; align-items: center; margin-top: -40px;""><img src=""images/demo_images/pattern_1.png"" style=""width: 234px; height: 230px; margin-top: -50px;""><div style=""display: flex; justify-content: space-between; margin-top: 33px;""><img src=""images/demo_images/choice_trial_1.png"" style=""width: 408px; height: 417px; margin-left:608px;""></div></div>",,delaylearn,learning,display_response,vLQeEK1gXrhebwT2wsdO98lpOuQ2,vLQeEK1gXrhebwT2wsdO98lpOuQ2,,,,,,,,,,,,,,,,,chosen stimuli: images/demo_images/choice_trial_1.png,,,,,5d62e141756469001948081a,16:41:28,27/03/2024
html-keyboard-response,4,8854,0.0-2.0-2.0,,,,delaylearn,learning,feedback_duration_window,vLQeEK1gXrhebwT2wsdO98lpOuQ2,vLQeEK1gXrhebwT2wsdO98lpOuQ2,,,,,,,,,,,,,,,,,,3000.0,,,,5d62e141756469001948081a,16:41:28,27/03/2024
html-keyboard-response,5,10356,0.0-2.0-3.0,,<div style='margin:auto;width: auto; font-size: 150%'><span style='font-weight: bold; font-size: 100px; color: green;'>+10 points!</span><br><br></div>,,delaylearn,learning,feedback_image_window,vLQeEK1gXrhebwT2wsdO98lpOuQ2,vLQeEK1gXrhebwT2wsdO98lpOuQ2,,,,,,,,,,,,,,,,,,,,,,5d62e141756469001948081a,16:41:28,27/03/2024
html-keyboard-response,6,12592,0.0-3.0,,"<div style=""font-size:100px;"">+</div>",,delaylearn,learning,ITI,vLQeEK1gXrhebwT2wsdO98lpOuQ2,vLQeEK1gXrhebwT2wsdO98lpOuQ2,,,,,,,,,,,,,,,,,,,2235.0,,,5d62e141756469001948081a,16:41:28,27/03/2024
html-keyboard-response,7,13431,0.0-4.0-0.0,836.0,"<div style=""display: flex; flex-direction: column; align-items: center; margin-top: -40px;""><img src=""images/demo_images/pattern_1.png"" style=""width: 234px; height: 230px; margin-top: -50px;""><div style=""display: flex; justify-content: space-between; margin-top: 33px;""><img src=""images/demo_images/choice_trial_2.png"" style=""width: 408px; height: 417px; margin-right: 200px;""><img src=""images/demo_images/choice_trial_1.png"" style=""width: 408px; height: 417px;""></div></div>",j,delaylearn,learning,trial,vLQeEK1gXrhebwT2wsdO98lpOuQ2,vLQeEK1gXrhebwT2wsdO98lpOuQ2,3.0,images/demo_images/choice_trial_2.png,images/demo_images/choice_trial_1.png,images/demo_images/pattern_1.png,j,j,3000.0,2.0,1.0,20.0,1.0,2.0,1.0,1.0,1.0,20.0,,,,,,5d62e141756469001948081a,16:41:28,27/03/2024
html-keyboard-response,8,14433,0.0-4.0-1.0,,"<div style=""display: flex; flex-direction: column; align-items: center; margin-top: -40px;""><img src=""images/demo_images/pattern_1.png"" style=""width: 234px; height: 230px; margin-top: -50px;""><div style=""display: flex; justify-content: space-between; margin-top: 33px;""><img src=""images/demo_images/choice_trial_1.png"" style=""width: 408px; height: 417px; margin-left:608px;""></div></div>",,delaylearn,learning,display_response,vLQeEK1gXrhebwT2wsdO98lpOuQ2,vLQeEK1gXrhebwT2wsdO98lpOuQ2,,,,,,,,,,,,,,,,,chosen stimuli: images/demo_images/choice_trial_1.png,,,,,5d62e141756469001948081a,16:41:28,27/03/2024
html-keyboard-response,9,17435,0.0-4.0-2.0,,,,delaylearn,learning,feedback_duration_window,vLQeEK1gXrhebwT2wsdO98lpOuQ2,vLQeEK1gXrhebwT2wsdO98lpOuQ2,,,,,,,,,,,,,,,,,,3000.0,,,,5d62e141756469001948081a,16:41:28,27/03/2024
html-keyboard-response,10,18937,0.0-4.0-3.0,,<div style='margin:auto;width: auto; font-size: 150%'><span style='font-weight: bold; font-size: 100px; color: green;'>+10 points!</span><br><br></div>,,delaylearn,learning,feedback_image_window,vLQeEK1gXrhebwT2wsdO98lpOuQ2,vLQeEK1gXrhebwT2wsdO98lpOuQ2,,,,,,,,,,,,,,,,,,,,,,5d62e141756469001948081a,16:41:28,27/03/2024
html-keyboard-response,11,20858,0.0-5.0,,"<div style=""font-size:100px;"">+</div>",,delaylearn,learning,ITI,vLQeEK1gXrhebwT2wsdO98lpOuQ2,vLQeEK1gXrhebwT2wsdO98lpOuQ2,,,,,,,,,,,,,,,,,,,1918.0,,,5d62e141756469001948081a,16:41:28,27/03/2024
html-keyboard-response,12,21745,0.0-6.0-0.0,885.0,"<div style=""display: flex; flex-direction: column; align-items: center; margin-top: -40px;""><img src=""images/demo_images/pattern_1.png"" style=""width: 234px; height: 230px; margin-top: -50px;""><div style=""display: flex; justify-content: space-between; margin-top: 33px;""><img src=""images/demo_images/choice_trial_1.png"" style=""width: 408px; height: 417px; margin-right: 200px;""><img src=""images/demo_images/choice_trial_2.png"" style=""width: 408px; height: 417px;""></div></div>",f,delaylearn,learning,trial,vLQeEK1gXrhebwT2wsdO98lpOuQ2,vLQeEK1gXrhebwT2wsdO98lpOuQ2,3.0,images/demo_images/choice_trial_1.png,images/demo_images/choice_trial_2.png,images/demo_images/pattern_1.png,j,f,3000.0,1.0,2.0,20.0,0.0,3.0,1.0,0.0,1.0,20.0,,,,,,5d62e141756469001948081a,16:41:28,27/03/2024
html-keyboard-response,13,22752,0.0-6.0-1.0,,"<div style=""display: flex; flex-direction: column; align-items: center; margin-top: -40px;""><img src=""images/demo_images/pattern_1.png"" style=""width: 234px; height: 230px; margin-top: -50px;""><div style=""display: flex; justify-content: space-between; margin-top: 33px;""><img src=""images/demo_images/choice_trial_1.png"" style=""width: 408px; height: 417px; margin-right: 608px;""></div></div>",,delaylearn,learning,display_response,vLQeEK1gXrhebwT2wsdO98lpOuQ2,vLQeEK1gXrhebwT2wsdO98lpOuQ2,,,,,,,,,,,,,,,,,chosen stimuli: images/demo_images/choice_trial_1.png,,,,,5d62e141756469001948081a,16:41:28,27/03/2024
html-keyboard-response,14,25754,0.0-6.0-2.0,,,,delaylearn,learning,feedback_duration_window,vLQeEK1gXrhebwT2wsdO98lpOuQ2,vLQeEK1gXrhebwT2wsdO98lpOuQ2,,,,,,,,,,,,,,,,,,3000.0,,,,5d62e141756469001948081a,16:41:28,27/03/2024
html-keyboard-response,15,27257,0.0-6.0-3.0,,<div style='margin:auto;width: auto; font-size: 150%'><span style='font-weight: bold; font-size: 100px; color: red;'>0 points!</span><br><br></div>,,delaylearn,learning,feedback_image_window,vLQeEK1gXrhebwT2wsdO98lpOuQ2,vLQeEK1gXrhebwT2wsdO98lpOuQ2,,,,,,,,,,,,,,,,,,,,,,5d62e141756469001948081a,16:41:28,27/03/2024
html-keyboard-response,16,29311,0.0-7.0,,"<div style=""font-size:100px;"">+</div>",,delaylearn,learning,ITI,vLQeEK1gXrhebwT2wsdO98lpOuQ2,vLQeEK1gXrhebwT2wsdO98lpOuQ2,,,,,,,,,,,,,,,,,,,2052.0,,,5d62e141756469001948081a,16:41:28,27/03/2024
html-keyboard-response,17,30063,0.0-8.0-0.0,749.0000000000582,"<div style=""display: flex; flex-direction: column; align-items: center; margin-top: -40px;""><img src=""images/demo_images/pattern_1.png"" style=""width: 234px; height: 230px; margin-top: -50px;""><div style=""display: flex; justify-content: space-between; margin-top: 33px;""><img src=""images/demo_images/choice_trial_1.png"" style=""width: 408px; height: 417px; margin-right: 200px;""><img src=""images/demo_images/choice_trial_2.png"" style=""width: 408px; height: 417px;""></div></div>",j,delaylearn,learning,trial,vLQeEK1gXrhebwT2wsdO98lpOuQ2,vLQeEK1gXrhebwT2wsdO98lpOuQ2,3.0,images/demo_images/choice_trial_1.png,images/demo_images/choice_trial_2.png,images/demo_images/pattern_1.png,f,f,3000.0,1.0,2.0,20.0,0.0,4.0,0.0,0.0,2.0,20.0,,,,,,5d62e141756469001948081a,16:41:28,27/03/2024
html-keyboard-response,18,31065,0.0-8.0-1.0,,"<div style=""display: flex; flex-direction: column; align-items: center; margin-top: -40px;""><img src=""images/demo_images/pattern_1.png"" style=""width: 234px; height: 230px; margin-top: -50px;""><div style=""display: flex; justify-content: space-between; margin-top: 33px;""><img src=""images/demo_images/choice_trial_2.png"" style=""width: 408px; height: 417px; margin-left:608px;""></div></div>",,delaylearn,learning,display_response,vLQeEK1gXrhebwT2wsdO98lpOuQ2,vLQeEK1gXrhebwT2wsdO98lpOuQ2,,,,,,,,,,,,,,,,,chosen stimuli: images/demo_images/choice_trial_2.png,,,,,5d62e141756469001948081a,16:41:28,27/03/2024
html-keyboard-response,19,34067,0.0-8.0-2.0,,,,delaylearn,learning,feedback_duration_window,vLQeEK1gXrhebwT2wsdO98lpOuQ2,vLQeEK1gXrhebwT2wsdO98lpOuQ2,,,,,,,,,,,,,,,,,,3000.0,,,,5d62e141756469001948081a,16:41:28,27/03/2024
html-keyboard-response,20,35570,0.0-8.0-3.0,,<div style='margin:auto;width: auto; font-size: 150%'><span style='font-weight: bold; font-size: 100px; color: red;'>0 points!</span><br><br></div>,,delaylearn,learning,feedback_image_window,vLQeEK1gXrhebwT2wsdO98lpOuQ2,vLQeEK1gXrhebwT2wsdO98lpOuQ2,,,,,,,,,,,,,,,,,,,,,,5d62e141756469001948081a,16:41:28,27/03/2024
html-keyboard-response,21,36071,0.0-9.0-0.0,,,,,,mood_trial_fixation,vLQeEK1gXrhebwT2wsdO98lpOuQ2,,,,,,,,,,,,,,,,,,,,,,,5d62e141756469001948081a,16:41:28,27/03/2024
lmdlab-html-vas-response,22,40602,0.0-9.0-1.0,3523.0,How happy are you right now?,0.42777777777777776,delaylearn,learning,mood_trial,vLQeEK1gXrhebwT2wsdO98lpOuQ2,vLQeEK1gXrhebwT2wsdO98lpOuQ2,,,,,,,,,,,,,,,,,,,,"['Very unhappy', 'Very happy']",,5d62e141756469001948081a,16:41:28,27/03/2024
html-keyboard-response,23,42586,0.0-10.0,,"<div style=""font-size:100px;"">+</div>",,delaylearn,learning,ITI,vLQeEK1gXrhebwT2wsdO98lpOuQ2,vLQeEK1gXrhebwT2wsdO98lpOuQ2,,,,,,,,,,,,,,,,,,,1982.0,,,5d62e141756469001948081a,16:41:28,27/03/2024
html-keyboard-response,24,44148,0.0-11.0-0.0,1560.0,"<div style=""display: flex; flex-direction: column; align-items: center; margin-top: -40px;""><img src=""images/demo_images/pattern_1.png"" style=""width: 234px; height: 230px; margin-top: -50px;""><div style=""display: flex; justify-content: space-between; margin-top: 33px;""><img src=""images/demo_images/choice_trial_2.png"" style=""width: 408px; height: 417px; margin-right: 200px;""><img src=""images/demo_images/choice_trial_1.png"" style=""width: 408px; height: 417px;""></div></div>",j,delaylearn,learning,trial,vLQeEK1gXrhebwT2wsdO98lpOuQ2,vLQeEK1gXrhebwT2wsdO98lpOuQ2,3.0,images/demo_images/choice_trial_2.png,images/demo_images/choice_trial_1.png,images/demo_images/pattern_1.png,j,j,3000.0,2.0,1.0,20.0,1.0,5.0,1.0,1.0,1.0,30.0,,,,,,5d62e141756469001948081a,16:41:28,27/03/2024
html-keyboard-response,25,45150,0.0-11.0-1.0,,"<div style=""display: flex; flex-direction: column; align-items: center; margin-top: -40px;""><img src=""images/demo_images/pattern_1.png"" style=""width: 234px; height: 230px; margin-top: -50px;""><div style=""display: flex; justify-content: space-between; margin-top: 33px;""><img src=""images/demo_images/choice_trial_1.png"" style=""width: 408px; height: 417px; margin-left:608px;""></div></div>",,delaylearn,learning,display_response,vLQeEK1gXrhebwT2wsdO98lpOuQ2,vLQeEK1gXrhebwT2wsdO98lpOuQ2,,,,,,,,,,,,,,,,,chosen stimuli: images/demo_images/choice_trial_1.png,,,,,5d62e141756469001948081a,16:41:28,27/03/2024
html-keyboard-response,26,48151,0.0-11.0-2.0,,,,delaylearn,learning,feedback_duration_window,vLQeEK1gXrhebwT2wsdO98lpOuQ2,vLQeEK1gXrhebwT2wsdO98lpOuQ2,,,,,,,,,,,,,,,,,,3000.0,,,,5d62e141756469001948081a,16:41:28,27/03/2024
html-keyboard-response,27,49653,0.0-11.0-3.0,,<div style='margin:auto;width: auto; font-size: 150%'><span style='font-weight: bold; font-size: 100px; color: green;'>+10 points!</span><br><br></div>,,delaylearn,learning,feedback_image_window,vLQeEK1gXrhebwT2wsdO98lpOuQ2,vLQeEK1gXrhebwT2wsdO98lpOuQ2,,,,,,,,,,,,,,,,,,,,,,5d62e141756469001948081a,16:41:28,27/03/2024
html-keyboard-response,28,52011,0.0-12.0,,"<div style=""font-size:100px;"">+</div>",,delaylearn,learning,ITI,vLQeEK1gXrhebwT2wsdO98lpOuQ2,vLQeEK1gXrhebwT2wsdO98lpOuQ2,,,,,,,,,,,,,,,,,,,2356.0,,,5d62e141756469001948081a,16:41:28,27/03/2024
html-keyboard-response,29,52830,0.0-13.0-0.0,815.0,"<div style=""display: flex; flex-direction: column; align-items: center; margin-top: -40px;""><img src=""images/demo_images/pattern_1.png"" style=""width: 234px; height: 230px; margin-top: -50px;""><div style=""display: flex; justify-content: space-between; margin-top: 33px;""><img src=""images/demo_images/choice_trial_1.png"" style=""width: 408px; height: 417px; margin-right: 200px;""><img src=""images/demo_images/choice_trial_2.png"" style=""width: 408px; height: 417px;""></div></div>",f,delaylearn,learning,trial,vLQeEK1gXrhebwT2wsdO98lpOuQ2,vLQeEK1gXrhebwT2wsdO98lpOuQ2,3.0,images/demo_images/choice_trial_1.png,images/demo_images/choice_trial_2.png,images/demo_images/pattern_1.png,f,f,3000.0,1.0,2.0,20.0,0.0,6.0,1.0,1.0,1.0,40.0,,,,,,5d62e141756469001948081a,16:41:28,27/03/2024
html-keyboard-response,30,53832,0.0-13.0-1.0,,"<div style=""display: flex; flex-direction: column; align-items: center; margin-top: -40px;""><img src=""images/demo_images/pattern_1.png"" style=""width: 234px; height: 230px; margin-top: -50px;""><div style=""display: flex; justify-content: space-between; margin-top: 33px;""><img src=""images/demo_images/choice_trial_1.png"" style=""width: 408px; height: 417px; margin-right: 608px;""></div></div>",,delaylearn,learning,display_response,vLQeEK1gXrhebwT2wsdO98lpOuQ2,vLQeEK1gXrhebwT2wsdO98lpOuQ2,,,,,,,,,,,,,,,,,chosen stimuli: images/demo_images/choice_trial_1.png,,,,,5d62e141756469001948081a,16:41:28,27/03/2024
html-keyboard-response,31,56835,0.0-13.0-2.0,,,,delaylearn,learning,feedback_duration_window,vLQeEK1gXrhebwT2wsdO98lpOuQ2,vLQeEK1gXrhebwT2wsdO98lpOuQ2,,,,,,,,,,,,,,,,,,3000.0,,,,5d62e141756469001948081a,16:41:28,27/03/2024
html-keyboard-response,32,58337,0.0-13.0-3.0,,<div style='margin:auto;width: auto; font-size: 150%'><span style='font-weight: bold; font-size: 100px; color: green;'>+10 points!</span><br><br></div>,,delaylearn,learning,feedback_image_window,vLQeEK1gXrhebwT2wsdO98lpOuQ2,vLQeEK1gXrhebwT2wsdO98lpOuQ2,,,,,,,,,,,,,,,,,,,,,,5d62e141756469001948081a,16:41:28,27/03/2024
html-keyboard-response,33,60796,0.0-14.0,,"<div style=""font-size:100px;"">+</div>",,delaylearn,learning,ITI,vLQeEK1gXrhebwT2wsdO98lpOuQ2,vLQeEK1gXrhebwT2wsdO98lpOuQ2,,,,,,,,,,,,,,,,,,,2457.0,,,5d62e141756469001948081a,16:41:28,27/03/2024
html-keyboard-response,34,61802,0.0-15.0-0.0,1004.0000000000582,"<div style=""display: flex; flex-direction: column; align-items: center; margin-top: -40px;""><img src=""images/demo_images/pattern_1.png"" style=""width: 234px; height: 230px; margin-top: -50px;""><div style=""display: flex; justify-content: space-between; margin-top: 33px;""><img src=""images/demo_images/choice_trial_2.png"" style=""width: 408px; height: 417px; margin-right: 200px;""><img src=""images/demo_images/choice_trial_1.png"" style=""width: 408px; height: 417px;""></div></div>",j,delaylearn,learning,trial,vLQeEK1gXrhebwT2wsdO98lpOuQ2,vLQeEK1gXrhebwT2wsdO98lpOuQ2,3.0,images/demo_images/choice_trial_2.png,images/demo_images/choice_trial_1.png,images/demo_images/pattern_1.png,j,j,3000.0,2.0,1.0,20.0,1.0,7.0,1.0,1.0,1.0,50.0,,,,,,5d62e141756469001948081a,16:41:28,27/03/2024
html-keyboard-response,35,62804,0.0-15.0-1.0,,"<div style=""display: flex; flex-direction: column; align-items: center; margin-top: -40px;""><img src=""images/demo_images/pattern_1.png"" style=""width: 234px; height: 230px; margin-top: -50px;""><div style=""display: flex; justify-content: space-between; margin-top: 33px;""><img src=""images/demo_images/choice_trial_1.png"" style=""width: 408px; height: 417px; margin-left:608px;""></div></div>",,delaylearn,learning,display_response,vLQeEK1gXrhebwT2wsdO98lpOuQ2,vLQeEK1gXrhebwT2wsdO98lpOuQ2,,,,,,,,,,,,,,,,,chosen stimuli: images/demo_images/choice_trial_1.png,,,,,5d62e141756469001948081a,16:41:28,27/03/2024
html-keyboard-response,36,65806,0.0-15.0-2.0,,,,delaylearn,learning,feedback_duration_window,vLQeEK1gXrhebwT2wsdO98lpOuQ2,vLQeEK1gXrhebwT2wsdO98lpOuQ2,,,,,,,,,,,,,,,,,,3000.0,,,,5d62e141756469001948081a,16:41:28,27/03/2024
html-keyboard-response,37,67308,0.0-15.0-3.0,,<div style='margin:auto;width: auto; font-size: 150%'><span style='font-weight: bold; font-size: 100px; color: green;'>+10 points!</span><br><br></div>,,delaylearn,learning,feedback_image_window,vLQeEK1gXrhebwT2wsdO98lpOuQ2,vLQeEK1gXrhebwT2wsdO98lpOuQ2,,,,,,,,,,,,,,,,,,,,,,5d62e141756469001948081a,16:41:28,27/03/2024
html-keyboard-response,38,68995,0.0-16.0,,"<div style=""font-size:100px;"">+</div>",,delaylearn,learning,ITI,vLQeEK1gXrhebwT2wsdO98lpOuQ2,vLQeEK1gXrhebwT2wsdO98lpOuQ2,,,,,,,,,,,,,,,,,,,1685.0,,,5d62e141756469001948081a,16:41:28,27/03/2024
html-keyboard-response,39,70240,0.0-17.0-0.0,1242.0,"<div style=""display: flex; flex-direction: column; align-items: center; margin-top: -40px;""><img src=""images/demo_images/pattern_1.png"" style=""width: 234px; height: 230px; margin-top: -50px;""><div style=""display: flex; justify-content: space-between; margin-top: 33px;""><img src=""images/demo_images/choice_trial_1.png"" style=""width: 408px; height: 417px; margin-right: 200px;""><img src=""images/demo_images/choice_trial_2.png"" style=""width: 408px; height: 417px;""></div></div>",f,delaylearn,learning,trial,vLQeEK1gXrhebwT2wsdO98lpOuQ2,vLQeEK1gXrhebwT2wsdO98lpOuQ2,3.0,images/demo_images/choice_trial_1.png,images/demo_images/choice_trial_2.png,images/demo_images/pattern_1.png,f,f,3000.0,1.0,2.0,20.0,0.0,8.0,1.0,1.0,1.0,60.0,,,,,,5d62e141756469001948081a,16:41:28,27/03/2024
html-keyboard-response,40,71242,0.0-17.0-1.0,,"<div style=""display: flex; flex-direction: column; align-items: center; margin-top: -40px;""><img src=""images/demo_images/pattern_1.png"" style=""width: 234px; height: 230px; margin-top: -50px;""><div style=""display: flex; justify-content: space-between; margin-top: 33px;""><img src=""images/demo_images/choice_trial_1.png"" style=""width: 408px; height: 417px; margin-right: 608px;""></div></div>",,delaylearn,learning,display_response,vLQeEK1gXrhebwT2wsdO98lpOuQ2,vLQeEK1gXrhebwT2wsdO98lpOuQ2,,,,,,,,,,,,,,,,,chosen stimuli: images/demo_images/choice_trial_1.png,,,,,5d62e141756469001948081a,16:41:28,27/03/2024
html-keyboard-response,41,74243,0.0-17.0-2.0,,,,delaylearn,learning,feedback_duration_window,vLQeEK1gXrhebwT2wsdO98lpOuQ2,vLQeEK1gXrhebwT2wsdO98lpOuQ2,,,,,,,,,,,,,,,,,,3000.0,,,,5d62e141756469001948081a,16:41:28,27/03/2024
html-keyboard-response,42,75745,0.0-17.0-3.0,,<div style='margin:auto;width: auto; font-size: 150%'><span style='font-weight: bold; font-size: 100px; color: green;'>+10 points!</span><br><br></div>,,delaylearn,learning,feedback_image_window,vLQeEK1gXrhebwT2wsdO98lpOuQ2,vLQeEK1gXrhebwT2wsdO98lpOuQ2,,,,,,,,,,,,,,,,,,,,,,5d62e141756469001948081a,16:41:28,27/03/2024
html-button-response,43,96030,0.0-18.0,20282.0,"
  <div style=""display: flex; align-items: center; justify-content: center; height: 80vh;"">
  <div>
          <img src=""images/inst_demo_finish.png"" style=""width: 80vw; height:auto;"">
          <br><br>
      </div>
      <br><br>
  </div>",0,,,,vLQeEK1gXrhebwT2wsdO98lpOuQ2,,,,,,,,,,,,,,,,,,,,,,,5d62e141756469001948081a,16:41:28,27/03/2024
html-keyboard-response,44,99483,0.0-19.0,3451.0,"
  <div style=""display: flex; align-items: center; justify-content: center; height: 80vh;"">
  <div>
          <img src=""images/inst_6.png"" style=""width: 80vw; height:auto;"">
          <br><br>
      </div>
      <br><br>
  </div>",f,,,,vLQeEK1gXrhebwT2wsdO98lpOuQ2,,,,,,,,,,,,,,,,,,,,,,,5d62e141756469001948081a,16:41:28,27/03/2024
html-keyboard-response,45,102485,0.0-20.0,,"<div style=""font-size:100px;"">+</div>",,delaylearn,learning,pre_fixation,vLQeEK1gXrhebwT2wsdO98lpOuQ2,,,,,,,,,,,,,,,,,,,,,,,5d62e141756469001948081a,16:41:28,27/03/2024
html-keyboard-response,46,104114,0.0-21.0,,"<div style=""font-size:100px;"">+</div>",,delaylearn,learning,ITI,vLQeEK1gXrhebwT2wsdO98lpOuQ2,vLQeEK1gXrhebwT2wsdO98lpOuQ2,,,,,,,,,,,,,,,,,,,1626.0,,,5d62e141756469001948081a,16:41:28,27/03/2024
html-keyboard-response,47,105209,0.0-22.0-0.0,1093.0000000000582,"<div style=""display: flex; flex-direction: column; align-items: center; margin-top: -40px;""><img src=""images/pattern_3.png"" style=""width: 234px; height: 230px; margin-top: -50px;""><div style=""display: flex; justify-content: space-between; margin-top: 33px;""><img src=""images/choice_trial_13.png"" style=""width: 408px; height: 417px; margin-right: 200px;""><img src=""images/choice_trial_10.png"" style=""width: 408px; height: 417px;""></div></div>",f,delaylearn,learning,trial,vLQeEK1gXrhebwT2wsdO98lpOuQ2,vLQeEK1gXrhebwT2wsdO98lpOuQ2,3.0,images/choice_trial_13.png,images/choice_trial_10.png,images/pattern_3.png,f,f,7000.0,13.0,10.0,2.0,0.0,9.0,1.0,1.0,13.0,70.0,,,,,,5d62e141756469001948081a,16:41:28,27/03/2024
html-keyboard-response,48,106212,0.0-22.0-1.0,,"<div style=""display: flex; flex-direction: column; align-items: center; margin-top: -40px;""><img src=""images/pattern_3.png"" style=""width: 234px; height: 230px; margin-top: -50px;""><div style=""display: flex; justify-content: space-between; margin-top: 33px;""><img src=""images/choice_trial_13.png"" style=""width: 408px; height: 417px; margin-right: 608px;""></div></div>",,delaylearn,learning,display_response,vLQeEK1gXrhebwT2wsdO98lpOuQ2,vLQeEK1gXrhebwT2wsdO98lpOuQ2,,,,,,,,,,,,,,,,,chosen stimuli: images/choice_trial_13.png,,,,,5d62e141756469001948081a,16:41:28,27/03/2024
html-keyboard-response,49,113214,0.0-22.0-2.0,,,,delaylearn,learning,feedback_duration_window,vLQeEK1gXrhebwT2wsdO98lpOuQ2,vLQeEK1gXrhebwT2wsdO98lpOuQ2,,,,,,,,,,,,,,,,,,7000.0,,,,5d62e141756469001948081a,16:41:28,27/03/2024
html-keyboard-response,50,114715,0.0-22.0-3.0,,<div style='margin:auto;width: auto; font-size: 150%'><span style='font-weight: bold; font-size: 100px; color: green;'>+10 points!</span><br><br></div>,,delaylearn,learning,feedback_image_window,vLQeEK1gXrhebwT2wsdO98lpOuQ2,vLQeEK1gXrhebwT2wsdO98lpOuQ2,,,,,,,,,,,,,,,,,,,,,,5d62e141756469001948081a,16:41:28,27/03/2024
html-keyboard-response,51,116858,0.0-23.0,,"<div style=""font-size:100px;"">+</div>",,delaylearn,learning,ITI,vLQeEK1gXrhebwT2wsdO98lpOuQ2,vLQeEK1gXrhebwT2wsdO98lpOuQ2,,,,,,,,,,,,,,,,,,,2142.0,,,5d62e141756469001948081a,16:41:28,27/03/2024
html-keyboard-response,52,118534,0.0-24.0-0.0,1674.0,"<div style=""display: flex; flex-direction: column; align-items: center; margin-top: -40px;""><img src=""images/pattern_7.png"" style=""width: 234px; height: 230px; margin-top: -50px;""><div style=""display: flex; justify-content: space-between; margin-top: 33px;""><img src=""images/choice_trial_12.png"" style=""width: 408px; height: 417px; margin-right: 200px;""><img src=""images/choice_trial_6.png"" style=""width: 408px; height: 417px;""></div></div>",j,delaylearn,learning,trial,vLQeEK1gXrhebwT2wsdO98lpOuQ2,vLQeEK1gXrhebwT2wsdO98lpOuQ2,3.0,images/choice_trial_12.png,images/choice_trial_6.png,images/pattern_7.png,j,j,750.0,12.0,6.0,6.0,1.0,10.0,1.0,1.0,6.0,80.0,,,,,,5d62e141756469001948081a,16:41:28,27/03/2024
html-keyboard-response,53,119539,0.0-24.0-1.0,,"<div style=""display: flex; flex-direction: column; align-items: center; margin-top: -40px;""><img src=""images/pattern_7.png"" style=""width: 234px; height: 230px; margin-top: -50px;""><div style=""display: flex; justify-content: space-between; margin-top: 33px;""><img src=""images/choice_trial_6.png"" style=""width: 408px; height: 417px; margin-left:608px;""></div></div>",,delaylearn,learning,display_response,vLQeEK1gXrhebwT2wsdO98lpOuQ2,vLQeEK1gXrhebwT2wsdO98lpOuQ2,,,,,,,,,,,,,,,,,chosen stimuli: images/choice_trial_6.png,,,,,5d62e141756469001948081a,16:41:28,27/03/2024
html-keyboard-response,54,120291,0.0-24.0-2.0,,,,delaylearn,learning,feedback_duration_window,vLQeEK1gXrhebwT2wsdO98lpOuQ2,vLQeEK1gXrhebwT2wsdO98lpOuQ2,,,,,,,,,,,,,,,,,,750.0,,,,5d62e141756469001948081a,16:41:28,27/03/2024
html-keyboard-response,55,121793,0.0-24.0-3.0,,<div style='margin:auto;width: auto; font-size: 150%'><span style='font-weight: bold; font-size: 100px; color: green;'>+10 points!</span><br><br></div>,,delaylearn,learning,feedback_image_window,vLQeEK1gXrhebwT2wsdO98lpOuQ2,vLQeEK1gXrhebwT2wsdO98lpOuQ2,,,,,,,,,,,,,,,,,,,,,,5d62e141756469001948081a,16:41:28,27/03/2024
html-keyboard-response,56,123490,0.0-25.0,,"<div style=""font-size:100px;"">+</div>",,delaylearn,learning,ITI,vLQeEK1gXrhebwT2wsdO98lpOuQ2,vLQeEK1gXrhebwT2wsdO98lpOuQ2,,,,,,,,,,,,,,,,,,,1694.0,,,5d62e141756469001948081a,16:41:28,27/03/2024
html-keyboard-response,57,125083,0.0-26.0-0.0,1588.0,"<div style=""display: flex; flex-direction: column; align-items: center; margin-top: -40px;""><img src=""images/pattern_4.png"" style=""width: 234px; height: 230px; margin-top: -50px;""><div style=""display: flex; justify-content: space-between; margin-top: 33px;""><img src=""images/choice_trial_15.png"" style=""width: 408px; height: 417px; margin-right: 200px;""><img src=""images/choice_trial_9.png"" style=""width: 408px; height: 417px;""></div></div>",f,delaylearn,learning,trial,vLQeEK1gXrhebwT2wsdO98lpOuQ2,vLQeEK1gXrhebwT2wsdO98lpOuQ2,3.0,images/choice_trial_15.png,images/choice_trial_9.png,images/pattern_4.png,f,f,7000.0,15.0,9.0,3.0,0.0,11.0,1.0,1.0,15.0,90.0,,,,,,5d62e141756469001948081a,16:41:28,27/03/2024
html-keyboard-response,58,126086,0.0-26.0-1.0,,"<div style=""display: flex; flex-direction: column; align-items: center; margin-top: -40px;""><img src=""images/pattern_4.png"" style=""width: 234px; height: 230px; margin-top: -50px;""><div style=""display: flex; justify-content: space-between; margin-top: 33px;""><img src=""images/choice_trial_15.png"" style=""width: 408px; height: 417px; margin-right: 608px;""></div></div>",,delaylearn,learning,display_response,vLQeEK1gXrhebwT2wsdO98lpOuQ2,vLQeEK1gXrhebwT2wsdO98lpOuQ2,,,,,,,,,,,,,,,,,chosen stimuli: images/choice_trial_15.png,,,,,5d62e141756469001948081a,16:41:28,27/03/2024
html-keyboard-response,59,133088,0.0-26.0-2.0,,,,delaylearn,learning,feedback_duration_window,vLQeEK1gXrhebwT2wsdO98lpOuQ2,vLQeEK1gXrhebwT2wsdO98lpOuQ2,,,,,,,,,,,,,,,,,,7000.0,,,,5d62e141756469001948081a,16:41:28,27/03/2024
html-keyboard-response,60,134590,0.0-26.0-3.0,,<div style='margin:auto;width: auto; font-size: 150%'><span style='font-weight: bold; font-size: 100px; color: green;'>+10 points!</span><br><br></div>,,delaylearn,learning,feedback_image_window,vLQeEK1gXrhebwT2wsdO98lpOuQ2,vLQeEK1gXrhebwT2wsdO98lpOuQ2,,,,,,,,,,,,,,,,,,,,,,5d62e141756469001948081a,16:41:28,27/03/2024
html-keyboard-response,61,136667,0.0-27.0,,"<div style=""font-size:100px;"">+</div>",,delaylearn,learning,ITI,vLQeEK1gXrhebwT2wsdO98lpOuQ2,vLQeEK1gXrhebwT2wsdO98lpOuQ2,,,,,,,,,,,,,,,,,,,2075.0,,,5d62e141756469001948081a,16:41:28,27/03/2024
html-keyboard-response,62,138455,0.0-28.0-0.0,1785.0,"<div style=""display: flex; flex-direction: column; align-items: center; margin-top: -40px;""><img src=""images/pattern_5.png"" style=""width: 234px; height: 230px; margin-top: -50px;""><div style=""display: flex; justify-content: space-between; margin-top: 33px;""><img src=""images/choice_trial_2.png"" style=""width: 408px; height: 417px; margin-right: 200px;""><img src=""images/choice_trial_11.png"" style=""width: 408px; height: 417px;""></div></div>",j,delaylearn,learning,trial,vLQeEK1gXrhebwT2wsdO98lpOuQ2,vLQeEK1gXrhebwT2wsdO98lpOuQ2,3.0,images/choice_trial_2.png,images/choice_trial_11.png,images/pattern_5.png,j,j,750.0,2.0,11.0,4.0,1.0,12.0,1.0,1.0,11.0,100.0,,,,,,5d62e141756469001948081a,16:41:28,27/03/2024
html-keyboard-response,63,139457,0.0-28.0-1.0,,"<div style=""display: flex; flex-direction: column; align-items: center; margin-top: -40px;""><img src=""images/pattern_5.png"" style=""width: 234px; height: 230px; margin-top: -50px;""><div style=""display: flex; justify-content: space-between; margin-top: 33px;""><img src=""images/choice_trial_11.png"" style=""width: 408px; height: 417px; margin-left:608px;""></div></div>",,delaylearn,learning,display_response,vLQeEK1gXrhebwT2wsdO98lpOuQ2,vLQeEK1gXrhebwT2wsdO98lpOuQ2,,,,,,,,,,,,,,,,,chosen stimuli: images/choice_trial_11.png,,,,,5d62e141756469001948081a,16:41:28,27/03/2024
html-keyboard-response,64,140209,0.0-28.0-2.0,,,,delaylearn,learning,feedback_duration_window,vLQeEK1gXrhebwT2wsdO98lpOuQ2,vLQeEK1gXrhebwT2wsdO98lpOuQ2,,,,,,,,,,,,,,,,,,750.0,,,,5d62e141756469001948081a,16:41:28,27/03/2024
html-keyboard-response,65,141711,0.0-28.0-3.0,,<div style='margin:auto;width: auto; font-size: 150%'><span style='font-weight: bold; font-size: 100px; color: green;'>+10 points!</span><br><br></div>,,delaylearn,learning,feedback_image_window,vLQeEK1gXrhebwT2wsdO98lpOuQ2,vLQeEK1gXrhebwT2wsdO98lpOuQ2,,,,,,,,,,,,,,,,,,,,,,5d62e141756469001948081a,16:41:28,27/03/2024
html-keyboard-response,66,143737,0.0-29.0,,"<div style=""font-size:100px;"">+</div>",,delaylearn,learning,ITI,vLQeEK1gXrhebwT2wsdO98lpOuQ2,vLQeEK1gXrhebwT2wsdO98lpOuQ2,,,,,,,,,,,,,,,,,,,2024.0,,,5d62e141756469001948081a,16:41:28,27/03/2024
html-keyboard-response,67,145569,0.0-30.0-0.0,1828.9999999999418,"<div style=""display: flex; flex-direction: column; align-items: center; margin-top: -40px;""><img src=""images/pattern_6.png"" style=""width: 234px; height: 230px; margin-top: -50px;""><div style=""display: flex; justify-content: space-between; margin-top: 33px;""><img src=""images/choice_trial_16.png"" style=""width: 408px; height: 417px; margin-right: 200px;""><img src=""images/choice_trial_3.png"" style=""width: 408px; height: 417px;""></div></div>",j,delaylearn,learning,trial,vLQeEK1gXrhebwT2wsdO98lpOuQ2,vLQeEK1gXrhebwT2wsdO98lpOuQ2,3.0,images/choice_trial_16.png,images/choice_trial_3.png,images/pattern_6.png,j,f,750.0,16.0,3.0,5.0,0.0,13.0,0.0,1.0,3.0,110.0,,,,,,5d62e141756469001948081a,16:41:28,27/03/2024
html-keyboard-response,68,146571,0.0-30.0-1.0,,"<div style=""display: flex; flex-direction: column; align-items: center; margin-top: -40px;""><img src=""images/pattern_6.png"" style=""width: 234px; height: 230px; margin-top: -50px;""><div style=""display: flex; justify-content: space-between; margin-top: 33px;""><img src=""images/choice_trial_3.png"" style=""width: 408px; height: 417px; margin-left:608px;""></div></div>",,delaylearn,learning,display_response,vLQeEK1gXrhebwT2wsdO98lpOuQ2,vLQeEK1gXrhebwT2wsdO98lpOuQ2,,,,,,,,,,,,,,,,,chosen stimuli: images/choice_trial_3.png,,,,,5d62e141756469001948081a,16:41:28,27/03/2024
html-keyboard-response,69,147322,0.0-30.0-2.0,,,,delaylearn,learning,feedback_duration_window,vLQeEK1gXrhebwT2wsdO98lpOuQ2,vLQeEK1gXrhebwT2wsdO98lpOuQ2,,,,,,,,,,,,,,,,,,750.0,,,,5d62e141756469001948081a,16:41:28,27/03/2024
html-keyboard-response,70,148824,0.0-30.0-3.0,,<div style='margin:auto;width: auto; font-size: 150%'><span style='font-weight: bold; font-size: 100px; color: green;'>+10 points!</span><br><br></div>,,delaylearn,learning,feedback_image_window,vLQeEK1gXrhebwT2wsdO98lpOuQ2,vLQeEK1gXrhebwT2wsdO98lpOuQ2,,,,,,,,,,,,,,,,,,,,,,5d62e141756469001948081a,16:41:28,27/03/2024
html-keyboard-response,71,149326,0.0-31.0-0.0,,,,,,mood_trial_fixation,vLQeEK1gXrhebwT2wsdO98lpOuQ2,,,,,,,,,,,,,,,,,,,,,,,5d62e141756469001948081a,16:41:28,27/03/2024
lmdlab-html-vas-response,72,153324,0.0-31.0-1.0,2991.0,How happy are you right now?,0.9833333333333333,delaylearn,learning,mood_trial,vLQeEK1gXrhebwT2wsdO98lpOuQ2,vLQeEK1gXrhebwT2wsdO98lpOuQ2,,,,,,,,,,,,,,,,,,,,"['Very unhappy', 'Very happy']",,5d62e141756469001948081a,16:41:28,27/03/2024
html-keyboard-response,73,155701,0.0-32.0,,"<div style=""font-size:100px;"">+</div>",,delaylearn,learning,ITI,vLQeEK1gXrhebwT2wsdO98lpOuQ2,vLQeEK1gXrhebwT2wsdO98lpOuQ2,,,,,,,,,,,,,,,,,,,2376.0,,,5d62e141756469001948081a,16:41:28,27/03/2024
html-keyboard-response,74,156647,0.0-33.0-0.0,944.0,"<div style=""display: flex; flex-direction: column; align-items: center; margin-top: -40px;""><img src=""images/pattern_1.png"" style=""width: 234px; height: 230px; margin-top: -50px;""><div style=""display: flex; justify-content: space-between; margin-top: 33px;""><img src=""images/choice_trial_8.png"" style=""width: 408px; height: 417px; margin-right: 200px;""><img src=""images/choice_trial_14.png"" style=""width: 408px; height: 417px;""></div></div>",f,delaylearn,learning,trial,vLQeEK1gXrhebwT2wsdO98lpOuQ2,vLQeEK1gXrhebwT2wsdO98lpOuQ2,3.0,images/choice_trial_8.png,images/choice_trial_14.png,images/pattern_1.png,j,j,7000.0,8.0,14.0,1.0,1.0,14.0,0.0,0.0,8.0,110.0,,,,,,5d62e141756469001948081a,16:41:28,27/03/2024
html-keyboard-response,75,157648,0.0-33.0-1.0,,"<div style=""display: flex; flex-direction: column; align-items: center; margin-top: -40px;""><img src=""images/pattern_1.png"" style=""width: 234px; height: 230px; margin-top: -50px;""><div style=""display: flex; justify-content: space-between; margin-top: 33px;""><img src=""images/choice_trial_8.png"" style=""width: 408px; height: 417px; margin-right: 608px;""></div></div>",,delaylearn,learning,display_response,vLQeEK1gXrhebwT2wsdO98lpOuQ2,vLQeEK1gXrhebwT2wsdO98lpOuQ2,,,,,,,,,,,,,,,,,chosen stimuli: images/choice_trial_8.png,,,,,5d62e141756469001948081a,16:41:28,27/03/2024
html-keyboard-response,76,164649,0.0-33.0-2.0,,,,delaylearn,learning,feedback_duration_window,vLQeEK1gXrhebwT2wsdO98lpOuQ2,vLQeEK1gXrhebwT2wsdO98lpOuQ2,,,,,,,,,,,,,,,,,,7000.0,,,,5d62e141756469001948081a,16:41:28,27/03/2024
html-keyboard-response,77,166152,0.0-33.0-3.0,,<div style='margin:auto;width: auto; font-size: 150%'><span style='font-weight: bold; font-size: 100px; color: red;'>0 points!</span><br><br></div>,,delaylearn,learning,feedback_image_window,vLQeEK1gXrhebwT2wsdO98lpOuQ2,vLQeEK1gXrhebwT2wsdO98lpOuQ2,,,,,,,,,,,,,,,,,,,,,,5d62e141756469001948081a,16:41:28,27/03/2024
html-keyboard-response,78,168110,0.0-34.0,,"<div style=""font-size:100px;"">+</div>",,delaylearn,learning,ITI,vLQeEK1gXrhebwT2wsdO98lpOuQ2,vLQeEK1gXrhebwT2wsdO98lpOuQ2,,,,,,,,,,,,,,,,,,,2019.0,,,5d62e141756469001948081a,16:41:28,27/03/2024
html-keyboard-response,79,169356,0.0-35.0-0.0,1244.0,"<div style=""display: flex; flex-direction: column; align-items: center; margin-top: -40px;""><img src=""images/pattern_3.png"" style=""width: 234px; height: 230px; margin-top: -50px;""><div style=""display: flex; justify-content: space-between; margin-top: 33px;""><img src=""images/choice_trial_10.png"" style=""width: 408px; height: 417px; margin-right: 200px;""><img src=""images/choice_trial_13.png"" style=""width: 408px; height: 417px;""></div></div>",j,delaylearn,learning,trial,vLQeEK1gXrhebwT2wsdO98lpOuQ2,vLQeEK1gXrhebwT2wsdO98lpOuQ2,3.0,images/choice_trial_10.png,images/choice_trial_13.png,images/pattern_3.png,f,j,7000.0,10.0,13.0,2.0,1.0,15.0,1.0,0.0,13.0,110.0,,,,,,5d62e141756469001948081a,16:41:28,27/03/2024
html-keyboard-response,80,170358,0.0-35.0-1.0,,"<div style=""display: flex; flex-direction: column; align-items: center; margin-top: -40px;""><img src=""images/pattern_3.png"" style=""width: 234px; height: 230px; margin-top: -50px;""><div style=""display: flex; justify-content: space-between; margin-top: 33px;""><img src=""images/choice_trial_13.png"" style=""width: 408px; height: 417px; margin-left:608px;""></div></div>",,delaylearn,learning,display_response,vLQeEK1gXrhebwT2wsdO98lpOuQ2,vLQeEK1gXrhebwT2wsdO98lpOuQ2,,,,,,,,,,,,,,,,,chosen stimuli: images/choice_trial_13.png,,,,,5d62e141756469001948081a,16:41:28,27/03/2024
html-keyboard-response,81,177359,0.0-35.0-2.0,,,,delaylearn,learning,feedback_duration_window,vLQeEK1gXrhebwT2wsdO98lpOuQ2,vLQeEK1gXrhebwT2wsdO98lpOuQ2,,,,,,,,,,,,,,,,,,7000.0,,,,5d62e141756469001948081a,16:41:28,27/03/2024
html-keyboard-response,82,178861,0.0-35.0-3.0,,<div style='margin:auto;width: auto; font-size: 150%'><span style='font-weight: bold; font-size: 100px; color: red;'>0 points!</span><br><br></div>,,delaylearn,learning,feedback_image_window,vLQeEK1gXrhebwT2wsdO98lpOuQ2,vLQeEK1gXrhebwT2wsdO98lpOuQ2,,,,,,,,,,,,,,,,,,,,,,5d62e141756469001948081a,16:41:28,27/03/2024
html-keyboard-response,83,180790,0.0-36.0,,"<div style=""font-size:100px;"">+</div>",,delaylearn,learning,ITI,vLQeEK1gXrhebwT2wsdO98lpOuQ2,vLQeEK1gXrhebwT2wsdO98lpOuQ2,,,,,,,,,,,,,,,,,,,1928.0,,,5d62e141756469001948081a,16:41:28,27/03/2024
html-keyboard-response,84,183615,0.0-37.0-0.0,2823.0,"<div style=""display: flex; flex-direction: column; align-items: center; margin-top: -40px;""><img src=""images/pattern_5.png"" style=""width: 234px; height: 230px; margin-top: -50px;""><div style=""display: flex; justify-content: space-between; margin-top: 33px;""><img src=""images/choice_trial_11.png"" style=""width: 408px; height: 417px; margin-right: 200px;""><img src=""images/choice_trial_2.png"" style=""width: 408px; height: 417px;""></div></div>",j,delaylearn,learning,trial,vLQeEK1gXrhebwT2wsdO98lpOuQ2,vLQeEK1gXrhebwT2wsdO98lpOuQ2,3.0,images/choice_trial_11.png,images/choice_trial_2.png,images/pattern_5.png,f,f,750.0,11.0,2.0,4.0,0.0,16.0,0.0,0.0,2.0,110.0,,,,,,5d62e141756469001948081a,16:41:28,27/03/2024
html-keyboard-response,85,184617,0.0-37.0-1.0,,"<div style=""display: flex; flex-direction: column; align-items: center; margin-top: -40px;""><img src=""images/pattern_5.png"" style=""width: 234px; height: 230px; margin-top: -50px;""><div style=""display: flex; justify-content: space-between; margin-top: 33px;""><img src=""images/choice_trial_2.png"" style=""width: 408px; height: 417px; margin-left:608px;""></div></div>",,delaylearn,learning,display_response,vLQeEK1gXrhebwT2wsdO98lpOuQ2,vLQeEK1gXrhebwT2wsdO98lpOuQ2,,,,,,,,,,,,,,,,,chosen stimuli: images/choice_trial_2.png,,,,,5d62e141756469001948081a,16:41:28,27/03/2024
html-keyboard-response,86,185368,0.0-37.0-2.0,,,,delaylearn,learning,feedback_duration_window,vLQeEK1gXrhebwT2wsdO98lpOuQ2,vLQeEK1gXrhebwT2wsdO98lpOuQ2,,,,,,,,,,,,,,,,,,750.0,,,,5d62e141756469001948081a,16:41:28,27/03/2024
html-keyboard-response,87,186871,0.0-37.0-3.0,,<div style='margin:auto;width: auto; font-size: 150%'><span style='font-weight: bold; font-size: 100px; color: red;'>0 points!</span><br><br></div>,,delaylearn,learning,feedback_image_window,vLQeEK1gXrhebwT2wsdO98lpOuQ2,vLQeEK1gXrhebwT2wsdO98lpOuQ2,,,,,,,,,,,,,,,,,,,,,,5d62e141756469001948081a,16:41:28,27/03/2024
html-keyboard-response,88,187373,0.0-38.0-0.0,,,,,,mood_trial_fixation,vLQeEK1gXrhebwT2wsdO98lpOuQ2,,,,,,,,,,,,,,,,,,,,,,,5d62e141756469001948081a,16:41:28,27/03/2024
lmdlab-html-vas-response,89,191778,0.0-38.0-1.0,3399.0,How happy are you right now?,0.37407407407407406,delaylearn,learning,mood_trial,vLQeEK1gXrhebwT2wsdO98lpOuQ2,vLQeEK1gXrhebwT2wsdO98lpOuQ2,,,,,,,,,,,,,,,,,,,,"['Very unhappy', 'Very happy']",,5d62e141756469001948081a,16:41:28,27/03/2024
html-keyboard-response,90,193361,0.0-39.0,,"<div style=""font-size:100px;"">+</div>",,delaylearn,learning,ITI,vLQeEK1gXrhebwT2wsdO98lpOuQ2,vLQeEK1gXrhebwT2wsdO98lpOuQ2,,,,,,,,,,,,,,,,,,,1582.0,,,5d62e141756469001948081a,16:41:28,27/03/2024
html-keyboard-response,91,194875,0.0-40.0-0.0,1512.0,"<div style=""display: flex; flex-direction: column; align-items: center; margin-top: -40px;""><img src=""images/pattern_6.png"" style=""width: 234px; height: 230px; margin-top: -50px;""><div style=""display: flex; justify-content: space-between; margin-top: 33px;""><img src=""images/choice_trial_16.png"" style=""width: 408px; height: 417px; margin-right: 200px;""><img src=""images/choice_trial_3.png"" style=""width: 408px; height: 417px;""></div></div>",f,delaylearn,learning,trial,vLQeEK1gXrhebwT2wsdO98lpOuQ2,vLQeEK1gXrhebwT2wsdO98lpOuQ2,3.0,images/choice_trial_16.png,images/choice_trial_3.png,images/pattern_6.png,f,f,750.0,16.0,3.0,5.0,0.0,17.0,1.0,1.0,16.0,120.0,,,,,,5d62e141756469001948081a,16:41:28,27/03/2024
html-keyboard-response,92,195877,0.0-40.0-1.0,,"<div style=""display: flex; flex-direction: column; align-items: center; margin-top: -40px;""><img src=""images/pattern_6.png"" style=""width: 234px; height: 230px; margin-top: -50px;""><div style=""display: flex; justify-content: space-between; margin-top: 33px;""><img src=""images/choice_trial_16.png"" style=""width: 408px; height: 417px; margin-right: 608px;""></div></div>",,delaylearn,learning,display_response,vLQeEK1gXrhebwT2wsdO98lpOuQ2,vLQeEK1gXrhebwT2wsdO98lpOuQ2,,,,,,,,,,,,,,,,,chosen stimuli: images/choice_trial_16.png,,,,,5d62e141756469001948081a,16:41:28,27/03/2024
html-keyboard-response,93,196629,0.0-40.0-2.0,,,,delaylearn,learning,feedback_duration_window,vLQeEK1gXrhebwT2wsdO98lpOuQ2,vLQeEK1gXrhebwT2wsdO98lpOuQ2,,,,,,,,,,,,,,,,,,750.0,,,,5d62e141756469001948081a,16:41:28,27/03/2024
html-keyboard-response,94,198131,0.0-40.0-3.0,,<div style='margin:auto;width: auto; font-size: 150%'><span style='font-weight: bold; font-size: 100px; color: green;'>+10 points!</span><br><br></div>,,delaylearn,learning,feedback_image_window,vLQeEK1gXrhebwT2wsdO98lpOuQ2,vLQeEK1gXrhebwT2wsdO98lpOuQ2,,,,,,,,,,,,,,,,,,,,,,5d62e141756469001948081a,16:41:28,27/03/2024
html-keyboard-response,95,200176,0.0-41.0,,"<div style=""font-size:100px;"">+</div>",,delaylearn,learning,ITI,vLQeEK1gXrhebwT2wsdO98lpOuQ2,vLQeEK1gXrhebwT2wsdO98lpOuQ2,,,,,,,,,,,,,,,,,,,2042.0,,,5d62e141756469001948081a,16:41:28,27/03/2024
html-keyboard-response,96,201543,0.0-42.0-0.0,1364.0,"<div style=""display: flex; flex-direction: column; align-items: center; margin-top: -40px;""><img src=""images/pattern_4.png"" style=""width: 234px; height: 230px; margin-top: -50px;""><div style=""display: flex; justify-content: space-between; margin-top: 33px;""><img src=""images/choice_trial_9.png"" style=""width: 408px; height: 417px; margin-right: 200px;""><img src=""images/choice_trial_15.png"" style=""width: 408px; height: 417px;""></div></div>",f,delaylearn,learning,trial,vLQeEK1gXrhebwT2wsdO98lpOuQ2,vLQeEK1gXrhebwT2wsdO98lpOuQ2,3.0,images/choice_trial_9.png,images/choice_trial_15.png,images/pattern_4.png,j,j,7000.0,9.0,15.0,3.0,1.0,18.0,0.0,0.0,9.0,120.0,,,,,,5d62e141756469001948081a,16:41:28,27/03/2024
html-keyboard-response,97,202547,0.0-42.0-1.0,,"<div style=""display: flex; flex-direction: column; align-items: center; margin-top: -40px;""><img src=""images/pattern_4.png"" style=""width: 234px; height: 230px; margin-top: -50px;""><div style=""display: flex; justify-content: space-between; margin-top: 33px;""><img src=""images/choice_trial_9.png"" style=""width: 408px; height: 417px; margin-right: 608px;""></div></div>",,delaylearn,learning,display_response,vLQeEK1gXrhebwT2wsdO98lpOuQ2,vLQeEK1gXrhebwT2wsdO98lpOuQ2,,,,,,,,,,,,,,,,,chosen stimuli: images/choice_trial_9.png,,,,,5d62e141756469001948081a,16:41:28,27/03/2024
html-keyboard-response,98,209548,0.0-42.0-2.0,,,,delaylearn,learning,feedback_duration_window,vLQeEK1gXrhebwT2wsdO98lpOuQ2,vLQeEK1gXrhebwT2wsdO98lpOuQ2,,,,,,,,,,,,,,,,,,7000.0,,,,5d62e141756469001948081a,16:41:28,27/03/2024
html-keyboard-response,99,211050,0.0-42.0-3.0,,<div style='margin:auto;width: auto; font-size: 150%'><span style='font-weight: bold; font-size: 100px; color: red;'>0 points!</span><br><br></div>,,delaylearn,learning,feedback_image_window,vLQeEK1gXrhebwT2wsdO98lpOuQ2,vLQeEK1gXrhebwT2wsdO98lpOuQ2,,,,,,,,,,,,,,,,,,,,,,5d62e141756469001948081a,16:41:28,27/03/2024
html-keyboard-response,100,213440,0.0-43.0,,"<div style=""font-size:100px;"">+</div>",,delaylearn,learning,ITI,vLQeEK1gXrhebwT2wsdO98lpOuQ2,vLQeEK1gXrhebwT2wsdO98lpOuQ2,,,,,,,,,,,,,,,,,,,2388.0,,,5d62e141756469001948081a,16:41:28,27/03/2024
html-keyboard-response,101,214707,0.0-44.0-0.0,1265.0,"<div style=""display: flex; flex-direction: column; align-items: center; margin-top: -40px;""><img src=""images/pattern_7.png"" style=""width: 234px; height: 230px; margin-top: -50px;""><div style=""display: flex; justify-content: space-between; margin-top: 33px;""><img src=""images/choice_trial_6.png"" style=""width: 408px; height: 417px; margin-right: 200px;""><img src=""images/choice_trial_12.png"" style=""width: 408px; height: 417px;""></div></div>",f,delaylearn,learning,trial,vLQeEK1gXrhebwT2wsdO98lpOuQ2,vLQeEK1gXrhebwT2wsdO98lpOuQ2,3.0,images/choice_trial_6.png,images/choice_trial_12.png,images/pattern_7.png,j,f,750.0,6.0,12.0,6.0,0.0,19.0,1.0,0.0,6.0,120.0,,,,,,5d62e141756469001948081a,16:41:28,27/03/2024
html-keyboard-response,102,215709,0.0-44.0-1.0,,"<div style=""display: flex; flex-direction: column; align-items: center; margin-top: -40px;""><img src=""images/pattern_7.png"" style=""width: 234px; height: 230px; margin-top: -50px;""><div style=""display: flex; justify-content: space-between; margin-top: 33px;""><img src=""images/choice_trial_6.png"" style=""width: 408px; height: 417px; margin-right: 608px;""></div></div>",,delaylearn,learning,display_response,vLQeEK1gXrhebwT2wsdO98lpOuQ2,vLQeEK1gXrhebwT2wsdO98lpOuQ2,,,,,,,,,,,,,,,,,chosen stimuli: images/choice_trial_6.png,,,,,5d62e141756469001948081a,16:41:28,27/03/2024
html-keyboard-response,103,216460,0.0-44.0-2.0,,,,delaylearn,learning,feedback_duration_window,vLQeEK1gXrhebwT2wsdO98lpOuQ2,vLQeEK1gXrhebwT2wsdO98lpOuQ2,,,,,,,,,,,,,,,,,,750.0,,,,5d62e141756469001948081a,16:41:28,27/03/2024
html-keyboard-response,104,217962,0.0-44.0-3.0,,<div style='margin:auto;width: auto; font-size: 150%'><span style='font-weight: bold; font-size: 100px; color: red;'>0 points!</span><br><br></div>,,delaylearn,learning,feedback_image_window,vLQeEK1gXrhebwT2wsdO98lpOuQ2,vLQeEK1gXrhebwT2wsdO98lpOuQ2,,,,,,,,,,,,,,,,,,,,,,5d62e141756469001948081a,16:41:28,27/03/2024
html-keyboard-response,105,219503,0.0-45.0,,"<div style=""font-size:100px;"">+</div>",,delaylearn,learning,ITI,vLQeEK1gXrhebwT2wsdO98lpOuQ2,vLQeEK1gXrhebwT2wsdO98lpOuQ2,,,,,,,,,,,,,,,,,,,1539.0,,,5d62e141756469001948081a,16:41:28,27/03/2024
html-keyboard-response,106,221680,0.0-46.0-0.0,2174.0,"<div style=""display: flex; flex-direction: column; align-items: center; margin-top: -40px;""><img src=""images/pattern_1.png"" style=""width: 234px; height: 230px; margin-top: -50px;""><div style=""display: flex; justify-content: space-between; margin-top: 33px;""><img src=""images/choice_trial_14.png"" style=""width: 408px; height: 417px; margin-right: 200px;""><img src=""images/choice_trial_8.png"" style=""width: 408px; height: 417px;""></div></div>",j,delaylearn,learning,trial,vLQeEK1gXrhebwT2wsdO98lpOuQ2,vLQeEK1gXrhebwT2wsdO98lpOuQ2,3.0,images/choice_trial_14.png,images/choice_trial_8.png,images/pattern_1.png,f,f,7000.0,14.0,8.0,1.0,0.0,20.0,0.0,0.0,8.0,120.0,,,,,,5d62e141756469001948081a,16:41:28,27/03/2024
html-keyboard-response,107,222681,0.0-46.0-1.0,,"<div style=""display: flex; flex-direction: column; align-items: center; margin-top: -40px;""><img src=""images/pattern_1.png"" style=""width: 234px; height: 230px; margin-top: -50px;""><div style=""display: flex; justify-content: space-between; margin-top: 33px;""><img src=""images/choice_trial_8.png"" style=""width: 408px; height: 417px; margin-left:608px;""></div></div>",,delaylearn,learning,display_response,vLQeEK1gXrhebwT2wsdO98lpOuQ2,vLQeEK1gXrhebwT2wsdO98lpOuQ2,,,,,,,,,,,,,,,,,chosen stimuli: images/choice_trial_8.png,,,,,5d62e141756469001948081a,16:41:28,27/03/2024
html-keyboard-response,108,229682,0.0-46.0-2.0,,,,delaylearn,learning,feedback_duration_window,vLQeEK1gXrhebwT2wsdO98lpOuQ2,vLQeEK1gXrhebwT2wsdO98lpOuQ2,,,,,,,,,,,,,,,,,,7000.0,,,,5d62e141756469001948081a,16:41:28,27/03/2024
html-keyboard-response,109,231184,0.0-46.0-3.0,,<div style='margin:auto;width: auto; font-size: 150%'><span style='font-weight: bold; font-size: 100px; color: red;'>0 points!</span><br><br></div>,,delaylearn,learning,feedback_image_window,vLQeEK1gXrhebwT2wsdO98lpOuQ2,vLQeEK1gXrhebwT2wsdO98lpOuQ2,,,,,,,,,,,,,,,,,,,,,,5d62e141756469001948081a,16:41:28,27/03/2024
html-keyboard-response,110,233606,0.0-47.0,,"<div style=""font-size:100px;"">+</div>",,delaylearn,learning,ITI,vLQeEK1gXrhebwT2wsdO98lpOuQ2,vLQeEK1gXrhebwT2wsdO98lpOuQ2,,,,,,,,,,,,,,,,,,,2421.0,,,5d62e141756469001948081a,16:41:28,27/03/2024
html-keyboard-response,111,235661,0.0-48.0-0.0,2051.000000000058,"<div style=""display: flex; flex-direction: column; align-items: center; margin-top: -40px;""><img src=""images/pattern_6.png"" style=""width: 234px; height: 230px; margin-top: -50px;""><div style=""display: flex; justify-content: space-between; margin-top: 33px;""><img src=""images/choice_trial_3.png"" style=""width: 408px; height: 417px; margin-right: 200px;""><img src=""images/choice_trial_16.png"" style=""width: 408px; height: 417px;""></div></div>",f,delaylearn,learning,trial,vLQeEK1gXrhebwT2wsdO98lpOuQ2,vLQeEK1gXrhebwT2wsdO98lpOuQ2,3.0,images/choice_trial_3.png,images/choice_trial_16.png,images/pattern_6.png,j,j,750.0,3.0,16.0,5.0,1.0,21.0,0.0,0.0,3.0,120.0,,,,,,5d62e141756469001948081a,16:41:28,27/03/2024
html-keyboard-response,112,236663,0.0-48.0-1.0,,"<div style=""display: flex; flex-direction: column; align-items: center; margin-top: -40px;""><img src=""images/pattern_6.png"" style=""width: 234px; height: 230px; margin-top: -50px;""><div style=""display: flex; justify-content: space-between; margin-top: 33px;""><img src=""images/choice_trial_3.png"" style=""width: 408px; height: 417px; margin-right: 608px;""></div></div>",,delaylearn,learning,display_response,vLQeEK1gXrhebwT2wsdO98lpOuQ2,vLQeEK1gXrhebwT2wsdO98lpOuQ2,,,,,,,,,,,,,,,,,chosen stimuli: images/choice_trial_3.png,,,,,5d62e141756469001948081a,16:41:28,27/03/2024
html-keyboard-response,113,237415,0.0-48.0-2.0,,,,delaylearn,learning,feedback_duration_window,vLQeEK1gXrhebwT2wsdO98lpOuQ2,vLQeEK1gXrhebwT2wsdO98lpOuQ2,,,,,,,,,,,,,,,,,,750.0,,,,5d62e141756469001948081a,16:41:28,27/03/2024
html-keyboard-response,114,238916,0.0-48.0-3.0,,<div style='margin:auto;width: auto; font-size: 150%'><span style='font-weight: bold; font-size: 100px; color: red;'>0 points!</span><br><br></div>,,delaylearn,learning,feedback_image_window,vLQeEK1gXrhebwT2wsdO98lpOuQ2,vLQeEK1gXrhebwT2wsdO98lpOuQ2,,,,,,,,,,,,,,,,,,,,,,5d62e141756469001948081a,16:41:28,27/03/2024
html-keyboard-response,115,241057,0.0-49.0,,"<div style=""font-size:100px;"">+</div>",,delaylearn,learning,ITI,vLQeEK1gXrhebwT2wsdO98lpOuQ2,vLQeEK1gXrhebwT2wsdO98lpOuQ2,,,,,,,,,,,,,,,,,,,2139.0,,,5d62e141756469001948081a,16:41:28,27/03/2024
html-keyboard-response,116,243281,0.0-50.0-0.0,2219.0,"<div style=""display: flex; flex-direction: column; align-items: center; margin-top: -40px;""><img src=""images/pattern_4.png"" style=""width: 234px; height: 230px; margin-top: -50px;""><div style=""display: flex; justify-content: space-between; margin-top: 33px;""><img src=""images/choice_trial_15.png"" style=""width: 408px; height: 417px; margin-right: 200px;""><img src=""images/choice_trial_9.png"" style=""width: 408px; height: 417px;""></div></div>",f,delaylearn,learning,trial,vLQeEK1gXrhebwT2wsdO98lpOuQ2,vLQeEK1gXrhebwT2wsdO98lpOuQ2,3.0,images/choice_trial_15.png,images/choice_trial_9.png,images/pattern_4.png,f,f,7000.0,15.0,9.0,3.0,0.0,22.0,1.0,1.0,15.0,130.0,,,,,,5d62e141756469001948081a,16:41:28,27/03/2024
html-keyboard-response,117,244283,0.0-50.0-1.0,,"<div style=""display: flex; flex-direction: column; align-items: center; margin-top: -40px;""><img src=""images/pattern_4.png"" style=""width: 234px; height: 230px; margin-top: -50px;""><div style=""display: flex; justify-content: space-between; margin-top: 33px;""><img src=""images/choice_trial_15.png"" style=""width: 408px; height: 417px; margin-right: 608px;""></div></div>",,delaylearn,learning,display_response,vLQeEK1gXrhebwT2wsdO98lpOuQ2,vLQeEK1gXrhebwT2wsdO98lpOuQ2,,,,,,,,,,,,,,,,,chosen stimuli: images/choice_trial_15.png,,,,,5d62e141756469001948081a,16:41:28,27/03/2024
html-keyboard-response,118,251285,0.0-50.0-2.0,,,,delaylearn,learning,feedback_duration_window,vLQeEK1gXrhebwT2wsdO98lpOuQ2,vLQeEK1gXrhebwT2wsdO98lpOuQ2,,,,,,,,,,,,,,,,,,7000.0,,,,5d62e141756469001948081a,16:41:28,27/03/2024
html-keyboard-response,119,252787,0.0-50.0-3.0,,<div style='margin:auto;width: auto; font-size: 150%'><span style='font-weight: bold; font-size: 100px; color: green;'>+10 points!</span><br><br></div>,,delaylearn,learning,feedback_image_window,vLQeEK1gXrhebwT2wsdO98lpOuQ2,vLQeEK1gXrhebwT2wsdO98lpOuQ2,,,,,,,,,,,,,,,,,,,,,,5d62e141756469001948081a,16:41:28,27/03/2024
html-keyboard-response,120,253289,0.0-51.0-0.0,,,,,,mood_trial_fixation,vLQeEK1gXrhebwT2wsdO98lpOuQ2,,,,,,,,,,,,,,,,,,,,,,,5d62e141756469001948081a,16:41:28,27/03/2024
lmdlab-html-vas-response,121,257711,0.0-51.0-1.0,3413.0,How happy are you right now?,0.4962962962962963,delaylearn,learning,mood_trial,vLQeEK1gXrhebwT2wsdO98lpOuQ2,vLQeEK1gXrhebwT2wsdO98lpOuQ2,,,,,,,,,,,,,,,,,,,,"['Very unhappy', 'Very happy']",,5d62e141756469001948081a,16:41:28,27/03/2024
html-keyboard-response,122,260211,0.0-52.0,,"<div style=""font-size:100px;"">+</div>",,delaylearn,learning,ITI,vLQeEK1gXrhebwT2wsdO98lpOuQ2,vLQeEK1gXrhebwT2wsdO98lpOuQ2,,,,,,,,,,,,,,,,,,,2498.0,,,5d62e141756469001948081a,16:41:28,27/03/2024
html-keyboard-response,123,261211,0.0-53.0-0.0,997.0000000000582,"<div style=""display: flex; flex-direction: column; align-items: center; margin-top: -40px;""><img src=""images/pattern_7.png"" style=""width: 234px; height: 230px; margin-top: -50px;""><div style=""display: flex; justify-content: space-between; margin-top: 33px;""><img src=""images/choice_trial_12.png"" style=""width: 408px; height: 417px; margin-right: 200px;""><img src=""images/choice_trial_6.png"" style=""width: 408px; height: 417px;""></div></div>",f,delaylearn,learning,trial,vLQeEK1gXrhebwT2wsdO98lpOuQ2,vLQeEK1gXrhebwT2wsdO98lpOuQ2,3.0,images/choice_trial_12.png,images/choice_trial_6.png,images/pattern_7.png,j,j,750.0,12.0,6.0,6.0,1.0,23.0,0.0,0.0,12.0,130.0,,,,,,5d62e141756469001948081a,16:41:28,27/03/2024
html-keyboard-response,124,262214,0.0-53.0-1.0,,"<div style=""display: flex; flex-direction: column; align-items: center; margin-top: -40px;""><img src=""images/pattern_7.png"" style=""width: 234px; height: 230px; margin-top: -50px;""><div style=""display: flex; justify-content: space-between; margin-top: 33px;""><img src=""images/choice_trial_12.png"" style=""width: 408px; height: 417px; margin-right: 608px;""></div></div>",,delaylearn,learning,display_response,vLQeEK1gXrhebwT2wsdO98lpOuQ2,vLQeEK1gXrhebwT2wsdO98lpOuQ2,,,,,,,,,,,,,,,,,chosen stimuli: images/choice_trial_12.png,,,,,5d62e141756469001948081a,16:41:28,27/03/2024
html-keyboard-response,125,262966,0.0-53.0-2.0,,,,delaylearn,learning,feedback_duration_window,vLQeEK1gXrhebwT2wsdO98lpOuQ2,vLQeEK1gXrhebwT2wsdO98lpOuQ2,,,,,,,,,,,,,,,,,,750.0,,,,5d62e141756469001948081a,16:41:28,27/03/2024
html-keyboard-response,126,264468,0.0-53.0-3.0,,<div style='margin:auto;width: auto; font-size: 150%'><span style='font-weight: bold; font-size: 100px; color: red;'>0 points!</span><br><br></div>,,delaylearn,learning,feedback_image_window,vLQeEK1gXrhebwT2wsdO98lpOuQ2,vLQeEK1gXrhebwT2wsdO98lpOuQ2,,,,,,,,,,,,,,,,,,,,,,5d62e141756469001948081a,16:41:28,27/03/2024
html-keyboard-response,127,266800,0.0-54.0,,"<div style=""font-size:100px;"">+</div>",,delaylearn,learning,ITI,vLQeEK1gXrhebwT2wsdO98lpOuQ2,vLQeEK1gXrhebwT2wsdO98lpOuQ2,,,,,,,,,,,,,,,,,,,2330.0,,,5d62e141756469001948081a,16:41:28,27/03/2024
html-keyboard-response,128,269086,0.0-55.0-0.0,2283.0,"<div style=""display: flex; flex-direction: column; align-items: center; margin-top: -40px;""><img src=""images/pattern_1.png"" style=""width: 234px; height: 230px; margin-top: -50px;""><div style=""display: flex; justify-content: space-between; margin-top: 33px;""><img src=""images/choice_trial_8.png"" style=""width: 408px; height: 417px; margin-right: 200px;""><img src=""images/choice_trial_14.png"" style=""width: 408px; height: 417px;""></div></div>",j,delaylearn,learning,trial,vLQeEK1gXrhebwT2wsdO98lpOuQ2,vLQeEK1gXrhebwT2wsdO98lpOuQ2,3.0,images/choice_trial_8.png,images/choice_trial_14.png,images/pattern_1.png,f,j,7000.0,8.0,14.0,1.0,1.0,24.0,1.0,0.0,14.0,130.0,,,,,,5d62e141756469001948081a,16:41:28,27/03/2024
html-keyboard-response,129,270088,0.0-55.0-1.0,,"<div style=""display: flex; flex-direction: column; align-items: center; margin-top: -40px;""><img src=""images/pattern_1.png"" style=""width: 234px; height: 230px; margin-top: -50px;""><div style=""display: flex; justify-content: space-between; margin-top: 33px;""><img src=""images/choice_trial_14.png"" style=""width: 408px; height: 417px; margin-left:608px;""></div></div>",,delaylearn,learning,display_response,vLQeEK1gXrhebwT2wsdO98lpOuQ2,vLQeEK1gXrhebwT2wsdO98lpOuQ2,,,,,,,,,,,,,,,,,chosen stimuli: images/choice_trial_14.png,,,,,5d62e141756469001948081a,16:41:28,27/03/2024
html-keyboard-response,130,277089,0.0-55.0-2.0,,,,delaylearn,learning,feedback_duration_window,vLQeEK1gXrhebwT2wsdO98lpOuQ2,vLQeEK1gXrhebwT2wsdO98lpOuQ2,,,,,,,,,,,,,,,,,,7000.0,,,,5d62e141756469001948081a,16:41:28,27/03/2024
html-keyboard-response,131,278591,0.0-55.0-3.0,,<div style='margin:auto;width: auto; font-size: 150%'><span style='font-weight: bold; font-size: 100px; color: red;'>0 points!</span><br><br></div>,,delaylearn,learning,feedback_image_window,vLQeEK1gXrhebwT2wsdO98lpOuQ2,vLQeEK1gXrhebwT2wsdO98lpOuQ2,,,,,,,,,,,,,,,,,,,,,,5d62e141756469001948081a,16:41:28,27/03/2024
html-keyboard-response,132,281029,0.0-56.0,,"<div style=""font-size:100px;"">+</div>",,delaylearn,learning,ITI,vLQeEK1gXrhebwT2wsdO98lpOuQ2,vLQeEK1gXrhebwT2wsdO98lpOuQ2,,,,,,,,,,,,,,,,,,,2436.0,,,5d62e141756469001948081a,16:41:28,27/03/2024
html-keyboard-response,133,282424,0.0-57.0-0.0,1393.0,"<div style=""display: flex; flex-direction: column; align-items: center; margin-top: -40px;""><img src=""images/pattern_5.png"" style=""width: 234px; height: 230px; margin-top: -50px;""><div style=""display: flex; justify-content: space-between; margin-top: 33px;""><img src=""images/choice_trial_2.png"" style=""width: 408px; height: 417px; margin-right: 200px;""><img src=""images/choice_trial_11.png"" style=""width: 408px; height: 417px;""></div></div>",j,delaylearn,learning,trial,vLQeEK1gXrhebwT2wsdO98lpOuQ2,vLQeEK1gXrhebwT2wsdO98lpOuQ2,3.0,images/choice_trial_2.png,images/choice_trial_11.png,images/pattern_5.png,j,j,750.0,2.0,11.0,4.0,1.0,25.0,1.0,1.0,11.0,140.0,,,,,,5d62e141756469001948081a,16:41:28,27/03/2024
html-keyboard-response,134,283426,0.0-57.0-1.0,,"<div style=""display: flex; flex-direction: column; align-items: center; margin-top: -40px;""><img src=""images/pattern_5.png"" style=""width: 234px; height: 230px; margin-top: -50px;""><div style=""display: flex; justify-content: space-between; margin-top: 33px;""><img src=""images/choice_trial_11.png"" style=""width: 408px; height: 417px; margin-left:608px;""></div></div>",,delaylearn,learning,display_response,vLQeEK1gXrhebwT2wsdO98lpOuQ2,vLQeEK1gXrhebwT2wsdO98lpOuQ2,,,,,,,,,,,,,,,,,chosen stimuli: images/choice_trial_11.png,,,,,5d62e141756469001948081a,16:41:28,27/03/2024
html-keyboard-response,135,284177,0.0-57.0-2.0,,,,delaylearn,learning,feedback_duration_window,vLQeEK1gXrhebwT2wsdO98lpOuQ2,vLQeEK1gXrhebwT2wsdO98lpOuQ2,,,,,,,,,,,,,,,,,,750.0,,,,5d62e141756469001948081a,16:41:28,27/03/2024
html-keyboard-response,136,285679,0.0-57.0-3.0,,<div style='margin:auto;width: auto; font-size: 150%'><span style='font-weight: bold; font-size: 100px; color: green;'>+10 points!</span><br><br></div>,,delaylearn,learning,feedback_image_window,vLQeEK1gXrhebwT2wsdO98lpOuQ2,vLQeEK1gXrhebwT2wsdO98lpOuQ2,,,,,,,,,,,,,,,,,,,,,,5d62e141756469001948081a,16:41:28,27/03/2024
html-keyboard-response,137,287842,0.0-58.0,,"<div style=""font-size:100px;"">+</div>",,delaylearn,learning,ITI,vLQeEK1gXrhebwT2wsdO98lpOuQ2,vLQeEK1gXrhebwT2wsdO98lpOuQ2,,,,,,,,,,,,,,,,,,,2162.0,,,5d62e141756469001948081a,16:41:28,27/03/2024
html-keyboard-response,138,289290,0.0-59.0-0.0,1446.0,"<div style=""display: flex; flex-direction: column; align-items: center; margin-top: -40px;""><img src=""images/pattern_3.png"" style=""width: 234px; height: 230px; margin-top: -50px;""><div style=""display: flex; justify-content: space-between; margin-top: 33px;""><img src=""images/choice_trial_10.png"" style=""width: 408px; height: 417px; margin-right: 200px;""><img src=""images/choice_trial_13.png"" style=""width: 408px; height: 417px;""></div></div>",f,delaylearn,learning,trial,vLQeEK1gXrhebwT2wsdO98lpOuQ2,vLQeEK1gXrhebwT2wsdO98lpOuQ2,3.0,images/choice_trial_10.png,images/choice_trial_13.png,images/pattern_3.png,j,j,7000.0,10.0,13.0,2.0,1.0,26.0,0.0,0.0,10.0,140.0,,,,,,5d62e141756469001948081a,16:41:28,27/03/2024
html-keyboard-response,139,290292,0.0-59.0-1.0,,"<div style=""display: flex; flex-direction: column; align-items: center; margin-top: -40px;""><img src=""images/pattern_3.png"" style=""width: 234px; height: 230px; margin-top: -50px;""><div style=""display: flex; justify-content: space-between; margin-top: 33px;""><img src=""images/choice_trial_10.png"" style=""width: 408px; height: 417px; margin-right: 608px;""></div></div>",,delaylearn,learning,display_response,vLQeEK1gXrhebwT2wsdO98lpOuQ2,vLQeEK1gXrhebwT2wsdO98lpOuQ2,,,,,,,,,,,,,,,,,chosen stimuli: images/choice_trial_10.png,,,,,5d62e141756469001948081a,16:41:28,27/03/2024
html-keyboard-response,140,297294,0.0-59.0-2.0,,,,delaylearn,learning,feedback_duration_window,vLQeEK1gXrhebwT2wsdO98lpOuQ2,vLQeEK1gXrhebwT2wsdO98lpOuQ2,,,,,,,,,,,,,,,,,,7000.0,,,,5d62e141756469001948081a,16:41:28,27/03/2024
html-keyboard-response,141,298795,0.0-59.0-3.0,,<div style='margin:auto;width: auto; font-size: 150%'><span style='font-weight: bold; font-size: 100px; color: red;'>0 points!</span><br><br></div>,,delaylearn,learning,feedback_image_window,vLQeEK1gXrhebwT2wsdO98lpOuQ2,vLQeEK1gXrhebwT2wsdO98lpOuQ2,,,,,,,,,,,,,,,,,,,,,,5d62e141756469001948081a,16:41:28,27/03/2024
lmdlab-html-vas-response,142,305403,0.0-60.0-0.0,5101.0,*How <b><u>confident</u></b> are you feeling about your answers at this moment?*,0.45925925925925926,rewlearn,rate_confidence,,vLQeEK1gXrhebwT2wsdO98lpOuQ2,vLQeEK1gXrhebwT2wsdO98lpOuQ2,,,,,,,,,,,,,,,,,,,,"['No confidence', 'Complete confidence']",,5d62e141756469001948081a,16:41:28,27/03/2024
lmdlab-rest-trial-limit,143,316756,0.0-60.0-1.0,9851.0,"<div style=""font-size:40px;""><b>Please take a break!</b><br><br><br><br><p>Great work: you earned 140 points.<br><br><br><p>You have completed part(s) 1 of 5.<br><br><br><br>When you are ready to continue<br><br><br>please click the button.</p><br><br>",0,delaylearn,learning,break,vLQeEK1gXrhebwT2wsdO98lpOuQ2,vLQeEK1gXrhebwT2wsdO98lpOuQ2,,,,,,,,,,,,,,,,,,,,,0.0,5d62e141756469001948081a,16:41:28,27/03/2024
html-keyboard-response,144,319757,0.0-60.0-2.0,,"<div style=""font-size:100px;"">+</div>",,delaylearn,learning,pre_fixation,vLQeEK1gXrhebwT2wsdO98lpOuQ2,,,,,,,,,,,,,,,,,,,,,,,5d62e141756469001948081a,16:41:28,27/03/2024
lmdlab-html-vas-response,145,323956,0.0-60.0-3.0-0.0,3194.0,How happy are you right now?,0.5166666666666667,delaylearn,learning,mood_baseline,vLQeEK1gXrhebwT2wsdO98lpOuQ2,vLQeEK1gXrhebwT2wsdO98lpOuQ2,,,,,,,,,,,,,,,,,,,,"['Very unhappy', 'Very happy']",,5d62e141756469001948081a,16:41:28,27/03/2024
html-keyboard-response,146,325457,0.0-60.0-3.0-1.0,,,,,,mood_baseline_fixation,vLQeEK1gXrhebwT2wsdO98lpOuQ2,,,,,,,,,,,,,,,,,,,,,,,5d62e141756469001948081a,16:41:28,27/03/2024
html-keyboard-response,147,326977,0.0-61.0,,"<div style=""font-size:100px;"">+</div>",,delaylearn,learning,ITI,vLQeEK1gXrhebwT2wsdO98lpOuQ2,vLQeEK1gXrhebwT2wsdO98lpOuQ2,,,,,,,,,,,,,,,,,,,1518.0,,,5d62e141756469001948081a,16:41:28,27/03/2024
html-keyboard-response,148,328127,0.0-62.0-0.0,1148.0,"<div style=""display: flex; flex-direction: column; align-items: center; margin-top: -40px;""><img src=""images/pattern_7.png"" style=""width: 234px; height: 230px; margin-top: -50px;""><div style=""display: flex; justify-content: space-between; margin-top: 33px;""><img src=""images/choice_trial_12.png"" style=""width: 408px; height: 417px; margin-right: 200px;""><img src=""images/choice_trial_6.png"" style=""width: 408px; height: 417px;""></div></div>",j,delaylearn,learning,trial,vLQeEK1gXrhebwT2wsdO98lpOuQ2,vLQeEK1gXrhebwT2wsdO98lpOuQ2,3.0,images/choice_trial_12.png,images/choice_trial_6.png,images/pattern_7.png,j,j,750.0,12.0,6.0,6.0,1.0,27.0,1.0,1.0,6.0,150.0,,,,,,5d62e141756469001948081a,16:41:28,27/03/2024
html-keyboard-response,149,329130,0.0-62.0-1.0,,"<div style=""display: flex; flex-direction: column; align-items: center; margin-top: -40px;""><img src=""images/pattern_7.png"" style=""width: 234px; height: 230px; margin-top: -50px;""><div style=""display: flex; justify-content: space-between; margin-top: 33px;""><img src=""images/choice_trial_6.png"" style=""width: 408px; height: 417px; margin-left:608px;""></div></div>",,delaylearn,learning,display_response,vLQeEK1gXrhebwT2wsdO98lpOuQ2,vLQeEK1gXrhebwT2wsdO98lpOuQ2,,,,,,,,,,,,,,,,,chosen stimuli: images/choice_trial_6.png,,,,,5d62e141756469001948081a,16:41:28,27/03/2024
html-keyboard-response,150,329883,0.0-62.0-2.0,,,,delaylearn,learning,feedback_duration_window,vLQeEK1gXrhebwT2wsdO98lpOuQ2,vLQeEK1gXrhebwT2wsdO98lpOuQ2,,,,,,,,,,,,,,,,,,750.0,,,,5d62e141756469001948081a,16:41:28,27/03/2024
html-keyboard-response,151,331385,0.0-62.0-3.0,,<div style='margin:auto;width: auto; font-size: 150%'><span style='font-weight: bold; font-size: 100px; color: green;'>+10 points!</span><br><br></div>,,delaylearn,learning,feedback_image_window,vLQeEK1gXrhebwT2wsdO98lpOuQ2,vLQeEK1gXrhebwT2wsdO98lpOuQ2,,,,,,,,,,,,,,,,,,,,,,5d62e141756469001948081a,16:41:28,27/03/2024
html-keyboard-response,152,331887,0.0-63.0-0.0,,,,,,mood_trial_fixation,vLQeEK1gXrhebwT2wsdO98lpOuQ2,,,,,,,,,,,,,,,,,,,,,,,5d62e141756469001948081a,16:41:28,27/03/2024
lmdlab-html-vas-response,153,335400,0.0-63.0-1.0,2507.0,How happy are you right now?,0.5962962962962963,delaylearn,learning,mood_trial,vLQeEK1gXrhebwT2wsdO98lpOuQ2,vLQeEK1gXrhebwT2wsdO98lpOuQ2,,,,,,,,,,,,,,,,,,,,"['Very unhappy', 'Very happy']",,5d62e141756469001948081a,16:41:28,27/03/2024
html-keyboard-response,154,337333,0.0-64.0,,"<div style=""font-size:100px;"">+</div>",,delaylearn,learning,ITI,vLQeEK1gXrhebwT2wsdO98lpOuQ2,vLQeEK1gXrhebwT2wsdO98lpOuQ2,,,,,,,,,,,,,,,,,,,1931.0,,,5d62e141756469001948081a,16:41:28,27/03/2024
html-keyboard-response,155,338983,0.0-65.0-0.0,1646.0,"<div style=""display: flex; flex-direction: column; align-items: center; margin-top: -40px;""><img src=""images/pattern_1.png"" style=""width: 234px; height: 230px; margin-top: -50px;""><div style=""display: flex; justify-content: space-between; margin-top: 33px;""><img src=""images/choice_trial_14.png"" style=""width: 408px; height: 417px; margin-right: 200px;""><img src=""images/choice_trial_8.png"" style=""width: 408px; height: 417px;""></div></div>",f,delaylearn,learning,trial,vLQeEK1gXrhebwT2wsdO98lpOuQ2,vLQeEK1gXrhebwT2wsdO98lpOuQ2,3.0,images/choice_trial_14.png,images/choice_trial_8.png,images/pattern_1.png,f,f,7000.0,14.0,8.0,1.0,0.0,28.0,1.0,1.0,14.0,160.0,,,,,,5d62e141756469001948081a,16:41:28,27/03/2024
html-keyboard-response,156,339986,0.0-65.0-1.0,,"<div style=""display: flex; flex-direction: column; align-items: center; margin-top: -40px;""><img src=""images/pattern_1.png"" style=""width: 234px; height: 230px; margin-top: -50px;""><div style=""display: flex; justify-content: space-between; margin-top: 33px;""><img src=""images/choice_trial_14.png"" style=""width: 408px; height: 417px; margin-right: 608px;""></div></div>",,delaylearn,learning,display_response,vLQeEK1gXrhebwT2wsdO98lpOuQ2,vLQeEK1gXrhebwT2wsdO98lpOuQ2,,,,,,,,,,,,,,,,,chosen stimuli: images/choice_trial_14.png,,,,,5d62e141756469001948081a,16:41:28,27/03/2024
html-keyboard-response,157,346987,0.0-65.0-2.0,,,,delaylearn,learning,feedback_duration_window,vLQeEK1gXrhebwT2wsdO98lpOuQ2,vLQeEK1gXrhebwT2wsdO98lpOuQ2,,,,,,,,,,,,,,,,,,7000.0,,,,5d62e141756469001948081a,16:41:28,27/03/2024
html-keyboard-response,158,348489,0.0-65.0-3.0,,<div style='margin:auto;width: auto; font-size: 150%'><span style='font-weight: bold; font-size: 100px; color: green;'>+10 points!</span><br><br></div>,,delaylearn,learning,feedback_image_window,vLQeEK1gXrhebwT2wsdO98lpOuQ2,vLQeEK1gXrhebwT2wsdO98lpOuQ2,,,,,,,,,,,,,,,,,,,,,,5d62e141756469001948081a,16:41:28,27/03/2024
html-keyboard-response,159,350246,0.0-66.0,,"<div style=""font-size:100px;"">+</div>",,delaylearn,learning,ITI,vLQeEK1gXrhebwT2wsdO98lpOuQ2,vLQeEK1gXrhebwT2wsdO98lpOuQ2,,,,,,,,,,,,,,,,,,,1755.0,,,5d62e141756469001948081a,16:41:28,27/03/2024
html-keyboard-response,160,351736,0.0-67.0-0.0,1487.0,"<div style=""display: flex; flex-direction: column; align-items: center; margin-top: -40px;""><img src=""images/pattern_5.png"" style=""width: 234px; height: 230px; margin-top: -50px;""><div style=""display: flex; justify-content: space-between; margin-top: 33px;""><img src=""images/choice_trial_11.png"" style=""width: 408px; height: 417px; margin-right: 200px;""><img src=""images/choice_trial_2.png"" style=""width: 408px; height: 417px;""></div></div>",j,delaylearn,learning,trial,vLQeEK1gXrhebwT2wsdO98lpOuQ2,vLQeEK1gXrhebwT2wsdO98lpOuQ2,3.0,images/choice_trial_11.png,images/choice_trial_2.png,images/pattern_5.png,f,f,750.0,11.0,2.0,4.0,0.0,29.0,0.0,0.0,2.0,160.0,,,,,,5d62e141756469001948081a,16:41:28,27/03/2024
html-keyboard-response,161,352738,0.0-67.0-1.0,,"<div style=""display: flex; flex-direction: column; align-items: center; margin-top: -40px;""><img src=""images/pattern_5.png"" style=""width: 234px; height: 230px; margin-top: -50px;""><div style=""display: flex; justify-content: space-between; margin-top: 33px;""><img src=""images/choice_trial_2.png"" style=""width: 408px; height: 417px; margin-left:608px;""></div></div>",,delaylearn,learning,display_response,vLQeEK1gXrhebwT2wsdO98lpOuQ2,vLQeEK1gXrhebwT2wsdO98lpOuQ2,,,,,,,,,,,,,,,,,chosen stimuli: images/choice_trial_2.png,,,,,5d62e141756469001948081a,16:41:28,27/03/2024
html-keyboard-response,162,353489,0.0-67.0-2.0,,,,delaylearn,learning,feedback_duration_window,vLQeEK1gXrhebwT2wsdO98lpOuQ2,vLQeEK1gXrhebwT2wsdO98lpOuQ2,,,,,,,,,,,,,,,,,,750.0,,,,5d62e141756469001948081a,16:41:28,27/03/2024
html-keyboard-response,163,354991,0.0-67.0-3.0,,<div style='margin:auto;width: auto; font-size: 150%'><span style='font-weight: bold; font-size: 100px; color: red;'>0 points!</span><br><br></div>,,delaylearn,learning,feedback_image_window,vLQeEK1gXrhebwT2wsdO98lpOuQ2,vLQeEK1gXrhebwT2wsdO98lpOuQ2,,,,,,,,,,,,,,,,,,,,,,5d62e141756469001948081a,16:41:28,27/03/2024
html-keyboard-response,164,356743,0.0-68.0,,"<div style=""font-size:100px;"">+</div>",,delaylearn,learning,ITI,vLQeEK1gXrhebwT2wsdO98lpOuQ2,vLQeEK1gXrhebwT2wsdO98lpOuQ2,,,,,,,,,,,,,,,,,,,1749.0,,,5d62e141756469001948081a,16:41:28,27/03/2024
html-keyboard-response,165,358439,0.0-69.0-0.0,1693.0,"<div style=""display: flex; flex-direction: column; align-items: center; margin-top: -40px;""><img src=""images/pattern_6.png"" style=""width: 234px; height: 230px; margin-top: -50px;""><div style=""display: flex; justify-content: space-between; margin-top: 33px;""><img src=""images/choice_trial_3.png"" style=""width: 408px; height: 417px; margin-right: 200px;""><img src=""images/choice_trial_16.png"" style=""width: 408px; height: 417px;""></div></div>",j,delaylearn,learning,trial,vLQeEK1gXrhebwT2wsdO98lpOuQ2,vLQeEK1gXrhebwT2wsdO98lpOuQ2,3.0,images/choice_trial_3.png,images/choice_trial_16.png,images/pattern_6.png,j,j,750.0,3.0,16.0,5.0,1.0,30.0,1.0,1.0,16.0,170.0,,,,,,5d62e141756469001948081a,16:41:28,27/03/2024
html-keyboard-response,166,359441,0.0-69.0-1.0,,"<div style=""display: flex; flex-direction: column; align-items: center; margin-top: -40px;""><img src=""images/pattern_6.png"" style=""width: 234px; height: 230px; margin-top: -50px;""><div style=""display: flex; justify-content: space-between; margin-top: 33px;""><img src=""images/choice_trial_16.png"" style=""width: 408px; height: 417px; margin-left:608px;""></div></div>",,delaylearn,learning,display_response,vLQeEK1gXrhebwT2wsdO98lpOuQ2,vLQeEK1gXrhebwT2wsdO98lpOuQ2,,,,,,,,,,,,,,,,,chosen stimuli: images/choice_trial_16.png,,,,,5d62e141756469001948081a,16:41:28,27/03/2024
html-keyboard-response,167,360192,0.0-69.0-2.0,,,,delaylearn,learning,feedback_duration_window,vLQeEK1gXrhebwT2wsdO98lpOuQ2,vLQeEK1gXrhebwT2wsdO98lpOuQ2,,,,,,,,,,,,,,,,,,750.0,,,,5d62e141756469001948081a,16:41:28,27/03/2024
html-keyboard-response,168,361694,0.0-69.0-3.0,,<div style='margin:auto;width: auto; font-size: 150%'><span style='font-weight: bold; font-size: 100px; color: green;'>+10 points!</span><br><br></div>,,delaylearn,learning,feedback_image_window,vLQeEK1gXrhebwT2wsdO98lpOuQ2,vLQeEK1gXrhebwT2wsdO98lpOuQ2,,,,,,,,,,,,,,,,,,,,,,5d62e141756469001948081a,16:41:28,27/03/2024
html-keyboard-response,169,362195,0.0-70.0-0.0,,,,,,mood_trial_fixation,vLQeEK1gXrhebwT2wsdO98lpOuQ2,,,,,,,,,,,,,,,,,,,,,,,5d62e141756469001948081a,16:41:28,27/03/2024
lmdlab-html-vas-response,170,365755,0.0-70.0-1.0,2551.0,How happy are you right now?,0.5777777777777777,delaylearn,learning,mood_trial,vLQeEK1gXrhebwT2wsdO98lpOuQ2,vLQeEK1gXrhebwT2wsdO98lpOuQ2,,,,,,,,,,,,,,,,,,,,"['Very unhappy', 'Very happy']",,5d62e141756469001948081a,16:41:28,27/03/2024
html-keyboard-response,171,367450,0.0-71.0,,"<div style=""font-size:100px;"">+</div>",,delaylearn,learning,ITI,vLQeEK1gXrhebwT2wsdO98lpOuQ2,vLQeEK1gXrhebwT2wsdO98lpOuQ2,,,,,,,,,,,,,,,,,,,1692.0,,,5d62e141756469001948081a,16:41:28,27/03/2024
html-keyboard-response,172,370057,0.0-72.0-0.0,2603.0,"<div style=""display: flex; flex-direction: column; align-items: center; margin-top: -40px;""><img src=""images/pattern_4.png"" style=""width: 234px; height: 230px; margin-top: -50px;""><div style=""display: flex; justify-content: space-between; margin-top: 33px;""><img src=""images/choice_trial_9.png"" style=""width: 408px; height: 417px; margin-right: 200px;""><img src=""images/choice_trial_15.png"" style=""width: 408px; height: 417px;""></div></div>",f,delaylearn,learning,trial,vLQeEK1gXrhebwT2wsdO98lpOuQ2,vLQeEK1gXrhebwT2wsdO98lpOuQ2,3.0,images/choice_trial_9.png,images/choice_trial_15.png,images/pattern_4.png,j,j,7000.0,9.0,15.0,3.0,1.0,31.0,0.0,0.0,9.0,170.0,,,,,,5d62e141756469001948081a,16:41:28,27/03/2024
html-keyboard-response,173,371058,0.0-72.0-1.0,,"<div style=""display: flex; flex-direction: column; align-items: center; margin-top: -40px;""><img src=""images/pattern_4.png"" style=""width: 234px; height: 230px; margin-top: -50px;""><div style=""display: flex; justify-content: space-between; margin-top: 33px;""><img src=""images/choice_trial_9.png"" style=""width: 408px; height: 417px; margin-right: 608px;""></div></div>",,delaylearn,learning,display_response,vLQeEK1gXrhebwT2wsdO98lpOuQ2,vLQeEK1gXrhebwT2wsdO98lpOuQ2,,,,,,,,,,,,,,,,,chosen stimuli: images/choice_trial_9.png,,,,,5d62e141756469001948081a,16:41:28,27/03/2024
html-keyboard-response,174,378060,0.0-72.0-2.0,,,,delaylearn,learning,feedback_duration_window,vLQeEK1gXrhebwT2wsdO98lpOuQ2,vLQeEK1gXrhebwT2wsdO98lpOuQ2,,,,,,,,,,,,,,,,,,7000.0,,,,5d62e141756469001948081a,16:41:28,27/03/2024
html-keyboard-response,175,379562,0.0-72.0-3.0,,<div style='margin:auto;width: auto; font-size: 150%'><span style='font-weight: bold; font-size: 100px; color: red;'>0 points!</span><br><br></div>,,delaylearn,learning,feedback_image_window,vLQeEK1gXrhebwT2wsdO98lpOuQ2,vLQeEK1gXrhebwT2wsdO98lpOuQ2,,,,,,,,,,,,,,,,,,,,,,5d62e141756469001948081a,16:41:28,27/03/2024
html-keyboard-response,176,381135,0.0-73.0,,"<div style=""font-size:100px;"">+</div>",,delaylearn,learning,ITI,vLQeEK1gXrhebwT2wsdO98lpOuQ2,vLQeEK1gXrhebwT2wsdO98lpOuQ2,,,,,,,,,,,,,,,,,,,1571.0,,,5d62e141756469001948081a,16:41:28,27/03/2024
html-keyboard-response,177,382511,0.0-74.0-0.0,1374.0,"<div style=""display: flex; flex-direction: column; align-items: center; margin-top: -40px;""><img src=""images/pattern_3.png"" style=""width: 234px; height: 230px; margin-top: -50px;""><div style=""display: flex; justify-content: space-between; margin-top: 33px;""><img src=""images/choice_trial_10.png"" style=""width: 408px; height: 417px; margin-right: 200px;""><img src=""images/choice_trial_13.png"" style=""width: 408px; height: 417px;""></div></div>",j,delaylearn,learning,trial,vLQeEK1gXrhebwT2wsdO98lpOuQ2,vLQeEK1gXrhebwT2wsdO98lpOuQ2,3.0,images/choice_trial_10.png,images/choice_trial_13.png,images/pattern_3.png,j,j,7000.0,10.0,13.0,2.0,1.0,32.0,1.0,1.0,13.0,180.0,,,,,,5d62e141756469001948081a,16:41:28,27/03/2024
html-keyboard-response,178,383528,0.0-74.0-1.0,,"<div style=""display: flex; flex-direction: column; align-items: center; margin-top: -40px;""><img src=""images/pattern_3.png"" style=""width: 234px; height: 230px; margin-top: -50px;""><div style=""display: flex; justify-content: space-between; margin-top: 33px;""><img src=""images/choice_trial_13.png"" style=""width: 408px; height: 417px; margin-left:608px;""></div></div>",,delaylearn,learning,display_response,vLQeEK1gXrhebwT2wsdO98lpOuQ2,vLQeEK1gXrhebwT2wsdO98lpOuQ2,,,,,,,,,,,,,,,,,chosen stimuli: images/choice_trial_13.png,,,,,5d62e141756469001948081a,16:41:28,27/03/2024
html-keyboard-response,179,390529,0.0-74.0-2.0,,,,delaylearn,learning,feedback_duration_window,vLQeEK1gXrhebwT2wsdO98lpOuQ2,vLQeEK1gXrhebwT2wsdO98lpOuQ2,,,,,,,,,,,,,,,,,,7000.0,,,,5d62e141756469001948081a,16:41:28,27/03/2024
html-keyboard-response,180,392031,0.0-74.0-3.0,,<div style='margin:auto;width: auto; font-size: 150%'><span style='font-weight: bold; font-size: 100px; color: green;'>+10 points!</span><br><br></div>,,delaylearn,learning,feedback_image_window,vLQeEK1gXrhebwT2wsdO98lpOuQ2,vLQeEK1gXrhebwT2wsdO98lpOuQ2,,,,,,,,,,,,,,,,,,,,,,5d62e141756469001948081a,16:41:28,27/03/2024
html-keyboard-response,181,394369,0.0-75.0,,"<div style=""font-size:100px;"">+</div>",,delaylearn,learning,ITI,vLQeEK1gXrhebwT2wsdO98lpOuQ2,vLQeEK1gXrhebwT2wsdO98lpOuQ2,,,,,,,,,,,,,,,,,,,2336.0,,,5d62e141756469001948081a,16:41:28,27/03/2024
html-keyboard-response,182,396174,0.0-76.0-0.0,1801.0,"<div style=""display: flex; flex-direction: column; align-items: center; margin-top: -40px;""><img src=""images/pattern_5.png"" style=""width: 234px; height: 230px; margin-top: -50px;""><div style=""display: flex; justify-content: space-between; margin-top: 33px;""><img src=""images/choice_trial_11.png"" style=""width: 408px; height: 417px; margin-right: 200px;""><img src=""images/choice_trial_2.png"" style=""width: 408px; height: 417px;""></div></div>",f,delaylearn,learning,trial,vLQeEK1gXrhebwT2wsdO98lpOuQ2,vLQeEK1gXrhebwT2wsdO98lpOuQ2,3.0,images/choice_trial_11.png,images/choice_trial_2.png,images/pattern_5.png,j,f,750.0,11.0,2.0,4.0,0.0,33.0,1.0,0.0,11.0,180.0,,,,,,5d62e141756469001948081a,16:41:28,27/03/2024
html-keyboard-response,183,397176,0.0-76.0-1.0,,"<div style=""display: flex; flex-direction: column; align-items: center; margin-top: -40px;""><img src=""images/pattern_5.png"" style=""width: 234px; height: 230px; margin-top: -50px;""><div style=""display: flex; justify-content: space-between; margin-top: 33px;""><img src=""images/choice_trial_11.png"" style=""width: 408px; height: 417px; margin-right: 608px;""></div></div>",,delaylearn,learning,display_response,vLQeEK1gXrhebwT2wsdO98lpOuQ2,vLQeEK1gXrhebwT2wsdO98lpOuQ2,,,,,,,,,,,,,,,,,chosen stimuli: images/choice_trial_11.png,,,,,5d62e141756469001948081a,16:41:28,27/03/2024
html-keyboard-response,184,397927,0.0-76.0-2.0,,,,delaylearn,learning,feedback_duration_window,vLQeEK1gXrhebwT2wsdO98lpOuQ2,vLQeEK1gXrhebwT2wsdO98lpOuQ2,,,,,,,,,,,,,,,,,,750.0,,,,5d62e141756469001948081a,16:41:28,27/03/2024
html-keyboard-response,185,399429,0.0-76.0-3.0,,<div style='margin:auto;width: auto; font-size: 150%'><span style='font-weight: bold; font-size: 100px; color: red;'>0 points!</span><br><br></div>,,delaylearn,learning,feedback_image_window,vLQeEK1gXrhebwT2wsdO98lpOuQ2,vLQeEK1gXrhebwT2wsdO98lpOuQ2,,,,,,,,,,,,,,,,,,,,,,5d62e141756469001948081a,16:41:28,27/03/2024
html-keyboard-response,186,401465,0.0-77.0,,"<div style=""font-size:100px;"">+</div>",,delaylearn,learning,ITI,vLQeEK1gXrhebwT2wsdO98lpOuQ2,vLQeEK1gXrhebwT2wsdO98lpOuQ2,,,,,,,,,,,,,,,,,,,2034.0,,,5d62e141756469001948081a,16:41:28,27/03/2024
html-keyboard-response,187,402960,0.0-78.0-0.0,1491.0,"<div style=""display: flex; flex-direction: column; align-items: center; margin-top: -40px;""><img src=""images/pattern_1.png"" style=""width: 234px; height: 230px; margin-top: -50px;""><div style=""display: flex; justify-content: space-between; margin-top: 33px;""><img src=""images/choice_trial_14.png"" style=""width: 408px; height: 417px; margin-right: 200px;""><img src=""images/choice_trial_8.png"" style=""width: 408px; height: 417px;""></div></div>",f,delaylearn,learning,trial,vLQeEK1gXrhebwT2wsdO98lpOuQ2,vLQeEK1gXrhebwT2wsdO98lpOuQ2,3.0,images/choice_trial_14.png,images/choice_trial_8.png,images/pattern_1.png,f,f,7000.0,14.0,8.0,1.0,0.0,34.0,1.0,1.0,14.0,190.0,,,,,,5d62e141756469001948081a,16:41:28,27/03/2024
html-keyboard-response,188,403963,0.0-78.0-1.0,,"<div style=""display: flex; flex-direction: column; align-items: center; margin-top: -40px;""><img src=""images/pattern_1.png"" style=""width: 234px; height: 230px; margin-top: -50px;""><div style=""display: flex; justify-content: space-between; margin-top: 33px;""><img src=""images/choice_trial_14.png"" style=""width: 408px; height: 417px; margin-right: 608px;""></div></div>",,delaylearn,learning,display_response,vLQeEK1gXrhebwT2wsdO98lpOuQ2,vLQeEK1gXrhebwT2wsdO98lpOuQ2,,,,,,,,,,,,,,,,,chosen stimuli: images/choice_trial_14.png,,,,,5d62e141756469001948081a,16:41:28,27/03/2024
html-keyboard-response,189,410965,0.0-78.0-2.0,,,,delaylearn,learning,feedback_duration_window,vLQeEK1gXrhebwT2wsdO98lpOuQ2,vLQeEK1gXrhebwT2wsdO98lpOuQ2,,,,,,,,,,,,,,,,,,7000.0,,,,5d62e141756469001948081a,16:41:28,27/03/2024
html-keyboard-response,190,412467,0.0-78.0-3.0,,<div style='margin:auto;width: auto; font-size: 150%'><span style='font-weight: bold; font-size: 100px; color: green;'>+10 points!</span><br><br></div>,,delaylearn,learning,feedback_image_window,vLQeEK1gXrhebwT2wsdO98lpOuQ2,vLQeEK1gXrhebwT2wsdO98lpOuQ2,,,,,,,,,,,,,,,,,,,,,,5d62e141756469001948081a,16:41:28,27/03/2024
html-keyboard-response,191,412968,0.0-79.0-0.0,,,,,,mood_trial_fixation,vLQeEK1gXrhebwT2wsdO98lpOuQ2,,,,,,,,,,,,,,,,,,,,,,,5d62e141756469001948081a,16:41:28,27/03/2024
lmdlab-html-vas-response,192,416856,0.0-79.0-1.0,2883.0,How happy are you right now?,0.5518518518518518,delaylearn,learning,mood_trial,vLQeEK1gXrhebwT2wsdO98lpOuQ2,vLQeEK1gXrhebwT2wsdO98lpOuQ2,,,,,,,,,,,,,,,,,,,,"['Very unhappy', 'Very happy']",,5d62e141756469001948081a,16:41:28,27/03/2024
html-keyboard-response,193,418611,0.0-80.0,,"<div style=""font-size:100px;"">+</div>",,delaylearn,learning,ITI,vLQeEK1gXrhebwT2wsdO98lpOuQ2,vLQeEK1gXrhebwT2wsdO98lpOuQ2,,,,,,,,,,,,,,,,,,,1753.0,,,5d62e141756469001948081a,16:41:28,27/03/2024
html-keyboard-response,194,419979,0.0-81.0-0.0,1364.9999999998836,"<div style=""display: flex; flex-direction: column; align-items: center; margin-top: -40px;""><img src=""images/pattern_6.png"" style=""width: 234px; height: 230px; margin-top: -50px;""><div style=""display: flex; justify-content: space-between; margin-top: 33px;""><img src=""images/choice_trial_16.png"" style=""width: 408px; height: 417px; margin-right: 200px;""><img src=""images/choice_trial_3.png"" style=""width: 408px; height: 417px;""></div></div>",f,delaylearn,learning,trial,vLQeEK1gXrhebwT2wsdO98lpOuQ2,vLQeEK1gXrhebwT2wsdO98lpOuQ2,3.0,images/choice_trial_16.png,images/choice_trial_3.png,images/pattern_6.png,j,f,750.0,16.0,3.0,5.0,0.0,35.0,1.0,0.0,16.0,190.0,,,,,,5d62e141756469001948081a,16:41:28,27/03/2024
html-keyboard-response,195,420981,0.0-81.0-1.0,,"<div style=""display: flex; flex-direction: column; align-items: center; margin-top: -40px;""><img src=""images/pattern_6.png"" style=""width: 234px; height: 230px; margin-top: -50px;""><div style=""display: flex; justify-content: space-between; margin-top: 33px;""><img src=""images/choice_trial_16.png"" style=""width: 408px; height: 417px; margin-right: 608px;""></div></div>",,delaylearn,learning,display_response,vLQeEK1gXrhebwT2wsdO98lpOuQ2,vLQeEK1gXrhebwT2wsdO98lpOuQ2,,,,,,,,,,,,,,,,,chosen stimuli: images/choice_trial_16.png,,,,,5d62e141756469001948081a,16:41:28,27/03/2024
html-keyboard-response,196,421733,0.0-81.0-2.0,,,,delaylearn,learning,feedback_duration_window,vLQeEK1gXrhebwT2wsdO98lpOuQ2,vLQeEK1gXrhebwT2wsdO98lpOuQ2,,,,,,,,,,,,,,,,,,750.0,,,,5d62e141756469001948081a,16:41:28,27/03/2024
html-keyboard-response,197,423235,0.0-81.0-3.0,,<div style='margin:auto;width: auto; font-size: 150%'><span style='font-weight: bold; font-size: 100px; color: red;'>0 points!</span><br><br></div>,,delaylearn,learning,feedback_image_window,vLQeEK1gXrhebwT2wsdO98lpOuQ2,vLQeEK1gXrhebwT2wsdO98lpOuQ2,,,,,,,,,,,,,,,,,,,,,,5d62e141756469001948081a,16:41:28,27/03/2024
html-keyboard-response,198,425185,0.0-82.0,,"<div style=""font-size:100px;"">+</div>",,delaylearn,learning,ITI,vLQeEK1gXrhebwT2wsdO98lpOuQ2,vLQeEK1gXrhebwT2wsdO98lpOuQ2,,,,,,,,,,,,,,,,,,,1949.0,,,5d62e141756469001948081a,16:41:28,27/03/2024
html-keyboard-response,199,426076,0.0-83.0-0.0,888.0,"<div style=""display: flex; flex-direction: column; align-items: center; margin-top: -40px;""><img src=""images/pattern_3.png"" style=""width: 234px; height: 230px; margin-top: -50px;""><div style=""display: flex; justify-content: space-between; margin-top: 33px;""><img src=""images/choice_trial_10.png"" style=""width: 408px; height: 417px; margin-right: 200px;""><img src=""images/choice_trial_13.png"" style=""width: 408px; height: 417px;""></div></div>",j,delaylearn,learning,trial,vLQeEK1gXrhebwT2wsdO98lpOuQ2,vLQeEK1gXrhebwT2wsdO98lpOuQ2,3.0,images/choice_trial_10.png,images/choice_trial_13.png,images/pattern_3.png,j,j,7000.0,10.0,13.0,2.0,1.0,36.0,1.0,1.0,13.0,200.0,,,,,,5d62e141756469001948081a,16:41:28,27/03/2024
html-keyboard-response,200,427079,0.0-83.0-1.0,,"<div style=""display: flex; flex-direction: column; align-items: center; margin-top: -40px;""><img src=""images/pattern_3.png"" style=""width: 234px; height: 230px; margin-top: -50px;""><div style=""display: flex; justify-content: space-between; margin-top: 33px;""><img src=""images/choice_trial_13.png"" style=""width: 408px; height: 417px; margin-left:608px;""></div></div>",,delaylearn,learning,display_response,vLQeEK1gXrhebwT2wsdO98lpOuQ2,vLQeEK1gXrhebwT2wsdO98lpOuQ2,,,,,,,,,,,,,,,,,chosen stimuli: images/choice_trial_13.png,,,,,5d62e141756469001948081a,16:41:28,27/03/2024
html-keyboard-response,201,434080,0.0-83.0-2.0,,,,delaylearn,learning,feedback_duration_window,vLQeEK1gXrhebwT2wsdO98lpOuQ2,vLQeEK1gXrhebwT2wsdO98lpOuQ2,,,,,,,,,,,,,,,,,,7000.0,,,,5d62e141756469001948081a,16:41:28,27/03/2024
html-keyboard-response,202,435582,0.0-83.0-3.0,,<div style='margin:auto;width: auto; font-size: 150%'><span style='font-weight: bold; font-size: 100px; color: green;'>+10 points!</span><br><br></div>,,delaylearn,learning,feedback_image_window,vLQeEK1gXrhebwT2wsdO98lpOuQ2,vLQeEK1gXrhebwT2wsdO98lpOuQ2,,,,,,,,,,,,,,,,,,,,,,5d62e141756469001948081a,16:41:28,27/03/2024
html-keyboard-response,203,437131,0.0-84.0,,"<div style=""font-size:100px;"">+</div>",,delaylearn,learning,ITI,vLQeEK1gXrhebwT2wsdO98lpOuQ2,vLQeEK1gXrhebwT2wsdO98lpOuQ2,,,,,,,,,,,,,,,,,,,1548.0,,,5d62e141756469001948081a,16:41:28,27/03/2024
html-keyboard-response,204,437991,0.0-85.0-0.0,857.0,"<div style=""display: flex; flex-direction: column; align-items: center; margin-top: -40px;""><img src=""images/pattern_4.png"" style=""width: 234px; height: 230px; margin-top: -50px;""><div style=""display: flex; justify-content: space-between; margin-top: 33px;""><img src=""images/choice_trial_9.png"" style=""width: 408px; height: 417px; margin-right: 200px;""><img src=""images/choice_trial_15.png"" style=""width: 408px; height: 417px;""></div></div>",j,delaylearn,learning,trial,vLQeEK1gXrhebwT2wsdO98lpOuQ2,vLQeEK1gXrhebwT2wsdO98lpOuQ2,3.0,images/choice_trial_9.png,images/choice_trial_15.png,images/pattern_4.png,f,j,7000.0,9.0,15.0,3.0,1.0,37.0,1.0,0.0,15.0,200.0,,,,,,5d62e141756469001948081a,16:41:28,27/03/2024
html-keyboard-response,205,438994,0.0-85.0-1.0,,"<div style=""display: flex; flex-direction: column; align-items: center; margin-top: -40px;""><img src=""images/pattern_4.png"" style=""width: 234px; height: 230px; margin-top: -50px;""><div style=""display: flex; justify-content: space-between; margin-top: 33px;""><img src=""images/choice_trial_15.png"" style=""width: 408px; height: 417px; margin-left:608px;""></div></div>",,delaylearn,learning,display_response,vLQeEK1gXrhebwT2wsdO98lpOuQ2,vLQeEK1gXrhebwT2wsdO98lpOuQ2,,,,,,,,,,,,,,,,,chosen stimuli: images/choice_trial_15.png,,,,,5d62e141756469001948081a,16:41:28,27/03/2024
html-keyboard-response,206,445996,0.0-85.0-2.0,,,,delaylearn,learning,feedback_duration_window,vLQeEK1gXrhebwT2wsdO98lpOuQ2,vLQeEK1gXrhebwT2wsdO98lpOuQ2,,,,,,,,,,,,,,,,,,7000.0,,,,5d62e141756469001948081a,16:41:28,27/03/2024
html-keyboard-response,207,447498,0.0-85.0-3.0,,<div style='margin:auto;width: auto; font-size: 150%'><span style='font-weight: bold; font-size: 100px; color: red;'>0 points!</span><br><br></div>,,delaylearn,learning,feedback_image_window,vLQeEK1gXrhebwT2wsdO98lpOuQ2,vLQeEK1gXrhebwT2wsdO98lpOuQ2,,,,,,,,,,,,,,,,,,,,,,5d62e141756469001948081a,16:41:28,27/03/2024
html-keyboard-response,208,449256,0.0-86.0,,"<div style=""font-size:100px;"">+</div>",,delaylearn,learning,ITI,vLQeEK1gXrhebwT2wsdO98lpOuQ2,vLQeEK1gXrhebwT2wsdO98lpOuQ2,,,,,,,,,,,,,,,,,,,1755.0,,,5d62e141756469001948081a,16:41:28,27/03/2024
html-keyboard-response,209,450627,0.0-87.0-0.0,1368.0,"<div style=""display: flex; flex-direction: column; align-items: center; margin-top: -40px;""><img src=""images/pattern_7.png"" style=""width: 234px; height: 230px; margin-top: -50px;""><div style=""display: flex; justify-content: space-between; margin-top: 33px;""><img src=""images/choice_trial_6.png"" style=""width: 408px; height: 417px; margin-right: 200px;""><img src=""images/choice_trial_12.png"" style=""width: 408px; height: 417px;""></div></div>",f,delaylearn,learning,trial,vLQeEK1gXrhebwT2wsdO98lpOuQ2,vLQeEK1gXrhebwT2wsdO98lpOuQ2,3.0,images/choice_trial_6.png,images/choice_trial_12.png,images/pattern_7.png,f,f,750.0,6.0,12.0,6.0,0.0,38.0,1.0,1.0,6.0,210.0,,,,,,5d62e141756469001948081a,16:41:28,27/03/2024
html-keyboard-response,210,451630,0.0-87.0-1.0,,"<div style=""display: flex; flex-direction: column; align-items: center; margin-top: -40px;""><img src=""images/pattern_7.png"" style=""width: 234px; height: 230px; margin-top: -50px;""><div style=""display: flex; justify-content: space-between; margin-top: 33px;""><img src=""images/choice_trial_6.png"" style=""width: 408px; height: 417px; margin-right: 608px;""></div></div>",,delaylearn,learning,display_response,vLQeEK1gXrhebwT2wsdO98lpOuQ2,vLQeEK1gXrhebwT2wsdO98lpOuQ2,,,,,,,,,,,,,,,,,chosen stimuli: images/choice_trial_6.png,,,,,5d62e141756469001948081a,16:41:28,27/03/2024
html-keyboard-response,211,452381,0.0-87.0-2.0,,,,delaylearn,learning,feedback_duration_window,vLQeEK1gXrhebwT2wsdO98lpOuQ2,vLQeEK1gXrhebwT2wsdO98lpOuQ2,,,,,,,,,,,,,,,,,,750.0,,,,5d62e141756469001948081a,16:41:28,27/03/2024
html-keyboard-response,212,453883,0.0-87.0-3.0,,<div style='margin:auto;width: auto; font-size: 150%'><span style='font-weight: bold; font-size: 100px; color: green;'>+10 points!</span><br><br></div>,,delaylearn,learning,feedback_image_window,vLQeEK1gXrhebwT2wsdO98lpOuQ2,vLQeEK1gXrhebwT2wsdO98lpOuQ2,,,,,,,,,,,,,,,,,,,,,,5d62e141756469001948081a,16:41:28,27/03/2024
html-keyboard-response,213,455898,0.0-88.0,,"<div style=""font-size:100px;"">+</div>",,delaylearn,learning,ITI,vLQeEK1gXrhebwT2wsdO98lpOuQ2,vLQeEK1gXrhebwT2wsdO98lpOuQ2,,,,,,,,,,,,,,,,,,,2013.0,,,5d62e141756469001948081a,16:41:28,27/03/2024
html-keyboard-response,214,457674,0.0-89.0-0.0,1773.0,"<div style=""display: flex; flex-direction: column; align-items: center; margin-top: -40px;""><img src=""images/pattern_1.png"" style=""width: 234px; height: 230px; margin-top: -50px;""><div style=""display: flex; justify-content: space-between; margin-top: 33px;""><img src=""images/choice_trial_14.png"" style=""width: 408px; height: 417px; margin-right: 200px;""><img src=""images/choice_trial_8.png"" style=""width: 408px; height: 417px;""></div></div>",f,delaylearn,learning,trial,vLQeEK1gXrhebwT2wsdO98lpOuQ2,vLQeEK1gXrhebwT2wsdO98lpOuQ2,3.0,images/choice_trial_14.png,images/choice_trial_8.png,images/pattern_1.png,f,f,7000.0,14.0,8.0,1.0,0.0,39.0,1.0,1.0,14.0,220.0,,,,,,5d62e141756469001948081a,16:41:28,27/03/2024
html-keyboard-response,215,458676,0.0-89.0-1.0,,"<div style=""display: flex; flex-direction: column; align-items: center; margin-top: -40px;""><img src=""images/pattern_1.png"" style=""width: 234px; height: 230px; margin-top: -50px;""><div style=""display: flex; justify-content: space-between; margin-top: 33px;""><img src=""images/choice_trial_14.png"" style=""width: 408px; height: 417px; margin-right: 608px;""></div></div>",,delaylearn,learning,display_response,vLQeEK1gXrhebwT2wsdO98lpOuQ2,vLQeEK1gXrhebwT2wsdO98lpOuQ2,,,,,,,,,,,,,,,,,chosen stimuli: images/choice_trial_14.png,,,,,5d62e141756469001948081a,16:41:28,27/03/2024
html-keyboard-response,216,465677,0.0-89.0-2.0,,,,delaylearn,learning,feedback_duration_window,vLQeEK1gXrhebwT2wsdO98lpOuQ2,vLQeEK1gXrhebwT2wsdO98lpOuQ2,,,,,,,,,,,,,,,,,,7000.0,,,,5d62e141756469001948081a,16:41:28,27/03/2024
html-keyboard-response,217,467179,0.0-89.0-3.0,,<div style='margin:auto;width: auto; font-size: 150%'><span style='font-weight: bold; font-size: 100px; color: green;'>+10 points!</span><br><br></div>,,delaylearn,learning,feedback_image_window,vLQeEK1gXrhebwT2wsdO98lpOuQ2,vLQeEK1gXrhebwT2wsdO98lpOuQ2,,,,,,,,,,,,,,,,,,,,,,5d62e141756469001948081a,16:41:28,27/03/2024
html-keyboard-response,218,467681,0.0-90.0-0.0,,,,,,mood_trial_fixation,vLQeEK1gXrhebwT2wsdO98lpOuQ2,,,,,,,,,,,,,,,,,,,,,,,5d62e141756469001948081a,16:41:28,27/03/2024
lmdlab-html-vas-response,219,471688,0.0-90.0-1.0,3002.0,How happy are you right now?,0.5666666666666667,delaylearn,learning,mood_trial,vLQeEK1gXrhebwT2wsdO98lpOuQ2,vLQeEK1gXrhebwT2wsdO98lpOuQ2,,,,,,,,,,,,,,,,,,,,"['Very unhappy', 'Very happy']",,5d62e141756469001948081a,16:41:28,27/03/2024
html-keyboard-response,220,473759,0.0-91.0,,"<div style=""font-size:100px;"">+</div>",,delaylearn,learning,ITI,vLQeEK1gXrhebwT2wsdO98lpOuQ2,vLQeEK1gXrhebwT2wsdO98lpOuQ2,,,,,,,,,,,,,,,,,,,2070.0,,,5d62e141756469001948081a,16:41:28,27/03/2024
html-keyboard-response,221,474699,0.0-92.0-0.0,937.0,"<div style=""display: flex; flex-direction: column; align-items: center; margin-top: -40px;""><img src=""images/pattern_3.png"" style=""width: 234px; height: 230px; margin-top: -50px;""><div style=""display: flex; justify-content: space-between; margin-top: 33px;""><img src=""images/choice_trial_13.png"" style=""width: 408px; height: 417px; margin-right: 200px;""><img src=""images/choice_trial_10.png"" style=""width: 408px; height: 417px;""></div></div>",f,delaylearn,learning,trial,vLQeEK1gXrhebwT2wsdO98lpOuQ2,vLQeEK1gXrhebwT2wsdO98lpOuQ2,3.0,images/choice_trial_13.png,images/choice_trial_10.png,images/pattern_3.png,j,f,7000.0,13.0,10.0,2.0,0.0,40.0,1.0,0.0,13.0,220.0,,,,,,5d62e141756469001948081a,16:41:28,27/03/2024
html-keyboard-response,222,475702,0.0-92.0-1.0,,"<div style=""display: flex; flex-direction: column; align-items: center; margin-top: -40px;""><img src=""images/pattern_3.png"" style=""width: 234px; height: 230px; margin-top: -50px;""><div style=""display: flex; justify-content: space-between; margin-top: 33px;""><img src=""images/choice_trial_13.png"" style=""width: 408px; height: 417px; margin-right: 608px;""></div></div>",,delaylearn,learning,display_response,vLQeEK1gXrhebwT2wsdO98lpOuQ2,vLQeEK1gXrhebwT2wsdO98lpOuQ2,,,,,,,,,,,,,,,,,chosen stimuli: images/choice_trial_13.png,,,,,5d62e141756469001948081a,16:41:28,27/03/2024
html-keyboard-response,223,482703,0.0-92.0-2.0,,,,delaylearn,learning,feedback_duration_window,vLQeEK1gXrhebwT2wsdO98lpOuQ2,vLQeEK1gXrhebwT2wsdO98lpOuQ2,,,,,,,,,,,,,,,,,,7000.0,,,,5d62e141756469001948081a,16:41:28,27/03/2024
html-keyboard-response,224,484204,0.0-92.0-3.0,,<div style='margin:auto;width: auto; font-size: 150%'><span style='font-weight: bold; font-size: 100px; color: red;'>0 points!</span><br><br></div>,,delaylearn,learning,feedback_image_window,vLQeEK1gXrhebwT2wsdO98lpOuQ2,vLQeEK1gXrhebwT2wsdO98lpOuQ2,,,,,,,,,,,,,,,,,,,,,,5d62e141756469001948081a,16:41:28,27/03/2024
html-keyboard-response,225,485882,0.0-93.0,,"<div style=""font-size:100px;"">+</div>",,delaylearn,learning,ITI,vLQeEK1gXrhebwT2wsdO98lpOuQ2,vLQeEK1gXrhebwT2wsdO98lpOuQ2,,,,,,,,,,,,,,,,,,,1677.0,,,5d62e141756469001948081a,16:41:28,27/03/2024
html-keyboard-response,226,486737,0.0-94.0-0.0,854.0,"<div style=""display: flex; flex-direction: column; align-items: center; margin-top: -40px;""><img src=""images/pattern_7.png"" style=""width: 234px; height: 230px; margin-top: -50px;""><div style=""display: flex; justify-content: space-between; margin-top: 33px;""><img src=""images/choice_trial_12.png"" style=""width: 408px; height: 417px; margin-right: 200px;""><img src=""images/choice_trial_6.png"" style=""width: 408px; height: 417px;""></div></div>",j,delaylearn,learning,trial,vLQeEK1gXrhebwT2wsdO98lpOuQ2,vLQeEK1gXrhebwT2wsdO98lpOuQ2,3.0,images/choice_trial_12.png,images/choice_trial_6.png,images/pattern_7.png,j,j,750.0,12.0,6.0,6.0,1.0,41.0,1.0,1.0,6.0,230.0,,,,,,5d62e141756469001948081a,16:41:28,27/03/2024
html-keyboard-response,227,487738,0.0-94.0-1.0,,"<div style=""display: flex; flex-direction: column; align-items: center; margin-top: -40px;""><img src=""images/pattern_7.png"" style=""width: 234px; height: 230px; margin-top: -50px;""><div style=""display: flex; justify-content: space-between; margin-top: 33px;""><img src=""images/choice_trial_6.png"" style=""width: 408px; height: 417px; margin-left:608px;""></div></div>",,delaylearn,learning,display_response,vLQeEK1gXrhebwT2wsdO98lpOuQ2,vLQeEK1gXrhebwT2wsdO98lpOuQ2,,,,,,,,,,,,,,,,,chosen stimuli: images/choice_trial_6.png,,,,,5d62e141756469001948081a,16:41:28,27/03/2024
html-keyboard-response,228,488490,0.0-94.0-2.0,,,,delaylearn,learning,feedback_duration_window,vLQeEK1gXrhebwT2wsdO98lpOuQ2,vLQeEK1gXrhebwT2wsdO98lpOuQ2,,,,,,,,,,,,,,,,,,750.0,,,,5d62e141756469001948081a,16:41:28,27/03/2024
html-keyboard-response,229,489991,0.0-94.0-3.0,,<div style='margin:auto;width: auto; font-size: 150%'><span style='font-weight: bold; font-size: 100px; color: green;'>+10 points!</span><br><br></div>,,delaylearn,learning,feedback_image_window,vLQeEK1gXrhebwT2wsdO98lpOuQ2,vLQeEK1gXrhebwT2wsdO98lpOuQ2,,,,,,,,,,,,,,,,,,,,,,5d62e141756469001948081a,16:41:28,27/03/2024
html-keyboard-response,230,492259,0.0-95.0,,"<div style=""font-size:100px;"">+</div>",,delaylearn,learning,ITI,vLQeEK1gXrhebwT2wsdO98lpOuQ2,vLQeEK1gXrhebwT2wsdO98lpOuQ2,,,,,,,,,,,,,,,,,,,2267.0,,,5d62e141756469001948081a,16:41:28,27/03/2024
