trial_type,trial_index,time_elapsed,internal_node_id,rt,stimulus,response,exp_name,exp_stage,test_part,subjectID,databaseID,counterbal,choice_stimuli_1,choice_stimuli_2,pattern_stimuli,rewarded_answer,correct_answer,feedback_duration_times,stim_left,stim_right,pair,leftright_counter,trial,response_correct,response_rewarded,chosen_stim,counter,displayed_choice,feedback_durations,ITI_duration,labels,rest_warning,prolificID,start_time,date
pavlovia,0,503,0.0-0.0,,,,,,,D9fpXvBlJSQiR1QRKmZavfbe4tk1,,,,,,,,,,,,,,,,,,,,,,,5e80b109ca1800791e1ca40c,16:40:20,27/03/2024
html-keyboard-response,1,3515,0.0-1.0,,"<div style=""font-size:100px;"">+</div>",,delaylearn,learning,pre_fixation,D9fpXvBlJSQiR1QRKmZavfbe4tk1,,,,,,,,,,,,,,,,,,,,,,,5e80b109ca1800791e1ca40c,16:40:20,27/03/2024
html-keyboard-response,2,4918,0.0-2.0-0.0,1400.7999999523163,"<div style=""display: flex; flex-direction: column; align-items: center; margin-top: -40px;""><img src=""images/demo_images/pattern_1.png"" style=""width: 234px; height: 230px; margin-top: -50px;""><div style=""display: flex; justify-content: space-between; margin-top: 33px;""><img src=""images/demo_images/choice_trial_2.png"" style=""width: 408px; height: 417px; margin-right: 200px;""><img src=""images/demo_images/choice_trial_1.png"" style=""width: 408px; height: 417px;""></div></div>",f,delaylearn,learning,trial,D9fpXvBlJSQiR1QRKmZavfbe4tk1,D9fpXvBlJSQiR1QRKmZavfbe4tk1,5.0,images/demo_images/choice_trial_2.png,images/demo_images/choice_trial_1.png,images/demo_images/pattern_1.png,j,j,3000.0,2.0,1.0,20.0,1.0,1.0,0.0,0.0,2.0,0.0,,,,,,5e80b109ca1800791e1ca40c,16:40:20,27/03/2024
html-keyboard-response,3,5928,0.0-2.0-1.0,,"<div style=""display: flex; flex-direction: column; align-items: center; margin-top: -40px;""><img src=""images/demo_images/pattern_1.png"" style=""width: 234px; height: 230px; margin-top: -50px;""><div style=""display: flex; justify-content: space-between; margin-top: 33px;""><img src=""images/demo_images/choice_trial_2.png"" style=""width: 408px; height: 417px; margin-right: 608px;""></div></div>",,delaylearn,learning,display_response,D9fpXvBlJSQiR1QRKmZavfbe4tk1,D9fpXvBlJSQiR1QRKmZavfbe4tk1,,,,,,,,,,,,,,,,,chosen stimuli: images/demo_images/choice_trial_2.png,,,,,5e80b109ca1800791e1ca40c,16:40:20,27/03/2024
html-keyboard-response,4,8941,0.0-2.0-2.0,,,,delaylearn,learning,feedback_duration_window,D9fpXvBlJSQiR1QRKmZavfbe4tk1,D9fpXvBlJSQiR1QRKmZavfbe4tk1,,,,,,,,,,,,,,,,,,3000.0,,,,5e80b109ca1800791e1ca40c,16:40:20,27/03/2024
html-keyboard-response,5,10449,0.0-2.0-3.0,,<div style='margin:auto;width: auto; font-size: 150%'><span style='font-weight: bold; font-size: 100px; color: red;'>0 points!</span><br><br></div>,,delaylearn,learning,feedback_image_window,D9fpXvBlJSQiR1QRKmZavfbe4tk1,D9fpXvBlJSQiR1QRKmZavfbe4tk1,,,,,,,,,,,,,,,,,,,,,,5e80b109ca1800791e1ca40c,16:40:20,27/03/2024
html-keyboard-response,6,12358,0.0-3.0,,"<div style=""font-size:100px;"">+</div>",,delaylearn,learning,ITI,D9fpXvBlJSQiR1QRKmZavfbe4tk1,D9fpXvBlJSQiR1QRKmZavfbe4tk1,,,,,,,,,,,,,,,,,,,1902.0,,,5e80b109ca1800791e1ca40c,16:40:20,27/03/2024
html-keyboard-response,7,13065,0.0-4.0-0.0,704.7000000476837,"<div style=""display: flex; flex-direction: column; align-items: center; margin-top: -40px;""><img src=""images/demo_images/pattern_1.png"" style=""width: 234px; height: 230px; margin-top: -50px;""><div style=""display: flex; justify-content: space-between; margin-top: 33px;""><img src=""images/demo_images/choice_trial_2.png"" style=""width: 408px; height: 417px; margin-right: 200px;""><img src=""images/demo_images/choice_trial_1.png"" style=""width: 408px; height: 417px;""></div></div>",j,delaylearn,learning,trial,D9fpXvBlJSQiR1QRKmZavfbe4tk1,D9fpXvBlJSQiR1QRKmZavfbe4tk1,5.0,images/demo_images/choice_trial_2.png,images/demo_images/choice_trial_1.png,images/demo_images/pattern_1.png,j,j,3000.0,2.0,1.0,20.0,1.0,2.0,1.0,1.0,1.0,10.0,,,,,,5e80b109ca1800791e1ca40c,16:40:20,27/03/2024
html-keyboard-response,8,14077,0.0-4.0-1.0,,"<div style=""display: flex; flex-direction: column; align-items: center; margin-top: -40px;""><img src=""images/demo_images/pattern_1.png"" style=""width: 234px; height: 230px; margin-top: -50px;""><div style=""display: flex; justify-content: space-between; margin-top: 33px;""><img src=""images/demo_images/choice_trial_1.png"" style=""width: 408px; height: 417px; margin-left:608px;""></div></div>",,delaylearn,learning,display_response,D9fpXvBlJSQiR1QRKmZavfbe4tk1,D9fpXvBlJSQiR1QRKmZavfbe4tk1,,,,,,,,,,,,,,,,,chosen stimuli: images/demo_images/choice_trial_1.png,,,,,5e80b109ca1800791e1ca40c,16:40:20,27/03/2024
html-keyboard-response,9,17085,0.0-4.0-2.0,,,,delaylearn,learning,feedback_duration_window,D9fpXvBlJSQiR1QRKmZavfbe4tk1,D9fpXvBlJSQiR1QRKmZavfbe4tk1,,,,,,,,,,,,,,,,,,3000.0,,,,5e80b109ca1800791e1ca40c,16:40:20,27/03/2024
html-keyboard-response,10,18594,0.0-4.0-3.0,,<div style='margin:auto;width: auto; font-size: 150%'><span style='font-weight: bold; font-size: 100px; color: green;'>+10 points!</span><br><br></div>,,delaylearn,learning,feedback_image_window,D9fpXvBlJSQiR1QRKmZavfbe4tk1,D9fpXvBlJSQiR1QRKmZavfbe4tk1,,,,,,,,,,,,,,,,,,,,,,5e80b109ca1800791e1ca40c,16:40:20,27/03/2024
html-keyboard-response,11,20833,0.0-5.0,,"<div style=""font-size:100px;"">+</div>",,delaylearn,learning,ITI,D9fpXvBlJSQiR1QRKmZavfbe4tk1,D9fpXvBlJSQiR1QRKmZavfbe4tk1,,,,,,,,,,,,,,,,,,,2228.0,,,5e80b109ca1800791e1ca40c,16:40:20,27/03/2024
html-keyboard-response,12,21804,0.0-6.0-0.0,969.5,"<div style=""display: flex; flex-direction: column; align-items: center; margin-top: -40px;""><img src=""images/demo_images/pattern_1.png"" style=""width: 234px; height: 230px; margin-top: -50px;""><div style=""display: flex; justify-content: space-between; margin-top: 33px;""><img src=""images/demo_images/choice_trial_1.png"" style=""width: 408px; height: 417px; margin-right: 200px;""><img src=""images/demo_images/choice_trial_2.png"" style=""width: 408px; height: 417px;""></div></div>",f,delaylearn,learning,trial,D9fpXvBlJSQiR1QRKmZavfbe4tk1,D9fpXvBlJSQiR1QRKmZavfbe4tk1,5.0,images/demo_images/choice_trial_1.png,images/demo_images/choice_trial_2.png,images/demo_images/pattern_1.png,j,f,3000.0,1.0,2.0,20.0,0.0,3.0,1.0,0.0,1.0,10.0,,,,,,5e80b109ca1800791e1ca40c,16:40:20,27/03/2024
html-keyboard-response,13,22818,0.0-6.0-1.0,,"<div style=""display: flex; flex-direction: column; align-items: center; margin-top: -40px;""><img src=""images/demo_images/pattern_1.png"" style=""width: 234px; height: 230px; margin-top: -50px;""><div style=""display: flex; justify-content: space-between; margin-top: 33px;""><img src=""images/demo_images/choice_trial_1.png"" style=""width: 408px; height: 417px; margin-right: 608px;""></div></div>",,delaylearn,learning,display_response,D9fpXvBlJSQiR1QRKmZavfbe4tk1,D9fpXvBlJSQiR1QRKmZavfbe4tk1,,,,,,,,,,,,,,,,,chosen stimuli: images/demo_images/choice_trial_1.png,,,,,5e80b109ca1800791e1ca40c,16:40:20,27/03/2024
html-keyboard-response,14,25824,0.0-6.0-2.0,,,,delaylearn,learning,feedback_duration_window,D9fpXvBlJSQiR1QRKmZavfbe4tk1,D9fpXvBlJSQiR1QRKmZavfbe4tk1,,,,,,,,,,,,,,,,,,3000.0,,,,5e80b109ca1800791e1ca40c,16:40:20,27/03/2024
html-keyboard-response,15,27326,0.0-6.0-3.0,,<div style='margin:auto;width: auto; font-size: 150%'><span style='font-weight: bold; font-size: 100px; color: red;'>0 points!</span><br><br></div>,,delaylearn,learning,feedback_image_window,D9fpXvBlJSQiR1QRKmZavfbe4tk1,D9fpXvBlJSQiR1QRKmZavfbe4tk1,,,,,,,,,,,,,,,,,,,,,,5e80b109ca1800791e1ca40c,16:40:20,27/03/2024
html-keyboard-response,16,29037,0.0-7.0,,"<div style=""font-size:100px;"">+</div>",,delaylearn,learning,ITI,D9fpXvBlJSQiR1QRKmZavfbe4tk1,D9fpXvBlJSQiR1QRKmZavfbe4tk1,,,,,,,,,,,,,,,,,,,1709.0,,,5e80b109ca1800791e1ca40c,16:40:20,27/03/2024
html-keyboard-response,17,30294,0.0-8.0-0.0,1255.1000001430511,"<div style=""display: flex; flex-direction: column; align-items: center; margin-top: -40px;""><img src=""images/demo_images/pattern_1.png"" style=""width: 234px; height: 230px; margin-top: -50px;""><div style=""display: flex; justify-content: space-between; margin-top: 33px;""><img src=""images/demo_images/choice_trial_1.png"" style=""width: 408px; height: 417px; margin-right: 200px;""><img src=""images/demo_images/choice_trial_2.png"" style=""width: 408px; height: 417px;""></div></div>",j,delaylearn,learning,trial,D9fpXvBlJSQiR1QRKmZavfbe4tk1,D9fpXvBlJSQiR1QRKmZavfbe4tk1,5.0,images/demo_images/choice_trial_1.png,images/demo_images/choice_trial_2.png,images/demo_images/pattern_1.png,f,f,3000.0,1.0,2.0,20.0,0.0,4.0,0.0,0.0,2.0,10.0,,,,,,5e80b109ca1800791e1ca40c,16:40:20,27/03/2024
html-keyboard-response,18,31305,0.0-8.0-1.0,,"<div style=""display: flex; flex-direction: column; align-items: center; margin-top: -40px;""><img src=""images/demo_images/pattern_1.png"" style=""width: 234px; height: 230px; margin-top: -50px;""><div style=""display: flex; justify-content: space-between; margin-top: 33px;""><img src=""images/demo_images/choice_trial_2.png"" style=""width: 408px; height: 417px; margin-left:608px;""></div></div>",,delaylearn,learning,display_response,D9fpXvBlJSQiR1QRKmZavfbe4tk1,D9fpXvBlJSQiR1QRKmZavfbe4tk1,,,,,,,,,,,,,,,,,chosen stimuli: images/demo_images/choice_trial_2.png,,,,,5e80b109ca1800791e1ca40c,16:40:20,27/03/2024
html-keyboard-response,19,34314,0.0-8.0-2.0,,,,delaylearn,learning,feedback_duration_window,D9fpXvBlJSQiR1QRKmZavfbe4tk1,D9fpXvBlJSQiR1QRKmZavfbe4tk1,,,,,,,,,,,,,,,,,,3000.0,,,,5e80b109ca1800791e1ca40c,16:40:20,27/03/2024
html-keyboard-response,20,35824,0.0-8.0-3.0,,<div style='margin:auto;width: auto; font-size: 150%'><span style='font-weight: bold; font-size: 100px; color: red;'>0 points!</span><br><br></div>,,delaylearn,learning,feedback_image_window,D9fpXvBlJSQiR1QRKmZavfbe4tk1,D9fpXvBlJSQiR1QRKmZavfbe4tk1,,,,,,,,,,,,,,,,,,,,,,5e80b109ca1800791e1ca40c,16:40:20,27/03/2024
html-keyboard-response,21,36329,0.0-9.0-0.0,,,,,,mood_trial_fixation,D9fpXvBlJSQiR1QRKmZavfbe4tk1,,,,,,,,,,,,,,,,,,,,,,,5e80b109ca1800791e1ca40c,16:40:20,27/03/2024
lmdlab-html-vas-response,22,41302,0.0-9.0-1.0,3960.0,How happy are you right now?,0.5856481481481481,delaylearn,learning,mood_trial,D9fpXvBlJSQiR1QRKmZavfbe4tk1,D9fpXvBlJSQiR1QRKmZavfbe4tk1,,,,,,,,,,,,,,,,,,,,"['Very unhappy', 'Very happy']",,5e80b109ca1800791e1ca40c,16:40:20,27/03/2024
html-keyboard-response,23,43553,0.0-10.0,,"<div style=""font-size:100px;"">+</div>",,delaylearn,learning,ITI,D9fpXvBlJSQiR1QRKmZavfbe4tk1,D9fpXvBlJSQiR1QRKmZavfbe4tk1,,,,,,,,,,,,,,,,,,,2237.0,,,5e80b109ca1800791e1ca40c,16:40:20,27/03/2024
html-keyboard-response,24,46558,0.0-11.0-0.0,,"<div style=""display: flex; flex-direction: column; align-items: center; margin-top: -40px;""><img src=""images/demo_images/pattern_1.png"" style=""width: 234px; height: 230px; margin-top: -50px;""><div style=""display: flex; justify-content: space-between; margin-top: 33px;""><img src=""images/demo_images/choice_trial_2.png"" style=""width: 408px; height: 417px; margin-right: 200px;""><img src=""images/demo_images/choice_trial_1.png"" style=""width: 408px; height: 417px;""></div></div>",,delaylearn,learning,trial,D9fpXvBlJSQiR1QRKmZavfbe4tk1,D9fpXvBlJSQiR1QRKmZavfbe4tk1,5.0,images/demo_images/choice_trial_2.png,images/demo_images/choice_trial_1.png,images/demo_images/pattern_1.png,j,j,3000.0,2.0,1.0,20.0,1.0,5.0,0.0,0.0,0.0,10.0,,,,,,5e80b109ca1800791e1ca40c,16:40:20,27/03/2024
html-keyboard-response,25,47564,0.0-11.0-1.0,,<div style='font-weight: bold; font-size: 75px; color: red;'>Missed Trial <br><br><br><br> Please respond faster</div>,,delaylearn,learning,display_response,D9fpXvBlJSQiR1QRKmZavfbe4tk1,D9fpXvBlJSQiR1QRKmZavfbe4tk1,,,,,,,,,,,,,,,,,Missed trial,,,,,5e80b109ca1800791e1ca40c,16:40:20,27/03/2024
html-keyboard-response,26,47569,0.0-11.0-2.0,,,,delaylearn,learning,feedback_duration_window,D9fpXvBlJSQiR1QRKmZavfbe4tk1,D9fpXvBlJSQiR1QRKmZavfbe4tk1,,,,,,,,,,,,,,,,,,0.0,,,,5e80b109ca1800791e1ca40c,16:40:20,27/03/2024
html-keyboard-response,27,47574,0.0-11.0-3.0,,,,delaylearn,learning,feedback_image_window,D9fpXvBlJSQiR1QRKmZavfbe4tk1,D9fpXvBlJSQiR1QRKmZavfbe4tk1,,,,,,,,,,,,,,,,,,,,,,5e80b109ca1800791e1ca40c,16:40:20,27/03/2024
html-keyboard-response,28,49863,0.0-12.0,,"<div style=""font-size:100px;"">+</div>",,delaylearn,learning,ITI,D9fpXvBlJSQiR1QRKmZavfbe4tk1,D9fpXvBlJSQiR1QRKmZavfbe4tk1,,,,,,,,,,,,,,,,,,,2276.0,,,5e80b109ca1800791e1ca40c,16:40:20,27/03/2024
html-keyboard-response,29,50889,0.0-13.0-0.0,1024.5,"<div style=""display: flex; flex-direction: column; align-items: center; margin-top: -40px;""><img src=""images/demo_images/pattern_1.png"" style=""width: 234px; height: 230px; margin-top: -50px;""><div style=""display: flex; justify-content: space-between; margin-top: 33px;""><img src=""images/demo_images/choice_trial_1.png"" style=""width: 408px; height: 417px; margin-right: 200px;""><img src=""images/demo_images/choice_trial_2.png"" style=""width: 408px; height: 417px;""></div></div>",f,delaylearn,learning,trial,D9fpXvBlJSQiR1QRKmZavfbe4tk1,D9fpXvBlJSQiR1QRKmZavfbe4tk1,5.0,images/demo_images/choice_trial_1.png,images/demo_images/choice_trial_2.png,images/demo_images/pattern_1.png,f,f,3000.0,1.0,2.0,20.0,0.0,6.0,1.0,1.0,1.0,20.0,,,,,,5e80b109ca1800791e1ca40c,16:40:20,27/03/2024
html-keyboard-response,30,51904,0.0-13.0-1.0,,"<div style=""display: flex; flex-direction: column; align-items: center; margin-top: -40px;""><img src=""images/demo_images/pattern_1.png"" style=""width: 234px; height: 230px; margin-top: -50px;""><div style=""display: flex; justify-content: space-between; margin-top: 33px;""><img src=""images/demo_images/choice_trial_1.png"" style=""width: 408px; height: 417px; margin-right: 608px;""></div></div>",,delaylearn,learning,display_response,D9fpXvBlJSQiR1QRKmZavfbe4tk1,D9fpXvBlJSQiR1QRKmZavfbe4tk1,,,,,,,,,,,,,,,,,chosen stimuli: images/demo_images/choice_trial_1.png,,,,,5e80b109ca1800791e1ca40c,16:40:20,27/03/2024
html-keyboard-response,31,54907,0.0-13.0-2.0,,,,delaylearn,learning,feedback_duration_window,D9fpXvBlJSQiR1QRKmZavfbe4tk1,D9fpXvBlJSQiR1QRKmZavfbe4tk1,,,,,,,,,,,,,,,,,,3000.0,,,,5e80b109ca1800791e1ca40c,16:40:20,27/03/2024
html-keyboard-response,32,56412,0.0-13.0-3.0,,<div style='margin:auto;width: auto; font-size: 150%'><span style='font-weight: bold; font-size: 100px; color: green;'>+10 points!</span><br><br></div>,,delaylearn,learning,feedback_image_window,D9fpXvBlJSQiR1QRKmZavfbe4tk1,D9fpXvBlJSQiR1QRKmZavfbe4tk1,,,,,,,,,,,,,,,,,,,,,,5e80b109ca1800791e1ca40c,16:40:20,27/03/2024
html-keyboard-response,33,58009,0.0-14.0,,"<div style=""font-size:100px;"">+</div>",,delaylearn,learning,ITI,D9fpXvBlJSQiR1QRKmZavfbe4tk1,D9fpXvBlJSQiR1QRKmZavfbe4tk1,,,,,,,,,,,,,,,,,,,1589.0,,,5e80b109ca1800791e1ca40c,16:40:20,27/03/2024
html-keyboard-response,34,59444,0.0-15.0-0.0,1433.0999999046326,"<div style=""display: flex; flex-direction: column; align-items: center; margin-top: -40px;""><img src=""images/demo_images/pattern_1.png"" style=""width: 234px; height: 230px; margin-top: -50px;""><div style=""display: flex; justify-content: space-between; margin-top: 33px;""><img src=""images/demo_images/choice_trial_2.png"" style=""width: 408px; height: 417px; margin-right: 200px;""><img src=""images/demo_images/choice_trial_1.png"" style=""width: 408px; height: 417px;""></div></div>",j,delaylearn,learning,trial,D9fpXvBlJSQiR1QRKmZavfbe4tk1,D9fpXvBlJSQiR1QRKmZavfbe4tk1,5.0,images/demo_images/choice_trial_2.png,images/demo_images/choice_trial_1.png,images/demo_images/pattern_1.png,j,j,3000.0,2.0,1.0,20.0,1.0,7.0,1.0,1.0,1.0,30.0,,,,,,5e80b109ca1800791e1ca40c,16:40:20,27/03/2024
html-keyboard-response,35,60456,0.0-15.0-1.0,,"<div style=""display: flex; flex-direction: column; align-items: center; margin-top: -40px;""><img src=""images/demo_images/pattern_1.png"" style=""width: 234px; height: 230px; margin-top: -50px;""><div style=""display: flex; justify-content: space-between; margin-top: 33px;""><img src=""images/demo_images/choice_trial_1.png"" style=""width: 408px; height: 417px; margin-left:608px;""></div></div>",,delaylearn,learning,display_response,D9fpXvBlJSQiR1QRKmZavfbe4tk1,D9fpXvBlJSQiR1QRKmZavfbe4tk1,,,,,,,,,,,,,,,,,chosen stimuli: images/demo_images/choice_trial_1.png,,,,,5e80b109ca1800791e1ca40c,16:40:20,27/03/2024
html-keyboard-response,36,63464,0.0-15.0-2.0,,,,delaylearn,learning,feedback_duration_window,D9fpXvBlJSQiR1QRKmZavfbe4tk1,D9fpXvBlJSQiR1QRKmZavfbe4tk1,,,,,,,,,,,,,,,,,,3000.0,,,,5e80b109ca1800791e1ca40c,16:40:20,27/03/2024
html-keyboard-response,37,64980,0.0-15.0-3.0,,<div style='margin:auto;width: auto; font-size: 150%'><span style='font-weight: bold; font-size: 100px; color: green;'>+10 points!</span><br><br></div>,,delaylearn,learning,feedback_image_window,D9fpXvBlJSQiR1QRKmZavfbe4tk1,D9fpXvBlJSQiR1QRKmZavfbe4tk1,,,,,,,,,,,,,,,,,,,,,,5e80b109ca1800791e1ca40c,16:40:20,27/03/2024
html-keyboard-response,38,67196,0.0-16.0,,"<div style=""font-size:100px;"">+</div>",,delaylearn,learning,ITI,D9fpXvBlJSQiR1QRKmZavfbe4tk1,D9fpXvBlJSQiR1QRKmZavfbe4tk1,,,,,,,,,,,,,,,,,,,2199.0,,,5e80b109ca1800791e1ca40c,16:40:20,27/03/2024
html-keyboard-response,39,68217,0.0-17.0-0.0,1018.7999999523163,"<div style=""display: flex; flex-direction: column; align-items: center; margin-top: -40px;""><img src=""images/demo_images/pattern_1.png"" style=""width: 234px; height: 230px; margin-top: -50px;""><div style=""display: flex; justify-content: space-between; margin-top: 33px;""><img src=""images/demo_images/choice_trial_1.png"" style=""width: 408px; height: 417px; margin-right: 200px;""><img src=""images/demo_images/choice_trial_2.png"" style=""width: 408px; height: 417px;""></div></div>",f,delaylearn,learning,trial,D9fpXvBlJSQiR1QRKmZavfbe4tk1,D9fpXvBlJSQiR1QRKmZavfbe4tk1,5.0,images/demo_images/choice_trial_1.png,images/demo_images/choice_trial_2.png,images/demo_images/pattern_1.png,f,f,3000.0,1.0,2.0,20.0,0.0,8.0,1.0,1.0,1.0,40.0,,,,,,5e80b109ca1800791e1ca40c,16:40:20,27/03/2024
html-keyboard-response,40,69225,0.0-17.0-1.0,,"<div style=""display: flex; flex-direction: column; align-items: center; margin-top: -40px;""><img src=""images/demo_images/pattern_1.png"" style=""width: 234px; height: 230px; margin-top: -50px;""><div style=""display: flex; justify-content: space-between; margin-top: 33px;""><img src=""images/demo_images/choice_trial_1.png"" style=""width: 408px; height: 417px; margin-right: 608px;""></div></div>",,delaylearn,learning,display_response,D9fpXvBlJSQiR1QRKmZavfbe4tk1,D9fpXvBlJSQiR1QRKmZavfbe4tk1,,,,,,,,,,,,,,,,,chosen stimuli: images/demo_images/choice_trial_1.png,,,,,5e80b109ca1800791e1ca40c,16:40:20,27/03/2024
html-keyboard-response,41,72234,0.0-17.0-2.0,,,,delaylearn,learning,feedback_duration_window,D9fpXvBlJSQiR1QRKmZavfbe4tk1,D9fpXvBlJSQiR1QRKmZavfbe4tk1,,,,,,,,,,,,,,,,,,3000.0,,,,5e80b109ca1800791e1ca40c,16:40:20,27/03/2024
html-keyboard-response,42,73742,0.0-17.0-3.0,,<div style='margin:auto;width: auto; font-size: 150%'><span style='font-weight: bold; font-size: 100px; color: green;'>+10 points!</span><br><br></div>,,delaylearn,learning,feedback_image_window,D9fpXvBlJSQiR1QRKmZavfbe4tk1,D9fpXvBlJSQiR1QRKmZavfbe4tk1,,,,,,,,,,,,,,,,,,,,,,5e80b109ca1800791e1ca40c,16:40:20,27/03/2024
html-button-response,43,76297,0.0-18.0,2553.4000000953674,"
  <div style=""display: flex; align-items: center; justify-content: center; height: 80vh;"">
  <div>
          <img src=""images/inst_demo_finish.png"" style=""width: 80vw; height:auto;"">
          <br><br>
      </div>
      <br><br>
  </div>",0,,,,D9fpXvBlJSQiR1QRKmZavfbe4tk1,,,,,,,,,,,,,,,,,,,,,,,5e80b109ca1800791e1ca40c,16:40:20,27/03/2024
html-keyboard-response,44,83511,0.0-19.0,7212.800000190735,"
  <div style=""display: flex; align-items: center; justify-content: center; height: 80vh;"">
  <div>
          <img src=""images/inst_6.png"" style=""width: 80vw; height:auto;"">
          <br><br>
      </div>
      <br><br>
  </div>",f,,,,D9fpXvBlJSQiR1QRKmZavfbe4tk1,,,,,,,,,,,,,,,,,,,,,,,5e80b109ca1800791e1ca40c,16:40:20,27/03/2024
html-keyboard-response,45,86516,0.0-20.0,,"<div style=""font-size:100px;"">+</div>",,delaylearn,learning,pre_fixation,D9fpXvBlJSQiR1QRKmZavfbe4tk1,,,,,,,,,,,,,,,,,,,,,,,5e80b109ca1800791e1ca40c,16:40:20,27/03/2024
html-keyboard-response,46,88443,0.0-21.0,,"<div style=""font-size:100px;"">+</div>",,delaylearn,learning,ITI,D9fpXvBlJSQiR1QRKmZavfbe4tk1,D9fpXvBlJSQiR1QRKmZavfbe4tk1,,,,,,,,,,,,,,,,,,,1920.0,,,5e80b109ca1800791e1ca40c,16:40:20,27/03/2024
html-keyboard-response,47,89871,0.0-22.0-0.0,1426.0,"<div style=""display: flex; flex-direction: column; align-items: center; margin-top: -40px;""><img src=""images/pattern_3.png"" style=""width: 234px; height: 230px; margin-top: -50px;""><div style=""display: flex; justify-content: space-between; margin-top: 33px;""><img src=""images/choice_trial_16.png"" style=""width: 408px; height: 417px; margin-right: 200px;""><img src=""images/choice_trial_2.png"" style=""width: 408px; height: 417px;""></div></div>",f,delaylearn,learning,trial,D9fpXvBlJSQiR1QRKmZavfbe4tk1,D9fpXvBlJSQiR1QRKmZavfbe4tk1,5.0,images/choice_trial_16.png,images/choice_trial_2.png,images/pattern_3.png,f,f,7000.0,16.0,2.0,2.0,0.0,9.0,1.0,1.0,16.0,50.0,,,,,,5e80b109ca1800791e1ca40c,16:40:20,27/03/2024
html-keyboard-response,48,90881,0.0-22.0-1.0,,"<div style=""display: flex; flex-direction: column; align-items: center; margin-top: -40px;""><img src=""images/pattern_3.png"" style=""width: 234px; height: 230px; margin-top: -50px;""><div style=""display: flex; justify-content: space-between; margin-top: 33px;""><img src=""images/choice_trial_16.png"" style=""width: 408px; height: 417px; margin-right: 608px;""></div></div>",,delaylearn,learning,display_response,D9fpXvBlJSQiR1QRKmZavfbe4tk1,D9fpXvBlJSQiR1QRKmZavfbe4tk1,,,,,,,,,,,,,,,,,chosen stimuli: images/choice_trial_16.png,,,,,5e80b109ca1800791e1ca40c,16:40:20,27/03/2024
html-keyboard-response,49,97882,0.0-22.0-2.0,,,,delaylearn,learning,feedback_duration_window,D9fpXvBlJSQiR1QRKmZavfbe4tk1,D9fpXvBlJSQiR1QRKmZavfbe4tk1,,,,,,,,,,,,,,,,,,7000.0,,,,5e80b109ca1800791e1ca40c,16:40:20,27/03/2024
html-keyboard-response,50,99399,0.0-22.0-3.0,,<div style='margin:auto;width: auto; font-size: 150%'><span style='font-weight: bold; font-size: 100px; color: green;'>+10 points!</span><br><br></div>,,delaylearn,learning,feedback_image_window,D9fpXvBlJSQiR1QRKmZavfbe4tk1,D9fpXvBlJSQiR1QRKmZavfbe4tk1,,,,,,,,,,,,,,,,,,,,,,5e80b109ca1800791e1ca40c,16:40:20,27/03/2024
html-keyboard-response,51,101385,0.0-23.0,,"<div style=""font-size:100px;"">+</div>",,delaylearn,learning,ITI,D9fpXvBlJSQiR1QRKmZavfbe4tk1,D9fpXvBlJSQiR1QRKmZavfbe4tk1,,,,,,,,,,,,,,,,,,,1978.0,,,5e80b109ca1800791e1ca40c,16:40:20,27/03/2024
html-keyboard-response,52,103640,0.0-24.0-0.0,2253.7000000476837,"<div style=""display: flex; flex-direction: column; align-items: center; margin-top: -40px;""><img src=""images/pattern_7.png"" style=""width: 234px; height: 230px; margin-top: -50px;""><div style=""display: flex; justify-content: space-between; margin-top: 33px;""><img src=""images/choice_trial_10.png"" style=""width: 408px; height: 417px; margin-right: 200px;""><img src=""images/choice_trial_8.png"" style=""width: 408px; height: 417px;""></div></div>",f,delaylearn,learning,trial,D9fpXvBlJSQiR1QRKmZavfbe4tk1,D9fpXvBlJSQiR1QRKmZavfbe4tk1,5.0,images/choice_trial_10.png,images/choice_trial_8.png,images/pattern_7.png,j,j,750.0,10.0,8.0,6.0,1.0,10.0,0.0,0.0,10.0,50.0,,,,,,5e80b109ca1800791e1ca40c,16:40:20,27/03/2024
html-keyboard-response,53,104656,0.0-24.0-1.0,,"<div style=""display: flex; flex-direction: column; align-items: center; margin-top: -40px;""><img src=""images/pattern_7.png"" style=""width: 234px; height: 230px; margin-top: -50px;""><div style=""display: flex; justify-content: space-between; margin-top: 33px;""><img src=""images/choice_trial_10.png"" style=""width: 408px; height: 417px; margin-right: 608px;""></div></div>",,delaylearn,learning,display_response,D9fpXvBlJSQiR1QRKmZavfbe4tk1,D9fpXvBlJSQiR1QRKmZavfbe4tk1,,,,,,,,,,,,,,,,,chosen stimuli: images/choice_trial_10.png,,,,,5e80b109ca1800791e1ca40c,16:40:20,27/03/2024
html-keyboard-response,54,105410,0.0-24.0-2.0,,,,delaylearn,learning,feedback_duration_window,D9fpXvBlJSQiR1QRKmZavfbe4tk1,D9fpXvBlJSQiR1QRKmZavfbe4tk1,,,,,,,,,,,,,,,,,,750.0,,,,5e80b109ca1800791e1ca40c,16:40:20,27/03/2024
html-keyboard-response,55,106927,0.0-24.0-3.0,,<div style='margin:auto;width: auto; font-size: 150%'><span style='font-weight: bold; font-size: 100px; color: red;'>0 points!</span><br><br></div>,,delaylearn,learning,feedback_image_window,D9fpXvBlJSQiR1QRKmZavfbe4tk1,D9fpXvBlJSQiR1QRKmZavfbe4tk1,,,,,,,,,,,,,,,,,,,,,,5e80b109ca1800791e1ca40c,16:40:20,27/03/2024
html-keyboard-response,56,108634,0.0-25.0,,"<div style=""font-size:100px;"">+</div>",,delaylearn,learning,ITI,D9fpXvBlJSQiR1QRKmZavfbe4tk1,D9fpXvBlJSQiR1QRKmZavfbe4tk1,,,,,,,,,,,,,,,,,,,1705.0,,,5e80b109ca1800791e1ca40c,16:40:20,27/03/2024
html-keyboard-response,57,110443,0.0-26.0-0.0,1806.6000001430511,"<div style=""display: flex; flex-direction: column; align-items: center; margin-top: -40px;""><img src=""images/pattern_4.png"" style=""width: 234px; height: 230px; margin-top: -50px;""><div style=""display: flex; justify-content: space-between; margin-top: 33px;""><img src=""images/choice_trial_11.png"" style=""width: 408px; height: 417px; margin-right: 200px;""><img src=""images/choice_trial_4.png"" style=""width: 408px; height: 417px;""></div></div>",j,delaylearn,learning,trial,D9fpXvBlJSQiR1QRKmZavfbe4tk1,D9fpXvBlJSQiR1QRKmZavfbe4tk1,5.0,images/choice_trial_11.png,images/choice_trial_4.png,images/pattern_4.png,f,f,7000.0,11.0,4.0,3.0,0.0,11.0,0.0,0.0,4.0,50.0,,,,,,5e80b109ca1800791e1ca40c,16:40:20,27/03/2024
html-keyboard-response,58,111448,0.0-26.0-1.0,,"<div style=""display: flex; flex-direction: column; align-items: center; margin-top: -40px;""><img src=""images/pattern_4.png"" style=""width: 234px; height: 230px; margin-top: -50px;""><div style=""display: flex; justify-content: space-between; margin-top: 33px;""><img src=""images/choice_trial_4.png"" style=""width: 408px; height: 417px; margin-left:608px;""></div></div>",,delaylearn,learning,display_response,D9fpXvBlJSQiR1QRKmZavfbe4tk1,D9fpXvBlJSQiR1QRKmZavfbe4tk1,,,,,,,,,,,,,,,,,chosen stimuli: images/choice_trial_4.png,,,,,5e80b109ca1800791e1ca40c,16:40:20,27/03/2024
html-keyboard-response,59,118449,0.0-26.0-2.0,,,,delaylearn,learning,feedback_duration_window,D9fpXvBlJSQiR1QRKmZavfbe4tk1,D9fpXvBlJSQiR1QRKmZavfbe4tk1,,,,,,,,,,,,,,,,,,7000.0,,,,5e80b109ca1800791e1ca40c,16:40:20,27/03/2024
html-keyboard-response,60,119960,0.0-26.0-3.0,,<div style='margin:auto;width: auto; font-size: 150%'><span style='font-weight: bold; font-size: 100px; color: red;'>0 points!</span><br><br></div>,,delaylearn,learning,feedback_image_window,D9fpXvBlJSQiR1QRKmZavfbe4tk1,D9fpXvBlJSQiR1QRKmZavfbe4tk1,,,,,,,,,,,,,,,,,,,,,,5e80b109ca1800791e1ca40c,16:40:20,27/03/2024
html-keyboard-response,61,122068,0.0-27.0,,"<div style=""font-size:100px;"">+</div>",,delaylearn,learning,ITI,D9fpXvBlJSQiR1QRKmZavfbe4tk1,D9fpXvBlJSQiR1QRKmZavfbe4tk1,,,,,,,,,,,,,,,,,,,2103.0,,,5e80b109ca1800791e1ca40c,16:40:20,27/03/2024
html-keyboard-response,62,124055,0.0-28.0-0.0,1984.3999998569489,"<div style=""display: flex; flex-direction: column; align-items: center; margin-top: -40px;""><img src=""images/pattern_5.png"" style=""width: 234px; height: 230px; margin-top: -50px;""><div style=""display: flex; justify-content: space-between; margin-top: 33px;""><img src=""images/choice_trial_13.png"" style=""width: 408px; height: 417px; margin-right: 200px;""><img src=""images/choice_trial_7.png"" style=""width: 408px; height: 417px;""></div></div>",j,delaylearn,learning,trial,D9fpXvBlJSQiR1QRKmZavfbe4tk1,D9fpXvBlJSQiR1QRKmZavfbe4tk1,5.0,images/choice_trial_13.png,images/choice_trial_7.png,images/pattern_5.png,j,j,750.0,13.0,7.0,4.0,1.0,12.0,1.0,1.0,7.0,60.0,,,,,,5e80b109ca1800791e1ca40c,16:40:20,27/03/2024
html-keyboard-response,63,125068,0.0-28.0-1.0,,"<div style=""display: flex; flex-direction: column; align-items: center; margin-top: -40px;""><img src=""images/pattern_5.png"" style=""width: 234px; height: 230px; margin-top: -50px;""><div style=""display: flex; justify-content: space-between; margin-top: 33px;""><img src=""images/choice_trial_7.png"" style=""width: 408px; height: 417px; margin-left:608px;""></div></div>",,delaylearn,learning,display_response,D9fpXvBlJSQiR1QRKmZavfbe4tk1,D9fpXvBlJSQiR1QRKmZavfbe4tk1,,,,,,,,,,,,,,,,,chosen stimuli: images/choice_trial_7.png,,,,,5e80b109ca1800791e1ca40c,16:40:20,27/03/2024
html-keyboard-response,64,125822,0.0-28.0-2.0,,,,delaylearn,learning,feedback_duration_window,D9fpXvBlJSQiR1QRKmZavfbe4tk1,D9fpXvBlJSQiR1QRKmZavfbe4tk1,,,,,,,,,,,,,,,,,,750.0,,,,5e80b109ca1800791e1ca40c,16:40:20,27/03/2024
html-keyboard-response,65,127324,0.0-28.0-3.0,,<div style='margin:auto;width: auto; font-size: 150%'><span style='font-weight: bold; font-size: 100px; color: green;'>+10 points!</span><br><br></div>,,delaylearn,learning,feedback_image_window,D9fpXvBlJSQiR1QRKmZavfbe4tk1,D9fpXvBlJSQiR1QRKmZavfbe4tk1,,,,,,,,,,,,,,,,,,,,,,5e80b109ca1800791e1ca40c,16:40:20,27/03/2024
html-keyboard-response,66,129463,0.0-29.0,,"<div style=""font-size:100px;"">+</div>",,delaylearn,learning,ITI,D9fpXvBlJSQiR1QRKmZavfbe4tk1,D9fpXvBlJSQiR1QRKmZavfbe4tk1,,,,,,,,,,,,,,,,,,,2123.0,,,5e80b109ca1800791e1ca40c,16:40:20,27/03/2024
html-keyboard-response,67,130573,0.0-30.0-0.0,1107.7000000476837,"<div style=""display: flex; flex-direction: column; align-items: center; margin-top: -40px;""><img src=""images/pattern_6.png"" style=""width: 234px; height: 230px; margin-top: -50px;""><div style=""display: flex; justify-content: space-between; margin-top: 33px;""><img src=""images/choice_trial_14.png"" style=""width: 408px; height: 417px; margin-right: 200px;""><img src=""images/choice_trial_9.png"" style=""width: 408px; height: 417px;""></div></div>",f,delaylearn,learning,trial,D9fpXvBlJSQiR1QRKmZavfbe4tk1,D9fpXvBlJSQiR1QRKmZavfbe4tk1,5.0,images/choice_trial_14.png,images/choice_trial_9.png,images/pattern_6.png,j,f,750.0,14.0,9.0,5.0,0.0,13.0,1.0,0.0,14.0,60.0,,,,,,5e80b109ca1800791e1ca40c,16:40:20,27/03/2024
html-keyboard-response,68,131586,0.0-30.0-1.0,,"<div style=""display: flex; flex-direction: column; align-items: center; margin-top: -40px;""><img src=""images/pattern_6.png"" style=""width: 234px; height: 230px; margin-top: -50px;""><div style=""display: flex; justify-content: space-between; margin-top: 33px;""><img src=""images/choice_trial_14.png"" style=""width: 408px; height: 417px; margin-right: 608px;""></div></div>",,delaylearn,learning,display_response,D9fpXvBlJSQiR1QRKmZavfbe4tk1,D9fpXvBlJSQiR1QRKmZavfbe4tk1,,,,,,,,,,,,,,,,,chosen stimuli: images/choice_trial_14.png,,,,,5e80b109ca1800791e1ca40c,16:40:20,27/03/2024
html-keyboard-response,69,132345,0.0-30.0-2.0,,,,delaylearn,learning,feedback_duration_window,D9fpXvBlJSQiR1QRKmZavfbe4tk1,D9fpXvBlJSQiR1QRKmZavfbe4tk1,,,,,,,,,,,,,,,,,,750.0,,,,5e80b109ca1800791e1ca40c,16:40:20,27/03/2024
html-keyboard-response,70,133852,0.0-30.0-3.0,,<div style='margin:auto;width: auto; font-size: 150%'><span style='font-weight: bold; font-size: 100px; color: red;'>0 points!</span><br><br></div>,,delaylearn,learning,feedback_image_window,D9fpXvBlJSQiR1QRKmZavfbe4tk1,D9fpXvBlJSQiR1QRKmZavfbe4tk1,,,,,,,,,,,,,,,,,,,,,,5e80b109ca1800791e1ca40c,16:40:20,27/03/2024
html-keyboard-response,71,134360,0.0-31.0-0.0,,,,,,mood_trial_fixation,D9fpXvBlJSQiR1QRKmZavfbe4tk1,,,,,,,,,,,,,,,,,,,,,,,5e80b109ca1800791e1ca40c,16:40:20,27/03/2024
lmdlab-html-vas-response,72,139534,0.0-31.0-1.0,4166.0,How happy are you right now?,0.6157407407407407,delaylearn,learning,mood_trial,D9fpXvBlJSQiR1QRKmZavfbe4tk1,D9fpXvBlJSQiR1QRKmZavfbe4tk1,,,,,,,,,,,,,,,,,,,,"['Very unhappy', 'Very happy']",,5e80b109ca1800791e1ca40c,16:40:20,27/03/2024
html-keyboard-response,73,142006,0.0-32.0,,"<div style=""font-size:100px;"">+</div>",,delaylearn,learning,ITI,D9fpXvBlJSQiR1QRKmZavfbe4tk1,D9fpXvBlJSQiR1QRKmZavfbe4tk1,,,,,,,,,,,,,,,,,,,2468.0,,,5e80b109ca1800791e1ca40c,16:40:20,27/03/2024
html-keyboard-response,74,143734,0.0-33.0-0.0,1726.8000001907349,"<div style=""display: flex; flex-direction: column; align-items: center; margin-top: -40px;""><img src=""images/pattern_1.png"" style=""width: 234px; height: 230px; margin-top: -50px;""><div style=""display: flex; justify-content: space-between; margin-top: 33px;""><img src=""images/choice_trial_15.png"" style=""width: 408px; height: 417px; margin-right: 200px;""><img src=""images/choice_trial_6.png"" style=""width: 408px; height: 417px;""></div></div>",f,delaylearn,learning,trial,D9fpXvBlJSQiR1QRKmZavfbe4tk1,D9fpXvBlJSQiR1QRKmZavfbe4tk1,5.0,images/choice_trial_15.png,images/choice_trial_6.png,images/pattern_1.png,j,j,7000.0,15.0,6.0,1.0,1.0,14.0,0.0,0.0,15.0,60.0,,,,,,5e80b109ca1800791e1ca40c,16:40:20,27/03/2024
html-keyboard-response,75,144744,0.0-33.0-1.0,,"<div style=""display: flex; flex-direction: column; align-items: center; margin-top: -40px;""><img src=""images/pattern_1.png"" style=""width: 234px; height: 230px; margin-top: -50px;""><div style=""display: flex; justify-content: space-between; margin-top: 33px;""><img src=""images/choice_trial_15.png"" style=""width: 408px; height: 417px; margin-right: 608px;""></div></div>",,delaylearn,learning,display_response,D9fpXvBlJSQiR1QRKmZavfbe4tk1,D9fpXvBlJSQiR1QRKmZavfbe4tk1,,,,,,,,,,,,,,,,,chosen stimuli: images/choice_trial_15.png,,,,,5e80b109ca1800791e1ca40c,16:40:20,27/03/2024
html-keyboard-response,76,151760,0.0-33.0-2.0,,,,delaylearn,learning,feedback_duration_window,D9fpXvBlJSQiR1QRKmZavfbe4tk1,D9fpXvBlJSQiR1QRKmZavfbe4tk1,,,,,,,,,,,,,,,,,,7000.0,,,,5e80b109ca1800791e1ca40c,16:40:20,27/03/2024
html-keyboard-response,77,153264,0.0-33.0-3.0,,<div style='margin:auto;width: auto; font-size: 150%'><span style='font-weight: bold; font-size: 100px; color: red;'>0 points!</span><br><br></div>,,delaylearn,learning,feedback_image_window,D9fpXvBlJSQiR1QRKmZavfbe4tk1,D9fpXvBlJSQiR1QRKmZavfbe4tk1,,,,,,,,,,,,,,,,,,,,,,5e80b109ca1800791e1ca40c,16:40:20,27/03/2024
html-keyboard-response,78,155550,0.0-34.0,,"<div style=""font-size:100px;"">+</div>",,delaylearn,learning,ITI,D9fpXvBlJSQiR1QRKmZavfbe4tk1,D9fpXvBlJSQiR1QRKmZavfbe4tk1,,,,,,,,,,,,,,,,,,,2272.0,,,5e80b109ca1800791e1ca40c,16:40:20,27/03/2024
html-keyboard-response,79,156705,0.0-35.0-0.0,1153.4000000953674,"<div style=""display: flex; flex-direction: column; align-items: center; margin-top: -40px;""><img src=""images/pattern_3.png"" style=""width: 234px; height: 230px; margin-top: -50px;""><div style=""display: flex; justify-content: space-between; margin-top: 33px;""><img src=""images/choice_trial_2.png"" style=""width: 408px; height: 417px; margin-right: 200px;""><img src=""images/choice_trial_16.png"" style=""width: 408px; height: 417px;""></div></div>",j,delaylearn,learning,trial,D9fpXvBlJSQiR1QRKmZavfbe4tk1,D9fpXvBlJSQiR1QRKmZavfbe4tk1,5.0,images/choice_trial_2.png,images/choice_trial_16.png,images/pattern_3.png,f,j,7000.0,2.0,16.0,2.0,1.0,15.0,1.0,0.0,16.0,60.0,,,,,,5e80b109ca1800791e1ca40c,16:40:20,27/03/2024
html-keyboard-response,80,157710,0.0-35.0-1.0,,"<div style=""display: flex; flex-direction: column; align-items: center; margin-top: -40px;""><img src=""images/pattern_3.png"" style=""width: 234px; height: 230px; margin-top: -50px;""><div style=""display: flex; justify-content: space-between; margin-top: 33px;""><img src=""images/choice_trial_16.png"" style=""width: 408px; height: 417px; margin-left:608px;""></div></div>",,delaylearn,learning,display_response,D9fpXvBlJSQiR1QRKmZavfbe4tk1,D9fpXvBlJSQiR1QRKmZavfbe4tk1,,,,,,,,,,,,,,,,,chosen stimuli: images/choice_trial_16.png,,,,,5e80b109ca1800791e1ca40c,16:40:20,27/03/2024
html-keyboard-response,81,164715,0.0-35.0-2.0,,,,delaylearn,learning,feedback_duration_window,D9fpXvBlJSQiR1QRKmZavfbe4tk1,D9fpXvBlJSQiR1QRKmZavfbe4tk1,,,,,,,,,,,,,,,,,,7000.0,,,,5e80b109ca1800791e1ca40c,16:40:20,27/03/2024
html-keyboard-response,82,166226,0.0-35.0-3.0,,<div style='margin:auto;width: auto; font-size: 150%'><span style='font-weight: bold; font-size: 100px; color: red;'>0 points!</span><br><br></div>,,delaylearn,learning,feedback_image_window,D9fpXvBlJSQiR1QRKmZavfbe4tk1,D9fpXvBlJSQiR1QRKmZavfbe4tk1,,,,,,,,,,,,,,,,,,,,,,5e80b109ca1800791e1ca40c,16:40:20,27/03/2024
html-keyboard-response,83,168388,0.0-36.0,,"<div style=""font-size:100px;"">+</div>",,delaylearn,learning,ITI,D9fpXvBlJSQiR1QRKmZavfbe4tk1,D9fpXvBlJSQiR1QRKmZavfbe4tk1,,,,,,,,,,,,,,,,,,,2153.0,,,5e80b109ca1800791e1ca40c,16:40:20,27/03/2024
html-keyboard-response,84,169648,0.0-37.0-0.0,1258.3999998569489,"<div style=""display: flex; flex-direction: column; align-items: center; margin-top: -40px;""><img src=""images/pattern_5.png"" style=""width: 234px; height: 230px; margin-top: -50px;""><div style=""display: flex; justify-content: space-between; margin-top: 33px;""><img src=""images/choice_trial_7.png"" style=""width: 408px; height: 417px; margin-right: 200px;""><img src=""images/choice_trial_13.png"" style=""width: 408px; height: 417px;""></div></div>",f,delaylearn,learning,trial,D9fpXvBlJSQiR1QRKmZavfbe4tk1,D9fpXvBlJSQiR1QRKmZavfbe4tk1,5.0,images/choice_trial_7.png,images/choice_trial_13.png,images/pattern_5.png,f,f,750.0,7.0,13.0,4.0,0.0,16.0,1.0,1.0,7.0,70.0,,,,,,5e80b109ca1800791e1ca40c,16:40:20,27/03/2024
html-keyboard-response,85,170652,0.0-37.0-1.0,,"<div style=""display: flex; flex-direction: column; align-items: center; margin-top: -40px;""><img src=""images/pattern_5.png"" style=""width: 234px; height: 230px; margin-top: -50px;""><div style=""display: flex; justify-content: space-between; margin-top: 33px;""><img src=""images/choice_trial_7.png"" style=""width: 408px; height: 417px; margin-right: 608px;""></div></div>",,delaylearn,learning,display_response,D9fpXvBlJSQiR1QRKmZavfbe4tk1,D9fpXvBlJSQiR1QRKmZavfbe4tk1,,,,,,,,,,,,,,,,,chosen stimuli: images/choice_trial_7.png,,,,,5e80b109ca1800791e1ca40c,16:40:20,27/03/2024
html-keyboard-response,86,171411,0.0-37.0-2.0,,,,delaylearn,learning,feedback_duration_window,D9fpXvBlJSQiR1QRKmZavfbe4tk1,D9fpXvBlJSQiR1QRKmZavfbe4tk1,,,,,,,,,,,,,,,,,,750.0,,,,5e80b109ca1800791e1ca40c,16:40:20,27/03/2024
html-keyboard-response,87,172920,0.0-37.0-3.0,,<div style='margin:auto;width: auto; font-size: 150%'><span style='font-weight: bold; font-size: 100px; color: green;'>+10 points!</span><br><br></div>,,delaylearn,learning,feedback_image_window,D9fpXvBlJSQiR1QRKmZavfbe4tk1,D9fpXvBlJSQiR1QRKmZavfbe4tk1,,,,,,,,,,,,,,,,,,,,,,5e80b109ca1800791e1ca40c,16:40:20,27/03/2024
html-keyboard-response,88,173436,0.0-38.0-0.0,,,,,,mood_trial_fixation,D9fpXvBlJSQiR1QRKmZavfbe4tk1,,,,,,,,,,,,,,,,,,,,,,,5e80b109ca1800791e1ca40c,16:40:20,27/03/2024
lmdlab-html-vas-response,89,178352,0.0-38.0-1.0,3901.0,How happy are you right now?,0.6018518518518519,delaylearn,learning,mood_trial,D9fpXvBlJSQiR1QRKmZavfbe4tk1,D9fpXvBlJSQiR1QRKmZavfbe4tk1,,,,,,,,,,,,,,,,,,,,"['Very unhappy', 'Very happy']",,5e80b109ca1800791e1ca40c,16:40:20,27/03/2024
html-keyboard-response,90,179920,0.0-39.0,,"<div style=""font-size:100px;"">+</div>",,delaylearn,learning,ITI,D9fpXvBlJSQiR1QRKmZavfbe4tk1,D9fpXvBlJSQiR1QRKmZavfbe4tk1,,,,,,,,,,,,,,,,,,,1563.0,,,5e80b109ca1800791e1ca40c,16:40:20,27/03/2024
html-keyboard-response,91,181188,0.0-40.0-0.0,1266.4000000953674,"<div style=""display: flex; flex-direction: column; align-items: center; margin-top: -40px;""><img src=""images/pattern_6.png"" style=""width: 234px; height: 230px; margin-top: -50px;""><div style=""display: flex; justify-content: space-between; margin-top: 33px;""><img src=""images/choice_trial_14.png"" style=""width: 408px; height: 417px; margin-right: 200px;""><img src=""images/choice_trial_9.png"" style=""width: 408px; height: 417px;""></div></div>",j,delaylearn,learning,trial,D9fpXvBlJSQiR1QRKmZavfbe4tk1,D9fpXvBlJSQiR1QRKmZavfbe4tk1,5.0,images/choice_trial_14.png,images/choice_trial_9.png,images/pattern_6.png,f,f,750.0,14.0,9.0,5.0,0.0,17.0,0.0,0.0,9.0,70.0,,,,,,5e80b109ca1800791e1ca40c,16:40:20,27/03/2024
html-keyboard-response,92,182199,0.0-40.0-1.0,,"<div style=""display: flex; flex-direction: column; align-items: center; margin-top: -40px;""><img src=""images/pattern_6.png"" style=""width: 234px; height: 230px; margin-top: -50px;""><div style=""display: flex; justify-content: space-between; margin-top: 33px;""><img src=""images/choice_trial_9.png"" style=""width: 408px; height: 417px; margin-left:608px;""></div></div>",,delaylearn,learning,display_response,D9fpXvBlJSQiR1QRKmZavfbe4tk1,D9fpXvBlJSQiR1QRKmZavfbe4tk1,,,,,,,,,,,,,,,,,chosen stimuli: images/choice_trial_9.png,,,,,5e80b109ca1800791e1ca40c,16:40:20,27/03/2024
html-keyboard-response,93,182954,0.0-40.0-2.0,,,,delaylearn,learning,feedback_duration_window,D9fpXvBlJSQiR1QRKmZavfbe4tk1,D9fpXvBlJSQiR1QRKmZavfbe4tk1,,,,,,,,,,,,,,,,,,750.0,,,,5e80b109ca1800791e1ca40c,16:40:20,27/03/2024
html-keyboard-response,94,184465,0.0-40.0-3.0,,<div style='margin:auto;width: auto; font-size: 150%'><span style='font-weight: bold; font-size: 100px; color: red;'>0 points!</span><br><br></div>,,delaylearn,learning,feedback_image_window,D9fpXvBlJSQiR1QRKmZavfbe4tk1,D9fpXvBlJSQiR1QRKmZavfbe4tk1,,,,,,,,,,,,,,,,,,,,,,5e80b109ca1800791e1ca40c,16:40:20,27/03/2024
html-keyboard-response,95,186866,0.0-41.0,,"<div style=""font-size:100px;"">+</div>",,delaylearn,learning,ITI,D9fpXvBlJSQiR1QRKmZavfbe4tk1,D9fpXvBlJSQiR1QRKmZavfbe4tk1,,,,,,,,,,,,,,,,,,,2397.0,,,5e80b109ca1800791e1ca40c,16:40:20,27/03/2024
html-keyboard-response,96,189386,0.0-42.0-0.0,2517.5,"<div style=""display: flex; flex-direction: column; align-items: center; margin-top: -40px;""><img src=""images/pattern_4.png"" style=""width: 234px; height: 230px; margin-top: -50px;""><div style=""display: flex; justify-content: space-between; margin-top: 33px;""><img src=""images/choice_trial_4.png"" style=""width: 408px; height: 417px; margin-right: 200px;""><img src=""images/choice_trial_11.png"" style=""width: 408px; height: 417px;""></div></div>",j,delaylearn,learning,trial,D9fpXvBlJSQiR1QRKmZavfbe4tk1,D9fpXvBlJSQiR1QRKmZavfbe4tk1,5.0,images/choice_trial_4.png,images/choice_trial_11.png,images/pattern_4.png,j,j,7000.0,4.0,11.0,3.0,1.0,18.0,1.0,1.0,11.0,80.0,,,,,,5e80b109ca1800791e1ca40c,16:40:20,27/03/2024
html-keyboard-response,97,190396,0.0-42.0-1.0,,"<div style=""display: flex; flex-direction: column; align-items: center; margin-top: -40px;""><img src=""images/pattern_4.png"" style=""width: 234px; height: 230px; margin-top: -50px;""><div style=""display: flex; justify-content: space-between; margin-top: 33px;""><img src=""images/choice_trial_11.png"" style=""width: 408px; height: 417px; margin-left:608px;""></div></div>",,delaylearn,learning,display_response,D9fpXvBlJSQiR1QRKmZavfbe4tk1,D9fpXvBlJSQiR1QRKmZavfbe4tk1,,,,,,,,,,,,,,,,,chosen stimuli: images/choice_trial_11.png,,,,,5e80b109ca1800791e1ca40c,16:40:20,27/03/2024
html-keyboard-response,98,197411,0.0-42.0-2.0,,,,delaylearn,learning,feedback_duration_window,D9fpXvBlJSQiR1QRKmZavfbe4tk1,D9fpXvBlJSQiR1QRKmZavfbe4tk1,,,,,,,,,,,,,,,,,,7000.0,,,,5e80b109ca1800791e1ca40c,16:40:20,27/03/2024
html-keyboard-response,99,198928,0.0-42.0-3.0,,<div style='margin:auto;width: auto; font-size: 150%'><span style='font-weight: bold; font-size: 100px; color: green;'>+10 points!</span><br><br></div>,,delaylearn,learning,feedback_image_window,D9fpXvBlJSQiR1QRKmZavfbe4tk1,D9fpXvBlJSQiR1QRKmZavfbe4tk1,,,,,,,,,,,,,,,,,,,,,,5e80b109ca1800791e1ca40c,16:40:20,27/03/2024
html-keyboard-response,100,201112,0.0-43.0,,"<div style=""font-size:100px;"">+</div>",,delaylearn,learning,ITI,D9fpXvBlJSQiR1QRKmZavfbe4tk1,D9fpXvBlJSQiR1QRKmZavfbe4tk1,,,,,,,,,,,,,,,,,,,2170.0,,,5e80b109ca1800791e1ca40c,16:40:20,27/03/2024
html-keyboard-response,101,202318,0.0-44.0-0.0,1203.9000000953674,"<div style=""display: flex; flex-direction: column; align-items: center; margin-top: -40px;""><img src=""images/pattern_7.png"" style=""width: 234px; height: 230px; margin-top: -50px;""><div style=""display: flex; justify-content: space-between; margin-top: 33px;""><img src=""images/choice_trial_8.png"" style=""width: 408px; height: 417px; margin-right: 200px;""><img src=""images/choice_trial_10.png"" style=""width: 408px; height: 417px;""></div></div>",f,delaylearn,learning,trial,D9fpXvBlJSQiR1QRKmZavfbe4tk1,D9fpXvBlJSQiR1QRKmZavfbe4tk1,5.0,images/choice_trial_8.png,images/choice_trial_10.png,images/pattern_7.png,j,f,750.0,8.0,10.0,6.0,0.0,19.0,1.0,0.0,8.0,80.0,,,,,,5e80b109ca1800791e1ca40c,16:40:20,27/03/2024
html-keyboard-response,102,203329,0.0-44.0-1.0,,"<div style=""display: flex; flex-direction: column; align-items: center; margin-top: -40px;""><img src=""images/pattern_7.png"" style=""width: 234px; height: 230px; margin-top: -50px;""><div style=""display: flex; justify-content: space-between; margin-top: 33px;""><img src=""images/choice_trial_8.png"" style=""width: 408px; height: 417px; margin-right: 608px;""></div></div>",,delaylearn,learning,display_response,D9fpXvBlJSQiR1QRKmZavfbe4tk1,D9fpXvBlJSQiR1QRKmZavfbe4tk1,,,,,,,,,,,,,,,,,chosen stimuli: images/choice_trial_8.png,,,,,5e80b109ca1800791e1ca40c,16:40:20,27/03/2024
html-keyboard-response,103,204089,0.0-44.0-2.0,,,,delaylearn,learning,feedback_duration_window,D9fpXvBlJSQiR1QRKmZavfbe4tk1,D9fpXvBlJSQiR1QRKmZavfbe4tk1,,,,,,,,,,,,,,,,,,750.0,,,,5e80b109ca1800791e1ca40c,16:40:20,27/03/2024
html-keyboard-response,104,205597,0.0-44.0-3.0,,<div style='margin:auto;width: auto; font-size: 150%'><span style='font-weight: bold; font-size: 100px; color: red;'>0 points!</span><br><br></div>,,delaylearn,learning,feedback_image_window,D9fpXvBlJSQiR1QRKmZavfbe4tk1,D9fpXvBlJSQiR1QRKmZavfbe4tk1,,,,,,,,,,,,,,,,,,,,,,5e80b109ca1800791e1ca40c,16:40:20,27/03/2024
html-keyboard-response,105,208077,0.0-45.0,,"<div style=""font-size:100px;"">+</div>",,delaylearn,learning,ITI,D9fpXvBlJSQiR1QRKmZavfbe4tk1,D9fpXvBlJSQiR1QRKmZavfbe4tk1,,,,,,,,,,,,,,,,,,,2475.0,,,5e80b109ca1800791e1ca40c,16:40:20,27/03/2024
html-keyboard-response,106,210141,0.0-46.0-0.0,2062.0999999046326,"<div style=""display: flex; flex-direction: column; align-items: center; margin-top: -40px;""><img src=""images/pattern_1.png"" style=""width: 234px; height: 230px; margin-top: -50px;""><div style=""display: flex; justify-content: space-between; margin-top: 33px;""><img src=""images/choice_trial_6.png"" style=""width: 408px; height: 417px; margin-right: 200px;""><img src=""images/choice_trial_15.png"" style=""width: 408px; height: 417px;""></div></div>",f,delaylearn,learning,trial,D9fpXvBlJSQiR1QRKmZavfbe4tk1,D9fpXvBlJSQiR1QRKmZavfbe4tk1,5.0,images/choice_trial_6.png,images/choice_trial_15.png,images/pattern_1.png,f,f,7000.0,6.0,15.0,1.0,0.0,20.0,1.0,1.0,6.0,90.0,,,,,,5e80b109ca1800791e1ca40c,16:40:20,27/03/2024
html-keyboard-response,107,211147,0.0-46.0-1.0,,"<div style=""display: flex; flex-direction: column; align-items: center; margin-top: -40px;""><img src=""images/pattern_1.png"" style=""width: 234px; height: 230px; margin-top: -50px;""><div style=""display: flex; justify-content: space-between; margin-top: 33px;""><img src=""images/choice_trial_6.png"" style=""width: 408px; height: 417px; margin-right: 608px;""></div></div>",,delaylearn,learning,display_response,D9fpXvBlJSQiR1QRKmZavfbe4tk1,D9fpXvBlJSQiR1QRKmZavfbe4tk1,,,,,,,,,,,,,,,,,chosen stimuli: images/choice_trial_6.png,,,,,5e80b109ca1800791e1ca40c,16:40:20,27/03/2024
html-keyboard-response,108,218159,0.0-46.0-2.0,,,,delaylearn,learning,feedback_duration_window,D9fpXvBlJSQiR1QRKmZavfbe4tk1,D9fpXvBlJSQiR1QRKmZavfbe4tk1,,,,,,,,,,,,,,,,,,7000.0,,,,5e80b109ca1800791e1ca40c,16:40:20,27/03/2024
html-keyboard-response,109,219661,0.0-46.0-3.0,,<div style='margin:auto;width: auto; font-size: 150%'><span style='font-weight: bold; font-size: 100px; color: green;'>+10 points!</span><br><br></div>,,delaylearn,learning,feedback_image_window,D9fpXvBlJSQiR1QRKmZavfbe4tk1,D9fpXvBlJSQiR1QRKmZavfbe4tk1,,,,,,,,,,,,,,,,,,,,,,5e80b109ca1800791e1ca40c,16:40:20,27/03/2024
html-keyboard-response,110,222132,0.0-47.0,,"<div style=""font-size:100px;"">+</div>",,delaylearn,learning,ITI,D9fpXvBlJSQiR1QRKmZavfbe4tk1,D9fpXvBlJSQiR1QRKmZavfbe4tk1,,,,,,,,,,,,,,,,,,,2466.0,,,5e80b109ca1800791e1ca40c,16:40:20,27/03/2024
html-keyboard-response,111,223744,0.0-48.0-0.0,1610.3999998569489,"<div style=""display: flex; flex-direction: column; align-items: center; margin-top: -40px;""><img src=""images/pattern_6.png"" style=""width: 234px; height: 230px; margin-top: -50px;""><div style=""display: flex; justify-content: space-between; margin-top: 33px;""><img src=""images/choice_trial_9.png"" style=""width: 408px; height: 417px; margin-right: 200px;""><img src=""images/choice_trial_14.png"" style=""width: 408px; height: 417px;""></div></div>",j,delaylearn,learning,trial,D9fpXvBlJSQiR1QRKmZavfbe4tk1,D9fpXvBlJSQiR1QRKmZavfbe4tk1,5.0,images/choice_trial_9.png,images/choice_trial_14.png,images/pattern_6.png,j,j,750.0,9.0,14.0,5.0,1.0,21.0,1.0,1.0,14.0,100.0,,,,,,5e80b109ca1800791e1ca40c,16:40:20,27/03/2024
html-keyboard-response,112,224752,0.0-48.0-1.0,,"<div style=""display: flex; flex-direction: column; align-items: center; margin-top: -40px;""><img src=""images/pattern_6.png"" style=""width: 234px; height: 230px; margin-top: -50px;""><div style=""display: flex; justify-content: space-between; margin-top: 33px;""><img src=""images/choice_trial_14.png"" style=""width: 408px; height: 417px; margin-left:608px;""></div></div>",,delaylearn,learning,display_response,D9fpXvBlJSQiR1QRKmZavfbe4tk1,D9fpXvBlJSQiR1QRKmZavfbe4tk1,,,,,,,,,,,,,,,,,chosen stimuli: images/choice_trial_14.png,,,,,5e80b109ca1800791e1ca40c,16:40:20,27/03/2024
html-keyboard-response,113,225503,0.0-48.0-2.0,,,,delaylearn,learning,feedback_duration_window,D9fpXvBlJSQiR1QRKmZavfbe4tk1,D9fpXvBlJSQiR1QRKmZavfbe4tk1,,,,,,,,,,,,,,,,,,750.0,,,,5e80b109ca1800791e1ca40c,16:40:20,27/03/2024
html-keyboard-response,114,227018,0.0-48.0-3.0,,<div style='margin:auto;width: auto; font-size: 150%'><span style='font-weight: bold; font-size: 100px; color: green;'>+10 points!</span><br><br></div>,,delaylearn,learning,feedback_image_window,D9fpXvBlJSQiR1QRKmZavfbe4tk1,D9fpXvBlJSQiR1QRKmZavfbe4tk1,,,,,,,,,,,,,,,,,,,,,,5e80b109ca1800791e1ca40c,16:40:20,27/03/2024
html-keyboard-response,115,228773,0.0-49.0,,"<div style=""font-size:100px;"">+</div>",,delaylearn,learning,ITI,D9fpXvBlJSQiR1QRKmZavfbe4tk1,D9fpXvBlJSQiR1QRKmZavfbe4tk1,,,,,,,,,,,,,,,,,,,1748.0,,,5e80b109ca1800791e1ca40c,16:40:20,27/03/2024
html-keyboard-response,116,230598,0.0-50.0-0.0,1822.4000000953674,"<div style=""display: flex; flex-direction: column; align-items: center; margin-top: -40px;""><img src=""images/pattern_4.png"" style=""width: 234px; height: 230px; margin-top: -50px;""><div style=""display: flex; justify-content: space-between; margin-top: 33px;""><img src=""images/choice_trial_11.png"" style=""width: 408px; height: 417px; margin-right: 200px;""><img src=""images/choice_trial_4.png"" style=""width: 408px; height: 417px;""></div></div>",f,delaylearn,learning,trial,D9fpXvBlJSQiR1QRKmZavfbe4tk1,D9fpXvBlJSQiR1QRKmZavfbe4tk1,5.0,images/choice_trial_11.png,images/choice_trial_4.png,images/pattern_4.png,f,f,7000.0,11.0,4.0,3.0,0.0,22.0,1.0,1.0,11.0,110.0,,,,,,5e80b109ca1800791e1ca40c,16:40:20,27/03/2024
html-keyboard-response,117,231608,0.0-50.0-1.0,,"<div style=""display: flex; flex-direction: column; align-items: center; margin-top: -40px;""><img src=""images/pattern_4.png"" style=""width: 234px; height: 230px; margin-top: -50px;""><div style=""display: flex; justify-content: space-between; margin-top: 33px;""><img src=""images/choice_trial_11.png"" style=""width: 408px; height: 417px; margin-right: 608px;""></div></div>",,delaylearn,learning,display_response,D9fpXvBlJSQiR1QRKmZavfbe4tk1,D9fpXvBlJSQiR1QRKmZavfbe4tk1,,,,,,,,,,,,,,,,,chosen stimuli: images/choice_trial_11.png,,,,,5e80b109ca1800791e1ca40c,16:40:20,27/03/2024
html-keyboard-response,118,238612,0.0-50.0-2.0,,,,delaylearn,learning,feedback_duration_window,D9fpXvBlJSQiR1QRKmZavfbe4tk1,D9fpXvBlJSQiR1QRKmZavfbe4tk1,,,,,,,,,,,,,,,,,,7000.0,,,,5e80b109ca1800791e1ca40c,16:40:20,27/03/2024
html-keyboard-response,119,240128,0.0-50.0-3.0,,<div style='margin:auto;width: auto; font-size: 150%'><span style='font-weight: bold; font-size: 100px; color: green;'>+10 points!</span><br><br></div>,,delaylearn,learning,feedback_image_window,D9fpXvBlJSQiR1QRKmZavfbe4tk1,D9fpXvBlJSQiR1QRKmZavfbe4tk1,,,,,,,,,,,,,,,,,,,,,,5e80b109ca1800791e1ca40c,16:40:20,27/03/2024
html-keyboard-response,120,240641,0.0-51.0-0.0,,,,,,mood_trial_fixation,D9fpXvBlJSQiR1QRKmZavfbe4tk1,,,,,,,,,,,,,,,,,,,,,,,5e80b109ca1800791e1ca40c,16:40:20,27/03/2024
lmdlab-html-vas-response,121,244978,0.0-51.0-1.0,3321.0,How happy are you right now?,0.6388888888888888,delaylearn,learning,mood_trial,D9fpXvBlJSQiR1QRKmZavfbe4tk1,D9fpXvBlJSQiR1QRKmZavfbe4tk1,,,,,,,,,,,,,,,,,,,,"['Very unhappy', 'Very happy']",,5e80b109ca1800791e1ca40c,16:40:20,27/03/2024
html-keyboard-response,122,246719,0.0-52.0,,"<div style=""font-size:100px;"">+</div>",,delaylearn,learning,ITI,D9fpXvBlJSQiR1QRKmZavfbe4tk1,D9fpXvBlJSQiR1QRKmZavfbe4tk1,,,,,,,,,,,,,,,,,,,1727.0,,,5e80b109ca1800791e1ca40c,16:40:20,27/03/2024
html-keyboard-response,123,248581,0.0-53.0-0.0,1860.3999998569489,"<div style=""display: flex; flex-direction: column; align-items: center; margin-top: -40px;""><img src=""images/pattern_7.png"" style=""width: 234px; height: 230px; margin-top: -50px;""><div style=""display: flex; justify-content: space-between; margin-top: 33px;""><img src=""images/choice_trial_10.png"" style=""width: 408px; height: 417px; margin-right: 200px;""><img src=""images/choice_trial_8.png"" style=""width: 408px; height: 417px;""></div></div>",j,delaylearn,learning,trial,D9fpXvBlJSQiR1QRKmZavfbe4tk1,D9fpXvBlJSQiR1QRKmZavfbe4tk1,5.0,images/choice_trial_10.png,images/choice_trial_8.png,images/pattern_7.png,j,j,750.0,10.0,8.0,6.0,1.0,23.0,1.0,1.0,8.0,120.0,,,,,,5e80b109ca1800791e1ca40c,16:40:20,27/03/2024
html-keyboard-response,124,249597,0.0-53.0-1.0,,"<div style=""display: flex; flex-direction: column; align-items: center; margin-top: -40px;""><img src=""images/pattern_7.png"" style=""width: 234px; height: 230px; margin-top: -50px;""><div style=""display: flex; justify-content: space-between; margin-top: 33px;""><img src=""images/choice_trial_8.png"" style=""width: 408px; height: 417px; margin-left:608px;""></div></div>",,delaylearn,learning,display_response,D9fpXvBlJSQiR1QRKmZavfbe4tk1,D9fpXvBlJSQiR1QRKmZavfbe4tk1,,,,,,,,,,,,,,,,,chosen stimuli: images/choice_trial_8.png,,,,,5e80b109ca1800791e1ca40c,16:40:20,27/03/2024
html-keyboard-response,125,250358,0.0-53.0-2.0,,,,delaylearn,learning,feedback_duration_window,D9fpXvBlJSQiR1QRKmZavfbe4tk1,D9fpXvBlJSQiR1QRKmZavfbe4tk1,,,,,,,,,,,,,,,,,,750.0,,,,5e80b109ca1800791e1ca40c,16:40:20,27/03/2024
html-keyboard-response,126,251866,0.0-53.0-3.0,,<div style='margin:auto;width: auto; font-size: 150%'><span style='font-weight: bold; font-size: 100px; color: green;'>+10 points!</span><br><br></div>,,delaylearn,learning,feedback_image_window,D9fpXvBlJSQiR1QRKmZavfbe4tk1,D9fpXvBlJSQiR1QRKmZavfbe4tk1,,,,,,,,,,,,,,,,,,,,,,5e80b109ca1800791e1ca40c,16:40:20,27/03/2024
html-keyboard-response,127,253775,0.0-54.0,,"<div style=""font-size:100px;"">+</div>",,delaylearn,learning,ITI,D9fpXvBlJSQiR1QRKmZavfbe4tk1,D9fpXvBlJSQiR1QRKmZavfbe4tk1,,,,,,,,,,,,,,,,,,,1903.0,,,5e80b109ca1800791e1ca40c,16:40:20,27/03/2024
html-keyboard-response,128,255526,0.0-55.0-0.0,1748.5999999046326,"<div style=""display: flex; flex-direction: column; align-items: center; margin-top: -40px;""><img src=""images/pattern_1.png"" style=""width: 234px; height: 230px; margin-top: -50px;""><div style=""display: flex; justify-content: space-between; margin-top: 33px;""><img src=""images/choice_trial_15.png"" style=""width: 408px; height: 417px; margin-right: 200px;""><img src=""images/choice_trial_6.png"" style=""width: 408px; height: 417px;""></div></div>",j,delaylearn,learning,trial,D9fpXvBlJSQiR1QRKmZavfbe4tk1,D9fpXvBlJSQiR1QRKmZavfbe4tk1,5.0,images/choice_trial_15.png,images/choice_trial_6.png,images/pattern_1.png,f,j,7000.0,15.0,6.0,1.0,1.0,24.0,1.0,0.0,6.0,120.0,,,,,,5e80b109ca1800791e1ca40c,16:40:20,27/03/2024
html-keyboard-response,129,256540,0.0-55.0-1.0,,"<div style=""display: flex; flex-direction: column; align-items: center; margin-top: -40px;""><img src=""images/pattern_1.png"" style=""width: 234px; height: 230px; margin-top: -50px;""><div style=""display: flex; justify-content: space-between; margin-top: 33px;""><img src=""images/choice_trial_6.png"" style=""width: 408px; height: 417px; margin-left:608px;""></div></div>",,delaylearn,learning,display_response,D9fpXvBlJSQiR1QRKmZavfbe4tk1,D9fpXvBlJSQiR1QRKmZavfbe4tk1,,,,,,,,,,,,,,,,,chosen stimuli: images/choice_trial_6.png,,,,,5e80b109ca1800791e1ca40c,16:40:20,27/03/2024
html-keyboard-response,130,263551,0.0-55.0-2.0,,,,delaylearn,learning,feedback_duration_window,D9fpXvBlJSQiR1QRKmZavfbe4tk1,D9fpXvBlJSQiR1QRKmZavfbe4tk1,,,,,,,,,,,,,,,,,,7000.0,,,,5e80b109ca1800791e1ca40c,16:40:20,27/03/2024
html-keyboard-response,131,265068,0.0-55.0-3.0,,<div style='margin:auto;width: auto; font-size: 150%'><span style='font-weight: bold; font-size: 100px; color: red;'>0 points!</span><br><br></div>,,delaylearn,learning,feedback_image_window,D9fpXvBlJSQiR1QRKmZavfbe4tk1,D9fpXvBlJSQiR1QRKmZavfbe4tk1,,,,,,,,,,,,,,,,,,,,,,5e80b109ca1800791e1ca40c,16:40:20,27/03/2024
html-keyboard-response,132,267125,0.0-56.0,,"<div style=""font-size:100px;"">+</div>",,delaylearn,learning,ITI,D9fpXvBlJSQiR1QRKmZavfbe4tk1,D9fpXvBlJSQiR1QRKmZavfbe4tk1,,,,,,,,,,,,,,,,,,,2043.0,,,5e80b109ca1800791e1ca40c,16:40:20,27/03/2024
html-keyboard-response,133,268046,0.0-57.0-0.0,919.3000001907349,"<div style=""display: flex; flex-direction: column; align-items: center; margin-top: -40px;""><img src=""images/pattern_5.png"" style=""width: 234px; height: 230px; margin-top: -50px;""><div style=""display: flex; justify-content: space-between; margin-top: 33px;""><img src=""images/choice_trial_13.png"" style=""width: 408px; height: 417px; margin-right: 200px;""><img src=""images/choice_trial_7.png"" style=""width: 408px; height: 417px;""></div></div>",j,delaylearn,learning,trial,D9fpXvBlJSQiR1QRKmZavfbe4tk1,D9fpXvBlJSQiR1QRKmZavfbe4tk1,5.0,images/choice_trial_13.png,images/choice_trial_7.png,images/pattern_5.png,j,j,750.0,13.0,7.0,4.0,1.0,25.0,1.0,1.0,7.0,130.0,,,,,,5e80b109ca1800791e1ca40c,16:40:20,27/03/2024
html-keyboard-response,134,269050,0.0-57.0-1.0,,"<div style=""display: flex; flex-direction: column; align-items: center; margin-top: -40px;""><img src=""images/pattern_5.png"" style=""width: 234px; height: 230px; margin-top: -50px;""><div style=""display: flex; justify-content: space-between; margin-top: 33px;""><img src=""images/choice_trial_7.png"" style=""width: 408px; height: 417px; margin-left:608px;""></div></div>",,delaylearn,learning,display_response,D9fpXvBlJSQiR1QRKmZavfbe4tk1,D9fpXvBlJSQiR1QRKmZavfbe4tk1,,,,,,,,,,,,,,,,,chosen stimuli: images/choice_trial_7.png,,,,,5e80b109ca1800791e1ca40c,16:40:20,27/03/2024
html-keyboard-response,135,269806,0.0-57.0-2.0,,,,delaylearn,learning,feedback_duration_window,D9fpXvBlJSQiR1QRKmZavfbe4tk1,D9fpXvBlJSQiR1QRKmZavfbe4tk1,,,,,,,,,,,,,,,,,,750.0,,,,5e80b109ca1800791e1ca40c,16:40:20,27/03/2024
html-keyboard-response,136,271307,0.0-57.0-3.0,,<div style='margin:auto;width: auto; font-size: 150%'><span style='font-weight: bold; font-size: 100px; color: green;'>+10 points!</span><br><br></div>,,delaylearn,learning,feedback_image_window,D9fpXvBlJSQiR1QRKmZavfbe4tk1,D9fpXvBlJSQiR1QRKmZavfbe4tk1,,,,,,,,,,,,,,,,,,,,,,5e80b109ca1800791e1ca40c,16:40:20,27/03/2024
html-keyboard-response,137,272830,0.0-58.0,,"<div style=""font-size:100px;"">+</div>",,delaylearn,learning,ITI,D9fpXvBlJSQiR1QRKmZavfbe4tk1,D9fpXvBlJSQiR1QRKmZavfbe4tk1,,,,,,,,,,,,,,,,,,,1510.0,,,5e80b109ca1800791e1ca40c,16:40:20,27/03/2024
html-keyboard-response,138,274390,0.0-59.0-0.0,1557.6000001430511,"<div style=""display: flex; flex-direction: column; align-items: center; margin-top: -40px;""><img src=""images/pattern_3.png"" style=""width: 234px; height: 230px; margin-top: -50px;""><div style=""display: flex; justify-content: space-between; margin-top: 33px;""><img src=""images/choice_trial_2.png"" style=""width: 408px; height: 417px; margin-right: 200px;""><img src=""images/choice_trial_16.png"" style=""width: 408px; height: 417px;""></div></div>",f,delaylearn,learning,trial,D9fpXvBlJSQiR1QRKmZavfbe4tk1,D9fpXvBlJSQiR1QRKmZavfbe4tk1,5.0,images/choice_trial_2.png,images/choice_trial_16.png,images/pattern_3.png,j,j,7000.0,2.0,16.0,2.0,1.0,26.0,0.0,0.0,2.0,130.0,,,,,,5e80b109ca1800791e1ca40c,16:40:20,27/03/2024
html-keyboard-response,139,275403,0.0-59.0-1.0,,"<div style=""display: flex; flex-direction: column; align-items: center; margin-top: -40px;""><img src=""images/pattern_3.png"" style=""width: 234px; height: 230px; margin-top: -50px;""><div style=""display: flex; justify-content: space-between; margin-top: 33px;""><img src=""images/choice_trial_2.png"" style=""width: 408px; height: 417px; margin-right: 608px;""></div></div>",,delaylearn,learning,display_response,D9fpXvBlJSQiR1QRKmZavfbe4tk1,D9fpXvBlJSQiR1QRKmZavfbe4tk1,,,,,,,,,,,,,,,,,chosen stimuli: images/choice_trial_2.png,,,,,5e80b109ca1800791e1ca40c,16:40:20,27/03/2024
html-keyboard-response,140,282405,0.0-59.0-2.0,,,,delaylearn,learning,feedback_duration_window,D9fpXvBlJSQiR1QRKmZavfbe4tk1,D9fpXvBlJSQiR1QRKmZavfbe4tk1,,,,,,,,,,,,,,,,,,7000.0,,,,5e80b109ca1800791e1ca40c,16:40:20,27/03/2024
html-keyboard-response,141,283920,0.0-59.0-3.0,,<div style='margin:auto;width: auto; font-size: 150%'><span style='font-weight: bold; font-size: 100px; color: red;'>0 points!</span><br><br></div>,,delaylearn,learning,feedback_image_window,D9fpXvBlJSQiR1QRKmZavfbe4tk1,D9fpXvBlJSQiR1QRKmZavfbe4tk1,,,,,,,,,,,,,,,,,,,,,,5e80b109ca1800791e1ca40c,16:40:20,27/03/2024
lmdlab-html-vas-response,142,290712,0.0-60.0-0.0,5269.0,*How <b><u>confident</u></b> are you feeling about your answers at this moment?*,0.2824074074074074,rewlearn,rate_confidence,,D9fpXvBlJSQiR1QRKmZavfbe4tk1,D9fpXvBlJSQiR1QRKmZavfbe4tk1,,,,,,,,,,,,,,,,,,,,"['No confidence', 'Complete confidence']",,5e80b109ca1800791e1ca40c,16:40:20,27/03/2024
lmdlab-rest-trial-limit,143,305667,0.0-60.0-1.0,13448.600000143051,"<div style=""font-size:40px;""><b>Please take a break!</b><br><br><br><br><p>Great work: you earned 130 points.<br><br><br><p>You have completed part(s) 1 of 5.<br><br><br><br>When you are ready to continue<br><br><br>please click the button.</p><br><br>",0,delaylearn,learning,break,D9fpXvBlJSQiR1QRKmZavfbe4tk1,D9fpXvBlJSQiR1QRKmZavfbe4tk1,,,,,,,,,,,,,,,,,,,,,0.0,5e80b109ca1800791e1ca40c,16:40:20,27/03/2024
html-keyboard-response,144,308673,0.0-60.0-2.0,,"<div style=""font-size:100px;"">+</div>",,delaylearn,learning,pre_fixation,D9fpXvBlJSQiR1QRKmZavfbe4tk1,,,,,,,,,,,,,,,,,,,,,,,5e80b109ca1800791e1ca40c,16:40:20,27/03/2024
lmdlab-html-vas-response,145,313170,0.0-60.0-3.0-0.0,3490.0,How happy are you right now?,0.5879629629629629,delaylearn,learning,mood_baseline,D9fpXvBlJSQiR1QRKmZavfbe4tk1,D9fpXvBlJSQiR1QRKmZavfbe4tk1,,,,,,,,,,,,,,,,,,,,"['Very unhappy', 'Very happy']",,5e80b109ca1800791e1ca40c,16:40:20,27/03/2024
html-keyboard-response,146,314672,0.0-60.0-3.0-1.0,,,,,,mood_baseline_fixation,D9fpXvBlJSQiR1QRKmZavfbe4tk1,,,,,,,,,,,,,,,,,,,,,,,5e80b109ca1800791e1ca40c,16:40:20,27/03/2024
html-keyboard-response,147,316505,0.0-61.0,,"<div style=""font-size:100px;"">+</div>",,delaylearn,learning,ITI,D9fpXvBlJSQiR1QRKmZavfbe4tk1,D9fpXvBlJSQiR1QRKmZavfbe4tk1,,,,,,,,,,,,,,,,,,,1818.0,,,5e80b109ca1800791e1ca40c,16:40:20,27/03/2024
html-keyboard-response,148,317985,0.0-62.0-0.0,1477.0,"<div style=""display: flex; flex-direction: column; align-items: center; margin-top: -40px;""><img src=""images/pattern_7.png"" style=""width: 234px; height: 230px; margin-top: -50px;""><div style=""display: flex; justify-content: space-between; margin-top: 33px;""><img src=""images/choice_trial_10.png"" style=""width: 408px; height: 417px; margin-right: 200px;""><img src=""images/choice_trial_8.png"" style=""width: 408px; height: 417px;""></div></div>",j,delaylearn,learning,trial,D9fpXvBlJSQiR1QRKmZavfbe4tk1,D9fpXvBlJSQiR1QRKmZavfbe4tk1,5.0,images/choice_trial_10.png,images/choice_trial_8.png,images/pattern_7.png,j,j,750.0,10.0,8.0,6.0,1.0,27.0,1.0,1.0,8.0,140.0,,,,,,5e80b109ca1800791e1ca40c,16:40:20,27/03/2024
html-keyboard-response,149,318992,0.0-62.0-1.0,,"<div style=""display: flex; flex-direction: column; align-items: center; margin-top: -40px;""><img src=""images/pattern_7.png"" style=""width: 234px; height: 230px; margin-top: -50px;""><div style=""display: flex; justify-content: space-between; margin-top: 33px;""><img src=""images/choice_trial_8.png"" style=""width: 408px; height: 417px; margin-left:608px;""></div></div>",,delaylearn,learning,display_response,D9fpXvBlJSQiR1QRKmZavfbe4tk1,D9fpXvBlJSQiR1QRKmZavfbe4tk1,,,,,,,,,,,,,,,,,chosen stimuli: images/choice_trial_8.png,,,,,5e80b109ca1800791e1ca40c,16:40:20,27/03/2024
html-keyboard-response,150,319757,0.0-62.0-2.0,,,,delaylearn,learning,feedback_duration_window,D9fpXvBlJSQiR1QRKmZavfbe4tk1,D9fpXvBlJSQiR1QRKmZavfbe4tk1,,,,,,,,,,,,,,,,,,750.0,,,,5e80b109ca1800791e1ca40c,16:40:20,27/03/2024
html-keyboard-response,151,321266,0.0-62.0-3.0,,<div style='margin:auto;width: auto; font-size: 150%'><span style='font-weight: bold; font-size: 100px; color: green;'>+10 points!</span><br><br></div>,,delaylearn,learning,feedback_image_window,D9fpXvBlJSQiR1QRKmZavfbe4tk1,D9fpXvBlJSQiR1QRKmZavfbe4tk1,,,,,,,,,,,,,,,,,,,,,,5e80b109ca1800791e1ca40c,16:40:20,27/03/2024
html-keyboard-response,152,321781,0.0-63.0-0.0,,,,,,mood_trial_fixation,D9fpXvBlJSQiR1QRKmZavfbe4tk1,,,,,,,,,,,,,,,,,,,,,,,5e80b109ca1800791e1ca40c,16:40:20,27/03/2024
lmdlab-html-vas-response,153,326267,0.0-63.0-1.0,3483.0,How happy are you right now?,0.6527777777777778,delaylearn,learning,mood_trial,D9fpXvBlJSQiR1QRKmZavfbe4tk1,D9fpXvBlJSQiR1QRKmZavfbe4tk1,,,,,,,,,,,,,,,,,,,,"['Very unhappy', 'Very happy']",,5e80b109ca1800791e1ca40c,16:40:20,27/03/2024
html-keyboard-response,154,328417,0.0-64.0,,"<div style=""font-size:100px;"">+</div>",,delaylearn,learning,ITI,D9fpXvBlJSQiR1QRKmZavfbe4tk1,D9fpXvBlJSQiR1QRKmZavfbe4tk1,,,,,,,,,,,,,,,,,,,2147.0,,,5e80b109ca1800791e1ca40c,16:40:20,27/03/2024
html-keyboard-response,155,329524,0.0-65.0-0.0,1104.6000001430511,"<div style=""display: flex; flex-direction: column; align-items: center; margin-top: -40px;""><img src=""images/pattern_1.png"" style=""width: 234px; height: 230px; margin-top: -50px;""><div style=""display: flex; justify-content: space-between; margin-top: 33px;""><img src=""images/choice_trial_6.png"" style=""width: 408px; height: 417px; margin-right: 200px;""><img src=""images/choice_trial_15.png"" style=""width: 408px; height: 417px;""></div></div>",f,delaylearn,learning,trial,D9fpXvBlJSQiR1QRKmZavfbe4tk1,D9fpXvBlJSQiR1QRKmZavfbe4tk1,5.0,images/choice_trial_6.png,images/choice_trial_15.png,images/pattern_1.png,f,f,7000.0,6.0,15.0,1.0,0.0,28.0,1.0,1.0,6.0,150.0,,,,,,5e80b109ca1800791e1ca40c,16:40:20,27/03/2024
html-keyboard-response,156,330533,0.0-65.0-1.0,,"<div style=""display: flex; flex-direction: column; align-items: center; margin-top: -40px;""><img src=""images/pattern_1.png"" style=""width: 234px; height: 230px; margin-top: -50px;""><div style=""display: flex; justify-content: space-between; margin-top: 33px;""><img src=""images/choice_trial_6.png"" style=""width: 408px; height: 417px; margin-right: 608px;""></div></div>",,delaylearn,learning,display_response,D9fpXvBlJSQiR1QRKmZavfbe4tk1,D9fpXvBlJSQiR1QRKmZavfbe4tk1,,,,,,,,,,,,,,,,,chosen stimuli: images/choice_trial_6.png,,,,,5e80b109ca1800791e1ca40c,16:40:20,27/03/2024
html-keyboard-response,157,337538,0.0-65.0-2.0,,,,delaylearn,learning,feedback_duration_window,D9fpXvBlJSQiR1QRKmZavfbe4tk1,D9fpXvBlJSQiR1QRKmZavfbe4tk1,,,,,,,,,,,,,,,,,,7000.0,,,,5e80b109ca1800791e1ca40c,16:40:20,27/03/2024
html-keyboard-response,158,339050,0.0-65.0-3.0,,<div style='margin:auto;width: auto; font-size: 150%'><span style='font-weight: bold; font-size: 100px; color: green;'>+10 points!</span><br><br></div>,,delaylearn,learning,feedback_image_window,D9fpXvBlJSQiR1QRKmZavfbe4tk1,D9fpXvBlJSQiR1QRKmZavfbe4tk1,,,,,,,,,,,,,,,,,,,,,,5e80b109ca1800791e1ca40c,16:40:20,27/03/2024
html-keyboard-response,159,341137,0.0-66.0,,"<div style=""font-size:100px;"">+</div>",,delaylearn,learning,ITI,D9fpXvBlJSQiR1QRKmZavfbe4tk1,D9fpXvBlJSQiR1QRKmZavfbe4tk1,,,,,,,,,,,,,,,,,,,2084.0,,,5e80b109ca1800791e1ca40c,16:40:20,27/03/2024
html-keyboard-response,160,341952,0.0-67.0-0.0,813.6000001430511,"<div style=""display: flex; flex-direction: column; align-items: center; margin-top: -40px;""><img src=""images/pattern_5.png"" style=""width: 234px; height: 230px; margin-top: -50px;""><div style=""display: flex; justify-content: space-between; margin-top: 33px;""><img src=""images/choice_trial_7.png"" style=""width: 408px; height: 417px; margin-right: 200px;""><img src=""images/choice_trial_13.png"" style=""width: 408px; height: 417px;""></div></div>",f,delaylearn,learning,trial,D9fpXvBlJSQiR1QRKmZavfbe4tk1,D9fpXvBlJSQiR1QRKmZavfbe4tk1,5.0,images/choice_trial_7.png,images/choice_trial_13.png,images/pattern_5.png,f,f,750.0,7.0,13.0,4.0,0.0,29.0,1.0,1.0,7.0,160.0,,,,,,5e80b109ca1800791e1ca40c,16:40:20,27/03/2024
html-keyboard-response,161,342960,0.0-67.0-1.0,,"<div style=""display: flex; flex-direction: column; align-items: center; margin-top: -40px;""><img src=""images/pattern_5.png"" style=""width: 234px; height: 230px; margin-top: -50px;""><div style=""display: flex; justify-content: space-between; margin-top: 33px;""><img src=""images/choice_trial_7.png"" style=""width: 408px; height: 417px; margin-right: 608px;""></div></div>",,delaylearn,learning,display_response,D9fpXvBlJSQiR1QRKmZavfbe4tk1,D9fpXvBlJSQiR1QRKmZavfbe4tk1,,,,,,,,,,,,,,,,,chosen stimuli: images/choice_trial_7.png,,,,,5e80b109ca1800791e1ca40c,16:40:20,27/03/2024
html-keyboard-response,162,343713,0.0-67.0-2.0,,,,delaylearn,learning,feedback_duration_window,D9fpXvBlJSQiR1QRKmZavfbe4tk1,D9fpXvBlJSQiR1QRKmZavfbe4tk1,,,,,,,,,,,,,,,,,,750.0,,,,5e80b109ca1800791e1ca40c,16:40:20,27/03/2024
html-keyboard-response,163,345220,0.0-67.0-3.0,,<div style='margin:auto;width: auto; font-size: 150%'><span style='font-weight: bold; font-size: 100px; color: green;'>+10 points!</span><br><br></div>,,delaylearn,learning,feedback_image_window,D9fpXvBlJSQiR1QRKmZavfbe4tk1,D9fpXvBlJSQiR1QRKmZavfbe4tk1,,,,,,,,,,,,,,,,,,,,,,5e80b109ca1800791e1ca40c,16:40:20,27/03/2024
html-keyboard-response,164,347579,0.0-68.0,,"<div style=""font-size:100px;"">+</div>",,delaylearn,learning,ITI,D9fpXvBlJSQiR1QRKmZavfbe4tk1,D9fpXvBlJSQiR1QRKmZavfbe4tk1,,,,,,,,,,,,,,,,,,,2350.0,,,5e80b109ca1800791e1ca40c,16:40:20,27/03/2024
html-keyboard-response,165,348680,0.0-69.0-0.0,1098.0999999046326,"<div style=""display: flex; flex-direction: column; align-items: center; margin-top: -40px;""><img src=""images/pattern_6.png"" style=""width: 234px; height: 230px; margin-top: -50px;""><div style=""display: flex; justify-content: space-between; margin-top: 33px;""><img src=""images/choice_trial_9.png"" style=""width: 408px; height: 417px; margin-right: 200px;""><img src=""images/choice_trial_14.png"" style=""width: 408px; height: 417px;""></div></div>",f,delaylearn,learning,trial,D9fpXvBlJSQiR1QRKmZavfbe4tk1,D9fpXvBlJSQiR1QRKmZavfbe4tk1,5.0,images/choice_trial_9.png,images/choice_trial_14.png,images/pattern_6.png,j,j,750.0,9.0,14.0,5.0,1.0,30.0,0.0,0.0,9.0,160.0,,,,,,5e80b109ca1800791e1ca40c,16:40:20,27/03/2024
html-keyboard-response,166,349683,0.0-69.0-1.0,,"<div style=""display: flex; flex-direction: column; align-items: center; margin-top: -40px;""><img src=""images/pattern_6.png"" style=""width: 234px; height: 230px; margin-top: -50px;""><div style=""display: flex; justify-content: space-between; margin-top: 33px;""><img src=""images/choice_trial_9.png"" style=""width: 408px; height: 417px; margin-right: 608px;""></div></div>",,delaylearn,learning,display_response,D9fpXvBlJSQiR1QRKmZavfbe4tk1,D9fpXvBlJSQiR1QRKmZavfbe4tk1,,,,,,,,,,,,,,,,,chosen stimuli: images/choice_trial_9.png,,,,,5e80b109ca1800791e1ca40c,16:40:20,27/03/2024
html-keyboard-response,167,350440,0.0-69.0-2.0,,,,delaylearn,learning,feedback_duration_window,D9fpXvBlJSQiR1QRKmZavfbe4tk1,D9fpXvBlJSQiR1QRKmZavfbe4tk1,,,,,,,,,,,,,,,,,,750.0,,,,5e80b109ca1800791e1ca40c,16:40:20,27/03/2024
html-keyboard-response,168,351951,0.0-69.0-3.0,,<div style='margin:auto;width: auto; font-size: 150%'><span style='font-weight: bold; font-size: 100px; color: red;'>0 points!</span><br><br></div>,,delaylearn,learning,feedback_image_window,D9fpXvBlJSQiR1QRKmZavfbe4tk1,D9fpXvBlJSQiR1QRKmZavfbe4tk1,,,,,,,,,,,,,,,,,,,,,,5e80b109ca1800791e1ca40c,16:40:20,27/03/2024
html-keyboard-response,169,352453,0.0-70.0-0.0,,,,,,mood_trial_fixation,D9fpXvBlJSQiR1QRKmZavfbe4tk1,,,,,,,,,,,,,,,,,,,,,,,5e80b109ca1800791e1ca40c,16:40:20,27/03/2024
lmdlab-html-vas-response,170,356404,0.0-70.0-1.0,2941.0,How happy are you right now?,0.5555555555555556,delaylearn,learning,mood_trial,D9fpXvBlJSQiR1QRKmZavfbe4tk1,D9fpXvBlJSQiR1QRKmZavfbe4tk1,,,,,,,,,,,,,,,,,,,,"['Very unhappy', 'Very happy']",,5e80b109ca1800791e1ca40c,16:40:20,27/03/2024
html-keyboard-response,171,358400,0.0-71.0,,"<div style=""font-size:100px;"">+</div>",,delaylearn,learning,ITI,D9fpXvBlJSQiR1QRKmZavfbe4tk1,D9fpXvBlJSQiR1QRKmZavfbe4tk1,,,,,,,,,,,,,,,,,,,1993.0,,,5e80b109ca1800791e1ca40c,16:40:20,27/03/2024
html-keyboard-response,172,359284,0.0-72.0-0.0,881.7000000476837,"<div style=""display: flex; flex-direction: column; align-items: center; margin-top: -40px;""><img src=""images/pattern_4.png"" style=""width: 234px; height: 230px; margin-top: -50px;""><div style=""display: flex; justify-content: space-between; margin-top: 33px;""><img src=""images/choice_trial_4.png"" style=""width: 408px; height: 417px; margin-right: 200px;""><img src=""images/choice_trial_11.png"" style=""width: 408px; height: 417px;""></div></div>",j,delaylearn,learning,trial,D9fpXvBlJSQiR1QRKmZavfbe4tk1,D9fpXvBlJSQiR1QRKmZavfbe4tk1,5.0,images/choice_trial_4.png,images/choice_trial_11.png,images/pattern_4.png,j,j,7000.0,4.0,11.0,3.0,1.0,31.0,1.0,1.0,11.0,170.0,,,,,,5e80b109ca1800791e1ca40c,16:40:20,27/03/2024
html-keyboard-response,173,360287,0.0-72.0-1.0,,"<div style=""display: flex; flex-direction: column; align-items: center; margin-top: -40px;""><img src=""images/pattern_4.png"" style=""width: 234px; height: 230px; margin-top: -50px;""><div style=""display: flex; justify-content: space-between; margin-top: 33px;""><img src=""images/choice_trial_11.png"" style=""width: 408px; height: 417px; margin-left:608px;""></div></div>",,delaylearn,learning,display_response,D9fpXvBlJSQiR1QRKmZavfbe4tk1,D9fpXvBlJSQiR1QRKmZavfbe4tk1,,,,,,,,,,,,,,,,,chosen stimuli: images/choice_trial_11.png,,,,,5e80b109ca1800791e1ca40c,16:40:20,27/03/2024
html-keyboard-response,174,367293,0.0-72.0-2.0,,,,delaylearn,learning,feedback_duration_window,D9fpXvBlJSQiR1QRKmZavfbe4tk1,D9fpXvBlJSQiR1QRKmZavfbe4tk1,,,,,,,,,,,,,,,,,,7000.0,,,,5e80b109ca1800791e1ca40c,16:40:20,27/03/2024
html-keyboard-response,175,368804,0.0-72.0-3.0,,<div style='margin:auto;width: auto; font-size: 150%'><span style='font-weight: bold; font-size: 100px; color: green;'>+10 points!</span><br><br></div>,,delaylearn,learning,feedback_image_window,D9fpXvBlJSQiR1QRKmZavfbe4tk1,D9fpXvBlJSQiR1QRKmZavfbe4tk1,,,,,,,,,,,,,,,,,,,,,,5e80b109ca1800791e1ca40c,16:40:20,27/03/2024
html-keyboard-response,176,370982,0.0-73.0,,"<div style=""font-size:100px;"">+</div>",,delaylearn,learning,ITI,D9fpXvBlJSQiR1QRKmZavfbe4tk1,D9fpXvBlJSQiR1QRKmZavfbe4tk1,,,,,,,,,,,,,,,,,,,2166.0,,,5e80b109ca1800791e1ca40c,16:40:20,27/03/2024
html-keyboard-response,177,373193,0.0-74.0-0.0,2208.399999856949,"<div style=""display: flex; flex-direction: column; align-items: center; margin-top: -40px;""><img src=""images/pattern_3.png"" style=""width: 234px; height: 230px; margin-top: -50px;""><div style=""display: flex; justify-content: space-between; margin-top: 33px;""><img src=""images/choice_trial_2.png"" style=""width: 408px; height: 417px; margin-right: 200px;""><img src=""images/choice_trial_16.png"" style=""width: 408px; height: 417px;""></div></div>",f,delaylearn,learning,trial,D9fpXvBlJSQiR1QRKmZavfbe4tk1,D9fpXvBlJSQiR1QRKmZavfbe4tk1,5.0,images/choice_trial_2.png,images/choice_trial_16.png,images/pattern_3.png,j,j,7000.0,2.0,16.0,2.0,1.0,32.0,0.0,0.0,2.0,170.0,,,,,,5e80b109ca1800791e1ca40c,16:40:20,27/03/2024
html-keyboard-response,178,374198,0.0-74.0-1.0,,"<div style=""display: flex; flex-direction: column; align-items: center; margin-top: -40px;""><img src=""images/pattern_3.png"" style=""width: 234px; height: 230px; margin-top: -50px;""><div style=""display: flex; justify-content: space-between; margin-top: 33px;""><img src=""images/choice_trial_2.png"" style=""width: 408px; height: 417px; margin-right: 608px;""></div></div>",,delaylearn,learning,display_response,D9fpXvBlJSQiR1QRKmZavfbe4tk1,D9fpXvBlJSQiR1QRKmZavfbe4tk1,,,,,,,,,,,,,,,,,chosen stimuli: images/choice_trial_2.png,,,,,5e80b109ca1800791e1ca40c,16:40:20,27/03/2024
html-keyboard-response,179,381207,0.0-74.0-2.0,,,,delaylearn,learning,feedback_duration_window,D9fpXvBlJSQiR1QRKmZavfbe4tk1,D9fpXvBlJSQiR1QRKmZavfbe4tk1,,,,,,,,,,,,,,,,,,7000.0,,,,5e80b109ca1800791e1ca40c,16:40:20,27/03/2024
html-keyboard-response,180,382715,0.0-74.0-3.0,,<div style='margin:auto;width: auto; font-size: 150%'><span style='font-weight: bold; font-size: 100px; color: red;'>0 points!</span><br><br></div>,,delaylearn,learning,feedback_image_window,D9fpXvBlJSQiR1QRKmZavfbe4tk1,D9fpXvBlJSQiR1QRKmZavfbe4tk1,,,,,,,,,,,,,,,,,,,,,,5e80b109ca1800791e1ca40c,16:40:20,27/03/2024
html-keyboard-response,181,384566,0.0-75.0,,"<div style=""font-size:100px;"">+</div>",,delaylearn,learning,ITI,D9fpXvBlJSQiR1QRKmZavfbe4tk1,D9fpXvBlJSQiR1QRKmZavfbe4tk1,,,,,,,,,,,,,,,,,,,1840.0,,,5e80b109ca1800791e1ca40c,16:40:20,27/03/2024
html-keyboard-response,182,385499,0.0-76.0-0.0,930.5999999046326,"<div style=""display: flex; flex-direction: column; align-items: center; margin-top: -40px;""><img src=""images/pattern_5.png"" style=""width: 234px; height: 230px; margin-top: -50px;""><div style=""display: flex; justify-content: space-between; margin-top: 33px;""><img src=""images/choice_trial_7.png"" style=""width: 408px; height: 417px; margin-right: 200px;""><img src=""images/choice_trial_13.png"" style=""width: 408px; height: 417px;""></div></div>",f,delaylearn,learning,trial,D9fpXvBlJSQiR1QRKmZavfbe4tk1,D9fpXvBlJSQiR1QRKmZavfbe4tk1,5.0,images/choice_trial_7.png,images/choice_trial_13.png,images/pattern_5.png,j,f,750.0,7.0,13.0,4.0,0.0,33.0,1.0,0.0,7.0,170.0,,,,,,5e80b109ca1800791e1ca40c,16:40:20,27/03/2024
html-keyboard-response,183,386513,0.0-76.0-1.0,,"<div style=""display: flex; flex-direction: column; align-items: center; margin-top: -40px;""><img src=""images/pattern_5.png"" style=""width: 234px; height: 230px; margin-top: -50px;""><div style=""display: flex; justify-content: space-between; margin-top: 33px;""><img src=""images/choice_trial_7.png"" style=""width: 408px; height: 417px; margin-right: 608px;""></div></div>",,delaylearn,learning,display_response,D9fpXvBlJSQiR1QRKmZavfbe4tk1,D9fpXvBlJSQiR1QRKmZavfbe4tk1,,,,,,,,,,,,,,,,,chosen stimuli: images/choice_trial_7.png,,,,,5e80b109ca1800791e1ca40c,16:40:20,27/03/2024
html-keyboard-response,184,387279,0.0-76.0-2.0,,,,delaylearn,learning,feedback_duration_window,D9fpXvBlJSQiR1QRKmZavfbe4tk1,D9fpXvBlJSQiR1QRKmZavfbe4tk1,,,,,,,,,,,,,,,,,,750.0,,,,5e80b109ca1800791e1ca40c,16:40:20,27/03/2024
html-keyboard-response,185,388793,0.0-76.0-3.0,,<div style='margin:auto;width: auto; font-size: 150%'><span style='font-weight: bold; font-size: 100px; color: red;'>0 points!</span><br><br></div>,,delaylearn,learning,feedback_image_window,D9fpXvBlJSQiR1QRKmZavfbe4tk1,D9fpXvBlJSQiR1QRKmZavfbe4tk1,,,,,,,,,,,,,,,,,,,,,,5e80b109ca1800791e1ca40c,16:40:20,27/03/2024
html-keyboard-response,186,390565,0.0-77.0,,"<div style=""font-size:100px;"">+</div>",,delaylearn,learning,ITI,D9fpXvBlJSQiR1QRKmZavfbe4tk1,D9fpXvBlJSQiR1QRKmZavfbe4tk1,,,,,,,,,,,,,,,,,,,1764.0,,,5e80b109ca1800791e1ca40c,16:40:20,27/03/2024
html-keyboard-response,187,392271,0.0-78.0-0.0,1702.7999999523163,"<div style=""display: flex; flex-direction: column; align-items: center; margin-top: -40px;""><img src=""images/pattern_1.png"" style=""width: 234px; height: 230px; margin-top: -50px;""><div style=""display: flex; justify-content: space-between; margin-top: 33px;""><img src=""images/choice_trial_6.png"" style=""width: 408px; height: 417px; margin-right: 200px;""><img src=""images/choice_trial_15.png"" style=""width: 408px; height: 417px;""></div></div>",f,delaylearn,learning,trial,D9fpXvBlJSQiR1QRKmZavfbe4tk1,D9fpXvBlJSQiR1QRKmZavfbe4tk1,5.0,images/choice_trial_6.png,images/choice_trial_15.png,images/pattern_1.png,f,f,7000.0,6.0,15.0,1.0,0.0,34.0,1.0,1.0,6.0,180.0,,,,,,5e80b109ca1800791e1ca40c,16:40:20,27/03/2024
html-keyboard-response,188,393280,0.0-78.0-1.0,,"<div style=""display: flex; flex-direction: column; align-items: center; margin-top: -40px;""><img src=""images/pattern_1.png"" style=""width: 234px; height: 230px; margin-top: -50px;""><div style=""display: flex; justify-content: space-between; margin-top: 33px;""><img src=""images/choice_trial_6.png"" style=""width: 408px; height: 417px; margin-right: 608px;""></div></div>",,delaylearn,learning,display_response,D9fpXvBlJSQiR1QRKmZavfbe4tk1,D9fpXvBlJSQiR1QRKmZavfbe4tk1,,,,,,,,,,,,,,,,,chosen stimuli: images/choice_trial_6.png,,,,,5e80b109ca1800791e1ca40c,16:40:20,27/03/2024
html-keyboard-response,189,400289,0.0-78.0-2.0,,,,delaylearn,learning,feedback_duration_window,D9fpXvBlJSQiR1QRKmZavfbe4tk1,D9fpXvBlJSQiR1QRKmZavfbe4tk1,,,,,,,,,,,,,,,,,,7000.0,,,,5e80b109ca1800791e1ca40c,16:40:20,27/03/2024
html-keyboard-response,190,401795,0.0-78.0-3.0,,<div style='margin:auto;width: auto; font-size: 150%'><span style='font-weight: bold; font-size: 100px; color: green;'>+10 points!</span><br><br></div>,,delaylearn,learning,feedback_image_window,D9fpXvBlJSQiR1QRKmZavfbe4tk1,D9fpXvBlJSQiR1QRKmZavfbe4tk1,,,,,,,,,,,,,,,,,,,,,,5e80b109ca1800791e1ca40c,16:40:20,27/03/2024
html-keyboard-response,191,402305,0.0-79.0-0.0,,,,,,mood_trial_fixation,D9fpXvBlJSQiR1QRKmZavfbe4tk1,,,,,,,,,,,,,,,,,,,,,,,5e80b109ca1800791e1ca40c,16:40:20,27/03/2024
lmdlab-html-vas-response,192,406556,0.0-79.0-1.0,3245.0,How happy are you right now?,0.5763888888888888,delaylearn,learning,mood_trial,D9fpXvBlJSQiR1QRKmZavfbe4tk1,D9fpXvBlJSQiR1QRKmZavfbe4tk1,,,,,,,,,,,,,,,,,,,,"['Very unhappy', 'Very happy']",,5e80b109ca1800791e1ca40c,16:40:20,27/03/2024
html-keyboard-response,193,408301,0.0-80.0,,"<div style=""font-size:100px;"">+</div>",,delaylearn,learning,ITI,D9fpXvBlJSQiR1QRKmZavfbe4tk1,D9fpXvBlJSQiR1QRKmZavfbe4tk1,,,,,,,,,,,,,,,,,,,1739.0,,,5e80b109ca1800791e1ca40c,16:40:20,27/03/2024
html-keyboard-response,194,409920,0.0-81.0-0.0,1617.1000001430511,"<div style=""display: flex; flex-direction: column; align-items: center; margin-top: -40px;""><img src=""images/pattern_6.png"" style=""width: 234px; height: 230px; margin-top: -50px;""><div style=""display: flex; justify-content: space-between; margin-top: 33px;""><img src=""images/choice_trial_14.png"" style=""width: 408px; height: 417px; margin-right: 200px;""><img src=""images/choice_trial_9.png"" style=""width: 408px; height: 417px;""></div></div>",f,delaylearn,learning,trial,D9fpXvBlJSQiR1QRKmZavfbe4tk1,D9fpXvBlJSQiR1QRKmZavfbe4tk1,5.0,images/choice_trial_14.png,images/choice_trial_9.png,images/pattern_6.png,j,f,750.0,14.0,9.0,5.0,0.0,35.0,1.0,0.0,14.0,180.0,,,,,,5e80b109ca1800791e1ca40c,16:40:20,27/03/2024
html-keyboard-response,195,410922,0.0-81.0-1.0,,"<div style=""display: flex; flex-direction: column; align-items: center; margin-top: -40px;""><img src=""images/pattern_6.png"" style=""width: 234px; height: 230px; margin-top: -50px;""><div style=""display: flex; justify-content: space-between; margin-top: 33px;""><img src=""images/choice_trial_14.png"" style=""width: 408px; height: 417px; margin-right: 608px;""></div></div>",,delaylearn,learning,display_response,D9fpXvBlJSQiR1QRKmZavfbe4tk1,D9fpXvBlJSQiR1QRKmZavfbe4tk1,,,,,,,,,,,,,,,,,chosen stimuli: images/choice_trial_14.png,,,,,5e80b109ca1800791e1ca40c,16:40:20,27/03/2024
html-keyboard-response,196,411677,0.0-81.0-2.0,,,,delaylearn,learning,feedback_duration_window,D9fpXvBlJSQiR1QRKmZavfbe4tk1,D9fpXvBlJSQiR1QRKmZavfbe4tk1,,,,,,,,,,,,,,,,,,750.0,,,,5e80b109ca1800791e1ca40c,16:40:20,27/03/2024
html-keyboard-response,197,413194,0.0-81.0-3.0,,<div style='margin:auto;width: auto; font-size: 150%'><span style='font-weight: bold; font-size: 100px; color: red;'>0 points!</span><br><br></div>,,delaylearn,learning,feedback_image_window,D9fpXvBlJSQiR1QRKmZavfbe4tk1,D9fpXvBlJSQiR1QRKmZavfbe4tk1,,,,,,,,,,,,,,,,,,,,,,5e80b109ca1800791e1ca40c,16:40:20,27/03/2024
html-keyboard-response,198,415194,0.0-82.0,,"<div style=""font-size:100px;"">+</div>",,delaylearn,learning,ITI,D9fpXvBlJSQiR1QRKmZavfbe4tk1,D9fpXvBlJSQiR1QRKmZavfbe4tk1,,,,,,,,,,,,,,,,,,,1996.0,,,5e80b109ca1800791e1ca40c,16:40:20,27/03/2024
html-keyboard-response,199,416184,0.0-83.0-0.0,987.2000000476837,"<div style=""display: flex; flex-direction: column; align-items: center; margin-top: -40px;""><img src=""images/pattern_3.png"" style=""width: 234px; height: 230px; margin-top: -50px;""><div style=""display: flex; justify-content: space-between; margin-top: 33px;""><img src=""images/choice_trial_2.png"" style=""width: 408px; height: 417px; margin-right: 200px;""><img src=""images/choice_trial_16.png"" style=""width: 408px; height: 417px;""></div></div>",j,delaylearn,learning,trial,D9fpXvBlJSQiR1QRKmZavfbe4tk1,D9fpXvBlJSQiR1QRKmZavfbe4tk1,5.0,images/choice_trial_2.png,images/choice_trial_16.png,images/pattern_3.png,j,j,7000.0,2.0,16.0,2.0,1.0,36.0,1.0,1.0,16.0,190.0,,,,,,5e80b109ca1800791e1ca40c,16:40:20,27/03/2024
html-keyboard-response,200,417198,0.0-83.0-1.0,,"<div style=""display: flex; flex-direction: column; align-items: center; margin-top: -40px;""><img src=""images/pattern_3.png"" style=""width: 234px; height: 230px; margin-top: -50px;""><div style=""display: flex; justify-content: space-between; margin-top: 33px;""><img src=""images/choice_trial_16.png"" style=""width: 408px; height: 417px; margin-left:608px;""></div></div>",,delaylearn,learning,display_response,D9fpXvBlJSQiR1QRKmZavfbe4tk1,D9fpXvBlJSQiR1QRKmZavfbe4tk1,,,,,,,,,,,,,,,,,chosen stimuli: images/choice_trial_16.png,,,,,5e80b109ca1800791e1ca40c,16:40:20,27/03/2024
html-keyboard-response,201,424210,0.0-83.0-2.0,,,,delaylearn,learning,feedback_duration_window,D9fpXvBlJSQiR1QRKmZavfbe4tk1,D9fpXvBlJSQiR1QRKmZavfbe4tk1,,,,,,,,,,,,,,,,,,7000.0,,,,5e80b109ca1800791e1ca40c,16:40:20,27/03/2024
html-keyboard-response,202,425722,0.0-83.0-3.0,,<div style='margin:auto;width: auto; font-size: 150%'><span style='font-weight: bold; font-size: 100px; color: green;'>+10 points!</span><br><br></div>,,delaylearn,learning,feedback_image_window,D9fpXvBlJSQiR1QRKmZavfbe4tk1,D9fpXvBlJSQiR1QRKmZavfbe4tk1,,,,,,,,,,,,,,,,,,,,,,5e80b109ca1800791e1ca40c,16:40:20,27/03/2024
html-keyboard-response,203,427679,0.0-84.0,,"<div style=""font-size:100px;"">+</div>",,delaylearn,learning,ITI,D9fpXvBlJSQiR1QRKmZavfbe4tk1,D9fpXvBlJSQiR1QRKmZavfbe4tk1,,,,,,,,,,,,,,,,,,,1954.0,,,5e80b109ca1800791e1ca40c,16:40:20,27/03/2024
html-keyboard-response,204,428818,0.0-85.0-0.0,1135.6999998092651,"<div style=""display: flex; flex-direction: column; align-items: center; margin-top: -40px;""><img src=""images/pattern_4.png"" style=""width: 234px; height: 230px; margin-top: -50px;""><div style=""display: flex; justify-content: space-between; margin-top: 33px;""><img src=""images/choice_trial_4.png"" style=""width: 408px; height: 417px; margin-right: 200px;""><img src=""images/choice_trial_11.png"" style=""width: 408px; height: 417px;""></div></div>",j,delaylearn,learning,trial,D9fpXvBlJSQiR1QRKmZavfbe4tk1,D9fpXvBlJSQiR1QRKmZavfbe4tk1,5.0,images/choice_trial_4.png,images/choice_trial_11.png,images/pattern_4.png,f,j,7000.0,4.0,11.0,3.0,1.0,37.0,1.0,0.0,11.0,190.0,,,,,,5e80b109ca1800791e1ca40c,16:40:20,27/03/2024
html-keyboard-response,205,429834,0.0-85.0-1.0,,"<div style=""display: flex; flex-direction: column; align-items: center; margin-top: -40px;""><img src=""images/pattern_4.png"" style=""width: 234px; height: 230px; margin-top: -50px;""><div style=""display: flex; justify-content: space-between; margin-top: 33px;""><img src=""images/choice_trial_11.png"" style=""width: 408px; height: 417px; margin-left:608px;""></div></div>",,delaylearn,learning,display_response,D9fpXvBlJSQiR1QRKmZavfbe4tk1,D9fpXvBlJSQiR1QRKmZavfbe4tk1,,,,,,,,,,,,,,,,,chosen stimuli: images/choice_trial_11.png,,,,,5e80b109ca1800791e1ca40c,16:40:20,27/03/2024
html-keyboard-response,206,436844,0.0-85.0-2.0,,,,delaylearn,learning,feedback_duration_window,D9fpXvBlJSQiR1QRKmZavfbe4tk1,D9fpXvBlJSQiR1QRKmZavfbe4tk1,,,,,,,,,,,,,,,,,,7000.0,,,,5e80b109ca1800791e1ca40c,16:40:20,27/03/2024
html-keyboard-response,207,438351,0.0-85.0-3.0,,<div style='margin:auto;width: auto; font-size: 150%'><span style='font-weight: bold; font-size: 100px; color: red;'>0 points!</span><br><br></div>,,delaylearn,learning,feedback_image_window,D9fpXvBlJSQiR1QRKmZavfbe4tk1,D9fpXvBlJSQiR1QRKmZavfbe4tk1,,,,,,,,,,,,,,,,,,,,,,5e80b109ca1800791e1ca40c,16:40:20,27/03/2024
html-keyboard-response,208,440322,0.0-86.0,,"<div style=""font-size:100px;"">+</div>",,delaylearn,learning,ITI,D9fpXvBlJSQiR1QRKmZavfbe4tk1,D9fpXvBlJSQiR1QRKmZavfbe4tk1,,,,,,,,,,,,,,,,,,,1966.0,,,5e80b109ca1800791e1ca40c,16:40:20,27/03/2024
html-keyboard-response,209,441315,0.0-87.0-0.0,990.6000001430511,"<div style=""display: flex; flex-direction: column; align-items: center; margin-top: -40px;""><img src=""images/pattern_7.png"" style=""width: 234px; height: 230px; margin-top: -50px;""><div style=""display: flex; justify-content: space-between; margin-top: 33px;""><img src=""images/choice_trial_8.png"" style=""width: 408px; height: 417px; margin-right: 200px;""><img src=""images/choice_trial_10.png"" style=""width: 408px; height: 417px;""></div></div>",f,delaylearn,learning,trial,D9fpXvBlJSQiR1QRKmZavfbe4tk1,D9fpXvBlJSQiR1QRKmZavfbe4tk1,5.0,images/choice_trial_8.png,images/choice_trial_10.png,images/pattern_7.png,f,f,750.0,8.0,10.0,6.0,0.0,38.0,1.0,1.0,8.0,200.0,,,,,,5e80b109ca1800791e1ca40c,16:40:20,27/03/2024
html-keyboard-response,210,442327,0.0-87.0-1.0,,"<div style=""display: flex; flex-direction: column; align-items: center; margin-top: -40px;""><img src=""images/pattern_7.png"" style=""width: 234px; height: 230px; margin-top: -50px;""><div style=""display: flex; justify-content: space-between; margin-top: 33px;""><img src=""images/choice_trial_8.png"" style=""width: 408px; height: 417px; margin-right: 608px;""></div></div>",,delaylearn,learning,display_response,D9fpXvBlJSQiR1QRKmZavfbe4tk1,D9fpXvBlJSQiR1QRKmZavfbe4tk1,,,,,,,,,,,,,,,,,chosen stimuli: images/choice_trial_8.png,,,,,5e80b109ca1800791e1ca40c,16:40:20,27/03/2024
html-keyboard-response,211,443091,0.0-87.0-2.0,,,,delaylearn,learning,feedback_duration_window,D9fpXvBlJSQiR1QRKmZavfbe4tk1,D9fpXvBlJSQiR1QRKmZavfbe4tk1,,,,,,,,,,,,,,,,,,750.0,,,,5e80b109ca1800791e1ca40c,16:40:20,27/03/2024
html-keyboard-response,212,444599,0.0-87.0-3.0,,<div style='margin:auto;width: auto; font-size: 150%'><span style='font-weight: bold; font-size: 100px; color: green;'>+10 points!</span><br><br></div>,,delaylearn,learning,feedback_image_window,D9fpXvBlJSQiR1QRKmZavfbe4tk1,D9fpXvBlJSQiR1QRKmZavfbe4tk1,,,,,,,,,,,,,,,,,,,,,,5e80b109ca1800791e1ca40c,16:40:20,27/03/2024
html-keyboard-response,213,446366,0.0-88.0,,"<div style=""font-size:100px;"">+</div>",,delaylearn,learning,ITI,D9fpXvBlJSQiR1QRKmZavfbe4tk1,D9fpXvBlJSQiR1QRKmZavfbe4tk1,,,,,,,,,,,,,,,,,,,1757.0,,,5e80b109ca1800791e1ca40c,16:40:20,27/03/2024
html-keyboard-response,214,447565,0.0-89.0-0.0,1195.7999999523163,"<div style=""display: flex; flex-direction: column; align-items: center; margin-top: -40px;""><img src=""images/pattern_1.png"" style=""width: 234px; height: 230px; margin-top: -50px;""><div style=""display: flex; justify-content: space-between; margin-top: 33px;""><img src=""images/choice_trial_6.png"" style=""width: 408px; height: 417px; margin-right: 200px;""><img src=""images/choice_trial_15.png"" style=""width: 408px; height: 417px;""></div></div>",f,delaylearn,learning,trial,D9fpXvBlJSQiR1QRKmZavfbe4tk1,D9fpXvBlJSQiR1QRKmZavfbe4tk1,5.0,images/choice_trial_6.png,images/choice_trial_15.png,images/pattern_1.png,f,f,7000.0,6.0,15.0,1.0,0.0,39.0,1.0,1.0,6.0,210.0,,,,,,5e80b109ca1800791e1ca40c,16:40:20,27/03/2024
html-keyboard-response,215,448572,0.0-89.0-1.0,,"<div style=""display: flex; flex-direction: column; align-items: center; margin-top: -40px;""><img src=""images/pattern_1.png"" style=""width: 234px; height: 230px; margin-top: -50px;""><div style=""display: flex; justify-content: space-between; margin-top: 33px;""><img src=""images/choice_trial_6.png"" style=""width: 408px; height: 417px; margin-right: 608px;""></div></div>",,delaylearn,learning,display_response,D9fpXvBlJSQiR1QRKmZavfbe4tk1,D9fpXvBlJSQiR1QRKmZavfbe4tk1,,,,,,,,,,,,,,,,,chosen stimuli: images/choice_trial_6.png,,,,,5e80b109ca1800791e1ca40c,16:40:20,27/03/2024
html-keyboard-response,216,455575,0.0-89.0-2.0,,,,delaylearn,learning,feedback_duration_window,D9fpXvBlJSQiR1QRKmZavfbe4tk1,D9fpXvBlJSQiR1QRKmZavfbe4tk1,,,,,,,,,,,,,,,,,,7000.0,,,,5e80b109ca1800791e1ca40c,16:40:20,27/03/2024
html-keyboard-response,217,457091,0.0-89.0-3.0,,<div style='margin:auto;width: auto; font-size: 150%'><span style='font-weight: bold; font-size: 100px; color: green;'>+10 points!</span><br><br></div>,,delaylearn,learning,feedback_image_window,D9fpXvBlJSQiR1QRKmZavfbe4tk1,D9fpXvBlJSQiR1QRKmZavfbe4tk1,,,,,,,,,,,,,,,,,,,,,,5e80b109ca1800791e1ca40c,16:40:20,27/03/2024
html-keyboard-response,218,457606,0.0-90.0-0.0,,,,,,mood_trial_fixation,D9fpXvBlJSQiR1QRKmZavfbe4tk1,,,,,,,,,,,,,,,,,,,,,,,5e80b109ca1800791e1ca40c,16:40:20,27/03/2024
lmdlab-html-vas-response,219,461656,0.0-90.0-1.0,3035.0,How happy are you right now?,0.6296296296296297,delaylearn,learning,mood_trial,D9fpXvBlJSQiR1QRKmZavfbe4tk1,D9fpXvBlJSQiR1QRKmZavfbe4tk1,,,,,,,,,,,,,,,,,,,,"['Very unhappy', 'Very happy']",,5e80b109ca1800791e1ca40c,16:40:20,27/03/2024
html-keyboard-response,220,463631,0.0-91.0,,"<div style=""font-size:100px;"">+</div>",,delaylearn,learning,ITI,D9fpXvBlJSQiR1QRKmZavfbe4tk1,D9fpXvBlJSQiR1QRKmZavfbe4tk1,,,,,,,,,,,,,,,,,,,1961.0,,,5e80b109ca1800791e1ca40c,16:40:20,27/03/2024
html-keyboard-response,221,465739,0.0-92.0-0.0,2104.7999999523163,"<div style=""display: flex; flex-direction: column; align-items: center; margin-top: -40px;""><img src=""images/pattern_3.png"" style=""width: 234px; height: 230px; margin-top: -50px;""><div style=""display: flex; justify-content: space-between; margin-top: 33px;""><img src=""images/choice_trial_16.png"" style=""width: 408px; height: 417px; margin-right: 200px;""><img src=""images/choice_trial_2.png"" style=""width: 408px; height: 417px;""></div></div>",j,delaylearn,learning,trial,D9fpXvBlJSQiR1QRKmZavfbe4tk1,D9fpXvBlJSQiR1QRKmZavfbe4tk1,5.0,images/choice_trial_16.png,images/choice_trial_2.png,images/pattern_3.png,j,f,7000.0,16.0,2.0,2.0,0.0,40.0,0.0,1.0,2.0,220.0,,,,,,5e80b109ca1800791e1ca40c,16:40:20,27/03/2024
html-keyboard-response,222,466752,0.0-92.0-1.0,,"<div style=""display: flex; flex-direction: column; align-items: center; margin-top: -40px;""><img src=""images/pattern_3.png"" style=""width: 234px; height: 230px; margin-top: -50px;""><div style=""display: flex; justify-content: space-between; margin-top: 33px;""><img src=""images/choice_trial_2.png"" style=""width: 408px; height: 417px; margin-left:608px;""></div></div>",,delaylearn,learning,display_response,D9fpXvBlJSQiR1QRKmZavfbe4tk1,D9fpXvBlJSQiR1QRKmZavfbe4tk1,,,,,,,,,,,,,,,,,chosen stimuli: images/choice_trial_2.png,,,,,5e80b109ca1800791e1ca40c,16:40:20,27/03/2024
html-keyboard-response,223,473756,0.0-92.0-2.0,,,,delaylearn,learning,feedback_duration_window,D9fpXvBlJSQiR1QRKmZavfbe4tk1,D9fpXvBlJSQiR1QRKmZavfbe4tk1,,,,,,,,,,,,,,,,,,7000.0,,,,5e80b109ca1800791e1ca40c,16:40:20,27/03/2024
html-keyboard-response,224,475270,0.0-92.0-3.0,,<div style='margin:auto;width: auto; font-size: 150%'><span style='font-weight: bold; font-size: 100px; color: green;'>+10 points!</span><br><br></div>,,delaylearn,learning,feedback_image_window,D9fpXvBlJSQiR1QRKmZavfbe4tk1,D9fpXvBlJSQiR1QRKmZavfbe4tk1,,,,,,,,,,,,,,,,,,,,,,5e80b109ca1800791e1ca40c,16:40:20,27/03/2024
html-keyboard-response,225,477446,0.0-93.0,,"<div style=""font-size:100px;"">+</div>",,delaylearn,learning,ITI,D9fpXvBlJSQiR1QRKmZavfbe4tk1,D9fpXvBlJSQiR1QRKmZavfbe4tk1,,,,,,,,,,,,,,,,,,,2162.0,,,5e80b109ca1800791e1ca40c,16:40:20,27/03/2024
html-keyboard-response,226,478865,0.0-94.0-0.0,1416.4000000953674,"<div style=""display: flex; flex-direction: column; align-items: center; margin-top: -40px;""><img src=""images/pattern_7.png"" style=""width: 234px; height: 230px; margin-top: -50px;""><div style=""display: flex; justify-content: space-between; margin-top: 33px;""><img src=""images/choice_trial_10.png"" style=""width: 408px; height: 417px; margin-right: 200px;""><img src=""images/choice_trial_8.png"" style=""width: 408px; height: 417px;""></div></div>",j,delaylearn,learning,trial,D9fpXvBlJSQiR1QRKmZavfbe4tk1,D9fpXvBlJSQiR1QRKmZavfbe4tk1,5.0,images/choice_trial_10.png,images/choice_trial_8.png,images/pattern_7.png,j,j,750.0,10.0,8.0,6.0,1.0,41.0,1.0,1.0,8.0,230.0,,,,,,5e80b109ca1800791e1ca40c,16:40:20,27/03/2024
html-keyboard-response,227,479868,0.0-94.0-1.0,,"<div style=""display: flex; flex-direction: column; align-items: center; margin-top: -40px;""><img src=""images/pattern_7.png"" style=""width: 234px; height: 230px; margin-top: -50px;""><div style=""display: flex; justify-content: space-between; margin-top: 33px;""><img src=""images/choice_trial_8.png"" style=""width: 408px; height: 417px; margin-left:608px;""></div></div>",,delaylearn,learning,display_response,D9fpXvBlJSQiR1QRKmZavfbe4tk1,D9fpXvBlJSQiR1QRKmZavfbe4tk1,,,,,,,,,,,,,,,,,chosen stimuli: images/choice_trial_8.png,,,,,5e80b109ca1800791e1ca40c,16:40:20,27/03/2024
html-keyboard-response,228,480629,0.0-94.0-2.0,,,,delaylearn,learning,feedback_duration_window,D9fpXvBlJSQiR1QRKmZavfbe4tk1,D9fpXvBlJSQiR1QRKmZavfbe4tk1,,,,,,,,,,,,,,,,,,750.0,,,,5e80b109ca1800791e1ca40c,16:40:20,27/03/2024
html-keyboard-response,229,482135,0.0-94.0-3.0,,<div style='margin:auto;width: auto; font-size: 150%'><span style='font-weight: bold; font-size: 100px; color: green;'>+10 points!</span><br><br></div>,,delaylearn,learning,feedback_image_window,D9fpXvBlJSQiR1QRKmZavfbe4tk1,D9fpXvBlJSQiR1QRKmZavfbe4tk1,,,,,,,,,,,,,,,,,,,,,,5e80b109ca1800791e1ca40c,16:40:20,27/03/2024
html-keyboard-response,230,484350,0.0-95.0,,"<div style=""font-size:100px;"">+</div>",,delaylearn,learning,ITI,D9fpXvBlJSQiR1QRKmZavfbe4tk1,D9fpXvBlJSQiR1QRKmZavfbe4tk1,,,,,,,,,,,,,,,,,,,2212.0,,,5e80b109ca1800791e1ca40c,16:40:20,27/03/2024
