trial_type,trial_index,time_elapsed,internal_node_id,rt,stimulus,response,exp_name,exp_stage,test_part,subjectID,databaseID,counterbal,choice_stimuli_1,choice_stimuli_2,pattern_stimuli,rewarded_answer,correct_answer,feedback_duration_times,stim_left,stim_right,pair,leftright_counter,trial,response_correct,response_rewarded,chosen_stim,counter,displayed_choice,feedback_durations,ITI_duration,labels,rest_warning,prolificID,start_time,date
pavlovia,0,504,0.0-0.0,,,,,,,ck8nJhliYyQyosXmqY3EVcIIeUH2,,,,,,,,,,,,,,,,,,,,,,,59a456d1ec2f75000124f081,09:12:38,27/02/2024
html-keyboard-response,1,3506,0.0-1.0,,"<div style=""font-size:100px;"">+</div>",,delaylearn,learning,pre_fixation,ck8nJhliYyQyosXmqY3EVcIIeUH2,,,,,,,,,,,,,,,,,,,,,,,59a456d1ec2f75000124f081,09:12:38,27/02/2024
html-keyboard-response,2,4741,0.0-2.0-0.0,1233.300000000745,"<div style=""display: flex; flex-direction: column; align-items: center; margin-top: -40px;""><img src=""images/demo_images/pattern_1.png"" style=""width: 234px; height: 230px; margin-top: -50px;""><div style=""display: flex; justify-content: space-between; margin-top: 33px;""><img src=""images/demo_images/choice_trial_2.png"" style=""width: 408px; height: 417px; margin-right: 200px;""><img src=""images/demo_images/choice_trial_1.png"" style=""width: 408px; height: 417px;""></div></div>",f,delaylearn,learning,trial,ck8nJhliYyQyosXmqY3EVcIIeUH2,ck8nJhliYyQyosXmqY3EVcIIeUH2,5.0,images/demo_images/choice_trial_2.png,images/demo_images/choice_trial_1.png,images/demo_images/pattern_1.png,j,j,3000.0,2.0,1.0,20.0,1.0,1.0,0.0,0.0,2.0,0.0,,,,,,59a456d1ec2f75000124f081,09:12:38,27/02/2024
html-keyboard-response,3,5764,0.0-2.0-1.0,,"<div style=""display: flex; flex-direction: column; align-items: center; margin-top: -40px;""><img src=""images/demo_images/pattern_1.png"" style=""width: 234px; height: 230px; margin-top: -50px;""><div style=""display: flex; justify-content: space-between; margin-top: 33px;""><img src=""images/demo_images/choice_trial_2.png"" style=""width: 408px; height: 417px; margin-right: 608px;""></div></div>",,delaylearn,learning,display_response,ck8nJhliYyQyosXmqY3EVcIIeUH2,ck8nJhliYyQyosXmqY3EVcIIeUH2,,,,,,,,,,,,,,,,,chosen stimuli: images/demo_images/choice_trial_2.png,,,,,59a456d1ec2f75000124f081,09:12:38,27/02/2024
html-keyboard-response,4,8771,0.0-2.0-2.0,,,,delaylearn,learning,feedback_duration_window,ck8nJhliYyQyosXmqY3EVcIIeUH2,ck8nJhliYyQyosXmqY3EVcIIeUH2,,,,,,,,,,,,,,,,,,3000.0,,,,59a456d1ec2f75000124f081,09:12:38,27/02/2024
html-keyboard-response,5,10274,0.0-2.0-3.0,,<div style='margin:auto;width: auto; font-size: 150%'><span style='font-weight: bold; font-size: 100px; color: red;'>0 points!</span><br><br></div>,,delaylearn,learning,feedback_image_window,ck8nJhliYyQyosXmqY3EVcIIeUH2,ck8nJhliYyQyosXmqY3EVcIIeUH2,,,,,,,,,,,,,,,,,,,,,,59a456d1ec2f75000124f081,09:12:38,27/02/2024
html-keyboard-response,6,11855,0.0-3.0,,"<div style=""font-size:100px;"">+</div>",,delaylearn,learning,ITI,ck8nJhliYyQyosXmqY3EVcIIeUH2,ck8nJhliYyQyosXmqY3EVcIIeUH2,,,,,,,,,,,,,,,,,,,1567.0,,,59a456d1ec2f75000124f081,09:12:38,27/02/2024
html-keyboard-response,7,12749,0.0-4.0-0.0,891.7999999998137,"<div style=""display: flex; flex-direction: column; align-items: center; margin-top: -40px;""><img src=""images/demo_images/pattern_1.png"" style=""width: 234px; height: 230px; margin-top: -50px;""><div style=""display: flex; justify-content: space-between; margin-top: 33px;""><img src=""images/demo_images/choice_trial_2.png"" style=""width: 408px; height: 417px; margin-right: 200px;""><img src=""images/demo_images/choice_trial_1.png"" style=""width: 408px; height: 417px;""></div></div>",j,delaylearn,learning,trial,ck8nJhliYyQyosXmqY3EVcIIeUH2,ck8nJhliYyQyosXmqY3EVcIIeUH2,5.0,images/demo_images/choice_trial_2.png,images/demo_images/choice_trial_1.png,images/demo_images/pattern_1.png,j,j,3000.0,2.0,1.0,20.0,1.0,2.0,1.0,1.0,1.0,10.0,,,,,,59a456d1ec2f75000124f081,09:12:38,27/02/2024
html-keyboard-response,8,13759,0.0-4.0-1.0,,"<div style=""display: flex; flex-direction: column; align-items: center; margin-top: -40px;""><img src=""images/demo_images/pattern_1.png"" style=""width: 234px; height: 230px; margin-top: -50px;""><div style=""display: flex; justify-content: space-between; margin-top: 33px;""><img src=""images/demo_images/choice_trial_1.png"" style=""width: 408px; height: 417px; margin-left:608px;""></div></div>",,delaylearn,learning,display_response,ck8nJhliYyQyosXmqY3EVcIIeUH2,ck8nJhliYyQyosXmqY3EVcIIeUH2,,,,,,,,,,,,,,,,,chosen stimuli: images/demo_images/choice_trial_1.png,,,,,59a456d1ec2f75000124f081,09:12:38,27/02/2024
html-keyboard-response,9,16764,0.0-4.0-2.0,,,,delaylearn,learning,feedback_duration_window,ck8nJhliYyQyosXmqY3EVcIIeUH2,ck8nJhliYyQyosXmqY3EVcIIeUH2,,,,,,,,,,,,,,,,,,3000.0,,,,59a456d1ec2f75000124f081,09:12:38,27/02/2024
html-keyboard-response,10,18268,0.0-4.0-3.0,,<div style='margin:auto;width: auto; font-size: 150%'><span style='font-weight: bold; font-size: 100px; color: green;'>+10 points!</span><br><br></div>,,delaylearn,learning,feedback_image_window,ck8nJhliYyQyosXmqY3EVcIIeUH2,ck8nJhliYyQyosXmqY3EVcIIeUH2,,,,,,,,,,,,,,,,,,,,,,59a456d1ec2f75000124f081,09:12:38,27/02/2024
html-keyboard-response,11,20540,0.0-5.0,,"<div style=""font-size:100px;"">+</div>",,delaylearn,learning,ITI,ck8nJhliYyQyosXmqY3EVcIIeUH2,ck8nJhliYyQyosXmqY3EVcIIeUH2,,,,,,,,,,,,,,,,,,,2269.0,,,59a456d1ec2f75000124f081,09:12:38,27/02/2024
html-keyboard-response,12,21205,0.0-6.0-0.0,663.4000000003725,"<div style=""display: flex; flex-direction: column; align-items: center; margin-top: -40px;""><img src=""images/demo_images/pattern_1.png"" style=""width: 234px; height: 230px; margin-top: -50px;""><div style=""display: flex; justify-content: space-between; margin-top: 33px;""><img src=""images/demo_images/choice_trial_1.png"" style=""width: 408px; height: 417px; margin-right: 200px;""><img src=""images/demo_images/choice_trial_2.png"" style=""width: 408px; height: 417px;""></div></div>",f,delaylearn,learning,trial,ck8nJhliYyQyosXmqY3EVcIIeUH2,ck8nJhliYyQyosXmqY3EVcIIeUH2,5.0,images/demo_images/choice_trial_1.png,images/demo_images/choice_trial_2.png,images/demo_images/pattern_1.png,j,f,3000.0,1.0,2.0,20.0,0.0,3.0,1.0,0.0,1.0,10.0,,,,,,59a456d1ec2f75000124f081,09:12:38,27/02/2024
html-keyboard-response,13,22211,0.0-6.0-1.0,,"<div style=""display: flex; flex-direction: column; align-items: center; margin-top: -40px;""><img src=""images/demo_images/pattern_1.png"" style=""width: 234px; height: 230px; margin-top: -50px;""><div style=""display: flex; justify-content: space-between; margin-top: 33px;""><img src=""images/demo_images/choice_trial_1.png"" style=""width: 408px; height: 417px; margin-right: 608px;""></div></div>",,delaylearn,learning,display_response,ck8nJhliYyQyosXmqY3EVcIIeUH2,ck8nJhliYyQyosXmqY3EVcIIeUH2,,,,,,,,,,,,,,,,,chosen stimuli: images/demo_images/choice_trial_1.png,,,,,59a456d1ec2f75000124f081,09:12:38,27/02/2024
html-keyboard-response,14,25214,0.0-6.0-2.0,,,,delaylearn,learning,feedback_duration_window,ck8nJhliYyQyosXmqY3EVcIIeUH2,ck8nJhliYyQyosXmqY3EVcIIeUH2,,,,,,,,,,,,,,,,,,3000.0,,,,59a456d1ec2f75000124f081,09:12:38,27/02/2024
html-keyboard-response,15,26720,0.0-6.0-3.0,,<div style='margin:auto;width: auto; font-size: 150%'><span style='font-weight: bold; font-size: 100px; color: red;'>0 points!</span><br><br></div>,,delaylearn,learning,feedback_image_window,ck8nJhliYyQyosXmqY3EVcIIeUH2,ck8nJhliYyQyosXmqY3EVcIIeUH2,,,,,,,,,,,,,,,,,,,,,,59a456d1ec2f75000124f081,09:12:38,27/02/2024
html-keyboard-response,16,28756,0.0-7.0,,"<div style=""font-size:100px;"">+</div>",,delaylearn,learning,ITI,ck8nJhliYyQyosXmqY3EVcIIeUH2,ck8nJhliYyQyosXmqY3EVcIIeUH2,,,,,,,,,,,,,,,,,,,2030.0,,,59a456d1ec2f75000124f081,09:12:38,27/02/2024
html-keyboard-response,17,30525,0.0-8.0-0.0,1767.7000000001863,"<div style=""display: flex; flex-direction: column; align-items: center; margin-top: -40px;""><img src=""images/demo_images/pattern_1.png"" style=""width: 234px; height: 230px; margin-top: -50px;""><div style=""display: flex; justify-content: space-between; margin-top: 33px;""><img src=""images/demo_images/choice_trial_1.png"" style=""width: 408px; height: 417px; margin-right: 200px;""><img src=""images/demo_images/choice_trial_2.png"" style=""width: 408px; height: 417px;""></div></div>",f,delaylearn,learning,trial,ck8nJhliYyQyosXmqY3EVcIIeUH2,ck8nJhliYyQyosXmqY3EVcIIeUH2,5.0,images/demo_images/choice_trial_1.png,images/demo_images/choice_trial_2.png,images/demo_images/pattern_1.png,f,f,3000.0,1.0,2.0,20.0,0.0,4.0,1.0,1.0,1.0,20.0,,,,,,59a456d1ec2f75000124f081,09:12:38,27/02/2024
html-keyboard-response,18,31528,0.0-8.0-1.0,,"<div style=""display: flex; flex-direction: column; align-items: center; margin-top: -40px;""><img src=""images/demo_images/pattern_1.png"" style=""width: 234px; height: 230px; margin-top: -50px;""><div style=""display: flex; justify-content: space-between; margin-top: 33px;""><img src=""images/demo_images/choice_trial_1.png"" style=""width: 408px; height: 417px; margin-right: 608px;""></div></div>",,delaylearn,learning,display_response,ck8nJhliYyQyosXmqY3EVcIIeUH2,ck8nJhliYyQyosXmqY3EVcIIeUH2,,,,,,,,,,,,,,,,,chosen stimuli: images/demo_images/choice_trial_1.png,,,,,59a456d1ec2f75000124f081,09:12:38,27/02/2024
html-keyboard-response,19,34533,0.0-8.0-2.0,,,,delaylearn,learning,feedback_duration_window,ck8nJhliYyQyosXmqY3EVcIIeUH2,ck8nJhliYyQyosXmqY3EVcIIeUH2,,,,,,,,,,,,,,,,,,3000.0,,,,59a456d1ec2f75000124f081,09:12:38,27/02/2024
html-keyboard-response,20,36037,0.0-8.0-3.0,,<div style='margin:auto;width: auto; font-size: 150%'><span style='font-weight: bold; font-size: 100px; color: green;'>+10 points!</span><br><br></div>,,delaylearn,learning,feedback_image_window,ck8nJhliYyQyosXmqY3EVcIIeUH2,ck8nJhliYyQyosXmqY3EVcIIeUH2,,,,,,,,,,,,,,,,,,,,,,59a456d1ec2f75000124f081,09:12:38,27/02/2024
html-keyboard-response,21,36538,0.0-9.0-0.0,,,,,,mood_trial_fixation,ck8nJhliYyQyosXmqY3EVcIIeUH2,,,,,,,,,,,,,,,,,,,,,,,59a456d1ec2f75000124f081,09:12:38,27/02/2024
lmdlab-html-vas-response,22,40417,0.0-9.0-1.0,2868.0,How happy are you right now?,0.6435185185185185,delaylearn,learning,mood_trial,ck8nJhliYyQyosXmqY3EVcIIeUH2,ck8nJhliYyQyosXmqY3EVcIIeUH2,,,,,,,,,,,,,,,,,,,,"['Very unhappy', 'Very happy']",,59a456d1ec2f75000124f081,09:12:38,27/02/2024
html-keyboard-response,23,42634,0.0-10.0,,"<div style=""font-size:100px;"">+</div>",,delaylearn,learning,ITI,ck8nJhliYyQyosXmqY3EVcIIeUH2,ck8nJhliYyQyosXmqY3EVcIIeUH2,,,,,,,,,,,,,,,,,,,2194.0,,,59a456d1ec2f75000124f081,09:12:38,27/02/2024
html-keyboard-response,24,43188,0.0-11.0-0.0,553.5,"<div style=""display: flex; flex-direction: column; align-items: center; margin-top: -40px;""><img src=""images/demo_images/pattern_1.png"" style=""width: 234px; height: 230px; margin-top: -50px;""><div style=""display: flex; justify-content: space-between; margin-top: 33px;""><img src=""images/demo_images/choice_trial_2.png"" style=""width: 408px; height: 417px; margin-right: 200px;""><img src=""images/demo_images/choice_trial_1.png"" style=""width: 408px; height: 417px;""></div></div>",j,delaylearn,learning,trial,ck8nJhliYyQyosXmqY3EVcIIeUH2,ck8nJhliYyQyosXmqY3EVcIIeUH2,5.0,images/demo_images/choice_trial_2.png,images/demo_images/choice_trial_1.png,images/demo_images/pattern_1.png,j,j,3000.0,2.0,1.0,20.0,1.0,5.0,1.0,1.0,1.0,30.0,,,,,,59a456d1ec2f75000124f081,09:12:38,27/02/2024
html-keyboard-response,25,44199,0.0-11.0-1.0,,"<div style=""display: flex; flex-direction: column; align-items: center; margin-top: -40px;""><img src=""images/demo_images/pattern_1.png"" style=""width: 234px; height: 230px; margin-top: -50px;""><div style=""display: flex; justify-content: space-between; margin-top: 33px;""><img src=""images/demo_images/choice_trial_1.png"" style=""width: 408px; height: 417px; margin-left:608px;""></div></div>",,delaylearn,learning,display_response,ck8nJhliYyQyosXmqY3EVcIIeUH2,ck8nJhliYyQyosXmqY3EVcIIeUH2,,,,,,,,,,,,,,,,,chosen stimuli: images/demo_images/choice_trial_1.png,,,,,59a456d1ec2f75000124f081,09:12:38,27/02/2024
html-keyboard-response,26,47206,0.0-11.0-2.0,,,,delaylearn,learning,feedback_duration_window,ck8nJhliYyQyosXmqY3EVcIIeUH2,ck8nJhliYyQyosXmqY3EVcIIeUH2,,,,,,,,,,,,,,,,,,3000.0,,,,59a456d1ec2f75000124f081,09:12:38,27/02/2024
html-keyboard-response,27,48709,0.0-11.0-3.0,,<div style='margin:auto;width: auto; font-size: 150%'><span style='font-weight: bold; font-size: 100px; color: green;'>+10 points!</span><br><br></div>,,delaylearn,learning,feedback_image_window,ck8nJhliYyQyosXmqY3EVcIIeUH2,ck8nJhliYyQyosXmqY3EVcIIeUH2,,,,,,,,,,,,,,,,,,,,,,59a456d1ec2f75000124f081,09:12:38,27/02/2024
html-keyboard-response,28,51121,0.0-12.0,,"<div style=""font-size:100px;"">+</div>",,delaylearn,learning,ITI,ck8nJhliYyQyosXmqY3EVcIIeUH2,ck8nJhliYyQyosXmqY3EVcIIeUH2,,,,,,,,,,,,,,,,,,,2409.0,,,59a456d1ec2f75000124f081,09:12:38,27/02/2024
html-keyboard-response,29,51765,0.0-13.0-0.0,643.0,"<div style=""display: flex; flex-direction: column; align-items: center; margin-top: -40px;""><img src=""images/demo_images/pattern_1.png"" style=""width: 234px; height: 230px; margin-top: -50px;""><div style=""display: flex; justify-content: space-between; margin-top: 33px;""><img src=""images/demo_images/choice_trial_1.png"" style=""width: 408px; height: 417px; margin-right: 200px;""><img src=""images/demo_images/choice_trial_2.png"" style=""width: 408px; height: 417px;""></div></div>",f,delaylearn,learning,trial,ck8nJhliYyQyosXmqY3EVcIIeUH2,ck8nJhliYyQyosXmqY3EVcIIeUH2,5.0,images/demo_images/choice_trial_1.png,images/demo_images/choice_trial_2.png,images/demo_images/pattern_1.png,f,f,3000.0,1.0,2.0,20.0,0.0,6.0,1.0,1.0,1.0,40.0,,,,,,59a456d1ec2f75000124f081,09:12:38,27/02/2024
html-keyboard-response,30,52773,0.0-13.0-1.0,,"<div style=""display: flex; flex-direction: column; align-items: center; margin-top: -40px;""><img src=""images/demo_images/pattern_1.png"" style=""width: 234px; height: 230px; margin-top: -50px;""><div style=""display: flex; justify-content: space-between; margin-top: 33px;""><img src=""images/demo_images/choice_trial_1.png"" style=""width: 408px; height: 417px; margin-right: 608px;""></div></div>",,delaylearn,learning,display_response,ck8nJhliYyQyosXmqY3EVcIIeUH2,ck8nJhliYyQyosXmqY3EVcIIeUH2,,,,,,,,,,,,,,,,,chosen stimuli: images/demo_images/choice_trial_1.png,,,,,59a456d1ec2f75000124f081,09:12:38,27/02/2024
html-keyboard-response,31,55779,0.0-13.0-2.0,,,,delaylearn,learning,feedback_duration_window,ck8nJhliYyQyosXmqY3EVcIIeUH2,ck8nJhliYyQyosXmqY3EVcIIeUH2,,,,,,,,,,,,,,,,,,3000.0,,,,59a456d1ec2f75000124f081,09:12:38,27/02/2024
html-keyboard-response,32,57282,0.0-13.0-3.0,,<div style='margin:auto;width: auto; font-size: 150%'><span style='font-weight: bold; font-size: 100px; color: green;'>+10 points!</span><br><br></div>,,delaylearn,learning,feedback_image_window,ck8nJhliYyQyosXmqY3EVcIIeUH2,ck8nJhliYyQyosXmqY3EVcIIeUH2,,,,,,,,,,,,,,,,,,,,,,59a456d1ec2f75000124f081,09:12:38,27/02/2024
html-button-response,33,60048,0.0-14.0,2765.699999999255,"
  <div style=""display: flex; align-items: center; justify-content: center; height: 80vh;"">
  <div>
          <img src=""images/inst_demo_finish.png"" style=""width: 80vw; height:auto;"">
          <br><br>
      </div>
      <br><br>
  </div>",0,,,,ck8nJhliYyQyosXmqY3EVcIIeUH2,,,,,,,,,,,,,,,,,,,,,,,59a456d1ec2f75000124f081,09:12:38,27/02/2024
html-keyboard-response,34,60836,0.0-15.0,787.7000000001863,"
  <div style=""display: flex; align-items: center; justify-content: center; height: 80vh;"">
  <div>
          <img src=""images/inst_6.png"" style=""width: 80vw; height:auto;"">
          <br><br>
      </div>
      <br><br>
  </div>",f,,,,ck8nJhliYyQyosXmqY3EVcIIeUH2,,,,,,,,,,,,,,,,,,,,,,,59a456d1ec2f75000124f081,09:12:38,27/02/2024
html-keyboard-response,35,63842,0.0-16.0,,"<div style=""font-size:100px;"">+</div>",,delaylearn,learning,pre_fixation,ck8nJhliYyQyosXmqY3EVcIIeUH2,,,,,,,,,,,,,,,,,,,,,,,59a456d1ec2f75000124f081,09:12:38,27/02/2024
html-keyboard-response,36,65415,0.0-17.0,,"<div style=""font-size:100px;"">+</div>",,delaylearn,learning,ITI,ck8nJhliYyQyosXmqY3EVcIIeUH2,ck8nJhliYyQyosXmqY3EVcIIeUH2,,,,,,,,,,,,,,,,,,,1563.0,,,59a456d1ec2f75000124f081,09:12:38,27/02/2024
html-keyboard-response,37,66116,0.0-18.0-0.0,701.0,"<div style=""display: flex; flex-direction: column; align-items: center; margin-top: -40px;""><img src=""images/pattern_3.png"" style=""width: 234px; height: 230px; margin-top: -50px;""><div style=""display: flex; justify-content: space-between; margin-top: 33px;""><img src=""images/choice_trial_16.png"" style=""width: 408px; height: 417px; margin-right: 200px;""><img src=""images/choice_trial_2.png"" style=""width: 408px; height: 417px;""></div></div>",f,delaylearn,learning,trial,ck8nJhliYyQyosXmqY3EVcIIeUH2,ck8nJhliYyQyosXmqY3EVcIIeUH2,5.0,images/choice_trial_16.png,images/choice_trial_2.png,images/pattern_3.png,f,f,7000.0,16.0,2.0,2.0,0.0,7.0,1.0,1.0,16.0,50.0,,,,,,59a456d1ec2f75000124f081,09:12:38,27/02/2024
html-keyboard-response,38,67119,0.0-18.0-1.0,,"<div style=""display: flex; flex-direction: column; align-items: center; margin-top: -40px;""><img src=""images/pattern_3.png"" style=""width: 234px; height: 230px; margin-top: -50px;""><div style=""display: flex; justify-content: space-between; margin-top: 33px;""><img src=""images/choice_trial_16.png"" style=""width: 408px; height: 417px; margin-right: 608px;""></div></div>",,delaylearn,learning,display_response,ck8nJhliYyQyosXmqY3EVcIIeUH2,ck8nJhliYyQyosXmqY3EVcIIeUH2,,,,,,,,,,,,,,,,,chosen stimuli: images/choice_trial_16.png,,,,,59a456d1ec2f75000124f081,09:12:38,27/02/2024
html-keyboard-response,39,74127,0.0-18.0-2.0,,,,delaylearn,learning,feedback_duration_window,ck8nJhliYyQyosXmqY3EVcIIeUH2,ck8nJhliYyQyosXmqY3EVcIIeUH2,,,,,,,,,,,,,,,,,,7000.0,,,,59a456d1ec2f75000124f081,09:12:38,27/02/2024
html-keyboard-response,40,75636,0.0-18.0-3.0,,<div style='margin:auto;width: auto; font-size: 150%'><span style='font-weight: bold; font-size: 100px; color: green;'>+10 points!</span><br><br></div>,,delaylearn,learning,feedback_image_window,ck8nJhliYyQyosXmqY3EVcIIeUH2,ck8nJhliYyQyosXmqY3EVcIIeUH2,,,,,,,,,,,,,,,,,,,,,,59a456d1ec2f75000124f081,09:12:38,27/02/2024
html-keyboard-response,41,78131,0.0-19.0,,"<div style=""font-size:100px;"">+</div>",,delaylearn,learning,ITI,ck8nJhliYyQyosXmqY3EVcIIeUH2,ck8nJhliYyQyosXmqY3EVcIIeUH2,,,,,,,,,,,,,,,,,,,2494.0,,,59a456d1ec2f75000124f081,09:12:38,27/02/2024
html-keyboard-response,42,79597,0.0-20.0-0.0,1464.2999999998137,"<div style=""display: flex; flex-direction: column; align-items: center; margin-top: -40px;""><img src=""images/pattern_7.png"" style=""width: 234px; height: 230px; margin-top: -50px;""><div style=""display: flex; justify-content: space-between; margin-top: 33px;""><img src=""images/choice_trial_10.png"" style=""width: 408px; height: 417px; margin-right: 200px;""><img src=""images/choice_trial_8.png"" style=""width: 408px; height: 417px;""></div></div>",f,delaylearn,learning,trial,ck8nJhliYyQyosXmqY3EVcIIeUH2,ck8nJhliYyQyosXmqY3EVcIIeUH2,5.0,images/choice_trial_10.png,images/choice_trial_8.png,images/pattern_7.png,j,j,750.0,10.0,8.0,6.0,1.0,8.0,0.0,0.0,10.0,50.0,,,,,,59a456d1ec2f75000124f081,09:12:38,27/02/2024
html-keyboard-response,43,80613,0.0-20.0-1.0,,"<div style=""display: flex; flex-direction: column; align-items: center; margin-top: -40px;""><img src=""images/pattern_7.png"" style=""width: 234px; height: 230px; margin-top: -50px;""><div style=""display: flex; justify-content: space-between; margin-top: 33px;""><img src=""images/choice_trial_10.png"" style=""width: 408px; height: 417px; margin-right: 608px;""></div></div>",,delaylearn,learning,display_response,ck8nJhliYyQyosXmqY3EVcIIeUH2,ck8nJhliYyQyosXmqY3EVcIIeUH2,,,,,,,,,,,,,,,,,chosen stimuli: images/choice_trial_10.png,,,,,59a456d1ec2f75000124f081,09:12:38,27/02/2024
html-keyboard-response,44,81377,0.0-20.0-2.0,,,,delaylearn,learning,feedback_duration_window,ck8nJhliYyQyosXmqY3EVcIIeUH2,ck8nJhliYyQyosXmqY3EVcIIeUH2,,,,,,,,,,,,,,,,,,750.0,,,,59a456d1ec2f75000124f081,09:12:38,27/02/2024
html-keyboard-response,45,82881,0.0-20.0-3.0,,<div style='margin:auto;width: auto; font-size: 150%'><span style='font-weight: bold; font-size: 100px; color: red;'>0 points!</span><br><br></div>,,delaylearn,learning,feedback_image_window,ck8nJhliYyQyosXmqY3EVcIIeUH2,ck8nJhliYyQyosXmqY3EVcIIeUH2,,,,,,,,,,,,,,,,,,,,,,59a456d1ec2f75000124f081,09:12:38,27/02/2024
html-keyboard-response,46,84436,0.0-21.0,,"<div style=""font-size:100px;"">+</div>",,delaylearn,learning,ITI,ck8nJhliYyQyosXmqY3EVcIIeUH2,ck8nJhliYyQyosXmqY3EVcIIeUH2,,,,,,,,,,,,,,,,,,,1553.0,,,59a456d1ec2f75000124f081,09:12:38,27/02/2024
html-keyboard-response,47,86140,0.0-22.0-0.0,1702.9000000003725,"<div style=""display: flex; flex-direction: column; align-items: center; margin-top: -40px;""><img src=""images/pattern_4.png"" style=""width: 234px; height: 230px; margin-top: -50px;""><div style=""display: flex; justify-content: space-between; margin-top: 33px;""><img src=""images/choice_trial_11.png"" style=""width: 408px; height: 417px; margin-right: 200px;""><img src=""images/choice_trial_4.png"" style=""width: 408px; height: 417px;""></div></div>",j,delaylearn,learning,trial,ck8nJhliYyQyosXmqY3EVcIIeUH2,ck8nJhliYyQyosXmqY3EVcIIeUH2,5.0,images/choice_trial_11.png,images/choice_trial_4.png,images/pattern_4.png,f,f,7000.0,11.0,4.0,3.0,0.0,9.0,0.0,0.0,4.0,50.0,,,,,,59a456d1ec2f75000124f081,09:12:38,27/02/2024
html-keyboard-response,48,87141,0.0-22.0-1.0,,"<div style=""display: flex; flex-direction: column; align-items: center; margin-top: -40px;""><img src=""images/pattern_4.png"" style=""width: 234px; height: 230px; margin-top: -50px;""><div style=""display: flex; justify-content: space-between; margin-top: 33px;""><img src=""images/choice_trial_4.png"" style=""width: 408px; height: 417px; margin-left:608px;""></div></div>",,delaylearn,learning,display_response,ck8nJhliYyQyosXmqY3EVcIIeUH2,ck8nJhliYyQyosXmqY3EVcIIeUH2,,,,,,,,,,,,,,,,,chosen stimuli: images/choice_trial_4.png,,,,,59a456d1ec2f75000124f081,09:12:38,27/02/2024
html-keyboard-response,49,94151,0.0-22.0-2.0,,,,delaylearn,learning,feedback_duration_window,ck8nJhliYyQyosXmqY3EVcIIeUH2,ck8nJhliYyQyosXmqY3EVcIIeUH2,,,,,,,,,,,,,,,,,,7000.0,,,,59a456d1ec2f75000124f081,09:12:38,27/02/2024
html-keyboard-response,50,95655,0.0-22.0-3.0,,<div style='margin:auto;width: auto; font-size: 150%'><span style='font-weight: bold; font-size: 100px; color: red;'>0 points!</span><br><br></div>,,delaylearn,learning,feedback_image_window,ck8nJhliYyQyosXmqY3EVcIIeUH2,ck8nJhliYyQyosXmqY3EVcIIeUH2,,,,,,,,,,,,,,,,,,,,,,59a456d1ec2f75000124f081,09:12:38,27/02/2024
html-keyboard-response,51,97759,0.0-23.0,,"<div style=""font-size:100px;"">+</div>",,delaylearn,learning,ITI,ck8nJhliYyQyosXmqY3EVcIIeUH2,ck8nJhliYyQyosXmqY3EVcIIeUH2,,,,,,,,,,,,,,,,,,,2097.0,,,59a456d1ec2f75000124f081,09:12:38,27/02/2024
html-keyboard-response,52,100269,0.0-24.0-0.0,2509.0,"<div style=""display: flex; flex-direction: column; align-items: center; margin-top: -40px;""><img src=""images/pattern_5.png"" style=""width: 234px; height: 230px; margin-top: -50px;""><div style=""display: flex; justify-content: space-between; margin-top: 33px;""><img src=""images/choice_trial_13.png"" style=""width: 408px; height: 417px; margin-right: 200px;""><img src=""images/choice_trial_7.png"" style=""width: 408px; height: 417px;""></div></div>",f,delaylearn,learning,trial,ck8nJhliYyQyosXmqY3EVcIIeUH2,ck8nJhliYyQyosXmqY3EVcIIeUH2,5.0,images/choice_trial_13.png,images/choice_trial_7.png,images/pattern_5.png,j,j,750.0,13.0,7.0,4.0,1.0,10.0,0.0,0.0,13.0,50.0,,,,,,59a456d1ec2f75000124f081,09:12:38,27/02/2024
html-keyboard-response,53,101283,0.0-24.0-1.0,,"<div style=""display: flex; flex-direction: column; align-items: center; margin-top: -40px;""><img src=""images/pattern_5.png"" style=""width: 234px; height: 230px; margin-top: -50px;""><div style=""display: flex; justify-content: space-between; margin-top: 33px;""><img src=""images/choice_trial_13.png"" style=""width: 408px; height: 417px; margin-right: 608px;""></div></div>",,delaylearn,learning,display_response,ck8nJhliYyQyosXmqY3EVcIIeUH2,ck8nJhliYyQyosXmqY3EVcIIeUH2,,,,,,,,,,,,,,,,,chosen stimuli: images/choice_trial_13.png,,,,,59a456d1ec2f75000124f081,09:12:38,27/02/2024
html-keyboard-response,54,102053,0.0-24.0-2.0,,,,delaylearn,learning,feedback_duration_window,ck8nJhliYyQyosXmqY3EVcIIeUH2,ck8nJhliYyQyosXmqY3EVcIIeUH2,,,,,,,,,,,,,,,,,,750.0,,,,59a456d1ec2f75000124f081,09:12:38,27/02/2024
html-keyboard-response,55,103557,0.0-24.0-3.0,,<div style='margin:auto;width: auto; font-size: 150%'><span style='font-weight: bold; font-size: 100px; color: red;'>0 points!</span><br><br></div>,,delaylearn,learning,feedback_image_window,ck8nJhliYyQyosXmqY3EVcIIeUH2,ck8nJhliYyQyosXmqY3EVcIIeUH2,,,,,,,,,,,,,,,,,,,,,,59a456d1ec2f75000124f081,09:12:38,27/02/2024
html-keyboard-response,56,105360,0.0-25.0,,"<div style=""font-size:100px;"">+</div>",,delaylearn,learning,ITI,ck8nJhliYyQyosXmqY3EVcIIeUH2,ck8nJhliYyQyosXmqY3EVcIIeUH2,,,,,,,,,,,,,,,,,,,1795.0,,,59a456d1ec2f75000124f081,09:12:38,27/02/2024
html-keyboard-response,57,106613,0.0-26.0-0.0,1251.0,"<div style=""display: flex; flex-direction: column; align-items: center; margin-top: -40px;""><img src=""images/pattern_6.png"" style=""width: 234px; height: 230px; margin-top: -50px;""><div style=""display: flex; justify-content: space-between; margin-top: 33px;""><img src=""images/choice_trial_14.png"" style=""width: 408px; height: 417px; margin-right: 200px;""><img src=""images/choice_trial_9.png"" style=""width: 408px; height: 417px;""></div></div>",j,delaylearn,learning,trial,ck8nJhliYyQyosXmqY3EVcIIeUH2,ck8nJhliYyQyosXmqY3EVcIIeUH2,5.0,images/choice_trial_14.png,images/choice_trial_9.png,images/pattern_6.png,j,f,750.0,14.0,9.0,5.0,0.0,11.0,0.0,1.0,9.0,60.0,,,,,,59a456d1ec2f75000124f081,09:12:38,27/02/2024
html-keyboard-response,58,107627,0.0-26.0-1.0,,"<div style=""display: flex; flex-direction: column; align-items: center; margin-top: -40px;""><img src=""images/pattern_6.png"" style=""width: 234px; height: 230px; margin-top: -50px;""><div style=""display: flex; justify-content: space-between; margin-top: 33px;""><img src=""images/choice_trial_9.png"" style=""width: 408px; height: 417px; margin-left:608px;""></div></div>",,delaylearn,learning,display_response,ck8nJhliYyQyosXmqY3EVcIIeUH2,ck8nJhliYyQyosXmqY3EVcIIeUH2,,,,,,,,,,,,,,,,,chosen stimuli: images/choice_trial_9.png,,,,,59a456d1ec2f75000124f081,09:12:38,27/02/2024
html-keyboard-response,59,108382,0.0-26.0-2.0,,,,delaylearn,learning,feedback_duration_window,ck8nJhliYyQyosXmqY3EVcIIeUH2,ck8nJhliYyQyosXmqY3EVcIIeUH2,,,,,,,,,,,,,,,,,,750.0,,,,59a456d1ec2f75000124f081,09:12:38,27/02/2024
html-keyboard-response,60,109885,0.0-26.0-3.0,,<div style='margin:auto;width: auto; font-size: 150%'><span style='font-weight: bold; font-size: 100px; color: green;'>+10 points!</span><br><br></div>,,delaylearn,learning,feedback_image_window,ck8nJhliYyQyosXmqY3EVcIIeUH2,ck8nJhliYyQyosXmqY3EVcIIeUH2,,,,,,,,,,,,,,,,,,,,,,59a456d1ec2f75000124f081,09:12:38,27/02/2024
html-keyboard-response,61,110386,0.0-27.0-0.0,,,,,,mood_trial_fixation,ck8nJhliYyQyosXmqY3EVcIIeUH2,,,,,,,,,,,,,,,,,,,,,,,59a456d1ec2f75000124f081,09:12:38,27/02/2024
lmdlab-html-vas-response,62,113593,0.0-27.0-1.0,2204.0,How happy are you right now?,0.4722222222222222,delaylearn,learning,mood_trial,ck8nJhliYyQyosXmqY3EVcIIeUH2,ck8nJhliYyQyosXmqY3EVcIIeUH2,,,,,,,,,,,,,,,,,,,,"['Very unhappy', 'Very happy']",,59a456d1ec2f75000124f081,09:12:38,27/02/2024
html-keyboard-response,63,115828,0.0-28.0,,"<div style=""font-size:100px;"">+</div>",,delaylearn,learning,ITI,ck8nJhliYyQyosXmqY3EVcIIeUH2,ck8nJhliYyQyosXmqY3EVcIIeUH2,,,,,,,,,,,,,,,,,,,2221.0,,,59a456d1ec2f75000124f081,09:12:38,27/02/2024
html-keyboard-response,64,117309,0.0-29.0-0.0,1479.5,"<div style=""display: flex; flex-direction: column; align-items: center; margin-top: -40px;""><img src=""images/pattern_1.png"" style=""width: 234px; height: 230px; margin-top: -50px;""><div style=""display: flex; justify-content: space-between; margin-top: 33px;""><img src=""images/choice_trial_15.png"" style=""width: 408px; height: 417px; margin-right: 200px;""><img src=""images/choice_trial_6.png"" style=""width: 408px; height: 417px;""></div></div>",j,delaylearn,learning,trial,ck8nJhliYyQyosXmqY3EVcIIeUH2,ck8nJhliYyQyosXmqY3EVcIIeUH2,5.0,images/choice_trial_15.png,images/choice_trial_6.png,images/pattern_1.png,j,j,7000.0,15.0,6.0,1.0,1.0,12.0,1.0,1.0,6.0,70.0,,,,,,59a456d1ec2f75000124f081,09:12:38,27/02/2024
html-keyboard-response,65,118310,0.0-29.0-1.0,,"<div style=""display: flex; flex-direction: column; align-items: center; margin-top: -40px;""><img src=""images/pattern_1.png"" style=""width: 234px; height: 230px; margin-top: -50px;""><div style=""display: flex; justify-content: space-between; margin-top: 33px;""><img src=""images/choice_trial_6.png"" style=""width: 408px; height: 417px; margin-left:608px;""></div></div>",,delaylearn,learning,display_response,ck8nJhliYyQyosXmqY3EVcIIeUH2,ck8nJhliYyQyosXmqY3EVcIIeUH2,,,,,,,,,,,,,,,,,chosen stimuli: images/choice_trial_6.png,,,,,59a456d1ec2f75000124f081,09:12:38,27/02/2024
html-keyboard-response,66,125319,0.0-29.0-2.0,,,,delaylearn,learning,feedback_duration_window,ck8nJhliYyQyosXmqY3EVcIIeUH2,ck8nJhliYyQyosXmqY3EVcIIeUH2,,,,,,,,,,,,,,,,,,7000.0,,,,59a456d1ec2f75000124f081,09:12:38,27/02/2024
html-keyboard-response,67,126824,0.0-29.0-3.0,,<div style='margin:auto;width: auto; font-size: 150%'><span style='font-weight: bold; font-size: 100px; color: green;'>+10 points!</span><br><br></div>,,delaylearn,learning,feedback_image_window,ck8nJhliYyQyosXmqY3EVcIIeUH2,ck8nJhliYyQyosXmqY3EVcIIeUH2,,,,,,,,,,,,,,,,,,,,,,59a456d1ec2f75000124f081,09:12:38,27/02/2024
html-keyboard-response,68,129115,0.0-30.0,,"<div style=""font-size:100px;"">+</div>",,delaylearn,learning,ITI,ck8nJhliYyQyosXmqY3EVcIIeUH2,ck8nJhliYyQyosXmqY3EVcIIeUH2,,,,,,,,,,,,,,,,,,,2278.0,,,59a456d1ec2f75000124f081,09:12:38,27/02/2024
html-keyboard-response,69,130821,0.0-31.0-0.0,1704.8999999994412,"<div style=""display: flex; flex-direction: column; align-items: center; margin-top: -40px;""><img src=""images/pattern_3.png"" style=""width: 234px; height: 230px; margin-top: -50px;""><div style=""display: flex; justify-content: space-between; margin-top: 33px;""><img src=""images/choice_trial_2.png"" style=""width: 408px; height: 417px; margin-right: 200px;""><img src=""images/choice_trial_16.png"" style=""width: 408px; height: 417px;""></div></div>",j,delaylearn,learning,trial,ck8nJhliYyQyosXmqY3EVcIIeUH2,ck8nJhliYyQyosXmqY3EVcIIeUH2,5.0,images/choice_trial_2.png,images/choice_trial_16.png,images/pattern_3.png,f,j,7000.0,2.0,16.0,2.0,1.0,13.0,1.0,0.0,16.0,70.0,,,,,,59a456d1ec2f75000124f081,09:12:38,27/02/2024
html-keyboard-response,70,131824,0.0-31.0-1.0,,"<div style=""display: flex; flex-direction: column; align-items: center; margin-top: -40px;""><img src=""images/pattern_3.png"" style=""width: 234px; height: 230px; margin-top: -50px;""><div style=""display: flex; justify-content: space-between; margin-top: 33px;""><img src=""images/choice_trial_16.png"" style=""width: 408px; height: 417px; margin-left:608px;""></div></div>",,delaylearn,learning,display_response,ck8nJhliYyQyosXmqY3EVcIIeUH2,ck8nJhliYyQyosXmqY3EVcIIeUH2,,,,,,,,,,,,,,,,,chosen stimuli: images/choice_trial_16.png,,,,,59a456d1ec2f75000124f081,09:12:38,27/02/2024
html-keyboard-response,71,138843,0.0-31.0-2.0,,,,delaylearn,learning,feedback_duration_window,ck8nJhliYyQyosXmqY3EVcIIeUH2,ck8nJhliYyQyosXmqY3EVcIIeUH2,,,,,,,,,,,,,,,,,,7000.0,,,,59a456d1ec2f75000124f081,09:12:38,27/02/2024
html-keyboard-response,72,140348,0.0-31.0-3.0,,<div style='margin:auto;width: auto; font-size: 150%'><span style='font-weight: bold; font-size: 100px; color: red;'>0 points!</span><br><br></div>,,delaylearn,learning,feedback_image_window,ck8nJhliYyQyosXmqY3EVcIIeUH2,ck8nJhliYyQyosXmqY3EVcIIeUH2,,,,,,,,,,,,,,,,,,,,,,59a456d1ec2f75000124f081,09:12:38,27/02/2024
html-keyboard-response,73,142353,0.0-32.0,,"<div style=""font-size:100px;"">+</div>",,delaylearn,learning,ITI,ck8nJhliYyQyosXmqY3EVcIIeUH2,ck8nJhliYyQyosXmqY3EVcIIeUH2,,,,,,,,,,,,,,,,,,,1991.0,,,59a456d1ec2f75000124f081,09:12:38,27/02/2024
html-keyboard-response,74,144422,0.0-33.0-0.0,2067.4000000003725,"<div style=""display: flex; flex-direction: column; align-items: center; margin-top: -40px;""><img src=""images/pattern_5.png"" style=""width: 234px; height: 230px; margin-top: -50px;""><div style=""display: flex; justify-content: space-between; margin-top: 33px;""><img src=""images/choice_trial_7.png"" style=""width: 408px; height: 417px; margin-right: 200px;""><img src=""images/choice_trial_13.png"" style=""width: 408px; height: 417px;""></div></div>",f,delaylearn,learning,trial,ck8nJhliYyQyosXmqY3EVcIIeUH2,ck8nJhliYyQyosXmqY3EVcIIeUH2,5.0,images/choice_trial_7.png,images/choice_trial_13.png,images/pattern_5.png,f,f,750.0,7.0,13.0,4.0,0.0,14.0,1.0,1.0,7.0,80.0,,,,,,59a456d1ec2f75000124f081,09:12:38,27/02/2024
html-keyboard-response,75,145424,0.0-33.0-1.0,,"<div style=""display: flex; flex-direction: column; align-items: center; margin-top: -40px;""><img src=""images/pattern_5.png"" style=""width: 234px; height: 230px; margin-top: -50px;""><div style=""display: flex; justify-content: space-between; margin-top: 33px;""><img src=""images/choice_trial_7.png"" style=""width: 408px; height: 417px; margin-right: 608px;""></div></div>",,delaylearn,learning,display_response,ck8nJhliYyQyosXmqY3EVcIIeUH2,ck8nJhliYyQyosXmqY3EVcIIeUH2,,,,,,,,,,,,,,,,,chosen stimuli: images/choice_trial_7.png,,,,,59a456d1ec2f75000124f081,09:12:38,27/02/2024
html-keyboard-response,76,146179,0.0-33.0-2.0,,,,delaylearn,learning,feedback_duration_window,ck8nJhliYyQyosXmqY3EVcIIeUH2,ck8nJhliYyQyosXmqY3EVcIIeUH2,,,,,,,,,,,,,,,,,,750.0,,,,59a456d1ec2f75000124f081,09:12:38,27/02/2024
html-keyboard-response,77,147683,0.0-33.0-3.0,,<div style='margin:auto;width: auto; font-size: 150%'><span style='font-weight: bold; font-size: 100px; color: green;'>+10 points!</span><br><br></div>,,delaylearn,learning,feedback_image_window,ck8nJhliYyQyosXmqY3EVcIIeUH2,ck8nJhliYyQyosXmqY3EVcIIeUH2,,,,,,,,,,,,,,,,,,,,,,59a456d1ec2f75000124f081,09:12:38,27/02/2024
html-keyboard-response,78,148185,0.0-34.0-0.0,,,,,,mood_trial_fixation,ck8nJhliYyQyosXmqY3EVcIIeUH2,,,,,,,,,,,,,,,,,,,,,,,59a456d1ec2f75000124f081,09:12:38,27/02/2024
lmdlab-html-vas-response,79,151062,0.0-34.0-1.0,1872.0,How happy are you right now?,0.5162037037037037,delaylearn,learning,mood_trial,ck8nJhliYyQyosXmqY3EVcIIeUH2,ck8nJhliYyQyosXmqY3EVcIIeUH2,,,,,,,,,,,,,,,,,,,,"['Very unhappy', 'Very happy']",,59a456d1ec2f75000124f081,09:12:38,27/02/2024
html-keyboard-response,80,153184,0.0-35.0,,"<div style=""font-size:100px;"">+</div>",,delaylearn,learning,ITI,ck8nJhliYyQyosXmqY3EVcIIeUH2,ck8nJhliYyQyosXmqY3EVcIIeUH2,,,,,,,,,,,,,,,,,,,2105.0,,,59a456d1ec2f75000124f081,09:12:38,27/02/2024
html-keyboard-response,81,154309,0.0-36.0-0.0,1123.800000000745,"<div style=""display: flex; flex-direction: column; align-items: center; margin-top: -40px;""><img src=""images/pattern_6.png"" style=""width: 234px; height: 230px; margin-top: -50px;""><div style=""display: flex; justify-content: space-between; margin-top: 33px;""><img src=""images/choice_trial_14.png"" style=""width: 408px; height: 417px; margin-right: 200px;""><img src=""images/choice_trial_9.png"" style=""width: 408px; height: 417px;""></div></div>",j,delaylearn,learning,trial,ck8nJhliYyQyosXmqY3EVcIIeUH2,ck8nJhliYyQyosXmqY3EVcIIeUH2,5.0,images/choice_trial_14.png,images/choice_trial_9.png,images/pattern_6.png,f,f,750.0,14.0,9.0,5.0,0.0,15.0,0.0,0.0,9.0,80.0,,,,,,59a456d1ec2f75000124f081,09:12:38,27/02/2024
html-keyboard-response,82,155321,0.0-36.0-1.0,,"<div style=""display: flex; flex-direction: column; align-items: center; margin-top: -40px;""><img src=""images/pattern_6.png"" style=""width: 234px; height: 230px; margin-top: -50px;""><div style=""display: flex; justify-content: space-between; margin-top: 33px;""><img src=""images/choice_trial_9.png"" style=""width: 408px; height: 417px; margin-left:608px;""></div></div>",,delaylearn,learning,display_response,ck8nJhliYyQyosXmqY3EVcIIeUH2,ck8nJhliYyQyosXmqY3EVcIIeUH2,,,,,,,,,,,,,,,,,chosen stimuli: images/choice_trial_9.png,,,,,59a456d1ec2f75000124f081,09:12:38,27/02/2024
html-keyboard-response,83,156091,0.0-36.0-2.0,,,,delaylearn,learning,feedback_duration_window,ck8nJhliYyQyosXmqY3EVcIIeUH2,ck8nJhliYyQyosXmqY3EVcIIeUH2,,,,,,,,,,,,,,,,,,750.0,,,,59a456d1ec2f75000124f081,09:12:38,27/02/2024
html-keyboard-response,84,157596,0.0-36.0-3.0,,<div style='margin:auto;width: auto; font-size: 150%'><span style='font-weight: bold; font-size: 100px; color: red;'>0 points!</span><br><br></div>,,delaylearn,learning,feedback_image_window,ck8nJhliYyQyosXmqY3EVcIIeUH2,ck8nJhliYyQyosXmqY3EVcIIeUH2,,,,,,,,,,,,,,,,,,,,,,59a456d1ec2f75000124f081,09:12:38,27/02/2024
html-keyboard-response,85,159584,0.0-37.0,,"<div style=""font-size:100px;"">+</div>",,delaylearn,learning,ITI,ck8nJhliYyQyosXmqY3EVcIIeUH2,ck8nJhliYyQyosXmqY3EVcIIeUH2,,,,,,,,,,,,,,,,,,,1983.0,,,59a456d1ec2f75000124f081,09:12:38,27/02/2024
html-keyboard-response,86,160821,0.0-38.0-0.0,1236.5,"<div style=""display: flex; flex-direction: column; align-items: center; margin-top: -40px;""><img src=""images/pattern_4.png"" style=""width: 234px; height: 230px; margin-top: -50px;""><div style=""display: flex; justify-content: space-between; margin-top: 33px;""><img src=""images/choice_trial_4.png"" style=""width: 408px; height: 417px; margin-right: 200px;""><img src=""images/choice_trial_11.png"" style=""width: 408px; height: 417px;""></div></div>",f,delaylearn,learning,trial,ck8nJhliYyQyosXmqY3EVcIIeUH2,ck8nJhliYyQyosXmqY3EVcIIeUH2,5.0,images/choice_trial_4.png,images/choice_trial_11.png,images/pattern_4.png,j,j,7000.0,4.0,11.0,3.0,1.0,16.0,0.0,0.0,4.0,80.0,,,,,,59a456d1ec2f75000124f081,09:12:38,27/02/2024
html-keyboard-response,87,161824,0.0-38.0-1.0,,"<div style=""display: flex; flex-direction: column; align-items: center; margin-top: -40px;""><img src=""images/pattern_4.png"" style=""width: 234px; height: 230px; margin-top: -50px;""><div style=""display: flex; justify-content: space-between; margin-top: 33px;""><img src=""images/choice_trial_4.png"" style=""width: 408px; height: 417px; margin-right: 608px;""></div></div>",,delaylearn,learning,display_response,ck8nJhliYyQyosXmqY3EVcIIeUH2,ck8nJhliYyQyosXmqY3EVcIIeUH2,,,,,,,,,,,,,,,,,chosen stimuli: images/choice_trial_4.png,,,,,59a456d1ec2f75000124f081,09:12:38,27/02/2024
html-keyboard-response,88,168825,0.0-38.0-2.0,,,,delaylearn,learning,feedback_duration_window,ck8nJhliYyQyosXmqY3EVcIIeUH2,ck8nJhliYyQyosXmqY3EVcIIeUH2,,,,,,,,,,,,,,,,,,7000.0,,,,59a456d1ec2f75000124f081,09:12:38,27/02/2024
html-keyboard-response,89,170332,0.0-38.0-3.0,,<div style='margin:auto;width: auto; font-size: 150%'><span style='font-weight: bold; font-size: 100px; color: red;'>0 points!</span><br><br></div>,,delaylearn,learning,feedback_image_window,ck8nJhliYyQyosXmqY3EVcIIeUH2,ck8nJhliYyQyosXmqY3EVcIIeUH2,,,,,,,,,,,,,,,,,,,,,,59a456d1ec2f75000124f081,09:12:38,27/02/2024
html-keyboard-response,90,172704,0.0-39.0,,"<div style=""font-size:100px;"">+</div>",,delaylearn,learning,ITI,ck8nJhliYyQyosXmqY3EVcIIeUH2,ck8nJhliYyQyosXmqY3EVcIIeUH2,,,,,,,,,,,,,,,,,,,2371.0,,,59a456d1ec2f75000124f081,09:12:38,27/02/2024
html-keyboard-response,91,174109,0.0-40.0-0.0,1403.8999999994412,"<div style=""display: flex; flex-direction: column; align-items: center; margin-top: -40px;""><img src=""images/pattern_7.png"" style=""width: 234px; height: 230px; margin-top: -50px;""><div style=""display: flex; justify-content: space-between; margin-top: 33px;""><img src=""images/choice_trial_8.png"" style=""width: 408px; height: 417px; margin-right: 200px;""><img src=""images/choice_trial_10.png"" style=""width: 408px; height: 417px;""></div></div>",j,delaylearn,learning,trial,ck8nJhliYyQyosXmqY3EVcIIeUH2,ck8nJhliYyQyosXmqY3EVcIIeUH2,5.0,images/choice_trial_8.png,images/choice_trial_10.png,images/pattern_7.png,j,f,750.0,8.0,10.0,6.0,0.0,17.0,0.0,1.0,10.0,90.0,,,,,,59a456d1ec2f75000124f081,09:12:38,27/02/2024
html-keyboard-response,92,175126,0.0-40.0-1.0,,"<div style=""display: flex; flex-direction: column; align-items: center; margin-top: -40px;""><img src=""images/pattern_7.png"" style=""width: 234px; height: 230px; margin-top: -50px;""><div style=""display: flex; justify-content: space-between; margin-top: 33px;""><img src=""images/choice_trial_10.png"" style=""width: 408px; height: 417px; margin-left:608px;""></div></div>",,delaylearn,learning,display_response,ck8nJhliYyQyosXmqY3EVcIIeUH2,ck8nJhliYyQyosXmqY3EVcIIeUH2,,,,,,,,,,,,,,,,,chosen stimuli: images/choice_trial_10.png,,,,,59a456d1ec2f75000124f081,09:12:38,27/02/2024
html-keyboard-response,93,175892,0.0-40.0-2.0,,,,delaylearn,learning,feedback_duration_window,ck8nJhliYyQyosXmqY3EVcIIeUH2,ck8nJhliYyQyosXmqY3EVcIIeUH2,,,,,,,,,,,,,,,,,,750.0,,,,59a456d1ec2f75000124f081,09:12:38,27/02/2024
html-keyboard-response,94,177396,0.0-40.0-3.0,,<div style='margin:auto;width: auto; font-size: 150%'><span style='font-weight: bold; font-size: 100px; color: green;'>+10 points!</span><br><br></div>,,delaylearn,learning,feedback_image_window,ck8nJhliYyQyosXmqY3EVcIIeUH2,ck8nJhliYyQyosXmqY3EVcIIeUH2,,,,,,,,,,,,,,,,,,,,,,59a456d1ec2f75000124f081,09:12:38,27/02/2024
html-keyboard-response,95,179654,0.0-41.0,,"<div style=""font-size:100px;"">+</div>",,delaylearn,learning,ITI,ck8nJhliYyQyosXmqY3EVcIIeUH2,ck8nJhliYyQyosXmqY3EVcIIeUH2,,,,,,,,,,,,,,,,,,,2255.0,,,59a456d1ec2f75000124f081,09:12:38,27/02/2024
html-keyboard-response,96,180581,0.0-42.0-0.0,925.6000000005588,"<div style=""display: flex; flex-direction: column; align-items: center; margin-top: -40px;""><img src=""images/pattern_1.png"" style=""width: 234px; height: 230px; margin-top: -50px;""><div style=""display: flex; justify-content: space-between; margin-top: 33px;""><img src=""images/choice_trial_6.png"" style=""width: 408px; height: 417px; margin-right: 200px;""><img src=""images/choice_trial_15.png"" style=""width: 408px; height: 417px;""></div></div>",f,delaylearn,learning,trial,ck8nJhliYyQyosXmqY3EVcIIeUH2,ck8nJhliYyQyosXmqY3EVcIIeUH2,5.0,images/choice_trial_6.png,images/choice_trial_15.png,images/pattern_1.png,f,f,7000.0,6.0,15.0,1.0,0.0,18.0,1.0,1.0,6.0,100.0,,,,,,59a456d1ec2f75000124f081,09:12:38,27/02/2024
html-keyboard-response,97,181583,0.0-42.0-1.0,,"<div style=""display: flex; flex-direction: column; align-items: center; margin-top: -40px;""><img src=""images/pattern_1.png"" style=""width: 234px; height: 230px; margin-top: -50px;""><div style=""display: flex; justify-content: space-between; margin-top: 33px;""><img src=""images/choice_trial_6.png"" style=""width: 408px; height: 417px; margin-right: 608px;""></div></div>",,delaylearn,learning,display_response,ck8nJhliYyQyosXmqY3EVcIIeUH2,ck8nJhliYyQyosXmqY3EVcIIeUH2,,,,,,,,,,,,,,,,,chosen stimuli: images/choice_trial_6.png,,,,,59a456d1ec2f75000124f081,09:12:38,27/02/2024
html-keyboard-response,98,188592,0.0-42.0-2.0,,,,delaylearn,learning,feedback_duration_window,ck8nJhliYyQyosXmqY3EVcIIeUH2,ck8nJhliYyQyosXmqY3EVcIIeUH2,,,,,,,,,,,,,,,,,,7000.0,,,,59a456d1ec2f75000124f081,09:12:38,27/02/2024
html-keyboard-response,99,190096,0.0-42.0-3.0,,<div style='margin:auto;width: auto; font-size: 150%'><span style='font-weight: bold; font-size: 100px; color: green;'>+10 points!</span><br><br></div>,,delaylearn,learning,feedback_image_window,ck8nJhliYyQyosXmqY3EVcIIeUH2,ck8nJhliYyQyosXmqY3EVcIIeUH2,,,,,,,,,,,,,,,,,,,,,,59a456d1ec2f75000124f081,09:12:38,27/02/2024
html-keyboard-response,100,191833,0.0-43.0,,"<div style=""font-size:100px;"">+</div>",,delaylearn,learning,ITI,ck8nJhliYyQyosXmqY3EVcIIeUH2,ck8nJhliYyQyosXmqY3EVcIIeUH2,,,,,,,,,,,,,,,,,,,1724.0,,,59a456d1ec2f75000124f081,09:12:38,27/02/2024
html-keyboard-response,101,193150,0.0-44.0-0.0,1315.7999999998137,"<div style=""display: flex; flex-direction: column; align-items: center; margin-top: -40px;""><img src=""images/pattern_6.png"" style=""width: 234px; height: 230px; margin-top: -50px;""><div style=""display: flex; justify-content: space-between; margin-top: 33px;""><img src=""images/choice_trial_9.png"" style=""width: 408px; height: 417px; margin-right: 200px;""><img src=""images/choice_trial_14.png"" style=""width: 408px; height: 417px;""></div></div>",j,delaylearn,learning,trial,ck8nJhliYyQyosXmqY3EVcIIeUH2,ck8nJhliYyQyosXmqY3EVcIIeUH2,5.0,images/choice_trial_9.png,images/choice_trial_14.png,images/pattern_6.png,j,j,750.0,9.0,14.0,5.0,1.0,19.0,1.0,1.0,14.0,110.0,,,,,,59a456d1ec2f75000124f081,09:12:38,27/02/2024
html-keyboard-response,102,194155,0.0-44.0-1.0,,"<div style=""display: flex; flex-direction: column; align-items: center; margin-top: -40px;""><img src=""images/pattern_6.png"" style=""width: 234px; height: 230px; margin-top: -50px;""><div style=""display: flex; justify-content: space-between; margin-top: 33px;""><img src=""images/choice_trial_14.png"" style=""width: 408px; height: 417px; margin-left:608px;""></div></div>",,delaylearn,learning,display_response,ck8nJhliYyQyosXmqY3EVcIIeUH2,ck8nJhliYyQyosXmqY3EVcIIeUH2,,,,,,,,,,,,,,,,,chosen stimuli: images/choice_trial_14.png,,,,,59a456d1ec2f75000124f081,09:12:38,27/02/2024
html-keyboard-response,103,194910,0.0-44.0-2.0,,,,delaylearn,learning,feedback_duration_window,ck8nJhliYyQyosXmqY3EVcIIeUH2,ck8nJhliYyQyosXmqY3EVcIIeUH2,,,,,,,,,,,,,,,,,,750.0,,,,59a456d1ec2f75000124f081,09:12:38,27/02/2024
html-keyboard-response,104,196413,0.0-44.0-3.0,,<div style='margin:auto;width: auto; font-size: 150%'><span style='font-weight: bold; font-size: 100px; color: green;'>+10 points!</span><br><br></div>,,delaylearn,learning,feedback_image_window,ck8nJhliYyQyosXmqY3EVcIIeUH2,ck8nJhliYyQyosXmqY3EVcIIeUH2,,,,,,,,,,,,,,,,,,,,,,59a456d1ec2f75000124f081,09:12:38,27/02/2024
html-keyboard-response,105,198049,0.0-45.0,,"<div style=""font-size:100px;"">+</div>",,delaylearn,learning,ITI,ck8nJhliYyQyosXmqY3EVcIIeUH2,ck8nJhliYyQyosXmqY3EVcIIeUH2,,,,,,,,,,,,,,,,,,,1625.0,,,59a456d1ec2f75000124f081,09:12:38,27/02/2024
html-keyboard-response,106,199566,0.0-46.0-0.0,1515.800000000745,"<div style=""display: flex; flex-direction: column; align-items: center; margin-top: -40px;""><img src=""images/pattern_4.png"" style=""width: 234px; height: 230px; margin-top: -50px;""><div style=""display: flex; justify-content: space-between; margin-top: 33px;""><img src=""images/choice_trial_11.png"" style=""width: 408px; height: 417px; margin-right: 200px;""><img src=""images/choice_trial_4.png"" style=""width: 408px; height: 417px;""></div></div>",f,delaylearn,learning,trial,ck8nJhliYyQyosXmqY3EVcIIeUH2,ck8nJhliYyQyosXmqY3EVcIIeUH2,5.0,images/choice_trial_11.png,images/choice_trial_4.png,images/pattern_4.png,f,f,7000.0,11.0,4.0,3.0,0.0,20.0,1.0,1.0,11.0,120.0,,,,,,59a456d1ec2f75000124f081,09:12:38,27/02/2024
html-keyboard-response,107,200571,0.0-46.0-1.0,,"<div style=""display: flex; flex-direction: column; align-items: center; margin-top: -40px;""><img src=""images/pattern_4.png"" style=""width: 234px; height: 230px; margin-top: -50px;""><div style=""display: flex; justify-content: space-between; margin-top: 33px;""><img src=""images/choice_trial_11.png"" style=""width: 408px; height: 417px; margin-right: 608px;""></div></div>",,delaylearn,learning,display_response,ck8nJhliYyQyosXmqY3EVcIIeUH2,ck8nJhliYyQyosXmqY3EVcIIeUH2,,,,,,,,,,,,,,,,,chosen stimuli: images/choice_trial_11.png,,,,,59a456d1ec2f75000124f081,09:12:38,27/02/2024
html-keyboard-response,108,207574,0.0-46.0-2.0,,,,delaylearn,learning,feedback_duration_window,ck8nJhliYyQyosXmqY3EVcIIeUH2,ck8nJhliYyQyosXmqY3EVcIIeUH2,,,,,,,,,,,,,,,,,,7000.0,,,,59a456d1ec2f75000124f081,09:12:38,27/02/2024
html-keyboard-response,109,209087,0.0-46.0-3.0,,<div style='margin:auto;width: auto; font-size: 150%'><span style='font-weight: bold; font-size: 100px; color: green;'>+10 points!</span><br><br></div>,,delaylearn,learning,feedback_image_window,ck8nJhliYyQyosXmqY3EVcIIeUH2,ck8nJhliYyQyosXmqY3EVcIIeUH2,,,,,,,,,,,,,,,,,,,,,,59a456d1ec2f75000124f081,09:12:38,27/02/2024
html-keyboard-response,110,209595,0.0-47.0-0.0,,,,,,mood_trial_fixation,ck8nJhliYyQyosXmqY3EVcIIeUH2,,,,,,,,,,,,,,,,,,,,,,,59a456d1ec2f75000124f081,09:12:38,27/02/2024
lmdlab-html-vas-response,111,213652,0.0-47.0-1.0,3053.0,How happy are you right now?,0.6712962962962963,delaylearn,learning,mood_trial,ck8nJhliYyQyosXmqY3EVcIIeUH2,ck8nJhliYyQyosXmqY3EVcIIeUH2,,,,,,,,,,,,,,,,,,,,"['Very unhappy', 'Very happy']",,59a456d1ec2f75000124f081,09:12:38,27/02/2024
html-keyboard-response,112,215547,0.0-48.0,,"<div style=""font-size:100px;"">+</div>",,delaylearn,learning,ITI,ck8nJhliYyQyosXmqY3EVcIIeUH2,ck8nJhliYyQyosXmqY3EVcIIeUH2,,,,,,,,,,,,,,,,,,,1876.0,,,59a456d1ec2f75000124f081,09:12:38,27/02/2024
html-keyboard-response,113,216893,0.0-49.0-0.0,1345.300000000745,"<div style=""display: flex; flex-direction: column; align-items: center; margin-top: -40px;""><img src=""images/pattern_7.png"" style=""width: 234px; height: 230px; margin-top: -50px;""><div style=""display: flex; justify-content: space-between; margin-top: 33px;""><img src=""images/choice_trial_10.png"" style=""width: 408px; height: 417px; margin-right: 200px;""><img src=""images/choice_trial_8.png"" style=""width: 408px; height: 417px;""></div></div>",j,delaylearn,learning,trial,ck8nJhliYyQyosXmqY3EVcIIeUH2,ck8nJhliYyQyosXmqY3EVcIIeUH2,5.0,images/choice_trial_10.png,images/choice_trial_8.png,images/pattern_7.png,j,j,750.0,10.0,8.0,6.0,1.0,21.0,1.0,1.0,8.0,130.0,,,,,,59a456d1ec2f75000124f081,09:12:38,27/02/2024
html-keyboard-response,114,217899,0.0-49.0-1.0,,"<div style=""display: flex; flex-direction: column; align-items: center; margin-top: -40px;""><img src=""images/pattern_7.png"" style=""width: 234px; height: 230px; margin-top: -50px;""><div style=""display: flex; justify-content: space-between; margin-top: 33px;""><img src=""images/choice_trial_8.png"" style=""width: 408px; height: 417px; margin-left:608px;""></div></div>",,delaylearn,learning,display_response,ck8nJhliYyQyosXmqY3EVcIIeUH2,ck8nJhliYyQyosXmqY3EVcIIeUH2,,,,,,,,,,,,,,,,,chosen stimuli: images/choice_trial_8.png,,,,,59a456d1ec2f75000124f081,09:12:38,27/02/2024
html-keyboard-response,115,218655,0.0-49.0-2.0,,,,delaylearn,learning,feedback_duration_window,ck8nJhliYyQyosXmqY3EVcIIeUH2,ck8nJhliYyQyosXmqY3EVcIIeUH2,,,,,,,,,,,,,,,,,,750.0,,,,59a456d1ec2f75000124f081,09:12:38,27/02/2024
html-keyboard-response,116,220159,0.0-49.0-3.0,,<div style='margin:auto;width: auto; font-size: 150%'><span style='font-weight: bold; font-size: 100px; color: green;'>+10 points!</span><br><br></div>,,delaylearn,learning,feedback_image_window,ck8nJhliYyQyosXmqY3EVcIIeUH2,ck8nJhliYyQyosXmqY3EVcIIeUH2,,,,,,,,,,,,,,,,,,,,,,59a456d1ec2f75000124f081,09:12:38,27/02/2024
html-keyboard-response,117,222464,0.0-50.0,,"<div style=""font-size:100px;"">+</div>",,delaylearn,learning,ITI,ck8nJhliYyQyosXmqY3EVcIIeUH2,ck8nJhliYyQyosXmqY3EVcIIeUH2,,,,,,,,,,,,,,,,,,,2290.0,,,59a456d1ec2f75000124f081,09:12:38,27/02/2024
html-keyboard-response,118,224310,0.0-51.0-0.0,1844.2999999998137,"<div style=""display: flex; flex-direction: column; align-items: center; margin-top: -40px;""><img src=""images/pattern_1.png"" style=""width: 234px; height: 230px; margin-top: -50px;""><div style=""display: flex; justify-content: space-between; margin-top: 33px;""><img src=""images/choice_trial_15.png"" style=""width: 408px; height: 417px; margin-right: 200px;""><img src=""images/choice_trial_6.png"" style=""width: 408px; height: 417px;""></div></div>",f,delaylearn,learning,trial,ck8nJhliYyQyosXmqY3EVcIIeUH2,ck8nJhliYyQyosXmqY3EVcIIeUH2,5.0,images/choice_trial_15.png,images/choice_trial_6.png,images/pattern_1.png,f,j,7000.0,15.0,6.0,1.0,1.0,22.0,0.0,1.0,15.0,140.0,,,,,,59a456d1ec2f75000124f081,09:12:38,27/02/2024
html-keyboard-response,119,225319,0.0-51.0-1.0,,"<div style=""display: flex; flex-direction: column; align-items: center; margin-top: -40px;""><img src=""images/pattern_1.png"" style=""width: 234px; height: 230px; margin-top: -50px;""><div style=""display: flex; justify-content: space-between; margin-top: 33px;""><img src=""images/choice_trial_15.png"" style=""width: 408px; height: 417px; margin-right: 608px;""></div></div>",,delaylearn,learning,display_response,ck8nJhliYyQyosXmqY3EVcIIeUH2,ck8nJhliYyQyosXmqY3EVcIIeUH2,,,,,,,,,,,,,,,,,chosen stimuli: images/choice_trial_15.png,,,,,59a456d1ec2f75000124f081,09:12:38,27/02/2024
html-keyboard-response,120,232321,0.0-51.0-2.0,,,,delaylearn,learning,feedback_duration_window,ck8nJhliYyQyosXmqY3EVcIIeUH2,ck8nJhliYyQyosXmqY3EVcIIeUH2,,,,,,,,,,,,,,,,,,7000.0,,,,59a456d1ec2f75000124f081,09:12:38,27/02/2024
html-keyboard-response,121,233825,0.0-51.0-3.0,,<div style='margin:auto;width: auto; font-size: 150%'><span style='font-weight: bold; font-size: 100px; color: green;'>+10 points!</span><br><br></div>,,delaylearn,learning,feedback_image_window,ck8nJhliYyQyosXmqY3EVcIIeUH2,ck8nJhliYyQyosXmqY3EVcIIeUH2,,,,,,,,,,,,,,,,,,,,,,59a456d1ec2f75000124f081,09:12:38,27/02/2024
html-keyboard-response,122,236177,0.0-52.0,,"<div style=""font-size:100px;"">+</div>",,delaylearn,learning,ITI,ck8nJhliYyQyosXmqY3EVcIIeUH2,ck8nJhliYyQyosXmqY3EVcIIeUH2,,,,,,,,,,,,,,,,,,,2342.0,,,59a456d1ec2f75000124f081,09:12:38,27/02/2024
html-keyboard-response,123,237886,0.0-53.0-0.0,1707.5999999996275,"<div style=""display: flex; flex-direction: column; align-items: center; margin-top: -40px;""><img src=""images/pattern_5.png"" style=""width: 234px; height: 230px; margin-top: -50px;""><div style=""display: flex; justify-content: space-between; margin-top: 33px;""><img src=""images/choice_trial_13.png"" style=""width: 408px; height: 417px; margin-right: 200px;""><img src=""images/choice_trial_7.png"" style=""width: 408px; height: 417px;""></div></div>",j,delaylearn,learning,trial,ck8nJhliYyQyosXmqY3EVcIIeUH2,ck8nJhliYyQyosXmqY3EVcIIeUH2,5.0,images/choice_trial_13.png,images/choice_trial_7.png,images/pattern_5.png,j,j,750.0,13.0,7.0,4.0,1.0,23.0,1.0,1.0,7.0,150.0,,,,,,59a456d1ec2f75000124f081,09:12:38,27/02/2024
html-keyboard-response,124,238905,0.0-53.0-1.0,,"<div style=""display: flex; flex-direction: column; align-items: center; margin-top: -40px;""><img src=""images/pattern_5.png"" style=""width: 234px; height: 230px; margin-top: -50px;""><div style=""display: flex; justify-content: space-between; margin-top: 33px;""><img src=""images/choice_trial_7.png"" style=""width: 408px; height: 417px; margin-left:608px;""></div></div>",,delaylearn,learning,display_response,ck8nJhliYyQyosXmqY3EVcIIeUH2,ck8nJhliYyQyosXmqY3EVcIIeUH2,,,,,,,,,,,,,,,,,chosen stimuli: images/choice_trial_7.png,,,,,59a456d1ec2f75000124f081,09:12:38,27/02/2024
html-keyboard-response,125,239670,0.0-53.0-2.0,,,,delaylearn,learning,feedback_duration_window,ck8nJhliYyQyosXmqY3EVcIIeUH2,ck8nJhliYyQyosXmqY3EVcIIeUH2,,,,,,,,,,,,,,,,,,750.0,,,,59a456d1ec2f75000124f081,09:12:38,27/02/2024
html-keyboard-response,126,241181,0.0-53.0-3.0,,<div style='margin:auto;width: auto; font-size: 150%'><span style='font-weight: bold; font-size: 100px; color: green;'>+10 points!</span><br><br></div>,,delaylearn,learning,feedback_image_window,ck8nJhliYyQyosXmqY3EVcIIeUH2,ck8nJhliYyQyosXmqY3EVcIIeUH2,,,,,,,,,,,,,,,,,,,,,,59a456d1ec2f75000124f081,09:12:38,27/02/2024
html-keyboard-response,127,243192,0.0-54.0,,"<div style=""font-size:100px;"">+</div>",,delaylearn,learning,ITI,ck8nJhliYyQyosXmqY3EVcIIeUH2,ck8nJhliYyQyosXmqY3EVcIIeUH2,,,,,,,,,,,,,,,,,,,2003.0,,,59a456d1ec2f75000124f081,09:12:38,27/02/2024
html-keyboard-response,128,244302,0.0-55.0-0.0,1108.800000000745,"<div style=""display: flex; flex-direction: column; align-items: center; margin-top: -40px;""><img src=""images/pattern_3.png"" style=""width: 234px; height: 230px; margin-top: -50px;""><div style=""display: flex; justify-content: space-between; margin-top: 33px;""><img src=""images/choice_trial_2.png"" style=""width: 408px; height: 417px; margin-right: 200px;""><img src=""images/choice_trial_16.png"" style=""width: 408px; height: 417px;""></div></div>",j,delaylearn,learning,trial,ck8nJhliYyQyosXmqY3EVcIIeUH2,ck8nJhliYyQyosXmqY3EVcIIeUH2,5.0,images/choice_trial_2.png,images/choice_trial_16.png,images/pattern_3.png,j,j,7000.0,2.0,16.0,2.0,1.0,24.0,1.0,1.0,16.0,160.0,,,,,,59a456d1ec2f75000124f081,09:12:38,27/02/2024
html-keyboard-response,129,245319,0.0-55.0-1.0,,"<div style=""display: flex; flex-direction: column; align-items: center; margin-top: -40px;""><img src=""images/pattern_3.png"" style=""width: 234px; height: 230px; margin-top: -50px;""><div style=""display: flex; justify-content: space-between; margin-top: 33px;""><img src=""images/choice_trial_16.png"" style=""width: 408px; height: 417px; margin-left:608px;""></div></div>",,delaylearn,learning,display_response,ck8nJhliYyQyosXmqY3EVcIIeUH2,ck8nJhliYyQyosXmqY3EVcIIeUH2,,,,,,,,,,,,,,,,,chosen stimuli: images/choice_trial_16.png,,,,,59a456d1ec2f75000124f081,09:12:38,27/02/2024
html-keyboard-response,130,252337,0.0-55.0-2.0,,,,delaylearn,learning,feedback_duration_window,ck8nJhliYyQyosXmqY3EVcIIeUH2,ck8nJhliYyQyosXmqY3EVcIIeUH2,,,,,,,,,,,,,,,,,,7000.0,,,,59a456d1ec2f75000124f081,09:12:38,27/02/2024
html-keyboard-response,131,253841,0.0-55.0-3.0,,<div style='margin:auto;width: auto; font-size: 150%'><span style='font-weight: bold; font-size: 100px; color: green;'>+10 points!</span><br><br></div>,,delaylearn,learning,feedback_image_window,ck8nJhliYyQyosXmqY3EVcIIeUH2,ck8nJhliYyQyosXmqY3EVcIIeUH2,,,,,,,,,,,,,,,,,,,,,,59a456d1ec2f75000124f081,09:12:38,27/02/2024
lmdlab-html-vas-response,132,260652,0.0-56.0-0.0,5300.0,*How <b><u>confident</u></b> are you feeling about your answers at this moment?*,0.23148148148148148,rewlearn,rate_confidence,,ck8nJhliYyQyosXmqY3EVcIIeUH2,ck8nJhliYyQyosXmqY3EVcIIeUH2,,,,,,,,,,,,,,,,,,,,"['No confidence', 'Complete confidence']",,59a456d1ec2f75000124f081,09:12:38,27/02/2024
lmdlab-rest-trial-limit,133,267234,0.0-56.0-1.0,5075.200000001118,"<div style=""font-size:40px;""><b>Please take a break!</b><br><br><br><br><p>Great work: you earned undefined points.<br><br><br><p>You have completed part(s) 1 of 6.<br><br><br><br>When you are ready to continue<br><br><br>please click the button.</p><br><br>",0,delaylearn,learning,break,ck8nJhliYyQyosXmqY3EVcIIeUH2,ck8nJhliYyQyosXmqY3EVcIIeUH2,,,,,,,,,,,,,,,,,,,,,0.0,59a456d1ec2f75000124f081,09:12:38,27/02/2024
html-keyboard-response,134,270241,0.0-56.0-2.0,,"<div style=""font-size:100px;"">+</div>",,delaylearn,learning,pre_fixation,ck8nJhliYyQyosXmqY3EVcIIeUH2,,,,,,,,,,,,,,,,,,,,,,,59a456d1ec2f75000124f081,09:12:38,27/02/2024
lmdlab-html-vas-response,135,274781,0.0-56.0-3.0-0.0,3520.0,How happy are you right now?,0.6157407407407407,delaylearn,learning,mood_baseline,ck8nJhliYyQyosXmqY3EVcIIeUH2,ck8nJhliYyQyosXmqY3EVcIIeUH2,,,,,,,,,,,,,,,,,,,,"['Very unhappy', 'Very happy']",,59a456d1ec2f75000124f081,09:12:38,27/02/2024
html-keyboard-response,136,276295,0.0-56.0-3.0-1.0,,,,,,mood_baseline_fixation,ck8nJhliYyQyosXmqY3EVcIIeUH2,,,,,,,,,,,,,,,,,,,,,,,59a456d1ec2f75000124f081,09:12:38,27/02/2024
html-keyboard-response,137,278517,0.0-57.0,,"<div style=""font-size:100px;"">+</div>",,delaylearn,learning,ITI,ck8nJhliYyQyosXmqY3EVcIIeUH2,ck8nJhliYyQyosXmqY3EVcIIeUH2,,,,,,,,,,,,,,,,,,,2210.0,,,59a456d1ec2f75000124f081,09:12:38,27/02/2024
html-keyboard-response,138,279974,0.0-58.0-0.0,1456.2999999988824,"<div style=""display: flex; flex-direction: column; align-items: center; margin-top: -40px;""><img src=""images/pattern_7.png"" style=""width: 234px; height: 230px; margin-top: -50px;""><div style=""display: flex; justify-content: space-between; margin-top: 33px;""><img src=""images/choice_trial_10.png"" style=""width: 408px; height: 417px; margin-right: 200px;""><img src=""images/choice_trial_8.png"" style=""width: 408px; height: 417px;""></div></div>",j,delaylearn,learning,trial,ck8nJhliYyQyosXmqY3EVcIIeUH2,ck8nJhliYyQyosXmqY3EVcIIeUH2,5.0,images/choice_trial_10.png,images/choice_trial_8.png,images/pattern_7.png,j,j,750.0,10.0,8.0,6.0,1.0,25.0,1.0,1.0,8.0,170.0,,,,,,59a456d1ec2f75000124f081,09:12:38,27/02/2024
html-keyboard-response,139,280985,0.0-58.0-1.0,,"<div style=""display: flex; flex-direction: column; align-items: center; margin-top: -40px;""><img src=""images/pattern_7.png"" style=""width: 234px; height: 230px; margin-top: -50px;""><div style=""display: flex; justify-content: space-between; margin-top: 33px;""><img src=""images/choice_trial_8.png"" style=""width: 408px; height: 417px; margin-left:608px;""></div></div>",,delaylearn,learning,display_response,ck8nJhliYyQyosXmqY3EVcIIeUH2,ck8nJhliYyQyosXmqY3EVcIIeUH2,,,,,,,,,,,,,,,,,chosen stimuli: images/choice_trial_8.png,,,,,59a456d1ec2f75000124f081,09:12:38,27/02/2024
html-keyboard-response,140,281740,0.0-58.0-2.0,,,,delaylearn,learning,feedback_duration_window,ck8nJhliYyQyosXmqY3EVcIIeUH2,ck8nJhliYyQyosXmqY3EVcIIeUH2,,,,,,,,,,,,,,,,,,750.0,,,,59a456d1ec2f75000124f081,09:12:38,27/02/2024
html-keyboard-response,141,283244,0.0-58.0-3.0,,<div style='margin:auto;width: auto; font-size: 150%'><span style='font-weight: bold; font-size: 100px; color: green;'>+10 points!</span><br><br></div>,,delaylearn,learning,feedback_image_window,ck8nJhliYyQyosXmqY3EVcIIeUH2,ck8nJhliYyQyosXmqY3EVcIIeUH2,,,,,,,,,,,,,,,,,,,,,,59a456d1ec2f75000124f081,09:12:38,27/02/2024
html-keyboard-response,142,283746,0.0-59.0-0.0,,,,,,mood_trial_fixation,ck8nJhliYyQyosXmqY3EVcIIeUH2,,,,,,,,,,,,,,,,,,,,,,,59a456d1ec2f75000124f081,09:12:38,27/02/2024
lmdlab-html-vas-response,143,286679,0.0-59.0-1.0,1929.0,How happy are you right now?,0.6504629629629629,delaylearn,learning,mood_trial,ck8nJhliYyQyosXmqY3EVcIIeUH2,ck8nJhliYyQyosXmqY3EVcIIeUH2,,,,,,,,,,,,,,,,,,,,"['Very unhappy', 'Very happy']",,59a456d1ec2f75000124f081,09:12:38,27/02/2024
html-keyboard-response,144,289096,0.0-60.0,,"<div style=""font-size:100px;"">+</div>",,delaylearn,learning,ITI,ck8nJhliYyQyosXmqY3EVcIIeUH2,ck8nJhliYyQyosXmqY3EVcIIeUH2,,,,,,,,,,,,,,,,,,,2406.0,,,59a456d1ec2f75000124f081,09:12:38,27/02/2024
html-keyboard-response,145,290454,0.0-61.0-0.0,1356.800000000745,"<div style=""display: flex; flex-direction: column; align-items: center; margin-top: -40px;""><img src=""images/pattern_1.png"" style=""width: 234px; height: 230px; margin-top: -50px;""><div style=""display: flex; justify-content: space-between; margin-top: 33px;""><img src=""images/choice_trial_6.png"" style=""width: 408px; height: 417px; margin-right: 200px;""><img src=""images/choice_trial_15.png"" style=""width: 408px; height: 417px;""></div></div>",j,delaylearn,learning,trial,ck8nJhliYyQyosXmqY3EVcIIeUH2,ck8nJhliYyQyosXmqY3EVcIIeUH2,5.0,images/choice_trial_6.png,images/choice_trial_15.png,images/pattern_1.png,f,f,7000.0,6.0,15.0,1.0,0.0,26.0,0.0,0.0,15.0,170.0,,,,,,59a456d1ec2f75000124f081,09:12:38,27/02/2024
html-keyboard-response,146,291467,0.0-61.0-1.0,,"<div style=""display: flex; flex-direction: column; align-items: center; margin-top: -40px;""><img src=""images/pattern_1.png"" style=""width: 234px; height: 230px; margin-top: -50px;""><div style=""display: flex; justify-content: space-between; margin-top: 33px;""><img src=""images/choice_trial_15.png"" style=""width: 408px; height: 417px; margin-left:608px;""></div></div>",,delaylearn,learning,display_response,ck8nJhliYyQyosXmqY3EVcIIeUH2,ck8nJhliYyQyosXmqY3EVcIIeUH2,,,,,,,,,,,,,,,,,chosen stimuli: images/choice_trial_15.png,,,,,59a456d1ec2f75000124f081,09:12:38,27/02/2024
html-keyboard-response,147,298471,0.0-61.0-2.0,,,,delaylearn,learning,feedback_duration_window,ck8nJhliYyQyosXmqY3EVcIIeUH2,ck8nJhliYyQyosXmqY3EVcIIeUH2,,,,,,,,,,,,,,,,,,7000.0,,,,59a456d1ec2f75000124f081,09:12:38,27/02/2024
html-keyboard-response,148,299975,0.0-61.0-3.0,,<div style='margin:auto;width: auto; font-size: 150%'><span style='font-weight: bold; font-size: 100px; color: red;'>0 points!</span><br><br></div>,,delaylearn,learning,feedback_image_window,ck8nJhliYyQyosXmqY3EVcIIeUH2,ck8nJhliYyQyosXmqY3EVcIIeUH2,,,,,,,,,,,,,,,,,,,,,,59a456d1ec2f75000124f081,09:12:38,27/02/2024
html-keyboard-response,149,301564,0.0-62.0,,"<div style=""font-size:100px;"">+</div>",,delaylearn,learning,ITI,ck8nJhliYyQyosXmqY3EVcIIeUH2,ck8nJhliYyQyosXmqY3EVcIIeUH2,,,,,,,,,,,,,,,,,,,1578.0,,,59a456d1ec2f75000124f081,09:12:38,27/02/2024
html-keyboard-response,150,303127,0.0-63.0-0.0,1561.699999999255,"<div style=""display: flex; flex-direction: column; align-items: center; margin-top: -40px;""><img src=""images/pattern_5.png"" style=""width: 234px; height: 230px; margin-top: -50px;""><div style=""display: flex; justify-content: space-between; margin-top: 33px;""><img src=""images/choice_trial_7.png"" style=""width: 408px; height: 417px; margin-right: 200px;""><img src=""images/choice_trial_13.png"" style=""width: 408px; height: 417px;""></div></div>",f,delaylearn,learning,trial,ck8nJhliYyQyosXmqY3EVcIIeUH2,ck8nJhliYyQyosXmqY3EVcIIeUH2,5.0,images/choice_trial_7.png,images/choice_trial_13.png,images/pattern_5.png,f,f,750.0,7.0,13.0,4.0,0.0,27.0,1.0,1.0,7.0,180.0,,,,,,59a456d1ec2f75000124f081,09:12:38,27/02/2024
html-keyboard-response,151,304133,0.0-63.0-1.0,,"<div style=""display: flex; flex-direction: column; align-items: center; margin-top: -40px;""><img src=""images/pattern_5.png"" style=""width: 234px; height: 230px; margin-top: -50px;""><div style=""display: flex; justify-content: space-between; margin-top: 33px;""><img src=""images/choice_trial_7.png"" style=""width: 408px; height: 417px; margin-right: 608px;""></div></div>",,delaylearn,learning,display_response,ck8nJhliYyQyosXmqY3EVcIIeUH2,ck8nJhliYyQyosXmqY3EVcIIeUH2,,,,,,,,,,,,,,,,,chosen stimuli: images/choice_trial_7.png,,,,,59a456d1ec2f75000124f081,09:12:38,27/02/2024
html-keyboard-response,152,304889,0.0-63.0-2.0,,,,delaylearn,learning,feedback_duration_window,ck8nJhliYyQyosXmqY3EVcIIeUH2,ck8nJhliYyQyosXmqY3EVcIIeUH2,,,,,,,,,,,,,,,,,,750.0,,,,59a456d1ec2f75000124f081,09:12:38,27/02/2024
html-keyboard-response,153,306393,0.0-63.0-3.0,,<div style='margin:auto;width: auto; font-size: 150%'><span style='font-weight: bold; font-size: 100px; color: green;'>+10 points!</span><br><br></div>,,delaylearn,learning,feedback_image_window,ck8nJhliYyQyosXmqY3EVcIIeUH2,ck8nJhliYyQyosXmqY3EVcIIeUH2,,,,,,,,,,,,,,,,,,,,,,59a456d1ec2f75000124f081,09:12:38,27/02/2024
html-keyboard-response,154,308784,0.0-64.0,,"<div style=""font-size:100px;"">+</div>",,delaylearn,learning,ITI,ck8nJhliYyQyosXmqY3EVcIIeUH2,ck8nJhliYyQyosXmqY3EVcIIeUH2,,,,,,,,,,,,,,,,,,,2386.0,,,59a456d1ec2f75000124f081,09:12:38,27/02/2024
html-keyboard-response,155,310182,0.0-65.0-0.0,1396.5,"<div style=""display: flex; flex-direction: column; align-items: center; margin-top: -40px;""><img src=""images/pattern_6.png"" style=""width: 234px; height: 230px; margin-top: -50px;""><div style=""display: flex; justify-content: space-between; margin-top: 33px;""><img src=""images/choice_trial_9.png"" style=""width: 408px; height: 417px; margin-right: 200px;""><img src=""images/choice_trial_14.png"" style=""width: 408px; height: 417px;""></div></div>",j,delaylearn,learning,trial,ck8nJhliYyQyosXmqY3EVcIIeUH2,ck8nJhliYyQyosXmqY3EVcIIeUH2,5.0,images/choice_trial_9.png,images/choice_trial_14.png,images/pattern_6.png,j,j,750.0,9.0,14.0,5.0,1.0,28.0,1.0,1.0,14.0,190.0,,,,,,59a456d1ec2f75000124f081,09:12:38,27/02/2024
html-keyboard-response,156,311191,0.0-65.0-1.0,,"<div style=""display: flex; flex-direction: column; align-items: center; margin-top: -40px;""><img src=""images/pattern_6.png"" style=""width: 234px; height: 230px; margin-top: -50px;""><div style=""display: flex; justify-content: space-between; margin-top: 33px;""><img src=""images/choice_trial_14.png"" style=""width: 408px; height: 417px; margin-left:608px;""></div></div>",,delaylearn,learning,display_response,ck8nJhliYyQyosXmqY3EVcIIeUH2,ck8nJhliYyQyosXmqY3EVcIIeUH2,,,,,,,,,,,,,,,,,chosen stimuli: images/choice_trial_14.png,,,,,59a456d1ec2f75000124f081,09:12:38,27/02/2024
html-keyboard-response,157,311955,0.0-65.0-2.0,,,,delaylearn,learning,feedback_duration_window,ck8nJhliYyQyosXmqY3EVcIIeUH2,ck8nJhliYyQyosXmqY3EVcIIeUH2,,,,,,,,,,,,,,,,,,750.0,,,,59a456d1ec2f75000124f081,09:12:38,27/02/2024
html-keyboard-response,158,313459,0.0-65.0-3.0,,<div style='margin:auto;width: auto; font-size: 150%'><span style='font-weight: bold; font-size: 100px; color: green;'>+10 points!</span><br><br></div>,,delaylearn,learning,feedback_image_window,ck8nJhliYyQyosXmqY3EVcIIeUH2,ck8nJhliYyQyosXmqY3EVcIIeUH2,,,,,,,,,,,,,,,,,,,,,,59a456d1ec2f75000124f081,09:12:38,27/02/2024
html-keyboard-response,159,313960,0.0-66.0-0.0,,,,,,mood_trial_fixation,ck8nJhliYyQyosXmqY3EVcIIeUH2,,,,,,,,,,,,,,,,,,,,,,,59a456d1ec2f75000124f081,09:12:38,27/02/2024
lmdlab-html-vas-response,160,317251,0.0-66.0-1.0,2286.0,How happy are you right now?,0.7013888888888888,delaylearn,learning,mood_trial,ck8nJhliYyQyosXmqY3EVcIIeUH2,ck8nJhliYyQyosXmqY3EVcIIeUH2,,,,,,,,,,,,,,,,,,,,"['Very unhappy', 'Very happy']",,59a456d1ec2f75000124f081,09:12:38,27/02/2024
html-keyboard-response,161,318950,0.0-67.0,,"<div style=""font-size:100px;"">+</div>",,delaylearn,learning,ITI,ck8nJhliYyQyosXmqY3EVcIIeUH2,ck8nJhliYyQyosXmqY3EVcIIeUH2,,,,,,,,,,,,,,,,,,,1684.0,,,59a456d1ec2f75000124f081,09:12:38,27/02/2024
html-keyboard-response,162,320094,0.0-68.0-0.0,1143.0999999996275,"<div style=""display: flex; flex-direction: column; align-items: center; margin-top: -40px;""><img src=""images/pattern_4.png"" style=""width: 234px; height: 230px; margin-top: -50px;""><div style=""display: flex; justify-content: space-between; margin-top: 33px;""><img src=""images/choice_trial_4.png"" style=""width: 408px; height: 417px; margin-right: 200px;""><img src=""images/choice_trial_11.png"" style=""width: 408px; height: 417px;""></div></div>",j,delaylearn,learning,trial,ck8nJhliYyQyosXmqY3EVcIIeUH2,ck8nJhliYyQyosXmqY3EVcIIeUH2,5.0,images/choice_trial_4.png,images/choice_trial_11.png,images/pattern_4.png,j,j,7000.0,4.0,11.0,3.0,1.0,29.0,1.0,1.0,11.0,200.0,,,,,,59a456d1ec2f75000124f081,09:12:38,27/02/2024
html-keyboard-response,163,321110,0.0-68.0-1.0,,"<div style=""display: flex; flex-direction: column; align-items: center; margin-top: -40px;""><img src=""images/pattern_4.png"" style=""width: 234px; height: 230px; margin-top: -50px;""><div style=""display: flex; justify-content: space-between; margin-top: 33px;""><img src=""images/choice_trial_11.png"" style=""width: 408px; height: 417px; margin-left:608px;""></div></div>",,delaylearn,learning,display_response,ck8nJhliYyQyosXmqY3EVcIIeUH2,ck8nJhliYyQyosXmqY3EVcIIeUH2,,,,,,,,,,,,,,,,,chosen stimuli: images/choice_trial_11.png,,,,,59a456d1ec2f75000124f081,09:12:38,27/02/2024
html-keyboard-response,164,328121,0.0-68.0-2.0,,,,delaylearn,learning,feedback_duration_window,ck8nJhliYyQyosXmqY3EVcIIeUH2,ck8nJhliYyQyosXmqY3EVcIIeUH2,,,,,,,,,,,,,,,,,,7000.0,,,,59a456d1ec2f75000124f081,09:12:38,27/02/2024
html-keyboard-response,165,329626,0.0-68.0-3.0,,<div style='margin:auto;width: auto; font-size: 150%'><span style='font-weight: bold; font-size: 100px; color: green;'>+10 points!</span><br><br></div>,,delaylearn,learning,feedback_image_window,ck8nJhliYyQyosXmqY3EVcIIeUH2,ck8nJhliYyQyosXmqY3EVcIIeUH2,,,,,,,,,,,,,,,,,,,,,,59a456d1ec2f75000124f081,09:12:38,27/02/2024
html-keyboard-response,166,331963,0.0-69.0,,"<div style=""font-size:100px;"">+</div>",,delaylearn,learning,ITI,ck8nJhliYyQyosXmqY3EVcIIeUH2,ck8nJhliYyQyosXmqY3EVcIIeUH2,,,,,,,,,,,,,,,,,,,2321.0,,,59a456d1ec2f75000124f081,09:12:38,27/02/2024
html-keyboard-response,167,333015,0.0-70.0-0.0,1050.5,"<div style=""display: flex; flex-direction: column; align-items: center; margin-top: -40px;""><img src=""images/pattern_3.png"" style=""width: 234px; height: 230px; margin-top: -50px;""><div style=""display: flex; justify-content: space-between; margin-top: 33px;""><img src=""images/choice_trial_2.png"" style=""width: 408px; height: 417px; margin-right: 200px;""><img src=""images/choice_trial_16.png"" style=""width: 408px; height: 417px;""></div></div>",j,delaylearn,learning,trial,ck8nJhliYyQyosXmqY3EVcIIeUH2,ck8nJhliYyQyosXmqY3EVcIIeUH2,5.0,images/choice_trial_2.png,images/choice_trial_16.png,images/pattern_3.png,j,j,7000.0,2.0,16.0,2.0,1.0,30.0,1.0,1.0,16.0,210.0,,,,,,59a456d1ec2f75000124f081,09:12:38,27/02/2024
html-keyboard-response,168,334036,0.0-70.0-1.0,,"<div style=""display: flex; flex-direction: column; align-items: center; margin-top: -40px;""><img src=""images/pattern_3.png"" style=""width: 234px; height: 230px; margin-top: -50px;""><div style=""display: flex; justify-content: space-between; margin-top: 33px;""><img src=""images/choice_trial_16.png"" style=""width: 408px; height: 417px; margin-left:608px;""></div></div>",,delaylearn,learning,display_response,ck8nJhliYyQyosXmqY3EVcIIeUH2,ck8nJhliYyQyosXmqY3EVcIIeUH2,,,,,,,,,,,,,,,,,chosen stimuli: images/choice_trial_16.png,,,,,59a456d1ec2f75000124f081,09:12:38,27/02/2024
html-keyboard-response,169,341055,0.0-70.0-2.0,,,,delaylearn,learning,feedback_duration_window,ck8nJhliYyQyosXmqY3EVcIIeUH2,ck8nJhliYyQyosXmqY3EVcIIeUH2,,,,,,,,,,,,,,,,,,7000.0,,,,59a456d1ec2f75000124f081,09:12:38,27/02/2024
html-keyboard-response,170,342560,0.0-70.0-3.0,,<div style='margin:auto;width: auto; font-size: 150%'><span style='font-weight: bold; font-size: 100px; color: green;'>+10 points!</span><br><br></div>,,delaylearn,learning,feedback_image_window,ck8nJhliYyQyosXmqY3EVcIIeUH2,ck8nJhliYyQyosXmqY3EVcIIeUH2,,,,,,,,,,,,,,,,,,,,,,59a456d1ec2f75000124f081,09:12:38,27/02/2024
html-keyboard-response,171,344142,0.0-71.0,,"<div style=""font-size:100px;"">+</div>",,delaylearn,learning,ITI,ck8nJhliYyQyosXmqY3EVcIIeUH2,ck8nJhliYyQyosXmqY3EVcIIeUH2,,,,,,,,,,,,,,,,,,,1569.0,,,59a456d1ec2f75000124f081,09:12:38,27/02/2024
html-keyboard-response,172,345047,0.0-72.0-0.0,903.8000000007451,"<div style=""display: flex; flex-direction: column; align-items: center; margin-top: -40px;""><img src=""images/pattern_5.png"" style=""width: 234px; height: 230px; margin-top: -50px;""><div style=""display: flex; justify-content: space-between; margin-top: 33px;""><img src=""images/choice_trial_7.png"" style=""width: 408px; height: 417px; margin-right: 200px;""><img src=""images/choice_trial_13.png"" style=""width: 408px; height: 417px;""></div></div>",f,delaylearn,learning,trial,ck8nJhliYyQyosXmqY3EVcIIeUH2,ck8nJhliYyQyosXmqY3EVcIIeUH2,5.0,images/choice_trial_7.png,images/choice_trial_13.png,images/pattern_5.png,j,f,750.0,7.0,13.0,4.0,0.0,31.0,1.0,0.0,7.0,210.0,,,,,,59a456d1ec2f75000124f081,09:12:38,27/02/2024
html-keyboard-response,173,346069,0.0-72.0-1.0,,"<div style=""display: flex; flex-direction: column; align-items: center; margin-top: -40px;""><img src=""images/pattern_5.png"" style=""width: 234px; height: 230px; margin-top: -50px;""><div style=""display: flex; justify-content: space-between; margin-top: 33px;""><img src=""images/choice_trial_7.png"" style=""width: 408px; height: 417px; margin-right: 608px;""></div></div>",,delaylearn,learning,display_response,ck8nJhliYyQyosXmqY3EVcIIeUH2,ck8nJhliYyQyosXmqY3EVcIIeUH2,,,,,,,,,,,,,,,,,chosen stimuli: images/choice_trial_7.png,,,,,59a456d1ec2f75000124f081,09:12:38,27/02/2024
html-keyboard-response,174,346833,0.0-72.0-2.0,,,,delaylearn,learning,feedback_duration_window,ck8nJhliYyQyosXmqY3EVcIIeUH2,ck8nJhliYyQyosXmqY3EVcIIeUH2,,,,,,,,,,,,,,,,,,750.0,,,,59a456d1ec2f75000124f081,09:12:38,27/02/2024
html-keyboard-response,175,348338,0.0-72.0-3.0,,<div style='margin:auto;width: auto; font-size: 150%'><span style='font-weight: bold; font-size: 100px; color: red;'>0 points!</span><br><br></div>,,delaylearn,learning,feedback_image_window,ck8nJhliYyQyosXmqY3EVcIIeUH2,ck8nJhliYyQyosXmqY3EVcIIeUH2,,,,,,,,,,,,,,,,,,,,,,59a456d1ec2f75000124f081,09:12:38,27/02/2024
html-keyboard-response,176,350644,0.0-73.0,,"<div style=""font-size:100px;"">+</div>",,delaylearn,learning,ITI,ck8nJhliYyQyosXmqY3EVcIIeUH2,ck8nJhliYyQyosXmqY3EVcIIeUH2,,,,,,,,,,,,,,,,,,,2297.0,,,59a456d1ec2f75000124f081,09:12:38,27/02/2024
html-keyboard-response,177,352183,0.0-74.0-0.0,1537.199999999255,"<div style=""display: flex; flex-direction: column; align-items: center; margin-top: -40px;""><img src=""images/pattern_1.png"" style=""width: 234px; height: 230px; margin-top: -50px;""><div style=""display: flex; justify-content: space-between; margin-top: 33px;""><img src=""images/choice_trial_6.png"" style=""width: 408px; height: 417px; margin-right: 200px;""><img src=""images/choice_trial_15.png"" style=""width: 408px; height: 417px;""></div></div>",j,delaylearn,learning,trial,ck8nJhliYyQyosXmqY3EVcIIeUH2,ck8nJhliYyQyosXmqY3EVcIIeUH2,5.0,images/choice_trial_6.png,images/choice_trial_15.png,images/pattern_1.png,f,f,7000.0,6.0,15.0,1.0,0.0,32.0,0.0,0.0,15.0,210.0,,,,,,59a456d1ec2f75000124f081,09:12:38,27/02/2024
html-keyboard-response,178,353188,0.0-74.0-1.0,,"<div style=""display: flex; flex-direction: column; align-items: center; margin-top: -40px;""><img src=""images/pattern_1.png"" style=""width: 234px; height: 230px; margin-top: -50px;""><div style=""display: flex; justify-content: space-between; margin-top: 33px;""><img src=""images/choice_trial_15.png"" style=""width: 408px; height: 417px; margin-left:608px;""></div></div>",,delaylearn,learning,display_response,ck8nJhliYyQyosXmqY3EVcIIeUH2,ck8nJhliYyQyosXmqY3EVcIIeUH2,,,,,,,,,,,,,,,,,chosen stimuli: images/choice_trial_15.png,,,,,59a456d1ec2f75000124f081,09:12:38,27/02/2024
html-keyboard-response,179,360189,0.0-74.0-2.0,,,,delaylearn,learning,feedback_duration_window,ck8nJhliYyQyosXmqY3EVcIIeUH2,ck8nJhliYyQyosXmqY3EVcIIeUH2,,,,,,,,,,,,,,,,,,7000.0,,,,59a456d1ec2f75000124f081,09:12:38,27/02/2024
html-keyboard-response,180,361709,0.0-74.0-3.0,,<div style='margin:auto;width: auto; font-size: 150%'><span style='font-weight: bold; font-size: 100px; color: red;'>0 points!</span><br><br></div>,,delaylearn,learning,feedback_image_window,ck8nJhliYyQyosXmqY3EVcIIeUH2,ck8nJhliYyQyosXmqY3EVcIIeUH2,,,,,,,,,,,,,,,,,,,,,,59a456d1ec2f75000124f081,09:12:38,27/02/2024
html-keyboard-response,181,362211,0.0-75.0-0.0,,,,,,mood_trial_fixation,ck8nJhliYyQyosXmqY3EVcIIeUH2,,,,,,,,,,,,,,,,,,,,,,,59a456d1ec2f75000124f081,09:12:38,27/02/2024
lmdlab-html-vas-response,182,365117,0.0-75.0-1.0,1903.0,How happy are you right now?,0.4305555555555556,delaylearn,learning,mood_trial,ck8nJhliYyQyosXmqY3EVcIIeUH2,ck8nJhliYyQyosXmqY3EVcIIeUH2,,,,,,,,,,,,,,,,,,,,"['Very unhappy', 'Very happy']",,59a456d1ec2f75000124f081,09:12:38,27/02/2024
html-keyboard-response,183,367621,0.0-76.0,,"<div style=""font-size:100px;"">+</div>",,delaylearn,learning,ITI,ck8nJhliYyQyosXmqY3EVcIIeUH2,ck8nJhliYyQyosXmqY3EVcIIeUH2,,,,,,,,,,,,,,,,,,,2498.0,,,59a456d1ec2f75000124f081,09:12:38,27/02/2024
html-keyboard-response,184,369423,0.0-77.0-0.0,1800.7999999988824,"<div style=""display: flex; flex-direction: column; align-items: center; margin-top: -40px;""><img src=""images/pattern_6.png"" style=""width: 234px; height: 230px; margin-top: -50px;""><div style=""display: flex; justify-content: space-between; margin-top: 33px;""><img src=""images/choice_trial_14.png"" style=""width: 408px; height: 417px; margin-right: 200px;""><img src=""images/choice_trial_9.png"" style=""width: 408px; height: 417px;""></div></div>",f,delaylearn,learning,trial,ck8nJhliYyQyosXmqY3EVcIIeUH2,ck8nJhliYyQyosXmqY3EVcIIeUH2,5.0,images/choice_trial_14.png,images/choice_trial_9.png,images/pattern_6.png,j,f,750.0,14.0,9.0,5.0,0.0,33.0,1.0,0.0,14.0,210.0,,,,,,59a456d1ec2f75000124f081,09:12:38,27/02/2024
html-keyboard-response,185,370428,0.0-77.0-1.0,,"<div style=""display: flex; flex-direction: column; align-items: center; margin-top: -40px;""><img src=""images/pattern_6.png"" style=""width: 234px; height: 230px; margin-top: -50px;""><div style=""display: flex; justify-content: space-between; margin-top: 33px;""><img src=""images/choice_trial_14.png"" style=""width: 408px; height: 417px; margin-right: 608px;""></div></div>",,delaylearn,learning,display_response,ck8nJhliYyQyosXmqY3EVcIIeUH2,ck8nJhliYyQyosXmqY3EVcIIeUH2,,,,,,,,,,,,,,,,,chosen stimuli: images/choice_trial_14.png,,,,,59a456d1ec2f75000124f081,09:12:38,27/02/2024
html-keyboard-response,186,371192,0.0-77.0-2.0,,,,delaylearn,learning,feedback_duration_window,ck8nJhliYyQyosXmqY3EVcIIeUH2,ck8nJhliYyQyosXmqY3EVcIIeUH2,,,,,,,,,,,,,,,,,,750.0,,,,59a456d1ec2f75000124f081,09:12:38,27/02/2024
html-keyboard-response,187,372696,0.0-77.0-3.0,,<div style='margin:auto;width: auto; font-size: 150%'><span style='font-weight: bold; font-size: 100px; color: red;'>0 points!</span><br><br></div>,,delaylearn,learning,feedback_image_window,ck8nJhliYyQyosXmqY3EVcIIeUH2,ck8nJhliYyQyosXmqY3EVcIIeUH2,,,,,,,,,,,,,,,,,,,,,,59a456d1ec2f75000124f081,09:12:38,27/02/2024
html-keyboard-response,188,375139,0.0-78.0,,"<div style=""font-size:100px;"">+</div>",,delaylearn,learning,ITI,ck8nJhliYyQyosXmqY3EVcIIeUH2,ck8nJhliYyQyosXmqY3EVcIIeUH2,,,,,,,,,,,,,,,,,,,2434.0,,,59a456d1ec2f75000124f081,09:12:38,27/02/2024
html-keyboard-response,189,376183,0.0-79.0-0.0,1042.9000000003725,"<div style=""display: flex; flex-direction: column; align-items: center; margin-top: -40px;""><img src=""images/pattern_3.png"" style=""width: 234px; height: 230px; margin-top: -50px;""><div style=""display: flex; justify-content: space-between; margin-top: 33px;""><img src=""images/choice_trial_2.png"" style=""width: 408px; height: 417px; margin-right: 200px;""><img src=""images/choice_trial_16.png"" style=""width: 408px; height: 417px;""></div></div>",j,delaylearn,learning,trial,ck8nJhliYyQyosXmqY3EVcIIeUH2,ck8nJhliYyQyosXmqY3EVcIIeUH2,5.0,images/choice_trial_2.png,images/choice_trial_16.png,images/pattern_3.png,j,j,7000.0,2.0,16.0,2.0,1.0,34.0,1.0,1.0,16.0,220.0,,,,,,59a456d1ec2f75000124f081,09:12:38,27/02/2024
html-keyboard-response,190,377189,0.0-79.0-1.0,,"<div style=""display: flex; flex-direction: column; align-items: center; margin-top: -40px;""><img src=""images/pattern_3.png"" style=""width: 234px; height: 230px; margin-top: -50px;""><div style=""display: flex; justify-content: space-between; margin-top: 33px;""><img src=""images/choice_trial_16.png"" style=""width: 408px; height: 417px; margin-left:608px;""></div></div>",,delaylearn,learning,display_response,ck8nJhliYyQyosXmqY3EVcIIeUH2,ck8nJhliYyQyosXmqY3EVcIIeUH2,,,,,,,,,,,,,,,,,chosen stimuli: images/choice_trial_16.png,,,,,59a456d1ec2f75000124f081,09:12:38,27/02/2024
html-keyboard-response,191,384205,0.0-79.0-2.0,,,,delaylearn,learning,feedback_duration_window,ck8nJhliYyQyosXmqY3EVcIIeUH2,ck8nJhliYyQyosXmqY3EVcIIeUH2,,,,,,,,,,,,,,,,,,7000.0,,,,59a456d1ec2f75000124f081,09:12:38,27/02/2024
html-keyboard-response,192,385709,0.0-79.0-3.0,,<div style='margin:auto;width: auto; font-size: 150%'><span style='font-weight: bold; font-size: 100px; color: green;'>+10 points!</span><br><br></div>,,delaylearn,learning,feedback_image_window,ck8nJhliYyQyosXmqY3EVcIIeUH2,ck8nJhliYyQyosXmqY3EVcIIeUH2,,,,,,,,,,,,,,,,,,,,,,59a456d1ec2f75000124f081,09:12:38,27/02/2024
html-keyboard-response,193,387312,0.0-80.0,,"<div style=""font-size:100px;"">+</div>",,delaylearn,learning,ITI,ck8nJhliYyQyosXmqY3EVcIIeUH2,ck8nJhliYyQyosXmqY3EVcIIeUH2,,,,,,,,,,,,,,,,,,,1588.0,,,59a456d1ec2f75000124f081,09:12:38,27/02/2024
html-keyboard-response,194,388055,0.0-81.0-0.0,742.1000000014901,"<div style=""display: flex; flex-direction: column; align-items: center; margin-top: -40px;""><img src=""images/pattern_4.png"" style=""width: 234px; height: 230px; margin-top: -50px;""><div style=""display: flex; justify-content: space-between; margin-top: 33px;""><img src=""images/choice_trial_4.png"" style=""width: 408px; height: 417px; margin-right: 200px;""><img src=""images/choice_trial_11.png"" style=""width: 408px; height: 417px;""></div></div>",j,delaylearn,learning,trial,ck8nJhliYyQyosXmqY3EVcIIeUH2,ck8nJhliYyQyosXmqY3EVcIIeUH2,5.0,images/choice_trial_4.png,images/choice_trial_11.png,images/pattern_4.png,f,j,7000.0,4.0,11.0,3.0,1.0,35.0,1.0,0.0,11.0,220.0,,,,,,59a456d1ec2f75000124f081,09:12:38,27/02/2024
html-keyboard-response,195,389069,0.0-81.0-1.0,,"<div style=""display: flex; flex-direction: column; align-items: center; margin-top: -40px;""><img src=""images/pattern_4.png"" style=""width: 234px; height: 230px; margin-top: -50px;""><div style=""display: flex; justify-content: space-between; margin-top: 33px;""><img src=""images/choice_trial_11.png"" style=""width: 408px; height: 417px; margin-left:608px;""></div></div>",,delaylearn,learning,display_response,ck8nJhliYyQyosXmqY3EVcIIeUH2,ck8nJhliYyQyosXmqY3EVcIIeUH2,,,,,,,,,,,,,,,,,chosen stimuli: images/choice_trial_11.png,,,,,59a456d1ec2f75000124f081,09:12:38,27/02/2024
html-keyboard-response,196,396086,0.0-81.0-2.0,,,,delaylearn,learning,feedback_duration_window,ck8nJhliYyQyosXmqY3EVcIIeUH2,ck8nJhliYyQyosXmqY3EVcIIeUH2,,,,,,,,,,,,,,,,,,7000.0,,,,59a456d1ec2f75000124f081,09:12:38,27/02/2024
html-keyboard-response,197,397590,0.0-81.0-3.0,,<div style='margin:auto;width: auto; font-size: 150%'><span style='font-weight: bold; font-size: 100px; color: red;'>0 points!</span><br><br></div>,,delaylearn,learning,feedback_image_window,ck8nJhliYyQyosXmqY3EVcIIeUH2,ck8nJhliYyQyosXmqY3EVcIIeUH2,,,,,,,,,,,,,,,,,,,,,,59a456d1ec2f75000124f081,09:12:38,27/02/2024
html-keyboard-response,198,399294,0.0-82.0,,"<div style=""font-size:100px;"">+</div>",,delaylearn,learning,ITI,ck8nJhliYyQyosXmqY3EVcIIeUH2,ck8nJhliYyQyosXmqY3EVcIIeUH2,,,,,,,,,,,,,,,,,,,1689.0,,,59a456d1ec2f75000124f081,09:12:38,27/02/2024
html-keyboard-response,199,400367,0.0-83.0-0.0,1071.699999999255,"<div style=""display: flex; flex-direction: column; align-items: center; margin-top: -40px;""><img src=""images/pattern_7.png"" style=""width: 234px; height: 230px; margin-top: -50px;""><div style=""display: flex; justify-content: space-between; margin-top: 33px;""><img src=""images/choice_trial_8.png"" style=""width: 408px; height: 417px; margin-right: 200px;""><img src=""images/choice_trial_10.png"" style=""width: 408px; height: 417px;""></div></div>",f,delaylearn,learning,trial,ck8nJhliYyQyosXmqY3EVcIIeUH2,ck8nJhliYyQyosXmqY3EVcIIeUH2,5.0,images/choice_trial_8.png,images/choice_trial_10.png,images/pattern_7.png,f,f,750.0,8.0,10.0,6.0,0.0,36.0,1.0,1.0,8.0,230.0,,,,,,59a456d1ec2f75000124f081,09:12:38,27/02/2024
html-keyboard-response,200,401374,0.0-83.0-1.0,,"<div style=""display: flex; flex-direction: column; align-items: center; margin-top: -40px;""><img src=""images/pattern_7.png"" style=""width: 234px; height: 230px; margin-top: -50px;""><div style=""display: flex; justify-content: space-between; margin-top: 33px;""><img src=""images/choice_trial_8.png"" style=""width: 408px; height: 417px; margin-right: 608px;""></div></div>",,delaylearn,learning,display_response,ck8nJhliYyQyosXmqY3EVcIIeUH2,ck8nJhliYyQyosXmqY3EVcIIeUH2,,,,,,,,,,,,,,,,,chosen stimuli: images/choice_trial_8.png,,,,,59a456d1ec2f75000124f081,09:12:38,27/02/2024
html-keyboard-response,201,402132,0.0-83.0-2.0,,,,delaylearn,learning,feedback_duration_window,ck8nJhliYyQyosXmqY3EVcIIeUH2,ck8nJhliYyQyosXmqY3EVcIIeUH2,,,,,,,,,,,,,,,,,,750.0,,,,59a456d1ec2f75000124f081,09:12:38,27/02/2024
html-keyboard-response,202,403636,0.0-83.0-3.0,,<div style='margin:auto;width: auto; font-size: 150%'><span style='font-weight: bold; font-size: 100px; color: green;'>+10 points!</span><br><br></div>,,delaylearn,learning,feedback_image_window,ck8nJhliYyQyosXmqY3EVcIIeUH2,ck8nJhliYyQyosXmqY3EVcIIeUH2,,,,,,,,,,,,,,,,,,,,,,59a456d1ec2f75000124f081,09:12:38,27/02/2024
html-keyboard-response,203,405957,0.0-84.0,,"<div style=""font-size:100px;"">+</div>",,delaylearn,learning,ITI,ck8nJhliYyQyosXmqY3EVcIIeUH2,ck8nJhliYyQyosXmqY3EVcIIeUH2,,,,,,,,,,,,,,,,,,,2315.0,,,59a456d1ec2f75000124f081,09:12:38,27/02/2024
html-keyboard-response,204,407215,0.0-85.0-0.0,1256.0,"<div style=""display: flex; flex-direction: column; align-items: center; margin-top: -40px;""><img src=""images/pattern_1.png"" style=""width: 234px; height: 230px; margin-top: -50px;""><div style=""display: flex; justify-content: space-between; margin-top: 33px;""><img src=""images/choice_trial_6.png"" style=""width: 408px; height: 417px; margin-right: 200px;""><img src=""images/choice_trial_15.png"" style=""width: 408px; height: 417px;""></div></div>",f,delaylearn,learning,trial,ck8nJhliYyQyosXmqY3EVcIIeUH2,ck8nJhliYyQyosXmqY3EVcIIeUH2,5.0,images/choice_trial_6.png,images/choice_trial_15.png,images/pattern_1.png,f,f,7000.0,6.0,15.0,1.0,0.0,37.0,1.0,1.0,6.0,240.0,,,,,,59a456d1ec2f75000124f081,09:12:38,27/02/2024
html-keyboard-response,205,408230,0.0-85.0-1.0,,"<div style=""display: flex; flex-direction: column; align-items: center; margin-top: -40px;""><img src=""images/pattern_1.png"" style=""width: 234px; height: 230px; margin-top: -50px;""><div style=""display: flex; justify-content: space-between; margin-top: 33px;""><img src=""images/choice_trial_6.png"" style=""width: 408px; height: 417px; margin-right: 608px;""></div></div>",,delaylearn,learning,display_response,ck8nJhliYyQyosXmqY3EVcIIeUH2,ck8nJhliYyQyosXmqY3EVcIIeUH2,,,,,,,,,,,,,,,,,chosen stimuli: images/choice_trial_6.png,,,,,59a456d1ec2f75000124f081,09:12:38,27/02/2024
html-keyboard-response,206,415232,0.0-85.0-2.0,,,,delaylearn,learning,feedback_duration_window,ck8nJhliYyQyosXmqY3EVcIIeUH2,ck8nJhliYyQyosXmqY3EVcIIeUH2,,,,,,,,,,,,,,,,,,7000.0,,,,59a456d1ec2f75000124f081,09:12:38,27/02/2024
html-keyboard-response,207,416748,0.0-85.0-3.0,,<div style='margin:auto;width: auto; font-size: 150%'><span style='font-weight: bold; font-size: 100px; color: green;'>+10 points!</span><br><br></div>,,delaylearn,learning,feedback_image_window,ck8nJhliYyQyosXmqY3EVcIIeUH2,ck8nJhliYyQyosXmqY3EVcIIeUH2,,,,,,,,,,,,,,,,,,,,,,59a456d1ec2f75000124f081,09:12:38,27/02/2024
html-keyboard-response,208,417257,0.0-86.0-0.0,,,,,,mood_trial_fixation,ck8nJhliYyQyosXmqY3EVcIIeUH2,,,,,,,,,,,,,,,,,,,,,,,59a456d1ec2f75000124f081,09:12:38,27/02/2024
lmdlab-html-vas-response,209,421411,0.0-86.0-1.0,3140.0,How happy are you right now?,0.5,delaylearn,learning,mood_trial,ck8nJhliYyQyosXmqY3EVcIIeUH2,ck8nJhliYyQyosXmqY3EVcIIeUH2,,,,,,,,,,,,,,,,,,,,"['Very unhappy', 'Very happy']",,59a456d1ec2f75000124f081,09:12:38,27/02/2024
html-keyboard-response,210,423253,0.0-87.0,,"<div style=""font-size:100px;"">+</div>",,delaylearn,learning,ITI,ck8nJhliYyQyosXmqY3EVcIIeUH2,ck8nJhliYyQyosXmqY3EVcIIeUH2,,,,,,,,,,,,,,,,,,,1837.0,,,59a456d1ec2f75000124f081,09:12:38,27/02/2024
html-keyboard-response,211,424367,0.0-88.0-0.0,1113.199999999255,"<div style=""display: flex; flex-direction: column; align-items: center; margin-top: -40px;""><img src=""images/pattern_3.png"" style=""width: 234px; height: 230px; margin-top: -50px;""><div style=""display: flex; justify-content: space-between; margin-top: 33px;""><img src=""images/choice_trial_16.png"" style=""width: 408px; height: 417px; margin-right: 200px;""><img src=""images/choice_trial_2.png"" style=""width: 408px; height: 417px;""></div></div>",j,delaylearn,learning,trial,ck8nJhliYyQyosXmqY3EVcIIeUH2,ck8nJhliYyQyosXmqY3EVcIIeUH2,5.0,images/choice_trial_16.png,images/choice_trial_2.png,images/pattern_3.png,j,f,7000.0,16.0,2.0,2.0,0.0,38.0,0.0,1.0,2.0,250.0,,,,,,59a456d1ec2f75000124f081,09:12:38,27/02/2024
html-keyboard-response,212,425373,0.0-88.0-1.0,,"<div style=""display: flex; flex-direction: column; align-items: center; margin-top: -40px;""><img src=""images/pattern_3.png"" style=""width: 234px; height: 230px; margin-top: -50px;""><div style=""display: flex; justify-content: space-between; margin-top: 33px;""><img src=""images/choice_trial_2.png"" style=""width: 408px; height: 417px; margin-left:608px;""></div></div>",,delaylearn,learning,display_response,ck8nJhliYyQyosXmqY3EVcIIeUH2,ck8nJhliYyQyosXmqY3EVcIIeUH2,,,,,,,,,,,,,,,,,chosen stimuli: images/choice_trial_2.png,,,,,59a456d1ec2f75000124f081,09:12:38,27/02/2024
html-keyboard-response,213,432377,0.0-88.0-2.0,,,,delaylearn,learning,feedback_duration_window,ck8nJhliYyQyosXmqY3EVcIIeUH2,ck8nJhliYyQyosXmqY3EVcIIeUH2,,,,,,,,,,,,,,,,,,7000.0,,,,59a456d1ec2f75000124f081,09:12:38,27/02/2024
html-keyboard-response,214,433881,0.0-88.0-3.0,,<div style='margin:auto;width: auto; font-size: 150%'><span style='font-weight: bold; font-size: 100px; color: green;'>+10 points!</span><br><br></div>,,delaylearn,learning,feedback_image_window,ck8nJhliYyQyosXmqY3EVcIIeUH2,ck8nJhliYyQyosXmqY3EVcIIeUH2,,,,,,,,,,,,,,,,,,,,,,59a456d1ec2f75000124f081,09:12:38,27/02/2024
html-keyboard-response,215,435745,0.0-89.0,,"<div style=""font-size:100px;"">+</div>",,delaylearn,learning,ITI,ck8nJhliYyQyosXmqY3EVcIIeUH2,ck8nJhliYyQyosXmqY3EVcIIeUH2,,,,,,,,,,,,,,,,,,,1862.0,,,59a456d1ec2f75000124f081,09:12:38,27/02/2024
html-keyboard-response,216,436623,0.0-90.0-0.0,876.8999999985099,"<div style=""display: flex; flex-direction: column; align-items: center; margin-top: -40px;""><img src=""images/pattern_7.png"" style=""width: 234px; height: 230px; margin-top: -50px;""><div style=""display: flex; justify-content: space-between; margin-top: 33px;""><img src=""images/choice_trial_10.png"" style=""width: 408px; height: 417px; margin-right: 200px;""><img src=""images/choice_trial_8.png"" style=""width: 408px; height: 417px;""></div></div>",j,delaylearn,learning,trial,ck8nJhliYyQyosXmqY3EVcIIeUH2,ck8nJhliYyQyosXmqY3EVcIIeUH2,5.0,images/choice_trial_10.png,images/choice_trial_8.png,images/pattern_7.png,j,j,750.0,10.0,8.0,6.0,1.0,39.0,1.0,1.0,8.0,260.0,,,,,,59a456d1ec2f75000124f081,09:12:38,27/02/2024
html-keyboard-response,217,437631,0.0-90.0-1.0,,"<div style=""display: flex; flex-direction: column; align-items: center; margin-top: -40px;""><img src=""images/pattern_7.png"" style=""width: 234px; height: 230px; margin-top: -50px;""><div style=""display: flex; justify-content: space-between; margin-top: 33px;""><img src=""images/choice_trial_8.png"" style=""width: 408px; height: 417px; margin-left:608px;""></div></div>",,delaylearn,learning,display_response,ck8nJhliYyQyosXmqY3EVcIIeUH2,ck8nJhliYyQyosXmqY3EVcIIeUH2,,,,,,,,,,,,,,,,,chosen stimuli: images/choice_trial_8.png,,,,,59a456d1ec2f75000124f081,09:12:38,27/02/2024
html-keyboard-response,218,438390,0.0-90.0-2.0,,,,delaylearn,learning,feedback_duration_window,ck8nJhliYyQyosXmqY3EVcIIeUH2,ck8nJhliYyQyosXmqY3EVcIIeUH2,,,,,,,,,,,,,,,,,,750.0,,,,59a456d1ec2f75000124f081,09:12:38,27/02/2024
html-keyboard-response,219,439892,0.0-90.0-3.0,,<div style='margin:auto;width: auto; font-size: 150%'><span style='font-weight: bold; font-size: 100px; color: green;'>+10 points!</span><br><br></div>,,delaylearn,learning,feedback_image_window,ck8nJhliYyQyosXmqY3EVcIIeUH2,ck8nJhliYyQyosXmqY3EVcIIeUH2,,,,,,,,,,,,,,,,,,,,,,59a456d1ec2f75000124f081,09:12:38,27/02/2024
html-keyboard-response,220,442328,0.0-91.0,,"<div style=""font-size:100px;"">+</div>",,delaylearn,learning,ITI,ck8nJhliYyQyosXmqY3EVcIIeUH2,ck8nJhliYyQyosXmqY3EVcIIeUH2,,,,,,,,,,,,,,,,,,,2426.0,,,59a456d1ec2f75000124f081,09:12:38,27/02/2024
html-keyboard-response,221,443391,0.0-92.0-0.0,1062.2999999988824,"<div style=""display: flex; flex-direction: column; align-items: center; margin-top: -40px;""><img src=""images/pattern_5.png"" style=""width: 234px; height: 230px; margin-top: -50px;""><div style=""display: flex; justify-content: space-between; margin-top: 33px;""><img src=""images/choice_trial_13.png"" style=""width: 408px; height: 417px; margin-right: 200px;""><img src=""images/choice_trial_7.png"" style=""width: 408px; height: 417px;""></div></div>",j,delaylearn,learning,trial,ck8nJhliYyQyosXmqY3EVcIIeUH2,ck8nJhliYyQyosXmqY3EVcIIeUH2,5.0,images/choice_trial_13.png,images/choice_trial_7.png,images/pattern_5.png,j,j,750.0,13.0,7.0,4.0,1.0,40.0,1.0,1.0,7.0,270.0,,,,,,59a456d1ec2f75000124f081,09:12:38,27/02/2024
html-keyboard-response,222,444401,0.0-92.0-1.0,,"<div style=""display: flex; flex-direction: column; align-items: center; margin-top: -40px;""><img src=""images/pattern_5.png"" style=""width: 234px; height: 230px; margin-top: -50px;""><div style=""display: flex; justify-content: space-between; margin-top: 33px;""><img src=""images/choice_trial_7.png"" style=""width: 408px; height: 417px; margin-left:608px;""></div></div>",,delaylearn,learning,display_response,ck8nJhliYyQyosXmqY3EVcIIeUH2,ck8nJhliYyQyosXmqY3EVcIIeUH2,,,,,,,,,,,,,,,,,chosen stimuli: images/choice_trial_7.png,,,,,59a456d1ec2f75000124f081,09:12:38,27/02/2024
html-keyboard-response,223,445156,0.0-92.0-2.0,,,,delaylearn,learning,feedback_duration_window,ck8nJhliYyQyosXmqY3EVcIIeUH2,ck8nJhliYyQyosXmqY3EVcIIeUH2,,,,,,,,,,,,,,,,,,750.0,,,,59a456d1ec2f75000124f081,09:12:38,27/02/2024
html-keyboard-response,224,446660,0.0-92.0-3.0,,<div style='margin:auto;width: auto; font-size: 150%'><span style='font-weight: bold; font-size: 100px; color: green;'>+10 points!</span><br><br></div>,,delaylearn,learning,feedback_image_window,ck8nJhliYyQyosXmqY3EVcIIeUH2,ck8nJhliYyQyosXmqY3EVcIIeUH2,,,,,,,,,,,,,,,,,,,,,,59a456d1ec2f75000124f081,09:12:38,27/02/2024
html-keyboard-response,225,447176,0.0-93.0-0.0,,,,,,mood_trial_fixation,ck8nJhliYyQyosXmqY3EVcIIeUH2,,,,,,,,,,,,,,,,,,,,,,,59a456d1ec2f75000124f081,09:12:38,27/02/2024
lmdlab-html-vas-response,226,452021,0.0-93.0-1.0,3842.0,How happy are you right now?,0.4976851851851852,delaylearn,learning,mood_trial,ck8nJhliYyQyosXmqY3EVcIIeUH2,ck8nJhliYyQyosXmqY3EVcIIeUH2,,,,,,,,,,,,,,,,,,,,"['Very unhappy', 'Very happy']",,59a456d1ec2f75000124f081,09:12:38,27/02/2024
html-keyboard-response,227,454276,0.0-94.0,,"<div style=""font-size:100px;"">+</div>",,delaylearn,learning,ITI,ck8nJhliYyQyosXmqY3EVcIIeUH2,ck8nJhliYyQyosXmqY3EVcIIeUH2,,,,,,,,,,,,,,,,,,,2236.0,,,59a456d1ec2f75000124f081,09:12:38,27/02/2024
html-keyboard-response,228,455271,0.0-95.0-0.0,993.4000000003725,"<div style=""display: flex; flex-direction: column; align-items: center; margin-top: -40px;""><img src=""images/pattern_4.png"" style=""width: 234px; height: 230px; margin-top: -50px;""><div style=""display: flex; justify-content: space-between; margin-top: 33px;""><img src=""images/choice_trial_11.png"" style=""width: 408px; height: 417px; margin-right: 200px;""><img src=""images/choice_trial_4.png"" style=""width: 408px; height: 417px;""></div></div>",f,delaylearn,learning,trial,ck8nJhliYyQyosXmqY3EVcIIeUH2,ck8nJhliYyQyosXmqY3EVcIIeUH2,5.0,images/choice_trial_11.png,images/choice_trial_4.png,images/pattern_4.png,f,f,7000.0,11.0,4.0,3.0,0.0,41.0,1.0,1.0,11.0,280.0,,,,,,59a456d1ec2f75000124f081,09:12:38,27/02/2024
html-keyboard-response,229,456282,0.0-95.0-1.0,,"<div style=""display: flex; flex-direction: column; align-items: center; margin-top: -40px;""><img src=""images/pattern_4.png"" style=""width: 234px; height: 230px; margin-top: -50px;""><div style=""display: flex; justify-content: space-between; margin-top: 33px;""><img src=""images/choice_trial_11.png"" style=""width: 408px; height: 417px; margin-right: 608px;""></div></div>",,delaylearn,learning,display_response,ck8nJhliYyQyosXmqY3EVcIIeUH2,ck8nJhliYyQyosXmqY3EVcIIeUH2,,,,,,,,,,,,,,,,,chosen stimuli: images/choice_trial_11.png,,,,,59a456d1ec2f75000124f081,09:12:38,27/02/2024
html-keyboard-response,230,463301,0.0-95.0-2.0,,,,delaylearn,learning,feedback_duration_window,ck8nJhliYyQyosXmqY3EVcIIeUH2,ck8nJhliYyQyosXmqY3EVcIIeUH2,,,,,,,,,,,,,,,,,,7000.0,,,,59a456d1ec2f75000124f081,09:12:38,27/02/2024
html-keyboard-response,231,464805,0.0-95.0-3.0,,<div style='margin:auto;width: auto; font-size: 150%'><span style='font-weight: bold; font-size: 100px; color: green;'>+10 points!</span><br><br></div>,,delaylearn,learning,feedback_image_window,ck8nJhliYyQyosXmqY3EVcIIeUH2,ck8nJhliYyQyosXmqY3EVcIIeUH2,,,,,,,,,,,,,,,,,,,,,,59a456d1ec2f75000124f081,09:12:38,27/02/2024
