trial_type,trial_index,time_elapsed,internal_node_id,rt,stimulus,response,exp_name,exp_stage,test_part,subjectID,databaseID,counterbal,choice_stimuli_1,choice_stimuli_2,pattern_stimuli,rewarded_answer,correct_answer,feedback_duration_times,stim_left,stim_right,pair,leftright_counter,trial,response_correct,response_rewarded,chosen_stim,counter,displayed_choice,feedback_durations,ITI_duration,labels,rest_warning,prolificID,start_time,date
pavlovia,0,524,0.0-0.0,,,,,,,MrbqHNmU1OezrLBl7sSEpyzQFbk1,,,,,,,,,,,,,,,,,,,,,,,5da41f84a39c100018614e31,16:46:12,27/03/2024
html-keyboard-response,1,3527,0.0-1.0,,"<div style=""font-size:100px;"">+</div>",,delaylearn,learning,pre_fixation,MrbqHNmU1OezrLBl7sSEpyzQFbk1,,,,,,,,,,,,,,,,,,,,,,,5da41f84a39c100018614e31,16:46:12,27/03/2024
html-keyboard-response,2,4710,0.0-2.0-0.0,1181.2000000029802,"<div style=""display: flex; flex-direction: column; align-items: center; margin-top: -40px;""><img src=""images/demo_images/pattern_1.png"" style=""width: 234px; height: 230px; margin-top: -50px;""><div style=""display: flex; justify-content: space-between; margin-top: 33px;""><img src=""images/demo_images/choice_trial_2.png"" style=""width: 408px; height: 417px; margin-right: 200px;""><img src=""images/demo_images/choice_trial_1.png"" style=""width: 408px; height: 417px;""></div></div>",j,delaylearn,learning,trial,MrbqHNmU1OezrLBl7sSEpyzQFbk1,MrbqHNmU1OezrLBl7sSEpyzQFbk1,5.0,images/demo_images/choice_trial_2.png,images/demo_images/choice_trial_1.png,images/demo_images/pattern_1.png,j,j,3000.0,2.0,1.0,20.0,1.0,1.0,1.0,1.0,1.0,10.0,,,,,,5da41f84a39c100018614e31,16:46:12,27/03/2024
html-keyboard-response,3,5713,0.0-2.0-1.0,,"<div style=""display: flex; flex-direction: column; align-items: center; margin-top: -40px;""><img src=""images/demo_images/pattern_1.png"" style=""width: 234px; height: 230px; margin-top: -50px;""><div style=""display: flex; justify-content: space-between; margin-top: 33px;""><img src=""images/demo_images/choice_trial_1.png"" style=""width: 408px; height: 417px; margin-left:608px;""></div></div>",,delaylearn,learning,display_response,MrbqHNmU1OezrLBl7sSEpyzQFbk1,MrbqHNmU1OezrLBl7sSEpyzQFbk1,,,,,,,,,,,,,,,,,chosen stimuli: images/demo_images/choice_trial_1.png,,,,,5da41f84a39c100018614e31,16:46:12,27/03/2024
html-keyboard-response,4,8716,0.0-2.0-2.0,,,,delaylearn,learning,feedback_duration_window,MrbqHNmU1OezrLBl7sSEpyzQFbk1,MrbqHNmU1OezrLBl7sSEpyzQFbk1,,,,,,,,,,,,,,,,,,3000.0,,,,5da41f84a39c100018614e31,16:46:12,27/03/2024
html-keyboard-response,5,10219,0.0-2.0-3.0,,<div style='margin:auto;width: auto; font-size: 150%'><span style='font-weight: bold; font-size: 100px; color: green;'>+10 points!</span><br><br></div>,,delaylearn,learning,feedback_image_window,MrbqHNmU1OezrLBl7sSEpyzQFbk1,MrbqHNmU1OezrLBl7sSEpyzQFbk1,,,,,,,,,,,,,,,,,,,,,,5da41f84a39c100018614e31,16:46:12,27/03/2024
html-keyboard-response,6,11831,0.0-3.0,,"<div style=""font-size:100px;"">+</div>",,delaylearn,learning,ITI,MrbqHNmU1OezrLBl7sSEpyzQFbk1,MrbqHNmU1OezrLBl7sSEpyzQFbk1,,,,,,,,,,,,,,,,,,,1609.0,,,5da41f84a39c100018614e31,16:46:12,27/03/2024
html-keyboard-response,7,12479,0.0-4.0-0.0,645.3999999985099,"<div style=""display: flex; flex-direction: column; align-items: center; margin-top: -40px;""><img src=""images/demo_images/pattern_1.png"" style=""width: 234px; height: 230px; margin-top: -50px;""><div style=""display: flex; justify-content: space-between; margin-top: 33px;""><img src=""images/demo_images/choice_trial_2.png"" style=""width: 408px; height: 417px; margin-right: 200px;""><img src=""images/demo_images/choice_trial_1.png"" style=""width: 408px; height: 417px;""></div></div>",j,delaylearn,learning,trial,MrbqHNmU1OezrLBl7sSEpyzQFbk1,MrbqHNmU1OezrLBl7sSEpyzQFbk1,5.0,images/demo_images/choice_trial_2.png,images/demo_images/choice_trial_1.png,images/demo_images/pattern_1.png,j,j,3000.0,2.0,1.0,20.0,1.0,2.0,1.0,1.0,1.0,20.0,,,,,,5da41f84a39c100018614e31,16:46:12,27/03/2024
html-keyboard-response,8,13482,0.0-4.0-1.0,,"<div style=""display: flex; flex-direction: column; align-items: center; margin-top: -40px;""><img src=""images/demo_images/pattern_1.png"" style=""width: 234px; height: 230px; margin-top: -50px;""><div style=""display: flex; justify-content: space-between; margin-top: 33px;""><img src=""images/demo_images/choice_trial_1.png"" style=""width: 408px; height: 417px; margin-left:608px;""></div></div>",,delaylearn,learning,display_response,MrbqHNmU1OezrLBl7sSEpyzQFbk1,MrbqHNmU1OezrLBl7sSEpyzQFbk1,,,,,,,,,,,,,,,,,chosen stimuli: images/demo_images/choice_trial_1.png,,,,,5da41f84a39c100018614e31,16:46:12,27/03/2024
html-keyboard-response,9,16484,0.0-4.0-2.0,,,,delaylearn,learning,feedback_duration_window,MrbqHNmU1OezrLBl7sSEpyzQFbk1,MrbqHNmU1OezrLBl7sSEpyzQFbk1,,,,,,,,,,,,,,,,,,3000.0,,,,5da41f84a39c100018614e31,16:46:12,27/03/2024
html-keyboard-response,10,17988,0.0-4.0-3.0,,<div style='margin:auto;width: auto; font-size: 150%'><span style='font-weight: bold; font-size: 100px; color: green;'>+10 points!</span><br><br></div>,,delaylearn,learning,feedback_image_window,MrbqHNmU1OezrLBl7sSEpyzQFbk1,MrbqHNmU1OezrLBl7sSEpyzQFbk1,,,,,,,,,,,,,,,,,,,,,,5da41f84a39c100018614e31,16:46:12,27/03/2024
html-keyboard-response,11,20473,0.0-5.0,,"<div style=""font-size:100px;"">+</div>",,delaylearn,learning,ITI,MrbqHNmU1OezrLBl7sSEpyzQFbk1,MrbqHNmU1OezrLBl7sSEpyzQFbk1,,,,,,,,,,,,,,,,,,,2483.0,,,5da41f84a39c100018614e31,16:46:12,27/03/2024
html-keyboard-response,12,21287,0.0-6.0-0.0,812.0,"<div style=""display: flex; flex-direction: column; align-items: center; margin-top: -40px;""><img src=""images/demo_images/pattern_1.png"" style=""width: 234px; height: 230px; margin-top: -50px;""><div style=""display: flex; justify-content: space-between; margin-top: 33px;""><img src=""images/demo_images/choice_trial_1.png"" style=""width: 408px; height: 417px; margin-right: 200px;""><img src=""images/demo_images/choice_trial_2.png"" style=""width: 408px; height: 417px;""></div></div>",f,delaylearn,learning,trial,MrbqHNmU1OezrLBl7sSEpyzQFbk1,MrbqHNmU1OezrLBl7sSEpyzQFbk1,5.0,images/demo_images/choice_trial_1.png,images/demo_images/choice_trial_2.png,images/demo_images/pattern_1.png,j,f,3000.0,1.0,2.0,20.0,0.0,3.0,1.0,0.0,1.0,20.0,,,,,,5da41f84a39c100018614e31,16:46:12,27/03/2024
html-keyboard-response,13,22290,0.0-6.0-1.0,,"<div style=""display: flex; flex-direction: column; align-items: center; margin-top: -40px;""><img src=""images/demo_images/pattern_1.png"" style=""width: 234px; height: 230px; margin-top: -50px;""><div style=""display: flex; justify-content: space-between; margin-top: 33px;""><img src=""images/demo_images/choice_trial_1.png"" style=""width: 408px; height: 417px; margin-right: 608px;""></div></div>",,delaylearn,learning,display_response,MrbqHNmU1OezrLBl7sSEpyzQFbk1,MrbqHNmU1OezrLBl7sSEpyzQFbk1,,,,,,,,,,,,,,,,,chosen stimuli: images/demo_images/choice_trial_1.png,,,,,5da41f84a39c100018614e31,16:46:12,27/03/2024
html-keyboard-response,14,25292,0.0-6.0-2.0,,,,delaylearn,learning,feedback_duration_window,MrbqHNmU1OezrLBl7sSEpyzQFbk1,MrbqHNmU1OezrLBl7sSEpyzQFbk1,,,,,,,,,,,,,,,,,,3000.0,,,,5da41f84a39c100018614e31,16:46:12,27/03/2024
html-keyboard-response,15,26795,0.0-6.0-3.0,,<div style='margin:auto;width: auto; font-size: 150%'><span style='font-weight: bold; font-size: 100px; color: red;'>0 points!</span><br><br></div>,,delaylearn,learning,feedback_image_window,MrbqHNmU1OezrLBl7sSEpyzQFbk1,MrbqHNmU1OezrLBl7sSEpyzQFbk1,,,,,,,,,,,,,,,,,,,,,,5da41f84a39c100018614e31,16:46:12,27/03/2024
html-keyboard-response,16,29094,0.0-7.0,,"<div style=""font-size:100px;"">+</div>",,delaylearn,learning,ITI,MrbqHNmU1OezrLBl7sSEpyzQFbk1,MrbqHNmU1OezrLBl7sSEpyzQFbk1,,,,,,,,,,,,,,,,,,,2297.0,,,5da41f84a39c100018614e31,16:46:12,27/03/2024
html-keyboard-response,17,30130,0.0-8.0-0.0,1034.6000000014901,"<div style=""display: flex; flex-direction: column; align-items: center; margin-top: -40px;""><img src=""images/demo_images/pattern_1.png"" style=""width: 234px; height: 230px; margin-top: -50px;""><div style=""display: flex; justify-content: space-between; margin-top: 33px;""><img src=""images/demo_images/choice_trial_1.png"" style=""width: 408px; height: 417px; margin-right: 200px;""><img src=""images/demo_images/choice_trial_2.png"" style=""width: 408px; height: 417px;""></div></div>",f,delaylearn,learning,trial,MrbqHNmU1OezrLBl7sSEpyzQFbk1,MrbqHNmU1OezrLBl7sSEpyzQFbk1,5.0,images/demo_images/choice_trial_1.png,images/demo_images/choice_trial_2.png,images/demo_images/pattern_1.png,f,f,3000.0,1.0,2.0,20.0,0.0,4.0,1.0,1.0,1.0,30.0,,,,,,5da41f84a39c100018614e31,16:46:12,27/03/2024
html-keyboard-response,18,31133,0.0-8.0-1.0,,"<div style=""display: flex; flex-direction: column; align-items: center; margin-top: -40px;""><img src=""images/demo_images/pattern_1.png"" style=""width: 234px; height: 230px; margin-top: -50px;""><div style=""display: flex; justify-content: space-between; margin-top: 33px;""><img src=""images/demo_images/choice_trial_1.png"" style=""width: 408px; height: 417px; margin-right: 608px;""></div></div>",,delaylearn,learning,display_response,MrbqHNmU1OezrLBl7sSEpyzQFbk1,MrbqHNmU1OezrLBl7sSEpyzQFbk1,,,,,,,,,,,,,,,,,chosen stimuli: images/demo_images/choice_trial_1.png,,,,,5da41f84a39c100018614e31,16:46:12,27/03/2024
html-keyboard-response,19,34135,0.0-8.0-2.0,,,,delaylearn,learning,feedback_duration_window,MrbqHNmU1OezrLBl7sSEpyzQFbk1,MrbqHNmU1OezrLBl7sSEpyzQFbk1,,,,,,,,,,,,,,,,,,3000.0,,,,5da41f84a39c100018614e31,16:46:12,27/03/2024
html-keyboard-response,20,35639,0.0-8.0-3.0,,<div style='margin:auto;width: auto; font-size: 150%'><span style='font-weight: bold; font-size: 100px; color: green;'>+10 points!</span><br><br></div>,,delaylearn,learning,feedback_image_window,MrbqHNmU1OezrLBl7sSEpyzQFbk1,MrbqHNmU1OezrLBl7sSEpyzQFbk1,,,,,,,,,,,,,,,,,,,,,,5da41f84a39c100018614e31,16:46:12,27/03/2024
html-keyboard-response,21,36140,0.0-9.0-0.0,,,,,,mood_trial_fixation,MrbqHNmU1OezrLBl7sSEpyzQFbk1,,,,,,,,,,,,,,,,,,,,,,,5da41f84a39c100018614e31,16:46:12,27/03/2024
lmdlab-html-vas-response,22,39474,0.0-9.0-1.0,2326.0,How happy are you right now?,0.6958333333333333,delaylearn,learning,mood_trial,MrbqHNmU1OezrLBl7sSEpyzQFbk1,MrbqHNmU1OezrLBl7sSEpyzQFbk1,,,,,,,,,,,,,,,,,,,,"['Very unhappy', 'Very happy']",,5da41f84a39c100018614e31,16:46:12,27/03/2024
html-keyboard-response,23,40984,0.0-10.0,,"<div style=""font-size:100px;"">+</div>",,delaylearn,learning,ITI,MrbqHNmU1OezrLBl7sSEpyzQFbk1,MrbqHNmU1OezrLBl7sSEpyzQFbk1,,,,,,,,,,,,,,,,,,,1507.0,,,5da41f84a39c100018614e31,16:46:12,27/03/2024
html-keyboard-response,24,41980,0.0-11.0-0.0,993.5,"<div style=""display: flex; flex-direction: column; align-items: center; margin-top: -40px;""><img src=""images/demo_images/pattern_1.png"" style=""width: 234px; height: 230px; margin-top: -50px;""><div style=""display: flex; justify-content: space-between; margin-top: 33px;""><img src=""images/demo_images/choice_trial_2.png"" style=""width: 408px; height: 417px; margin-right: 200px;""><img src=""images/demo_images/choice_trial_1.png"" style=""width: 408px; height: 417px;""></div></div>",j,delaylearn,learning,trial,MrbqHNmU1OezrLBl7sSEpyzQFbk1,MrbqHNmU1OezrLBl7sSEpyzQFbk1,5.0,images/demo_images/choice_trial_2.png,images/demo_images/choice_trial_1.png,images/demo_images/pattern_1.png,j,j,3000.0,2.0,1.0,20.0,1.0,5.0,1.0,1.0,1.0,40.0,,,,,,5da41f84a39c100018614e31,16:46:12,27/03/2024
html-keyboard-response,25,42982,0.0-11.0-1.0,,"<div style=""display: flex; flex-direction: column; align-items: center; margin-top: -40px;""><img src=""images/demo_images/pattern_1.png"" style=""width: 234px; height: 230px; margin-top: -50px;""><div style=""display: flex; justify-content: space-between; margin-top: 33px;""><img src=""images/demo_images/choice_trial_1.png"" style=""width: 408px; height: 417px; margin-left:608px;""></div></div>",,delaylearn,learning,display_response,MrbqHNmU1OezrLBl7sSEpyzQFbk1,MrbqHNmU1OezrLBl7sSEpyzQFbk1,,,,,,,,,,,,,,,,,chosen stimuli: images/demo_images/choice_trial_1.png,,,,,5da41f84a39c100018614e31,16:46:12,27/03/2024
html-keyboard-response,26,45984,0.0-11.0-2.0,,,,delaylearn,learning,feedback_duration_window,MrbqHNmU1OezrLBl7sSEpyzQFbk1,MrbqHNmU1OezrLBl7sSEpyzQFbk1,,,,,,,,,,,,,,,,,,3000.0,,,,5da41f84a39c100018614e31,16:46:12,27/03/2024
html-keyboard-response,27,47488,0.0-11.0-3.0,,<div style='margin:auto;width: auto; font-size: 150%'><span style='font-weight: bold; font-size: 100px; color: green;'>+10 points!</span><br><br></div>,,delaylearn,learning,feedback_image_window,MrbqHNmU1OezrLBl7sSEpyzQFbk1,MrbqHNmU1OezrLBl7sSEpyzQFbk1,,,,,,,,,,,,,,,,,,,,,,5da41f84a39c100018614e31,16:46:12,27/03/2024
html-keyboard-response,28,49966,0.0-12.0,,"<div style=""font-size:100px;"">+</div>",,delaylearn,learning,ITI,MrbqHNmU1OezrLBl7sSEpyzQFbk1,MrbqHNmU1OezrLBl7sSEpyzQFbk1,,,,,,,,,,,,,,,,,,,2476.0,,,5da41f84a39c100018614e31,16:46:12,27/03/2024
html-keyboard-response,29,50946,0.0-13.0-0.0,978.3999999985099,"<div style=""display: flex; flex-direction: column; align-items: center; margin-top: -40px;""><img src=""images/demo_images/pattern_1.png"" style=""width: 234px; height: 230px; margin-top: -50px;""><div style=""display: flex; justify-content: space-between; margin-top: 33px;""><img src=""images/demo_images/choice_trial_1.png"" style=""width: 408px; height: 417px; margin-right: 200px;""><img src=""images/demo_images/choice_trial_2.png"" style=""width: 408px; height: 417px;""></div></div>",f,delaylearn,learning,trial,MrbqHNmU1OezrLBl7sSEpyzQFbk1,MrbqHNmU1OezrLBl7sSEpyzQFbk1,5.0,images/demo_images/choice_trial_1.png,images/demo_images/choice_trial_2.png,images/demo_images/pattern_1.png,f,f,3000.0,1.0,2.0,20.0,0.0,6.0,1.0,1.0,1.0,50.0,,,,,,5da41f84a39c100018614e31,16:46:12,27/03/2024
html-keyboard-response,30,51949,0.0-13.0-1.0,,"<div style=""display: flex; flex-direction: column; align-items: center; margin-top: -40px;""><img src=""images/demo_images/pattern_1.png"" style=""width: 234px; height: 230px; margin-top: -50px;""><div style=""display: flex; justify-content: space-between; margin-top: 33px;""><img src=""images/demo_images/choice_trial_1.png"" style=""width: 408px; height: 417px; margin-right: 608px;""></div></div>",,delaylearn,learning,display_response,MrbqHNmU1OezrLBl7sSEpyzQFbk1,MrbqHNmU1OezrLBl7sSEpyzQFbk1,,,,,,,,,,,,,,,,,chosen stimuli: images/demo_images/choice_trial_1.png,,,,,5da41f84a39c100018614e31,16:46:12,27/03/2024
html-keyboard-response,31,54951,0.0-13.0-2.0,,,,delaylearn,learning,feedback_duration_window,MrbqHNmU1OezrLBl7sSEpyzQFbk1,MrbqHNmU1OezrLBl7sSEpyzQFbk1,,,,,,,,,,,,,,,,,,3000.0,,,,5da41f84a39c100018614e31,16:46:12,27/03/2024
html-keyboard-response,32,56454,0.0-13.0-3.0,,<div style='margin:auto;width: auto; font-size: 150%'><span style='font-weight: bold; font-size: 100px; color: green;'>+10 points!</span><br><br></div>,,delaylearn,learning,feedback_image_window,MrbqHNmU1OezrLBl7sSEpyzQFbk1,MrbqHNmU1OezrLBl7sSEpyzQFbk1,,,,,,,,,,,,,,,,,,,,,,5da41f84a39c100018614e31,16:46:12,27/03/2024
html-keyboard-response,33,58330,0.0-14.0,,"<div style=""font-size:100px;"">+</div>",,delaylearn,learning,ITI,MrbqHNmU1OezrLBl7sSEpyzQFbk1,MrbqHNmU1OezrLBl7sSEpyzQFbk1,,,,,,,,,,,,,,,,,,,1875.0,,,5da41f84a39c100018614e31,16:46:12,27/03/2024
html-keyboard-response,34,59025,0.0-15.0-0.0,692.3999999985099,"<div style=""display: flex; flex-direction: column; align-items: center; margin-top: -40px;""><img src=""images/demo_images/pattern_1.png"" style=""width: 234px; height: 230px; margin-top: -50px;""><div style=""display: flex; justify-content: space-between; margin-top: 33px;""><img src=""images/demo_images/choice_trial_2.png"" style=""width: 408px; height: 417px; margin-right: 200px;""><img src=""images/demo_images/choice_trial_1.png"" style=""width: 408px; height: 417px;""></div></div>",j,delaylearn,learning,trial,MrbqHNmU1OezrLBl7sSEpyzQFbk1,MrbqHNmU1OezrLBl7sSEpyzQFbk1,5.0,images/demo_images/choice_trial_2.png,images/demo_images/choice_trial_1.png,images/demo_images/pattern_1.png,j,j,3000.0,2.0,1.0,20.0,1.0,7.0,1.0,1.0,1.0,60.0,,,,,,5da41f84a39c100018614e31,16:46:12,27/03/2024
html-keyboard-response,35,60027,0.0-15.0-1.0,,"<div style=""display: flex; flex-direction: column; align-items: center; margin-top: -40px;""><img src=""images/demo_images/pattern_1.png"" style=""width: 234px; height: 230px; margin-top: -50px;""><div style=""display: flex; justify-content: space-between; margin-top: 33px;""><img src=""images/demo_images/choice_trial_1.png"" style=""width: 408px; height: 417px; margin-left:608px;""></div></div>",,delaylearn,learning,display_response,MrbqHNmU1OezrLBl7sSEpyzQFbk1,MrbqHNmU1OezrLBl7sSEpyzQFbk1,,,,,,,,,,,,,,,,,chosen stimuli: images/demo_images/choice_trial_1.png,,,,,5da41f84a39c100018614e31,16:46:12,27/03/2024
html-keyboard-response,36,63029,0.0-15.0-2.0,,,,delaylearn,learning,feedback_duration_window,MrbqHNmU1OezrLBl7sSEpyzQFbk1,MrbqHNmU1OezrLBl7sSEpyzQFbk1,,,,,,,,,,,,,,,,,,3000.0,,,,5da41f84a39c100018614e31,16:46:12,27/03/2024
html-keyboard-response,37,64532,0.0-15.0-3.0,,<div style='margin:auto;width: auto; font-size: 150%'><span style='font-weight: bold; font-size: 100px; color: green;'>+10 points!</span><br><br></div>,,delaylearn,learning,feedback_image_window,MrbqHNmU1OezrLBl7sSEpyzQFbk1,MrbqHNmU1OezrLBl7sSEpyzQFbk1,,,,,,,,,,,,,,,,,,,,,,5da41f84a39c100018614e31,16:46:12,27/03/2024
html-keyboard-response,38,66172,0.0-16.0,,"<div style=""font-size:100px;"">+</div>",,delaylearn,learning,ITI,MrbqHNmU1OezrLBl7sSEpyzQFbk1,MrbqHNmU1OezrLBl7sSEpyzQFbk1,,,,,,,,,,,,,,,,,,,1637.0,,,5da41f84a39c100018614e31,16:46:12,27/03/2024
html-keyboard-response,39,67129,0.0-17.0-0.0,955.5,"<div style=""display: flex; flex-direction: column; align-items: center; margin-top: -40px;""><img src=""images/demo_images/pattern_1.png"" style=""width: 234px; height: 230px; margin-top: -50px;""><div style=""display: flex; justify-content: space-between; margin-top: 33px;""><img src=""images/demo_images/choice_trial_1.png"" style=""width: 408px; height: 417px; margin-right: 200px;""><img src=""images/demo_images/choice_trial_2.png"" style=""width: 408px; height: 417px;""></div></div>",f,delaylearn,learning,trial,MrbqHNmU1OezrLBl7sSEpyzQFbk1,MrbqHNmU1OezrLBl7sSEpyzQFbk1,5.0,images/demo_images/choice_trial_1.png,images/demo_images/choice_trial_2.png,images/demo_images/pattern_1.png,f,f,3000.0,1.0,2.0,20.0,0.0,8.0,1.0,1.0,1.0,70.0,,,,,,5da41f84a39c100018614e31,16:46:12,27/03/2024
html-keyboard-response,40,68131,0.0-17.0-1.0,,"<div style=""display: flex; flex-direction: column; align-items: center; margin-top: -40px;""><img src=""images/demo_images/pattern_1.png"" style=""width: 234px; height: 230px; margin-top: -50px;""><div style=""display: flex; justify-content: space-between; margin-top: 33px;""><img src=""images/demo_images/choice_trial_1.png"" style=""width: 408px; height: 417px; margin-right: 608px;""></div></div>",,delaylearn,learning,display_response,MrbqHNmU1OezrLBl7sSEpyzQFbk1,MrbqHNmU1OezrLBl7sSEpyzQFbk1,,,,,,,,,,,,,,,,,chosen stimuli: images/demo_images/choice_trial_1.png,,,,,5da41f84a39c100018614e31,16:46:12,27/03/2024
html-keyboard-response,41,71133,0.0-17.0-2.0,,,,delaylearn,learning,feedback_duration_window,MrbqHNmU1OezrLBl7sSEpyzQFbk1,MrbqHNmU1OezrLBl7sSEpyzQFbk1,,,,,,,,,,,,,,,,,,3000.0,,,,5da41f84a39c100018614e31,16:46:12,27/03/2024
html-keyboard-response,42,72636,0.0-17.0-3.0,,<div style='margin:auto;width: auto; font-size: 150%'><span style='font-weight: bold; font-size: 100px; color: green;'>+10 points!</span><br><br></div>,,delaylearn,learning,feedback_image_window,MrbqHNmU1OezrLBl7sSEpyzQFbk1,MrbqHNmU1OezrLBl7sSEpyzQFbk1,,,,,,,,,,,,,,,,,,,,,,5da41f84a39c100018614e31,16:46:12,27/03/2024
html-button-response,43,74388,0.0-18.0,1750.5,"
  <div style=""display: flex; align-items: center; justify-content: center; height: 80vh;"">
  <div>
          <img src=""images/inst_demo_finish.png"" style=""width: 80vw; height:auto;"">
          <br><br>
      </div>
      <br><br>
  </div>",0,,,,MrbqHNmU1OezrLBl7sSEpyzQFbk1,,,,,,,,,,,,,,,,,,,,,,,5da41f84a39c100018614e31,16:46:12,27/03/2024
html-keyboard-response,44,79376,0.0-19.0,4986.89999999851,"
  <div style=""display: flex; align-items: center; justify-content: center; height: 80vh;"">
  <div>
          <img src=""images/inst_6.png"" style=""width: 80vw; height:auto;"">
          <br><br>
      </div>
      <br><br>
  </div>",f,,,,MrbqHNmU1OezrLBl7sSEpyzQFbk1,,,,,,,,,,,,,,,,,,,,,,,5da41f84a39c100018614e31,16:46:12,27/03/2024
html-keyboard-response,45,82379,0.0-20.0,,"<div style=""font-size:100px;"">+</div>",,delaylearn,learning,pre_fixation,MrbqHNmU1OezrLBl7sSEpyzQFbk1,,,,,,,,,,,,,,,,,,,,,,,5da41f84a39c100018614e31,16:46:12,27/03/2024
html-keyboard-response,46,83972,0.0-21.0,,"<div style=""font-size:100px;"">+</div>",,delaylearn,learning,ITI,MrbqHNmU1OezrLBl7sSEpyzQFbk1,MrbqHNmU1OezrLBl7sSEpyzQFbk1,,,,,,,,,,,,,,,,,,,1592.0,,,5da41f84a39c100018614e31,16:46:12,27/03/2024
html-keyboard-response,47,85457,0.0-22.0-0.0,1483.2000000029802,"<div style=""display: flex; flex-direction: column; align-items: center; margin-top: -40px;""><img src=""images/pattern_3.png"" style=""width: 234px; height: 230px; margin-top: -50px;""><div style=""display: flex; justify-content: space-between; margin-top: 33px;""><img src=""images/choice_trial_16.png"" style=""width: 408px; height: 417px; margin-right: 200px;""><img src=""images/choice_trial_2.png"" style=""width: 408px; height: 417px;""></div></div>",f,delaylearn,learning,trial,MrbqHNmU1OezrLBl7sSEpyzQFbk1,MrbqHNmU1OezrLBl7sSEpyzQFbk1,5.0,images/choice_trial_16.png,images/choice_trial_2.png,images/pattern_3.png,f,f,7000.0,16.0,2.0,2.0,0.0,9.0,1.0,1.0,16.0,80.0,,,,,,5da41f84a39c100018614e31,16:46:12,27/03/2024
html-keyboard-response,48,86461,0.0-22.0-1.0,,"<div style=""display: flex; flex-direction: column; align-items: center; margin-top: -40px;""><img src=""images/pattern_3.png"" style=""width: 234px; height: 230px; margin-top: -50px;""><div style=""display: flex; justify-content: space-between; margin-top: 33px;""><img src=""images/choice_trial_16.png"" style=""width: 408px; height: 417px; margin-right: 608px;""></div></div>",,delaylearn,learning,display_response,MrbqHNmU1OezrLBl7sSEpyzQFbk1,MrbqHNmU1OezrLBl7sSEpyzQFbk1,,,,,,,,,,,,,,,,,chosen stimuli: images/choice_trial_16.png,,,,,5da41f84a39c100018614e31,16:46:12,27/03/2024
html-keyboard-response,49,93463,0.0-22.0-2.0,,,,delaylearn,learning,feedback_duration_window,MrbqHNmU1OezrLBl7sSEpyzQFbk1,MrbqHNmU1OezrLBl7sSEpyzQFbk1,,,,,,,,,,,,,,,,,,7000.0,,,,5da41f84a39c100018614e31,16:46:12,27/03/2024
html-keyboard-response,50,94966,0.0-22.0-3.0,,<div style='margin:auto;width: auto; font-size: 150%'><span style='font-weight: bold; font-size: 100px; color: green;'>+10 points!</span><br><br></div>,,delaylearn,learning,feedback_image_window,MrbqHNmU1OezrLBl7sSEpyzQFbk1,MrbqHNmU1OezrLBl7sSEpyzQFbk1,,,,,,,,,,,,,,,,,,,,,,5da41f84a39c100018614e31,16:46:12,27/03/2024
html-keyboard-response,51,97186,0.0-23.0,,"<div style=""font-size:100px;"">+</div>",,delaylearn,learning,ITI,MrbqHNmU1OezrLBl7sSEpyzQFbk1,MrbqHNmU1OezrLBl7sSEpyzQFbk1,,,,,,,,,,,,,,,,,,,2219.0,,,5da41f84a39c100018614e31,16:46:12,27/03/2024
html-keyboard-response,52,98747,0.0-24.0-0.0,1558.8999999985099,"<div style=""display: flex; flex-direction: column; align-items: center; margin-top: -40px;""><img src=""images/pattern_7.png"" style=""width: 234px; height: 230px; margin-top: -50px;""><div style=""display: flex; justify-content: space-between; margin-top: 33px;""><img src=""images/choice_trial_10.png"" style=""width: 408px; height: 417px; margin-right: 200px;""><img src=""images/choice_trial_8.png"" style=""width: 408px; height: 417px;""></div></div>",f,delaylearn,learning,trial,MrbqHNmU1OezrLBl7sSEpyzQFbk1,MrbqHNmU1OezrLBl7sSEpyzQFbk1,5.0,images/choice_trial_10.png,images/choice_trial_8.png,images/pattern_7.png,j,j,750.0,10.0,8.0,6.0,1.0,10.0,0.0,0.0,10.0,80.0,,,,,,5da41f84a39c100018614e31,16:46:12,27/03/2024
html-keyboard-response,53,99750,0.0-24.0-1.0,,"<div style=""display: flex; flex-direction: column; align-items: center; margin-top: -40px;""><img src=""images/pattern_7.png"" style=""width: 234px; height: 230px; margin-top: -50px;""><div style=""display: flex; justify-content: space-between; margin-top: 33px;""><img src=""images/choice_trial_10.png"" style=""width: 408px; height: 417px; margin-right: 608px;""></div></div>",,delaylearn,learning,display_response,MrbqHNmU1OezrLBl7sSEpyzQFbk1,MrbqHNmU1OezrLBl7sSEpyzQFbk1,,,,,,,,,,,,,,,,,chosen stimuli: images/choice_trial_10.png,,,,,5da41f84a39c100018614e31,16:46:12,27/03/2024
html-keyboard-response,54,100502,0.0-24.0-2.0,,,,delaylearn,learning,feedback_duration_window,MrbqHNmU1OezrLBl7sSEpyzQFbk1,MrbqHNmU1OezrLBl7sSEpyzQFbk1,,,,,,,,,,,,,,,,,,750.0,,,,5da41f84a39c100018614e31,16:46:12,27/03/2024
html-keyboard-response,55,102004,0.0-24.0-3.0,,<div style='margin:auto;width: auto; font-size: 150%'><span style='font-weight: bold; font-size: 100px; color: red;'>0 points!</span><br><br></div>,,delaylearn,learning,feedback_image_window,MrbqHNmU1OezrLBl7sSEpyzQFbk1,MrbqHNmU1OezrLBl7sSEpyzQFbk1,,,,,,,,,,,,,,,,,,,,,,5da41f84a39c100018614e31,16:46:12,27/03/2024
html-keyboard-response,56,104369,0.0-25.0,,"<div style=""font-size:100px;"">+</div>",,delaylearn,learning,ITI,MrbqHNmU1OezrLBl7sSEpyzQFbk1,MrbqHNmU1OezrLBl7sSEpyzQFbk1,,,,,,,,,,,,,,,,,,,2362.0,,,5da41f84a39c100018614e31,16:46:12,27/03/2024
html-keyboard-response,57,105370,0.0-26.0-0.0,999.6000000014901,"<div style=""display: flex; flex-direction: column; align-items: center; margin-top: -40px;""><img src=""images/pattern_4.png"" style=""width: 234px; height: 230px; margin-top: -50px;""><div style=""display: flex; justify-content: space-between; margin-top: 33px;""><img src=""images/choice_trial_11.png"" style=""width: 408px; height: 417px; margin-right: 200px;""><img src=""images/choice_trial_4.png"" style=""width: 408px; height: 417px;""></div></div>",j,delaylearn,learning,trial,MrbqHNmU1OezrLBl7sSEpyzQFbk1,MrbqHNmU1OezrLBl7sSEpyzQFbk1,5.0,images/choice_trial_11.png,images/choice_trial_4.png,images/pattern_4.png,f,f,7000.0,11.0,4.0,3.0,0.0,11.0,0.0,0.0,4.0,80.0,,,,,,5da41f84a39c100018614e31,16:46:12,27/03/2024
html-keyboard-response,58,106371,0.0-26.0-1.0,,"<div style=""display: flex; flex-direction: column; align-items: center; margin-top: -40px;""><img src=""images/pattern_4.png"" style=""width: 234px; height: 230px; margin-top: -50px;""><div style=""display: flex; justify-content: space-between; margin-top: 33px;""><img src=""images/choice_trial_4.png"" style=""width: 408px; height: 417px; margin-left:608px;""></div></div>",,delaylearn,learning,display_response,MrbqHNmU1OezrLBl7sSEpyzQFbk1,MrbqHNmU1OezrLBl7sSEpyzQFbk1,,,,,,,,,,,,,,,,,chosen stimuli: images/choice_trial_4.png,,,,,5da41f84a39c100018614e31,16:46:12,27/03/2024
html-keyboard-response,59,113373,0.0-26.0-2.0,,,,delaylearn,learning,feedback_duration_window,MrbqHNmU1OezrLBl7sSEpyzQFbk1,MrbqHNmU1OezrLBl7sSEpyzQFbk1,,,,,,,,,,,,,,,,,,7000.0,,,,5da41f84a39c100018614e31,16:46:12,27/03/2024
html-keyboard-response,60,114877,0.0-26.0-3.0,,<div style='margin:auto;width: auto; font-size: 150%'><span style='font-weight: bold; font-size: 100px; color: red;'>0 points!</span><br><br></div>,,delaylearn,learning,feedback_image_window,MrbqHNmU1OezrLBl7sSEpyzQFbk1,MrbqHNmU1OezrLBl7sSEpyzQFbk1,,,,,,,,,,,,,,,,,,,,,,5da41f84a39c100018614e31,16:46:12,27/03/2024
html-keyboard-response,61,117172,0.0-27.0,,"<div style=""font-size:100px;"">+</div>",,delaylearn,learning,ITI,MrbqHNmU1OezrLBl7sSEpyzQFbk1,MrbqHNmU1OezrLBl7sSEpyzQFbk1,,,,,,,,,,,,,,,,,,,2294.0,,,5da41f84a39c100018614e31,16:46:12,27/03/2024
html-keyboard-response,62,118365,0.0-28.0-0.0,1191.3000000044703,"<div style=""display: flex; flex-direction: column; align-items: center; margin-top: -40px;""><img src=""images/pattern_5.png"" style=""width: 234px; height: 230px; margin-top: -50px;""><div style=""display: flex; justify-content: space-between; margin-top: 33px;""><img src=""images/choice_trial_13.png"" style=""width: 408px; height: 417px; margin-right: 200px;""><img src=""images/choice_trial_7.png"" style=""width: 408px; height: 417px;""></div></div>",j,delaylearn,learning,trial,MrbqHNmU1OezrLBl7sSEpyzQFbk1,MrbqHNmU1OezrLBl7sSEpyzQFbk1,5.0,images/choice_trial_13.png,images/choice_trial_7.png,images/pattern_5.png,j,j,750.0,13.0,7.0,4.0,1.0,12.0,1.0,1.0,7.0,90.0,,,,,,5da41f84a39c100018614e31,16:46:12,27/03/2024
html-keyboard-response,63,119368,0.0-28.0-1.0,,"<div style=""display: flex; flex-direction: column; align-items: center; margin-top: -40px;""><img src=""images/pattern_5.png"" style=""width: 234px; height: 230px; margin-top: -50px;""><div style=""display: flex; justify-content: space-between; margin-top: 33px;""><img src=""images/choice_trial_7.png"" style=""width: 408px; height: 417px; margin-left:608px;""></div></div>",,delaylearn,learning,display_response,MrbqHNmU1OezrLBl7sSEpyzQFbk1,MrbqHNmU1OezrLBl7sSEpyzQFbk1,,,,,,,,,,,,,,,,,chosen stimuli: images/choice_trial_7.png,,,,,5da41f84a39c100018614e31,16:46:12,27/03/2024
html-keyboard-response,64,120120,0.0-28.0-2.0,,,,delaylearn,learning,feedback_duration_window,MrbqHNmU1OezrLBl7sSEpyzQFbk1,MrbqHNmU1OezrLBl7sSEpyzQFbk1,,,,,,,,,,,,,,,,,,750.0,,,,5da41f84a39c100018614e31,16:46:12,27/03/2024
html-keyboard-response,65,121623,0.0-28.0-3.0,,<div style='margin:auto;width: auto; font-size: 150%'><span style='font-weight: bold; font-size: 100px; color: green;'>+10 points!</span><br><br></div>,,delaylearn,learning,feedback_image_window,MrbqHNmU1OezrLBl7sSEpyzQFbk1,MrbqHNmU1OezrLBl7sSEpyzQFbk1,,,,,,,,,,,,,,,,,,,,,,5da41f84a39c100018614e31,16:46:12,27/03/2024
html-keyboard-response,66,123317,0.0-29.0,,"<div style=""font-size:100px;"">+</div>",,delaylearn,learning,ITI,MrbqHNmU1OezrLBl7sSEpyzQFbk1,MrbqHNmU1OezrLBl7sSEpyzQFbk1,,,,,,,,,,,,,,,,,,,1692.0,,,5da41f84a39c100018614e31,16:46:12,27/03/2024
html-keyboard-response,67,124596,0.0-30.0-0.0,1277.3000000044703,"<div style=""display: flex; flex-direction: column; align-items: center; margin-top: -40px;""><img src=""images/pattern_6.png"" style=""width: 234px; height: 230px; margin-top: -50px;""><div style=""display: flex; justify-content: space-between; margin-top: 33px;""><img src=""images/choice_trial_14.png"" style=""width: 408px; height: 417px; margin-right: 200px;""><img src=""images/choice_trial_9.png"" style=""width: 408px; height: 417px;""></div></div>",f,delaylearn,learning,trial,MrbqHNmU1OezrLBl7sSEpyzQFbk1,MrbqHNmU1OezrLBl7sSEpyzQFbk1,5.0,images/choice_trial_14.png,images/choice_trial_9.png,images/pattern_6.png,j,f,750.0,14.0,9.0,5.0,0.0,13.0,1.0,0.0,14.0,90.0,,,,,,5da41f84a39c100018614e31,16:46:12,27/03/2024
html-keyboard-response,68,125599,0.0-30.0-1.0,,"<div style=""display: flex; flex-direction: column; align-items: center; margin-top: -40px;""><img src=""images/pattern_6.png"" style=""width: 234px; height: 230px; margin-top: -50px;""><div style=""display: flex; justify-content: space-between; margin-top: 33px;""><img src=""images/choice_trial_14.png"" style=""width: 408px; height: 417px; margin-right: 608px;""></div></div>",,delaylearn,learning,display_response,MrbqHNmU1OezrLBl7sSEpyzQFbk1,MrbqHNmU1OezrLBl7sSEpyzQFbk1,,,,,,,,,,,,,,,,,chosen stimuli: images/choice_trial_14.png,,,,,5da41f84a39c100018614e31,16:46:12,27/03/2024
html-keyboard-response,69,126351,0.0-30.0-2.0,,,,delaylearn,learning,feedback_duration_window,MrbqHNmU1OezrLBl7sSEpyzQFbk1,MrbqHNmU1OezrLBl7sSEpyzQFbk1,,,,,,,,,,,,,,,,,,750.0,,,,5da41f84a39c100018614e31,16:46:12,27/03/2024
html-keyboard-response,70,127854,0.0-30.0-3.0,,<div style='margin:auto;width: auto; font-size: 150%'><span style='font-weight: bold; font-size: 100px; color: red;'>0 points!</span><br><br></div>,,delaylearn,learning,feedback_image_window,MrbqHNmU1OezrLBl7sSEpyzQFbk1,MrbqHNmU1OezrLBl7sSEpyzQFbk1,,,,,,,,,,,,,,,,,,,,,,5da41f84a39c100018614e31,16:46:12,27/03/2024
html-keyboard-response,71,128356,0.0-31.0-0.0,,,,,,mood_trial_fixation,MrbqHNmU1OezrLBl7sSEpyzQFbk1,,,,,,,,,,,,,,,,,,,,,,,5da41f84a39c100018614e31,16:46:12,27/03/2024
lmdlab-html-vas-response,72,131599,0.0-31.0-1.0,2239.0,How happy are you right now?,0.6916666666666667,delaylearn,learning,mood_trial,MrbqHNmU1OezrLBl7sSEpyzQFbk1,MrbqHNmU1OezrLBl7sSEpyzQFbk1,,,,,,,,,,,,,,,,,,,,"['Very unhappy', 'Very happy']",,5da41f84a39c100018614e31,16:46:12,27/03/2024
html-keyboard-response,73,134055,0.0-32.0,,"<div style=""font-size:100px;"">+</div>",,delaylearn,learning,ITI,MrbqHNmU1OezrLBl7sSEpyzQFbk1,MrbqHNmU1OezrLBl7sSEpyzQFbk1,,,,,,,,,,,,,,,,,,,2453.0,,,5da41f84a39c100018614e31,16:46:12,27/03/2024
html-keyboard-response,74,135552,0.0-33.0-0.0,1496.0,"<div style=""display: flex; flex-direction: column; align-items: center; margin-top: -40px;""><img src=""images/pattern_1.png"" style=""width: 234px; height: 230px; margin-top: -50px;""><div style=""display: flex; justify-content: space-between; margin-top: 33px;""><img src=""images/choice_trial_15.png"" style=""width: 408px; height: 417px; margin-right: 200px;""><img src=""images/choice_trial_6.png"" style=""width: 408px; height: 417px;""></div></div>",f,delaylearn,learning,trial,MrbqHNmU1OezrLBl7sSEpyzQFbk1,MrbqHNmU1OezrLBl7sSEpyzQFbk1,5.0,images/choice_trial_15.png,images/choice_trial_6.png,images/pattern_1.png,j,j,7000.0,15.0,6.0,1.0,1.0,14.0,0.0,0.0,15.0,90.0,,,,,,5da41f84a39c100018614e31,16:46:12,27/03/2024
html-keyboard-response,75,136555,0.0-33.0-1.0,,"<div style=""display: flex; flex-direction: column; align-items: center; margin-top: -40px;""><img src=""images/pattern_1.png"" style=""width: 234px; height: 230px; margin-top: -50px;""><div style=""display: flex; justify-content: space-between; margin-top: 33px;""><img src=""images/choice_trial_15.png"" style=""width: 408px; height: 417px; margin-right: 608px;""></div></div>",,delaylearn,learning,display_response,MrbqHNmU1OezrLBl7sSEpyzQFbk1,MrbqHNmU1OezrLBl7sSEpyzQFbk1,,,,,,,,,,,,,,,,,chosen stimuli: images/choice_trial_15.png,,,,,5da41f84a39c100018614e31,16:46:12,27/03/2024
html-keyboard-response,76,143558,0.0-33.0-2.0,,,,delaylearn,learning,feedback_duration_window,MrbqHNmU1OezrLBl7sSEpyzQFbk1,MrbqHNmU1OezrLBl7sSEpyzQFbk1,,,,,,,,,,,,,,,,,,7000.0,,,,5da41f84a39c100018614e31,16:46:12,27/03/2024
html-keyboard-response,77,145060,0.0-33.0-3.0,,<div style='margin:auto;width: auto; font-size: 150%'><span style='font-weight: bold; font-size: 100px; color: red;'>0 points!</span><br><br></div>,,delaylearn,learning,feedback_image_window,MrbqHNmU1OezrLBl7sSEpyzQFbk1,MrbqHNmU1OezrLBl7sSEpyzQFbk1,,,,,,,,,,,,,,,,,,,,,,5da41f84a39c100018614e31,16:46:12,27/03/2024
html-keyboard-response,78,147386,0.0-34.0,,"<div style=""font-size:100px;"">+</div>",,delaylearn,learning,ITI,MrbqHNmU1OezrLBl7sSEpyzQFbk1,MrbqHNmU1OezrLBl7sSEpyzQFbk1,,,,,,,,,,,,,,,,,,,2324.0,,,5da41f84a39c100018614e31,16:46:12,27/03/2024
html-keyboard-response,79,148443,0.0-35.0-0.0,1055.5,"<div style=""display: flex; flex-direction: column; align-items: center; margin-top: -40px;""><img src=""images/pattern_3.png"" style=""width: 234px; height: 230px; margin-top: -50px;""><div style=""display: flex; justify-content: space-between; margin-top: 33px;""><img src=""images/choice_trial_2.png"" style=""width: 408px; height: 417px; margin-right: 200px;""><img src=""images/choice_trial_16.png"" style=""width: 408px; height: 417px;""></div></div>",j,delaylearn,learning,trial,MrbqHNmU1OezrLBl7sSEpyzQFbk1,MrbqHNmU1OezrLBl7sSEpyzQFbk1,5.0,images/choice_trial_2.png,images/choice_trial_16.png,images/pattern_3.png,f,j,7000.0,2.0,16.0,2.0,1.0,15.0,1.0,0.0,16.0,90.0,,,,,,5da41f84a39c100018614e31,16:46:12,27/03/2024
html-keyboard-response,80,149446,0.0-35.0-1.0,,"<div style=""display: flex; flex-direction: column; align-items: center; margin-top: -40px;""><img src=""images/pattern_3.png"" style=""width: 234px; height: 230px; margin-top: -50px;""><div style=""display: flex; justify-content: space-between; margin-top: 33px;""><img src=""images/choice_trial_16.png"" style=""width: 408px; height: 417px; margin-left:608px;""></div></div>",,delaylearn,learning,display_response,MrbqHNmU1OezrLBl7sSEpyzQFbk1,MrbqHNmU1OezrLBl7sSEpyzQFbk1,,,,,,,,,,,,,,,,,chosen stimuli: images/choice_trial_16.png,,,,,5da41f84a39c100018614e31,16:46:12,27/03/2024
html-keyboard-response,81,156448,0.0-35.0-2.0,,,,delaylearn,learning,feedback_duration_window,MrbqHNmU1OezrLBl7sSEpyzQFbk1,MrbqHNmU1OezrLBl7sSEpyzQFbk1,,,,,,,,,,,,,,,,,,7000.0,,,,5da41f84a39c100018614e31,16:46:12,27/03/2024
html-keyboard-response,82,157952,0.0-35.0-3.0,,<div style='margin:auto;width: auto; font-size: 150%'><span style='font-weight: bold; font-size: 100px; color: red;'>0 points!</span><br><br></div>,,delaylearn,learning,feedback_image_window,MrbqHNmU1OezrLBl7sSEpyzQFbk1,MrbqHNmU1OezrLBl7sSEpyzQFbk1,,,,,,,,,,,,,,,,,,,,,,5da41f84a39c100018614e31,16:46:12,27/03/2024
html-keyboard-response,83,160340,0.0-36.0,,"<div style=""font-size:100px;"">+</div>",,delaylearn,learning,ITI,MrbqHNmU1OezrLBl7sSEpyzQFbk1,MrbqHNmU1OezrLBl7sSEpyzQFbk1,,,,,,,,,,,,,,,,,,,2386.0,,,5da41f84a39c100018614e31,16:46:12,27/03/2024
html-keyboard-response,84,161386,0.0-37.0-0.0,1043.6000000014901,"<div style=""display: flex; flex-direction: column; align-items: center; margin-top: -40px;""><img src=""images/pattern_5.png"" style=""width: 234px; height: 230px; margin-top: -50px;""><div style=""display: flex; justify-content: space-between; margin-top: 33px;""><img src=""images/choice_trial_7.png"" style=""width: 408px; height: 417px; margin-right: 200px;""><img src=""images/choice_trial_13.png"" style=""width: 408px; height: 417px;""></div></div>",f,delaylearn,learning,trial,MrbqHNmU1OezrLBl7sSEpyzQFbk1,MrbqHNmU1OezrLBl7sSEpyzQFbk1,5.0,images/choice_trial_7.png,images/choice_trial_13.png,images/pattern_5.png,f,f,750.0,7.0,13.0,4.0,0.0,16.0,1.0,1.0,7.0,100.0,,,,,,5da41f84a39c100018614e31,16:46:12,27/03/2024
html-keyboard-response,85,162388,0.0-37.0-1.0,,"<div style=""display: flex; flex-direction: column; align-items: center; margin-top: -40px;""><img src=""images/pattern_5.png"" style=""width: 234px; height: 230px; margin-top: -50px;""><div style=""display: flex; justify-content: space-between; margin-top: 33px;""><img src=""images/choice_trial_7.png"" style=""width: 408px; height: 417px; margin-right: 608px;""></div></div>",,delaylearn,learning,display_response,MrbqHNmU1OezrLBl7sSEpyzQFbk1,MrbqHNmU1OezrLBl7sSEpyzQFbk1,,,,,,,,,,,,,,,,,chosen stimuli: images/choice_trial_7.png,,,,,5da41f84a39c100018614e31,16:46:12,27/03/2024
html-keyboard-response,86,163141,0.0-37.0-2.0,,,,delaylearn,learning,feedback_duration_window,MrbqHNmU1OezrLBl7sSEpyzQFbk1,MrbqHNmU1OezrLBl7sSEpyzQFbk1,,,,,,,,,,,,,,,,,,750.0,,,,5da41f84a39c100018614e31,16:46:12,27/03/2024
html-keyboard-response,87,164644,0.0-37.0-3.0,,<div style='margin:auto;width: auto; font-size: 150%'><span style='font-weight: bold; font-size: 100px; color: green;'>+10 points!</span><br><br></div>,,delaylearn,learning,feedback_image_window,MrbqHNmU1OezrLBl7sSEpyzQFbk1,MrbqHNmU1OezrLBl7sSEpyzQFbk1,,,,,,,,,,,,,,,,,,,,,,5da41f84a39c100018614e31,16:46:12,27/03/2024
html-keyboard-response,88,165145,0.0-38.0-0.0,,,,,,mood_trial_fixation,MrbqHNmU1OezrLBl7sSEpyzQFbk1,,,,,,,,,,,,,,,,,,,,,,,5da41f84a39c100018614e31,16:46:12,27/03/2024
lmdlab-html-vas-response,89,168501,0.0-38.0-1.0,2352.0,How happy are you right now?,0.6729166666666667,delaylearn,learning,mood_trial,MrbqHNmU1OezrLBl7sSEpyzQFbk1,MrbqHNmU1OezrLBl7sSEpyzQFbk1,,,,,,,,,,,,,,,,,,,,"['Very unhappy', 'Very happy']",,5da41f84a39c100018614e31,16:46:12,27/03/2024
html-keyboard-response,90,170903,0.0-39.0,,"<div style=""font-size:100px;"">+</div>",,delaylearn,learning,ITI,MrbqHNmU1OezrLBl7sSEpyzQFbk1,MrbqHNmU1OezrLBl7sSEpyzQFbk1,,,,,,,,,,,,,,,,,,,2400.0,,,5da41f84a39c100018614e31,16:46:12,27/03/2024
html-keyboard-response,91,172531,0.0-40.0-0.0,1626.6000000014901,"<div style=""display: flex; flex-direction: column; align-items: center; margin-top: -40px;""><img src=""images/pattern_6.png"" style=""width: 234px; height: 230px; margin-top: -50px;""><div style=""display: flex; justify-content: space-between; margin-top: 33px;""><img src=""images/choice_trial_14.png"" style=""width: 408px; height: 417px; margin-right: 200px;""><img src=""images/choice_trial_9.png"" style=""width: 408px; height: 417px;""></div></div>",j,delaylearn,learning,trial,MrbqHNmU1OezrLBl7sSEpyzQFbk1,MrbqHNmU1OezrLBl7sSEpyzQFbk1,5.0,images/choice_trial_14.png,images/choice_trial_9.png,images/pattern_6.png,f,f,750.0,14.0,9.0,5.0,0.0,17.0,0.0,0.0,9.0,100.0,,,,,,5da41f84a39c100018614e31,16:46:12,27/03/2024
html-keyboard-response,92,173534,0.0-40.0-1.0,,"<div style=""display: flex; flex-direction: column; align-items: center; margin-top: -40px;""><img src=""images/pattern_6.png"" style=""width: 234px; height: 230px; margin-top: -50px;""><div style=""display: flex; justify-content: space-between; margin-top: 33px;""><img src=""images/choice_trial_9.png"" style=""width: 408px; height: 417px; margin-left:608px;""></div></div>",,delaylearn,learning,display_response,MrbqHNmU1OezrLBl7sSEpyzQFbk1,MrbqHNmU1OezrLBl7sSEpyzQFbk1,,,,,,,,,,,,,,,,,chosen stimuli: images/choice_trial_9.png,,,,,5da41f84a39c100018614e31,16:46:12,27/03/2024
html-keyboard-response,93,174286,0.0-40.0-2.0,,,,delaylearn,learning,feedback_duration_window,MrbqHNmU1OezrLBl7sSEpyzQFbk1,MrbqHNmU1OezrLBl7sSEpyzQFbk1,,,,,,,,,,,,,,,,,,750.0,,,,5da41f84a39c100018614e31,16:46:12,27/03/2024
html-keyboard-response,94,175789,0.0-40.0-3.0,,<div style='margin:auto;width: auto; font-size: 150%'><span style='font-weight: bold; font-size: 100px; color: red;'>0 points!</span><br><br></div>,,delaylearn,learning,feedback_image_window,MrbqHNmU1OezrLBl7sSEpyzQFbk1,MrbqHNmU1OezrLBl7sSEpyzQFbk1,,,,,,,,,,,,,,,,,,,,,,5da41f84a39c100018614e31,16:46:12,27/03/2024
html-keyboard-response,95,177575,0.0-41.0,,"<div style=""font-size:100px;"">+</div>",,delaylearn,learning,ITI,MrbqHNmU1OezrLBl7sSEpyzQFbk1,MrbqHNmU1OezrLBl7sSEpyzQFbk1,,,,,,,,,,,,,,,,,,,1783.0,,,5da41f84a39c100018614e31,16:46:12,27/03/2024
html-keyboard-response,96,179074,0.0-42.0-0.0,1497.0,"<div style=""display: flex; flex-direction: column; align-items: center; margin-top: -40px;""><img src=""images/pattern_4.png"" style=""width: 234px; height: 230px; margin-top: -50px;""><div style=""display: flex; justify-content: space-between; margin-top: 33px;""><img src=""images/choice_trial_4.png"" style=""width: 408px; height: 417px; margin-right: 200px;""><img src=""images/choice_trial_11.png"" style=""width: 408px; height: 417px;""></div></div>",f,delaylearn,learning,trial,MrbqHNmU1OezrLBl7sSEpyzQFbk1,MrbqHNmU1OezrLBl7sSEpyzQFbk1,5.0,images/choice_trial_4.png,images/choice_trial_11.png,images/pattern_4.png,j,j,7000.0,4.0,11.0,3.0,1.0,18.0,0.0,0.0,4.0,100.0,,,,,,5da41f84a39c100018614e31,16:46:12,27/03/2024
html-keyboard-response,97,180077,0.0-42.0-1.0,,"<div style=""display: flex; flex-direction: column; align-items: center; margin-top: -40px;""><img src=""images/pattern_4.png"" style=""width: 234px; height: 230px; margin-top: -50px;""><div style=""display: flex; justify-content: space-between; margin-top: 33px;""><img src=""images/choice_trial_4.png"" style=""width: 408px; height: 417px; margin-right: 608px;""></div></div>",,delaylearn,learning,display_response,MrbqHNmU1OezrLBl7sSEpyzQFbk1,MrbqHNmU1OezrLBl7sSEpyzQFbk1,,,,,,,,,,,,,,,,,chosen stimuli: images/choice_trial_4.png,,,,,5da41f84a39c100018614e31,16:46:12,27/03/2024
html-keyboard-response,98,187079,0.0-42.0-2.0,,,,delaylearn,learning,feedback_duration_window,MrbqHNmU1OezrLBl7sSEpyzQFbk1,MrbqHNmU1OezrLBl7sSEpyzQFbk1,,,,,,,,,,,,,,,,,,7000.0,,,,5da41f84a39c100018614e31,16:46:12,27/03/2024
html-keyboard-response,99,188582,0.0-42.0-3.0,,<div style='margin:auto;width: auto; font-size: 150%'><span style='font-weight: bold; font-size: 100px; color: red;'>0 points!</span><br><br></div>,,delaylearn,learning,feedback_image_window,MrbqHNmU1OezrLBl7sSEpyzQFbk1,MrbqHNmU1OezrLBl7sSEpyzQFbk1,,,,,,,,,,,,,,,,,,,,,,5da41f84a39c100018614e31,16:46:12,27/03/2024
html-keyboard-response,100,190285,0.0-43.0,,"<div style=""font-size:100px;"">+</div>",,delaylearn,learning,ITI,MrbqHNmU1OezrLBl7sSEpyzQFbk1,MrbqHNmU1OezrLBl7sSEpyzQFbk1,,,,,,,,,,,,,,,,,,,1702.0,,,5da41f84a39c100018614e31,16:46:12,27/03/2024
html-keyboard-response,101,191917,0.0-44.0-0.0,1630.5,"<div style=""display: flex; flex-direction: column; align-items: center; margin-top: -40px;""><img src=""images/pattern_7.png"" style=""width: 234px; height: 230px; margin-top: -50px;""><div style=""display: flex; justify-content: space-between; margin-top: 33px;""><img src=""images/choice_trial_8.png"" style=""width: 408px; height: 417px; margin-right: 200px;""><img src=""images/choice_trial_10.png"" style=""width: 408px; height: 417px;""></div></div>",j,delaylearn,learning,trial,MrbqHNmU1OezrLBl7sSEpyzQFbk1,MrbqHNmU1OezrLBl7sSEpyzQFbk1,5.0,images/choice_trial_8.png,images/choice_trial_10.png,images/pattern_7.png,j,f,750.0,8.0,10.0,6.0,0.0,19.0,0.0,1.0,10.0,110.0,,,,,,5da41f84a39c100018614e31,16:46:12,27/03/2024
html-keyboard-response,102,192920,0.0-44.0-1.0,,"<div style=""display: flex; flex-direction: column; align-items: center; margin-top: -40px;""><img src=""images/pattern_7.png"" style=""width: 234px; height: 230px; margin-top: -50px;""><div style=""display: flex; justify-content: space-between; margin-top: 33px;""><img src=""images/choice_trial_10.png"" style=""width: 408px; height: 417px; margin-left:608px;""></div></div>",,delaylearn,learning,display_response,MrbqHNmU1OezrLBl7sSEpyzQFbk1,MrbqHNmU1OezrLBl7sSEpyzQFbk1,,,,,,,,,,,,,,,,,chosen stimuli: images/choice_trial_10.png,,,,,5da41f84a39c100018614e31,16:46:12,27/03/2024
html-keyboard-response,103,193672,0.0-44.0-2.0,,,,delaylearn,learning,feedback_duration_window,MrbqHNmU1OezrLBl7sSEpyzQFbk1,MrbqHNmU1OezrLBl7sSEpyzQFbk1,,,,,,,,,,,,,,,,,,750.0,,,,5da41f84a39c100018614e31,16:46:12,27/03/2024
html-keyboard-response,104,195175,0.0-44.0-3.0,,<div style='margin:auto;width: auto; font-size: 150%'><span style='font-weight: bold; font-size: 100px; color: green;'>+10 points!</span><br><br></div>,,delaylearn,learning,feedback_image_window,MrbqHNmU1OezrLBl7sSEpyzQFbk1,MrbqHNmU1OezrLBl7sSEpyzQFbk1,,,,,,,,,,,,,,,,,,,,,,5da41f84a39c100018614e31,16:46:12,27/03/2024
html-keyboard-response,105,196840,0.0-45.0,,"<div style=""font-size:100px;"">+</div>",,delaylearn,learning,ITI,MrbqHNmU1OezrLBl7sSEpyzQFbk1,MrbqHNmU1OezrLBl7sSEpyzQFbk1,,,,,,,,,,,,,,,,,,,1663.0,,,5da41f84a39c100018614e31,16:46:12,27/03/2024
html-keyboard-response,106,199485,0.0-46.0-0.0,2643.1999999955297,"<div style=""display: flex; flex-direction: column; align-items: center; margin-top: -40px;""><img src=""images/pattern_1.png"" style=""width: 234px; height: 230px; margin-top: -50px;""><div style=""display: flex; justify-content: space-between; margin-top: 33px;""><img src=""images/choice_trial_6.png"" style=""width: 408px; height: 417px; margin-right: 200px;""><img src=""images/choice_trial_15.png"" style=""width: 408px; height: 417px;""></div></div>",j,delaylearn,learning,trial,MrbqHNmU1OezrLBl7sSEpyzQFbk1,MrbqHNmU1OezrLBl7sSEpyzQFbk1,5.0,images/choice_trial_6.png,images/choice_trial_15.png,images/pattern_1.png,f,f,7000.0,6.0,15.0,1.0,0.0,20.0,0.0,0.0,15.0,110.0,,,,,,5da41f84a39c100018614e31,16:46:12,27/03/2024
html-keyboard-response,107,200488,0.0-46.0-1.0,,"<div style=""display: flex; flex-direction: column; align-items: center; margin-top: -40px;""><img src=""images/pattern_1.png"" style=""width: 234px; height: 230px; margin-top: -50px;""><div style=""display: flex; justify-content: space-between; margin-top: 33px;""><img src=""images/choice_trial_15.png"" style=""width: 408px; height: 417px; margin-left:608px;""></div></div>",,delaylearn,learning,display_response,MrbqHNmU1OezrLBl7sSEpyzQFbk1,MrbqHNmU1OezrLBl7sSEpyzQFbk1,,,,,,,,,,,,,,,,,chosen stimuli: images/choice_trial_15.png,,,,,5da41f84a39c100018614e31,16:46:12,27/03/2024
html-keyboard-response,108,207491,0.0-46.0-2.0,,,,delaylearn,learning,feedback_duration_window,MrbqHNmU1OezrLBl7sSEpyzQFbk1,MrbqHNmU1OezrLBl7sSEpyzQFbk1,,,,,,,,,,,,,,,,,,7000.0,,,,5da41f84a39c100018614e31,16:46:12,27/03/2024
html-keyboard-response,109,208994,0.0-46.0-3.0,,<div style='margin:auto;width: auto; font-size: 150%'><span style='font-weight: bold; font-size: 100px; color: red;'>0 points!</span><br><br></div>,,delaylearn,learning,feedback_image_window,MrbqHNmU1OezrLBl7sSEpyzQFbk1,MrbqHNmU1OezrLBl7sSEpyzQFbk1,,,,,,,,,,,,,,,,,,,,,,5da41f84a39c100018614e31,16:46:12,27/03/2024
html-keyboard-response,110,211445,0.0-47.0,,"<div style=""font-size:100px;"">+</div>",,delaylearn,learning,ITI,MrbqHNmU1OezrLBl7sSEpyzQFbk1,MrbqHNmU1OezrLBl7sSEpyzQFbk1,,,,,,,,,,,,,,,,,,,2448.0,,,5da41f84a39c100018614e31,16:46:12,27/03/2024
html-keyboard-response,111,213092,0.0-48.0-0.0,1645.2000000029802,"<div style=""display: flex; flex-direction: column; align-items: center; margin-top: -40px;""><img src=""images/pattern_6.png"" style=""width: 234px; height: 230px; margin-top: -50px;""><div style=""display: flex; justify-content: space-between; margin-top: 33px;""><img src=""images/choice_trial_9.png"" style=""width: 408px; height: 417px; margin-right: 200px;""><img src=""images/choice_trial_14.png"" style=""width: 408px; height: 417px;""></div></div>",j,delaylearn,learning,trial,MrbqHNmU1OezrLBl7sSEpyzQFbk1,MrbqHNmU1OezrLBl7sSEpyzQFbk1,5.0,images/choice_trial_9.png,images/choice_trial_14.png,images/pattern_6.png,j,j,750.0,9.0,14.0,5.0,1.0,21.0,1.0,1.0,14.0,120.0,,,,,,5da41f84a39c100018614e31,16:46:12,27/03/2024
html-keyboard-response,112,214094,0.0-48.0-1.0,,"<div style=""display: flex; flex-direction: column; align-items: center; margin-top: -40px;""><img src=""images/pattern_6.png"" style=""width: 234px; height: 230px; margin-top: -50px;""><div style=""display: flex; justify-content: space-between; margin-top: 33px;""><img src=""images/choice_trial_14.png"" style=""width: 408px; height: 417px; margin-left:608px;""></div></div>",,delaylearn,learning,display_response,MrbqHNmU1OezrLBl7sSEpyzQFbk1,MrbqHNmU1OezrLBl7sSEpyzQFbk1,,,,,,,,,,,,,,,,,chosen stimuli: images/choice_trial_14.png,,,,,5da41f84a39c100018614e31,16:46:12,27/03/2024
html-keyboard-response,113,214847,0.0-48.0-2.0,,,,delaylearn,learning,feedback_duration_window,MrbqHNmU1OezrLBl7sSEpyzQFbk1,MrbqHNmU1OezrLBl7sSEpyzQFbk1,,,,,,,,,,,,,,,,,,750.0,,,,5da41f84a39c100018614e31,16:46:12,27/03/2024
html-keyboard-response,114,216350,0.0-48.0-3.0,,<div style='margin:auto;width: auto; font-size: 150%'><span style='font-weight: bold; font-size: 100px; color: green;'>+10 points!</span><br><br></div>,,delaylearn,learning,feedback_image_window,MrbqHNmU1OezrLBl7sSEpyzQFbk1,MrbqHNmU1OezrLBl7sSEpyzQFbk1,,,,,,,,,,,,,,,,,,,,,,5da41f84a39c100018614e31,16:46:12,27/03/2024
html-keyboard-response,115,217920,0.0-49.0,,"<div style=""font-size:100px;"">+</div>",,delaylearn,learning,ITI,MrbqHNmU1OezrLBl7sSEpyzQFbk1,MrbqHNmU1OezrLBl7sSEpyzQFbk1,,,,,,,,,,,,,,,,,,,1569.0,,,5da41f84a39c100018614e31,16:46:12,27/03/2024
html-keyboard-response,116,219415,0.0-50.0-0.0,1492.2999999970198,"<div style=""display: flex; flex-direction: column; align-items: center; margin-top: -40px;""><img src=""images/pattern_4.png"" style=""width: 234px; height: 230px; margin-top: -50px;""><div style=""display: flex; justify-content: space-between; margin-top: 33px;""><img src=""images/choice_trial_11.png"" style=""width: 408px; height: 417px; margin-right: 200px;""><img src=""images/choice_trial_4.png"" style=""width: 408px; height: 417px;""></div></div>",f,delaylearn,learning,trial,MrbqHNmU1OezrLBl7sSEpyzQFbk1,MrbqHNmU1OezrLBl7sSEpyzQFbk1,5.0,images/choice_trial_11.png,images/choice_trial_4.png,images/pattern_4.png,f,f,7000.0,11.0,4.0,3.0,0.0,22.0,1.0,1.0,11.0,130.0,,,,,,5da41f84a39c100018614e31,16:46:12,27/03/2024
html-keyboard-response,117,220417,0.0-50.0-1.0,,"<div style=""display: flex; flex-direction: column; align-items: center; margin-top: -40px;""><img src=""images/pattern_4.png"" style=""width: 234px; height: 230px; margin-top: -50px;""><div style=""display: flex; justify-content: space-between; margin-top: 33px;""><img src=""images/choice_trial_11.png"" style=""width: 408px; height: 417px; margin-right: 608px;""></div></div>",,delaylearn,learning,display_response,MrbqHNmU1OezrLBl7sSEpyzQFbk1,MrbqHNmU1OezrLBl7sSEpyzQFbk1,,,,,,,,,,,,,,,,,chosen stimuli: images/choice_trial_11.png,,,,,5da41f84a39c100018614e31,16:46:12,27/03/2024
html-keyboard-response,118,227419,0.0-50.0-2.0,,,,delaylearn,learning,feedback_duration_window,MrbqHNmU1OezrLBl7sSEpyzQFbk1,MrbqHNmU1OezrLBl7sSEpyzQFbk1,,,,,,,,,,,,,,,,,,7000.0,,,,5da41f84a39c100018614e31,16:46:12,27/03/2024
html-keyboard-response,119,228923,0.0-50.0-3.0,,<div style='margin:auto;width: auto; font-size: 150%'><span style='font-weight: bold; font-size: 100px; color: green;'>+10 points!</span><br><br></div>,,delaylearn,learning,feedback_image_window,MrbqHNmU1OezrLBl7sSEpyzQFbk1,MrbqHNmU1OezrLBl7sSEpyzQFbk1,,,,,,,,,,,,,,,,,,,,,,5da41f84a39c100018614e31,16:46:12,27/03/2024
html-keyboard-response,120,229425,0.0-51.0-0.0,,,,,,mood_trial_fixation,MrbqHNmU1OezrLBl7sSEpyzQFbk1,,,,,,,,,,,,,,,,,,,,,,,5da41f84a39c100018614e31,16:46:12,27/03/2024
lmdlab-html-vas-response,121,233000,0.0-51.0-1.0,2571.0,How happy are you right now?,0.7020833333333333,delaylearn,learning,mood_trial,MrbqHNmU1OezrLBl7sSEpyzQFbk1,MrbqHNmU1OezrLBl7sSEpyzQFbk1,,,,,,,,,,,,,,,,,,,,"['Very unhappy', 'Very happy']",,5da41f84a39c100018614e31,16:46:12,27/03/2024
html-keyboard-response,122,234878,0.0-52.0,,"<div style=""font-size:100px;"">+</div>",,delaylearn,learning,ITI,MrbqHNmU1OezrLBl7sSEpyzQFbk1,MrbqHNmU1OezrLBl7sSEpyzQFbk1,,,,,,,,,,,,,,,,,,,1876.0,,,5da41f84a39c100018614e31,16:46:12,27/03/2024
html-keyboard-response,123,235884,0.0-53.0-0.0,1004.0,"<div style=""display: flex; flex-direction: column; align-items: center; margin-top: -40px;""><img src=""images/pattern_7.png"" style=""width: 234px; height: 230px; margin-top: -50px;""><div style=""display: flex; justify-content: space-between; margin-top: 33px;""><img src=""images/choice_trial_10.png"" style=""width: 408px; height: 417px; margin-right: 200px;""><img src=""images/choice_trial_8.png"" style=""width: 408px; height: 417px;""></div></div>",f,delaylearn,learning,trial,MrbqHNmU1OezrLBl7sSEpyzQFbk1,MrbqHNmU1OezrLBl7sSEpyzQFbk1,5.0,images/choice_trial_10.png,images/choice_trial_8.png,images/pattern_7.png,j,j,750.0,10.0,8.0,6.0,1.0,23.0,0.0,0.0,10.0,130.0,,,,,,5da41f84a39c100018614e31,16:46:12,27/03/2024
html-keyboard-response,124,236887,0.0-53.0-1.0,,"<div style=""display: flex; flex-direction: column; align-items: center; margin-top: -40px;""><img src=""images/pattern_7.png"" style=""width: 234px; height: 230px; margin-top: -50px;""><div style=""display: flex; justify-content: space-between; margin-top: 33px;""><img src=""images/choice_trial_10.png"" style=""width: 408px; height: 417px; margin-right: 608px;""></div></div>",,delaylearn,learning,display_response,MrbqHNmU1OezrLBl7sSEpyzQFbk1,MrbqHNmU1OezrLBl7sSEpyzQFbk1,,,,,,,,,,,,,,,,,chosen stimuli: images/choice_trial_10.png,,,,,5da41f84a39c100018614e31,16:46:12,27/03/2024
html-keyboard-response,125,237639,0.0-53.0-2.0,,,,delaylearn,learning,feedback_duration_window,MrbqHNmU1OezrLBl7sSEpyzQFbk1,MrbqHNmU1OezrLBl7sSEpyzQFbk1,,,,,,,,,,,,,,,,,,750.0,,,,5da41f84a39c100018614e31,16:46:12,27/03/2024
html-keyboard-response,126,239141,0.0-53.0-3.0,,<div style='margin:auto;width: auto; font-size: 150%'><span style='font-weight: bold; font-size: 100px; color: red;'>0 points!</span><br><br></div>,,delaylearn,learning,feedback_image_window,MrbqHNmU1OezrLBl7sSEpyzQFbk1,MrbqHNmU1OezrLBl7sSEpyzQFbk1,,,,,,,,,,,,,,,,,,,,,,5da41f84a39c100018614e31,16:46:12,27/03/2024
html-keyboard-response,127,240900,0.0-54.0,,"<div style=""font-size:100px;"">+</div>",,delaylearn,learning,ITI,MrbqHNmU1OezrLBl7sSEpyzQFbk1,MrbqHNmU1OezrLBl7sSEpyzQFbk1,,,,,,,,,,,,,,,,,,,1757.0,,,5da41f84a39c100018614e31,16:46:12,27/03/2024
html-keyboard-response,128,242464,0.0-55.0-0.0,1563.2999999970198,"<div style=""display: flex; flex-direction: column; align-items: center; margin-top: -40px;""><img src=""images/pattern_1.png"" style=""width: 234px; height: 230px; margin-top: -50px;""><div style=""display: flex; justify-content: space-between; margin-top: 33px;""><img src=""images/choice_trial_15.png"" style=""width: 408px; height: 417px; margin-right: 200px;""><img src=""images/choice_trial_6.png"" style=""width: 408px; height: 417px;""></div></div>",j,delaylearn,learning,trial,MrbqHNmU1OezrLBl7sSEpyzQFbk1,MrbqHNmU1OezrLBl7sSEpyzQFbk1,5.0,images/choice_trial_15.png,images/choice_trial_6.png,images/pattern_1.png,f,j,7000.0,15.0,6.0,1.0,1.0,24.0,1.0,0.0,6.0,130.0,,,,,,5da41f84a39c100018614e31,16:46:12,27/03/2024
html-keyboard-response,129,243466,0.0-55.0-1.0,,"<div style=""display: flex; flex-direction: column; align-items: center; margin-top: -40px;""><img src=""images/pattern_1.png"" style=""width: 234px; height: 230px; margin-top: -50px;""><div style=""display: flex; justify-content: space-between; margin-top: 33px;""><img src=""images/choice_trial_6.png"" style=""width: 408px; height: 417px; margin-left:608px;""></div></div>",,delaylearn,learning,display_response,MrbqHNmU1OezrLBl7sSEpyzQFbk1,MrbqHNmU1OezrLBl7sSEpyzQFbk1,,,,,,,,,,,,,,,,,chosen stimuli: images/choice_trial_6.png,,,,,5da41f84a39c100018614e31,16:46:12,27/03/2024
html-keyboard-response,130,250468,0.0-55.0-2.0,,,,delaylearn,learning,feedback_duration_window,MrbqHNmU1OezrLBl7sSEpyzQFbk1,MrbqHNmU1OezrLBl7sSEpyzQFbk1,,,,,,,,,,,,,,,,,,7000.0,,,,5da41f84a39c100018614e31,16:46:12,27/03/2024
html-keyboard-response,131,251970,0.0-55.0-3.0,,<div style='margin:auto;width: auto; font-size: 150%'><span style='font-weight: bold; font-size: 100px; color: red;'>0 points!</span><br><br></div>,,delaylearn,learning,feedback_image_window,MrbqHNmU1OezrLBl7sSEpyzQFbk1,MrbqHNmU1OezrLBl7sSEpyzQFbk1,,,,,,,,,,,,,,,,,,,,,,5da41f84a39c100018614e31,16:46:12,27/03/2024
html-keyboard-response,132,254076,0.0-56.0,,"<div style=""font-size:100px;"">+</div>",,delaylearn,learning,ITI,MrbqHNmU1OezrLBl7sSEpyzQFbk1,MrbqHNmU1OezrLBl7sSEpyzQFbk1,,,,,,,,,,,,,,,,,,,2104.0,,,5da41f84a39c100018614e31,16:46:12,27/03/2024
html-keyboard-response,133,254882,0.0-57.0-0.0,804.0999999940395,"<div style=""display: flex; flex-direction: column; align-items: center; margin-top: -40px;""><img src=""images/pattern_5.png"" style=""width: 234px; height: 230px; margin-top: -50px;""><div style=""display: flex; justify-content: space-between; margin-top: 33px;""><img src=""images/choice_trial_13.png"" style=""width: 408px; height: 417px; margin-right: 200px;""><img src=""images/choice_trial_7.png"" style=""width: 408px; height: 417px;""></div></div>",j,delaylearn,learning,trial,MrbqHNmU1OezrLBl7sSEpyzQFbk1,MrbqHNmU1OezrLBl7sSEpyzQFbk1,5.0,images/choice_trial_13.png,images/choice_trial_7.png,images/pattern_5.png,j,j,750.0,13.0,7.0,4.0,1.0,25.0,1.0,1.0,7.0,140.0,,,,,,5da41f84a39c100018614e31,16:46:12,27/03/2024
html-keyboard-response,134,255885,0.0-57.0-1.0,,"<div style=""display: flex; flex-direction: column; align-items: center; margin-top: -40px;""><img src=""images/pattern_5.png"" style=""width: 234px; height: 230px; margin-top: -50px;""><div style=""display: flex; justify-content: space-between; margin-top: 33px;""><img src=""images/choice_trial_7.png"" style=""width: 408px; height: 417px; margin-left:608px;""></div></div>",,delaylearn,learning,display_response,MrbqHNmU1OezrLBl7sSEpyzQFbk1,MrbqHNmU1OezrLBl7sSEpyzQFbk1,,,,,,,,,,,,,,,,,chosen stimuli: images/choice_trial_7.png,,,,,5da41f84a39c100018614e31,16:46:12,27/03/2024
html-keyboard-response,135,256637,0.0-57.0-2.0,,,,delaylearn,learning,feedback_duration_window,MrbqHNmU1OezrLBl7sSEpyzQFbk1,MrbqHNmU1OezrLBl7sSEpyzQFbk1,,,,,,,,,,,,,,,,,,750.0,,,,5da41f84a39c100018614e31,16:46:12,27/03/2024
html-keyboard-response,136,258140,0.0-57.0-3.0,,<div style='margin:auto;width: auto; font-size: 150%'><span style='font-weight: bold; font-size: 100px; color: green;'>+10 points!</span><br><br></div>,,delaylearn,learning,feedback_image_window,MrbqHNmU1OezrLBl7sSEpyzQFbk1,MrbqHNmU1OezrLBl7sSEpyzQFbk1,,,,,,,,,,,,,,,,,,,,,,5da41f84a39c100018614e31,16:46:12,27/03/2024
html-keyboard-response,137,260106,0.0-58.0,,"<div style=""font-size:100px;"">+</div>",,delaylearn,learning,ITI,MrbqHNmU1OezrLBl7sSEpyzQFbk1,MrbqHNmU1OezrLBl7sSEpyzQFbk1,,,,,,,,,,,,,,,,,,,1965.0,,,5da41f84a39c100018614e31,16:46:12,27/03/2024
html-keyboard-response,138,261725,0.0-59.0-0.0,1616.5,"<div style=""display: flex; flex-direction: column; align-items: center; margin-top: -40px;""><img src=""images/pattern_3.png"" style=""width: 234px; height: 230px; margin-top: -50px;""><div style=""display: flex; justify-content: space-between; margin-top: 33px;""><img src=""images/choice_trial_2.png"" style=""width: 408px; height: 417px; margin-right: 200px;""><img src=""images/choice_trial_16.png"" style=""width: 408px; height: 417px;""></div></div>",j,delaylearn,learning,trial,MrbqHNmU1OezrLBl7sSEpyzQFbk1,MrbqHNmU1OezrLBl7sSEpyzQFbk1,5.0,images/choice_trial_2.png,images/choice_trial_16.png,images/pattern_3.png,j,j,7000.0,2.0,16.0,2.0,1.0,26.0,1.0,1.0,16.0,150.0,,,,,,5da41f84a39c100018614e31,16:46:12,27/03/2024
html-keyboard-response,139,262728,0.0-59.0-1.0,,"<div style=""display: flex; flex-direction: column; align-items: center; margin-top: -40px;""><img src=""images/pattern_3.png"" style=""width: 234px; height: 230px; margin-top: -50px;""><div style=""display: flex; justify-content: space-between; margin-top: 33px;""><img src=""images/choice_trial_16.png"" style=""width: 408px; height: 417px; margin-left:608px;""></div></div>",,delaylearn,learning,display_response,MrbqHNmU1OezrLBl7sSEpyzQFbk1,MrbqHNmU1OezrLBl7sSEpyzQFbk1,,,,,,,,,,,,,,,,,chosen stimuli: images/choice_trial_16.png,,,,,5da41f84a39c100018614e31,16:46:12,27/03/2024
html-keyboard-response,140,269730,0.0-59.0-2.0,,,,delaylearn,learning,feedback_duration_window,MrbqHNmU1OezrLBl7sSEpyzQFbk1,MrbqHNmU1OezrLBl7sSEpyzQFbk1,,,,,,,,,,,,,,,,,,7000.0,,,,5da41f84a39c100018614e31,16:46:12,27/03/2024
html-keyboard-response,141,271233,0.0-59.0-3.0,,<div style='margin:auto;width: auto; font-size: 150%'><span style='font-weight: bold; font-size: 100px; color: green;'>+10 points!</span><br><br></div>,,delaylearn,learning,feedback_image_window,MrbqHNmU1OezrLBl7sSEpyzQFbk1,MrbqHNmU1OezrLBl7sSEpyzQFbk1,,,,,,,,,,,,,,,,,,,,,,5da41f84a39c100018614e31,16:46:12,27/03/2024
lmdlab-html-vas-response,142,275797,0.0-60.0-0.0,3056.0,*How <b><u>confident</u></b> are you feeling about your answers at this moment?*,0.6270833333333333,rewlearn,rate_confidence,,MrbqHNmU1OezrLBl7sSEpyzQFbk1,MrbqHNmU1OezrLBl7sSEpyzQFbk1,,,,,,,,,,,,,,,,,,,,"['No confidence', 'Complete confidence']",,5da41f84a39c100018614e31,16:46:12,27/03/2024
lmdlab-rest-trial-limit,143,282020,0.0-60.0-1.0,4718.89999999851,"<div style=""font-size:40px;""><b>Please take a break!</b><br><br><br><br><p>Great work: you earned 150 points.<br><br><br><p>You have completed part(s) 1 of 5.<br><br><br><br>When you are ready to continue<br><br><br>please click the button.</p><br><br>",0,delaylearn,learning,break,MrbqHNmU1OezrLBl7sSEpyzQFbk1,MrbqHNmU1OezrLBl7sSEpyzQFbk1,,,,,,,,,,,,,,,,,,,,,0.0,5da41f84a39c100018614e31,16:46:12,27/03/2024
html-keyboard-response,144,285023,0.0-60.0-2.0,,"<div style=""font-size:100px;"">+</div>",,delaylearn,learning,pre_fixation,MrbqHNmU1OezrLBl7sSEpyzQFbk1,,,,,,,,,,,,,,,,,,,,,,,5da41f84a39c100018614e31,16:46:12,27/03/2024
lmdlab-html-vas-response,145,288618,0.0-60.0-3.0-0.0,2591.0,How happy are you right now?,0.6729166666666667,delaylearn,learning,mood_baseline,MrbqHNmU1OezrLBl7sSEpyzQFbk1,MrbqHNmU1OezrLBl7sSEpyzQFbk1,,,,,,,,,,,,,,,,,,,,"['Very unhappy', 'Very happy']",,5da41f84a39c100018614e31,16:46:12,27/03/2024
html-keyboard-response,146,290121,0.0-60.0-3.0-1.0,,,,,,mood_baseline_fixation,MrbqHNmU1OezrLBl7sSEpyzQFbk1,,,,,,,,,,,,,,,,,,,,,,,5da41f84a39c100018614e31,16:46:12,27/03/2024
html-keyboard-response,147,291942,0.0-61.0,,"<div style=""font-size:100px;"">+</div>",,delaylearn,learning,ITI,MrbqHNmU1OezrLBl7sSEpyzQFbk1,MrbqHNmU1OezrLBl7sSEpyzQFbk1,,,,,,,,,,,,,,,,,,,1818.0,,,5da41f84a39c100018614e31,16:46:12,27/03/2024
html-keyboard-response,148,292929,0.0-62.0-0.0,985.0999999940395,"<div style=""display: flex; flex-direction: column; align-items: center; margin-top: -40px;""><img src=""images/pattern_7.png"" style=""width: 234px; height: 230px; margin-top: -50px;""><div style=""display: flex; justify-content: space-between; margin-top: 33px;""><img src=""images/choice_trial_10.png"" style=""width: 408px; height: 417px; margin-right: 200px;""><img src=""images/choice_trial_8.png"" style=""width: 408px; height: 417px;""></div></div>",f,delaylearn,learning,trial,MrbqHNmU1OezrLBl7sSEpyzQFbk1,MrbqHNmU1OezrLBl7sSEpyzQFbk1,5.0,images/choice_trial_10.png,images/choice_trial_8.png,images/pattern_7.png,j,j,750.0,10.0,8.0,6.0,1.0,27.0,0.0,0.0,10.0,150.0,,,,,,5da41f84a39c100018614e31,16:46:12,27/03/2024
html-keyboard-response,149,293931,0.0-62.0-1.0,,"<div style=""display: flex; flex-direction: column; align-items: center; margin-top: -40px;""><img src=""images/pattern_7.png"" style=""width: 234px; height: 230px; margin-top: -50px;""><div style=""display: flex; justify-content: space-between; margin-top: 33px;""><img src=""images/choice_trial_10.png"" style=""width: 408px; height: 417px; margin-right: 608px;""></div></div>",,delaylearn,learning,display_response,MrbqHNmU1OezrLBl7sSEpyzQFbk1,MrbqHNmU1OezrLBl7sSEpyzQFbk1,,,,,,,,,,,,,,,,,chosen stimuli: images/choice_trial_10.png,,,,,5da41f84a39c100018614e31,16:46:12,27/03/2024
html-keyboard-response,150,294684,0.0-62.0-2.0,,,,delaylearn,learning,feedback_duration_window,MrbqHNmU1OezrLBl7sSEpyzQFbk1,MrbqHNmU1OezrLBl7sSEpyzQFbk1,,,,,,,,,,,,,,,,,,750.0,,,,5da41f84a39c100018614e31,16:46:12,27/03/2024
html-keyboard-response,151,296187,0.0-62.0-3.0,,<div style='margin:auto;width: auto; font-size: 150%'><span style='font-weight: bold; font-size: 100px; color: red;'>0 points!</span><br><br></div>,,delaylearn,learning,feedback_image_window,MrbqHNmU1OezrLBl7sSEpyzQFbk1,MrbqHNmU1OezrLBl7sSEpyzQFbk1,,,,,,,,,,,,,,,,,,,,,,5da41f84a39c100018614e31,16:46:12,27/03/2024
html-keyboard-response,152,296690,0.0-63.0-0.0,,,,,,mood_trial_fixation,MrbqHNmU1OezrLBl7sSEpyzQFbk1,,,,,,,,,,,,,,,,,,,,,,,5da41f84a39c100018614e31,16:46:12,27/03/2024
lmdlab-html-vas-response,153,299694,0.0-63.0-1.0,2000.0,How happy are you right now?,0.7166666666666667,delaylearn,learning,mood_trial,MrbqHNmU1OezrLBl7sSEpyzQFbk1,MrbqHNmU1OezrLBl7sSEpyzQFbk1,,,,,,,,,,,,,,,,,,,,"['Very unhappy', 'Very happy']",,5da41f84a39c100018614e31,16:46:12,27/03/2024
html-keyboard-response,154,301546,0.0-64.0,,"<div style=""font-size:100px;"">+</div>",,delaylearn,learning,ITI,MrbqHNmU1OezrLBl7sSEpyzQFbk1,MrbqHNmU1OezrLBl7sSEpyzQFbk1,,,,,,,,,,,,,,,,,,,1851.0,,,5da41f84a39c100018614e31,16:46:12,27/03/2024
html-keyboard-response,155,302819,0.0-65.0-0.0,1271.3000000044703,"<div style=""display: flex; flex-direction: column; align-items: center; margin-top: -40px;""><img src=""images/pattern_1.png"" style=""width: 234px; height: 230px; margin-top: -50px;""><div style=""display: flex; justify-content: space-between; margin-top: 33px;""><img src=""images/choice_trial_6.png"" style=""width: 408px; height: 417px; margin-right: 200px;""><img src=""images/choice_trial_15.png"" style=""width: 408px; height: 417px;""></div></div>",f,delaylearn,learning,trial,MrbqHNmU1OezrLBl7sSEpyzQFbk1,MrbqHNmU1OezrLBl7sSEpyzQFbk1,5.0,images/choice_trial_6.png,images/choice_trial_15.png,images/pattern_1.png,f,f,7000.0,6.0,15.0,1.0,0.0,28.0,1.0,1.0,6.0,160.0,,,,,,5da41f84a39c100018614e31,16:46:12,27/03/2024
html-keyboard-response,156,303822,0.0-65.0-1.0,,"<div style=""display: flex; flex-direction: column; align-items: center; margin-top: -40px;""><img src=""images/pattern_1.png"" style=""width: 234px; height: 230px; margin-top: -50px;""><div style=""display: flex; justify-content: space-between; margin-top: 33px;""><img src=""images/choice_trial_6.png"" style=""width: 408px; height: 417px; margin-right: 608px;""></div></div>",,delaylearn,learning,display_response,MrbqHNmU1OezrLBl7sSEpyzQFbk1,MrbqHNmU1OezrLBl7sSEpyzQFbk1,,,,,,,,,,,,,,,,,chosen stimuli: images/choice_trial_6.png,,,,,5da41f84a39c100018614e31,16:46:12,27/03/2024
html-keyboard-response,157,310824,0.0-65.0-2.0,,,,delaylearn,learning,feedback_duration_window,MrbqHNmU1OezrLBl7sSEpyzQFbk1,MrbqHNmU1OezrLBl7sSEpyzQFbk1,,,,,,,,,,,,,,,,,,7000.0,,,,5da41f84a39c100018614e31,16:46:12,27/03/2024
html-keyboard-response,158,312326,0.0-65.0-3.0,,<div style='margin:auto;width: auto; font-size: 150%'><span style='font-weight: bold; font-size: 100px; color: green;'>+10 points!</span><br><br></div>,,delaylearn,learning,feedback_image_window,MrbqHNmU1OezrLBl7sSEpyzQFbk1,MrbqHNmU1OezrLBl7sSEpyzQFbk1,,,,,,,,,,,,,,,,,,,,,,5da41f84a39c100018614e31,16:46:12,27/03/2024
html-keyboard-response,159,314329,0.0-66.0,,"<div style=""font-size:100px;"">+</div>",,delaylearn,learning,ITI,MrbqHNmU1OezrLBl7sSEpyzQFbk1,MrbqHNmU1OezrLBl7sSEpyzQFbk1,,,,,,,,,,,,,,,,,,,2001.0,,,5da41f84a39c100018614e31,16:46:12,27/03/2024
html-keyboard-response,160,315340,0.0-67.0-0.0,1008.5,"<div style=""display: flex; flex-direction: column; align-items: center; margin-top: -40px;""><img src=""images/pattern_5.png"" style=""width: 234px; height: 230px; margin-top: -50px;""><div style=""display: flex; justify-content: space-between; margin-top: 33px;""><img src=""images/choice_trial_7.png"" style=""width: 408px; height: 417px; margin-right: 200px;""><img src=""images/choice_trial_13.png"" style=""width: 408px; height: 417px;""></div></div>",f,delaylearn,learning,trial,MrbqHNmU1OezrLBl7sSEpyzQFbk1,MrbqHNmU1OezrLBl7sSEpyzQFbk1,5.0,images/choice_trial_7.png,images/choice_trial_13.png,images/pattern_5.png,f,f,750.0,7.0,13.0,4.0,0.0,29.0,1.0,1.0,7.0,170.0,,,,,,5da41f84a39c100018614e31,16:46:12,27/03/2024
html-keyboard-response,161,316343,0.0-67.0-1.0,,"<div style=""display: flex; flex-direction: column; align-items: center; margin-top: -40px;""><img src=""images/pattern_5.png"" style=""width: 234px; height: 230px; margin-top: -50px;""><div style=""display: flex; justify-content: space-between; margin-top: 33px;""><img src=""images/choice_trial_7.png"" style=""width: 408px; height: 417px; margin-right: 608px;""></div></div>",,delaylearn,learning,display_response,MrbqHNmU1OezrLBl7sSEpyzQFbk1,MrbqHNmU1OezrLBl7sSEpyzQFbk1,,,,,,,,,,,,,,,,,chosen stimuli: images/choice_trial_7.png,,,,,5da41f84a39c100018614e31,16:46:12,27/03/2024
html-keyboard-response,162,317095,0.0-67.0-2.0,,,,delaylearn,learning,feedback_duration_window,MrbqHNmU1OezrLBl7sSEpyzQFbk1,MrbqHNmU1OezrLBl7sSEpyzQFbk1,,,,,,,,,,,,,,,,,,750.0,,,,5da41f84a39c100018614e31,16:46:12,27/03/2024
html-keyboard-response,163,318598,0.0-67.0-3.0,,<div style='margin:auto;width: auto; font-size: 150%'><span style='font-weight: bold; font-size: 100px; color: green;'>+10 points!</span><br><br></div>,,delaylearn,learning,feedback_image_window,MrbqHNmU1OezrLBl7sSEpyzQFbk1,MrbqHNmU1OezrLBl7sSEpyzQFbk1,,,,,,,,,,,,,,,,,,,,,,5da41f84a39c100018614e31,16:46:12,27/03/2024
html-keyboard-response,164,320940,0.0-68.0,,"<div style=""font-size:100px;"">+</div>",,delaylearn,learning,ITI,MrbqHNmU1OezrLBl7sSEpyzQFbk1,MrbqHNmU1OezrLBl7sSEpyzQFbk1,,,,,,,,,,,,,,,,,,,2339.0,,,5da41f84a39c100018614e31,16:46:12,27/03/2024
html-keyboard-response,165,323338,0.0-69.0-0.0,2396.39999999851,"<div style=""display: flex; flex-direction: column; align-items: center; margin-top: -40px;""><img src=""images/pattern_6.png"" style=""width: 234px; height: 230px; margin-top: -50px;""><div style=""display: flex; justify-content: space-between; margin-top: 33px;""><img src=""images/choice_trial_9.png"" style=""width: 408px; height: 417px; margin-right: 200px;""><img src=""images/choice_trial_14.png"" style=""width: 408px; height: 417px;""></div></div>",j,delaylearn,learning,trial,MrbqHNmU1OezrLBl7sSEpyzQFbk1,MrbqHNmU1OezrLBl7sSEpyzQFbk1,5.0,images/choice_trial_9.png,images/choice_trial_14.png,images/pattern_6.png,j,j,750.0,9.0,14.0,5.0,1.0,30.0,1.0,1.0,14.0,180.0,,,,,,5da41f84a39c100018614e31,16:46:12,27/03/2024
html-keyboard-response,166,324341,0.0-69.0-1.0,,"<div style=""display: flex; flex-direction: column; align-items: center; margin-top: -40px;""><img src=""images/pattern_6.png"" style=""width: 234px; height: 230px; margin-top: -50px;""><div style=""display: flex; justify-content: space-between; margin-top: 33px;""><img src=""images/choice_trial_14.png"" style=""width: 408px; height: 417px; margin-left:608px;""></div></div>",,delaylearn,learning,display_response,MrbqHNmU1OezrLBl7sSEpyzQFbk1,MrbqHNmU1OezrLBl7sSEpyzQFbk1,,,,,,,,,,,,,,,,,chosen stimuli: images/choice_trial_14.png,,,,,5da41f84a39c100018614e31,16:46:12,27/03/2024
html-keyboard-response,167,325093,0.0-69.0-2.0,,,,delaylearn,learning,feedback_duration_window,MrbqHNmU1OezrLBl7sSEpyzQFbk1,MrbqHNmU1OezrLBl7sSEpyzQFbk1,,,,,,,,,,,,,,,,,,750.0,,,,5da41f84a39c100018614e31,16:46:12,27/03/2024
html-keyboard-response,168,326597,0.0-69.0-3.0,,<div style='margin:auto;width: auto; font-size: 150%'><span style='font-weight: bold; font-size: 100px; color: green;'>+10 points!</span><br><br></div>,,delaylearn,learning,feedback_image_window,MrbqHNmU1OezrLBl7sSEpyzQFbk1,MrbqHNmU1OezrLBl7sSEpyzQFbk1,,,,,,,,,,,,,,,,,,,,,,5da41f84a39c100018614e31,16:46:12,27/03/2024
html-keyboard-response,169,327099,0.0-70.0-0.0,,,,,,mood_trial_fixation,MrbqHNmU1OezrLBl7sSEpyzQFbk1,,,,,,,,,,,,,,,,,,,,,,,5da41f84a39c100018614e31,16:46:12,27/03/2024
lmdlab-html-vas-response,170,330452,0.0-70.0-1.0,2349.0,How happy are you right now?,0.7083333333333334,delaylearn,learning,mood_trial,MrbqHNmU1OezrLBl7sSEpyzQFbk1,MrbqHNmU1OezrLBl7sSEpyzQFbk1,,,,,,,,,,,,,,,,,,,,"['Very unhappy', 'Very happy']",,5da41f84a39c100018614e31,16:46:12,27/03/2024
html-keyboard-response,171,332471,0.0-71.0,,"<div style=""font-size:100px;"">+</div>",,delaylearn,learning,ITI,MrbqHNmU1OezrLBl7sSEpyzQFbk1,MrbqHNmU1OezrLBl7sSEpyzQFbk1,,,,,,,,,,,,,,,,,,,2016.0,,,5da41f84a39c100018614e31,16:46:12,27/03/2024
html-keyboard-response,172,333414,0.0-72.0-0.0,941.0,"<div style=""display: flex; flex-direction: column; align-items: center; margin-top: -40px;""><img src=""images/pattern_4.png"" style=""width: 234px; height: 230px; margin-top: -50px;""><div style=""display: flex; justify-content: space-between; margin-top: 33px;""><img src=""images/choice_trial_4.png"" style=""width: 408px; height: 417px; margin-right: 200px;""><img src=""images/choice_trial_11.png"" style=""width: 408px; height: 417px;""></div></div>",j,delaylearn,learning,trial,MrbqHNmU1OezrLBl7sSEpyzQFbk1,MrbqHNmU1OezrLBl7sSEpyzQFbk1,5.0,images/choice_trial_4.png,images/choice_trial_11.png,images/pattern_4.png,j,j,7000.0,4.0,11.0,3.0,1.0,31.0,1.0,1.0,11.0,190.0,,,,,,5da41f84a39c100018614e31,16:46:12,27/03/2024
html-keyboard-response,173,334417,0.0-72.0-1.0,,"<div style=""display: flex; flex-direction: column; align-items: center; margin-top: -40px;""><img src=""images/pattern_4.png"" style=""width: 234px; height: 230px; margin-top: -50px;""><div style=""display: flex; justify-content: space-between; margin-top: 33px;""><img src=""images/choice_trial_11.png"" style=""width: 408px; height: 417px; margin-left:608px;""></div></div>",,delaylearn,learning,display_response,MrbqHNmU1OezrLBl7sSEpyzQFbk1,MrbqHNmU1OezrLBl7sSEpyzQFbk1,,,,,,,,,,,,,,,,,chosen stimuli: images/choice_trial_11.png,,,,,5da41f84a39c100018614e31,16:46:12,27/03/2024
html-keyboard-response,174,341419,0.0-72.0-2.0,,,,delaylearn,learning,feedback_duration_window,MrbqHNmU1OezrLBl7sSEpyzQFbk1,MrbqHNmU1OezrLBl7sSEpyzQFbk1,,,,,,,,,,,,,,,,,,7000.0,,,,5da41f84a39c100018614e31,16:46:12,27/03/2024
html-keyboard-response,175,342922,0.0-72.0-3.0,,<div style='margin:auto;width: auto; font-size: 150%'><span style='font-weight: bold; font-size: 100px; color: green;'>+10 points!</span><br><br></div>,,delaylearn,learning,feedback_image_window,MrbqHNmU1OezrLBl7sSEpyzQFbk1,MrbqHNmU1OezrLBl7sSEpyzQFbk1,,,,,,,,,,,,,,,,,,,,,,5da41f84a39c100018614e31,16:46:12,27/03/2024
html-keyboard-response,176,345064,0.0-73.0,,"<div style=""font-size:100px;"">+</div>",,delaylearn,learning,ITI,MrbqHNmU1OezrLBl7sSEpyzQFbk1,MrbqHNmU1OezrLBl7sSEpyzQFbk1,,,,,,,,,,,,,,,,,,,2140.0,,,5da41f84a39c100018614e31,16:46:12,27/03/2024
html-keyboard-response,177,346928,0.0-74.0-0.0,1862.4000000059605,"<div style=""display: flex; flex-direction: column; align-items: center; margin-top: -40px;""><img src=""images/pattern_3.png"" style=""width: 234px; height: 230px; margin-top: -50px;""><div style=""display: flex; justify-content: space-between; margin-top: 33px;""><img src=""images/choice_trial_2.png"" style=""width: 408px; height: 417px; margin-right: 200px;""><img src=""images/choice_trial_16.png"" style=""width: 408px; height: 417px;""></div></div>",j,delaylearn,learning,trial,MrbqHNmU1OezrLBl7sSEpyzQFbk1,MrbqHNmU1OezrLBl7sSEpyzQFbk1,5.0,images/choice_trial_2.png,images/choice_trial_16.png,images/pattern_3.png,j,j,7000.0,2.0,16.0,2.0,1.0,32.0,1.0,1.0,16.0,200.0,,,,,,5da41f84a39c100018614e31,16:46:12,27/03/2024
html-keyboard-response,178,347930,0.0-74.0-1.0,,"<div style=""display: flex; flex-direction: column; align-items: center; margin-top: -40px;""><img src=""images/pattern_3.png"" style=""width: 234px; height: 230px; margin-top: -50px;""><div style=""display: flex; justify-content: space-between; margin-top: 33px;""><img src=""images/choice_trial_16.png"" style=""width: 408px; height: 417px; margin-left:608px;""></div></div>",,delaylearn,learning,display_response,MrbqHNmU1OezrLBl7sSEpyzQFbk1,MrbqHNmU1OezrLBl7sSEpyzQFbk1,,,,,,,,,,,,,,,,,chosen stimuli: images/choice_trial_16.png,,,,,5da41f84a39c100018614e31,16:46:12,27/03/2024
html-keyboard-response,179,354933,0.0-74.0-2.0,,,,delaylearn,learning,feedback_duration_window,MrbqHNmU1OezrLBl7sSEpyzQFbk1,MrbqHNmU1OezrLBl7sSEpyzQFbk1,,,,,,,,,,,,,,,,,,7000.0,,,,5da41f84a39c100018614e31,16:46:12,27/03/2024
html-keyboard-response,180,356435,0.0-74.0-3.0,,<div style='margin:auto;width: auto; font-size: 150%'><span style='font-weight: bold; font-size: 100px; color: green;'>+10 points!</span><br><br></div>,,delaylearn,learning,feedback_image_window,MrbqHNmU1OezrLBl7sSEpyzQFbk1,MrbqHNmU1OezrLBl7sSEpyzQFbk1,,,,,,,,,,,,,,,,,,,,,,5da41f84a39c100018614e31,16:46:12,27/03/2024
html-keyboard-response,181,358173,0.0-75.0,,"<div style=""font-size:100px;"">+</div>",,delaylearn,learning,ITI,MrbqHNmU1OezrLBl7sSEpyzQFbk1,MrbqHNmU1OezrLBl7sSEpyzQFbk1,,,,,,,,,,,,,,,,,,,1736.0,,,5da41f84a39c100018614e31,16:46:12,27/03/2024
html-keyboard-response,182,359112,0.0-76.0-0.0,936.6000000014901,"<div style=""display: flex; flex-direction: column; align-items: center; margin-top: -40px;""><img src=""images/pattern_5.png"" style=""width: 234px; height: 230px; margin-top: -50px;""><div style=""display: flex; justify-content: space-between; margin-top: 33px;""><img src=""images/choice_trial_7.png"" style=""width: 408px; height: 417px; margin-right: 200px;""><img src=""images/choice_trial_13.png"" style=""width: 408px; height: 417px;""></div></div>",f,delaylearn,learning,trial,MrbqHNmU1OezrLBl7sSEpyzQFbk1,MrbqHNmU1OezrLBl7sSEpyzQFbk1,5.0,images/choice_trial_7.png,images/choice_trial_13.png,images/pattern_5.png,j,f,750.0,7.0,13.0,4.0,0.0,33.0,1.0,0.0,7.0,200.0,,,,,,5da41f84a39c100018614e31,16:46:12,27/03/2024
html-keyboard-response,183,360115,0.0-76.0-1.0,,"<div style=""display: flex; flex-direction: column; align-items: center; margin-top: -40px;""><img src=""images/pattern_5.png"" style=""width: 234px; height: 230px; margin-top: -50px;""><div style=""display: flex; justify-content: space-between; margin-top: 33px;""><img src=""images/choice_trial_7.png"" style=""width: 408px; height: 417px; margin-right: 608px;""></div></div>",,delaylearn,learning,display_response,MrbqHNmU1OezrLBl7sSEpyzQFbk1,MrbqHNmU1OezrLBl7sSEpyzQFbk1,,,,,,,,,,,,,,,,,chosen stimuli: images/choice_trial_7.png,,,,,5da41f84a39c100018614e31,16:46:12,27/03/2024
html-keyboard-response,184,360867,0.0-76.0-2.0,,,,delaylearn,learning,feedback_duration_window,MrbqHNmU1OezrLBl7sSEpyzQFbk1,MrbqHNmU1OezrLBl7sSEpyzQFbk1,,,,,,,,,,,,,,,,,,750.0,,,,5da41f84a39c100018614e31,16:46:12,27/03/2024
html-keyboard-response,185,362370,0.0-76.0-3.0,,<div style='margin:auto;width: auto; font-size: 150%'><span style='font-weight: bold; font-size: 100px; color: red;'>0 points!</span><br><br></div>,,delaylearn,learning,feedback_image_window,MrbqHNmU1OezrLBl7sSEpyzQFbk1,MrbqHNmU1OezrLBl7sSEpyzQFbk1,,,,,,,,,,,,,,,,,,,,,,5da41f84a39c100018614e31,16:46:12,27/03/2024
html-keyboard-response,186,364711,0.0-77.0,,"<div style=""font-size:100px;"">+</div>",,delaylearn,learning,ITI,MrbqHNmU1OezrLBl7sSEpyzQFbk1,MrbqHNmU1OezrLBl7sSEpyzQFbk1,,,,,,,,,,,,,,,,,,,2338.0,,,5da41f84a39c100018614e31,16:46:12,27/03/2024
html-keyboard-response,187,366080,0.0-78.0-0.0,1367.1000000014901,"<div style=""display: flex; flex-direction: column; align-items: center; margin-top: -40px;""><img src=""images/pattern_1.png"" style=""width: 234px; height: 230px; margin-top: -50px;""><div style=""display: flex; justify-content: space-between; margin-top: 33px;""><img src=""images/choice_trial_6.png"" style=""width: 408px; height: 417px; margin-right: 200px;""><img src=""images/choice_trial_15.png"" style=""width: 408px; height: 417px;""></div></div>",f,delaylearn,learning,trial,MrbqHNmU1OezrLBl7sSEpyzQFbk1,MrbqHNmU1OezrLBl7sSEpyzQFbk1,5.0,images/choice_trial_6.png,images/choice_trial_15.png,images/pattern_1.png,f,f,7000.0,6.0,15.0,1.0,0.0,34.0,1.0,1.0,6.0,210.0,,,,,,5da41f84a39c100018614e31,16:46:12,27/03/2024
html-keyboard-response,188,367083,0.0-78.0-1.0,,"<div style=""display: flex; flex-direction: column; align-items: center; margin-top: -40px;""><img src=""images/pattern_1.png"" style=""width: 234px; height: 230px; margin-top: -50px;""><div style=""display: flex; justify-content: space-between; margin-top: 33px;""><img src=""images/choice_trial_6.png"" style=""width: 408px; height: 417px; margin-right: 608px;""></div></div>",,delaylearn,learning,display_response,MrbqHNmU1OezrLBl7sSEpyzQFbk1,MrbqHNmU1OezrLBl7sSEpyzQFbk1,,,,,,,,,,,,,,,,,chosen stimuli: images/choice_trial_6.png,,,,,5da41f84a39c100018614e31,16:46:12,27/03/2024
html-keyboard-response,189,374086,0.0-78.0-2.0,,,,delaylearn,learning,feedback_duration_window,MrbqHNmU1OezrLBl7sSEpyzQFbk1,MrbqHNmU1OezrLBl7sSEpyzQFbk1,,,,,,,,,,,,,,,,,,7000.0,,,,5da41f84a39c100018614e31,16:46:12,27/03/2024
html-keyboard-response,190,375589,0.0-78.0-3.0,,<div style='margin:auto;width: auto; font-size: 150%'><span style='font-weight: bold; font-size: 100px; color: green;'>+10 points!</span><br><br></div>,,delaylearn,learning,feedback_image_window,MrbqHNmU1OezrLBl7sSEpyzQFbk1,MrbqHNmU1OezrLBl7sSEpyzQFbk1,,,,,,,,,,,,,,,,,,,,,,5da41f84a39c100018614e31,16:46:12,27/03/2024
html-keyboard-response,191,376092,0.0-79.0-0.0,,,,,,mood_trial_fixation,MrbqHNmU1OezrLBl7sSEpyzQFbk1,,,,,,,,,,,,,,,,,,,,,,,5da41f84a39c100018614e31,16:46:12,27/03/2024
lmdlab-html-vas-response,192,379567,0.0-79.0-1.0,2471.0,How happy are you right now?,0.7520833333333333,delaylearn,learning,mood_trial,MrbqHNmU1OezrLBl7sSEpyzQFbk1,MrbqHNmU1OezrLBl7sSEpyzQFbk1,,,,,,,,,,,,,,,,,,,,"['Very unhappy', 'Very happy']",,5da41f84a39c100018614e31,16:46:12,27/03/2024
html-keyboard-response,193,381619,0.0-80.0,,"<div style=""font-size:100px;"">+</div>",,delaylearn,learning,ITI,MrbqHNmU1OezrLBl7sSEpyzQFbk1,MrbqHNmU1OezrLBl7sSEpyzQFbk1,,,,,,,,,,,,,,,,,,,2050.0,,,5da41f84a39c100018614e31,16:46:12,27/03/2024
html-keyboard-response,194,383166,0.0-81.0-0.0,1545.1000000014901,"<div style=""display: flex; flex-direction: column; align-items: center; margin-top: -40px;""><img src=""images/pattern_6.png"" style=""width: 234px; height: 230px; margin-top: -50px;""><div style=""display: flex; justify-content: space-between; margin-top: 33px;""><img src=""images/choice_trial_14.png"" style=""width: 408px; height: 417px; margin-right: 200px;""><img src=""images/choice_trial_9.png"" style=""width: 408px; height: 417px;""></div></div>",j,delaylearn,learning,trial,MrbqHNmU1OezrLBl7sSEpyzQFbk1,MrbqHNmU1OezrLBl7sSEpyzQFbk1,5.0,images/choice_trial_14.png,images/choice_trial_9.png,images/pattern_6.png,j,f,750.0,14.0,9.0,5.0,0.0,35.0,0.0,1.0,9.0,220.0,,,,,,5da41f84a39c100018614e31,16:46:12,27/03/2024
html-keyboard-response,195,384168,0.0-81.0-1.0,,"<div style=""display: flex; flex-direction: column; align-items: center; margin-top: -40px;""><img src=""images/pattern_6.png"" style=""width: 234px; height: 230px; margin-top: -50px;""><div style=""display: flex; justify-content: space-between; margin-top: 33px;""><img src=""images/choice_trial_9.png"" style=""width: 408px; height: 417px; margin-left:608px;""></div></div>",,delaylearn,learning,display_response,MrbqHNmU1OezrLBl7sSEpyzQFbk1,MrbqHNmU1OezrLBl7sSEpyzQFbk1,,,,,,,,,,,,,,,,,chosen stimuli: images/choice_trial_9.png,,,,,5da41f84a39c100018614e31,16:46:12,27/03/2024
html-keyboard-response,196,384921,0.0-81.0-2.0,,,,delaylearn,learning,feedback_duration_window,MrbqHNmU1OezrLBl7sSEpyzQFbk1,MrbqHNmU1OezrLBl7sSEpyzQFbk1,,,,,,,,,,,,,,,,,,750.0,,,,5da41f84a39c100018614e31,16:46:12,27/03/2024
html-keyboard-response,197,386424,0.0-81.0-3.0,,<div style='margin:auto;width: auto; font-size: 150%'><span style='font-weight: bold; font-size: 100px; color: green;'>+10 points!</span><br><br></div>,,delaylearn,learning,feedback_image_window,MrbqHNmU1OezrLBl7sSEpyzQFbk1,MrbqHNmU1OezrLBl7sSEpyzQFbk1,,,,,,,,,,,,,,,,,,,,,,5da41f84a39c100018614e31,16:46:12,27/03/2024
html-keyboard-response,198,388113,0.0-82.0,,"<div style=""font-size:100px;"">+</div>",,delaylearn,learning,ITI,MrbqHNmU1OezrLBl7sSEpyzQFbk1,MrbqHNmU1OezrLBl7sSEpyzQFbk1,,,,,,,,,,,,,,,,,,,1686.0,,,5da41f84a39c100018614e31,16:46:12,27/03/2024
html-keyboard-response,199,389236,0.0-83.0-0.0,1120.7999999970198,"<div style=""display: flex; flex-direction: column; align-items: center; margin-top: -40px;""><img src=""images/pattern_3.png"" style=""width: 234px; height: 230px; margin-top: -50px;""><div style=""display: flex; justify-content: space-between; margin-top: 33px;""><img src=""images/choice_trial_2.png"" style=""width: 408px; height: 417px; margin-right: 200px;""><img src=""images/choice_trial_16.png"" style=""width: 408px; height: 417px;""></div></div>",j,delaylearn,learning,trial,MrbqHNmU1OezrLBl7sSEpyzQFbk1,MrbqHNmU1OezrLBl7sSEpyzQFbk1,5.0,images/choice_trial_2.png,images/choice_trial_16.png,images/pattern_3.png,j,j,7000.0,2.0,16.0,2.0,1.0,36.0,1.0,1.0,16.0,230.0,,,,,,5da41f84a39c100018614e31,16:46:12,27/03/2024
html-keyboard-response,200,390238,0.0-83.0-1.0,,"<div style=""display: flex; flex-direction: column; align-items: center; margin-top: -40px;""><img src=""images/pattern_3.png"" style=""width: 234px; height: 230px; margin-top: -50px;""><div style=""display: flex; justify-content: space-between; margin-top: 33px;""><img src=""images/choice_trial_16.png"" style=""width: 408px; height: 417px; margin-left:608px;""></div></div>",,delaylearn,learning,display_response,MrbqHNmU1OezrLBl7sSEpyzQFbk1,MrbqHNmU1OezrLBl7sSEpyzQFbk1,,,,,,,,,,,,,,,,,chosen stimuli: images/choice_trial_16.png,,,,,5da41f84a39c100018614e31,16:46:12,27/03/2024
html-keyboard-response,201,397240,0.0-83.0-2.0,,,,delaylearn,learning,feedback_duration_window,MrbqHNmU1OezrLBl7sSEpyzQFbk1,MrbqHNmU1OezrLBl7sSEpyzQFbk1,,,,,,,,,,,,,,,,,,7000.0,,,,5da41f84a39c100018614e31,16:46:12,27/03/2024
html-keyboard-response,202,398743,0.0-83.0-3.0,,<div style='margin:auto;width: auto; font-size: 150%'><span style='font-weight: bold; font-size: 100px; color: green;'>+10 points!</span><br><br></div>,,delaylearn,learning,feedback_image_window,MrbqHNmU1OezrLBl7sSEpyzQFbk1,MrbqHNmU1OezrLBl7sSEpyzQFbk1,,,,,,,,,,,,,,,,,,,,,,5da41f84a39c100018614e31,16:46:12,27/03/2024
html-keyboard-response,203,400657,0.0-84.0,,"<div style=""font-size:100px;"">+</div>",,delaylearn,learning,ITI,MrbqHNmU1OezrLBl7sSEpyzQFbk1,MrbqHNmU1OezrLBl7sSEpyzQFbk1,,,,,,,,,,,,,,,,,,,1912.0,,,5da41f84a39c100018614e31,16:46:12,27/03/2024
html-keyboard-response,204,401534,0.0-85.0-0.0,874.1000000014901,"<div style=""display: flex; flex-direction: column; align-items: center; margin-top: -40px;""><img src=""images/pattern_4.png"" style=""width: 234px; height: 230px; margin-top: -50px;""><div style=""display: flex; justify-content: space-between; margin-top: 33px;""><img src=""images/choice_trial_4.png"" style=""width: 408px; height: 417px; margin-right: 200px;""><img src=""images/choice_trial_11.png"" style=""width: 408px; height: 417px;""></div></div>",j,delaylearn,learning,trial,MrbqHNmU1OezrLBl7sSEpyzQFbk1,MrbqHNmU1OezrLBl7sSEpyzQFbk1,5.0,images/choice_trial_4.png,images/choice_trial_11.png,images/pattern_4.png,f,j,7000.0,4.0,11.0,3.0,1.0,37.0,1.0,0.0,11.0,230.0,,,,,,5da41f84a39c100018614e31,16:46:12,27/03/2024
html-keyboard-response,205,402537,0.0-85.0-1.0,,"<div style=""display: flex; flex-direction: column; align-items: center; margin-top: -40px;""><img src=""images/pattern_4.png"" style=""width: 234px; height: 230px; margin-top: -50px;""><div style=""display: flex; justify-content: space-between; margin-top: 33px;""><img src=""images/choice_trial_11.png"" style=""width: 408px; height: 417px; margin-left:608px;""></div></div>",,delaylearn,learning,display_response,MrbqHNmU1OezrLBl7sSEpyzQFbk1,MrbqHNmU1OezrLBl7sSEpyzQFbk1,,,,,,,,,,,,,,,,,chosen stimuli: images/choice_trial_11.png,,,,,5da41f84a39c100018614e31,16:46:12,27/03/2024
html-keyboard-response,206,409539,0.0-85.0-2.0,,,,delaylearn,learning,feedback_duration_window,MrbqHNmU1OezrLBl7sSEpyzQFbk1,MrbqHNmU1OezrLBl7sSEpyzQFbk1,,,,,,,,,,,,,,,,,,7000.0,,,,5da41f84a39c100018614e31,16:46:12,27/03/2024
html-keyboard-response,207,411042,0.0-85.0-3.0,,<div style='margin:auto;width: auto; font-size: 150%'><span style='font-weight: bold; font-size: 100px; color: red;'>0 points!</span><br><br></div>,,delaylearn,learning,feedback_image_window,MrbqHNmU1OezrLBl7sSEpyzQFbk1,MrbqHNmU1OezrLBl7sSEpyzQFbk1,,,,,,,,,,,,,,,,,,,,,,5da41f84a39c100018614e31,16:46:12,27/03/2024
html-keyboard-response,208,412981,0.0-86.0,,"<div style=""font-size:100px;"">+</div>",,delaylearn,learning,ITI,MrbqHNmU1OezrLBl7sSEpyzQFbk1,MrbqHNmU1OezrLBl7sSEpyzQFbk1,,,,,,,,,,,,,,,,,,,1937.0,,,5da41f84a39c100018614e31,16:46:12,27/03/2024
html-keyboard-response,209,414747,0.0-87.0-0.0,1764.8999999985099,"<div style=""display: flex; flex-direction: column; align-items: center; margin-top: -40px;""><img src=""images/pattern_7.png"" style=""width: 234px; height: 230px; margin-top: -50px;""><div style=""display: flex; justify-content: space-between; margin-top: 33px;""><img src=""images/choice_trial_8.png"" style=""width: 408px; height: 417px; margin-right: 200px;""><img src=""images/choice_trial_10.png"" style=""width: 408px; height: 417px;""></div></div>",j,delaylearn,learning,trial,MrbqHNmU1OezrLBl7sSEpyzQFbk1,MrbqHNmU1OezrLBl7sSEpyzQFbk1,5.0,images/choice_trial_8.png,images/choice_trial_10.png,images/pattern_7.png,f,f,750.0,8.0,10.0,6.0,0.0,38.0,0.0,0.0,10.0,230.0,,,,,,5da41f84a39c100018614e31,16:46:12,27/03/2024
html-keyboard-response,210,415749,0.0-87.0-1.0,,"<div style=""display: flex; flex-direction: column; align-items: center; margin-top: -40px;""><img src=""images/pattern_7.png"" style=""width: 234px; height: 230px; margin-top: -50px;""><div style=""display: flex; justify-content: space-between; margin-top: 33px;""><img src=""images/choice_trial_10.png"" style=""width: 408px; height: 417px; margin-left:608px;""></div></div>",,delaylearn,learning,display_response,MrbqHNmU1OezrLBl7sSEpyzQFbk1,MrbqHNmU1OezrLBl7sSEpyzQFbk1,,,,,,,,,,,,,,,,,chosen stimuli: images/choice_trial_10.png,,,,,5da41f84a39c100018614e31,16:46:12,27/03/2024
html-keyboard-response,211,416501,0.0-87.0-2.0,,,,delaylearn,learning,feedback_duration_window,MrbqHNmU1OezrLBl7sSEpyzQFbk1,MrbqHNmU1OezrLBl7sSEpyzQFbk1,,,,,,,,,,,,,,,,,,750.0,,,,5da41f84a39c100018614e31,16:46:12,27/03/2024
html-keyboard-response,212,418004,0.0-87.0-3.0,,<div style='margin:auto;width: auto; font-size: 150%'><span style='font-weight: bold; font-size: 100px; color: red;'>0 points!</span><br><br></div>,,delaylearn,learning,feedback_image_window,MrbqHNmU1OezrLBl7sSEpyzQFbk1,MrbqHNmU1OezrLBl7sSEpyzQFbk1,,,,,,,,,,,,,,,,,,,,,,5da41f84a39c100018614e31,16:46:12,27/03/2024
html-keyboard-response,213,419851,0.0-88.0,,"<div style=""font-size:100px;"">+</div>",,delaylearn,learning,ITI,MrbqHNmU1OezrLBl7sSEpyzQFbk1,MrbqHNmU1OezrLBl7sSEpyzQFbk1,,,,,,,,,,,,,,,,,,,1846.0,,,5da41f84a39c100018614e31,16:46:12,27/03/2024
html-keyboard-response,214,421249,0.0-89.0-0.0,1395.5,"<div style=""display: flex; flex-direction: column; align-items: center; margin-top: -40px;""><img src=""images/pattern_1.png"" style=""width: 234px; height: 230px; margin-top: -50px;""><div style=""display: flex; justify-content: space-between; margin-top: 33px;""><img src=""images/choice_trial_6.png"" style=""width: 408px; height: 417px; margin-right: 200px;""><img src=""images/choice_trial_15.png"" style=""width: 408px; height: 417px;""></div></div>",f,delaylearn,learning,trial,MrbqHNmU1OezrLBl7sSEpyzQFbk1,MrbqHNmU1OezrLBl7sSEpyzQFbk1,5.0,images/choice_trial_6.png,images/choice_trial_15.png,images/pattern_1.png,f,f,7000.0,6.0,15.0,1.0,0.0,39.0,1.0,1.0,6.0,240.0,,,,,,5da41f84a39c100018614e31,16:46:12,27/03/2024
html-keyboard-response,215,422252,0.0-89.0-1.0,,"<div style=""display: flex; flex-direction: column; align-items: center; margin-top: -40px;""><img src=""images/pattern_1.png"" style=""width: 234px; height: 230px; margin-top: -50px;""><div style=""display: flex; justify-content: space-between; margin-top: 33px;""><img src=""images/choice_trial_6.png"" style=""width: 408px; height: 417px; margin-right: 608px;""></div></div>",,delaylearn,learning,display_response,MrbqHNmU1OezrLBl7sSEpyzQFbk1,MrbqHNmU1OezrLBl7sSEpyzQFbk1,,,,,,,,,,,,,,,,,chosen stimuli: images/choice_trial_6.png,,,,,5da41f84a39c100018614e31,16:46:12,27/03/2024
html-keyboard-response,216,429254,0.0-89.0-2.0,,,,delaylearn,learning,feedback_duration_window,MrbqHNmU1OezrLBl7sSEpyzQFbk1,MrbqHNmU1OezrLBl7sSEpyzQFbk1,,,,,,,,,,,,,,,,,,7000.0,,,,5da41f84a39c100018614e31,16:46:12,27/03/2024
html-keyboard-response,217,430756,0.0-89.0-3.0,,<div style='margin:auto;width: auto; font-size: 150%'><span style='font-weight: bold; font-size: 100px; color: green;'>+10 points!</span><br><br></div>,,delaylearn,learning,feedback_image_window,MrbqHNmU1OezrLBl7sSEpyzQFbk1,MrbqHNmU1OezrLBl7sSEpyzQFbk1,,,,,,,,,,,,,,,,,,,,,,5da41f84a39c100018614e31,16:46:12,27/03/2024
html-keyboard-response,218,431259,0.0-90.0-0.0,,,,,,mood_trial_fixation,MrbqHNmU1OezrLBl7sSEpyzQFbk1,,,,,,,,,,,,,,,,,,,,,,,5da41f84a39c100018614e31,16:46:12,27/03/2024
lmdlab-html-vas-response,219,435058,0.0-90.0-1.0,2794.0,How happy are you right now?,0.7458333333333333,delaylearn,learning,mood_trial,MrbqHNmU1OezrLBl7sSEpyzQFbk1,MrbqHNmU1OezrLBl7sSEpyzQFbk1,,,,,,,,,,,,,,,,,,,,"['Very unhappy', 'Very happy']",,5da41f84a39c100018614e31,16:46:12,27/03/2024
html-keyboard-response,220,436885,0.0-91.0,,"<div style=""font-size:100px;"">+</div>",,delaylearn,learning,ITI,MrbqHNmU1OezrLBl7sSEpyzQFbk1,MrbqHNmU1OezrLBl7sSEpyzQFbk1,,,,,,,,,,,,,,,,,,,1824.0,,,5da41f84a39c100018614e31,16:46:12,27/03/2024
html-keyboard-response,221,438378,0.0-92.0-0.0,1490.5,"<div style=""display: flex; flex-direction: column; align-items: center; margin-top: -40px;""><img src=""images/pattern_3.png"" style=""width: 234px; height: 230px; margin-top: -50px;""><div style=""display: flex; justify-content: space-between; margin-top: 33px;""><img src=""images/choice_trial_16.png"" style=""width: 408px; height: 417px; margin-right: 200px;""><img src=""images/choice_trial_2.png"" style=""width: 408px; height: 417px;""></div></div>",f,delaylearn,learning,trial,MrbqHNmU1OezrLBl7sSEpyzQFbk1,MrbqHNmU1OezrLBl7sSEpyzQFbk1,5.0,images/choice_trial_16.png,images/choice_trial_2.png,images/pattern_3.png,j,f,7000.0,16.0,2.0,2.0,0.0,40.0,1.0,0.0,16.0,240.0,,,,,,5da41f84a39c100018614e31,16:46:12,27/03/2024
html-keyboard-response,222,439380,0.0-92.0-1.0,,"<div style=""display: flex; flex-direction: column; align-items: center; margin-top: -40px;""><img src=""images/pattern_3.png"" style=""width: 234px; height: 230px; margin-top: -50px;""><div style=""display: flex; justify-content: space-between; margin-top: 33px;""><img src=""images/choice_trial_16.png"" style=""width: 408px; height: 417px; margin-right: 608px;""></div></div>",,delaylearn,learning,display_response,MrbqHNmU1OezrLBl7sSEpyzQFbk1,MrbqHNmU1OezrLBl7sSEpyzQFbk1,,,,,,,,,,,,,,,,,chosen stimuli: images/choice_trial_16.png,,,,,5da41f84a39c100018614e31,16:46:12,27/03/2024
html-keyboard-response,223,446383,0.0-92.0-2.0,,,,delaylearn,learning,feedback_duration_window,MrbqHNmU1OezrLBl7sSEpyzQFbk1,MrbqHNmU1OezrLBl7sSEpyzQFbk1,,,,,,,,,,,,,,,,,,7000.0,,,,5da41f84a39c100018614e31,16:46:12,27/03/2024
html-keyboard-response,224,447887,0.0-92.0-3.0,,<div style='margin:auto;width: auto; font-size: 150%'><span style='font-weight: bold; font-size: 100px; color: red;'>0 points!</span><br><br></div>,,delaylearn,learning,feedback_image_window,MrbqHNmU1OezrLBl7sSEpyzQFbk1,MrbqHNmU1OezrLBl7sSEpyzQFbk1,,,,,,,,,,,,,,,,,,,,,,5da41f84a39c100018614e31,16:46:12,27/03/2024
html-keyboard-response,225,449863,0.0-93.0,,"<div style=""font-size:100px;"">+</div>",,delaylearn,learning,ITI,MrbqHNmU1OezrLBl7sSEpyzQFbk1,MrbqHNmU1OezrLBl7sSEpyzQFbk1,,,,,,,,,,,,,,,,,,,1974.0,,,5da41f84a39c100018614e31,16:46:12,27/03/2024
html-keyboard-response,226,451058,0.0-94.0-0.0,1192.2000000029802,"<div style=""display: flex; flex-direction: column; align-items: center; margin-top: -40px;""><img src=""images/pattern_7.png"" style=""width: 234px; height: 230px; margin-top: -50px;""><div style=""display: flex; justify-content: space-between; margin-top: 33px;""><img src=""images/choice_trial_10.png"" style=""width: 408px; height: 417px; margin-right: 200px;""><img src=""images/choice_trial_8.png"" style=""width: 408px; height: 417px;""></div></div>",j,delaylearn,learning,trial,MrbqHNmU1OezrLBl7sSEpyzQFbk1,MrbqHNmU1OezrLBl7sSEpyzQFbk1,5.0,images/choice_trial_10.png,images/choice_trial_8.png,images/pattern_7.png,j,j,750.0,10.0,8.0,6.0,1.0,41.0,1.0,1.0,8.0,250.0,,,,,,5da41f84a39c100018614e31,16:46:12,27/03/2024
html-keyboard-response,227,452061,0.0-94.0-1.0,,"<div style=""display: flex; flex-direction: column; align-items: center; margin-top: -40px;""><img src=""images/pattern_7.png"" style=""width: 234px; height: 230px; margin-top: -50px;""><div style=""display: flex; justify-content: space-between; margin-top: 33px;""><img src=""images/choice_trial_8.png"" style=""width: 408px; height: 417px; margin-left:608px;""></div></div>",,delaylearn,learning,display_response,MrbqHNmU1OezrLBl7sSEpyzQFbk1,MrbqHNmU1OezrLBl7sSEpyzQFbk1,,,,,,,,,,,,,,,,,chosen stimuli: images/choice_trial_8.png,,,,,5da41f84a39c100018614e31,16:46:12,27/03/2024
html-keyboard-response,228,452814,0.0-94.0-2.0,,,,delaylearn,learning,feedback_duration_window,MrbqHNmU1OezrLBl7sSEpyzQFbk1,MrbqHNmU1OezrLBl7sSEpyzQFbk1,,,,,,,,,,,,,,,,,,750.0,,,,5da41f84a39c100018614e31,16:46:12,27/03/2024
html-keyboard-response,229,454316,0.0-94.0-3.0,,<div style='margin:auto;width: auto; font-size: 150%'><span style='font-weight: bold; font-size: 100px; color: green;'>+10 points!</span><br><br></div>,,delaylearn,learning,feedback_image_window,MrbqHNmU1OezrLBl7sSEpyzQFbk1,MrbqHNmU1OezrLBl7sSEpyzQFbk1,,,,,,,,,,,,,,,,,,,,,,5da41f84a39c100018614e31,16:46:12,27/03/2024
html-keyboard-response,230,455856,0.0-95.0,,"<div style=""font-size:100px;"">+</div>",,delaylearn,learning,ITI,MrbqHNmU1OezrLBl7sSEpyzQFbk1,MrbqHNmU1OezrLBl7sSEpyzQFbk1,,,,,,,,,,,,,,,,,,,1539.0,,,5da41f84a39c100018614e31,16:46:12,27/03/2024
