trial_type,trial_index,time_elapsed,internal_node_id,rt,stimulus,response,exp_name,exp_stage,test_part,subjectID,databaseID,counterbal,choice_stimuli_1,choice_stimuli_2,pattern_stimuli,rewarded_answer,correct_answer,feedback_duration_times,stim_left,stim_right,pair,leftright_counter,trial,response_correct,response_rewarded,chosen_stim,counter,displayed_choice,feedback_durations,ITI_duration,labels,rest_warning,prolificID,start_time,date
pavlovia,0,628,0.0-0.0,,,,,,,iaxrX2niXBaIN48aafl7apsoQkp2,,,,,,,,,,,,,,,,,,,,,,,6578943bda60b06de1ba4628,16:50:57,27/03/2024
html-keyboard-response,1,3645,0.0-1.0,,"<div style=""font-size:100px;"">+</div>",,delaylearn,learning,pre_fixation,iaxrX2niXBaIN48aafl7apsoQkp2,,,,,,,,,,,,,,,,,,,,,,,6578943bda60b06de1ba4628,16:50:57,27/03/2024
html-keyboard-response,2,5193,0.0-2.0-0.0,1544.5,"<div style=""display: flex; flex-direction: column; align-items: center; margin-top: -40px;""><img src=""images/demo_images/pattern_1.png"" style=""width: 234px; height: 230px; margin-top: -50px;""><div style=""display: flex; justify-content: space-between; margin-top: 33px;""><img src=""images/demo_images/choice_trial_2.png"" style=""width: 408px; height: 417px; margin-right: 200px;""><img src=""images/demo_images/choice_trial_1.png"" style=""width: 408px; height: 417px;""></div></div>",j,delaylearn,learning,trial,iaxrX2niXBaIN48aafl7apsoQkp2,iaxrX2niXBaIN48aafl7apsoQkp2,2.0,images/demo_images/choice_trial_2.png,images/demo_images/choice_trial_1.png,images/demo_images/pattern_1.png,j,j,3000.0,2.0,1.0,20.0,1.0,1.0,1.0,1.0,1.0,10.0,,,,,,6578943bda60b06de1ba4628,16:50:57,27/03/2024
html-keyboard-response,3,6209,0.0-2.0-1.0,,"<div style=""display: flex; flex-direction: column; align-items: center; margin-top: -40px;""><img src=""images/demo_images/pattern_1.png"" style=""width: 234px; height: 230px; margin-top: -50px;""><div style=""display: flex; justify-content: space-between; margin-top: 33px;""><img src=""images/demo_images/choice_trial_1.png"" style=""width: 408px; height: 417px; margin-left:608px;""></div></div>",,delaylearn,learning,display_response,iaxrX2niXBaIN48aafl7apsoQkp2,iaxrX2niXBaIN48aafl7apsoQkp2,,,,,,,,,,,,,,,,,chosen stimuli: images/demo_images/choice_trial_1.png,,,,,6578943bda60b06de1ba4628,16:50:57,27/03/2024
html-keyboard-response,4,9215,0.0-2.0-2.0,,,,delaylearn,learning,feedback_duration_window,iaxrX2niXBaIN48aafl7apsoQkp2,iaxrX2niXBaIN48aafl7apsoQkp2,,,,,,,,,,,,,,,,,,3000.0,,,,6578943bda60b06de1ba4628,16:50:57,27/03/2024
html-keyboard-response,5,10726,0.0-2.0-3.0,,<div style='margin:auto;width: auto; font-size: 150%'><span style='font-weight: bold; font-size: 100px; color: green;'>+10 points!</span><br><br></div>,,delaylearn,learning,feedback_image_window,iaxrX2niXBaIN48aafl7apsoQkp2,iaxrX2niXBaIN48aafl7apsoQkp2,,,,,,,,,,,,,,,,,,,,,,6578943bda60b06de1ba4628,16:50:57,27/03/2024
html-keyboard-response,6,12661,0.0-3.0,,"<div style=""font-size:100px;"">+</div>",,delaylearn,learning,ITI,iaxrX2niXBaIN48aafl7apsoQkp2,iaxrX2niXBaIN48aafl7apsoQkp2,,,,,,,,,,,,,,,,,,,1922.0,,,6578943bda60b06de1ba4628,16:50:57,27/03/2024
html-keyboard-response,7,14152,0.0-4.0-0.0,1488.5,"<div style=""display: flex; flex-direction: column; align-items: center; margin-top: -40px;""><img src=""images/demo_images/pattern_1.png"" style=""width: 234px; height: 230px; margin-top: -50px;""><div style=""display: flex; justify-content: space-between; margin-top: 33px;""><img src=""images/demo_images/choice_trial_2.png"" style=""width: 408px; height: 417px; margin-right: 200px;""><img src=""images/demo_images/choice_trial_1.png"" style=""width: 408px; height: 417px;""></div></div>",f,delaylearn,learning,trial,iaxrX2niXBaIN48aafl7apsoQkp2,iaxrX2niXBaIN48aafl7apsoQkp2,2.0,images/demo_images/choice_trial_2.png,images/demo_images/choice_trial_1.png,images/demo_images/pattern_1.png,j,j,3000.0,2.0,1.0,20.0,1.0,2.0,0.0,0.0,2.0,10.0,,,,,,6578943bda60b06de1ba4628,16:50:57,27/03/2024
html-keyboard-response,8,15158,0.0-4.0-1.0,,"<div style=""display: flex; flex-direction: column; align-items: center; margin-top: -40px;""><img src=""images/demo_images/pattern_1.png"" style=""width: 234px; height: 230px; margin-top: -50px;""><div style=""display: flex; justify-content: space-between; margin-top: 33px;""><img src=""images/demo_images/choice_trial_2.png"" style=""width: 408px; height: 417px; margin-right: 608px;""></div></div>",,delaylearn,learning,display_response,iaxrX2niXBaIN48aafl7apsoQkp2,iaxrX2niXBaIN48aafl7apsoQkp2,,,,,,,,,,,,,,,,,chosen stimuli: images/demo_images/choice_trial_2.png,,,,,6578943bda60b06de1ba4628,16:50:57,27/03/2024
html-keyboard-response,9,18169,0.0-4.0-2.0,,,,delaylearn,learning,feedback_duration_window,iaxrX2niXBaIN48aafl7apsoQkp2,iaxrX2niXBaIN48aafl7apsoQkp2,,,,,,,,,,,,,,,,,,3000.0,,,,6578943bda60b06de1ba4628,16:50:57,27/03/2024
html-keyboard-response,10,19685,0.0-4.0-3.0,,<div style='margin:auto;width: auto; font-size: 150%'><span style='font-weight: bold; font-size: 100px; color: red;'>0 points!</span><br><br></div>,,delaylearn,learning,feedback_image_window,iaxrX2niXBaIN48aafl7apsoQkp2,iaxrX2niXBaIN48aafl7apsoQkp2,,,,,,,,,,,,,,,,,,,,,,6578943bda60b06de1ba4628,16:50:57,27/03/2024
html-keyboard-response,11,22075,0.0-5.0,,"<div style=""font-size:100px;"">+</div>",,delaylearn,learning,ITI,iaxrX2niXBaIN48aafl7apsoQkp2,iaxrX2niXBaIN48aafl7apsoQkp2,,,,,,,,,,,,,,,,,,,2374.0,,,6578943bda60b06de1ba4628,16:50:57,27/03/2024
html-keyboard-response,12,23069,0.0-6.0-0.0,992.1000000238419,"<div style=""display: flex; flex-direction: column; align-items: center; margin-top: -40px;""><img src=""images/demo_images/pattern_1.png"" style=""width: 234px; height: 230px; margin-top: -50px;""><div style=""display: flex; justify-content: space-between; margin-top: 33px;""><img src=""images/demo_images/choice_trial_1.png"" style=""width: 408px; height: 417px; margin-right: 200px;""><img src=""images/demo_images/choice_trial_2.png"" style=""width: 408px; height: 417px;""></div></div>",j,delaylearn,learning,trial,iaxrX2niXBaIN48aafl7apsoQkp2,iaxrX2niXBaIN48aafl7apsoQkp2,2.0,images/demo_images/choice_trial_1.png,images/demo_images/choice_trial_2.png,images/demo_images/pattern_1.png,j,f,3000.0,1.0,2.0,20.0,0.0,3.0,0.0,1.0,2.0,20.0,,,,,,6578943bda60b06de1ba4628,16:50:57,27/03/2024
html-keyboard-response,13,24084,0.0-6.0-1.0,,"<div style=""display: flex; flex-direction: column; align-items: center; margin-top: -40px;""><img src=""images/demo_images/pattern_1.png"" style=""width: 234px; height: 230px; margin-top: -50px;""><div style=""display: flex; justify-content: space-between; margin-top: 33px;""><img src=""images/demo_images/choice_trial_2.png"" style=""width: 408px; height: 417px; margin-left:608px;""></div></div>",,delaylearn,learning,display_response,iaxrX2niXBaIN48aafl7apsoQkp2,iaxrX2niXBaIN48aafl7apsoQkp2,,,,,,,,,,,,,,,,,chosen stimuli: images/demo_images/choice_trial_2.png,,,,,6578943bda60b06de1ba4628,16:50:57,27/03/2024
html-keyboard-response,14,27085,0.0-6.0-2.0,,,,delaylearn,learning,feedback_duration_window,iaxrX2niXBaIN48aafl7apsoQkp2,iaxrX2niXBaIN48aafl7apsoQkp2,,,,,,,,,,,,,,,,,,3000.0,,,,6578943bda60b06de1ba4628,16:50:57,27/03/2024
html-keyboard-response,15,28592,0.0-6.0-3.0,,<div style='margin:auto;width: auto; font-size: 150%'><span style='font-weight: bold; font-size: 100px; color: green;'>+10 points!</span><br><br></div>,,delaylearn,learning,feedback_image_window,iaxrX2niXBaIN48aafl7apsoQkp2,iaxrX2niXBaIN48aafl7apsoQkp2,,,,,,,,,,,,,,,,,,,,,,6578943bda60b06de1ba4628,16:50:57,27/03/2024
html-keyboard-response,16,30280,0.0-7.0,,"<div style=""font-size:100px;"">+</div>",,delaylearn,learning,ITI,iaxrX2niXBaIN48aafl7apsoQkp2,iaxrX2niXBaIN48aafl7apsoQkp2,,,,,,,,,,,,,,,,,,,1679.0,,,6578943bda60b06de1ba4628,16:50:57,27/03/2024
html-keyboard-response,17,31290,0.0-8.0-0.0,1008.0,"<div style=""display: flex; flex-direction: column; align-items: center; margin-top: -40px;""><img src=""images/demo_images/pattern_1.png"" style=""width: 234px; height: 230px; margin-top: -50px;""><div style=""display: flex; justify-content: space-between; margin-top: 33px;""><img src=""images/demo_images/choice_trial_1.png"" style=""width: 408px; height: 417px; margin-right: 200px;""><img src=""images/demo_images/choice_trial_2.png"" style=""width: 408px; height: 417px;""></div></div>",f,delaylearn,learning,trial,iaxrX2niXBaIN48aafl7apsoQkp2,iaxrX2niXBaIN48aafl7apsoQkp2,2.0,images/demo_images/choice_trial_1.png,images/demo_images/choice_trial_2.png,images/demo_images/pattern_1.png,f,f,3000.0,1.0,2.0,20.0,0.0,4.0,1.0,1.0,1.0,30.0,,,,,,6578943bda60b06de1ba4628,16:50:57,27/03/2024
html-keyboard-response,18,32299,0.0-8.0-1.0,,"<div style=""display: flex; flex-direction: column; align-items: center; margin-top: -40px;""><img src=""images/demo_images/pattern_1.png"" style=""width: 234px; height: 230px; margin-top: -50px;""><div style=""display: flex; justify-content: space-between; margin-top: 33px;""><img src=""images/demo_images/choice_trial_1.png"" style=""width: 408px; height: 417px; margin-right: 608px;""></div></div>",,delaylearn,learning,display_response,iaxrX2niXBaIN48aafl7apsoQkp2,iaxrX2niXBaIN48aafl7apsoQkp2,,,,,,,,,,,,,,,,,chosen stimuli: images/demo_images/choice_trial_1.png,,,,,6578943bda60b06de1ba4628,16:50:57,27/03/2024
html-keyboard-response,19,35306,0.0-8.0-2.0,,,,delaylearn,learning,feedback_duration_window,iaxrX2niXBaIN48aafl7apsoQkp2,iaxrX2niXBaIN48aafl7apsoQkp2,,,,,,,,,,,,,,,,,,3000.0,,,,6578943bda60b06de1ba4628,16:50:57,27/03/2024
html-keyboard-response,20,36817,0.0-8.0-3.0,,<div style='margin:auto;width: auto; font-size: 150%'><span style='font-weight: bold; font-size: 100px; color: green;'>+10 points!</span><br><br></div>,,delaylearn,learning,feedback_image_window,iaxrX2niXBaIN48aafl7apsoQkp2,iaxrX2niXBaIN48aafl7apsoQkp2,,,,,,,,,,,,,,,,,,,,,,6578943bda60b06de1ba4628,16:50:57,27/03/2024
html-keyboard-response,21,37333,0.0-9.0-0.0,,,,,,mood_trial_fixation,iaxrX2niXBaIN48aafl7apsoQkp2,,,,,,,,,,,,,,,,,,,,,,,6578943bda60b06de1ba4628,16:50:57,27/03/2024
lmdlab-html-vas-response,22,41442,0.0-9.0-1.0,3088.0,How happy are you right now?,0.6736111111111112,delaylearn,learning,mood_trial,iaxrX2niXBaIN48aafl7apsoQkp2,iaxrX2niXBaIN48aafl7apsoQkp2,,,,,,,,,,,,,,,,,,,,"['Very unhappy', 'Very happy']",,6578943bda60b06de1ba4628,16:50:57,27/03/2024
html-keyboard-response,23,43395,0.0-10.0,,"<div style=""font-size:100px;"">+</div>",,delaylearn,learning,ITI,iaxrX2niXBaIN48aafl7apsoQkp2,iaxrX2niXBaIN48aafl7apsoQkp2,,,,,,,,,,,,,,,,,,,1941.0,,,6578943bda60b06de1ba4628,16:50:57,27/03/2024
html-keyboard-response,24,45373,0.0-11.0-0.0,1975.7999999523163,"<div style=""display: flex; flex-direction: column; align-items: center; margin-top: -40px;""><img src=""images/demo_images/pattern_1.png"" style=""width: 234px; height: 230px; margin-top: -50px;""><div style=""display: flex; justify-content: space-between; margin-top: 33px;""><img src=""images/demo_images/choice_trial_2.png"" style=""width: 408px; height: 417px; margin-right: 200px;""><img src=""images/demo_images/choice_trial_1.png"" style=""width: 408px; height: 417px;""></div></div>",j,delaylearn,learning,trial,iaxrX2niXBaIN48aafl7apsoQkp2,iaxrX2niXBaIN48aafl7apsoQkp2,2.0,images/demo_images/choice_trial_2.png,images/demo_images/choice_trial_1.png,images/demo_images/pattern_1.png,j,j,3000.0,2.0,1.0,20.0,1.0,5.0,1.0,1.0,1.0,40.0,,,,,,6578943bda60b06de1ba4628,16:50:57,27/03/2024
html-keyboard-response,25,46380,0.0-11.0-1.0,,"<div style=""display: flex; flex-direction: column; align-items: center; margin-top: -40px;""><img src=""images/demo_images/pattern_1.png"" style=""width: 234px; height: 230px; margin-top: -50px;""><div style=""display: flex; justify-content: space-between; margin-top: 33px;""><img src=""images/demo_images/choice_trial_1.png"" style=""width: 408px; height: 417px; margin-left:608px;""></div></div>",,delaylearn,learning,display_response,iaxrX2niXBaIN48aafl7apsoQkp2,iaxrX2niXBaIN48aafl7apsoQkp2,,,,,,,,,,,,,,,,,chosen stimuli: images/demo_images/choice_trial_1.png,,,,,6578943bda60b06de1ba4628,16:50:57,27/03/2024
html-keyboard-response,26,49393,0.0-11.0-2.0,,,,delaylearn,learning,feedback_duration_window,iaxrX2niXBaIN48aafl7apsoQkp2,iaxrX2niXBaIN48aafl7apsoQkp2,,,,,,,,,,,,,,,,,,3000.0,,,,6578943bda60b06de1ba4628,16:50:57,27/03/2024
html-keyboard-response,27,50909,0.0-11.0-3.0,,<div style='margin:auto;width: auto; font-size: 150%'><span style='font-weight: bold; font-size: 100px; color: green;'>+10 points!</span><br><br></div>,,delaylearn,learning,feedback_image_window,iaxrX2niXBaIN48aafl7apsoQkp2,iaxrX2niXBaIN48aafl7apsoQkp2,,,,,,,,,,,,,,,,,,,,,,6578943bda60b06de1ba4628,16:50:57,27/03/2024
html-keyboard-response,28,52876,0.0-12.0,,"<div style=""font-size:100px;"">+</div>",,delaylearn,learning,ITI,iaxrX2niXBaIN48aafl7apsoQkp2,iaxrX2niXBaIN48aafl7apsoQkp2,,,,,,,,,,,,,,,,,,,1953.0,,,6578943bda60b06de1ba4628,16:50:57,27/03/2024
html-keyboard-response,29,53215,0.0-13.0-0.0,336.0,"<div style=""display: flex; flex-direction: column; align-items: center; margin-top: -40px;""><img src=""images/demo_images/pattern_1.png"" style=""width: 234px; height: 230px; margin-top: -50px;""><div style=""display: flex; justify-content: space-between; margin-top: 33px;""><img src=""images/demo_images/choice_trial_1.png"" style=""width: 408px; height: 417px; margin-right: 200px;""><img src=""images/demo_images/choice_trial_2.png"" style=""width: 408px; height: 417px;""></div></div>",f,delaylearn,learning,trial,iaxrX2niXBaIN48aafl7apsoQkp2,iaxrX2niXBaIN48aafl7apsoQkp2,2.0,images/demo_images/choice_trial_1.png,images/demo_images/choice_trial_2.png,images/demo_images/pattern_1.png,f,f,3000.0,1.0,2.0,20.0,0.0,6.0,1.0,1.0,1.0,50.0,,,,,,6578943bda60b06de1ba4628,16:50:57,27/03/2024
html-keyboard-response,30,54222,0.0-13.0-1.0,,"<div style=""display: flex; flex-direction: column; align-items: center; margin-top: -40px;""><img src=""images/demo_images/pattern_1.png"" style=""width: 234px; height: 230px; margin-top: -50px;""><div style=""display: flex; justify-content: space-between; margin-top: 33px;""><img src=""images/demo_images/choice_trial_1.png"" style=""width: 408px; height: 417px; margin-right: 608px;""></div></div>",,delaylearn,learning,display_response,iaxrX2niXBaIN48aafl7apsoQkp2,iaxrX2niXBaIN48aafl7apsoQkp2,,,,,,,,,,,,,,,,,chosen stimuli: images/demo_images/choice_trial_1.png,,,,,6578943bda60b06de1ba4628,16:50:57,27/03/2024
html-keyboard-response,31,57233,0.0-13.0-2.0,,,,delaylearn,learning,feedback_duration_window,iaxrX2niXBaIN48aafl7apsoQkp2,iaxrX2niXBaIN48aafl7apsoQkp2,,,,,,,,,,,,,,,,,,3000.0,,,,6578943bda60b06de1ba4628,16:50:57,27/03/2024
html-keyboard-response,32,58745,0.0-13.0-3.0,,<div style='margin:auto;width: auto; font-size: 150%'><span style='font-weight: bold; font-size: 100px; color: green;'>+10 points!</span><br><br></div>,,delaylearn,learning,feedback_image_window,iaxrX2niXBaIN48aafl7apsoQkp2,iaxrX2niXBaIN48aafl7apsoQkp2,,,,,,,,,,,,,,,,,,,,,,6578943bda60b06de1ba4628,16:50:57,27/03/2024
html-keyboard-response,33,60445,0.0-14.0,,"<div style=""font-size:100px;"">+</div>",,delaylearn,learning,ITI,iaxrX2niXBaIN48aafl7apsoQkp2,iaxrX2niXBaIN48aafl7apsoQkp2,,,,,,,,,,,,,,,,,,,1690.0,,,6578943bda60b06de1ba4628,16:50:57,27/03/2024
html-keyboard-response,34,61257,0.0-15.0-0.0,809.1999999284744,"<div style=""display: flex; flex-direction: column; align-items: center; margin-top: -40px;""><img src=""images/demo_images/pattern_1.png"" style=""width: 234px; height: 230px; margin-top: -50px;""><div style=""display: flex; justify-content: space-between; margin-top: 33px;""><img src=""images/demo_images/choice_trial_2.png"" style=""width: 408px; height: 417px; margin-right: 200px;""><img src=""images/demo_images/choice_trial_1.png"" style=""width: 408px; height: 417px;""></div></div>",j,delaylearn,learning,trial,iaxrX2niXBaIN48aafl7apsoQkp2,iaxrX2niXBaIN48aafl7apsoQkp2,2.0,images/demo_images/choice_trial_2.png,images/demo_images/choice_trial_1.png,images/demo_images/pattern_1.png,j,j,3000.0,2.0,1.0,20.0,1.0,7.0,1.0,1.0,1.0,60.0,,,,,,6578943bda60b06de1ba4628,16:50:57,27/03/2024
html-keyboard-response,35,62260,0.0-15.0-1.0,,"<div style=""display: flex; flex-direction: column; align-items: center; margin-top: -40px;""><img src=""images/demo_images/pattern_1.png"" style=""width: 234px; height: 230px; margin-top: -50px;""><div style=""display: flex; justify-content: space-between; margin-top: 33px;""><img src=""images/demo_images/choice_trial_1.png"" style=""width: 408px; height: 417px; margin-left:608px;""></div></div>",,delaylearn,learning,display_response,iaxrX2niXBaIN48aafl7apsoQkp2,iaxrX2niXBaIN48aafl7apsoQkp2,,,,,,,,,,,,,,,,,chosen stimuli: images/demo_images/choice_trial_1.png,,,,,6578943bda60b06de1ba4628,16:50:57,27/03/2024
html-keyboard-response,36,65269,0.0-15.0-2.0,,,,delaylearn,learning,feedback_duration_window,iaxrX2niXBaIN48aafl7apsoQkp2,iaxrX2niXBaIN48aafl7apsoQkp2,,,,,,,,,,,,,,,,,,3000.0,,,,6578943bda60b06de1ba4628,16:50:57,27/03/2024
html-keyboard-response,37,66785,0.0-15.0-3.0,,<div style='margin:auto;width: auto; font-size: 150%'><span style='font-weight: bold; font-size: 100px; color: green;'>+10 points!</span><br><br></div>,,delaylearn,learning,feedback_image_window,iaxrX2niXBaIN48aafl7apsoQkp2,iaxrX2niXBaIN48aafl7apsoQkp2,,,,,,,,,,,,,,,,,,,,,,6578943bda60b06de1ba4628,16:50:57,27/03/2024
html-keyboard-response,38,68547,0.0-16.0,,"<div style=""font-size:100px;"">+</div>",,delaylearn,learning,ITI,iaxrX2niXBaIN48aafl7apsoQkp2,iaxrX2niXBaIN48aafl7apsoQkp2,,,,,,,,,,,,,,,,,,,1745.0,,,6578943bda60b06de1ba4628,16:50:57,27/03/2024
html-keyboard-response,39,69490,0.0-17.0-0.0,940.7999999523163,"<div style=""display: flex; flex-direction: column; align-items: center; margin-top: -40px;""><img src=""images/demo_images/pattern_1.png"" style=""width: 234px; height: 230px; margin-top: -50px;""><div style=""display: flex; justify-content: space-between; margin-top: 33px;""><img src=""images/demo_images/choice_trial_1.png"" style=""width: 408px; height: 417px; margin-right: 200px;""><img src=""images/demo_images/choice_trial_2.png"" style=""width: 408px; height: 417px;""></div></div>",j,delaylearn,learning,trial,iaxrX2niXBaIN48aafl7apsoQkp2,iaxrX2niXBaIN48aafl7apsoQkp2,2.0,images/demo_images/choice_trial_1.png,images/demo_images/choice_trial_2.png,images/demo_images/pattern_1.png,f,f,3000.0,1.0,2.0,20.0,0.0,8.0,0.0,0.0,2.0,60.0,,,,,,6578943bda60b06de1ba4628,16:50:57,27/03/2024
html-keyboard-response,40,70497,0.0-17.0-1.0,,"<div style=""display: flex; flex-direction: column; align-items: center; margin-top: -40px;""><img src=""images/demo_images/pattern_1.png"" style=""width: 234px; height: 230px; margin-top: -50px;""><div style=""display: flex; justify-content: space-between; margin-top: 33px;""><img src=""images/demo_images/choice_trial_2.png"" style=""width: 408px; height: 417px; margin-left:608px;""></div></div>",,delaylearn,learning,display_response,iaxrX2niXBaIN48aafl7apsoQkp2,iaxrX2niXBaIN48aafl7apsoQkp2,,,,,,,,,,,,,,,,,chosen stimuli: images/demo_images/choice_trial_2.png,,,,,6578943bda60b06de1ba4628,16:50:57,27/03/2024
html-keyboard-response,41,73510,0.0-17.0-2.0,,,,delaylearn,learning,feedback_duration_window,iaxrX2niXBaIN48aafl7apsoQkp2,iaxrX2niXBaIN48aafl7apsoQkp2,,,,,,,,,,,,,,,,,,3000.0,,,,6578943bda60b06de1ba4628,16:50:57,27/03/2024
html-keyboard-response,42,75025,0.0-17.0-3.0,,<div style='margin:auto;width: auto; font-size: 150%'><span style='font-weight: bold; font-size: 100px; color: red;'>0 points!</span><br><br></div>,,delaylearn,learning,feedback_image_window,iaxrX2niXBaIN48aafl7apsoQkp2,iaxrX2niXBaIN48aafl7apsoQkp2,,,,,,,,,,,,,,,,,,,,,,6578943bda60b06de1ba4628,16:50:57,27/03/2024
html-button-response,43,102761,0.0-18.0,27735.0,"
  <div style=""display: flex; align-items: center; justify-content: center; height: 80vh;"">
  <div>
          <img src=""images/inst_demo_finish.png"" style=""width: 80vw; height:auto;"">
          <br><br>
      </div>
      <br><br>
  </div>",0,,,,iaxrX2niXBaIN48aafl7apsoQkp2,,,,,,,,,,,,,,,,,,,,,,,6578943bda60b06de1ba4628,16:50:57,27/03/2024
html-keyboard-response,44,107019,0.0-19.0,4256.800000071526,"
  <div style=""display: flex; align-items: center; justify-content: center; height: 80vh;"">
  <div>
          <img src=""images/inst_6.png"" style=""width: 80vw; height:auto;"">
          <br><br>
      </div>
      <br><br>
  </div>",f,,,,iaxrX2niXBaIN48aafl7apsoQkp2,,,,,,,,,,,,,,,,,,,,,,,6578943bda60b06de1ba4628,16:50:57,27/03/2024
html-keyboard-response,45,110036,0.0-20.0,,"<div style=""font-size:100px;"">+</div>",,delaylearn,learning,pre_fixation,iaxrX2niXBaIN48aafl7apsoQkp2,,,,,,,,,,,,,,,,,,,,,,,6578943bda60b06de1ba4628,16:50:57,27/03/2024
html-keyboard-response,46,111911,0.0-21.0,,"<div style=""font-size:100px;"">+</div>",,delaylearn,learning,ITI,iaxrX2niXBaIN48aafl7apsoQkp2,iaxrX2niXBaIN48aafl7apsoQkp2,,,,,,,,,,,,,,,,,,,1865.0,,,6578943bda60b06de1ba4628,16:50:57,27/03/2024
html-keyboard-response,47,112975,0.0-22.0-0.0,1062.3999999761581,"<div style=""display: flex; flex-direction: column; align-items: center; margin-top: -40px;""><img src=""images/pattern_3.png"" style=""width: 234px; height: 230px; margin-top: -50px;""><div style=""display: flex; justify-content: space-between; margin-top: 33px;""><img src=""images/choice_trial_12.png"" style=""width: 408px; height: 417px; margin-right: 200px;""><img src=""images/choice_trial_14.png"" style=""width: 408px; height: 417px;""></div></div>",f,delaylearn,learning,trial,iaxrX2niXBaIN48aafl7apsoQkp2,iaxrX2niXBaIN48aafl7apsoQkp2,2.0,images/choice_trial_12.png,images/choice_trial_14.png,images/pattern_3.png,f,f,7000.0,12.0,14.0,2.0,0.0,9.0,1.0,1.0,12.0,70.0,,,,,,6578943bda60b06de1ba4628,16:50:57,27/03/2024
html-keyboard-response,48,113991,0.0-22.0-1.0,,"<div style=""display: flex; flex-direction: column; align-items: center; margin-top: -40px;""><img src=""images/pattern_3.png"" style=""width: 234px; height: 230px; margin-top: -50px;""><div style=""display: flex; justify-content: space-between; margin-top: 33px;""><img src=""images/choice_trial_12.png"" style=""width: 408px; height: 417px; margin-right: 608px;""></div></div>",,delaylearn,learning,display_response,iaxrX2niXBaIN48aafl7apsoQkp2,iaxrX2niXBaIN48aafl7apsoQkp2,,,,,,,,,,,,,,,,,chosen stimuli: images/choice_trial_12.png,,,,,6578943bda60b06de1ba4628,16:50:57,27/03/2024
html-keyboard-response,49,120992,0.0-22.0-2.0,,,,delaylearn,learning,feedback_duration_window,iaxrX2niXBaIN48aafl7apsoQkp2,iaxrX2niXBaIN48aafl7apsoQkp2,,,,,,,,,,,,,,,,,,7000.0,,,,6578943bda60b06de1ba4628,16:50:57,27/03/2024
html-keyboard-response,50,122504,0.0-22.0-3.0,,<div style='margin:auto;width: auto; font-size: 150%'><span style='font-weight: bold; font-size: 100px; color: green;'>+10 points!</span><br><br></div>,,delaylearn,learning,feedback_image_window,iaxrX2niXBaIN48aafl7apsoQkp2,iaxrX2niXBaIN48aafl7apsoQkp2,,,,,,,,,,,,,,,,,,,,,,6578943bda60b06de1ba4628,16:50:57,27/03/2024
html-keyboard-response,51,124419,0.0-23.0,,"<div style=""font-size:100px;"">+</div>",,delaylearn,learning,ITI,iaxrX2niXBaIN48aafl7apsoQkp2,iaxrX2niXBaIN48aafl7apsoQkp2,,,,,,,,,,,,,,,,,,,1910.0,,,6578943bda60b06de1ba4628,16:50:57,27/03/2024
html-keyboard-response,52,125900,0.0-24.0-0.0,1479.2999999523163,"<div style=""display: flex; flex-direction: column; align-items: center; margin-top: -40px;""><img src=""images/pattern_7.png"" style=""width: 234px; height: 230px; margin-top: -50px;""><div style=""display: flex; justify-content: space-between; margin-top: 33px;""><img src=""images/choice_trial_15.png"" style=""width: 408px; height: 417px; margin-right: 200px;""><img src=""images/choice_trial_8.png"" style=""width: 408px; height: 417px;""></div></div>",j,delaylearn,learning,trial,iaxrX2niXBaIN48aafl7apsoQkp2,iaxrX2niXBaIN48aafl7apsoQkp2,2.0,images/choice_trial_15.png,images/choice_trial_8.png,images/pattern_7.png,j,j,750.0,15.0,8.0,6.0,1.0,10.0,1.0,1.0,8.0,80.0,,,,,,6578943bda60b06de1ba4628,16:50:57,27/03/2024
html-keyboard-response,53,126906,0.0-24.0-1.0,,"<div style=""display: flex; flex-direction: column; align-items: center; margin-top: -40px;""><img src=""images/pattern_7.png"" style=""width: 234px; height: 230px; margin-top: -50px;""><div style=""display: flex; justify-content: space-between; margin-top: 33px;""><img src=""images/choice_trial_8.png"" style=""width: 408px; height: 417px; margin-left:608px;""></div></div>",,delaylearn,learning,display_response,iaxrX2niXBaIN48aafl7apsoQkp2,iaxrX2niXBaIN48aafl7apsoQkp2,,,,,,,,,,,,,,,,,chosen stimuli: images/choice_trial_8.png,,,,,6578943bda60b06de1ba4628,16:50:57,27/03/2024
html-keyboard-response,54,127671,0.0-24.0-2.0,,,,delaylearn,learning,feedback_duration_window,iaxrX2niXBaIN48aafl7apsoQkp2,iaxrX2niXBaIN48aafl7apsoQkp2,,,,,,,,,,,,,,,,,,750.0,,,,6578943bda60b06de1ba4628,16:50:57,27/03/2024
html-keyboard-response,55,129187,0.0-24.0-3.0,,<div style='margin:auto;width: auto; font-size: 150%'><span style='font-weight: bold; font-size: 100px; color: green;'>+10 points!</span><br><br></div>,,delaylearn,learning,feedback_image_window,iaxrX2niXBaIN48aafl7apsoQkp2,iaxrX2niXBaIN48aafl7apsoQkp2,,,,,,,,,,,,,,,,,,,,,,6578943bda60b06de1ba4628,16:50:57,27/03/2024
html-keyboard-response,56,131357,0.0-25.0,,"<div style=""font-size:100px;"">+</div>",,delaylearn,learning,ITI,iaxrX2niXBaIN48aafl7apsoQkp2,iaxrX2niXBaIN48aafl7apsoQkp2,,,,,,,,,,,,,,,,,,,2156.0,,,6578943bda60b06de1ba4628,16:50:57,27/03/2024
html-keyboard-response,57,133385,0.0-26.0-0.0,2026.3999999761581,"<div style=""display: flex; flex-direction: column; align-items: center; margin-top: -40px;""><img src=""images/pattern_4.png"" style=""width: 234px; height: 230px; margin-top: -50px;""><div style=""display: flex; justify-content: space-between; margin-top: 33px;""><img src=""images/choice_trial_4.png"" style=""width: 408px; height: 417px; margin-right: 200px;""><img src=""images/choice_trial_16.png"" style=""width: 408px; height: 417px;""></div></div>",j,delaylearn,learning,trial,iaxrX2niXBaIN48aafl7apsoQkp2,iaxrX2niXBaIN48aafl7apsoQkp2,2.0,images/choice_trial_4.png,images/choice_trial_16.png,images/pattern_4.png,f,f,7000.0,4.0,16.0,3.0,0.0,11.0,0.0,0.0,16.0,80.0,,,,,,6578943bda60b06de1ba4628,16:50:57,27/03/2024
html-keyboard-response,58,134397,0.0-26.0-1.0,,"<div style=""display: flex; flex-direction: column; align-items: center; margin-top: -40px;""><img src=""images/pattern_4.png"" style=""width: 234px; height: 230px; margin-top: -50px;""><div style=""display: flex; justify-content: space-between; margin-top: 33px;""><img src=""images/choice_trial_16.png"" style=""width: 408px; height: 417px; margin-left:608px;""></div></div>",,delaylearn,learning,display_response,iaxrX2niXBaIN48aafl7apsoQkp2,iaxrX2niXBaIN48aafl7apsoQkp2,,,,,,,,,,,,,,,,,chosen stimuli: images/choice_trial_16.png,,,,,6578943bda60b06de1ba4628,16:50:57,27/03/2024
html-keyboard-response,59,141412,0.0-26.0-2.0,,,,delaylearn,learning,feedback_duration_window,iaxrX2niXBaIN48aafl7apsoQkp2,iaxrX2niXBaIN48aafl7apsoQkp2,,,,,,,,,,,,,,,,,,7000.0,,,,6578943bda60b06de1ba4628,16:50:57,27/03/2024
html-keyboard-response,60,142925,0.0-26.0-3.0,,<div style='margin:auto;width: auto; font-size: 150%'><span style='font-weight: bold; font-size: 100px; color: red;'>0 points!</span><br><br></div>,,delaylearn,learning,feedback_image_window,iaxrX2niXBaIN48aafl7apsoQkp2,iaxrX2niXBaIN48aafl7apsoQkp2,,,,,,,,,,,,,,,,,,,,,,6578943bda60b06de1ba4628,16:50:57,27/03/2024
html-keyboard-response,61,144798,0.0-27.0,,"<div style=""font-size:100px;"">+</div>",,delaylearn,learning,ITI,iaxrX2niXBaIN48aafl7apsoQkp2,iaxrX2niXBaIN48aafl7apsoQkp2,,,,,,,,,,,,,,,,,,,1868.0,,,6578943bda60b06de1ba4628,16:50:57,27/03/2024
html-keyboard-response,62,145663,0.0-28.0-0.0,863.7000000476837,"<div style=""display: flex; flex-direction: column; align-items: center; margin-top: -40px;""><img src=""images/pattern_5.png"" style=""width: 234px; height: 230px; margin-top: -50px;""><div style=""display: flex; justify-content: space-between; margin-top: 33px;""><img src=""images/choice_trial_9.png"" style=""width: 408px; height: 417px; margin-right: 200px;""><img src=""images/choice_trial_2.png"" style=""width: 408px; height: 417px;""></div></div>",j,delaylearn,learning,trial,iaxrX2niXBaIN48aafl7apsoQkp2,iaxrX2niXBaIN48aafl7apsoQkp2,2.0,images/choice_trial_9.png,images/choice_trial_2.png,images/pattern_5.png,j,j,750.0,9.0,2.0,4.0,1.0,12.0,1.0,1.0,2.0,90.0,,,,,,6578943bda60b06de1ba4628,16:50:57,27/03/2024
html-keyboard-response,63,146667,0.0-28.0-1.0,,"<div style=""display: flex; flex-direction: column; align-items: center; margin-top: -40px;""><img src=""images/pattern_5.png"" style=""width: 234px; height: 230px; margin-top: -50px;""><div style=""display: flex; justify-content: space-between; margin-top: 33px;""><img src=""images/choice_trial_2.png"" style=""width: 408px; height: 417px; margin-left:608px;""></div></div>",,delaylearn,learning,display_response,iaxrX2niXBaIN48aafl7apsoQkp2,iaxrX2niXBaIN48aafl7apsoQkp2,,,,,,,,,,,,,,,,,chosen stimuli: images/choice_trial_2.png,,,,,6578943bda60b06de1ba4628,16:50:57,27/03/2024
html-keyboard-response,64,147430,0.0-28.0-2.0,,,,delaylearn,learning,feedback_duration_window,iaxrX2niXBaIN48aafl7apsoQkp2,iaxrX2niXBaIN48aafl7apsoQkp2,,,,,,,,,,,,,,,,,,750.0,,,,6578943bda60b06de1ba4628,16:50:57,27/03/2024
html-keyboard-response,65,148935,0.0-28.0-3.0,,<div style='margin:auto;width: auto; font-size: 150%'><span style='font-weight: bold; font-size: 100px; color: green;'>+10 points!</span><br><br></div>,,delaylearn,learning,feedback_image_window,iaxrX2niXBaIN48aafl7apsoQkp2,iaxrX2niXBaIN48aafl7apsoQkp2,,,,,,,,,,,,,,,,,,,,,,6578943bda60b06de1ba4628,16:50:57,27/03/2024
html-keyboard-response,66,150645,0.0-29.0,,"<div style=""font-size:100px;"">+</div>",,delaylearn,learning,ITI,iaxrX2niXBaIN48aafl7apsoQkp2,iaxrX2niXBaIN48aafl7apsoQkp2,,,,,,,,,,,,,,,,,,,1696.0,,,6578943bda60b06de1ba4628,16:50:57,27/03/2024
html-keyboard-response,67,151305,0.0-30.0-0.0,658.0,"<div style=""display: flex; flex-direction: column; align-items: center; margin-top: -40px;""><img src=""images/pattern_6.png"" style=""width: 234px; height: 230px; margin-top: -50px;""><div style=""display: flex; justify-content: space-between; margin-top: 33px;""><img src=""images/choice_trial_11.png"" style=""width: 408px; height: 417px; margin-right: 200px;""><img src=""images/choice_trial_5.png"" style=""width: 408px; height: 417px;""></div></div>",j,delaylearn,learning,trial,iaxrX2niXBaIN48aafl7apsoQkp2,iaxrX2niXBaIN48aafl7apsoQkp2,2.0,images/choice_trial_11.png,images/choice_trial_5.png,images/pattern_6.png,j,f,750.0,11.0,5.0,5.0,0.0,13.0,0.0,1.0,5.0,100.0,,,,,,6578943bda60b06de1ba4628,16:50:57,27/03/2024
html-keyboard-response,68,152308,0.0-30.0-1.0,,"<div style=""display: flex; flex-direction: column; align-items: center; margin-top: -40px;""><img src=""images/pattern_6.png"" style=""width: 234px; height: 230px; margin-top: -50px;""><div style=""display: flex; justify-content: space-between; margin-top: 33px;""><img src=""images/choice_trial_5.png"" style=""width: 408px; height: 417px; margin-left:608px;""></div></div>",,delaylearn,learning,display_response,iaxrX2niXBaIN48aafl7apsoQkp2,iaxrX2niXBaIN48aafl7apsoQkp2,,,,,,,,,,,,,,,,,chosen stimuli: images/choice_trial_5.png,,,,,6578943bda60b06de1ba4628,16:50:57,27/03/2024
html-keyboard-response,69,153060,0.0-30.0-2.0,,,,delaylearn,learning,feedback_duration_window,iaxrX2niXBaIN48aafl7apsoQkp2,iaxrX2niXBaIN48aafl7apsoQkp2,,,,,,,,,,,,,,,,,,750.0,,,,6578943bda60b06de1ba4628,16:50:57,27/03/2024
html-keyboard-response,70,154565,0.0-30.0-3.0,,<div style='margin:auto;width: auto; font-size: 150%'><span style='font-weight: bold; font-size: 100px; color: green;'>+10 points!</span><br><br></div>,,delaylearn,learning,feedback_image_window,iaxrX2niXBaIN48aafl7apsoQkp2,iaxrX2niXBaIN48aafl7apsoQkp2,,,,,,,,,,,,,,,,,,,,,,6578943bda60b06de1ba4628,16:50:57,27/03/2024
html-keyboard-response,71,155077,0.0-31.0-0.0,,,,,,mood_trial_fixation,iaxrX2niXBaIN48aafl7apsoQkp2,,,,,,,,,,,,,,,,,,,,,,,6578943bda60b06de1ba4628,16:50:57,27/03/2024
lmdlab-html-vas-response,72,160794,0.0-31.0-1.0,4711.0,How happy are you right now?,0.8194444444444444,delaylearn,learning,mood_trial,iaxrX2niXBaIN48aafl7apsoQkp2,iaxrX2niXBaIN48aafl7apsoQkp2,,,,,,,,,,,,,,,,,,,,"['Very unhappy', 'Very happy']",,6578943bda60b06de1ba4628,16:50:57,27/03/2024
html-keyboard-response,73,162698,0.0-32.0,,"<div style=""font-size:100px;"">+</div>",,delaylearn,learning,ITI,iaxrX2niXBaIN48aafl7apsoQkp2,iaxrX2niXBaIN48aafl7apsoQkp2,,,,,,,,,,,,,,,,,,,1886.0,,,6578943bda60b06de1ba4628,16:50:57,27/03/2024
html-keyboard-response,74,163585,0.0-33.0-0.0,885.0,"<div style=""display: flex; flex-direction: column; align-items: center; margin-top: -40px;""><img src=""images/pattern_1.png"" style=""width: 234px; height: 230px; margin-top: -50px;""><div style=""display: flex; justify-content: space-between; margin-top: 33px;""><img src=""images/choice_trial_10.png"" style=""width: 408px; height: 417px; margin-right: 200px;""><img src=""images/choice_trial_3.png"" style=""width: 408px; height: 417px;""></div></div>",j,delaylearn,learning,trial,iaxrX2niXBaIN48aafl7apsoQkp2,iaxrX2niXBaIN48aafl7apsoQkp2,2.0,images/choice_trial_10.png,images/choice_trial_3.png,images/pattern_1.png,j,j,7000.0,10.0,3.0,1.0,1.0,14.0,1.0,1.0,3.0,110.0,,,,,,6578943bda60b06de1ba4628,16:50:57,27/03/2024
html-keyboard-response,75,164599,0.0-33.0-1.0,,"<div style=""display: flex; flex-direction: column; align-items: center; margin-top: -40px;""><img src=""images/pattern_1.png"" style=""width: 234px; height: 230px; margin-top: -50px;""><div style=""display: flex; justify-content: space-between; margin-top: 33px;""><img src=""images/choice_trial_3.png"" style=""width: 408px; height: 417px; margin-left:608px;""></div></div>",,delaylearn,learning,display_response,iaxrX2niXBaIN48aafl7apsoQkp2,iaxrX2niXBaIN48aafl7apsoQkp2,,,,,,,,,,,,,,,,,chosen stimuli: images/choice_trial_3.png,,,,,6578943bda60b06de1ba4628,16:50:57,27/03/2024
html-keyboard-response,76,171612,0.0-33.0-2.0,,,,delaylearn,learning,feedback_duration_window,iaxrX2niXBaIN48aafl7apsoQkp2,iaxrX2niXBaIN48aafl7apsoQkp2,,,,,,,,,,,,,,,,,,7000.0,,,,6578943bda60b06de1ba4628,16:50:57,27/03/2024
html-keyboard-response,77,173118,0.0-33.0-3.0,,<div style='margin:auto;width: auto; font-size: 150%'><span style='font-weight: bold; font-size: 100px; color: green;'>+10 points!</span><br><br></div>,,delaylearn,learning,feedback_image_window,iaxrX2niXBaIN48aafl7apsoQkp2,iaxrX2niXBaIN48aafl7apsoQkp2,,,,,,,,,,,,,,,,,,,,,,6578943bda60b06de1ba4628,16:50:57,27/03/2024
html-keyboard-response,78,175450,0.0-34.0,,"<div style=""font-size:100px;"">+</div>",,delaylearn,learning,ITI,iaxrX2niXBaIN48aafl7apsoQkp2,iaxrX2niXBaIN48aafl7apsoQkp2,,,,,,,,,,,,,,,,,,,2330.0,,,6578943bda60b06de1ba4628,16:50:57,27/03/2024
html-keyboard-response,79,176149,0.0-35.0-0.0,695.2000000476837,"<div style=""display: flex; flex-direction: column; align-items: center; margin-top: -40px;""><img src=""images/pattern_3.png"" style=""width: 234px; height: 230px; margin-top: -50px;""><div style=""display: flex; justify-content: space-between; margin-top: 33px;""><img src=""images/choice_trial_14.png"" style=""width: 408px; height: 417px; margin-right: 200px;""><img src=""images/choice_trial_12.png"" style=""width: 408px; height: 417px;""></div></div>",j,delaylearn,learning,trial,iaxrX2niXBaIN48aafl7apsoQkp2,iaxrX2niXBaIN48aafl7apsoQkp2,2.0,images/choice_trial_14.png,images/choice_trial_12.png,images/pattern_3.png,f,j,7000.0,14.0,12.0,2.0,1.0,15.0,1.0,0.0,12.0,110.0,,,,,,6578943bda60b06de1ba4628,16:50:57,27/03/2024
html-keyboard-response,80,177156,0.0-35.0-1.0,,"<div style=""display: flex; flex-direction: column; align-items: center; margin-top: -40px;""><img src=""images/pattern_3.png"" style=""width: 234px; height: 230px; margin-top: -50px;""><div style=""display: flex; justify-content: space-between; margin-top: 33px;""><img src=""images/choice_trial_12.png"" style=""width: 408px; height: 417px; margin-left:608px;""></div></div>",,delaylearn,learning,display_response,iaxrX2niXBaIN48aafl7apsoQkp2,iaxrX2niXBaIN48aafl7apsoQkp2,,,,,,,,,,,,,,,,,chosen stimuli: images/choice_trial_12.png,,,,,6578943bda60b06de1ba4628,16:50:57,27/03/2024
html-keyboard-response,81,184158,0.0-35.0-2.0,,,,delaylearn,learning,feedback_duration_window,iaxrX2niXBaIN48aafl7apsoQkp2,iaxrX2niXBaIN48aafl7apsoQkp2,,,,,,,,,,,,,,,,,,7000.0,,,,6578943bda60b06de1ba4628,16:50:57,27/03/2024
html-keyboard-response,82,185660,0.0-35.0-3.0,,<div style='margin:auto;width: auto; font-size: 150%'><span style='font-weight: bold; font-size: 100px; color: red;'>0 points!</span><br><br></div>,,delaylearn,learning,feedback_image_window,iaxrX2niXBaIN48aafl7apsoQkp2,iaxrX2niXBaIN48aafl7apsoQkp2,,,,,,,,,,,,,,,,,,,,,,6578943bda60b06de1ba4628,16:50:57,27/03/2024
html-keyboard-response,83,187244,0.0-36.0,,"<div style=""font-size:100px;"">+</div>",,delaylearn,learning,ITI,iaxrX2niXBaIN48aafl7apsoQkp2,iaxrX2niXBaIN48aafl7apsoQkp2,,,,,,,,,,,,,,,,,,,1573.0,,,6578943bda60b06de1ba4628,16:50:57,27/03/2024
html-keyboard-response,84,187838,0.0-37.0-0.0,592.2000000476837,"<div style=""display: flex; flex-direction: column; align-items: center; margin-top: -40px;""><img src=""images/pattern_5.png"" style=""width: 234px; height: 230px; margin-top: -50px;""><div style=""display: flex; justify-content: space-between; margin-top: 33px;""><img src=""images/choice_trial_2.png"" style=""width: 408px; height: 417px; margin-right: 200px;""><img src=""images/choice_trial_9.png"" style=""width: 408px; height: 417px;""></div></div>",j,delaylearn,learning,trial,iaxrX2niXBaIN48aafl7apsoQkp2,iaxrX2niXBaIN48aafl7apsoQkp2,2.0,images/choice_trial_2.png,images/choice_trial_9.png,images/pattern_5.png,f,f,750.0,2.0,9.0,4.0,0.0,16.0,0.0,0.0,9.0,110.0,,,,,,6578943bda60b06de1ba4628,16:50:57,27/03/2024
html-keyboard-response,85,188850,0.0-37.0-1.0,,"<div style=""display: flex; flex-direction: column; align-items: center; margin-top: -40px;""><img src=""images/pattern_5.png"" style=""width: 234px; height: 230px; margin-top: -50px;""><div style=""display: flex; justify-content: space-between; margin-top: 33px;""><img src=""images/choice_trial_9.png"" style=""width: 408px; height: 417px; margin-left:608px;""></div></div>",,delaylearn,learning,display_response,iaxrX2niXBaIN48aafl7apsoQkp2,iaxrX2niXBaIN48aafl7apsoQkp2,,,,,,,,,,,,,,,,,chosen stimuli: images/choice_trial_9.png,,,,,6578943bda60b06de1ba4628,16:50:57,27/03/2024
html-keyboard-response,86,189607,0.0-37.0-2.0,,,,delaylearn,learning,feedback_duration_window,iaxrX2niXBaIN48aafl7apsoQkp2,iaxrX2niXBaIN48aafl7apsoQkp2,,,,,,,,,,,,,,,,,,750.0,,,,6578943bda60b06de1ba4628,16:50:57,27/03/2024
html-keyboard-response,87,191122,0.0-37.0-3.0,,<div style='margin:auto;width: auto; font-size: 150%'><span style='font-weight: bold; font-size: 100px; color: red;'>0 points!</span><br><br></div>,,delaylearn,learning,feedback_image_window,iaxrX2niXBaIN48aafl7apsoQkp2,iaxrX2niXBaIN48aafl7apsoQkp2,,,,,,,,,,,,,,,,,,,,,,6578943bda60b06de1ba4628,16:50:57,27/03/2024
html-keyboard-response,88,191638,0.0-38.0-0.0,,,,,,mood_trial_fixation,iaxrX2niXBaIN48aafl7apsoQkp2,,,,,,,,,,,,,,,,,,,,,,,6578943bda60b06de1ba4628,16:50:57,27/03/2024
lmdlab-html-vas-response,89,196501,0.0-38.0-1.0,3854.0,How happy are you right now?,0.7939814814814815,delaylearn,learning,mood_trial,iaxrX2niXBaIN48aafl7apsoQkp2,iaxrX2niXBaIN48aafl7apsoQkp2,,,,,,,,,,,,,,,,,,,,"['Very unhappy', 'Very happy']",,6578943bda60b06de1ba4628,16:50:57,27/03/2024
html-keyboard-response,90,198798,0.0-39.0,,"<div style=""font-size:100px;"">+</div>",,delaylearn,learning,ITI,iaxrX2niXBaIN48aafl7apsoQkp2,iaxrX2niXBaIN48aafl7apsoQkp2,,,,,,,,,,,,,,,,,,,2293.0,,,6578943bda60b06de1ba4628,16:50:57,27/03/2024
html-keyboard-response,91,199248,0.0-40.0-0.0,448.7000000476837,"<div style=""display: flex; flex-direction: column; align-items: center; margin-top: -40px;""><img src=""images/pattern_6.png"" style=""width: 234px; height: 230px; margin-top: -50px;""><div style=""display: flex; justify-content: space-between; margin-top: 33px;""><img src=""images/choice_trial_11.png"" style=""width: 408px; height: 417px; margin-right: 200px;""><img src=""images/choice_trial_5.png"" style=""width: 408px; height: 417px;""></div></div>",f,delaylearn,learning,trial,iaxrX2niXBaIN48aafl7apsoQkp2,iaxrX2niXBaIN48aafl7apsoQkp2,2.0,images/choice_trial_11.png,images/choice_trial_5.png,images/pattern_6.png,f,f,750.0,11.0,5.0,5.0,0.0,17.0,1.0,1.0,11.0,120.0,,,,,,6578943bda60b06de1ba4628,16:50:57,27/03/2024
html-keyboard-response,92,200253,0.0-40.0-1.0,,"<div style=""display: flex; flex-direction: column; align-items: center; margin-top: -40px;""><img src=""images/pattern_6.png"" style=""width: 234px; height: 230px; margin-top: -50px;""><div style=""display: flex; justify-content: space-between; margin-top: 33px;""><img src=""images/choice_trial_11.png"" style=""width: 408px; height: 417px; margin-right: 608px;""></div></div>",,delaylearn,learning,display_response,iaxrX2niXBaIN48aafl7apsoQkp2,iaxrX2niXBaIN48aafl7apsoQkp2,,,,,,,,,,,,,,,,,chosen stimuli: images/choice_trial_11.png,,,,,6578943bda60b06de1ba4628,16:50:57,27/03/2024
html-keyboard-response,93,201014,0.0-40.0-2.0,,,,delaylearn,learning,feedback_duration_window,iaxrX2niXBaIN48aafl7apsoQkp2,iaxrX2niXBaIN48aafl7apsoQkp2,,,,,,,,,,,,,,,,,,750.0,,,,6578943bda60b06de1ba4628,16:50:57,27/03/2024
html-keyboard-response,94,202528,0.0-40.0-3.0,,<div style='margin:auto;width: auto; font-size: 150%'><span style='font-weight: bold; font-size: 100px; color: green;'>+10 points!</span><br><br></div>,,delaylearn,learning,feedback_image_window,iaxrX2niXBaIN48aafl7apsoQkp2,iaxrX2niXBaIN48aafl7apsoQkp2,,,,,,,,,,,,,,,,,,,,,,6578943bda60b06de1ba4628,16:50:57,27/03/2024
html-keyboard-response,95,204230,0.0-41.0,,"<div style=""font-size:100px;"">+</div>",,delaylearn,learning,ITI,iaxrX2niXBaIN48aafl7apsoQkp2,iaxrX2niXBaIN48aafl7apsoQkp2,,,,,,,,,,,,,,,,,,,1689.0,,,6578943bda60b06de1ba4628,16:50:57,27/03/2024
html-keyboard-response,96,204942,0.0-42.0-0.0,710.6000000238419,"<div style=""display: flex; flex-direction: column; align-items: center; margin-top: -40px;""><img src=""images/pattern_4.png"" style=""width: 234px; height: 230px; margin-top: -50px;""><div style=""display: flex; justify-content: space-between; margin-top: 33px;""><img src=""images/choice_trial_16.png"" style=""width: 408px; height: 417px; margin-right: 200px;""><img src=""images/choice_trial_4.png"" style=""width: 408px; height: 417px;""></div></div>",f,delaylearn,learning,trial,iaxrX2niXBaIN48aafl7apsoQkp2,iaxrX2niXBaIN48aafl7apsoQkp2,2.0,images/choice_trial_16.png,images/choice_trial_4.png,images/pattern_4.png,j,j,7000.0,16.0,4.0,3.0,1.0,18.0,0.0,0.0,16.0,120.0,,,,,,6578943bda60b06de1ba4628,16:50:57,27/03/2024
html-keyboard-response,97,205959,0.0-42.0-1.0,,"<div style=""display: flex; flex-direction: column; align-items: center; margin-top: -40px;""><img src=""images/pattern_4.png"" style=""width: 234px; height: 230px; margin-top: -50px;""><div style=""display: flex; justify-content: space-between; margin-top: 33px;""><img src=""images/choice_trial_16.png"" style=""width: 408px; height: 417px; margin-right: 608px;""></div></div>",,delaylearn,learning,display_response,iaxrX2niXBaIN48aafl7apsoQkp2,iaxrX2niXBaIN48aafl7apsoQkp2,,,,,,,,,,,,,,,,,chosen stimuli: images/choice_trial_16.png,,,,,6578943bda60b06de1ba4628,16:50:57,27/03/2024
html-keyboard-response,98,212960,0.0-42.0-2.0,,,,delaylearn,learning,feedback_duration_window,iaxrX2niXBaIN48aafl7apsoQkp2,iaxrX2niXBaIN48aafl7apsoQkp2,,,,,,,,,,,,,,,,,,7000.0,,,,6578943bda60b06de1ba4628,16:50:57,27/03/2024
html-keyboard-response,99,214464,0.0-42.0-3.0,,<div style='margin:auto;width: auto; font-size: 150%'><span style='font-weight: bold; font-size: 100px; color: red;'>0 points!</span><br><br></div>,,delaylearn,learning,feedback_image_window,iaxrX2niXBaIN48aafl7apsoQkp2,iaxrX2niXBaIN48aafl7apsoQkp2,,,,,,,,,,,,,,,,,,,,,,6578943bda60b06de1ba4628,16:50:57,27/03/2024
html-keyboard-response,100,216794,0.0-43.0,,"<div style=""font-size:100px;"">+</div>",,delaylearn,learning,ITI,iaxrX2niXBaIN48aafl7apsoQkp2,iaxrX2niXBaIN48aafl7apsoQkp2,,,,,,,,,,,,,,,,,,,2320.0,,,6578943bda60b06de1ba4628,16:50:57,27/03/2024
html-keyboard-response,101,217523,0.0-44.0-0.0,727.5,"<div style=""display: flex; flex-direction: column; align-items: center; margin-top: -40px;""><img src=""images/pattern_7.png"" style=""width: 234px; height: 230px; margin-top: -50px;""><div style=""display: flex; justify-content: space-between; margin-top: 33px;""><img src=""images/choice_trial_8.png"" style=""width: 408px; height: 417px; margin-right: 200px;""><img src=""images/choice_trial_15.png"" style=""width: 408px; height: 417px;""></div></div>",j,delaylearn,learning,trial,iaxrX2niXBaIN48aafl7apsoQkp2,iaxrX2niXBaIN48aafl7apsoQkp2,2.0,images/choice_trial_8.png,images/choice_trial_15.png,images/pattern_7.png,j,f,750.0,8.0,15.0,6.0,0.0,19.0,0.0,1.0,15.0,130.0,,,,,,6578943bda60b06de1ba4628,16:50:57,27/03/2024
html-keyboard-response,102,218534,0.0-44.0-1.0,,"<div style=""display: flex; flex-direction: column; align-items: center; margin-top: -40px;""><img src=""images/pattern_7.png"" style=""width: 234px; height: 230px; margin-top: -50px;""><div style=""display: flex; justify-content: space-between; margin-top: 33px;""><img src=""images/choice_trial_15.png"" style=""width: 408px; height: 417px; margin-left:608px;""></div></div>",,delaylearn,learning,display_response,iaxrX2niXBaIN48aafl7apsoQkp2,iaxrX2niXBaIN48aafl7apsoQkp2,,,,,,,,,,,,,,,,,chosen stimuli: images/choice_trial_15.png,,,,,6578943bda60b06de1ba4628,16:50:57,27/03/2024
html-keyboard-response,103,219293,0.0-44.0-2.0,,,,delaylearn,learning,feedback_duration_window,iaxrX2niXBaIN48aafl7apsoQkp2,iaxrX2niXBaIN48aafl7apsoQkp2,,,,,,,,,,,,,,,,,,750.0,,,,6578943bda60b06de1ba4628,16:50:57,27/03/2024
html-keyboard-response,104,220805,0.0-44.0-3.0,,<div style='margin:auto;width: auto; font-size: 150%'><span style='font-weight: bold; font-size: 100px; color: green;'>+10 points!</span><br><br></div>,,delaylearn,learning,feedback_image_window,iaxrX2niXBaIN48aafl7apsoQkp2,iaxrX2niXBaIN48aafl7apsoQkp2,,,,,,,,,,,,,,,,,,,,,,6578943bda60b06de1ba4628,16:50:57,27/03/2024
html-keyboard-response,105,223175,0.0-45.0,,"<div style=""font-size:100px;"">+</div>",,delaylearn,learning,ITI,iaxrX2niXBaIN48aafl7apsoQkp2,iaxrX2niXBaIN48aafl7apsoQkp2,,,,,,,,,,,,,,,,,,,2355.0,,,6578943bda60b06de1ba4628,16:50:57,27/03/2024
html-keyboard-response,106,223595,0.0-46.0-0.0,417.8000000715256,"<div style=""display: flex; flex-direction: column; align-items: center; margin-top: -40px;""><img src=""images/pattern_1.png"" style=""width: 234px; height: 230px; margin-top: -50px;""><div style=""display: flex; justify-content: space-between; margin-top: 33px;""><img src=""images/choice_trial_3.png"" style=""width: 408px; height: 417px; margin-right: 200px;""><img src=""images/choice_trial_10.png"" style=""width: 408px; height: 417px;""></div></div>",f,delaylearn,learning,trial,iaxrX2niXBaIN48aafl7apsoQkp2,iaxrX2niXBaIN48aafl7apsoQkp2,2.0,images/choice_trial_3.png,images/choice_trial_10.png,images/pattern_1.png,f,f,7000.0,3.0,10.0,1.0,0.0,20.0,1.0,1.0,3.0,140.0,,,,,,6578943bda60b06de1ba4628,16:50:57,27/03/2024
html-keyboard-response,107,224599,0.0-46.0-1.0,,"<div style=""display: flex; flex-direction: column; align-items: center; margin-top: -40px;""><img src=""images/pattern_1.png"" style=""width: 234px; height: 230px; margin-top: -50px;""><div style=""display: flex; justify-content: space-between; margin-top: 33px;""><img src=""images/choice_trial_3.png"" style=""width: 408px; height: 417px; margin-right: 608px;""></div></div>",,delaylearn,learning,display_response,iaxrX2niXBaIN48aafl7apsoQkp2,iaxrX2niXBaIN48aafl7apsoQkp2,,,,,,,,,,,,,,,,,chosen stimuli: images/choice_trial_3.png,,,,,6578943bda60b06de1ba4628,16:50:57,27/03/2024
html-keyboard-response,108,231615,0.0-46.0-2.0,,,,delaylearn,learning,feedback_duration_window,iaxrX2niXBaIN48aafl7apsoQkp2,iaxrX2niXBaIN48aafl7apsoQkp2,,,,,,,,,,,,,,,,,,7000.0,,,,6578943bda60b06de1ba4628,16:50:57,27/03/2024
html-keyboard-response,109,233119,0.0-46.0-3.0,,<div style='margin:auto;width: auto; font-size: 150%'><span style='font-weight: bold; font-size: 100px; color: green;'>+10 points!</span><br><br></div>,,delaylearn,learning,feedback_image_window,iaxrX2niXBaIN48aafl7apsoQkp2,iaxrX2niXBaIN48aafl7apsoQkp2,,,,,,,,,,,,,,,,,,,,,,6578943bda60b06de1ba4628,16:50:57,27/03/2024
html-keyboard-response,110,235450,0.0-47.0,,"<div style=""font-size:100px;"">+</div>",,delaylearn,learning,ITI,iaxrX2niXBaIN48aafl7apsoQkp2,iaxrX2niXBaIN48aafl7apsoQkp2,,,,,,,,,,,,,,,,,,,2320.0,,,6578943bda60b06de1ba4628,16:50:57,27/03/2024
html-keyboard-response,111,236596,0.0-48.0-0.0,1143.2999999523163,"<div style=""display: flex; flex-direction: column; align-items: center; margin-top: -40px;""><img src=""images/pattern_6.png"" style=""width: 234px; height: 230px; margin-top: -50px;""><div style=""display: flex; justify-content: space-between; margin-top: 33px;""><img src=""images/choice_trial_5.png"" style=""width: 408px; height: 417px; margin-right: 200px;""><img src=""images/choice_trial_11.png"" style=""width: 408px; height: 417px;""></div></div>",f,delaylearn,learning,trial,iaxrX2niXBaIN48aafl7apsoQkp2,iaxrX2niXBaIN48aafl7apsoQkp2,2.0,images/choice_trial_5.png,images/choice_trial_11.png,images/pattern_6.png,j,j,750.0,5.0,11.0,5.0,1.0,21.0,0.0,0.0,5.0,140.0,,,,,,6578943bda60b06de1ba4628,16:50:57,27/03/2024
html-keyboard-response,112,237598,0.0-48.0-1.0,,"<div style=""display: flex; flex-direction: column; align-items: center; margin-top: -40px;""><img src=""images/pattern_6.png"" style=""width: 234px; height: 230px; margin-top: -50px;""><div style=""display: flex; justify-content: space-between; margin-top: 33px;""><img src=""images/choice_trial_5.png"" style=""width: 408px; height: 417px; margin-right: 608px;""></div></div>",,delaylearn,learning,display_response,iaxrX2niXBaIN48aafl7apsoQkp2,iaxrX2niXBaIN48aafl7apsoQkp2,,,,,,,,,,,,,,,,,chosen stimuli: images/choice_trial_5.png,,,,,6578943bda60b06de1ba4628,16:50:57,27/03/2024
html-keyboard-response,113,238361,0.0-48.0-2.0,,,,delaylearn,learning,feedback_duration_window,iaxrX2niXBaIN48aafl7apsoQkp2,iaxrX2niXBaIN48aafl7apsoQkp2,,,,,,,,,,,,,,,,,,750.0,,,,6578943bda60b06de1ba4628,16:50:57,27/03/2024
html-keyboard-response,114,239875,0.0-48.0-3.0,,<div style='margin:auto;width: auto; font-size: 150%'><span style='font-weight: bold; font-size: 100px; color: red;'>0 points!</span><br><br></div>,,delaylearn,learning,feedback_image_window,iaxrX2niXBaIN48aafl7apsoQkp2,iaxrX2niXBaIN48aafl7apsoQkp2,,,,,,,,,,,,,,,,,,,,,,6578943bda60b06de1ba4628,16:50:57,27/03/2024
html-keyboard-response,115,241448,0.0-49.0,,"<div style=""font-size:100px;"">+</div>",,delaylearn,learning,ITI,iaxrX2niXBaIN48aafl7apsoQkp2,iaxrX2niXBaIN48aafl7apsoQkp2,,,,,,,,,,,,,,,,,,,1558.0,,,6578943bda60b06de1ba4628,16:50:57,27/03/2024
html-keyboard-response,116,242418,0.0-50.0-0.0,967.8000000715256,"<div style=""display: flex; flex-direction: column; align-items: center; margin-top: -40px;""><img src=""images/pattern_4.png"" style=""width: 234px; height: 230px; margin-top: -50px;""><div style=""display: flex; justify-content: space-between; margin-top: 33px;""><img src=""images/choice_trial_4.png"" style=""width: 408px; height: 417px; margin-right: 200px;""><img src=""images/choice_trial_16.png"" style=""width: 408px; height: 417px;""></div></div>",j,delaylearn,learning,trial,iaxrX2niXBaIN48aafl7apsoQkp2,iaxrX2niXBaIN48aafl7apsoQkp2,2.0,images/choice_trial_4.png,images/choice_trial_16.png,images/pattern_4.png,f,f,7000.0,4.0,16.0,3.0,0.0,22.0,0.0,0.0,16.0,140.0,,,,,,6578943bda60b06de1ba4628,16:50:57,27/03/2024
html-keyboard-response,117,243431,0.0-50.0-1.0,,"<div style=""display: flex; flex-direction: column; align-items: center; margin-top: -40px;""><img src=""images/pattern_4.png"" style=""width: 234px; height: 230px; margin-top: -50px;""><div style=""display: flex; justify-content: space-between; margin-top: 33px;""><img src=""images/choice_trial_16.png"" style=""width: 408px; height: 417px; margin-left:608px;""></div></div>",,delaylearn,learning,display_response,iaxrX2niXBaIN48aafl7apsoQkp2,iaxrX2niXBaIN48aafl7apsoQkp2,,,,,,,,,,,,,,,,,chosen stimuli: images/choice_trial_16.png,,,,,6578943bda60b06de1ba4628,16:50:57,27/03/2024
html-keyboard-response,118,250435,0.0-50.0-2.0,,,,delaylearn,learning,feedback_duration_window,iaxrX2niXBaIN48aafl7apsoQkp2,iaxrX2niXBaIN48aafl7apsoQkp2,,,,,,,,,,,,,,,,,,7000.0,,,,6578943bda60b06de1ba4628,16:50:57,27/03/2024
html-keyboard-response,119,251940,0.0-50.0-3.0,,<div style='margin:auto;width: auto; font-size: 150%'><span style='font-weight: bold; font-size: 100px; color: red;'>0 points!</span><br><br></div>,,delaylearn,learning,feedback_image_window,iaxrX2niXBaIN48aafl7apsoQkp2,iaxrX2niXBaIN48aafl7apsoQkp2,,,,,,,,,,,,,,,,,,,,,,6578943bda60b06de1ba4628,16:50:57,27/03/2024
html-keyboard-response,120,252441,0.0-51.0-0.0,,,,,,mood_trial_fixation,iaxrX2niXBaIN48aafl7apsoQkp2,,,,,,,,,,,,,,,,,,,,,,,6578943bda60b06de1ba4628,16:50:57,27/03/2024
lmdlab-html-vas-response,121,256806,0.0-51.0-1.0,3348.0,How happy are you right now?,0.7685185185185185,delaylearn,learning,mood_trial,iaxrX2niXBaIN48aafl7apsoQkp2,iaxrX2niXBaIN48aafl7apsoQkp2,,,,,,,,,,,,,,,,,,,,"['Very unhappy', 'Very happy']",,6578943bda60b06de1ba4628,16:50:57,27/03/2024
html-keyboard-response,122,258848,0.0-52.0,,"<div style=""font-size:100px;"">+</div>",,delaylearn,learning,ITI,iaxrX2niXBaIN48aafl7apsoQkp2,iaxrX2niXBaIN48aafl7apsoQkp2,,,,,,,,,,,,,,,,,,,2023.0,,,6578943bda60b06de1ba4628,16:50:57,27/03/2024
html-keyboard-response,123,259331,0.0-53.0-0.0,480.60000002384186,"<div style=""display: flex; flex-direction: column; align-items: center; margin-top: -40px;""><img src=""images/pattern_7.png"" style=""width: 234px; height: 230px; margin-top: -50px;""><div style=""display: flex; justify-content: space-between; margin-top: 33px;""><img src=""images/choice_trial_15.png"" style=""width: 408px; height: 417px; margin-right: 200px;""><img src=""images/choice_trial_8.png"" style=""width: 408px; height: 417px;""></div></div>",f,delaylearn,learning,trial,iaxrX2niXBaIN48aafl7apsoQkp2,iaxrX2niXBaIN48aafl7apsoQkp2,2.0,images/choice_trial_15.png,images/choice_trial_8.png,images/pattern_7.png,j,j,750.0,15.0,8.0,6.0,1.0,23.0,0.0,0.0,15.0,140.0,,,,,,6578943bda60b06de1ba4628,16:50:57,27/03/2024
html-keyboard-response,124,260337,0.0-53.0-1.0,,"<div style=""display: flex; flex-direction: column; align-items: center; margin-top: -40px;""><img src=""images/pattern_7.png"" style=""width: 234px; height: 230px; margin-top: -50px;""><div style=""display: flex; justify-content: space-between; margin-top: 33px;""><img src=""images/choice_trial_15.png"" style=""width: 408px; height: 417px; margin-right: 608px;""></div></div>",,delaylearn,learning,display_response,iaxrX2niXBaIN48aafl7apsoQkp2,iaxrX2niXBaIN48aafl7apsoQkp2,,,,,,,,,,,,,,,,,chosen stimuli: images/choice_trial_15.png,,,,,6578943bda60b06de1ba4628,16:50:57,27/03/2024
html-keyboard-response,125,261093,0.0-53.0-2.0,,,,delaylearn,learning,feedback_duration_window,iaxrX2niXBaIN48aafl7apsoQkp2,iaxrX2niXBaIN48aafl7apsoQkp2,,,,,,,,,,,,,,,,,,750.0,,,,6578943bda60b06de1ba4628,16:50:57,27/03/2024
html-keyboard-response,126,262596,0.0-53.0-3.0,,<div style='margin:auto;width: auto; font-size: 150%'><span style='font-weight: bold; font-size: 100px; color: red;'>0 points!</span><br><br></div>,,delaylearn,learning,feedback_image_window,iaxrX2niXBaIN48aafl7apsoQkp2,iaxrX2niXBaIN48aafl7apsoQkp2,,,,,,,,,,,,,,,,,,,,,,6578943bda60b06de1ba4628,16:50:57,27/03/2024
html-keyboard-response,127,264332,0.0-54.0,,"<div style=""font-size:100px;"">+</div>",,delaylearn,learning,ITI,iaxrX2niXBaIN48aafl7apsoQkp2,iaxrX2niXBaIN48aafl7apsoQkp2,,,,,,,,,,,,,,,,,,,1733.0,,,6578943bda60b06de1ba4628,16:50:57,27/03/2024
html-keyboard-response,128,264805,0.0-55.0-0.0,471.5,"<div style=""display: flex; flex-direction: column; align-items: center; margin-top: -40px;""><img src=""images/pattern_1.png"" style=""width: 234px; height: 230px; margin-top: -50px;""><div style=""display: flex; justify-content: space-between; margin-top: 33px;""><img src=""images/choice_trial_10.png"" style=""width: 408px; height: 417px; margin-right: 200px;""><img src=""images/choice_trial_3.png"" style=""width: 408px; height: 417px;""></div></div>",f,delaylearn,learning,trial,iaxrX2niXBaIN48aafl7apsoQkp2,iaxrX2niXBaIN48aafl7apsoQkp2,2.0,images/choice_trial_10.png,images/choice_trial_3.png,images/pattern_1.png,f,j,7000.0,10.0,3.0,1.0,1.0,24.0,0.0,1.0,10.0,150.0,,,,,,6578943bda60b06de1ba4628,16:50:57,27/03/2024
html-keyboard-response,129,265816,0.0-55.0-1.0,,"<div style=""display: flex; flex-direction: column; align-items: center; margin-top: -40px;""><img src=""images/pattern_1.png"" style=""width: 234px; height: 230px; margin-top: -50px;""><div style=""display: flex; justify-content: space-between; margin-top: 33px;""><img src=""images/choice_trial_10.png"" style=""width: 408px; height: 417px; margin-right: 608px;""></div></div>",,delaylearn,learning,display_response,iaxrX2niXBaIN48aafl7apsoQkp2,iaxrX2niXBaIN48aafl7apsoQkp2,,,,,,,,,,,,,,,,,chosen stimuli: images/choice_trial_10.png,,,,,6578943bda60b06de1ba4628,16:50:57,27/03/2024
html-keyboard-response,130,272819,0.0-55.0-2.0,,,,delaylearn,learning,feedback_duration_window,iaxrX2niXBaIN48aafl7apsoQkp2,iaxrX2niXBaIN48aafl7apsoQkp2,,,,,,,,,,,,,,,,,,7000.0,,,,6578943bda60b06de1ba4628,16:50:57,27/03/2024
html-keyboard-response,131,274329,0.0-55.0-3.0,,<div style='margin:auto;width: auto; font-size: 150%'><span style='font-weight: bold; font-size: 100px; color: green;'>+10 points!</span><br><br></div>,,delaylearn,learning,feedback_image_window,iaxrX2niXBaIN48aafl7apsoQkp2,iaxrX2niXBaIN48aafl7apsoQkp2,,,,,,,,,,,,,,,,,,,,,,6578943bda60b06de1ba4628,16:50:57,27/03/2024
html-keyboard-response,132,276727,0.0-56.0,,"<div style=""font-size:100px;"">+</div>",,delaylearn,learning,ITI,iaxrX2niXBaIN48aafl7apsoQkp2,iaxrX2niXBaIN48aafl7apsoQkp2,,,,,,,,,,,,,,,,,,,2385.0,,,6578943bda60b06de1ba4628,16:50:57,27/03/2024
html-keyboard-response,133,277115,0.0-57.0-0.0,385.8000000715256,"<div style=""display: flex; flex-direction: column; align-items: center; margin-top: -40px;""><img src=""images/pattern_5.png"" style=""width: 234px; height: 230px; margin-top: -50px;""><div style=""display: flex; justify-content: space-between; margin-top: 33px;""><img src=""images/choice_trial_9.png"" style=""width: 408px; height: 417px; margin-right: 200px;""><img src=""images/choice_trial_2.png"" style=""width: 408px; height: 417px;""></div></div>",j,delaylearn,learning,trial,iaxrX2niXBaIN48aafl7apsoQkp2,iaxrX2niXBaIN48aafl7apsoQkp2,2.0,images/choice_trial_9.png,images/choice_trial_2.png,images/pattern_5.png,j,j,750.0,9.0,2.0,4.0,1.0,25.0,1.0,1.0,2.0,160.0,,,,,,6578943bda60b06de1ba4628,16:50:57,27/03/2024
html-keyboard-response,134,278120,0.0-57.0-1.0,,"<div style=""display: flex; flex-direction: column; align-items: center; margin-top: -40px;""><img src=""images/pattern_5.png"" style=""width: 234px; height: 230px; margin-top: -50px;""><div style=""display: flex; justify-content: space-between; margin-top: 33px;""><img src=""images/choice_trial_2.png"" style=""width: 408px; height: 417px; margin-left:608px;""></div></div>",,delaylearn,learning,display_response,iaxrX2niXBaIN48aafl7apsoQkp2,iaxrX2niXBaIN48aafl7apsoQkp2,,,,,,,,,,,,,,,,,chosen stimuli: images/choice_trial_2.png,,,,,6578943bda60b06de1ba4628,16:50:57,27/03/2024
html-keyboard-response,135,278875,0.0-57.0-2.0,,,,delaylearn,learning,feedback_duration_window,iaxrX2niXBaIN48aafl7apsoQkp2,iaxrX2niXBaIN48aafl7apsoQkp2,,,,,,,,,,,,,,,,,,750.0,,,,6578943bda60b06de1ba4628,16:50:57,27/03/2024
html-keyboard-response,136,280386,0.0-57.0-3.0,,<div style='margin:auto;width: auto; font-size: 150%'><span style='font-weight: bold; font-size: 100px; color: green;'>+10 points!</span><br><br></div>,,delaylearn,learning,feedback_image_window,iaxrX2niXBaIN48aafl7apsoQkp2,iaxrX2niXBaIN48aafl7apsoQkp2,,,,,,,,,,,,,,,,,,,,,,6578943bda60b06de1ba4628,16:50:57,27/03/2024
html-keyboard-response,137,282340,0.0-58.0,,"<div style=""font-size:100px;"">+</div>",,delaylearn,learning,ITI,iaxrX2niXBaIN48aafl7apsoQkp2,iaxrX2niXBaIN48aafl7apsoQkp2,,,,,,,,,,,,,,,,,,,1952.0,,,6578943bda60b06de1ba4628,16:50:57,27/03/2024
html-keyboard-response,138,284155,0.0-59.0-0.0,1813.5,"<div style=""display: flex; flex-direction: column; align-items: center; margin-top: -40px;""><img src=""images/pattern_3.png"" style=""width: 234px; height: 230px; margin-top: -50px;""><div style=""display: flex; justify-content: space-between; margin-top: 33px;""><img src=""images/choice_trial_14.png"" style=""width: 408px; height: 417px; margin-right: 200px;""><img src=""images/choice_trial_12.png"" style=""width: 408px; height: 417px;""></div></div>",j,delaylearn,learning,trial,iaxrX2niXBaIN48aafl7apsoQkp2,iaxrX2niXBaIN48aafl7apsoQkp2,2.0,images/choice_trial_14.png,images/choice_trial_12.png,images/pattern_3.png,j,j,7000.0,14.0,12.0,2.0,1.0,26.0,1.0,1.0,12.0,170.0,,,,,,6578943bda60b06de1ba4628,16:50:57,27/03/2024
html-keyboard-response,139,285160,0.0-59.0-1.0,,"<div style=""display: flex; flex-direction: column; align-items: center; margin-top: -40px;""><img src=""images/pattern_3.png"" style=""width: 234px; height: 230px; margin-top: -50px;""><div style=""display: flex; justify-content: space-between; margin-top: 33px;""><img src=""images/choice_trial_12.png"" style=""width: 408px; height: 417px; margin-left:608px;""></div></div>",,delaylearn,learning,display_response,iaxrX2niXBaIN48aafl7apsoQkp2,iaxrX2niXBaIN48aafl7apsoQkp2,,,,,,,,,,,,,,,,,chosen stimuli: images/choice_trial_12.png,,,,,6578943bda60b06de1ba4628,16:50:57,27/03/2024
html-keyboard-response,140,292163,0.0-59.0-2.0,,,,delaylearn,learning,feedback_duration_window,iaxrX2niXBaIN48aafl7apsoQkp2,iaxrX2niXBaIN48aafl7apsoQkp2,,,,,,,,,,,,,,,,,,7000.0,,,,6578943bda60b06de1ba4628,16:50:57,27/03/2024
html-keyboard-response,141,293680,0.0-59.0-3.0,,<div style='margin:auto;width: auto; font-size: 150%'><span style='font-weight: bold; font-size: 100px; color: green;'>+10 points!</span><br><br></div>,,delaylearn,learning,feedback_image_window,iaxrX2niXBaIN48aafl7apsoQkp2,iaxrX2niXBaIN48aafl7apsoQkp2,,,,,,,,,,,,,,,,,,,,,,6578943bda60b06de1ba4628,16:50:57,27/03/2024
lmdlab-html-vas-response,142,302639,0.0-60.0-0.0,7436.0,*How <b><u>confident</u></b> are you feeling about your answers at this moment?*,0.5532407407407407,rewlearn,rate_confidence,,iaxrX2niXBaIN48aafl7apsoQkp2,iaxrX2niXBaIN48aafl7apsoQkp2,,,,,,,,,,,,,,,,,,,,"['No confidence', 'Complete confidence']",,6578943bda60b06de1ba4628,16:50:57,27/03/2024
lmdlab-rest-trial-limit,143,354796,0.0-60.0-1.0,50651.10000002384,"<div style=""font-size:40px;""><b>Please take a break!</b><br><br><br><br><p>Great work: you earned 170 points.<br><br><br><p>You have completed part(s) 1 of 5.<br><br><br><br>When you are ready to continue<br><br><br>please click the button.</p><br><br>",0,delaylearn,learning,break,iaxrX2niXBaIN48aafl7apsoQkp2,iaxrX2niXBaIN48aafl7apsoQkp2,,,,,,,,,,,,,,,,,,,,,0.0,6578943bda60b06de1ba4628,16:50:57,27/03/2024
html-keyboard-response,144,357798,0.0-60.0-2.0,,"<div style=""font-size:100px;"">+</div>",,delaylearn,learning,pre_fixation,iaxrX2niXBaIN48aafl7apsoQkp2,,,,,,,,,,,,,,,,,,,,,,,6578943bda60b06de1ba4628,16:50:57,27/03/2024
lmdlab-html-vas-response,145,361650,0.0-60.0-3.0-0.0,2846.0,How happy are you right now?,0.7638888888888888,delaylearn,learning,mood_baseline,iaxrX2niXBaIN48aafl7apsoQkp2,iaxrX2niXBaIN48aafl7apsoQkp2,,,,,,,,,,,,,,,,,,,,"['Very unhappy', 'Very happy']",,6578943bda60b06de1ba4628,16:50:57,27/03/2024
html-keyboard-response,146,363152,0.0-60.0-3.0-1.0,,,,,,mood_baseline_fixation,iaxrX2niXBaIN48aafl7apsoQkp2,,,,,,,,,,,,,,,,,,,,,,,6578943bda60b06de1ba4628,16:50:57,27/03/2024
html-keyboard-response,147,365250,0.0-61.0,,"<div style=""font-size:100px;"">+</div>",,delaylearn,learning,ITI,iaxrX2niXBaIN48aafl7apsoQkp2,iaxrX2niXBaIN48aafl7apsoQkp2,,,,,,,,,,,,,,,,,,,2089.0,,,6578943bda60b06de1ba4628,16:50:57,27/03/2024
html-keyboard-response,148,365674,0.0-62.0-0.0,421.60000002384186,"<div style=""display: flex; flex-direction: column; align-items: center; margin-top: -40px;""><img src=""images/pattern_7.png"" style=""width: 234px; height: 230px; margin-top: -50px;""><div style=""display: flex; justify-content: space-between; margin-top: 33px;""><img src=""images/choice_trial_15.png"" style=""width: 408px; height: 417px; margin-right: 200px;""><img src=""images/choice_trial_8.png"" style=""width: 408px; height: 417px;""></div></div>",f,delaylearn,learning,trial,iaxrX2niXBaIN48aafl7apsoQkp2,iaxrX2niXBaIN48aafl7apsoQkp2,2.0,images/choice_trial_15.png,images/choice_trial_8.png,images/pattern_7.png,j,j,750.0,15.0,8.0,6.0,1.0,27.0,0.0,0.0,15.0,170.0,,,,,,6578943bda60b06de1ba4628,16:50:57,27/03/2024
html-keyboard-response,149,366691,0.0-62.0-1.0,,"<div style=""display: flex; flex-direction: column; align-items: center; margin-top: -40px;""><img src=""images/pattern_7.png"" style=""width: 234px; height: 230px; margin-top: -50px;""><div style=""display: flex; justify-content: space-between; margin-top: 33px;""><img src=""images/choice_trial_15.png"" style=""width: 408px; height: 417px; margin-right: 608px;""></div></div>",,delaylearn,learning,display_response,iaxrX2niXBaIN48aafl7apsoQkp2,iaxrX2niXBaIN48aafl7apsoQkp2,,,,,,,,,,,,,,,,,chosen stimuli: images/choice_trial_15.png,,,,,6578943bda60b06de1ba4628,16:50:57,27/03/2024
html-keyboard-response,150,367444,0.0-62.0-2.0,,,,delaylearn,learning,feedback_duration_window,iaxrX2niXBaIN48aafl7apsoQkp2,iaxrX2niXBaIN48aafl7apsoQkp2,,,,,,,,,,,,,,,,,,750.0,,,,6578943bda60b06de1ba4628,16:50:57,27/03/2024
html-keyboard-response,151,368956,0.0-62.0-3.0,,<div style='margin:auto;width: auto; font-size: 150%'><span style='font-weight: bold; font-size: 100px; color: red;'>0 points!</span><br><br></div>,,delaylearn,learning,feedback_image_window,iaxrX2niXBaIN48aafl7apsoQkp2,iaxrX2niXBaIN48aafl7apsoQkp2,,,,,,,,,,,,,,,,,,,,,,6578943bda60b06de1ba4628,16:50:57,27/03/2024
html-keyboard-response,152,369461,0.0-63.0-0.0,,,,,,mood_trial_fixation,iaxrX2niXBaIN48aafl7apsoQkp2,,,,,,,,,,,,,,,,,,,,,,,6578943bda60b06de1ba4628,16:50:57,27/03/2024
lmdlab-html-vas-response,153,375477,0.0-63.0-1.0,5002.0,How happy are you right now?,0.75,delaylearn,learning,mood_trial,iaxrX2niXBaIN48aafl7apsoQkp2,iaxrX2niXBaIN48aafl7apsoQkp2,,,,,,,,,,,,,,,,,,,,"['Very unhappy', 'Very happy']",,6578943bda60b06de1ba4628,16:50:57,27/03/2024
html-keyboard-response,154,377975,0.0-64.0,,"<div style=""font-size:100px;"">+</div>",,delaylearn,learning,ITI,iaxrX2niXBaIN48aafl7apsoQkp2,iaxrX2niXBaIN48aafl7apsoQkp2,,,,,,,,,,,,,,,,,,,2484.0,,,6578943bda60b06de1ba4628,16:50:57,27/03/2024
html-keyboard-response,155,378420,0.0-65.0-0.0,442.1999999284744,"<div style=""display: flex; flex-direction: column; align-items: center; margin-top: -40px;""><img src=""images/pattern_1.png"" style=""width: 234px; height: 230px; margin-top: -50px;""><div style=""display: flex; justify-content: space-between; margin-top: 33px;""><img src=""images/choice_trial_3.png"" style=""width: 408px; height: 417px; margin-right: 200px;""><img src=""images/choice_trial_10.png"" style=""width: 408px; height: 417px;""></div></div>",f,delaylearn,learning,trial,iaxrX2niXBaIN48aafl7apsoQkp2,iaxrX2niXBaIN48aafl7apsoQkp2,2.0,images/choice_trial_3.png,images/choice_trial_10.png,images/pattern_1.png,f,f,7000.0,3.0,10.0,1.0,0.0,28.0,1.0,1.0,3.0,180.0,,,,,,6578943bda60b06de1ba4628,16:50:57,27/03/2024
html-keyboard-response,156,379432,0.0-65.0-1.0,,"<div style=""display: flex; flex-direction: column; align-items: center; margin-top: -40px;""><img src=""images/pattern_1.png"" style=""width: 234px; height: 230px; margin-top: -50px;""><div style=""display: flex; justify-content: space-between; margin-top: 33px;""><img src=""images/choice_trial_3.png"" style=""width: 408px; height: 417px; margin-right: 608px;""></div></div>",,delaylearn,learning,display_response,iaxrX2niXBaIN48aafl7apsoQkp2,iaxrX2niXBaIN48aafl7apsoQkp2,,,,,,,,,,,,,,,,,chosen stimuli: images/choice_trial_3.png,,,,,6578943bda60b06de1ba4628,16:50:57,27/03/2024
html-keyboard-response,157,386441,0.0-65.0-2.0,,,,delaylearn,learning,feedback_duration_window,iaxrX2niXBaIN48aafl7apsoQkp2,iaxrX2niXBaIN48aafl7apsoQkp2,,,,,,,,,,,,,,,,,,7000.0,,,,6578943bda60b06de1ba4628,16:50:57,27/03/2024
html-keyboard-response,158,387955,0.0-65.0-3.0,,<div style='margin:auto;width: auto; font-size: 150%'><span style='font-weight: bold; font-size: 100px; color: green;'>+10 points!</span><br><br></div>,,delaylearn,learning,feedback_image_window,iaxrX2niXBaIN48aafl7apsoQkp2,iaxrX2niXBaIN48aafl7apsoQkp2,,,,,,,,,,,,,,,,,,,,,,6578943bda60b06de1ba4628,16:50:57,27/03/2024
html-keyboard-response,159,389508,0.0-66.0,,"<div style=""font-size:100px;"">+</div>",,delaylearn,learning,ITI,iaxrX2niXBaIN48aafl7apsoQkp2,iaxrX2niXBaIN48aafl7apsoQkp2,,,,,,,,,,,,,,,,,,,1548.0,,,6578943bda60b06de1ba4628,16:50:57,27/03/2024
html-keyboard-response,160,390177,0.0-67.0-0.0,666.8000000715256,"<div style=""display: flex; flex-direction: column; align-items: center; margin-top: -40px;""><img src=""images/pattern_5.png"" style=""width: 234px; height: 230px; margin-top: -50px;""><div style=""display: flex; justify-content: space-between; margin-top: 33px;""><img src=""images/choice_trial_2.png"" style=""width: 408px; height: 417px; margin-right: 200px;""><img src=""images/choice_trial_9.png"" style=""width: 408px; height: 417px;""></div></div>",j,delaylearn,learning,trial,iaxrX2niXBaIN48aafl7apsoQkp2,iaxrX2niXBaIN48aafl7apsoQkp2,2.0,images/choice_trial_2.png,images/choice_trial_9.png,images/pattern_5.png,f,f,750.0,2.0,9.0,4.0,0.0,29.0,0.0,0.0,9.0,180.0,,,,,,6578943bda60b06de1ba4628,16:50:57,27/03/2024
html-keyboard-response,161,391184,0.0-67.0-1.0,,"<div style=""display: flex; flex-direction: column; align-items: center; margin-top: -40px;""><img src=""images/pattern_5.png"" style=""width: 234px; height: 230px; margin-top: -50px;""><div style=""display: flex; justify-content: space-between; margin-top: 33px;""><img src=""images/choice_trial_9.png"" style=""width: 408px; height: 417px; margin-left:608px;""></div></div>",,delaylearn,learning,display_response,iaxrX2niXBaIN48aafl7apsoQkp2,iaxrX2niXBaIN48aafl7apsoQkp2,,,,,,,,,,,,,,,,,chosen stimuli: images/choice_trial_9.png,,,,,6578943bda60b06de1ba4628,16:50:57,27/03/2024
html-keyboard-response,162,391940,0.0-67.0-2.0,,,,delaylearn,learning,feedback_duration_window,iaxrX2niXBaIN48aafl7apsoQkp2,iaxrX2niXBaIN48aafl7apsoQkp2,,,,,,,,,,,,,,,,,,750.0,,,,6578943bda60b06de1ba4628,16:50:57,27/03/2024
html-keyboard-response,163,393445,0.0-67.0-3.0,,<div style='margin:auto;width: auto; font-size: 150%'><span style='font-weight: bold; font-size: 100px; color: red;'>0 points!</span><br><br></div>,,delaylearn,learning,feedback_image_window,iaxrX2niXBaIN48aafl7apsoQkp2,iaxrX2niXBaIN48aafl7apsoQkp2,,,,,,,,,,,,,,,,,,,,,,6578943bda60b06de1ba4628,16:50:57,27/03/2024
html-keyboard-response,164,395659,0.0-68.0,,"<div style=""font-size:100px;"">+</div>",,delaylearn,learning,ITI,iaxrX2niXBaIN48aafl7apsoQkp2,iaxrX2niXBaIN48aafl7apsoQkp2,,,,,,,,,,,,,,,,,,,2211.0,,,6578943bda60b06de1ba4628,16:50:57,27/03/2024
html-keyboard-response,165,396283,0.0-69.0-0.0,621.9000000953674,"<div style=""display: flex; flex-direction: column; align-items: center; margin-top: -40px;""><img src=""images/pattern_6.png"" style=""width: 234px; height: 230px; margin-top: -50px;""><div style=""display: flex; justify-content: space-between; margin-top: 33px;""><img src=""images/choice_trial_5.png"" style=""width: 408px; height: 417px; margin-right: 200px;""><img src=""images/choice_trial_11.png"" style=""width: 408px; height: 417px;""></div></div>",j,delaylearn,learning,trial,iaxrX2niXBaIN48aafl7apsoQkp2,iaxrX2niXBaIN48aafl7apsoQkp2,2.0,images/choice_trial_5.png,images/choice_trial_11.png,images/pattern_6.png,j,j,750.0,5.0,11.0,5.0,1.0,30.0,1.0,1.0,11.0,190.0,,,,,,6578943bda60b06de1ba4628,16:50:57,27/03/2024
html-keyboard-response,166,397294,0.0-69.0-1.0,,"<div style=""display: flex; flex-direction: column; align-items: center; margin-top: -40px;""><img src=""images/pattern_6.png"" style=""width: 234px; height: 230px; margin-top: -50px;""><div style=""display: flex; justify-content: space-between; margin-top: 33px;""><img src=""images/choice_trial_11.png"" style=""width: 408px; height: 417px; margin-left:608px;""></div></div>",,delaylearn,learning,display_response,iaxrX2niXBaIN48aafl7apsoQkp2,iaxrX2niXBaIN48aafl7apsoQkp2,,,,,,,,,,,,,,,,,chosen stimuli: images/choice_trial_11.png,,,,,6578943bda60b06de1ba4628,16:50:57,27/03/2024
html-keyboard-response,167,398058,0.0-69.0-2.0,,,,delaylearn,learning,feedback_duration_window,iaxrX2niXBaIN48aafl7apsoQkp2,iaxrX2niXBaIN48aafl7apsoQkp2,,,,,,,,,,,,,,,,,,750.0,,,,6578943bda60b06de1ba4628,16:50:57,27/03/2024
html-keyboard-response,168,399565,0.0-69.0-3.0,,<div style='margin:auto;width: auto; font-size: 150%'><span style='font-weight: bold; font-size: 100px; color: green;'>+10 points!</span><br><br></div>,,delaylearn,learning,feedback_image_window,iaxrX2niXBaIN48aafl7apsoQkp2,iaxrX2niXBaIN48aafl7apsoQkp2,,,,,,,,,,,,,,,,,,,,,,6578943bda60b06de1ba4628,16:50:57,27/03/2024
html-keyboard-response,169,400080,0.0-70.0-0.0,,,,,,mood_trial_fixation,iaxrX2niXBaIN48aafl7apsoQkp2,,,,,,,,,,,,,,,,,,,,,,,6578943bda60b06de1ba4628,16:50:57,27/03/2024
lmdlab-html-vas-response,170,405507,0.0-70.0-1.0,4411.0,How happy are you right now?,0.7962962962962963,delaylearn,learning,mood_trial,iaxrX2niXBaIN48aafl7apsoQkp2,iaxrX2niXBaIN48aafl7apsoQkp2,,,,,,,,,,,,,,,,,,,,"['Very unhappy', 'Very happy']",,6578943bda60b06de1ba4628,16:50:57,27/03/2024
html-keyboard-response,171,407781,0.0-71.0,,"<div style=""font-size:100px;"">+</div>",,delaylearn,learning,ITI,iaxrX2niXBaIN48aafl7apsoQkp2,iaxrX2niXBaIN48aafl7apsoQkp2,,,,,,,,,,,,,,,,,,,2267.0,,,6578943bda60b06de1ba4628,16:50:57,27/03/2024
html-keyboard-response,172,408811,0.0-72.0-0.0,1028.6999999284744,"<div style=""display: flex; flex-direction: column; align-items: center; margin-top: -40px;""><img src=""images/pattern_4.png"" style=""width: 234px; height: 230px; margin-top: -50px;""><div style=""display: flex; justify-content: space-between; margin-top: 33px;""><img src=""images/choice_trial_16.png"" style=""width: 408px; height: 417px; margin-right: 200px;""><img src=""images/choice_trial_4.png"" style=""width: 408px; height: 417px;""></div></div>",j,delaylearn,learning,trial,iaxrX2niXBaIN48aafl7apsoQkp2,iaxrX2niXBaIN48aafl7apsoQkp2,2.0,images/choice_trial_16.png,images/choice_trial_4.png,images/pattern_4.png,j,j,7000.0,16.0,4.0,3.0,1.0,31.0,1.0,1.0,4.0,200.0,,,,,,6578943bda60b06de1ba4628,16:50:57,27/03/2024
html-keyboard-response,173,409815,0.0-72.0-1.0,,"<div style=""display: flex; flex-direction: column; align-items: center; margin-top: -40px;""><img src=""images/pattern_4.png"" style=""width: 234px; height: 230px; margin-top: -50px;""><div style=""display: flex; justify-content: space-between; margin-top: 33px;""><img src=""images/choice_trial_4.png"" style=""width: 408px; height: 417px; margin-left:608px;""></div></div>",,delaylearn,learning,display_response,iaxrX2niXBaIN48aafl7apsoQkp2,iaxrX2niXBaIN48aafl7apsoQkp2,,,,,,,,,,,,,,,,,chosen stimuli: images/choice_trial_4.png,,,,,6578943bda60b06de1ba4628,16:50:57,27/03/2024
html-keyboard-response,174,416816,0.0-72.0-2.0,,,,delaylearn,learning,feedback_duration_window,iaxrX2niXBaIN48aafl7apsoQkp2,iaxrX2niXBaIN48aafl7apsoQkp2,,,,,,,,,,,,,,,,,,7000.0,,,,6578943bda60b06de1ba4628,16:50:57,27/03/2024
html-keyboard-response,175,418320,0.0-72.0-3.0,,<div style='margin:auto;width: auto; font-size: 150%'><span style='font-weight: bold; font-size: 100px; color: green;'>+10 points!</span><br><br></div>,,delaylearn,learning,feedback_image_window,iaxrX2niXBaIN48aafl7apsoQkp2,iaxrX2niXBaIN48aafl7apsoQkp2,,,,,,,,,,,,,,,,,,,,,,6578943bda60b06de1ba4628,16:50:57,27/03/2024
html-keyboard-response,176,420386,0.0-73.0,,"<div style=""font-size:100px;"">+</div>",,delaylearn,learning,ITI,iaxrX2niXBaIN48aafl7apsoQkp2,iaxrX2niXBaIN48aafl7apsoQkp2,,,,,,,,,,,,,,,,,,,2062.0,,,6578943bda60b06de1ba4628,16:50:57,27/03/2024
html-keyboard-response,177,421217,0.0-74.0-0.0,828.6000000238419,"<div style=""display: flex; flex-direction: column; align-items: center; margin-top: -40px;""><img src=""images/pattern_3.png"" style=""width: 234px; height: 230px; margin-top: -50px;""><div style=""display: flex; justify-content: space-between; margin-top: 33px;""><img src=""images/choice_trial_14.png"" style=""width: 408px; height: 417px; margin-right: 200px;""><img src=""images/choice_trial_12.png"" style=""width: 408px; height: 417px;""></div></div>",j,delaylearn,learning,trial,iaxrX2niXBaIN48aafl7apsoQkp2,iaxrX2niXBaIN48aafl7apsoQkp2,2.0,images/choice_trial_14.png,images/choice_trial_12.png,images/pattern_3.png,j,j,7000.0,14.0,12.0,2.0,1.0,32.0,1.0,1.0,12.0,210.0,,,,,,6578943bda60b06de1ba4628,16:50:57,27/03/2024
html-keyboard-response,178,422230,0.0-74.0-1.0,,"<div style=""display: flex; flex-direction: column; align-items: center; margin-top: -40px;""><img src=""images/pattern_3.png"" style=""width: 234px; height: 230px; margin-top: -50px;""><div style=""display: flex; justify-content: space-between; margin-top: 33px;""><img src=""images/choice_trial_12.png"" style=""width: 408px; height: 417px; margin-left:608px;""></div></div>",,delaylearn,learning,display_response,iaxrX2niXBaIN48aafl7apsoQkp2,iaxrX2niXBaIN48aafl7apsoQkp2,,,,,,,,,,,,,,,,,chosen stimuli: images/choice_trial_12.png,,,,,6578943bda60b06de1ba4628,16:50:57,27/03/2024
html-keyboard-response,179,429235,0.0-74.0-2.0,,,,delaylearn,learning,feedback_duration_window,iaxrX2niXBaIN48aafl7apsoQkp2,iaxrX2niXBaIN48aafl7apsoQkp2,,,,,,,,,,,,,,,,,,7000.0,,,,6578943bda60b06de1ba4628,16:50:57,27/03/2024
html-keyboard-response,180,430737,0.0-74.0-3.0,,<div style='margin:auto;width: auto; font-size: 150%'><span style='font-weight: bold; font-size: 100px; color: green;'>+10 points!</span><br><br></div>,,delaylearn,learning,feedback_image_window,iaxrX2niXBaIN48aafl7apsoQkp2,iaxrX2niXBaIN48aafl7apsoQkp2,,,,,,,,,,,,,,,,,,,,,,6578943bda60b06de1ba4628,16:50:57,27/03/2024
html-keyboard-response,181,432786,0.0-75.0,,"<div style=""font-size:100px;"">+</div>",,delaylearn,learning,ITI,iaxrX2niXBaIN48aafl7apsoQkp2,iaxrX2niXBaIN48aafl7apsoQkp2,,,,,,,,,,,,,,,,,,,2036.0,,,6578943bda60b06de1ba4628,16:50:57,27/03/2024
html-keyboard-response,182,433550,0.0-76.0-0.0,761.3000000715256,"<div style=""display: flex; flex-direction: column; align-items: center; margin-top: -40px;""><img src=""images/pattern_5.png"" style=""width: 234px; height: 230px; margin-top: -50px;""><div style=""display: flex; justify-content: space-between; margin-top: 33px;""><img src=""images/choice_trial_2.png"" style=""width: 408px; height: 417px; margin-right: 200px;""><img src=""images/choice_trial_9.png"" style=""width: 408px; height: 417px;""></div></div>",j,delaylearn,learning,trial,iaxrX2niXBaIN48aafl7apsoQkp2,iaxrX2niXBaIN48aafl7apsoQkp2,2.0,images/choice_trial_2.png,images/choice_trial_9.png,images/pattern_5.png,j,f,750.0,2.0,9.0,4.0,0.0,33.0,0.0,1.0,9.0,220.0,,,,,,6578943bda60b06de1ba4628,16:50:57,27/03/2024
html-keyboard-response,183,434568,0.0-76.0-1.0,,"<div style=""display: flex; flex-direction: column; align-items: center; margin-top: -40px;""><img src=""images/pattern_5.png"" style=""width: 234px; height: 230px; margin-top: -50px;""><div style=""display: flex; justify-content: space-between; margin-top: 33px;""><img src=""images/choice_trial_9.png"" style=""width: 408px; height: 417px; margin-left:608px;""></div></div>",,delaylearn,learning,display_response,iaxrX2niXBaIN48aafl7apsoQkp2,iaxrX2niXBaIN48aafl7apsoQkp2,,,,,,,,,,,,,,,,,chosen stimuli: images/choice_trial_9.png,,,,,6578943bda60b06de1ba4628,16:50:57,27/03/2024
html-keyboard-response,184,435321,0.0-76.0-2.0,,,,delaylearn,learning,feedback_duration_window,iaxrX2niXBaIN48aafl7apsoQkp2,iaxrX2niXBaIN48aafl7apsoQkp2,,,,,,,,,,,,,,,,,,750.0,,,,6578943bda60b06de1ba4628,16:50:57,27/03/2024
html-keyboard-response,185,436829,0.0-76.0-3.0,,<div style='margin:auto;width: auto; font-size: 150%'><span style='font-weight: bold; font-size: 100px; color: green;'>+10 points!</span><br><br></div>,,delaylearn,learning,feedback_image_window,iaxrX2niXBaIN48aafl7apsoQkp2,iaxrX2niXBaIN48aafl7apsoQkp2,,,,,,,,,,,,,,,,,,,,,,6578943bda60b06de1ba4628,16:50:57,27/03/2024
html-keyboard-response,186,439000,0.0-77.0,,"<div style=""font-size:100px;"">+</div>",,delaylearn,learning,ITI,iaxrX2niXBaIN48aafl7apsoQkp2,iaxrX2niXBaIN48aafl7apsoQkp2,,,,,,,,,,,,,,,,,,,2164.0,,,6578943bda60b06de1ba4628,16:50:57,27/03/2024
html-keyboard-response,187,439702,0.0-78.0-0.0,697.7999999523163,"<div style=""display: flex; flex-direction: column; align-items: center; margin-top: -40px;""><img src=""images/pattern_1.png"" style=""width: 234px; height: 230px; margin-top: -50px;""><div style=""display: flex; justify-content: space-between; margin-top: 33px;""><img src=""images/choice_trial_3.png"" style=""width: 408px; height: 417px; margin-right: 200px;""><img src=""images/choice_trial_10.png"" style=""width: 408px; height: 417px;""></div></div>",j,delaylearn,learning,trial,iaxrX2niXBaIN48aafl7apsoQkp2,iaxrX2niXBaIN48aafl7apsoQkp2,2.0,images/choice_trial_3.png,images/choice_trial_10.png,images/pattern_1.png,f,f,7000.0,3.0,10.0,1.0,0.0,34.0,0.0,0.0,10.0,220.0,,,,,,6578943bda60b06de1ba4628,16:50:57,27/03/2024
html-keyboard-response,188,440720,0.0-78.0-1.0,,"<div style=""display: flex; flex-direction: column; align-items: center; margin-top: -40px;""><img src=""images/pattern_1.png"" style=""width: 234px; height: 230px; margin-top: -50px;""><div style=""display: flex; justify-content: space-between; margin-top: 33px;""><img src=""images/choice_trial_10.png"" style=""width: 408px; height: 417px; margin-left:608px;""></div></div>",,delaylearn,learning,display_response,iaxrX2niXBaIN48aafl7apsoQkp2,iaxrX2niXBaIN48aafl7apsoQkp2,,,,,,,,,,,,,,,,,chosen stimuli: images/choice_trial_10.png,,,,,6578943bda60b06de1ba4628,16:50:57,27/03/2024
html-keyboard-response,189,447722,0.0-78.0-2.0,,,,delaylearn,learning,feedback_duration_window,iaxrX2niXBaIN48aafl7apsoQkp2,iaxrX2niXBaIN48aafl7apsoQkp2,,,,,,,,,,,,,,,,,,7000.0,,,,6578943bda60b06de1ba4628,16:50:57,27/03/2024
html-keyboard-response,190,449237,0.0-78.0-3.0,,<div style='margin:auto;width: auto; font-size: 150%'><span style='font-weight: bold; font-size: 100px; color: red;'>0 points!</span><br><br></div>,,delaylearn,learning,feedback_image_window,iaxrX2niXBaIN48aafl7apsoQkp2,iaxrX2niXBaIN48aafl7apsoQkp2,,,,,,,,,,,,,,,,,,,,,,6578943bda60b06de1ba4628,16:50:57,27/03/2024
html-keyboard-response,191,449748,0.0-79.0-0.0,,,,,,mood_trial_fixation,iaxrX2niXBaIN48aafl7apsoQkp2,,,,,,,,,,,,,,,,,,,,,,,6578943bda60b06de1ba4628,16:50:57,27/03/2024
lmdlab-html-vas-response,192,455854,0.0-79.0-1.0,5090.0,How happy are you right now?,0.7916666666666666,delaylearn,learning,mood_trial,iaxrX2niXBaIN48aafl7apsoQkp2,iaxrX2niXBaIN48aafl7apsoQkp2,,,,,,,,,,,,,,,,,,,,"['Very unhappy', 'Very happy']",,6578943bda60b06de1ba4628,16:50:57,27/03/2024
html-keyboard-response,193,457525,0.0-80.0,,"<div style=""font-size:100px;"">+</div>",,delaylearn,learning,ITI,iaxrX2niXBaIN48aafl7apsoQkp2,iaxrX2niXBaIN48aafl7apsoQkp2,,,,,,,,,,,,,,,,,,,1655.0,,,6578943bda60b06de1ba4628,16:50:57,27/03/2024
html-keyboard-response,194,458092,0.0-81.0-0.0,563.5,"<div style=""display: flex; flex-direction: column; align-items: center; margin-top: -40px;""><img src=""images/pattern_6.png"" style=""width: 234px; height: 230px; margin-top: -50px;""><div style=""display: flex; justify-content: space-between; margin-top: 33px;""><img src=""images/choice_trial_11.png"" style=""width: 408px; height: 417px; margin-right: 200px;""><img src=""images/choice_trial_5.png"" style=""width: 408px; height: 417px;""></div></div>",j,delaylearn,learning,trial,iaxrX2niXBaIN48aafl7apsoQkp2,iaxrX2niXBaIN48aafl7apsoQkp2,2.0,images/choice_trial_11.png,images/choice_trial_5.png,images/pattern_6.png,j,f,750.0,11.0,5.0,5.0,0.0,35.0,0.0,1.0,5.0,230.0,,,,,,6578943bda60b06de1ba4628,16:50:57,27/03/2024
html-keyboard-response,195,459104,0.0-81.0-1.0,,"<div style=""display: flex; flex-direction: column; align-items: center; margin-top: -40px;""><img src=""images/pattern_6.png"" style=""width: 234px; height: 230px; margin-top: -50px;""><div style=""display: flex; justify-content: space-between; margin-top: 33px;""><img src=""images/choice_trial_5.png"" style=""width: 408px; height: 417px; margin-left:608px;""></div></div>",,delaylearn,learning,display_response,iaxrX2niXBaIN48aafl7apsoQkp2,iaxrX2niXBaIN48aafl7apsoQkp2,,,,,,,,,,,,,,,,,chosen stimuli: images/choice_trial_5.png,,,,,6578943bda60b06de1ba4628,16:50:57,27/03/2024
html-keyboard-response,196,459855,0.0-81.0-2.0,,,,delaylearn,learning,feedback_duration_window,iaxrX2niXBaIN48aafl7apsoQkp2,iaxrX2niXBaIN48aafl7apsoQkp2,,,,,,,,,,,,,,,,,,750.0,,,,6578943bda60b06de1ba4628,16:50:57,27/03/2024
html-keyboard-response,197,461358,0.0-81.0-3.0,,<div style='margin:auto;width: auto; font-size: 150%'><span style='font-weight: bold; font-size: 100px; color: green;'>+10 points!</span><br><br></div>,,delaylearn,learning,feedback_image_window,iaxrX2niXBaIN48aafl7apsoQkp2,iaxrX2niXBaIN48aafl7apsoQkp2,,,,,,,,,,,,,,,,,,,,,,6578943bda60b06de1ba4628,16:50:57,27/03/2024
html-keyboard-response,198,463660,0.0-82.0,,"<div style=""font-size:100px;"">+</div>",,delaylearn,learning,ITI,iaxrX2niXBaIN48aafl7apsoQkp2,iaxrX2niXBaIN48aafl7apsoQkp2,,,,,,,,,,,,,,,,,,,2288.0,,,6578943bda60b06de1ba4628,16:50:57,27/03/2024
html-keyboard-response,199,464295,0.0-83.0-0.0,630.7999999523163,"<div style=""display: flex; flex-direction: column; align-items: center; margin-top: -40px;""><img src=""images/pattern_3.png"" style=""width: 234px; height: 230px; margin-top: -50px;""><div style=""display: flex; justify-content: space-between; margin-top: 33px;""><img src=""images/choice_trial_14.png"" style=""width: 408px; height: 417px; margin-right: 200px;""><img src=""images/choice_trial_12.png"" style=""width: 408px; height: 417px;""></div></div>",j,delaylearn,learning,trial,iaxrX2niXBaIN48aafl7apsoQkp2,iaxrX2niXBaIN48aafl7apsoQkp2,2.0,images/choice_trial_14.png,images/choice_trial_12.png,images/pattern_3.png,j,j,7000.0,14.0,12.0,2.0,1.0,36.0,1.0,1.0,12.0,240.0,,,,,,6578943bda60b06de1ba4628,16:50:57,27/03/2024
html-keyboard-response,200,465299,0.0-83.0-1.0,,"<div style=""display: flex; flex-direction: column; align-items: center; margin-top: -40px;""><img src=""images/pattern_3.png"" style=""width: 234px; height: 230px; margin-top: -50px;""><div style=""display: flex; justify-content: space-between; margin-top: 33px;""><img src=""images/choice_trial_12.png"" style=""width: 408px; height: 417px; margin-left:608px;""></div></div>",,delaylearn,learning,display_response,iaxrX2niXBaIN48aafl7apsoQkp2,iaxrX2niXBaIN48aafl7apsoQkp2,,,,,,,,,,,,,,,,,chosen stimuli: images/choice_trial_12.png,,,,,6578943bda60b06de1ba4628,16:50:57,27/03/2024
html-keyboard-response,201,472303,0.0-83.0-2.0,,,,delaylearn,learning,feedback_duration_window,iaxrX2niXBaIN48aafl7apsoQkp2,iaxrX2niXBaIN48aafl7apsoQkp2,,,,,,,,,,,,,,,,,,7000.0,,,,6578943bda60b06de1ba4628,16:50:57,27/03/2024
html-keyboard-response,202,473808,0.0-83.0-3.0,,<div style='margin:auto;width: auto; font-size: 150%'><span style='font-weight: bold; font-size: 100px; color: green;'>+10 points!</span><br><br></div>,,delaylearn,learning,feedback_image_window,iaxrX2niXBaIN48aafl7apsoQkp2,iaxrX2niXBaIN48aafl7apsoQkp2,,,,,,,,,,,,,,,,,,,,,,6578943bda60b06de1ba4628,16:50:57,27/03/2024
html-keyboard-response,203,475960,0.0-84.0,,"<div style=""font-size:100px;"">+</div>",,delaylearn,learning,ITI,iaxrX2niXBaIN48aafl7apsoQkp2,iaxrX2niXBaIN48aafl7apsoQkp2,,,,,,,,,,,,,,,,,,,2142.0,,,6578943bda60b06de1ba4628,16:50:57,27/03/2024
html-keyboard-response,204,476455,0.0-85.0-0.0,492.5,"<div style=""display: flex; flex-direction: column; align-items: center; margin-top: -40px;""><img src=""images/pattern_4.png"" style=""width: 234px; height: 230px; margin-top: -50px;""><div style=""display: flex; justify-content: space-between; margin-top: 33px;""><img src=""images/choice_trial_16.png"" style=""width: 408px; height: 417px; margin-right: 200px;""><img src=""images/choice_trial_4.png"" style=""width: 408px; height: 417px;""></div></div>",f,delaylearn,learning,trial,iaxrX2niXBaIN48aafl7apsoQkp2,iaxrX2niXBaIN48aafl7apsoQkp2,2.0,images/choice_trial_16.png,images/choice_trial_4.png,images/pattern_4.png,f,j,7000.0,16.0,4.0,3.0,1.0,37.0,0.0,1.0,16.0,250.0,,,,,,6578943bda60b06de1ba4628,16:50:57,27/03/2024
html-keyboard-response,205,477466,0.0-85.0-1.0,,"<div style=""display: flex; flex-direction: column; align-items: center; margin-top: -40px;""><img src=""images/pattern_4.png"" style=""width: 234px; height: 230px; margin-top: -50px;""><div style=""display: flex; justify-content: space-between; margin-top: 33px;""><img src=""images/choice_trial_16.png"" style=""width: 408px; height: 417px; margin-right: 608px;""></div></div>",,delaylearn,learning,display_response,iaxrX2niXBaIN48aafl7apsoQkp2,iaxrX2niXBaIN48aafl7apsoQkp2,,,,,,,,,,,,,,,,,chosen stimuli: images/choice_trial_16.png,,,,,6578943bda60b06de1ba4628,16:50:57,27/03/2024
html-keyboard-response,206,484483,0.0-85.0-2.0,,,,delaylearn,learning,feedback_duration_window,iaxrX2niXBaIN48aafl7apsoQkp2,iaxrX2niXBaIN48aafl7apsoQkp2,,,,,,,,,,,,,,,,,,7000.0,,,,6578943bda60b06de1ba4628,16:50:57,27/03/2024
html-keyboard-response,207,485995,0.0-85.0-3.0,,<div style='margin:auto;width: auto; font-size: 150%'><span style='font-weight: bold; font-size: 100px; color: green;'>+10 points!</span><br><br></div>,,delaylearn,learning,feedback_image_window,iaxrX2niXBaIN48aafl7apsoQkp2,iaxrX2niXBaIN48aafl7apsoQkp2,,,,,,,,,,,,,,,,,,,,,,6578943bda60b06de1ba4628,16:50:57,27/03/2024
html-keyboard-response,208,487695,0.0-86.0,,"<div style=""font-size:100px;"">+</div>",,delaylearn,learning,ITI,iaxrX2niXBaIN48aafl7apsoQkp2,iaxrX2niXBaIN48aafl7apsoQkp2,,,,,,,,,,,,,,,,,,,1695.0,,,6578943bda60b06de1ba4628,16:50:57,27/03/2024
html-keyboard-response,209,488836,0.0-87.0-0.0,1139.8999999761581,"<div style=""display: flex; flex-direction: column; align-items: center; margin-top: -40px;""><img src=""images/pattern_7.png"" style=""width: 234px; height: 230px; margin-top: -50px;""><div style=""display: flex; justify-content: space-between; margin-top: 33px;""><img src=""images/choice_trial_8.png"" style=""width: 408px; height: 417px; margin-right: 200px;""><img src=""images/choice_trial_15.png"" style=""width: 408px; height: 417px;""></div></div>",f,delaylearn,learning,trial,iaxrX2niXBaIN48aafl7apsoQkp2,iaxrX2niXBaIN48aafl7apsoQkp2,2.0,images/choice_trial_8.png,images/choice_trial_15.png,images/pattern_7.png,f,f,750.0,8.0,15.0,6.0,0.0,38.0,1.0,1.0,8.0,260.0,,,,,,6578943bda60b06de1ba4628,16:50:57,27/03/2024
html-keyboard-response,210,489846,0.0-87.0-1.0,,"<div style=""display: flex; flex-direction: column; align-items: center; margin-top: -40px;""><img src=""images/pattern_7.png"" style=""width: 234px; height: 230px; margin-top: -50px;""><div style=""display: flex; justify-content: space-between; margin-top: 33px;""><img src=""images/choice_trial_8.png"" style=""width: 408px; height: 417px; margin-right: 608px;""></div></div>",,delaylearn,learning,display_response,iaxrX2niXBaIN48aafl7apsoQkp2,iaxrX2niXBaIN48aafl7apsoQkp2,,,,,,,,,,,,,,,,,chosen stimuli: images/choice_trial_8.png,,,,,6578943bda60b06de1ba4628,16:50:57,27/03/2024
html-keyboard-response,211,490606,0.0-87.0-2.0,,,,delaylearn,learning,feedback_duration_window,iaxrX2niXBaIN48aafl7apsoQkp2,iaxrX2niXBaIN48aafl7apsoQkp2,,,,,,,,,,,,,,,,,,750.0,,,,6578943bda60b06de1ba4628,16:50:57,27/03/2024
html-keyboard-response,212,492122,0.0-87.0-3.0,,<div style='margin:auto;width: auto; font-size: 150%'><span style='font-weight: bold; font-size: 100px; color: green;'>+10 points!</span><br><br></div>,,delaylearn,learning,feedback_image_window,iaxrX2niXBaIN48aafl7apsoQkp2,iaxrX2niXBaIN48aafl7apsoQkp2,,,,,,,,,,,,,,,,,,,,,,6578943bda60b06de1ba4628,16:50:57,27/03/2024
html-keyboard-response,213,493718,0.0-88.0,,"<div style=""font-size:100px;"">+</div>",,delaylearn,learning,ITI,iaxrX2niXBaIN48aafl7apsoQkp2,iaxrX2niXBaIN48aafl7apsoQkp2,,,,,,,,,,,,,,,,,,,1582.0,,,6578943bda60b06de1ba4628,16:50:57,27/03/2024
html-keyboard-response,214,494317,0.0-89.0-0.0,596.7999999523163,"<div style=""display: flex; flex-direction: column; align-items: center; margin-top: -40px;""><img src=""images/pattern_1.png"" style=""width: 234px; height: 230px; margin-top: -50px;""><div style=""display: flex; justify-content: space-between; margin-top: 33px;""><img src=""images/choice_trial_3.png"" style=""width: 408px; height: 417px; margin-right: 200px;""><img src=""images/choice_trial_10.png"" style=""width: 408px; height: 417px;""></div></div>",f,delaylearn,learning,trial,iaxrX2niXBaIN48aafl7apsoQkp2,iaxrX2niXBaIN48aafl7apsoQkp2,2.0,images/choice_trial_3.png,images/choice_trial_10.png,images/pattern_1.png,f,f,7000.0,3.0,10.0,1.0,0.0,39.0,1.0,1.0,3.0,270.0,,,,,,6578943bda60b06de1ba4628,16:50:57,27/03/2024
html-keyboard-response,215,495326,0.0-89.0-1.0,,"<div style=""display: flex; flex-direction: column; align-items: center; margin-top: -40px;""><img src=""images/pattern_1.png"" style=""width: 234px; height: 230px; margin-top: -50px;""><div style=""display: flex; justify-content: space-between; margin-top: 33px;""><img src=""images/choice_trial_3.png"" style=""width: 408px; height: 417px; margin-right: 608px;""></div></div>",,delaylearn,learning,display_response,iaxrX2niXBaIN48aafl7apsoQkp2,iaxrX2niXBaIN48aafl7apsoQkp2,,,,,,,,,,,,,,,,,chosen stimuli: images/choice_trial_3.png,,,,,6578943bda60b06de1ba4628,16:50:57,27/03/2024
html-keyboard-response,216,502330,0.0-89.0-2.0,,,,delaylearn,learning,feedback_duration_window,iaxrX2niXBaIN48aafl7apsoQkp2,iaxrX2niXBaIN48aafl7apsoQkp2,,,,,,,,,,,,,,,,,,7000.0,,,,6578943bda60b06de1ba4628,16:50:57,27/03/2024
html-keyboard-response,217,503846,0.0-89.0-3.0,,<div style='margin:auto;width: auto; font-size: 150%'><span style='font-weight: bold; font-size: 100px; color: green;'>+10 points!</span><br><br></div>,,delaylearn,learning,feedback_image_window,iaxrX2niXBaIN48aafl7apsoQkp2,iaxrX2niXBaIN48aafl7apsoQkp2,,,,,,,,,,,,,,,,,,,,,,6578943bda60b06de1ba4628,16:50:57,27/03/2024
html-keyboard-response,218,504352,0.0-90.0-0.0,,,,,,mood_trial_fixation,iaxrX2niXBaIN48aafl7apsoQkp2,,,,,,,,,,,,,,,,,,,,,,,6578943bda60b06de1ba4628,16:50:57,27/03/2024
lmdlab-html-vas-response,219,509855,0.0-90.0-1.0,4485.0,How happy are you right now?,0.8194444444444444,delaylearn,learning,mood_trial,iaxrX2niXBaIN48aafl7apsoQkp2,iaxrX2niXBaIN48aafl7apsoQkp2,,,,,,,,,,,,,,,,,,,,"['Very unhappy', 'Very happy']",,6578943bda60b06de1ba4628,16:50:57,27/03/2024
html-keyboard-response,220,512283,0.0-91.0,,"<div style=""font-size:100px;"">+</div>",,delaylearn,learning,ITI,iaxrX2niXBaIN48aafl7apsoQkp2,iaxrX2niXBaIN48aafl7apsoQkp2,,,,,,,,,,,,,,,,,,,2410.0,,,6578943bda60b06de1ba4628,16:50:57,27/03/2024
html-keyboard-response,221,512897,0.0-92.0-0.0,609.1000000238419,"<div style=""display: flex; flex-direction: column; align-items: center; margin-top: -40px;""><img src=""images/pattern_3.png"" style=""width: 234px; height: 230px; margin-top: -50px;""><div style=""display: flex; justify-content: space-between; margin-top: 33px;""><img src=""images/choice_trial_12.png"" style=""width: 408px; height: 417px; margin-right: 200px;""><img src=""images/choice_trial_14.png"" style=""width: 408px; height: 417px;""></div></div>",j,delaylearn,learning,trial,iaxrX2niXBaIN48aafl7apsoQkp2,iaxrX2niXBaIN48aafl7apsoQkp2,2.0,images/choice_trial_12.png,images/choice_trial_14.png,images/pattern_3.png,j,f,7000.0,12.0,14.0,2.0,0.0,40.0,0.0,1.0,14.0,280.0,,,,,,6578943bda60b06de1ba4628,16:50:57,27/03/2024
html-keyboard-response,222,513898,0.0-92.0-1.0,,"<div style=""display: flex; flex-direction: column; align-items: center; margin-top: -40px;""><img src=""images/pattern_3.png"" style=""width: 234px; height: 230px; margin-top: -50px;""><div style=""display: flex; justify-content: space-between; margin-top: 33px;""><img src=""images/choice_trial_14.png"" style=""width: 408px; height: 417px; margin-left:608px;""></div></div>",,delaylearn,learning,display_response,iaxrX2niXBaIN48aafl7apsoQkp2,iaxrX2niXBaIN48aafl7apsoQkp2,,,,,,,,,,,,,,,,,chosen stimuli: images/choice_trial_14.png,,,,,6578943bda60b06de1ba4628,16:50:57,27/03/2024
html-keyboard-response,223,520911,0.0-92.0-2.0,,,,delaylearn,learning,feedback_duration_window,iaxrX2niXBaIN48aafl7apsoQkp2,iaxrX2niXBaIN48aafl7apsoQkp2,,,,,,,,,,,,,,,,,,7000.0,,,,6578943bda60b06de1ba4628,16:50:57,27/03/2024
html-keyboard-response,224,522425,0.0-92.0-3.0,,<div style='margin:auto;width: auto; font-size: 150%'><span style='font-weight: bold; font-size: 100px; color: green;'>+10 points!</span><br><br></div>,,delaylearn,learning,feedback_image_window,iaxrX2niXBaIN48aafl7apsoQkp2,iaxrX2niXBaIN48aafl7apsoQkp2,,,,,,,,,,,,,,,,,,,,,,6578943bda60b06de1ba4628,16:50:57,27/03/2024
html-keyboard-response,225,524267,0.0-93.0,,"<div style=""font-size:100px;"">+</div>",,delaylearn,learning,ITI,iaxrX2niXBaIN48aafl7apsoQkp2,iaxrX2niXBaIN48aafl7apsoQkp2,,,,,,,,,,,,,,,,,,,1833.0,,,6578943bda60b06de1ba4628,16:50:57,27/03/2024
html-keyboard-response,226,525209,0.0-94.0-0.0,938.3999999761581,"<div style=""display: flex; flex-direction: column; align-items: center; margin-top: -40px;""><img src=""images/pattern_7.png"" style=""width: 234px; height: 230px; margin-top: -50px;""><div style=""display: flex; justify-content: space-between; margin-top: 33px;""><img src=""images/choice_trial_15.png"" style=""width: 408px; height: 417px; margin-right: 200px;""><img src=""images/choice_trial_8.png"" style=""width: 408px; height: 417px;""></div></div>",f,delaylearn,learning,trial,iaxrX2niXBaIN48aafl7apsoQkp2,iaxrX2niXBaIN48aafl7apsoQkp2,2.0,images/choice_trial_15.png,images/choice_trial_8.png,images/pattern_7.png,j,j,750.0,15.0,8.0,6.0,1.0,41.0,0.0,0.0,15.0,280.0,,,,,,6578943bda60b06de1ba4628,16:50:57,27/03/2024
html-keyboard-response,227,526215,0.0-94.0-1.0,,"<div style=""display: flex; flex-direction: column; align-items: center; margin-top: -40px;""><img src=""images/pattern_7.png"" style=""width: 234px; height: 230px; margin-top: -50px;""><div style=""display: flex; justify-content: space-between; margin-top: 33px;""><img src=""images/choice_trial_15.png"" style=""width: 408px; height: 417px; margin-right: 608px;""></div></div>",,delaylearn,learning,display_response,iaxrX2niXBaIN48aafl7apsoQkp2,iaxrX2niXBaIN48aafl7apsoQkp2,,,,,,,,,,,,,,,,,chosen stimuli: images/choice_trial_15.png,,,,,6578943bda60b06de1ba4628,16:50:57,27/03/2024
html-keyboard-response,228,526972,0.0-94.0-2.0,,,,delaylearn,learning,feedback_duration_window,iaxrX2niXBaIN48aafl7apsoQkp2,iaxrX2niXBaIN48aafl7apsoQkp2,,,,,,,,,,,,,,,,,,750.0,,,,6578943bda60b06de1ba4628,16:50:57,27/03/2024
html-keyboard-response,229,528475,0.0-94.0-3.0,,<div style='margin:auto;width: auto; font-size: 150%'><span style='font-weight: bold; font-size: 100px; color: red;'>0 points!</span><br><br></div>,,delaylearn,learning,feedback_image_window,iaxrX2niXBaIN48aafl7apsoQkp2,iaxrX2niXBaIN48aafl7apsoQkp2,,,,,,,,,,,,,,,,,,,,,,6578943bda60b06de1ba4628,16:50:57,27/03/2024
html-keyboard-response,230,530295,0.0-95.0,,"<div style=""font-size:100px;"">+</div>",,delaylearn,learning,ITI,iaxrX2niXBaIN48aafl7apsoQkp2,iaxrX2niXBaIN48aafl7apsoQkp2,,,,,,,,,,,,,,,,,,,1817.0,,,6578943bda60b06de1ba4628,16:50:57,27/03/2024
