trial_type,trial_index,time_elapsed,internal_node_id,rt,stimulus,response,exp_name,exp_stage,test_part,subjectID,databaseID,counterbal,choice_stimuli_1,choice_stimuli_2,pattern_stimuli,rewarded_answer,correct_answer,feedback_duration_times,stim_left,stim_right,pair,leftright_counter,trial,response_correct,response_rewarded,chosen_stim,counter,displayed_choice,feedback_durations,ITI_duration,labels,rest_warning,prolificID,start_time,date
pavlovia,0,4080,0.0-0.0,,,,,,,vvaiYPExELWOqDXCOIzJdf7Xv7F2,,,,,,,,,,,,,,,,,,,,,,,65c64d6115f43749efb97d68,10:09:05,27/02/2024
html-keyboard-response,1,7087,0.0-1.0,,"<div style=""font-size:100px;"">+</div>",,delaylearn,learning,pre_fixation,vvaiYPExELWOqDXCOIzJdf7Xv7F2,,,,,,,,,,,,,,,,,,,,,,,65c64d6115f43749efb97d68,10:09:05,27/02/2024
html-keyboard-response,2,8491,0.0-2.0-0.0,1400.1000000238419,"<div style=""display: flex; flex-direction: column; align-items: center; margin-top: -40px;""><img src=""images/demo_images/pattern_1.png"" style=""width: 234px; height: 230px; margin-top: -50px;""><div style=""display: flex; justify-content: space-between; margin-top: 33px;""><img src=""images/demo_images/choice_trial_2.png"" style=""width: 408px; height: 417px; margin-right: 200px;""><img src=""images/demo_images/choice_trial_1.png"" style=""width: 408px; height: 417px;""></div></div>",j,delaylearn,learning,trial,vvaiYPExELWOqDXCOIzJdf7Xv7F2,vvaiYPExELWOqDXCOIzJdf7Xv7F2,2.0,images/demo_images/choice_trial_2.png,images/demo_images/choice_trial_1.png,images/demo_images/pattern_1.png,j,j,3000.0,2.0,1.0,20.0,1.0,1.0,1.0,1.0,1.0,10.0,,,,,,65c64d6115f43749efb97d68,10:09:05,27/02/2024
html-keyboard-response,3,9502,0.0-2.0-1.0,,"<div style=""display: flex; flex-direction: column; align-items: center; margin-top: -40px;""><img src=""images/demo_images/pattern_1.png"" style=""width: 234px; height: 230px; margin-top: -50px;""><div style=""display: flex; justify-content: space-between; margin-top: 33px;""><img src=""images/demo_images/choice_trial_1.png"" style=""width: 408px; height: 417px; margin-left:608px;""></div></div>",,delaylearn,learning,display_response,vvaiYPExELWOqDXCOIzJdf7Xv7F2,vvaiYPExELWOqDXCOIzJdf7Xv7F2,,,,,,,,,,,,,,,,,chosen stimuli: images/demo_images/choice_trial_1.png,,,,,65c64d6115f43749efb97d68,10:09:05,27/02/2024
html-keyboard-response,4,12506,0.0-2.0-2.0,,,,delaylearn,learning,feedback_duration_window,vvaiYPExELWOqDXCOIzJdf7Xv7F2,vvaiYPExELWOqDXCOIzJdf7Xv7F2,,,,,,,,,,,,,,,,,,3000.0,,,,65c64d6115f43749efb97d68,10:09:05,27/02/2024
html-keyboard-response,5,14023,0.0-2.0-3.0,,<div style='margin:auto;width: auto; font-size: 150%'><span style='font-weight: bold; font-size: 100px; color: green;'>+10 points!</span><br><br></div>,,delaylearn,learning,feedback_image_window,vvaiYPExELWOqDXCOIzJdf7Xv7F2,vvaiYPExELWOqDXCOIzJdf7Xv7F2,,,,,,,,,,,,,,,,,,,,,,65c64d6115f43749efb97d68,10:09:05,27/02/2024
html-keyboard-response,6,16104,0.0-3.0,,"<div style=""font-size:100px;"">+</div>",,delaylearn,learning,ITI,vvaiYPExELWOqDXCOIzJdf7Xv7F2,vvaiYPExELWOqDXCOIzJdf7Xv7F2,,,,,,,,,,,,,,,,,,,2071.0,,,65c64d6115f43749efb97d68,10:09:05,27/02/2024
html-keyboard-response,7,17045,0.0-4.0-0.0,936.1000000238419,"<div style=""display: flex; flex-direction: column; align-items: center; margin-top: -40px;""><img src=""images/demo_images/pattern_1.png"" style=""width: 234px; height: 230px; margin-top: -50px;""><div style=""display: flex; justify-content: space-between; margin-top: 33px;""><img src=""images/demo_images/choice_trial_2.png"" style=""width: 408px; height: 417px; margin-right: 200px;""><img src=""images/demo_images/choice_trial_1.png"" style=""width: 408px; height: 417px;""></div></div>",f,delaylearn,learning,trial,vvaiYPExELWOqDXCOIzJdf7Xv7F2,vvaiYPExELWOqDXCOIzJdf7Xv7F2,2.0,images/demo_images/choice_trial_2.png,images/demo_images/choice_trial_1.png,images/demo_images/pattern_1.png,j,j,3000.0,2.0,1.0,20.0,1.0,2.0,0.0,0.0,2.0,10.0,,,,,,65c64d6115f43749efb97d68,10:09:05,27/02/2024
html-keyboard-response,8,18053,0.0-4.0-1.0,,"<div style=""display: flex; flex-direction: column; align-items: center; margin-top: -40px;""><img src=""images/demo_images/pattern_1.png"" style=""width: 234px; height: 230px; margin-top: -50px;""><div style=""display: flex; justify-content: space-between; margin-top: 33px;""><img src=""images/demo_images/choice_trial_2.png"" style=""width: 408px; height: 417px; margin-right: 608px;""></div></div>",,delaylearn,learning,display_response,vvaiYPExELWOqDXCOIzJdf7Xv7F2,vvaiYPExELWOqDXCOIzJdf7Xv7F2,,,,,,,,,,,,,,,,,chosen stimuli: images/demo_images/choice_trial_2.png,,,,,65c64d6115f43749efb97d68,10:09:05,27/02/2024
html-keyboard-response,9,21062,0.0-4.0-2.0,,,,delaylearn,learning,feedback_duration_window,vvaiYPExELWOqDXCOIzJdf7Xv7F2,vvaiYPExELWOqDXCOIzJdf7Xv7F2,,,,,,,,,,,,,,,,,,3000.0,,,,65c64d6115f43749efb97d68,10:09:05,27/02/2024
html-keyboard-response,10,22567,0.0-4.0-3.0,,<div style='margin:auto;width: auto; font-size: 150%'><span style='font-weight: bold; font-size: 100px; color: red;'>0 points!</span><br><br></div>,,delaylearn,learning,feedback_image_window,vvaiYPExELWOqDXCOIzJdf7Xv7F2,vvaiYPExELWOqDXCOIzJdf7Xv7F2,,,,,,,,,,,,,,,,,,,,,,65c64d6115f43749efb97d68,10:09:05,27/02/2024
html-keyboard-response,11,24324,0.0-5.0,,"<div style=""font-size:100px;"">+</div>",,delaylearn,learning,ITI,vvaiYPExELWOqDXCOIzJdf7Xv7F2,vvaiYPExELWOqDXCOIzJdf7Xv7F2,,,,,,,,,,,,,,,,,,,1743.0,,,65c64d6115f43749efb97d68,10:09:05,27/02/2024
html-keyboard-response,12,25131,0.0-6.0-0.0,804.0999999046326,"<div style=""display: flex; flex-direction: column; align-items: center; margin-top: -40px;""><img src=""images/demo_images/pattern_1.png"" style=""width: 234px; height: 230px; margin-top: -50px;""><div style=""display: flex; justify-content: space-between; margin-top: 33px;""><img src=""images/demo_images/choice_trial_1.png"" style=""width: 408px; height: 417px; margin-right: 200px;""><img src=""images/demo_images/choice_trial_2.png"" style=""width: 408px; height: 417px;""></div></div>",j,delaylearn,learning,trial,vvaiYPExELWOqDXCOIzJdf7Xv7F2,vvaiYPExELWOqDXCOIzJdf7Xv7F2,2.0,images/demo_images/choice_trial_1.png,images/demo_images/choice_trial_2.png,images/demo_images/pattern_1.png,j,f,3000.0,1.0,2.0,20.0,0.0,3.0,0.0,1.0,2.0,20.0,,,,,,65c64d6115f43749efb97d68,10:09:05,27/02/2024
html-keyboard-response,13,26148,0.0-6.0-1.0,,"<div style=""display: flex; flex-direction: column; align-items: center; margin-top: -40px;""><img src=""images/demo_images/pattern_1.png"" style=""width: 234px; height: 230px; margin-top: -50px;""><div style=""display: flex; justify-content: space-between; margin-top: 33px;""><img src=""images/demo_images/choice_trial_2.png"" style=""width: 408px; height: 417px; margin-left:608px;""></div></div>",,delaylearn,learning,display_response,vvaiYPExELWOqDXCOIzJdf7Xv7F2,vvaiYPExELWOqDXCOIzJdf7Xv7F2,,,,,,,,,,,,,,,,,chosen stimuli: images/demo_images/choice_trial_2.png,,,,,65c64d6115f43749efb97d68,10:09:05,27/02/2024
html-keyboard-response,14,29153,0.0-6.0-2.0,,,,delaylearn,learning,feedback_duration_window,vvaiYPExELWOqDXCOIzJdf7Xv7F2,vvaiYPExELWOqDXCOIzJdf7Xv7F2,,,,,,,,,,,,,,,,,,3000.0,,,,65c64d6115f43749efb97d68,10:09:05,27/02/2024
html-keyboard-response,15,30671,0.0-6.0-3.0,,<div style='margin:auto;width: auto; font-size: 150%'><span style='font-weight: bold; font-size: 100px; color: green;'>+10 points!</span><br><br></div>,,delaylearn,learning,feedback_image_window,vvaiYPExELWOqDXCOIzJdf7Xv7F2,vvaiYPExELWOqDXCOIzJdf7Xv7F2,,,,,,,,,,,,,,,,,,,,,,65c64d6115f43749efb97d68,10:09:05,27/02/2024
html-keyboard-response,16,32439,0.0-7.0,,"<div style=""font-size:100px;"">+</div>",,delaylearn,learning,ITI,vvaiYPExELWOqDXCOIzJdf7Xv7F2,vvaiYPExELWOqDXCOIzJdf7Xv7F2,,,,,,,,,,,,,,,,,,,1763.0,,,65c64d6115f43749efb97d68,10:09:05,27/02/2024
html-keyboard-response,17,33273,0.0-8.0-0.0,831.5,"<div style=""display: flex; flex-direction: column; align-items: center; margin-top: -40px;""><img src=""images/demo_images/pattern_1.png"" style=""width: 234px; height: 230px; margin-top: -50px;""><div style=""display: flex; justify-content: space-between; margin-top: 33px;""><img src=""images/demo_images/choice_trial_1.png"" style=""width: 408px; height: 417px; margin-right: 200px;""><img src=""images/demo_images/choice_trial_2.png"" style=""width: 408px; height: 417px;""></div></div>",j,delaylearn,learning,trial,vvaiYPExELWOqDXCOIzJdf7Xv7F2,vvaiYPExELWOqDXCOIzJdf7Xv7F2,2.0,images/demo_images/choice_trial_1.png,images/demo_images/choice_trial_2.png,images/demo_images/pattern_1.png,f,f,3000.0,1.0,2.0,20.0,0.0,4.0,0.0,0.0,2.0,20.0,,,,,,65c64d6115f43749efb97d68,10:09:05,27/02/2024
html-keyboard-response,18,34292,0.0-8.0-1.0,,"<div style=""display: flex; flex-direction: column; align-items: center; margin-top: -40px;""><img src=""images/demo_images/pattern_1.png"" style=""width: 234px; height: 230px; margin-top: -50px;""><div style=""display: flex; justify-content: space-between; margin-top: 33px;""><img src=""images/demo_images/choice_trial_2.png"" style=""width: 408px; height: 417px; margin-left:608px;""></div></div>",,delaylearn,learning,display_response,vvaiYPExELWOqDXCOIzJdf7Xv7F2,vvaiYPExELWOqDXCOIzJdf7Xv7F2,,,,,,,,,,,,,,,,,chosen stimuli: images/demo_images/choice_trial_2.png,,,,,65c64d6115f43749efb97d68,10:09:05,27/02/2024
html-keyboard-response,19,37307,0.0-8.0-2.0,,,,delaylearn,learning,feedback_duration_window,vvaiYPExELWOqDXCOIzJdf7Xv7F2,vvaiYPExELWOqDXCOIzJdf7Xv7F2,,,,,,,,,,,,,,,,,,3000.0,,,,65c64d6115f43749efb97d68,10:09:05,27/02/2024
html-keyboard-response,20,38812,0.0-8.0-3.0,,<div style='margin:auto;width: auto; font-size: 150%'><span style='font-weight: bold; font-size: 100px; color: red;'>0 points!</span><br><br></div>,,delaylearn,learning,feedback_image_window,vvaiYPExELWOqDXCOIzJdf7Xv7F2,vvaiYPExELWOqDXCOIzJdf7Xv7F2,,,,,,,,,,,,,,,,,,,,,,65c64d6115f43749efb97d68,10:09:05,27/02/2024
html-keyboard-response,21,39318,0.0-9.0-0.0,,,,,,mood_trial_fixation,vvaiYPExELWOqDXCOIzJdf7Xv7F2,,,,,,,,,,,,,,,,,,,,,,,65c64d6115f43749efb97d68,10:09:05,27/02/2024
lmdlab-html-vas-response,22,44769,0.0-9.0-1.0,4414.0,How happy are you right now?,0.6944444444444444,delaylearn,learning,mood_trial,vvaiYPExELWOqDXCOIzJdf7Xv7F2,vvaiYPExELWOqDXCOIzJdf7Xv7F2,,,,,,,,,,,,,,,,,,,,"['Very unhappy', 'Very happy']",,65c64d6115f43749efb97d68,10:09:05,27/02/2024
html-keyboard-response,23,46926,0.0-10.0,,"<div style=""font-size:100px;"">+</div>",,delaylearn,learning,ITI,vvaiYPExELWOqDXCOIzJdf7Xv7F2,vvaiYPExELWOqDXCOIzJdf7Xv7F2,,,,,,,,,,,,,,,,,,,2140.0,,,65c64d6115f43749efb97d68,10:09:05,27/02/2024
html-keyboard-response,24,47803,0.0-11.0-0.0,873.1999999284744,"<div style=""display: flex; flex-direction: column; align-items: center; margin-top: -40px;""><img src=""images/demo_images/pattern_1.png"" style=""width: 234px; height: 230px; margin-top: -50px;""><div style=""display: flex; justify-content: space-between; margin-top: 33px;""><img src=""images/demo_images/choice_trial_2.png"" style=""width: 408px; height: 417px; margin-right: 200px;""><img src=""images/demo_images/choice_trial_1.png"" style=""width: 408px; height: 417px;""></div></div>",f,delaylearn,learning,trial,vvaiYPExELWOqDXCOIzJdf7Xv7F2,vvaiYPExELWOqDXCOIzJdf7Xv7F2,2.0,images/demo_images/choice_trial_2.png,images/demo_images/choice_trial_1.png,images/demo_images/pattern_1.png,j,j,3000.0,2.0,1.0,20.0,1.0,5.0,0.0,0.0,2.0,20.0,,,,,,65c64d6115f43749efb97d68,10:09:05,27/02/2024
html-keyboard-response,25,48807,0.0-11.0-1.0,,"<div style=""display: flex; flex-direction: column; align-items: center; margin-top: -40px;""><img src=""images/demo_images/pattern_1.png"" style=""width: 234px; height: 230px; margin-top: -50px;""><div style=""display: flex; justify-content: space-between; margin-top: 33px;""><img src=""images/demo_images/choice_trial_2.png"" style=""width: 408px; height: 417px; margin-right: 608px;""></div></div>",,delaylearn,learning,display_response,vvaiYPExELWOqDXCOIzJdf7Xv7F2,vvaiYPExELWOqDXCOIzJdf7Xv7F2,,,,,,,,,,,,,,,,,chosen stimuli: images/demo_images/choice_trial_2.png,,,,,65c64d6115f43749efb97d68,10:09:05,27/02/2024
html-keyboard-response,26,51809,0.0-11.0-2.0,,,,delaylearn,learning,feedback_duration_window,vvaiYPExELWOqDXCOIzJdf7Xv7F2,vvaiYPExELWOqDXCOIzJdf7Xv7F2,,,,,,,,,,,,,,,,,,3000.0,,,,65c64d6115f43749efb97d68,10:09:05,27/02/2024
html-keyboard-response,27,53325,0.0-11.0-3.0,,<div style='margin:auto;width: auto; font-size: 150%'><span style='font-weight: bold; font-size: 100px; color: red;'>0 points!</span><br><br></div>,,delaylearn,learning,feedback_image_window,vvaiYPExELWOqDXCOIzJdf7Xv7F2,vvaiYPExELWOqDXCOIzJdf7Xv7F2,,,,,,,,,,,,,,,,,,,,,,65c64d6115f43749efb97d68,10:09:05,27/02/2024
html-keyboard-response,28,54848,0.0-12.0,,"<div style=""font-size:100px;"">+</div>",,delaylearn,learning,ITI,vvaiYPExELWOqDXCOIzJdf7Xv7F2,vvaiYPExELWOqDXCOIzJdf7Xv7F2,,,,,,,,,,,,,,,,,,,1509.0,,,65c64d6115f43749efb97d68,10:09:05,27/02/2024
html-keyboard-response,29,55322,0.0-13.0-0.0,470.60000002384186,"<div style=""display: flex; flex-direction: column; align-items: center; margin-top: -40px;""><img src=""images/demo_images/pattern_1.png"" style=""width: 234px; height: 230px; margin-top: -50px;""><div style=""display: flex; justify-content: space-between; margin-top: 33px;""><img src=""images/demo_images/choice_trial_1.png"" style=""width: 408px; height: 417px; margin-right: 200px;""><img src=""images/demo_images/choice_trial_2.png"" style=""width: 408px; height: 417px;""></div></div>",j,delaylearn,learning,trial,vvaiYPExELWOqDXCOIzJdf7Xv7F2,vvaiYPExELWOqDXCOIzJdf7Xv7F2,2.0,images/demo_images/choice_trial_1.png,images/demo_images/choice_trial_2.png,images/demo_images/pattern_1.png,f,f,3000.0,1.0,2.0,20.0,0.0,6.0,0.0,0.0,2.0,20.0,,,,,,65c64d6115f43749efb97d68,10:09:05,27/02/2024
html-keyboard-response,30,56327,0.0-13.0-1.0,,"<div style=""display: flex; flex-direction: column; align-items: center; margin-top: -40px;""><img src=""images/demo_images/pattern_1.png"" style=""width: 234px; height: 230px; margin-top: -50px;""><div style=""display: flex; justify-content: space-between; margin-top: 33px;""><img src=""images/demo_images/choice_trial_2.png"" style=""width: 408px; height: 417px; margin-left:608px;""></div></div>",,delaylearn,learning,display_response,vvaiYPExELWOqDXCOIzJdf7Xv7F2,vvaiYPExELWOqDXCOIzJdf7Xv7F2,,,,,,,,,,,,,,,,,chosen stimuli: images/demo_images/choice_trial_2.png,,,,,65c64d6115f43749efb97d68,10:09:05,27/02/2024
html-keyboard-response,31,59330,0.0-13.0-2.0,,,,delaylearn,learning,feedback_duration_window,vvaiYPExELWOqDXCOIzJdf7Xv7F2,vvaiYPExELWOqDXCOIzJdf7Xv7F2,,,,,,,,,,,,,,,,,,3000.0,,,,65c64d6115f43749efb97d68,10:09:05,27/02/2024
html-keyboard-response,32,60848,0.0-13.0-3.0,,<div style='margin:auto;width: auto; font-size: 150%'><span style='font-weight: bold; font-size: 100px; color: red;'>0 points!</span><br><br></div>,,delaylearn,learning,feedback_image_window,vvaiYPExELWOqDXCOIzJdf7Xv7F2,vvaiYPExELWOqDXCOIzJdf7Xv7F2,,,,,,,,,,,,,,,,,,,,,,65c64d6115f43749efb97d68,10:09:05,27/02/2024
html-button-response,33,358169,0.0-14.0,297318.5,"
  <div style=""display: flex; align-items: center; justify-content: center; height: 80vh;"">
  <div>
          <img src=""images/inst_demo_finish.png"" style=""width: 80vw; height:auto;"">
          <br><br>
      </div>
      <br><br>
  </div>",0,,,,vvaiYPExELWOqDXCOIzJdf7Xv7F2,,,,,,,,,,,,,,,,,,,,,,,65c64d6115f43749efb97d68,10:09:05,27/02/2024
html-keyboard-response,34,376620,0.0-15.0,18448.600000023842,"
  <div style=""display: flex; align-items: center; justify-content: center; height: 80vh;"">
  <div>
          <img src=""images/inst_6.png"" style=""width: 80vw; height:auto;"">
          <br><br>
      </div>
      <br><br>
  </div>",j,,,,vvaiYPExELWOqDXCOIzJdf7Xv7F2,,,,,,,,,,,,,,,,,,,,,,,65c64d6115f43749efb97d68,10:09:05,27/02/2024
html-keyboard-response,35,379631,0.0-16.0,,"<div style=""font-size:100px;"">+</div>",,delaylearn,learning,pre_fixation,vvaiYPExELWOqDXCOIzJdf7Xv7F2,,,,,,,,,,,,,,,,,,,,,,,65c64d6115f43749efb97d68,10:09:05,27/02/2024
html-keyboard-response,36,381505,0.0-17.0,,"<div style=""font-size:100px;"">+</div>",,delaylearn,learning,ITI,vvaiYPExELWOqDXCOIzJdf7Xv7F2,vvaiYPExELWOqDXCOIzJdf7Xv7F2,,,,,,,,,,,,,,,,,,,1867.0,,,65c64d6115f43749efb97d68,10:09:05,27/02/2024
html-keyboard-response,37,382982,0.0-18.0-0.0,1473.5999999046326,"<div style=""display: flex; flex-direction: column; align-items: center; margin-top: -40px;""><img src=""images/pattern_3.png"" style=""width: 234px; height: 230px; margin-top: -50px;""><div style=""display: flex; justify-content: space-between; margin-top: 33px;""><img src=""images/choice_trial_12.png"" style=""width: 408px; height: 417px; margin-right: 200px;""><img src=""images/choice_trial_14.png"" style=""width: 408px; height: 417px;""></div></div>",j,delaylearn,learning,trial,vvaiYPExELWOqDXCOIzJdf7Xv7F2,vvaiYPExELWOqDXCOIzJdf7Xv7F2,2.0,images/choice_trial_12.png,images/choice_trial_14.png,images/pattern_3.png,f,f,7000.0,12.0,14.0,2.0,0.0,7.0,0.0,0.0,14.0,20.0,,,,,,65c64d6115f43749efb97d68,10:09:05,27/02/2024
html-keyboard-response,38,383987,0.0-18.0-1.0,,"<div style=""display: flex; flex-direction: column; align-items: center; margin-top: -40px;""><img src=""images/pattern_3.png"" style=""width: 234px; height: 230px; margin-top: -50px;""><div style=""display: flex; justify-content: space-between; margin-top: 33px;""><img src=""images/choice_trial_14.png"" style=""width: 408px; height: 417px; margin-left:608px;""></div></div>",,delaylearn,learning,display_response,vvaiYPExELWOqDXCOIzJdf7Xv7F2,vvaiYPExELWOqDXCOIzJdf7Xv7F2,,,,,,,,,,,,,,,,,chosen stimuli: images/choice_trial_14.png,,,,,65c64d6115f43749efb97d68,10:09:05,27/02/2024
html-keyboard-response,39,391002,0.0-18.0-2.0,,,,delaylearn,learning,feedback_duration_window,vvaiYPExELWOqDXCOIzJdf7Xv7F2,vvaiYPExELWOqDXCOIzJdf7Xv7F2,,,,,,,,,,,,,,,,,,7000.0,,,,65c64d6115f43749efb97d68,10:09:05,27/02/2024
html-keyboard-response,40,392515,0.0-18.0-3.0,,<div style='margin:auto;width: auto; font-size: 150%'><span style='font-weight: bold; font-size: 100px; color: red;'>0 points!</span><br><br></div>,,delaylearn,learning,feedback_image_window,vvaiYPExELWOqDXCOIzJdf7Xv7F2,vvaiYPExELWOqDXCOIzJdf7Xv7F2,,,,,,,,,,,,,,,,,,,,,,65c64d6115f43749efb97d68,10:09:05,27/02/2024
html-keyboard-response,41,394928,0.0-19.0,,"<div style=""font-size:100px;"">+</div>",,delaylearn,learning,ITI,vvaiYPExELWOqDXCOIzJdf7Xv7F2,vvaiYPExELWOqDXCOIzJdf7Xv7F2,,,,,,,,,,,,,,,,,,,2398.0,,,65c64d6115f43749efb97d68,10:09:05,27/02/2024
html-keyboard-response,42,396185,0.0-20.0-0.0,1253.8000000715256,"<div style=""display: flex; flex-direction: column; align-items: center; margin-top: -40px;""><img src=""images/pattern_7.png"" style=""width: 234px; height: 230px; margin-top: -50px;""><div style=""display: flex; justify-content: space-between; margin-top: 33px;""><img src=""images/choice_trial_15.png"" style=""width: 408px; height: 417px; margin-right: 200px;""><img src=""images/choice_trial_8.png"" style=""width: 408px; height: 417px;""></div></div>",j,delaylearn,learning,trial,vvaiYPExELWOqDXCOIzJdf7Xv7F2,vvaiYPExELWOqDXCOIzJdf7Xv7F2,2.0,images/choice_trial_15.png,images/choice_trial_8.png,images/pattern_7.png,j,j,750.0,15.0,8.0,6.0,1.0,8.0,1.0,1.0,8.0,30.0,,,,,,65c64d6115f43749efb97d68,10:09:05,27/02/2024
html-keyboard-response,43,397192,0.0-20.0-1.0,,"<div style=""display: flex; flex-direction: column; align-items: center; margin-top: -40px;""><img src=""images/pattern_7.png"" style=""width: 234px; height: 230px; margin-top: -50px;""><div style=""display: flex; justify-content: space-between; margin-top: 33px;""><img src=""images/choice_trial_8.png"" style=""width: 408px; height: 417px; margin-left:608px;""></div></div>",,delaylearn,learning,display_response,vvaiYPExELWOqDXCOIzJdf7Xv7F2,vvaiYPExELWOqDXCOIzJdf7Xv7F2,,,,,,,,,,,,,,,,,chosen stimuli: images/choice_trial_8.png,,,,,65c64d6115f43749efb97d68,10:09:05,27/02/2024
html-keyboard-response,44,397944,0.0-20.0-2.0,,,,delaylearn,learning,feedback_duration_window,vvaiYPExELWOqDXCOIzJdf7Xv7F2,vvaiYPExELWOqDXCOIzJdf7Xv7F2,,,,,,,,,,,,,,,,,,750.0,,,,65c64d6115f43749efb97d68,10:09:05,27/02/2024
html-keyboard-response,45,399452,0.0-20.0-3.0,,<div style='margin:auto;width: auto; font-size: 150%'><span style='font-weight: bold; font-size: 100px; color: green;'>+10 points!</span><br><br></div>,,delaylearn,learning,feedback_image_window,vvaiYPExELWOqDXCOIzJdf7Xv7F2,vvaiYPExELWOqDXCOIzJdf7Xv7F2,,,,,,,,,,,,,,,,,,,,,,65c64d6115f43749efb97d68,10:09:05,27/02/2024
html-keyboard-response,46,401928,0.0-21.0,,"<div style=""font-size:100px;"">+</div>",,delaylearn,learning,ITI,vvaiYPExELWOqDXCOIzJdf7Xv7F2,vvaiYPExELWOqDXCOIzJdf7Xv7F2,,,,,,,,,,,,,,,,,,,2474.0,,,65c64d6115f43749efb97d68,10:09:05,27/02/2024
html-keyboard-response,47,402900,0.0-22.0-0.0,968.7999999523163,"<div style=""display: flex; flex-direction: column; align-items: center; margin-top: -40px;""><img src=""images/pattern_4.png"" style=""width: 234px; height: 230px; margin-top: -50px;""><div style=""display: flex; justify-content: space-between; margin-top: 33px;""><img src=""images/choice_trial_4.png"" style=""width: 408px; height: 417px; margin-right: 200px;""><img src=""images/choice_trial_16.png"" style=""width: 408px; height: 417px;""></div></div>",f,delaylearn,learning,trial,vvaiYPExELWOqDXCOIzJdf7Xv7F2,vvaiYPExELWOqDXCOIzJdf7Xv7F2,2.0,images/choice_trial_4.png,images/choice_trial_16.png,images/pattern_4.png,f,f,7000.0,4.0,16.0,3.0,0.0,9.0,1.0,1.0,4.0,40.0,,,,,,65c64d6115f43749efb97d68,10:09:05,27/02/2024
html-keyboard-response,48,403915,0.0-22.0-1.0,,"<div style=""display: flex; flex-direction: column; align-items: center; margin-top: -40px;""><img src=""images/pattern_4.png"" style=""width: 234px; height: 230px; margin-top: -50px;""><div style=""display: flex; justify-content: space-between; margin-top: 33px;""><img src=""images/choice_trial_4.png"" style=""width: 408px; height: 417px; margin-right: 608px;""></div></div>",,delaylearn,learning,display_response,vvaiYPExELWOqDXCOIzJdf7Xv7F2,vvaiYPExELWOqDXCOIzJdf7Xv7F2,,,,,,,,,,,,,,,,,chosen stimuli: images/choice_trial_4.png,,,,,65c64d6115f43749efb97d68,10:09:05,27/02/2024
html-keyboard-response,49,410924,0.0-22.0-2.0,,,,delaylearn,learning,feedback_duration_window,vvaiYPExELWOqDXCOIzJdf7Xv7F2,vvaiYPExELWOqDXCOIzJdf7Xv7F2,,,,,,,,,,,,,,,,,,7000.0,,,,65c64d6115f43749efb97d68,10:09:05,27/02/2024
html-keyboard-response,50,412427,0.0-22.0-3.0,,<div style='margin:auto;width: auto; font-size: 150%'><span style='font-weight: bold; font-size: 100px; color: green;'>+10 points!</span><br><br></div>,,delaylearn,learning,feedback_image_window,vvaiYPExELWOqDXCOIzJdf7Xv7F2,vvaiYPExELWOqDXCOIzJdf7Xv7F2,,,,,,,,,,,,,,,,,,,,,,65c64d6115f43749efb97d68,10:09:05,27/02/2024
html-keyboard-response,51,414918,0.0-23.0,,"<div style=""font-size:100px;"">+</div>",,delaylearn,learning,ITI,vvaiYPExELWOqDXCOIzJdf7Xv7F2,vvaiYPExELWOqDXCOIzJdf7Xv7F2,,,,,,,,,,,,,,,,,,,2484.0,,,65c64d6115f43749efb97d68,10:09:05,27/02/2024
html-keyboard-response,52,417068,0.0-24.0-0.0,2147.399999976158,"<div style=""display: flex; flex-direction: column; align-items: center; margin-top: -40px;""><img src=""images/pattern_5.png"" style=""width: 234px; height: 230px; margin-top: -50px;""><div style=""display: flex; justify-content: space-between; margin-top: 33px;""><img src=""images/choice_trial_9.png"" style=""width: 408px; height: 417px; margin-right: 200px;""><img src=""images/choice_trial_2.png"" style=""width: 408px; height: 417px;""></div></div>",f,delaylearn,learning,trial,vvaiYPExELWOqDXCOIzJdf7Xv7F2,vvaiYPExELWOqDXCOIzJdf7Xv7F2,2.0,images/choice_trial_9.png,images/choice_trial_2.png,images/pattern_5.png,j,j,750.0,9.0,2.0,4.0,1.0,10.0,0.0,0.0,9.0,40.0,,,,,,65c64d6115f43749efb97d68,10:09:05,27/02/2024
html-keyboard-response,53,418081,0.0-24.0-1.0,,"<div style=""display: flex; flex-direction: column; align-items: center; margin-top: -40px;""><img src=""images/pattern_5.png"" style=""width: 234px; height: 230px; margin-top: -50px;""><div style=""display: flex; justify-content: space-between; margin-top: 33px;""><img src=""images/choice_trial_9.png"" style=""width: 408px; height: 417px; margin-right: 608px;""></div></div>",,delaylearn,learning,display_response,vvaiYPExELWOqDXCOIzJdf7Xv7F2,vvaiYPExELWOqDXCOIzJdf7Xv7F2,,,,,,,,,,,,,,,,,chosen stimuli: images/choice_trial_9.png,,,,,65c64d6115f43749efb97d68,10:09:05,27/02/2024
html-keyboard-response,54,418840,0.0-24.0-2.0,,,,delaylearn,learning,feedback_duration_window,vvaiYPExELWOqDXCOIzJdf7Xv7F2,vvaiYPExELWOqDXCOIzJdf7Xv7F2,,,,,,,,,,,,,,,,,,750.0,,,,65c64d6115f43749efb97d68,10:09:05,27/02/2024
html-keyboard-response,55,420344,0.0-24.0-3.0,,<div style='margin:auto;width: auto; font-size: 150%'><span style='font-weight: bold; font-size: 100px; color: red;'>0 points!</span><br><br></div>,,delaylearn,learning,feedback_image_window,vvaiYPExELWOqDXCOIzJdf7Xv7F2,vvaiYPExELWOqDXCOIzJdf7Xv7F2,,,,,,,,,,,,,,,,,,,,,,65c64d6115f43749efb97d68,10:09:05,27/02/2024
html-keyboard-response,56,422048,0.0-25.0,,"<div style=""font-size:100px;"">+</div>",,delaylearn,learning,ITI,vvaiYPExELWOqDXCOIzJdf7Xv7F2,vvaiYPExELWOqDXCOIzJdf7Xv7F2,,,,,,,,,,,,,,,,,,,1696.0,,,65c64d6115f43749efb97d68,10:09:05,27/02/2024
html-keyboard-response,57,425053,0.0-26.0-0.0,,"<div style=""display: flex; flex-direction: column; align-items: center; margin-top: -40px;""><img src=""images/pattern_6.png"" style=""width: 234px; height: 230px; margin-top: -50px;""><div style=""display: flex; justify-content: space-between; margin-top: 33px;""><img src=""images/choice_trial_11.png"" style=""width: 408px; height: 417px; margin-right: 200px;""><img src=""images/choice_trial_5.png"" style=""width: 408px; height: 417px;""></div></div>",,delaylearn,learning,trial,vvaiYPExELWOqDXCOIzJdf7Xv7F2,vvaiYPExELWOqDXCOIzJdf7Xv7F2,2.0,images/choice_trial_11.png,images/choice_trial_5.png,images/pattern_6.png,j,f,750.0,11.0,5.0,5.0,0.0,11.0,0.0,0.0,0.0,40.0,,,,,,65c64d6115f43749efb97d68,10:09:05,27/02/2024
html-keyboard-response,58,426071,0.0-26.0-1.0,,<div style='font-weight: bold; font-size: 75px; color: red;'>Missed Trial <br><br><br><br> Please respond faster</div>,,delaylearn,learning,display_response,vvaiYPExELWOqDXCOIzJdf7Xv7F2,vvaiYPExELWOqDXCOIzJdf7Xv7F2,,,,,,,,,,,,,,,,,Missed trial,,,,,65c64d6115f43749efb97d68,10:09:05,27/02/2024
html-keyboard-response,59,426080,0.0-26.0-2.0,,,,delaylearn,learning,feedback_duration_window,vvaiYPExELWOqDXCOIzJdf7Xv7F2,vvaiYPExELWOqDXCOIzJdf7Xv7F2,,,,,,,,,,,,,,,,,,0.0,,,,65c64d6115f43749efb97d68,10:09:05,27/02/2024
html-keyboard-response,60,426088,0.0-26.0-3.0,,,,delaylearn,learning,feedback_image_window,vvaiYPExELWOqDXCOIzJdf7Xv7F2,vvaiYPExELWOqDXCOIzJdf7Xv7F2,,,,,,,,,,,,,,,,,,,,,,65c64d6115f43749efb97d68,10:09:05,27/02/2024
html-keyboard-response,61,426589,0.0-27.0-0.0,,,,,,mood_trial_fixation,vvaiYPExELWOqDXCOIzJdf7Xv7F2,,,,,,,,,,,,,,,,,,,,,,,65c64d6115f43749efb97d68,10:09:05,27/02/2024
lmdlab-html-vas-response,62,445897,0.0-27.0-1.0,18293.0,How happy are you right now?,0.5393518518518519,delaylearn,learning,mood_trial,vvaiYPExELWOqDXCOIzJdf7Xv7F2,vvaiYPExELWOqDXCOIzJdf7Xv7F2,,,,,,,,,,,,,,,,,,,,"['Very unhappy', 'Very happy']",,65c64d6115f43749efb97d68,10:09:05,27/02/2024
html-keyboard-response,63,448031,0.0-28.0,,"<div style=""font-size:100px;"">+</div>",,delaylearn,learning,ITI,vvaiYPExELWOqDXCOIzJdf7Xv7F2,vvaiYPExELWOqDXCOIzJdf7Xv7F2,,,,,,,,,,,,,,,,,,,2121.0,,,65c64d6115f43749efb97d68,10:09:05,27/02/2024
html-keyboard-response,64,448940,0.0-29.0-0.0,905.6000000238419,"<div style=""display: flex; flex-direction: column; align-items: center; margin-top: -40px;""><img src=""images/pattern_1.png"" style=""width: 234px; height: 230px; margin-top: -50px;""><div style=""display: flex; justify-content: space-between; margin-top: 33px;""><img src=""images/choice_trial_10.png"" style=""width: 408px; height: 417px; margin-right: 200px;""><img src=""images/choice_trial_3.png"" style=""width: 408px; height: 417px;""></div></div>",j,delaylearn,learning,trial,vvaiYPExELWOqDXCOIzJdf7Xv7F2,vvaiYPExELWOqDXCOIzJdf7Xv7F2,2.0,images/choice_trial_10.png,images/choice_trial_3.png,images/pattern_1.png,j,j,7000.0,10.0,3.0,1.0,1.0,12.0,1.0,1.0,3.0,50.0,,,,,,65c64d6115f43749efb97d68,10:09:05,27/02/2024
html-keyboard-response,65,449958,0.0-29.0-1.0,,"<div style=""display: flex; flex-direction: column; align-items: center; margin-top: -40px;""><img src=""images/pattern_1.png"" style=""width: 234px; height: 230px; margin-top: -50px;""><div style=""display: flex; justify-content: space-between; margin-top: 33px;""><img src=""images/choice_trial_3.png"" style=""width: 408px; height: 417px; margin-left:608px;""></div></div>",,delaylearn,learning,display_response,vvaiYPExELWOqDXCOIzJdf7Xv7F2,vvaiYPExELWOqDXCOIzJdf7Xv7F2,,,,,,,,,,,,,,,,,chosen stimuli: images/choice_trial_3.png,,,,,65c64d6115f43749efb97d68,10:09:05,27/02/2024
html-keyboard-response,66,456973,0.0-29.0-2.0,,,,delaylearn,learning,feedback_duration_window,vvaiYPExELWOqDXCOIzJdf7Xv7F2,vvaiYPExELWOqDXCOIzJdf7Xv7F2,,,,,,,,,,,,,,,,,,7000.0,,,,65c64d6115f43749efb97d68,10:09:05,27/02/2024
html-keyboard-response,67,458477,0.0-29.0-3.0,,<div style='margin:auto;width: auto; font-size: 150%'><span style='font-weight: bold; font-size: 100px; color: green;'>+10 points!</span><br><br></div>,,delaylearn,learning,feedback_image_window,vvaiYPExELWOqDXCOIzJdf7Xv7F2,vvaiYPExELWOqDXCOIzJdf7Xv7F2,,,,,,,,,,,,,,,,,,,,,,65c64d6115f43749efb97d68,10:09:05,27/02/2024
html-keyboard-response,68,460460,0.0-30.0,,"<div style=""font-size:100px;"">+</div>",,delaylearn,learning,ITI,vvaiYPExELWOqDXCOIzJdf7Xv7F2,vvaiYPExELWOqDXCOIzJdf7Xv7F2,,,,,,,,,,,,,,,,,,,1978.0,,,65c64d6115f43749efb97d68,10:09:05,27/02/2024
html-keyboard-response,69,462283,0.0-31.0-0.0,1820.1000000238419,"<div style=""display: flex; flex-direction: column; align-items: center; margin-top: -40px;""><img src=""images/pattern_3.png"" style=""width: 234px; height: 230px; margin-top: -50px;""><div style=""display: flex; justify-content: space-between; margin-top: 33px;""><img src=""images/choice_trial_14.png"" style=""width: 408px; height: 417px; margin-right: 200px;""><img src=""images/choice_trial_12.png"" style=""width: 408px; height: 417px;""></div></div>",j,delaylearn,learning,trial,vvaiYPExELWOqDXCOIzJdf7Xv7F2,vvaiYPExELWOqDXCOIzJdf7Xv7F2,2.0,images/choice_trial_14.png,images/choice_trial_12.png,images/pattern_3.png,f,j,7000.0,14.0,12.0,2.0,1.0,13.0,1.0,0.0,12.0,50.0,,,,,,65c64d6115f43749efb97d68,10:09:05,27/02/2024
html-keyboard-response,70,463297,0.0-31.0-1.0,,"<div style=""display: flex; flex-direction: column; align-items: center; margin-top: -40px;""><img src=""images/pattern_3.png"" style=""width: 234px; height: 230px; margin-top: -50px;""><div style=""display: flex; justify-content: space-between; margin-top: 33px;""><img src=""images/choice_trial_12.png"" style=""width: 408px; height: 417px; margin-left:608px;""></div></div>",,delaylearn,learning,display_response,vvaiYPExELWOqDXCOIzJdf7Xv7F2,vvaiYPExELWOqDXCOIzJdf7Xv7F2,,,,,,,,,,,,,,,,,chosen stimuli: images/choice_trial_12.png,,,,,65c64d6115f43749efb97d68,10:09:05,27/02/2024
html-keyboard-response,71,470301,0.0-31.0-2.0,,,,delaylearn,learning,feedback_duration_window,vvaiYPExELWOqDXCOIzJdf7Xv7F2,vvaiYPExELWOqDXCOIzJdf7Xv7F2,,,,,,,,,,,,,,,,,,7000.0,,,,65c64d6115f43749efb97d68,10:09:05,27/02/2024
html-keyboard-response,72,471816,0.0-31.0-3.0,,<div style='margin:auto;width: auto; font-size: 150%'><span style='font-weight: bold; font-size: 100px; color: red;'>0 points!</span><br><br></div>,,delaylearn,learning,feedback_image_window,vvaiYPExELWOqDXCOIzJdf7Xv7F2,vvaiYPExELWOqDXCOIzJdf7Xv7F2,,,,,,,,,,,,,,,,,,,,,,65c64d6115f43749efb97d68,10:09:05,27/02/2024
html-keyboard-response,73,474136,0.0-32.0,,"<div style=""font-size:100px;"">+</div>",,delaylearn,learning,ITI,vvaiYPExELWOqDXCOIzJdf7Xv7F2,vvaiYPExELWOqDXCOIzJdf7Xv7F2,,,,,,,,,,,,,,,,,,,2302.0,,,65c64d6115f43749efb97d68,10:09:05,27/02/2024
html-keyboard-response,74,476514,0.0-33.0-0.0,2374.399999976158,"<div style=""display: flex; flex-direction: column; align-items: center; margin-top: -40px;""><img src=""images/pattern_5.png"" style=""width: 234px; height: 230px; margin-top: -50px;""><div style=""display: flex; justify-content: space-between; margin-top: 33px;""><img src=""images/choice_trial_2.png"" style=""width: 408px; height: 417px; margin-right: 200px;""><img src=""images/choice_trial_9.png"" style=""width: 408px; height: 417px;""></div></div>",j,delaylearn,learning,trial,vvaiYPExELWOqDXCOIzJdf7Xv7F2,vvaiYPExELWOqDXCOIzJdf7Xv7F2,2.0,images/choice_trial_2.png,images/choice_trial_9.png,images/pattern_5.png,f,f,750.0,2.0,9.0,4.0,0.0,14.0,0.0,0.0,9.0,50.0,,,,,,65c64d6115f43749efb97d68,10:09:05,27/02/2024
html-keyboard-response,75,477526,0.0-33.0-1.0,,"<div style=""display: flex; flex-direction: column; align-items: center; margin-top: -40px;""><img src=""images/pattern_5.png"" style=""width: 234px; height: 230px; margin-top: -50px;""><div style=""display: flex; justify-content: space-between; margin-top: 33px;""><img src=""images/choice_trial_9.png"" style=""width: 408px; height: 417px; margin-left:608px;""></div></div>",,delaylearn,learning,display_response,vvaiYPExELWOqDXCOIzJdf7Xv7F2,vvaiYPExELWOqDXCOIzJdf7Xv7F2,,,,,,,,,,,,,,,,,chosen stimuli: images/choice_trial_9.png,,,,,65c64d6115f43749efb97d68,10:09:05,27/02/2024
html-keyboard-response,76,478293,0.0-33.0-2.0,,,,delaylearn,learning,feedback_duration_window,vvaiYPExELWOqDXCOIzJdf7Xv7F2,vvaiYPExELWOqDXCOIzJdf7Xv7F2,,,,,,,,,,,,,,,,,,750.0,,,,65c64d6115f43749efb97d68,10:09:05,27/02/2024
html-keyboard-response,77,479804,0.0-33.0-3.0,,<div style='margin:auto;width: auto; font-size: 150%'><span style='font-weight: bold; font-size: 100px; color: red;'>0 points!</span><br><br></div>,,delaylearn,learning,feedback_image_window,vvaiYPExELWOqDXCOIzJdf7Xv7F2,vvaiYPExELWOqDXCOIzJdf7Xv7F2,,,,,,,,,,,,,,,,,,,,,,65c64d6115f43749efb97d68,10:09:05,27/02/2024
html-keyboard-response,78,480312,0.0-34.0-0.0,,,,,,mood_trial_fixation,vvaiYPExELWOqDXCOIzJdf7Xv7F2,,,,,,,,,,,,,,,,,,,,,,,65c64d6115f43749efb97d68,10:09:05,27/02/2024
lmdlab-html-vas-response,79,486925,0.0-34.0-1.0,5595.0,How happy are you right now?,0.5416666666666666,delaylearn,learning,mood_trial,vvaiYPExELWOqDXCOIzJdf7Xv7F2,vvaiYPExELWOqDXCOIzJdf7Xv7F2,,,,,,,,,,,,,,,,,,,,"['Very unhappy', 'Very happy']",,65c64d6115f43749efb97d68,10:09:05,27/02/2024
html-keyboard-response,80,488444,0.0-35.0,,"<div style=""font-size:100px;"">+</div>",,delaylearn,learning,ITI,vvaiYPExELWOqDXCOIzJdf7Xv7F2,vvaiYPExELWOqDXCOIzJdf7Xv7F2,,,,,,,,,,,,,,,,,,,1502.0,,,65c64d6115f43749efb97d68,10:09:05,27/02/2024
html-keyboard-response,81,490240,0.0-36.0-0.0,1791.6000000238419,"<div style=""display: flex; flex-direction: column; align-items: center; margin-top: -40px;""><img src=""images/pattern_6.png"" style=""width: 234px; height: 230px; margin-top: -50px;""><div style=""display: flex; justify-content: space-between; margin-top: 33px;""><img src=""images/choice_trial_11.png"" style=""width: 408px; height: 417px; margin-right: 200px;""><img src=""images/choice_trial_5.png"" style=""width: 408px; height: 417px;""></div></div>",f,delaylearn,learning,trial,vvaiYPExELWOqDXCOIzJdf7Xv7F2,vvaiYPExELWOqDXCOIzJdf7Xv7F2,2.0,images/choice_trial_11.png,images/choice_trial_5.png,images/pattern_6.png,f,f,750.0,11.0,5.0,5.0,0.0,15.0,1.0,1.0,11.0,60.0,,,,,,65c64d6115f43749efb97d68,10:09:05,27/02/2024
html-keyboard-response,82,491257,0.0-36.0-1.0,,"<div style=""display: flex; flex-direction: column; align-items: center; margin-top: -40px;""><img src=""images/pattern_6.png"" style=""width: 234px; height: 230px; margin-top: -50px;""><div style=""display: flex; justify-content: space-between; margin-top: 33px;""><img src=""images/choice_trial_11.png"" style=""width: 408px; height: 417px; margin-right: 608px;""></div></div>",,delaylearn,learning,display_response,vvaiYPExELWOqDXCOIzJdf7Xv7F2,vvaiYPExELWOqDXCOIzJdf7Xv7F2,,,,,,,,,,,,,,,,,chosen stimuli: images/choice_trial_11.png,,,,,65c64d6115f43749efb97d68,10:09:05,27/02/2024
html-keyboard-response,83,492015,0.0-36.0-2.0,,,,delaylearn,learning,feedback_duration_window,vvaiYPExELWOqDXCOIzJdf7Xv7F2,vvaiYPExELWOqDXCOIzJdf7Xv7F2,,,,,,,,,,,,,,,,,,750.0,,,,65c64d6115f43749efb97d68,10:09:05,27/02/2024
html-keyboard-response,84,493521,0.0-36.0-3.0,,<div style='margin:auto;width: auto; font-size: 150%'><span style='font-weight: bold; font-size: 100px; color: green;'>+10 points!</span><br><br></div>,,delaylearn,learning,feedback_image_window,vvaiYPExELWOqDXCOIzJdf7Xv7F2,vvaiYPExELWOqDXCOIzJdf7Xv7F2,,,,,,,,,,,,,,,,,,,,,,65c64d6115f43749efb97d68,10:09:05,27/02/2024
html-keyboard-response,85,495960,0.0-37.0,,"<div style=""font-size:100px;"">+</div>",,delaylearn,learning,ITI,vvaiYPExELWOqDXCOIzJdf7Xv7F2,vvaiYPExELWOqDXCOIzJdf7Xv7F2,,,,,,,,,,,,,,,,,,,2426.0,,,65c64d6115f43749efb97d68,10:09:05,27/02/2024
html-keyboard-response,86,497663,0.0-38.0-0.0,1699.5,"<div style=""display: flex; flex-direction: column; align-items: center; margin-top: -40px;""><img src=""images/pattern_4.png"" style=""width: 234px; height: 230px; margin-top: -50px;""><div style=""display: flex; justify-content: space-between; margin-top: 33px;""><img src=""images/choice_trial_16.png"" style=""width: 408px; height: 417px; margin-right: 200px;""><img src=""images/choice_trial_4.png"" style=""width: 408px; height: 417px;""></div></div>",f,delaylearn,learning,trial,vvaiYPExELWOqDXCOIzJdf7Xv7F2,vvaiYPExELWOqDXCOIzJdf7Xv7F2,2.0,images/choice_trial_16.png,images/choice_trial_4.png,images/pattern_4.png,j,j,7000.0,16.0,4.0,3.0,1.0,16.0,0.0,0.0,16.0,60.0,,,,,,65c64d6115f43749efb97d68,10:09:05,27/02/2024
html-keyboard-response,87,498681,0.0-38.0-1.0,,"<div style=""display: flex; flex-direction: column; align-items: center; margin-top: -40px;""><img src=""images/pattern_4.png"" style=""width: 234px; height: 230px; margin-top: -50px;""><div style=""display: flex; justify-content: space-between; margin-top: 33px;""><img src=""images/choice_trial_16.png"" style=""width: 408px; height: 417px; margin-right: 608px;""></div></div>",,delaylearn,learning,display_response,vvaiYPExELWOqDXCOIzJdf7Xv7F2,vvaiYPExELWOqDXCOIzJdf7Xv7F2,,,,,,,,,,,,,,,,,chosen stimuli: images/choice_trial_16.png,,,,,65c64d6115f43749efb97d68,10:09:05,27/02/2024
html-keyboard-response,88,505684,0.0-38.0-2.0,,,,delaylearn,learning,feedback_duration_window,vvaiYPExELWOqDXCOIzJdf7Xv7F2,vvaiYPExELWOqDXCOIzJdf7Xv7F2,,,,,,,,,,,,,,,,,,7000.0,,,,65c64d6115f43749efb97d68,10:09:05,27/02/2024
html-keyboard-response,89,507188,0.0-38.0-3.0,,<div style='margin:auto;width: auto; font-size: 150%'><span style='font-weight: bold; font-size: 100px; color: red;'>0 points!</span><br><br></div>,,delaylearn,learning,feedback_image_window,vvaiYPExELWOqDXCOIzJdf7Xv7F2,vvaiYPExELWOqDXCOIzJdf7Xv7F2,,,,,,,,,,,,,,,,,,,,,,65c64d6115f43749efb97d68,10:09:05,27/02/2024
html-keyboard-response,90,508998,0.0-39.0,,"<div style=""font-size:100px;"">+</div>",,delaylearn,learning,ITI,vvaiYPExELWOqDXCOIzJdf7Xv7F2,vvaiYPExELWOqDXCOIzJdf7Xv7F2,,,,,,,,,,,,,,,,,,,1807.0,,,65c64d6115f43749efb97d68,10:09:05,27/02/2024
html-keyboard-response,91,510866,0.0-40.0-0.0,1864.3000000715256,"<div style=""display: flex; flex-direction: column; align-items: center; margin-top: -40px;""><img src=""images/pattern_7.png"" style=""width: 234px; height: 230px; margin-top: -50px;""><div style=""display: flex; justify-content: space-between; margin-top: 33px;""><img src=""images/choice_trial_8.png"" style=""width: 408px; height: 417px; margin-right: 200px;""><img src=""images/choice_trial_15.png"" style=""width: 408px; height: 417px;""></div></div>",j,delaylearn,learning,trial,vvaiYPExELWOqDXCOIzJdf7Xv7F2,vvaiYPExELWOqDXCOIzJdf7Xv7F2,2.0,images/choice_trial_8.png,images/choice_trial_15.png,images/pattern_7.png,j,f,750.0,8.0,15.0,6.0,0.0,17.0,0.0,1.0,15.0,70.0,,,,,,65c64d6115f43749efb97d68,10:09:05,27/02/2024
html-keyboard-response,92,511879,0.0-40.0-1.0,,"<div style=""display: flex; flex-direction: column; align-items: center; margin-top: -40px;""><img src=""images/pattern_7.png"" style=""width: 234px; height: 230px; margin-top: -50px;""><div style=""display: flex; justify-content: space-between; margin-top: 33px;""><img src=""images/choice_trial_15.png"" style=""width: 408px; height: 417px; margin-left:608px;""></div></div>",,delaylearn,learning,display_response,vvaiYPExELWOqDXCOIzJdf7Xv7F2,vvaiYPExELWOqDXCOIzJdf7Xv7F2,,,,,,,,,,,,,,,,,chosen stimuli: images/choice_trial_15.png,,,,,65c64d6115f43749efb97d68,10:09:05,27/02/2024
html-keyboard-response,93,512631,0.0-40.0-2.0,,,,delaylearn,learning,feedback_duration_window,vvaiYPExELWOqDXCOIzJdf7Xv7F2,vvaiYPExELWOqDXCOIzJdf7Xv7F2,,,,,,,,,,,,,,,,,,750.0,,,,65c64d6115f43749efb97d68,10:09:05,27/02/2024
html-keyboard-response,94,514136,0.0-40.0-3.0,,<div style='margin:auto;width: auto; font-size: 150%'><span style='font-weight: bold; font-size: 100px; color: green;'>+10 points!</span><br><br></div>,,delaylearn,learning,feedback_image_window,vvaiYPExELWOqDXCOIzJdf7Xv7F2,vvaiYPExELWOqDXCOIzJdf7Xv7F2,,,,,,,,,,,,,,,,,,,,,,65c64d6115f43749efb97d68,10:09:05,27/02/2024
html-keyboard-response,95,515992,0.0-41.0,,"<div style=""font-size:100px;"">+</div>",,delaylearn,learning,ITI,vvaiYPExELWOqDXCOIzJdf7Xv7F2,vvaiYPExELWOqDXCOIzJdf7Xv7F2,,,,,,,,,,,,,,,,,,,1843.0,,,65c64d6115f43749efb97d68,10:09:05,27/02/2024
html-keyboard-response,96,518062,0.0-42.0-0.0,2066.600000023842,"<div style=""display: flex; flex-direction: column; align-items: center; margin-top: -40px;""><img src=""images/pattern_1.png"" style=""width: 234px; height: 230px; margin-top: -50px;""><div style=""display: flex; justify-content: space-between; margin-top: 33px;""><img src=""images/choice_trial_3.png"" style=""width: 408px; height: 417px; margin-right: 200px;""><img src=""images/choice_trial_10.png"" style=""width: 408px; height: 417px;""></div></div>",f,delaylearn,learning,trial,vvaiYPExELWOqDXCOIzJdf7Xv7F2,vvaiYPExELWOqDXCOIzJdf7Xv7F2,2.0,images/choice_trial_3.png,images/choice_trial_10.png,images/pattern_1.png,f,f,7000.0,3.0,10.0,1.0,0.0,18.0,1.0,1.0,3.0,80.0,,,,,,65c64d6115f43749efb97d68,10:09:05,27/02/2024
html-keyboard-response,97,519067,0.0-42.0-1.0,,"<div style=""display: flex; flex-direction: column; align-items: center; margin-top: -40px;""><img src=""images/pattern_1.png"" style=""width: 234px; height: 230px; margin-top: -50px;""><div style=""display: flex; justify-content: space-between; margin-top: 33px;""><img src=""images/choice_trial_3.png"" style=""width: 408px; height: 417px; margin-right: 608px;""></div></div>",,delaylearn,learning,display_response,vvaiYPExELWOqDXCOIzJdf7Xv7F2,vvaiYPExELWOqDXCOIzJdf7Xv7F2,,,,,,,,,,,,,,,,,chosen stimuli: images/choice_trial_3.png,,,,,65c64d6115f43749efb97d68,10:09:05,27/02/2024
html-keyboard-response,98,526082,0.0-42.0-2.0,,,,delaylearn,learning,feedback_duration_window,vvaiYPExELWOqDXCOIzJdf7Xv7F2,vvaiYPExELWOqDXCOIzJdf7Xv7F2,,,,,,,,,,,,,,,,,,7000.0,,,,65c64d6115f43749efb97d68,10:09:05,27/02/2024
html-keyboard-response,99,527591,0.0-42.0-3.0,,<div style='margin:auto;width: auto; font-size: 150%'><span style='font-weight: bold; font-size: 100px; color: green;'>+10 points!</span><br><br></div>,,delaylearn,learning,feedback_image_window,vvaiYPExELWOqDXCOIzJdf7Xv7F2,vvaiYPExELWOqDXCOIzJdf7Xv7F2,,,,,,,,,,,,,,,,,,,,,,65c64d6115f43749efb97d68,10:09:05,27/02/2024
html-keyboard-response,100,529143,0.0-43.0,,"<div style=""font-size:100px;"">+</div>",,delaylearn,learning,ITI,vvaiYPExELWOqDXCOIzJdf7Xv7F2,vvaiYPExELWOqDXCOIzJdf7Xv7F2,,,,,,,,,,,,,,,,,,,1540.0,,,65c64d6115f43749efb97d68,10:09:05,27/02/2024
html-keyboard-response,101,531412,0.0-44.0-0.0,2265.2999999523163,"<div style=""display: flex; flex-direction: column; align-items: center; margin-top: -40px;""><img src=""images/pattern_6.png"" style=""width: 234px; height: 230px; margin-top: -50px;""><div style=""display: flex; justify-content: space-between; margin-top: 33px;""><img src=""images/choice_trial_5.png"" style=""width: 408px; height: 417px; margin-right: 200px;""><img src=""images/choice_trial_11.png"" style=""width: 408px; height: 417px;""></div></div>",j,delaylearn,learning,trial,vvaiYPExELWOqDXCOIzJdf7Xv7F2,vvaiYPExELWOqDXCOIzJdf7Xv7F2,2.0,images/choice_trial_5.png,images/choice_trial_11.png,images/pattern_6.png,j,j,750.0,5.0,11.0,5.0,1.0,19.0,1.0,1.0,11.0,90.0,,,,,,65c64d6115f43749efb97d68,10:09:05,27/02/2024
html-keyboard-response,102,532429,0.0-44.0-1.0,,"<div style=""display: flex; flex-direction: column; align-items: center; margin-top: -40px;""><img src=""images/pattern_6.png"" style=""width: 234px; height: 230px; margin-top: -50px;""><div style=""display: flex; justify-content: space-between; margin-top: 33px;""><img src=""images/choice_trial_11.png"" style=""width: 408px; height: 417px; margin-left:608px;""></div></div>",,delaylearn,learning,display_response,vvaiYPExELWOqDXCOIzJdf7Xv7F2,vvaiYPExELWOqDXCOIzJdf7Xv7F2,,,,,,,,,,,,,,,,,chosen stimuli: images/choice_trial_11.png,,,,,65c64d6115f43749efb97d68,10:09:05,27/02/2024
html-keyboard-response,103,533190,0.0-44.0-2.0,,,,delaylearn,learning,feedback_duration_window,vvaiYPExELWOqDXCOIzJdf7Xv7F2,vvaiYPExELWOqDXCOIzJdf7Xv7F2,,,,,,,,,,,,,,,,,,750.0,,,,65c64d6115f43749efb97d68,10:09:05,27/02/2024
html-keyboard-response,104,534701,0.0-44.0-3.0,,<div style='margin:auto;width: auto; font-size: 150%'><span style='font-weight: bold; font-size: 100px; color: green;'>+10 points!</span><br><br></div>,,delaylearn,learning,feedback_image_window,vvaiYPExELWOqDXCOIzJdf7Xv7F2,vvaiYPExELWOqDXCOIzJdf7Xv7F2,,,,,,,,,,,,,,,,,,,,,,65c64d6115f43749efb97d68,10:09:05,27/02/2024
html-keyboard-response,105,536852,0.0-45.0,,"<div style=""font-size:100px;"">+</div>",,delaylearn,learning,ITI,vvaiYPExELWOqDXCOIzJdf7Xv7F2,vvaiYPExELWOqDXCOIzJdf7Xv7F2,,,,,,,,,,,,,,,,,,,2143.0,,,65c64d6115f43749efb97d68,10:09:05,27/02/2024
html-keyboard-response,106,538725,0.0-46.0-0.0,1868.8999999761581,"<div style=""display: flex; flex-direction: column; align-items: center; margin-top: -40px;""><img src=""images/pattern_4.png"" style=""width: 234px; height: 230px; margin-top: -50px;""><div style=""display: flex; justify-content: space-between; margin-top: 33px;""><img src=""images/choice_trial_4.png"" style=""width: 408px; height: 417px; margin-right: 200px;""><img src=""images/choice_trial_16.png"" style=""width: 408px; height: 417px;""></div></div>",j,delaylearn,learning,trial,vvaiYPExELWOqDXCOIzJdf7Xv7F2,vvaiYPExELWOqDXCOIzJdf7Xv7F2,2.0,images/choice_trial_4.png,images/choice_trial_16.png,images/pattern_4.png,f,f,7000.0,4.0,16.0,3.0,0.0,20.0,0.0,0.0,16.0,90.0,,,,,,65c64d6115f43749efb97d68,10:09:05,27/02/2024
html-keyboard-response,107,539739,0.0-46.0-1.0,,"<div style=""display: flex; flex-direction: column; align-items: center; margin-top: -40px;""><img src=""images/pattern_4.png"" style=""width: 234px; height: 230px; margin-top: -50px;""><div style=""display: flex; justify-content: space-between; margin-top: 33px;""><img src=""images/choice_trial_16.png"" style=""width: 408px; height: 417px; margin-left:608px;""></div></div>",,delaylearn,learning,display_response,vvaiYPExELWOqDXCOIzJdf7Xv7F2,vvaiYPExELWOqDXCOIzJdf7Xv7F2,,,,,,,,,,,,,,,,,chosen stimuli: images/choice_trial_16.png,,,,,65c64d6115f43749efb97d68,10:09:05,27/02/2024
html-keyboard-response,108,546748,0.0-46.0-2.0,,,,delaylearn,learning,feedback_duration_window,vvaiYPExELWOqDXCOIzJdf7Xv7F2,vvaiYPExELWOqDXCOIzJdf7Xv7F2,,,,,,,,,,,,,,,,,,7000.0,,,,65c64d6115f43749efb97d68,10:09:05,27/02/2024
html-keyboard-response,109,548258,0.0-46.0-3.0,,<div style='margin:auto;width: auto; font-size: 150%'><span style='font-weight: bold; font-size: 100px; color: red;'>0 points!</span><br><br></div>,,delaylearn,learning,feedback_image_window,vvaiYPExELWOqDXCOIzJdf7Xv7F2,vvaiYPExELWOqDXCOIzJdf7Xv7F2,,,,,,,,,,,,,,,,,,,,,,65c64d6115f43749efb97d68,10:09:05,27/02/2024
html-keyboard-response,110,548765,0.0-47.0-0.0,,,,,,mood_trial_fixation,vvaiYPExELWOqDXCOIzJdf7Xv7F2,,,,,,,,,,,,,,,,,,,,,,,65c64d6115f43749efb97d68,10:09:05,27/02/2024
lmdlab-html-vas-response,111,557287,0.0-47.0-1.0,7507.0,How happy are you right now?,0.7939814814814815,delaylearn,learning,mood_trial,vvaiYPExELWOqDXCOIzJdf7Xv7F2,vvaiYPExELWOqDXCOIzJdf7Xv7F2,,,,,,,,,,,,,,,,,,,,"['Very unhappy', 'Very happy']",,65c64d6115f43749efb97d68,10:09:05,27/02/2024
html-keyboard-response,112,559711,0.0-48.0,,"<div style=""font-size:100px;"">+</div>",,delaylearn,learning,ITI,vvaiYPExELWOqDXCOIzJdf7Xv7F2,vvaiYPExELWOqDXCOIzJdf7Xv7F2,,,,,,,,,,,,,,,,,,,2407.0,,,65c64d6115f43749efb97d68,10:09:05,27/02/2024
html-keyboard-response,113,562070,0.0-49.0-0.0,2354.1999999284744,"<div style=""display: flex; flex-direction: column; align-items: center; margin-top: -40px;""><img src=""images/pattern_7.png"" style=""width: 234px; height: 230px; margin-top: -50px;""><div style=""display: flex; justify-content: space-between; margin-top: 33px;""><img src=""images/choice_trial_15.png"" style=""width: 408px; height: 417px; margin-right: 200px;""><img src=""images/choice_trial_8.png"" style=""width: 408px; height: 417px;""></div></div>",j,delaylearn,learning,trial,vvaiYPExELWOqDXCOIzJdf7Xv7F2,vvaiYPExELWOqDXCOIzJdf7Xv7F2,2.0,images/choice_trial_15.png,images/choice_trial_8.png,images/pattern_7.png,j,j,750.0,15.0,8.0,6.0,1.0,21.0,1.0,1.0,8.0,100.0,,,,,,65c64d6115f43749efb97d68,10:09:05,27/02/2024
html-keyboard-response,114,563076,0.0-49.0-1.0,,"<div style=""display: flex; flex-direction: column; align-items: center; margin-top: -40px;""><img src=""images/pattern_7.png"" style=""width: 234px; height: 230px; margin-top: -50px;""><div style=""display: flex; justify-content: space-between; margin-top: 33px;""><img src=""images/choice_trial_8.png"" style=""width: 408px; height: 417px; margin-left:608px;""></div></div>",,delaylearn,learning,display_response,vvaiYPExELWOqDXCOIzJdf7Xv7F2,vvaiYPExELWOqDXCOIzJdf7Xv7F2,,,,,,,,,,,,,,,,,chosen stimuli: images/choice_trial_8.png,,,,,65c64d6115f43749efb97d68,10:09:05,27/02/2024
html-keyboard-response,115,563828,0.0-49.0-2.0,,,,delaylearn,learning,feedback_duration_window,vvaiYPExELWOqDXCOIzJdf7Xv7F2,vvaiYPExELWOqDXCOIzJdf7Xv7F2,,,,,,,,,,,,,,,,,,750.0,,,,65c64d6115f43749efb97d68,10:09:05,27/02/2024
html-keyboard-response,116,565332,0.0-49.0-3.0,,<div style='margin:auto;width: auto; font-size: 150%'><span style='font-weight: bold; font-size: 100px; color: green;'>+10 points!</span><br><br></div>,,delaylearn,learning,feedback_image_window,vvaiYPExELWOqDXCOIzJdf7Xv7F2,vvaiYPExELWOqDXCOIzJdf7Xv7F2,,,,,,,,,,,,,,,,,,,,,,65c64d6115f43749efb97d68,10:09:05,27/02/2024
html-keyboard-response,117,567205,0.0-50.0,,"<div style=""font-size:100px;"">+</div>",,delaylearn,learning,ITI,vvaiYPExELWOqDXCOIzJdf7Xv7F2,vvaiYPExELWOqDXCOIzJdf7Xv7F2,,,,,,,,,,,,,,,,,,,1868.0,,,65c64d6115f43749efb97d68,10:09:05,27/02/2024
html-keyboard-response,118,569397,0.0-51.0-0.0,2188.600000023842,"<div style=""display: flex; flex-direction: column; align-items: center; margin-top: -40px;""><img src=""images/pattern_1.png"" style=""width: 234px; height: 230px; margin-top: -50px;""><div style=""display: flex; justify-content: space-between; margin-top: 33px;""><img src=""images/choice_trial_10.png"" style=""width: 408px; height: 417px; margin-right: 200px;""><img src=""images/choice_trial_3.png"" style=""width: 408px; height: 417px;""></div></div>",j,delaylearn,learning,trial,vvaiYPExELWOqDXCOIzJdf7Xv7F2,vvaiYPExELWOqDXCOIzJdf7Xv7F2,2.0,images/choice_trial_10.png,images/choice_trial_3.png,images/pattern_1.png,f,j,7000.0,10.0,3.0,1.0,1.0,22.0,1.0,0.0,3.0,100.0,,,,,,65c64d6115f43749efb97d68,10:09:05,27/02/2024
html-keyboard-response,119,570409,0.0-51.0-1.0,,"<div style=""display: flex; flex-direction: column; align-items: center; margin-top: -40px;""><img src=""images/pattern_1.png"" style=""width: 234px; height: 230px; margin-top: -50px;""><div style=""display: flex; justify-content: space-between; margin-top: 33px;""><img src=""images/choice_trial_3.png"" style=""width: 408px; height: 417px; margin-left:608px;""></div></div>",,delaylearn,learning,display_response,vvaiYPExELWOqDXCOIzJdf7Xv7F2,vvaiYPExELWOqDXCOIzJdf7Xv7F2,,,,,,,,,,,,,,,,,chosen stimuli: images/choice_trial_3.png,,,,,65c64d6115f43749efb97d68,10:09:05,27/02/2024
html-keyboard-response,120,577415,0.0-51.0-2.0,,,,delaylearn,learning,feedback_duration_window,vvaiYPExELWOqDXCOIzJdf7Xv7F2,vvaiYPExELWOqDXCOIzJdf7Xv7F2,,,,,,,,,,,,,,,,,,7000.0,,,,65c64d6115f43749efb97d68,10:09:05,27/02/2024
html-keyboard-response,121,578919,0.0-51.0-3.0,,<div style='margin:auto;width: auto; font-size: 150%'><span style='font-weight: bold; font-size: 100px; color: red;'>0 points!</span><br><br></div>,,delaylearn,learning,feedback_image_window,vvaiYPExELWOqDXCOIzJdf7Xv7F2,vvaiYPExELWOqDXCOIzJdf7Xv7F2,,,,,,,,,,,,,,,,,,,,,,65c64d6115f43749efb97d68,10:09:05,27/02/2024
html-keyboard-response,122,580850,0.0-52.0,,"<div style=""font-size:100px;"">+</div>",,delaylearn,learning,ITI,vvaiYPExELWOqDXCOIzJdf7Xv7F2,vvaiYPExELWOqDXCOIzJdf7Xv7F2,,,,,,,,,,,,,,,,,,,1926.0,,,65c64d6115f43749efb97d68,10:09:05,27/02/2024
html-keyboard-response,123,583725,0.0-53.0-0.0,2870.899999976158,"<div style=""display: flex; flex-direction: column; align-items: center; margin-top: -40px;""><img src=""images/pattern_5.png"" style=""width: 234px; height: 230px; margin-top: -50px;""><div style=""display: flex; justify-content: space-between; margin-top: 33px;""><img src=""images/choice_trial_9.png"" style=""width: 408px; height: 417px; margin-right: 200px;""><img src=""images/choice_trial_2.png"" style=""width: 408px; height: 417px;""></div></div>",f,delaylearn,learning,trial,vvaiYPExELWOqDXCOIzJdf7Xv7F2,vvaiYPExELWOqDXCOIzJdf7Xv7F2,2.0,images/choice_trial_9.png,images/choice_trial_2.png,images/pattern_5.png,j,j,750.0,9.0,2.0,4.0,1.0,23.0,0.0,0.0,9.0,100.0,,,,,,65c64d6115f43749efb97d68,10:09:05,27/02/2024
html-keyboard-response,124,584731,0.0-53.0-1.0,,"<div style=""display: flex; flex-direction: column; align-items: center; margin-top: -40px;""><img src=""images/pattern_5.png"" style=""width: 234px; height: 230px; margin-top: -50px;""><div style=""display: flex; justify-content: space-between; margin-top: 33px;""><img src=""images/choice_trial_9.png"" style=""width: 408px; height: 417px; margin-right: 608px;""></div></div>",,delaylearn,learning,display_response,vvaiYPExELWOqDXCOIzJdf7Xv7F2,vvaiYPExELWOqDXCOIzJdf7Xv7F2,,,,,,,,,,,,,,,,,chosen stimuli: images/choice_trial_9.png,,,,,65c64d6115f43749efb97d68,10:09:05,27/02/2024
html-keyboard-response,125,585487,0.0-53.0-2.0,,,,delaylearn,learning,feedback_duration_window,vvaiYPExELWOqDXCOIzJdf7Xv7F2,vvaiYPExELWOqDXCOIzJdf7Xv7F2,,,,,,,,,,,,,,,,,,750.0,,,,65c64d6115f43749efb97d68,10:09:05,27/02/2024
html-keyboard-response,126,587001,0.0-53.0-3.0,,<div style='margin:auto;width: auto; font-size: 150%'><span style='font-weight: bold; font-size: 100px; color: red;'>0 points!</span><br><br></div>,,delaylearn,learning,feedback_image_window,vvaiYPExELWOqDXCOIzJdf7Xv7F2,vvaiYPExELWOqDXCOIzJdf7Xv7F2,,,,,,,,,,,,,,,,,,,,,,65c64d6115f43749efb97d68,10:09:05,27/02/2024
html-keyboard-response,127,588949,0.0-54.0,,"<div style=""font-size:100px;"">+</div>",,delaylearn,learning,ITI,vvaiYPExELWOqDXCOIzJdf7Xv7F2,vvaiYPExELWOqDXCOIzJdf7Xv7F2,,,,,,,,,,,,,,,,,,,1931.0,,,65c64d6115f43749efb97d68,10:09:05,27/02/2024
html-keyboard-response,128,590448,0.0-55.0-0.0,1495.1000000238419,"<div style=""display: flex; flex-direction: column; align-items: center; margin-top: -40px;""><img src=""images/pattern_3.png"" style=""width: 234px; height: 230px; margin-top: -50px;""><div style=""display: flex; justify-content: space-between; margin-top: 33px;""><img src=""images/choice_trial_14.png"" style=""width: 408px; height: 417px; margin-right: 200px;""><img src=""images/choice_trial_12.png"" style=""width: 408px; height: 417px;""></div></div>",j,delaylearn,learning,trial,vvaiYPExELWOqDXCOIzJdf7Xv7F2,vvaiYPExELWOqDXCOIzJdf7Xv7F2,2.0,images/choice_trial_14.png,images/choice_trial_12.png,images/pattern_3.png,j,j,7000.0,14.0,12.0,2.0,1.0,24.0,1.0,1.0,12.0,110.0,,,,,,65c64d6115f43749efb97d68,10:09:05,27/02/2024
html-keyboard-response,129,591457,0.0-55.0-1.0,,"<div style=""display: flex; flex-direction: column; align-items: center; margin-top: -40px;""><img src=""images/pattern_3.png"" style=""width: 234px; height: 230px; margin-top: -50px;""><div style=""display: flex; justify-content: space-between; margin-top: 33px;""><img src=""images/choice_trial_12.png"" style=""width: 408px; height: 417px; margin-left:608px;""></div></div>",,delaylearn,learning,display_response,vvaiYPExELWOqDXCOIzJdf7Xv7F2,vvaiYPExELWOqDXCOIzJdf7Xv7F2,,,,,,,,,,,,,,,,,chosen stimuli: images/choice_trial_12.png,,,,,65c64d6115f43749efb97d68,10:09:05,27/02/2024
html-keyboard-response,130,598470,0.0-55.0-2.0,,,,delaylearn,learning,feedback_duration_window,vvaiYPExELWOqDXCOIzJdf7Xv7F2,vvaiYPExELWOqDXCOIzJdf7Xv7F2,,,,,,,,,,,,,,,,,,7000.0,,,,65c64d6115f43749efb97d68,10:09:05,27/02/2024
html-keyboard-response,131,599975,0.0-55.0-3.0,,<div style='margin:auto;width: auto; font-size: 150%'><span style='font-weight: bold; font-size: 100px; color: green;'>+10 points!</span><br><br></div>,,delaylearn,learning,feedback_image_window,vvaiYPExELWOqDXCOIzJdf7Xv7F2,vvaiYPExELWOqDXCOIzJdf7Xv7F2,,,,,,,,,,,,,,,,,,,,,,65c64d6115f43749efb97d68,10:09:05,27/02/2024
lmdlab-html-vas-response,132,610483,0.0-56.0-0.0,8978.0,*How <b><u>confident</u></b> are you feeling about your answers at this moment?*,0.6296296296296297,rewlearn,rate_confidence,,vvaiYPExELWOqDXCOIzJdf7Xv7F2,vvaiYPExELWOqDXCOIzJdf7Xv7F2,,,,,,,,,,,,,,,,,,,,"['No confidence', 'Complete confidence']",,65c64d6115f43749efb97d68,10:09:05,27/02/2024
lmdlab-rest-trial-limit,133,625832,0.0-56.0-1.0,13838.400000095367,"<div style=""font-size:40px;""><b>Please take a break!</b><br><br><br><br><p>Great work: you earned undefined points.<br><br><br><p>You have completed part(s) 1 of 6.<br><br><br><br>When you are ready to continue<br><br><br>please click the button.</p><br><br>",0,delaylearn,learning,break,vvaiYPExELWOqDXCOIzJdf7Xv7F2,vvaiYPExELWOqDXCOIzJdf7Xv7F2,,,,,,,,,,,,,,,,,,,,,0.0,65c64d6115f43749efb97d68,10:09:05,27/02/2024
html-keyboard-response,134,628844,0.0-56.0-2.0,,"<div style=""font-size:100px;"">+</div>",,delaylearn,learning,pre_fixation,vvaiYPExELWOqDXCOIzJdf7Xv7F2,,,,,,,,,,,,,,,,,,,,,,,65c64d6115f43749efb97d68,10:09:05,27/02/2024
lmdlab-html-vas-response,135,635613,0.0-56.0-3.0-0.0,5756.0,How happy are you right now?,0.9143518518518519,delaylearn,learning,mood_baseline,vvaiYPExELWOqDXCOIzJdf7Xv7F2,vvaiYPExELWOqDXCOIzJdf7Xv7F2,,,,,,,,,,,,,,,,,,,,"['Very unhappy', 'Very happy']",,65c64d6115f43749efb97d68,10:09:05,27/02/2024
html-keyboard-response,136,637131,0.0-56.0-3.0-1.0,,,,,,mood_baseline_fixation,vvaiYPExELWOqDXCOIzJdf7Xv7F2,,,,,,,,,,,,,,,,,,,,,,,65c64d6115f43749efb97d68,10:09:05,27/02/2024
html-keyboard-response,137,639000,0.0-57.0,,"<div style=""font-size:100px;"">+</div>",,delaylearn,learning,ITI,vvaiYPExELWOqDXCOIzJdf7Xv7F2,vvaiYPExELWOqDXCOIzJdf7Xv7F2,,,,,,,,,,,,,,,,,,,1867.0,,,65c64d6115f43749efb97d68,10:09:05,27/02/2024
html-keyboard-response,138,640382,0.0-58.0-0.0,1379.1999999284744,"<div style=""display: flex; flex-direction: column; align-items: center; margin-top: -40px;""><img src=""images/pattern_7.png"" style=""width: 234px; height: 230px; margin-top: -50px;""><div style=""display: flex; justify-content: space-between; margin-top: 33px;""><img src=""images/choice_trial_15.png"" style=""width: 408px; height: 417px; margin-right: 200px;""><img src=""images/choice_trial_8.png"" style=""width: 408px; height: 417px;""></div></div>",j,delaylearn,learning,trial,vvaiYPExELWOqDXCOIzJdf7Xv7F2,vvaiYPExELWOqDXCOIzJdf7Xv7F2,2.0,images/choice_trial_15.png,images/choice_trial_8.png,images/pattern_7.png,j,j,750.0,15.0,8.0,6.0,1.0,25.0,1.0,1.0,8.0,120.0,,,,,,65c64d6115f43749efb97d68,10:09:05,27/02/2024
html-keyboard-response,139,641388,0.0-58.0-1.0,,"<div style=""display: flex; flex-direction: column; align-items: center; margin-top: -40px;""><img src=""images/pattern_7.png"" style=""width: 234px; height: 230px; margin-top: -50px;""><div style=""display: flex; justify-content: space-between; margin-top: 33px;""><img src=""images/choice_trial_8.png"" style=""width: 408px; height: 417px; margin-left:608px;""></div></div>",,delaylearn,learning,display_response,vvaiYPExELWOqDXCOIzJdf7Xv7F2,vvaiYPExELWOqDXCOIzJdf7Xv7F2,,,,,,,,,,,,,,,,,chosen stimuli: images/choice_trial_8.png,,,,,65c64d6115f43749efb97d68,10:09:05,27/02/2024
html-keyboard-response,140,642155,0.0-58.0-2.0,,,,delaylearn,learning,feedback_duration_window,vvaiYPExELWOqDXCOIzJdf7Xv7F2,vvaiYPExELWOqDXCOIzJdf7Xv7F2,,,,,,,,,,,,,,,,,,750.0,,,,65c64d6115f43749efb97d68,10:09:05,27/02/2024
html-keyboard-response,141,643665,0.0-58.0-3.0,,<div style='margin:auto;width: auto; font-size: 150%'><span style='font-weight: bold; font-size: 100px; color: green;'>+10 points!</span><br><br></div>,,delaylearn,learning,feedback_image_window,vvaiYPExELWOqDXCOIzJdf7Xv7F2,vvaiYPExELWOqDXCOIzJdf7Xv7F2,,,,,,,,,,,,,,,,,,,,,,65c64d6115f43749efb97d68,10:09:05,27/02/2024
html-keyboard-response,142,644179,0.0-59.0-0.0,,,,,,mood_trial_fixation,vvaiYPExELWOqDXCOIzJdf7Xv7F2,,,,,,,,,,,,,,,,,,,,,,,65c64d6115f43749efb97d68,10:09:05,27/02/2024
lmdlab-html-vas-response,143,650726,0.0-59.0-1.0,5536.0,How happy are you right now?,0.9398148148148148,delaylearn,learning,mood_trial,vvaiYPExELWOqDXCOIzJdf7Xv7F2,vvaiYPExELWOqDXCOIzJdf7Xv7F2,,,,,,,,,,,,,,,,,,,,"['Very unhappy', 'Very happy']",,65c64d6115f43749efb97d68,10:09:05,27/02/2024
html-keyboard-response,144,652569,0.0-60.0,,"<div style=""font-size:100px;"">+</div>",,delaylearn,learning,ITI,vvaiYPExELWOqDXCOIzJdf7Xv7F2,vvaiYPExELWOqDXCOIzJdf7Xv7F2,,,,,,,,,,,,,,,,,,,1826.0,,,65c64d6115f43749efb97d68,10:09:05,27/02/2024
html-keyboard-response,145,654934,0.0-61.0-0.0,2360.399999976158,"<div style=""display: flex; flex-direction: column; align-items: center; margin-top: -40px;""><img src=""images/pattern_1.png"" style=""width: 234px; height: 230px; margin-top: -50px;""><div style=""display: flex; justify-content: space-between; margin-top: 33px;""><img src=""images/choice_trial_3.png"" style=""width: 408px; height: 417px; margin-right: 200px;""><img src=""images/choice_trial_10.png"" style=""width: 408px; height: 417px;""></div></div>",j,delaylearn,learning,trial,vvaiYPExELWOqDXCOIzJdf7Xv7F2,vvaiYPExELWOqDXCOIzJdf7Xv7F2,2.0,images/choice_trial_3.png,images/choice_trial_10.png,images/pattern_1.png,f,f,7000.0,3.0,10.0,1.0,0.0,26.0,0.0,0.0,10.0,120.0,,,,,,65c64d6115f43749efb97d68,10:09:05,27/02/2024
html-keyboard-response,146,655938,0.0-61.0-1.0,,"<div style=""display: flex; flex-direction: column; align-items: center; margin-top: -40px;""><img src=""images/pattern_1.png"" style=""width: 234px; height: 230px; margin-top: -50px;""><div style=""display: flex; justify-content: space-between; margin-top: 33px;""><img src=""images/choice_trial_10.png"" style=""width: 408px; height: 417px; margin-left:608px;""></div></div>",,delaylearn,learning,display_response,vvaiYPExELWOqDXCOIzJdf7Xv7F2,vvaiYPExELWOqDXCOIzJdf7Xv7F2,,,,,,,,,,,,,,,,,chosen stimuli: images/choice_trial_10.png,,,,,65c64d6115f43749efb97d68,10:09:05,27/02/2024
html-keyboard-response,147,662950,0.0-61.0-2.0,,,,delaylearn,learning,feedback_duration_window,vvaiYPExELWOqDXCOIzJdf7Xv7F2,vvaiYPExELWOqDXCOIzJdf7Xv7F2,,,,,,,,,,,,,,,,,,7000.0,,,,65c64d6115f43749efb97d68,10:09:05,27/02/2024
html-keyboard-response,148,664465,0.0-61.0-3.0,,<div style='margin:auto;width: auto; font-size: 150%'><span style='font-weight: bold; font-size: 100px; color: red;'>0 points!</span><br><br></div>,,delaylearn,learning,feedback_image_window,vvaiYPExELWOqDXCOIzJdf7Xv7F2,vvaiYPExELWOqDXCOIzJdf7Xv7F2,,,,,,,,,,,,,,,,,,,,,,65c64d6115f43749efb97d68,10:09:05,27/02/2024
html-keyboard-response,149,666147,0.0-62.0,,"<div style=""font-size:100px;"">+</div>",,delaylearn,learning,ITI,vvaiYPExELWOqDXCOIzJdf7Xv7F2,vvaiYPExELWOqDXCOIzJdf7Xv7F2,,,,,,,,,,,,,,,,,,,1665.0,,,65c64d6115f43749efb97d68,10:09:05,27/02/2024
html-keyboard-response,150,668256,0.0-63.0-0.0,2104.2999999523163,"<div style=""display: flex; flex-direction: column; align-items: center; margin-top: -40px;""><img src=""images/pattern_5.png"" style=""width: 234px; height: 230px; margin-top: -50px;""><div style=""display: flex; justify-content: space-between; margin-top: 33px;""><img src=""images/choice_trial_2.png"" style=""width: 408px; height: 417px; margin-right: 200px;""><img src=""images/choice_trial_9.png"" style=""width: 408px; height: 417px;""></div></div>",f,delaylearn,learning,trial,vvaiYPExELWOqDXCOIzJdf7Xv7F2,vvaiYPExELWOqDXCOIzJdf7Xv7F2,2.0,images/choice_trial_2.png,images/choice_trial_9.png,images/pattern_5.png,f,f,750.0,2.0,9.0,4.0,0.0,27.0,1.0,1.0,2.0,130.0,,,,,,65c64d6115f43749efb97d68,10:09:05,27/02/2024
html-keyboard-response,151,669268,0.0-63.0-1.0,,"<div style=""display: flex; flex-direction: column; align-items: center; margin-top: -40px;""><img src=""images/pattern_5.png"" style=""width: 234px; height: 230px; margin-top: -50px;""><div style=""display: flex; justify-content: space-between; margin-top: 33px;""><img src=""images/choice_trial_2.png"" style=""width: 408px; height: 417px; margin-right: 608px;""></div></div>",,delaylearn,learning,display_response,vvaiYPExELWOqDXCOIzJdf7Xv7F2,vvaiYPExELWOqDXCOIzJdf7Xv7F2,,,,,,,,,,,,,,,,,chosen stimuli: images/choice_trial_2.png,,,,,65c64d6115f43749efb97d68,10:09:05,27/02/2024
html-keyboard-response,152,670023,0.0-63.0-2.0,,,,delaylearn,learning,feedback_duration_window,vvaiYPExELWOqDXCOIzJdf7Xv7F2,vvaiYPExELWOqDXCOIzJdf7Xv7F2,,,,,,,,,,,,,,,,,,750.0,,,,65c64d6115f43749efb97d68,10:09:05,27/02/2024
html-keyboard-response,153,671543,0.0-63.0-3.0,,<div style='margin:auto;width: auto; font-size: 150%'><span style='font-weight: bold; font-size: 100px; color: green;'>+10 points!</span><br><br></div>,,delaylearn,learning,feedback_image_window,vvaiYPExELWOqDXCOIzJdf7Xv7F2,vvaiYPExELWOqDXCOIzJdf7Xv7F2,,,,,,,,,,,,,,,,,,,,,,65c64d6115f43749efb97d68,10:09:05,27/02/2024
html-keyboard-response,154,673613,0.0-64.0,,"<div style=""font-size:100px;"">+</div>",,delaylearn,learning,ITI,vvaiYPExELWOqDXCOIzJdf7Xv7F2,vvaiYPExELWOqDXCOIzJdf7Xv7F2,,,,,,,,,,,,,,,,,,,2056.0,,,65c64d6115f43749efb97d68,10:09:05,27/02/2024
html-keyboard-response,155,676402,0.0-65.0-0.0,2784.7000000476837,"<div style=""display: flex; flex-direction: column; align-items: center; margin-top: -40px;""><img src=""images/pattern_6.png"" style=""width: 234px; height: 230px; margin-top: -50px;""><div style=""display: flex; justify-content: space-between; margin-top: 33px;""><img src=""images/choice_trial_5.png"" style=""width: 408px; height: 417px; margin-right: 200px;""><img src=""images/choice_trial_11.png"" style=""width: 408px; height: 417px;""></div></div>",f,delaylearn,learning,trial,vvaiYPExELWOqDXCOIzJdf7Xv7F2,vvaiYPExELWOqDXCOIzJdf7Xv7F2,2.0,images/choice_trial_5.png,images/choice_trial_11.png,images/pattern_6.png,j,j,750.0,5.0,11.0,5.0,1.0,28.0,0.0,0.0,5.0,130.0,,,,,,65c64d6115f43749efb97d68,10:09:05,27/02/2024
html-keyboard-response,156,677407,0.0-65.0-1.0,,"<div style=""display: flex; flex-direction: column; align-items: center; margin-top: -40px;""><img src=""images/pattern_6.png"" style=""width: 234px; height: 230px; margin-top: -50px;""><div style=""display: flex; justify-content: space-between; margin-top: 33px;""><img src=""images/choice_trial_5.png"" style=""width: 408px; height: 417px; margin-right: 608px;""></div></div>",,delaylearn,learning,display_response,vvaiYPExELWOqDXCOIzJdf7Xv7F2,vvaiYPExELWOqDXCOIzJdf7Xv7F2,,,,,,,,,,,,,,,,,chosen stimuli: images/choice_trial_5.png,,,,,65c64d6115f43749efb97d68,10:09:05,27/02/2024
html-keyboard-response,157,678170,0.0-65.0-2.0,,,,delaylearn,learning,feedback_duration_window,vvaiYPExELWOqDXCOIzJdf7Xv7F2,vvaiYPExELWOqDXCOIzJdf7Xv7F2,,,,,,,,,,,,,,,,,,750.0,,,,65c64d6115f43749efb97d68,10:09:05,27/02/2024
html-keyboard-response,158,679679,0.0-65.0-3.0,,<div style='margin:auto;width: auto; font-size: 150%'><span style='font-weight: bold; font-size: 100px; color: red;'>0 points!</span><br><br></div>,,delaylearn,learning,feedback_image_window,vvaiYPExELWOqDXCOIzJdf7Xv7F2,vvaiYPExELWOqDXCOIzJdf7Xv7F2,,,,,,,,,,,,,,,,,,,,,,65c64d6115f43749efb97d68,10:09:05,27/02/2024
html-keyboard-response,159,680195,0.0-66.0-0.0,,,,,,mood_trial_fixation,vvaiYPExELWOqDXCOIzJdf7Xv7F2,,,,,,,,,,,,,,,,,,,,,,,65c64d6115f43749efb97d68,10:09:05,27/02/2024
lmdlab-html-vas-response,160,685609,0.0-66.0-1.0,4392.0,How happy are you right now?,0.7013888888888888,delaylearn,learning,mood_trial,vvaiYPExELWOqDXCOIzJdf7Xv7F2,vvaiYPExELWOqDXCOIzJdf7Xv7F2,,,,,,,,,,,,,,,,,,,,"['Very unhappy', 'Very happy']",,65c64d6115f43749efb97d68,10:09:05,27/02/2024
html-keyboard-response,161,687630,0.0-67.0,,"<div style=""font-size:100px;"">+</div>",,delaylearn,learning,ITI,vvaiYPExELWOqDXCOIzJdf7Xv7F2,vvaiYPExELWOqDXCOIzJdf7Xv7F2,,,,,,,,,,,,,,,,,,,2004.0,,,65c64d6115f43749efb97d68,10:09:05,27/02/2024
html-keyboard-response,162,689370,0.0-68.0-0.0,1736.5,"<div style=""display: flex; flex-direction: column; align-items: center; margin-top: -40px;""><img src=""images/pattern_4.png"" style=""width: 234px; height: 230px; margin-top: -50px;""><div style=""display: flex; justify-content: space-between; margin-top: 33px;""><img src=""images/choice_trial_16.png"" style=""width: 408px; height: 417px; margin-right: 200px;""><img src=""images/choice_trial_4.png"" style=""width: 408px; height: 417px;""></div></div>",f,delaylearn,learning,trial,vvaiYPExELWOqDXCOIzJdf7Xv7F2,vvaiYPExELWOqDXCOIzJdf7Xv7F2,2.0,images/choice_trial_16.png,images/choice_trial_4.png,images/pattern_4.png,j,j,7000.0,16.0,4.0,3.0,1.0,29.0,0.0,0.0,16.0,130.0,,,,,,65c64d6115f43749efb97d68,10:09:05,27/02/2024
html-keyboard-response,163,690383,0.0-68.0-1.0,,"<div style=""display: flex; flex-direction: column; align-items: center; margin-top: -40px;""><img src=""images/pattern_4.png"" style=""width: 234px; height: 230px; margin-top: -50px;""><div style=""display: flex; justify-content: space-between; margin-top: 33px;""><img src=""images/choice_trial_16.png"" style=""width: 408px; height: 417px; margin-right: 608px;""></div></div>",,delaylearn,learning,display_response,vvaiYPExELWOqDXCOIzJdf7Xv7F2,vvaiYPExELWOqDXCOIzJdf7Xv7F2,,,,,,,,,,,,,,,,,chosen stimuli: images/choice_trial_16.png,,,,,65c64d6115f43749efb97d68,10:09:05,27/02/2024
html-keyboard-response,164,697387,0.0-68.0-2.0,,,,delaylearn,learning,feedback_duration_window,vvaiYPExELWOqDXCOIzJdf7Xv7F2,vvaiYPExELWOqDXCOIzJdf7Xv7F2,,,,,,,,,,,,,,,,,,7000.0,,,,65c64d6115f43749efb97d68,10:09:05,27/02/2024
html-keyboard-response,165,698903,0.0-68.0-3.0,,<div style='margin:auto;width: auto; font-size: 150%'><span style='font-weight: bold; font-size: 100px; color: red;'>0 points!</span><br><br></div>,,delaylearn,learning,feedback_image_window,vvaiYPExELWOqDXCOIzJdf7Xv7F2,vvaiYPExELWOqDXCOIzJdf7Xv7F2,,,,,,,,,,,,,,,,,,,,,,65c64d6115f43749efb97d68,10:09:05,27/02/2024
html-keyboard-response,166,700434,0.0-69.0,,"<div style=""font-size:100px;"">+</div>",,delaylearn,learning,ITI,vvaiYPExELWOqDXCOIzJdf7Xv7F2,vvaiYPExELWOqDXCOIzJdf7Xv7F2,,,,,,,,,,,,,,,,,,,1521.0,,,65c64d6115f43749efb97d68,10:09:05,27/02/2024
html-keyboard-response,167,701816,0.0-70.0-0.0,1377.5,"<div style=""display: flex; flex-direction: column; align-items: center; margin-top: -40px;""><img src=""images/pattern_3.png"" style=""width: 234px; height: 230px; margin-top: -50px;""><div style=""display: flex; justify-content: space-between; margin-top: 33px;""><img src=""images/choice_trial_14.png"" style=""width: 408px; height: 417px; margin-right: 200px;""><img src=""images/choice_trial_12.png"" style=""width: 408px; height: 417px;""></div></div>",j,delaylearn,learning,trial,vvaiYPExELWOqDXCOIzJdf7Xv7F2,vvaiYPExELWOqDXCOIzJdf7Xv7F2,2.0,images/choice_trial_14.png,images/choice_trial_12.png,images/pattern_3.png,j,j,7000.0,14.0,12.0,2.0,1.0,30.0,1.0,1.0,12.0,140.0,,,,,,65c64d6115f43749efb97d68,10:09:05,27/02/2024
html-keyboard-response,168,702827,0.0-70.0-1.0,,"<div style=""display: flex; flex-direction: column; align-items: center; margin-top: -40px;""><img src=""images/pattern_3.png"" style=""width: 234px; height: 230px; margin-top: -50px;""><div style=""display: flex; justify-content: space-between; margin-top: 33px;""><img src=""images/choice_trial_12.png"" style=""width: 408px; height: 417px; margin-left:608px;""></div></div>",,delaylearn,learning,display_response,vvaiYPExELWOqDXCOIzJdf7Xv7F2,vvaiYPExELWOqDXCOIzJdf7Xv7F2,,,,,,,,,,,,,,,,,chosen stimuli: images/choice_trial_12.png,,,,,65c64d6115f43749efb97d68,10:09:05,27/02/2024
html-keyboard-response,169,709834,0.0-70.0-2.0,,,,delaylearn,learning,feedback_duration_window,vvaiYPExELWOqDXCOIzJdf7Xv7F2,vvaiYPExELWOqDXCOIzJdf7Xv7F2,,,,,,,,,,,,,,,,,,7000.0,,,,65c64d6115f43749efb97d68,10:09:05,27/02/2024
html-keyboard-response,170,711349,0.0-70.0-3.0,,<div style='margin:auto;width: auto; font-size: 150%'><span style='font-weight: bold; font-size: 100px; color: green;'>+10 points!</span><br><br></div>,,delaylearn,learning,feedback_image_window,vvaiYPExELWOqDXCOIzJdf7Xv7F2,vvaiYPExELWOqDXCOIzJdf7Xv7F2,,,,,,,,,,,,,,,,,,,,,,65c64d6115f43749efb97d68,10:09:05,27/02/2024
html-keyboard-response,171,712976,0.0-71.0,,"<div style=""font-size:100px;"">+</div>",,delaylearn,learning,ITI,vvaiYPExELWOqDXCOIzJdf7Xv7F2,vvaiYPExELWOqDXCOIzJdf7Xv7F2,,,,,,,,,,,,,,,,,,,1625.0,,,65c64d6115f43749efb97d68,10:09:05,27/02/2024
html-keyboard-response,172,715996,0.0-72.0-0.0,,"<div style=""display: flex; flex-direction: column; align-items: center; margin-top: -40px;""><img src=""images/pattern_5.png"" style=""width: 234px; height: 230px; margin-top: -50px;""><div style=""display: flex; justify-content: space-between; margin-top: 33px;""><img src=""images/choice_trial_2.png"" style=""width: 408px; height: 417px; margin-right: 200px;""><img src=""images/choice_trial_9.png"" style=""width: 408px; height: 417px;""></div></div>",,delaylearn,learning,trial,vvaiYPExELWOqDXCOIzJdf7Xv7F2,vvaiYPExELWOqDXCOIzJdf7Xv7F2,2.0,images/choice_trial_2.png,images/choice_trial_9.png,images/pattern_5.png,j,f,750.0,2.0,9.0,4.0,0.0,31.0,0.0,0.0,0.0,140.0,,,,,,65c64d6115f43749efb97d68,10:09:05,27/02/2024
html-keyboard-response,173,717003,0.0-72.0-1.0,,<div style='font-weight: bold; font-size: 75px; color: red;'>Missed Trial <br><br><br><br> Please respond faster</div>,,delaylearn,learning,display_response,vvaiYPExELWOqDXCOIzJdf7Xv7F2,vvaiYPExELWOqDXCOIzJdf7Xv7F2,,,,,,,,,,,,,,,,,Missed trial,,,,,65c64d6115f43749efb97d68,10:09:05,27/02/2024
html-keyboard-response,174,717012,0.0-72.0-2.0,,,,delaylearn,learning,feedback_duration_window,vvaiYPExELWOqDXCOIzJdf7Xv7F2,vvaiYPExELWOqDXCOIzJdf7Xv7F2,,,,,,,,,,,,,,,,,,0.0,,,,65c64d6115f43749efb97d68,10:09:05,27/02/2024
html-keyboard-response,175,717020,0.0-72.0-3.0,,,,delaylearn,learning,feedback_image_window,vvaiYPExELWOqDXCOIzJdf7Xv7F2,vvaiYPExELWOqDXCOIzJdf7Xv7F2,,,,,,,,,,,,,,,,,,,,,,65c64d6115f43749efb97d68,10:09:05,27/02/2024
html-keyboard-response,176,718676,0.0-73.0,,"<div style=""font-size:100px;"">+</div>",,delaylearn,learning,ITI,vvaiYPExELWOqDXCOIzJdf7Xv7F2,vvaiYPExELWOqDXCOIzJdf7Xv7F2,,,,,,,,,,,,,,,,,,,1647.0,,,65c64d6115f43749efb97d68,10:09:05,27/02/2024
html-keyboard-response,177,721446,0.0-74.0-0.0,2765.9000000953674,"<div style=""display: flex; flex-direction: column; align-items: center; margin-top: -40px;""><img src=""images/pattern_1.png"" style=""width: 234px; height: 230px; margin-top: -50px;""><div style=""display: flex; justify-content: space-between; margin-top: 33px;""><img src=""images/choice_trial_3.png"" style=""width: 408px; height: 417px; margin-right: 200px;""><img src=""images/choice_trial_10.png"" style=""width: 408px; height: 417px;""></div></div>",f,delaylearn,learning,trial,vvaiYPExELWOqDXCOIzJdf7Xv7F2,vvaiYPExELWOqDXCOIzJdf7Xv7F2,2.0,images/choice_trial_3.png,images/choice_trial_10.png,images/pattern_1.png,f,f,7000.0,3.0,10.0,1.0,0.0,32.0,1.0,1.0,3.0,150.0,,,,,,65c64d6115f43749efb97d68,10:09:05,27/02/2024
html-keyboard-response,178,722465,0.0-74.0-1.0,,"<div style=""display: flex; flex-direction: column; align-items: center; margin-top: -40px;""><img src=""images/pattern_1.png"" style=""width: 234px; height: 230px; margin-top: -50px;""><div style=""display: flex; justify-content: space-between; margin-top: 33px;""><img src=""images/choice_trial_3.png"" style=""width: 408px; height: 417px; margin-right: 608px;""></div></div>",,delaylearn,learning,display_response,vvaiYPExELWOqDXCOIzJdf7Xv7F2,vvaiYPExELWOqDXCOIzJdf7Xv7F2,,,,,,,,,,,,,,,,,chosen stimuli: images/choice_trial_3.png,,,,,65c64d6115f43749efb97d68,10:09:05,27/02/2024
html-keyboard-response,179,729476,0.0-74.0-2.0,,,,delaylearn,learning,feedback_duration_window,vvaiYPExELWOqDXCOIzJdf7Xv7F2,vvaiYPExELWOqDXCOIzJdf7Xv7F2,,,,,,,,,,,,,,,,,,7000.0,,,,65c64d6115f43749efb97d68,10:09:05,27/02/2024
html-keyboard-response,180,730980,0.0-74.0-3.0,,<div style='margin:auto;width: auto; font-size: 150%'><span style='font-weight: bold; font-size: 100px; color: green;'>+10 points!</span><br><br></div>,,delaylearn,learning,feedback_image_window,vvaiYPExELWOqDXCOIzJdf7Xv7F2,vvaiYPExELWOqDXCOIzJdf7Xv7F2,,,,,,,,,,,,,,,,,,,,,,65c64d6115f43749efb97d68,10:09:05,27/02/2024
html-keyboard-response,181,731487,0.0-75.0-0.0,,,,,,mood_trial_fixation,vvaiYPExELWOqDXCOIzJdf7Xv7F2,,,,,,,,,,,,,,,,,,,,,,,65c64d6115f43749efb97d68,10:09:05,27/02/2024
lmdlab-html-vas-response,182,736134,0.0-75.0-1.0,3632.0,How happy are you right now?,0.7592592592592593,delaylearn,learning,mood_trial,vvaiYPExELWOqDXCOIzJdf7Xv7F2,vvaiYPExELWOqDXCOIzJdf7Xv7F2,,,,,,,,,,,,,,,,,,,,"['Very unhappy', 'Very happy']",,65c64d6115f43749efb97d68,10:09:05,27/02/2024
html-keyboard-response,183,738404,0.0-76.0,,"<div style=""font-size:100px;"">+</div>",,delaylearn,learning,ITI,vvaiYPExELWOqDXCOIzJdf7Xv7F2,vvaiYPExELWOqDXCOIzJdf7Xv7F2,,,,,,,,,,,,,,,,,,,2259.0,,,65c64d6115f43749efb97d68,10:09:05,27/02/2024
html-keyboard-response,184,741200,0.0-77.0-0.0,2791.399999976158,"<div style=""display: flex; flex-direction: column; align-items: center; margin-top: -40px;""><img src=""images/pattern_6.png"" style=""width: 234px; height: 230px; margin-top: -50px;""><div style=""display: flex; justify-content: space-between; margin-top: 33px;""><img src=""images/choice_trial_11.png"" style=""width: 408px; height: 417px; margin-right: 200px;""><img src=""images/choice_trial_5.png"" style=""width: 408px; height: 417px;""></div></div>",f,delaylearn,learning,trial,vvaiYPExELWOqDXCOIzJdf7Xv7F2,vvaiYPExELWOqDXCOIzJdf7Xv7F2,2.0,images/choice_trial_11.png,images/choice_trial_5.png,images/pattern_6.png,j,f,750.0,11.0,5.0,5.0,0.0,33.0,1.0,0.0,11.0,150.0,,,,,,65c64d6115f43749efb97d68,10:09:05,27/02/2024
html-keyboard-response,185,742208,0.0-77.0-1.0,,"<div style=""display: flex; flex-direction: column; align-items: center; margin-top: -40px;""><img src=""images/pattern_6.png"" style=""width: 234px; height: 230px; margin-top: -50px;""><div style=""display: flex; justify-content: space-between; margin-top: 33px;""><img src=""images/choice_trial_11.png"" style=""width: 408px; height: 417px; margin-right: 608px;""></div></div>",,delaylearn,learning,display_response,vvaiYPExELWOqDXCOIzJdf7Xv7F2,vvaiYPExELWOqDXCOIzJdf7Xv7F2,,,,,,,,,,,,,,,,,chosen stimuli: images/choice_trial_11.png,,,,,65c64d6115f43749efb97d68,10:09:05,27/02/2024
html-keyboard-response,186,742974,0.0-77.0-2.0,,,,delaylearn,learning,feedback_duration_window,vvaiYPExELWOqDXCOIzJdf7Xv7F2,vvaiYPExELWOqDXCOIzJdf7Xv7F2,,,,,,,,,,,,,,,,,,750.0,,,,65c64d6115f43749efb97d68,10:09:05,27/02/2024
html-keyboard-response,187,744481,0.0-77.0-3.0,,<div style='margin:auto;width: auto; font-size: 150%'><span style='font-weight: bold; font-size: 100px; color: red;'>0 points!</span><br><br></div>,,delaylearn,learning,feedback_image_window,vvaiYPExELWOqDXCOIzJdf7Xv7F2,vvaiYPExELWOqDXCOIzJdf7Xv7F2,,,,,,,,,,,,,,,,,,,,,,65c64d6115f43749efb97d68,10:09:05,27/02/2024
html-keyboard-response,188,746256,0.0-78.0,,"<div style=""font-size:100px;"">+</div>",,delaylearn,learning,ITI,vvaiYPExELWOqDXCOIzJdf7Xv7F2,vvaiYPExELWOqDXCOIzJdf7Xv7F2,,,,,,,,,,,,,,,,,,,1762.0,,,65c64d6115f43749efb97d68,10:09:05,27/02/2024
html-keyboard-response,189,747444,0.0-79.0-0.0,1182.6000000238419,"<div style=""display: flex; flex-direction: column; align-items: center; margin-top: -40px;""><img src=""images/pattern_3.png"" style=""width: 234px; height: 230px; margin-top: -50px;""><div style=""display: flex; justify-content: space-between; margin-top: 33px;""><img src=""images/choice_trial_14.png"" style=""width: 408px; height: 417px; margin-right: 200px;""><img src=""images/choice_trial_12.png"" style=""width: 408px; height: 417px;""></div></div>",j,delaylearn,learning,trial,vvaiYPExELWOqDXCOIzJdf7Xv7F2,vvaiYPExELWOqDXCOIzJdf7Xv7F2,2.0,images/choice_trial_14.png,images/choice_trial_12.png,images/pattern_3.png,j,j,7000.0,14.0,12.0,2.0,1.0,34.0,1.0,1.0,12.0,160.0,,,,,,65c64d6115f43749efb97d68,10:09:05,27/02/2024
html-keyboard-response,190,748458,0.0-79.0-1.0,,"<div style=""display: flex; flex-direction: column; align-items: center; margin-top: -40px;""><img src=""images/pattern_3.png"" style=""width: 234px; height: 230px; margin-top: -50px;""><div style=""display: flex; justify-content: space-between; margin-top: 33px;""><img src=""images/choice_trial_12.png"" style=""width: 408px; height: 417px; margin-left:608px;""></div></div>",,delaylearn,learning,display_response,vvaiYPExELWOqDXCOIzJdf7Xv7F2,vvaiYPExELWOqDXCOIzJdf7Xv7F2,,,,,,,,,,,,,,,,,chosen stimuli: images/choice_trial_12.png,,,,,65c64d6115f43749efb97d68,10:09:05,27/02/2024
html-keyboard-response,191,755460,0.0-79.0-2.0,,,,delaylearn,learning,feedback_duration_window,vvaiYPExELWOqDXCOIzJdf7Xv7F2,vvaiYPExELWOqDXCOIzJdf7Xv7F2,,,,,,,,,,,,,,,,,,7000.0,,,,65c64d6115f43749efb97d68,10:09:05,27/02/2024
html-keyboard-response,192,756978,0.0-79.0-3.0,,<div style='margin:auto;width: auto; font-size: 150%'><span style='font-weight: bold; font-size: 100px; color: green;'>+10 points!</span><br><br></div>,,delaylearn,learning,feedback_image_window,vvaiYPExELWOqDXCOIzJdf7Xv7F2,vvaiYPExELWOqDXCOIzJdf7Xv7F2,,,,,,,,,,,,,,,,,,,,,,65c64d6115f43749efb97d68,10:09:05,27/02/2024
html-keyboard-response,193,759243,0.0-80.0,,"<div style=""font-size:100px;"">+</div>",,delaylearn,learning,ITI,vvaiYPExELWOqDXCOIzJdf7Xv7F2,vvaiYPExELWOqDXCOIzJdf7Xv7F2,,,,,,,,,,,,,,,,,,,2258.0,,,65c64d6115f43749efb97d68,10:09:05,27/02/2024
html-keyboard-response,194,761131,0.0-81.0-0.0,1883.0,"<div style=""display: flex; flex-direction: column; align-items: center; margin-top: -40px;""><img src=""images/pattern_4.png"" style=""width: 234px; height: 230px; margin-top: -50px;""><div style=""display: flex; justify-content: space-between; margin-top: 33px;""><img src=""images/choice_trial_16.png"" style=""width: 408px; height: 417px; margin-right: 200px;""><img src=""images/choice_trial_4.png"" style=""width: 408px; height: 417px;""></div></div>",j,delaylearn,learning,trial,vvaiYPExELWOqDXCOIzJdf7Xv7F2,vvaiYPExELWOqDXCOIzJdf7Xv7F2,2.0,images/choice_trial_16.png,images/choice_trial_4.png,images/pattern_4.png,f,j,7000.0,16.0,4.0,3.0,1.0,35.0,1.0,0.0,4.0,160.0,,,,,,65c64d6115f43749efb97d68,10:09:05,27/02/2024
html-keyboard-response,195,762146,0.0-81.0-1.0,,"<div style=""display: flex; flex-direction: column; align-items: center; margin-top: -40px;""><img src=""images/pattern_4.png"" style=""width: 234px; height: 230px; margin-top: -50px;""><div style=""display: flex; justify-content: space-between; margin-top: 33px;""><img src=""images/choice_trial_4.png"" style=""width: 408px; height: 417px; margin-left:608px;""></div></div>",,delaylearn,learning,display_response,vvaiYPExELWOqDXCOIzJdf7Xv7F2,vvaiYPExELWOqDXCOIzJdf7Xv7F2,,,,,,,,,,,,,,,,,chosen stimuli: images/choice_trial_4.png,,,,,65c64d6115f43749efb97d68,10:09:05,27/02/2024
html-keyboard-response,196,769153,0.0-81.0-2.0,,,,delaylearn,learning,feedback_duration_window,vvaiYPExELWOqDXCOIzJdf7Xv7F2,vvaiYPExELWOqDXCOIzJdf7Xv7F2,,,,,,,,,,,,,,,,,,7000.0,,,,65c64d6115f43749efb97d68,10:09:05,27/02/2024
html-keyboard-response,197,770660,0.0-81.0-3.0,,<div style='margin:auto;width: auto; font-size: 150%'><span style='font-weight: bold; font-size: 100px; color: red;'>0 points!</span><br><br></div>,,delaylearn,learning,feedback_image_window,vvaiYPExELWOqDXCOIzJdf7Xv7F2,vvaiYPExELWOqDXCOIzJdf7Xv7F2,,,,,,,,,,,,,,,,,,,,,,65c64d6115f43749efb97d68,10:09:05,27/02/2024
html-keyboard-response,198,772611,0.0-82.0,,"<div style=""font-size:100px;"">+</div>",,delaylearn,learning,ITI,vvaiYPExELWOqDXCOIzJdf7Xv7F2,vvaiYPExELWOqDXCOIzJdf7Xv7F2,,,,,,,,,,,,,,,,,,,1930.0,,,65c64d6115f43749efb97d68,10:09:05,27/02/2024
html-keyboard-response,199,774941,0.0-83.0-0.0,2325.0999999046326,"<div style=""display: flex; flex-direction: column; align-items: center; margin-top: -40px;""><img src=""images/pattern_7.png"" style=""width: 234px; height: 230px; margin-top: -50px;""><div style=""display: flex; justify-content: space-between; margin-top: 33px;""><img src=""images/choice_trial_8.png"" style=""width: 408px; height: 417px; margin-right: 200px;""><img src=""images/choice_trial_15.png"" style=""width: 408px; height: 417px;""></div></div>",f,delaylearn,learning,trial,vvaiYPExELWOqDXCOIzJdf7Xv7F2,vvaiYPExELWOqDXCOIzJdf7Xv7F2,2.0,images/choice_trial_8.png,images/choice_trial_15.png,images/pattern_7.png,f,f,750.0,8.0,15.0,6.0,0.0,36.0,1.0,1.0,8.0,170.0,,,,,,65c64d6115f43749efb97d68,10:09:05,27/02/2024
html-keyboard-response,200,775958,0.0-83.0-1.0,,"<div style=""display: flex; flex-direction: column; align-items: center; margin-top: -40px;""><img src=""images/pattern_7.png"" style=""width: 234px; height: 230px; margin-top: -50px;""><div style=""display: flex; justify-content: space-between; margin-top: 33px;""><img src=""images/choice_trial_8.png"" style=""width: 408px; height: 417px; margin-right: 608px;""></div></div>",,delaylearn,learning,display_response,vvaiYPExELWOqDXCOIzJdf7Xv7F2,vvaiYPExELWOqDXCOIzJdf7Xv7F2,,,,,,,,,,,,,,,,,chosen stimuli: images/choice_trial_8.png,,,,,65c64d6115f43749efb97d68,10:09:05,27/02/2024
html-keyboard-response,201,776718,0.0-83.0-2.0,,,,delaylearn,learning,feedback_duration_window,vvaiYPExELWOqDXCOIzJdf7Xv7F2,vvaiYPExELWOqDXCOIzJdf7Xv7F2,,,,,,,,,,,,,,,,,,750.0,,,,65c64d6115f43749efb97d68,10:09:05,27/02/2024
html-keyboard-response,202,778223,0.0-83.0-3.0,,<div style='margin:auto;width: auto; font-size: 150%'><span style='font-weight: bold; font-size: 100px; color: green;'>+10 points!</span><br><br></div>,,delaylearn,learning,feedback_image_window,vvaiYPExELWOqDXCOIzJdf7Xv7F2,vvaiYPExELWOqDXCOIzJdf7Xv7F2,,,,,,,,,,,,,,,,,,,,,,65c64d6115f43749efb97d68,10:09:05,27/02/2024
html-keyboard-response,203,780115,0.0-84.0,,"<div style=""font-size:100px;"">+</div>",,delaylearn,learning,ITI,vvaiYPExELWOqDXCOIzJdf7Xv7F2,vvaiYPExELWOqDXCOIzJdf7Xv7F2,,,,,,,,,,,,,,,,,,,1887.0,,,65c64d6115f43749efb97d68,10:09:05,27/02/2024
html-keyboard-response,204,781932,0.0-85.0-0.0,1823.6000000238419,"<div style=""display: flex; flex-direction: column; align-items: center; margin-top: -40px;""><img src=""images/pattern_1.png"" style=""width: 234px; height: 230px; margin-top: -50px;""><div style=""display: flex; justify-content: space-between; margin-top: 33px;""><img src=""images/choice_trial_3.png"" style=""width: 408px; height: 417px; margin-right: 200px;""><img src=""images/choice_trial_10.png"" style=""width: 408px; height: 417px;""></div></div>",f,delaylearn,learning,trial,vvaiYPExELWOqDXCOIzJdf7Xv7F2,vvaiYPExELWOqDXCOIzJdf7Xv7F2,2.0,images/choice_trial_3.png,images/choice_trial_10.png,images/pattern_1.png,f,f,7000.0,3.0,10.0,1.0,0.0,37.0,1.0,1.0,3.0,180.0,,,,,,65c64d6115f43749efb97d68,10:09:05,27/02/2024
html-keyboard-response,205,782943,0.0-85.0-1.0,,"<div style=""display: flex; flex-direction: column; align-items: center; margin-top: -40px;""><img src=""images/pattern_1.png"" style=""width: 234px; height: 230px; margin-top: -50px;""><div style=""display: flex; justify-content: space-between; margin-top: 33px;""><img src=""images/choice_trial_3.png"" style=""width: 408px; height: 417px; margin-right: 608px;""></div></div>",,delaylearn,learning,display_response,vvaiYPExELWOqDXCOIzJdf7Xv7F2,vvaiYPExELWOqDXCOIzJdf7Xv7F2,,,,,,,,,,,,,,,,,chosen stimuli: images/choice_trial_3.png,,,,,65c64d6115f43749efb97d68,10:09:05,27/02/2024
html-keyboard-response,206,789955,0.0-85.0-2.0,,,,delaylearn,learning,feedback_duration_window,vvaiYPExELWOqDXCOIzJdf7Xv7F2,vvaiYPExELWOqDXCOIzJdf7Xv7F2,,,,,,,,,,,,,,,,,,7000.0,,,,65c64d6115f43749efb97d68,10:09:05,27/02/2024
html-keyboard-response,207,791467,0.0-85.0-3.0,,<div style='margin:auto;width: auto; font-size: 150%'><span style='font-weight: bold; font-size: 100px; color: green;'>+10 points!</span><br><br></div>,,delaylearn,learning,feedback_image_window,vvaiYPExELWOqDXCOIzJdf7Xv7F2,vvaiYPExELWOqDXCOIzJdf7Xv7F2,,,,,,,,,,,,,,,,,,,,,,65c64d6115f43749efb97d68,10:09:05,27/02/2024
html-keyboard-response,208,791982,0.0-86.0-0.0,,,,,,mood_trial_fixation,vvaiYPExELWOqDXCOIzJdf7Xv7F2,,,,,,,,,,,,,,,,,,,,,,,65c64d6115f43749efb97d68,10:09:05,27/02/2024
lmdlab-html-vas-response,209,796969,0.0-86.0-1.0,3966.0,How happy are you right now?,0.7731481481481481,delaylearn,learning,mood_trial,vvaiYPExELWOqDXCOIzJdf7Xv7F2,vvaiYPExELWOqDXCOIzJdf7Xv7F2,,,,,,,,,,,,,,,,,,,,"['Very unhappy', 'Very happy']",,65c64d6115f43749efb97d68,10:09:05,27/02/2024
html-keyboard-response,210,798770,0.0-87.0,,"<div style=""font-size:100px;"">+</div>",,delaylearn,learning,ITI,vvaiYPExELWOqDXCOIzJdf7Xv7F2,vvaiYPExELWOqDXCOIzJdf7Xv7F2,,,,,,,,,,,,,,,,,,,1798.0,,,65c64d6115f43749efb97d68,10:09:05,27/02/2024
html-keyboard-response,211,800000,0.0-88.0-0.0,1224.8999999761581,"<div style=""display: flex; flex-direction: column; align-items: center; margin-top: -40px;""><img src=""images/pattern_3.png"" style=""width: 234px; height: 230px; margin-top: -50px;""><div style=""display: flex; justify-content: space-between; margin-top: 33px;""><img src=""images/choice_trial_12.png"" style=""width: 408px; height: 417px; margin-right: 200px;""><img src=""images/choice_trial_14.png"" style=""width: 408px; height: 417px;""></div></div>",f,delaylearn,learning,trial,vvaiYPExELWOqDXCOIzJdf7Xv7F2,vvaiYPExELWOqDXCOIzJdf7Xv7F2,2.0,images/choice_trial_12.png,images/choice_trial_14.png,images/pattern_3.png,j,f,7000.0,12.0,14.0,2.0,0.0,38.0,1.0,0.0,12.0,180.0,,,,,,65c64d6115f43749efb97d68,10:09:05,27/02/2024
html-keyboard-response,212,801011,0.0-88.0-1.0,,"<div style=""display: flex; flex-direction: column; align-items: center; margin-top: -40px;""><img src=""images/pattern_3.png"" style=""width: 234px; height: 230px; margin-top: -50px;""><div style=""display: flex; justify-content: space-between; margin-top: 33px;""><img src=""images/choice_trial_12.png"" style=""width: 408px; height: 417px; margin-right: 608px;""></div></div>",,delaylearn,learning,display_response,vvaiYPExELWOqDXCOIzJdf7Xv7F2,vvaiYPExELWOqDXCOIzJdf7Xv7F2,,,,,,,,,,,,,,,,,chosen stimuli: images/choice_trial_12.png,,,,,65c64d6115f43749efb97d68,10:09:05,27/02/2024
html-keyboard-response,213,808030,0.0-88.0-2.0,,,,delaylearn,learning,feedback_duration_window,vvaiYPExELWOqDXCOIzJdf7Xv7F2,vvaiYPExELWOqDXCOIzJdf7Xv7F2,,,,,,,,,,,,,,,,,,7000.0,,,,65c64d6115f43749efb97d68,10:09:05,27/02/2024
html-keyboard-response,214,809534,0.0-88.0-3.0,,<div style='margin:auto;width: auto; font-size: 150%'><span style='font-weight: bold; font-size: 100px; color: red;'>0 points!</span><br><br></div>,,delaylearn,learning,feedback_image_window,vvaiYPExELWOqDXCOIzJdf7Xv7F2,vvaiYPExELWOqDXCOIzJdf7Xv7F2,,,,,,,,,,,,,,,,,,,,,,65c64d6115f43749efb97d68,10:09:05,27/02/2024
html-keyboard-response,215,811120,0.0-89.0,,"<div style=""font-size:100px;"">+</div>",,delaylearn,learning,ITI,vvaiYPExELWOqDXCOIzJdf7Xv7F2,vvaiYPExELWOqDXCOIzJdf7Xv7F2,,,,,,,,,,,,,,,,,,,1582.0,,,65c64d6115f43749efb97d68,10:09:05,27/02/2024
html-keyboard-response,216,812443,0.0-90.0-0.0,1318.3999999761581,"<div style=""display: flex; flex-direction: column; align-items: center; margin-top: -40px;""><img src=""images/pattern_7.png"" style=""width: 234px; height: 230px; margin-top: -50px;""><div style=""display: flex; justify-content: space-between; margin-top: 33px;""><img src=""images/choice_trial_15.png"" style=""width: 408px; height: 417px; margin-right: 200px;""><img src=""images/choice_trial_8.png"" style=""width: 408px; height: 417px;""></div></div>",j,delaylearn,learning,trial,vvaiYPExELWOqDXCOIzJdf7Xv7F2,vvaiYPExELWOqDXCOIzJdf7Xv7F2,2.0,images/choice_trial_15.png,images/choice_trial_8.png,images/pattern_7.png,j,j,750.0,15.0,8.0,6.0,1.0,39.0,1.0,1.0,8.0,190.0,,,,,,65c64d6115f43749efb97d68,10:09:05,27/02/2024
html-keyboard-response,217,813461,0.0-90.0-1.0,,"<div style=""display: flex; flex-direction: column; align-items: center; margin-top: -40px;""><img src=""images/pattern_7.png"" style=""width: 234px; height: 230px; margin-top: -50px;""><div style=""display: flex; justify-content: space-between; margin-top: 33px;""><img src=""images/choice_trial_8.png"" style=""width: 408px; height: 417px; margin-left:608px;""></div></div>",,delaylearn,learning,display_response,vvaiYPExELWOqDXCOIzJdf7Xv7F2,vvaiYPExELWOqDXCOIzJdf7Xv7F2,,,,,,,,,,,,,,,,,chosen stimuli: images/choice_trial_8.png,,,,,65c64d6115f43749efb97d68,10:09:05,27/02/2024
html-keyboard-response,218,814219,0.0-90.0-2.0,,,,delaylearn,learning,feedback_duration_window,vvaiYPExELWOqDXCOIzJdf7Xv7F2,vvaiYPExELWOqDXCOIzJdf7Xv7F2,,,,,,,,,,,,,,,,,,750.0,,,,65c64d6115f43749efb97d68,10:09:05,27/02/2024
html-keyboard-response,219,815735,0.0-90.0-3.0,,<div style='margin:auto;width: auto; font-size: 150%'><span style='font-weight: bold; font-size: 100px; color: green;'>+10 points!</span><br><br></div>,,delaylearn,learning,feedback_image_window,vvaiYPExELWOqDXCOIzJdf7Xv7F2,vvaiYPExELWOqDXCOIzJdf7Xv7F2,,,,,,,,,,,,,,,,,,,,,,65c64d6115f43749efb97d68,10:09:05,27/02/2024
html-keyboard-response,220,817245,0.0-91.0,,"<div style=""font-size:100px;"">+</div>",,delaylearn,learning,ITI,vvaiYPExELWOqDXCOIzJdf7Xv7F2,vvaiYPExELWOqDXCOIzJdf7Xv7F2,,,,,,,,,,,,,,,,,,,1507.0,,,65c64d6115f43749efb97d68,10:09:05,27/02/2024
html-keyboard-response,221,819024,0.0-92.0-0.0,1774.7000000476837,"<div style=""display: flex; flex-direction: column; align-items: center; margin-top: -40px;""><img src=""images/pattern_5.png"" style=""width: 234px; height: 230px; margin-top: -50px;""><div style=""display: flex; justify-content: space-between; margin-top: 33px;""><img src=""images/choice_trial_9.png"" style=""width: 408px; height: 417px; margin-right: 200px;""><img src=""images/choice_trial_2.png"" style=""width: 408px; height: 417px;""></div></div>",f,delaylearn,learning,trial,vvaiYPExELWOqDXCOIzJdf7Xv7F2,vvaiYPExELWOqDXCOIzJdf7Xv7F2,2.0,images/choice_trial_9.png,images/choice_trial_2.png,images/pattern_5.png,j,j,750.0,9.0,2.0,4.0,1.0,40.0,0.0,0.0,9.0,190.0,,,,,,65c64d6115f43749efb97d68,10:09:05,27/02/2024
html-keyboard-response,222,820031,0.0-92.0-1.0,,"<div style=""display: flex; flex-direction: column; align-items: center; margin-top: -40px;""><img src=""images/pattern_5.png"" style=""width: 234px; height: 230px; margin-top: -50px;""><div style=""display: flex; justify-content: space-between; margin-top: 33px;""><img src=""images/choice_trial_9.png"" style=""width: 408px; height: 417px; margin-right: 608px;""></div></div>",,delaylearn,learning,display_response,vvaiYPExELWOqDXCOIzJdf7Xv7F2,vvaiYPExELWOqDXCOIzJdf7Xv7F2,,,,,,,,,,,,,,,,,chosen stimuli: images/choice_trial_9.png,,,,,65c64d6115f43749efb97d68,10:09:05,27/02/2024
html-keyboard-response,223,820793,0.0-92.0-2.0,,,,delaylearn,learning,feedback_duration_window,vvaiYPExELWOqDXCOIzJdf7Xv7F2,vvaiYPExELWOqDXCOIzJdf7Xv7F2,,,,,,,,,,,,,,,,,,750.0,,,,65c64d6115f43749efb97d68,10:09:05,27/02/2024
html-keyboard-response,224,822299,0.0-92.0-3.0,,<div style='margin:auto;width: auto; font-size: 150%'><span style='font-weight: bold; font-size: 100px; color: red;'>0 points!</span><br><br></div>,,delaylearn,learning,feedback_image_window,vvaiYPExELWOqDXCOIzJdf7Xv7F2,vvaiYPExELWOqDXCOIzJdf7Xv7F2,,,,,,,,,,,,,,,,,,,,,,65c64d6115f43749efb97d68,10:09:05,27/02/2024
html-keyboard-response,225,822814,0.0-93.0-0.0,,,,,,mood_trial_fixation,vvaiYPExELWOqDXCOIzJdf7Xv7F2,,,,,,,,,,,,,,,,,,,,,,,65c64d6115f43749efb97d68,10:09:05,27/02/2024
lmdlab-html-vas-response,226,827820,0.0-93.0-1.0,3995.0,How happy are you right now?,0.6643518518518519,delaylearn,learning,mood_trial,vvaiYPExELWOqDXCOIzJdf7Xv7F2,vvaiYPExELWOqDXCOIzJdf7Xv7F2,,,,,,,,,,,,,,,,,,,,"['Very unhappy', 'Very happy']",,65c64d6115f43749efb97d68,10:09:05,27/02/2024
html-keyboard-response,227,829882,0.0-94.0,,"<div style=""font-size:100px;"">+</div>",,delaylearn,learning,ITI,vvaiYPExELWOqDXCOIzJdf7Xv7F2,vvaiYPExELWOqDXCOIzJdf7Xv7F2,,,,,,,,,,,,,,,,,,,2059.0,,,65c64d6115f43749efb97d68,10:09:05,27/02/2024
html-keyboard-response,228,831892,0.0-95.0-0.0,2002.2999999523163,"<div style=""display: flex; flex-direction: column; align-items: center; margin-top: -40px;""><img src=""images/pattern_4.png"" style=""width: 234px; height: 230px; margin-top: -50px;""><div style=""display: flex; justify-content: space-between; margin-top: 33px;""><img src=""images/choice_trial_4.png"" style=""width: 408px; height: 417px; margin-right: 200px;""><img src=""images/choice_trial_16.png"" style=""width: 408px; height: 417px;""></div></div>",f,delaylearn,learning,trial,vvaiYPExELWOqDXCOIzJdf7Xv7F2,vvaiYPExELWOqDXCOIzJdf7Xv7F2,2.0,images/choice_trial_4.png,images/choice_trial_16.png,images/pattern_4.png,f,f,7000.0,4.0,16.0,3.0,0.0,41.0,1.0,1.0,4.0,200.0,,,,,,65c64d6115f43749efb97d68,10:09:05,27/02/2024
html-keyboard-response,229,832902,0.0-95.0-1.0,,"<div style=""display: flex; flex-direction: column; align-items: center; margin-top: -40px;""><img src=""images/pattern_4.png"" style=""width: 234px; height: 230px; margin-top: -50px;""><div style=""display: flex; justify-content: space-between; margin-top: 33px;""><img src=""images/choice_trial_4.png"" style=""width: 408px; height: 417px; margin-right: 608px;""></div></div>",,delaylearn,learning,display_response,vvaiYPExELWOqDXCOIzJdf7Xv7F2,vvaiYPExELWOqDXCOIzJdf7Xv7F2,,,,,,,,,,,,,,,,,chosen stimuli: images/choice_trial_4.png,,,,,65c64d6115f43749efb97d68,10:09:05,27/02/2024
html-keyboard-response,230,839915,0.0-95.0-2.0,,,,delaylearn,learning,feedback_duration_window,vvaiYPExELWOqDXCOIzJdf7Xv7F2,vvaiYPExELWOqDXCOIzJdf7Xv7F2,,,,,,,,,,,,,,,,,,7000.0,,,,65c64d6115f43749efb97d68,10:09:05,27/02/2024
html-keyboard-response,231,841437,0.0-95.0-3.0,,<div style='margin:auto;width: auto; font-size: 150%'><span style='font-weight: bold; font-size: 100px; color: green;'>+10 points!</span><br><br></div>,,delaylearn,learning,feedback_image_window,vvaiYPExELWOqDXCOIzJdf7Xv7F2,vvaiYPExELWOqDXCOIzJdf7Xv7F2,,,,,,,,,,,,,,,,,,,,,,65c64d6115f43749efb97d68,10:09:05,27/02/2024
html-keyboard-response,232,843194,0.0-96.0,,"<div style=""font-size:100px;"">+</div>",,delaylearn,learning,ITI,vvaiYPExELWOqDXCOIzJdf7Xv7F2,vvaiYPExELWOqDXCOIzJdf7Xv7F2,,,,,,,,,,,,,,,,,,,1750.0,,,65c64d6115f43749efb97d68,10:09:05,27/02/2024
html-keyboard-response,233,844845,0.0-97.0-0.0,1647.1000000238419,"<div style=""display: flex; flex-direction: column; align-items: center; margin-top: -40px;""><img src=""images/pattern_6.png"" style=""width: 234px; height: 230px; margin-top: -50px;""><div style=""display: flex; justify-content: space-between; margin-top: 33px;""><img src=""images/choice_trial_5.png"" style=""width: 408px; height: 417px; margin-right: 200px;""><img src=""images/choice_trial_11.png"" style=""width: 408px; height: 417px;""></div></div>",j,delaylearn,learning,trial,vvaiYPExELWOqDXCOIzJdf7Xv7F2,vvaiYPExELWOqDXCOIzJdf7Xv7F2,2.0,images/choice_trial_5.png,images/choice_trial_11.png,images/pattern_6.png,j,j,750.0,5.0,11.0,5.0,1.0,42.0,1.0,1.0,11.0,210.0,,,,,,65c64d6115f43749efb97d68,10:09:05,27/02/2024
