trial_type,trial_index,time_elapsed,internal_node_id,rt,stimulus,response,exp_name,exp_stage,test_part,subjectID,databaseID,counterbal,choice_stimuli_1,choice_stimuli_2,pattern_stimuli,rewarded_answer,correct_answer,feedback_duration_times,stim_left,stim_right,pair,leftright_counter,trial,response_correct,response_rewarded,chosen_stim,counter,displayed_choice,feedback_durations,ITI_duration,labels,rest_warning,prolificID,start_time,date
pavlovia,0,515,0.0-0.0,,,,,,,mRtXV4NP3ffAjrcvUQizGSja4cR2,,,,,,,,,,,,,,,,,,,,,,,59baf1a2178f1b0001828a26,09:09:24,27/02/2024
html-keyboard-response,1,3525,0.0-1.0,,"<div style=""font-size:100px;"">+</div>",,delaylearn,learning,pre_fixation,mRtXV4NP3ffAjrcvUQizGSja4cR2,,,,,,,,,,,,,,,,,,,,,,,59baf1a2178f1b0001828a26,09:09:24,27/02/2024
html-keyboard-response,2,4801,0.0-2.0-0.0,1267.5,"<div style=""display: flex; flex-direction: column; align-items: center; margin-top: -40px;""><img src=""images/demo_images/pattern_1.png"" style=""width: 234px; height: 230px; margin-top: -50px;""><div style=""display: flex; justify-content: space-between; margin-top: 33px;""><img src=""images/demo_images/choice_trial_2.png"" style=""width: 408px; height: 417px; margin-right: 200px;""><img src=""images/demo_images/choice_trial_1.png"" style=""width: 408px; height: 417px;""></div></div>",f,delaylearn,learning,trial,mRtXV4NP3ffAjrcvUQizGSja4cR2,mRtXV4NP3ffAjrcvUQizGSja4cR2,5.0,images/demo_images/choice_trial_2.png,images/demo_images/choice_trial_1.png,images/demo_images/pattern_1.png,j,j,3000.0,2.0,1.0,20.0,1.0,1.0,0.0,0.0,2.0,0.0,,,,,,59baf1a2178f1b0001828a26,09:09:24,27/02/2024
html-keyboard-response,3,5812,0.0-2.0-1.0,,"<div style=""display: flex; flex-direction: column; align-items: center; margin-top: -40px;""><img src=""images/demo_images/pattern_1.png"" style=""width: 234px; height: 230px; margin-top: -50px;""><div style=""display: flex; justify-content: space-between; margin-top: 33px;""><img src=""images/demo_images/choice_trial_2.png"" style=""width: 408px; height: 417px; margin-right: 608px;""></div></div>",,delaylearn,learning,display_response,mRtXV4NP3ffAjrcvUQizGSja4cR2,mRtXV4NP3ffAjrcvUQizGSja4cR2,,,,,,,,,,,,,,,,,chosen stimuli: images/demo_images/choice_trial_2.png,,,,,59baf1a2178f1b0001828a26,09:09:24,27/02/2024
html-keyboard-response,4,8821,0.0-2.0-2.0,,,,delaylearn,learning,feedback_duration_window,mRtXV4NP3ffAjrcvUQizGSja4cR2,mRtXV4NP3ffAjrcvUQizGSja4cR2,,,,,,,,,,,,,,,,,,3000.0,,,,59baf1a2178f1b0001828a26,09:09:24,27/02/2024
html-keyboard-response,5,10333,0.0-2.0-3.0,,<div style='margin:auto;width: auto; font-size: 150%'><span style='font-weight: bold; font-size: 100px; color: red;'>0 points!</span><br><br></div>,,delaylearn,learning,feedback_image_window,mRtXV4NP3ffAjrcvUQizGSja4cR2,mRtXV4NP3ffAjrcvUQizGSja4cR2,,,,,,,,,,,,,,,,,,,,,,59baf1a2178f1b0001828a26,09:09:24,27/02/2024
html-keyboard-response,6,12141,0.0-3.0,,"<div style=""font-size:100px;"">+</div>",,delaylearn,learning,ITI,mRtXV4NP3ffAjrcvUQizGSja4cR2,mRtXV4NP3ffAjrcvUQizGSja4cR2,,,,,,,,,,,,,,,,,,,1799.0,,,59baf1a2178f1b0001828a26,09:09:24,27/02/2024
html-keyboard-response,7,13600,0.0-4.0-0.0,1449.6000000238419,"<div style=""display: flex; flex-direction: column; align-items: center; margin-top: -40px;""><img src=""images/demo_images/pattern_1.png"" style=""width: 234px; height: 230px; margin-top: -50px;""><div style=""display: flex; justify-content: space-between; margin-top: 33px;""><img src=""images/demo_images/choice_trial_2.png"" style=""width: 408px; height: 417px; margin-right: 200px;""><img src=""images/demo_images/choice_trial_1.png"" style=""width: 408px; height: 417px;""></div></div>",j,delaylearn,learning,trial,mRtXV4NP3ffAjrcvUQizGSja4cR2,mRtXV4NP3ffAjrcvUQizGSja4cR2,5.0,images/demo_images/choice_trial_2.png,images/demo_images/choice_trial_1.png,images/demo_images/pattern_1.png,j,j,3000.0,2.0,1.0,20.0,1.0,2.0,1.0,1.0,1.0,10.0,,,,,,59baf1a2178f1b0001828a26,09:09:24,27/02/2024
html-keyboard-response,8,14612,0.0-4.0-1.0,,"<div style=""display: flex; flex-direction: column; align-items: center; margin-top: -40px;""><img src=""images/demo_images/pattern_1.png"" style=""width: 234px; height: 230px; margin-top: -50px;""><div style=""display: flex; justify-content: space-between; margin-top: 33px;""><img src=""images/demo_images/choice_trial_1.png"" style=""width: 408px; height: 417px; margin-left:608px;""></div></div>",,delaylearn,learning,display_response,mRtXV4NP3ffAjrcvUQizGSja4cR2,mRtXV4NP3ffAjrcvUQizGSja4cR2,,,,,,,,,,,,,,,,,chosen stimuli: images/demo_images/choice_trial_1.png,,,,,59baf1a2178f1b0001828a26,09:09:24,27/02/2024
html-keyboard-response,9,17620,0.0-4.0-2.0,,,,delaylearn,learning,feedback_duration_window,mRtXV4NP3ffAjrcvUQizGSja4cR2,mRtXV4NP3ffAjrcvUQizGSja4cR2,,,,,,,,,,,,,,,,,,3000.0,,,,59baf1a2178f1b0001828a26,09:09:24,27/02/2024
html-keyboard-response,10,19132,0.0-4.0-3.0,,<div style='margin:auto;width: auto; font-size: 150%'><span style='font-weight: bold; font-size: 100px; color: green;'>+10 points!</span><br><br></div>,,delaylearn,learning,feedback_image_window,mRtXV4NP3ffAjrcvUQizGSja4cR2,mRtXV4NP3ffAjrcvUQizGSja4cR2,,,,,,,,,,,,,,,,,,,,,,59baf1a2178f1b0001828a26,09:09:24,27/02/2024
html-keyboard-response,11,21340,0.0-5.0,,"<div style=""font-size:100px;"">+</div>",,delaylearn,learning,ITI,mRtXV4NP3ffAjrcvUQizGSja4cR2,mRtXV4NP3ffAjrcvUQizGSja4cR2,,,,,,,,,,,,,,,,,,,2197.0,,,59baf1a2178f1b0001828a26,09:09:24,27/02/2024
html-keyboard-response,12,21989,0.0-6.0-0.0,642.1999999880791,"<div style=""display: flex; flex-direction: column; align-items: center; margin-top: -40px;""><img src=""images/demo_images/pattern_1.png"" style=""width: 234px; height: 230px; margin-top: -50px;""><div style=""display: flex; justify-content: space-between; margin-top: 33px;""><img src=""images/demo_images/choice_trial_1.png"" style=""width: 408px; height: 417px; margin-right: 200px;""><img src=""images/demo_images/choice_trial_2.png"" style=""width: 408px; height: 417px;""></div></div>",f,delaylearn,learning,trial,mRtXV4NP3ffAjrcvUQizGSja4cR2,mRtXV4NP3ffAjrcvUQizGSja4cR2,5.0,images/demo_images/choice_trial_1.png,images/demo_images/choice_trial_2.png,images/demo_images/pattern_1.png,j,f,3000.0,1.0,2.0,20.0,0.0,3.0,1.0,0.0,1.0,10.0,,,,,,59baf1a2178f1b0001828a26,09:09:24,27/02/2024
html-keyboard-response,13,22996,0.0-6.0-1.0,,"<div style=""display: flex; flex-direction: column; align-items: center; margin-top: -40px;""><img src=""images/demo_images/pattern_1.png"" style=""width: 234px; height: 230px; margin-top: -50px;""><div style=""display: flex; justify-content: space-between; margin-top: 33px;""><img src=""images/demo_images/choice_trial_1.png"" style=""width: 408px; height: 417px; margin-right: 608px;""></div></div>",,delaylearn,learning,display_response,mRtXV4NP3ffAjrcvUQizGSja4cR2,mRtXV4NP3ffAjrcvUQizGSja4cR2,,,,,,,,,,,,,,,,,chosen stimuli: images/demo_images/choice_trial_1.png,,,,,59baf1a2178f1b0001828a26,09:09:24,27/02/2024
html-keyboard-response,14,26004,0.0-6.0-2.0,,,,delaylearn,learning,feedback_duration_window,mRtXV4NP3ffAjrcvUQizGSja4cR2,mRtXV4NP3ffAjrcvUQizGSja4cR2,,,,,,,,,,,,,,,,,,3000.0,,,,59baf1a2178f1b0001828a26,09:09:24,27/02/2024
html-keyboard-response,15,27517,0.0-6.0-3.0,,<div style='margin:auto;width: auto; font-size: 150%'><span style='font-weight: bold; font-size: 100px; color: red;'>0 points!</span><br><br></div>,,delaylearn,learning,feedback_image_window,mRtXV4NP3ffAjrcvUQizGSja4cR2,mRtXV4NP3ffAjrcvUQizGSja4cR2,,,,,,,,,,,,,,,,,,,,,,59baf1a2178f1b0001828a26,09:09:24,27/02/2024
html-keyboard-response,16,29924,0.0-7.0,,"<div style=""font-size:100px;"">+</div>",,delaylearn,learning,ITI,mRtXV4NP3ffAjrcvUQizGSja4cR2,mRtXV4NP3ffAjrcvUQizGSja4cR2,,,,,,,,,,,,,,,,,,,2397.0,,,59baf1a2178f1b0001828a26,09:09:24,27/02/2024
html-keyboard-response,17,31324,0.0-8.0-0.0,1393.8999999761581,"<div style=""display: flex; flex-direction: column; align-items: center; margin-top: -40px;""><img src=""images/demo_images/pattern_1.png"" style=""width: 234px; height: 230px; margin-top: -50px;""><div style=""display: flex; justify-content: space-between; margin-top: 33px;""><img src=""images/demo_images/choice_trial_1.png"" style=""width: 408px; height: 417px; margin-right: 200px;""><img src=""images/demo_images/choice_trial_2.png"" style=""width: 408px; height: 417px;""></div></div>",f,delaylearn,learning,trial,mRtXV4NP3ffAjrcvUQizGSja4cR2,mRtXV4NP3ffAjrcvUQizGSja4cR2,5.0,images/demo_images/choice_trial_1.png,images/demo_images/choice_trial_2.png,images/demo_images/pattern_1.png,f,f,3000.0,1.0,2.0,20.0,0.0,4.0,1.0,1.0,1.0,20.0,,,,,,59baf1a2178f1b0001828a26,09:09:24,27/02/2024
html-keyboard-response,18,32332,0.0-8.0-1.0,,"<div style=""display: flex; flex-direction: column; align-items: center; margin-top: -40px;""><img src=""images/demo_images/pattern_1.png"" style=""width: 234px; height: 230px; margin-top: -50px;""><div style=""display: flex; justify-content: space-between; margin-top: 33px;""><img src=""images/demo_images/choice_trial_1.png"" style=""width: 408px; height: 417px; margin-right: 608px;""></div></div>",,delaylearn,learning,display_response,mRtXV4NP3ffAjrcvUQizGSja4cR2,mRtXV4NP3ffAjrcvUQizGSja4cR2,,,,,,,,,,,,,,,,,chosen stimuli: images/demo_images/choice_trial_1.png,,,,,59baf1a2178f1b0001828a26,09:09:24,27/02/2024
html-keyboard-response,19,35340,0.0-8.0-2.0,,,,delaylearn,learning,feedback_duration_window,mRtXV4NP3ffAjrcvUQizGSja4cR2,mRtXV4NP3ffAjrcvUQizGSja4cR2,,,,,,,,,,,,,,,,,,3000.0,,,,59baf1a2178f1b0001828a26,09:09:24,27/02/2024
html-keyboard-response,20,36852,0.0-8.0-3.0,,<div style='margin:auto;width: auto; font-size: 150%'><span style='font-weight: bold; font-size: 100px; color: green;'>+10 points!</span><br><br></div>,,delaylearn,learning,feedback_image_window,mRtXV4NP3ffAjrcvUQizGSja4cR2,mRtXV4NP3ffAjrcvUQizGSja4cR2,,,,,,,,,,,,,,,,,,,,,,59baf1a2178f1b0001828a26,09:09:24,27/02/2024
html-keyboard-response,21,37356,0.0-9.0-0.0,,,,,,mood_trial_fixation,mRtXV4NP3ffAjrcvUQizGSja4cR2,,,,,,,,,,,,,,,,,,,,,,,59baf1a2178f1b0001828a26,09:09:24,27/02/2024
lmdlab-html-vas-response,22,41004,0.0-9.0-1.0,2622.0,How happy are you right now?,0.48265572547556884,delaylearn,learning,mood_trial,mRtXV4NP3ffAjrcvUQizGSja4cR2,mRtXV4NP3ffAjrcvUQizGSja4cR2,,,,,,,,,,,,,,,,,,,,"['Very unhappy', 'Very happy']",,59baf1a2178f1b0001828a26,09:09:24,27/02/2024
html-keyboard-response,23,42636,0.0-10.0,,"<div style=""font-size:100px;"">+</div>",,delaylearn,learning,ITI,mRtXV4NP3ffAjrcvUQizGSja4cR2,mRtXV4NP3ffAjrcvUQizGSja4cR2,,,,,,,,,,,,,,,,,,,1627.0,,,59baf1a2178f1b0001828a26,09:09:24,27/02/2024
html-keyboard-response,24,44134,0.0-11.0-0.0,1490.699999988079,"<div style=""display: flex; flex-direction: column; align-items: center; margin-top: -40px;""><img src=""images/demo_images/pattern_1.png"" style=""width: 234px; height: 230px; margin-top: -50px;""><div style=""display: flex; justify-content: space-between; margin-top: 33px;""><img src=""images/demo_images/choice_trial_2.png"" style=""width: 408px; height: 417px; margin-right: 200px;""><img src=""images/demo_images/choice_trial_1.png"" style=""width: 408px; height: 417px;""></div></div>",j,delaylearn,learning,trial,mRtXV4NP3ffAjrcvUQizGSja4cR2,mRtXV4NP3ffAjrcvUQizGSja4cR2,5.0,images/demo_images/choice_trial_2.png,images/demo_images/choice_trial_1.png,images/demo_images/pattern_1.png,j,j,3000.0,2.0,1.0,20.0,1.0,5.0,1.0,1.0,1.0,30.0,,,,,,59baf1a2178f1b0001828a26,09:09:24,27/02/2024
html-keyboard-response,25,45140,0.0-11.0-1.0,,"<div style=""display: flex; flex-direction: column; align-items: center; margin-top: -40px;""><img src=""images/demo_images/pattern_1.png"" style=""width: 234px; height: 230px; margin-top: -50px;""><div style=""display: flex; justify-content: space-between; margin-top: 33px;""><img src=""images/demo_images/choice_trial_1.png"" style=""width: 408px; height: 417px; margin-left:608px;""></div></div>",,delaylearn,learning,display_response,mRtXV4NP3ffAjrcvUQizGSja4cR2,mRtXV4NP3ffAjrcvUQizGSja4cR2,,,,,,,,,,,,,,,,,chosen stimuli: images/demo_images/choice_trial_1.png,,,,,59baf1a2178f1b0001828a26,09:09:24,27/02/2024
html-keyboard-response,26,48148,0.0-11.0-2.0,,,,delaylearn,learning,feedback_duration_window,mRtXV4NP3ffAjrcvUQizGSja4cR2,mRtXV4NP3ffAjrcvUQizGSja4cR2,,,,,,,,,,,,,,,,,,3000.0,,,,59baf1a2178f1b0001828a26,09:09:24,27/02/2024
html-keyboard-response,27,49659,0.0-11.0-3.0,,<div style='margin:auto;width: auto; font-size: 150%'><span style='font-weight: bold; font-size: 100px; color: green;'>+10 points!</span><br><br></div>,,delaylearn,learning,feedback_image_window,mRtXV4NP3ffAjrcvUQizGSja4cR2,mRtXV4NP3ffAjrcvUQizGSja4cR2,,,,,,,,,,,,,,,,,,,,,,59baf1a2178f1b0001828a26,09:09:24,27/02/2024
html-keyboard-response,28,51763,0.0-12.0,,"<div style=""font-size:100px;"">+</div>",,delaylearn,learning,ITI,mRtXV4NP3ffAjrcvUQizGSja4cR2,mRtXV4NP3ffAjrcvUQizGSja4cR2,,,,,,,,,,,,,,,,,,,2096.0,,,59baf1a2178f1b0001828a26,09:09:24,27/02/2024
html-keyboard-response,29,53184,0.0-13.0-0.0,1417.300000011921,"<div style=""display: flex; flex-direction: column; align-items: center; margin-top: -40px;""><img src=""images/demo_images/pattern_1.png"" style=""width: 234px; height: 230px; margin-top: -50px;""><div style=""display: flex; justify-content: space-between; margin-top: 33px;""><img src=""images/demo_images/choice_trial_1.png"" style=""width: 408px; height: 417px; margin-right: 200px;""><img src=""images/demo_images/choice_trial_2.png"" style=""width: 408px; height: 417px;""></div></div>",f,delaylearn,learning,trial,mRtXV4NP3ffAjrcvUQizGSja4cR2,mRtXV4NP3ffAjrcvUQizGSja4cR2,5.0,images/demo_images/choice_trial_1.png,images/demo_images/choice_trial_2.png,images/demo_images/pattern_1.png,f,f,3000.0,1.0,2.0,20.0,0.0,6.0,1.0,1.0,1.0,40.0,,,,,,59baf1a2178f1b0001828a26,09:09:24,27/02/2024
html-keyboard-response,30,54196,0.0-13.0-1.0,,"<div style=""display: flex; flex-direction: column; align-items: center; margin-top: -40px;""><img src=""images/demo_images/pattern_1.png"" style=""width: 234px; height: 230px; margin-top: -50px;""><div style=""display: flex; justify-content: space-between; margin-top: 33px;""><img src=""images/demo_images/choice_trial_1.png"" style=""width: 408px; height: 417px; margin-right: 608px;""></div></div>",,delaylearn,learning,display_response,mRtXV4NP3ffAjrcvUQizGSja4cR2,mRtXV4NP3ffAjrcvUQizGSja4cR2,,,,,,,,,,,,,,,,,chosen stimuli: images/demo_images/choice_trial_1.png,,,,,59baf1a2178f1b0001828a26,09:09:24,27/02/2024
html-keyboard-response,31,57204,0.0-13.0-2.0,,,,delaylearn,learning,feedback_duration_window,mRtXV4NP3ffAjrcvUQizGSja4cR2,mRtXV4NP3ffAjrcvUQizGSja4cR2,,,,,,,,,,,,,,,,,,3000.0,,,,59baf1a2178f1b0001828a26,09:09:24,27/02/2024
html-keyboard-response,32,58708,0.0-13.0-3.0,,<div style='margin:auto;width: auto; font-size: 150%'><span style='font-weight: bold; font-size: 100px; color: green;'>+10 points!</span><br><br></div>,,delaylearn,learning,feedback_image_window,mRtXV4NP3ffAjrcvUQizGSja4cR2,mRtXV4NP3ffAjrcvUQizGSja4cR2,,,,,,,,,,,,,,,,,,,,,,59baf1a2178f1b0001828a26,09:09:24,27/02/2024
html-button-response,33,61315,0.0-14.0,2602.699999988079,"
  <div style=""display: flex; align-items: center; justify-content: center; height: 80vh;"">
  <div>
          <img src=""images/inst_demo_finish.png"" style=""width: 80vw; height:auto;"">
          <br><br>
      </div>
      <br><br>
  </div>",0,,,,mRtXV4NP3ffAjrcvUQizGSja4cR2,,,,,,,,,,,,,,,,,,,,,,,59baf1a2178f1b0001828a26,09:09:24,27/02/2024
html-keyboard-response,34,63176,0.0-15.0,1858.5,"
  <div style=""display: flex; align-items: center; justify-content: center; height: 80vh;"">
  <div>
          <img src=""images/inst_6.png"" style=""width: 80vw; height:auto;"">
          <br><br>
      </div>
      <br><br>
  </div>",j,,,,mRtXV4NP3ffAjrcvUQizGSja4cR2,,,,,,,,,,,,,,,,,,,,,,,59baf1a2178f1b0001828a26,09:09:24,27/02/2024
html-keyboard-response,35,66188,0.0-16.0,,"<div style=""font-size:100px;"">+</div>",,delaylearn,learning,pre_fixation,mRtXV4NP3ffAjrcvUQizGSja4cR2,,,,,,,,,,,,,,,,,,,,,,,59baf1a2178f1b0001828a26,09:09:24,27/02/2024
html-keyboard-response,36,68604,0.0-17.0,,"<div style=""font-size:100px;"">+</div>",,delaylearn,learning,ITI,mRtXV4NP3ffAjrcvUQizGSja4cR2,mRtXV4NP3ffAjrcvUQizGSja4cR2,,,,,,,,,,,,,,,,,,,2409.0,,,59baf1a2178f1b0001828a26,09:09:24,27/02/2024
html-keyboard-response,37,70554,0.0-18.0-0.0,1942.2000000476837,"<div style=""display: flex; flex-direction: column; align-items: center; margin-top: -40px;""><img src=""images/pattern_3.png"" style=""width: 234px; height: 230px; margin-top: -50px;""><div style=""display: flex; justify-content: space-between; margin-top: 33px;""><img src=""images/choice_trial_16.png"" style=""width: 408px; height: 417px; margin-right: 200px;""><img src=""images/choice_trial_2.png"" style=""width: 408px; height: 417px;""></div></div>",f,delaylearn,learning,trial,mRtXV4NP3ffAjrcvUQizGSja4cR2,mRtXV4NP3ffAjrcvUQizGSja4cR2,5.0,images/choice_trial_16.png,images/choice_trial_2.png,images/pattern_3.png,f,f,7000.0,16.0,2.0,2.0,0.0,7.0,1.0,1.0,16.0,50.0,,,,,,59baf1a2178f1b0001828a26,09:09:24,27/02/2024
html-keyboard-response,38,71564,0.0-18.0-1.0,,"<div style=""display: flex; flex-direction: column; align-items: center; margin-top: -40px;""><img src=""images/pattern_3.png"" style=""width: 234px; height: 230px; margin-top: -50px;""><div style=""display: flex; justify-content: space-between; margin-top: 33px;""><img src=""images/choice_trial_16.png"" style=""width: 408px; height: 417px; margin-right: 608px;""></div></div>",,delaylearn,learning,display_response,mRtXV4NP3ffAjrcvUQizGSja4cR2,mRtXV4NP3ffAjrcvUQizGSja4cR2,,,,,,,,,,,,,,,,,chosen stimuli: images/choice_trial_16.png,,,,,59baf1a2178f1b0001828a26,09:09:24,27/02/2024
html-keyboard-response,39,78571,0.0-18.0-2.0,,,,delaylearn,learning,feedback_duration_window,mRtXV4NP3ffAjrcvUQizGSja4cR2,mRtXV4NP3ffAjrcvUQizGSja4cR2,,,,,,,,,,,,,,,,,,7000.0,,,,59baf1a2178f1b0001828a26,09:09:24,27/02/2024
html-keyboard-response,40,80084,0.0-18.0-3.0,,<div style='margin:auto;width: auto; font-size: 150%'><span style='font-weight: bold; font-size: 100px; color: green;'>+10 points!</span><br><br></div>,,delaylearn,learning,feedback_image_window,mRtXV4NP3ffAjrcvUQizGSja4cR2,mRtXV4NP3ffAjrcvUQizGSja4cR2,,,,,,,,,,,,,,,,,,,,,,59baf1a2178f1b0001828a26,09:09:24,27/02/2024
html-keyboard-response,41,82283,0.0-19.0,,"<div style=""font-size:100px;"">+</div>",,delaylearn,learning,ITI,mRtXV4NP3ffAjrcvUQizGSja4cR2,mRtXV4NP3ffAjrcvUQizGSja4cR2,,,,,,,,,,,,,,,,,,,2190.0,,,59baf1a2178f1b0001828a26,09:09:24,27/02/2024
html-keyboard-response,42,84315,0.0-20.0-0.0,2027.0999999642372,"<div style=""display: flex; flex-direction: column; align-items: center; margin-top: -40px;""><img src=""images/pattern_7.png"" style=""width: 234px; height: 230px; margin-top: -50px;""><div style=""display: flex; justify-content: space-between; margin-top: 33px;""><img src=""images/choice_trial_10.png"" style=""width: 408px; height: 417px; margin-right: 200px;""><img src=""images/choice_trial_8.png"" style=""width: 408px; height: 417px;""></div></div>",j,delaylearn,learning,trial,mRtXV4NP3ffAjrcvUQizGSja4cR2,mRtXV4NP3ffAjrcvUQizGSja4cR2,5.0,images/choice_trial_10.png,images/choice_trial_8.png,images/pattern_7.png,j,j,750.0,10.0,8.0,6.0,1.0,8.0,1.0,1.0,8.0,60.0,,,,,,59baf1a2178f1b0001828a26,09:09:24,27/02/2024
html-keyboard-response,43,85324,0.0-20.0-1.0,,"<div style=""display: flex; flex-direction: column; align-items: center; margin-top: -40px;""><img src=""images/pattern_7.png"" style=""width: 234px; height: 230px; margin-top: -50px;""><div style=""display: flex; justify-content: space-between; margin-top: 33px;""><img src=""images/choice_trial_8.png"" style=""width: 408px; height: 417px; margin-left:608px;""></div></div>",,delaylearn,learning,display_response,mRtXV4NP3ffAjrcvUQizGSja4cR2,mRtXV4NP3ffAjrcvUQizGSja4cR2,,,,,,,,,,,,,,,,,chosen stimuli: images/choice_trial_8.png,,,,,59baf1a2178f1b0001828a26,09:09:24,27/02/2024
html-keyboard-response,44,86084,0.0-20.0-2.0,,,,delaylearn,learning,feedback_duration_window,mRtXV4NP3ffAjrcvUQizGSja4cR2,mRtXV4NP3ffAjrcvUQizGSja4cR2,,,,,,,,,,,,,,,,,,750.0,,,,59baf1a2178f1b0001828a26,09:09:24,27/02/2024
html-keyboard-response,45,87588,0.0-20.0-3.0,,<div style='margin:auto;width: auto; font-size: 150%'><span style='font-weight: bold; font-size: 100px; color: green;'>+10 points!</span><br><br></div>,,delaylearn,learning,feedback_image_window,mRtXV4NP3ffAjrcvUQizGSja4cR2,mRtXV4NP3ffAjrcvUQizGSja4cR2,,,,,,,,,,,,,,,,,,,,,,59baf1a2178f1b0001828a26,09:09:24,27/02/2024
html-keyboard-response,46,89741,0.0-21.0,,"<div style=""font-size:100px;"">+</div>",,delaylearn,learning,ITI,mRtXV4NP3ffAjrcvUQizGSja4cR2,mRtXV4NP3ffAjrcvUQizGSja4cR2,,,,,,,,,,,,,,,,,,,2143.0,,,59baf1a2178f1b0001828a26,09:09:24,27/02/2024
html-keyboard-response,47,91298,0.0-22.0-0.0,1551.0999999642372,"<div style=""display: flex; flex-direction: column; align-items: center; margin-top: -40px;""><img src=""images/pattern_4.png"" style=""width: 234px; height: 230px; margin-top: -50px;""><div style=""display: flex; justify-content: space-between; margin-top: 33px;""><img src=""images/choice_trial_11.png"" style=""width: 408px; height: 417px; margin-right: 200px;""><img src=""images/choice_trial_4.png"" style=""width: 408px; height: 417px;""></div></div>",f,delaylearn,learning,trial,mRtXV4NP3ffAjrcvUQizGSja4cR2,mRtXV4NP3ffAjrcvUQizGSja4cR2,5.0,images/choice_trial_11.png,images/choice_trial_4.png,images/pattern_4.png,f,f,7000.0,11.0,4.0,3.0,0.0,9.0,1.0,1.0,11.0,70.0,,,,,,59baf1a2178f1b0001828a26,09:09:24,27/02/2024
html-keyboard-response,48,92308,0.0-22.0-1.0,,"<div style=""display: flex; flex-direction: column; align-items: center; margin-top: -40px;""><img src=""images/pattern_4.png"" style=""width: 234px; height: 230px; margin-top: -50px;""><div style=""display: flex; justify-content: space-between; margin-top: 33px;""><img src=""images/choice_trial_11.png"" style=""width: 408px; height: 417px; margin-right: 608px;""></div></div>",,delaylearn,learning,display_response,mRtXV4NP3ffAjrcvUQizGSja4cR2,mRtXV4NP3ffAjrcvUQizGSja4cR2,,,,,,,,,,,,,,,,,chosen stimuli: images/choice_trial_11.png,,,,,59baf1a2178f1b0001828a26,09:09:24,27/02/2024
html-keyboard-response,49,99317,0.0-22.0-2.0,,,,delaylearn,learning,feedback_duration_window,mRtXV4NP3ffAjrcvUQizGSja4cR2,mRtXV4NP3ffAjrcvUQizGSja4cR2,,,,,,,,,,,,,,,,,,7000.0,,,,59baf1a2178f1b0001828a26,09:09:24,27/02/2024
html-keyboard-response,50,100829,0.0-22.0-3.0,,<div style='margin:auto;width: auto; font-size: 150%'><span style='font-weight: bold; font-size: 100px; color: green;'>+10 points!</span><br><br></div>,,delaylearn,learning,feedback_image_window,mRtXV4NP3ffAjrcvUQizGSja4cR2,mRtXV4NP3ffAjrcvUQizGSja4cR2,,,,,,,,,,,,,,,,,,,,,,59baf1a2178f1b0001828a26,09:09:24,27/02/2024
html-keyboard-response,51,103101,0.0-23.0,,"<div style=""font-size:100px;"">+</div>",,delaylearn,learning,ITI,mRtXV4NP3ffAjrcvUQizGSja4cR2,mRtXV4NP3ffAjrcvUQizGSja4cR2,,,,,,,,,,,,,,,,,,,2262.0,,,59baf1a2178f1b0001828a26,09:09:24,27/02/2024
html-keyboard-response,52,104613,0.0-24.0-0.0,1504.9000000357628,"<div style=""display: flex; flex-direction: column; align-items: center; margin-top: -40px;""><img src=""images/pattern_5.png"" style=""width: 234px; height: 230px; margin-top: -50px;""><div style=""display: flex; justify-content: space-between; margin-top: 33px;""><img src=""images/choice_trial_13.png"" style=""width: 408px; height: 417px; margin-right: 200px;""><img src=""images/choice_trial_7.png"" style=""width: 408px; height: 417px;""></div></div>",j,delaylearn,learning,trial,mRtXV4NP3ffAjrcvUQizGSja4cR2,mRtXV4NP3ffAjrcvUQizGSja4cR2,5.0,images/choice_trial_13.png,images/choice_trial_7.png,images/pattern_5.png,j,j,750.0,13.0,7.0,4.0,1.0,10.0,1.0,1.0,7.0,80.0,,,,,,59baf1a2178f1b0001828a26,09:09:24,27/02/2024
html-keyboard-response,53,105620,0.0-24.0-1.0,,"<div style=""display: flex; flex-direction: column; align-items: center; margin-top: -40px;""><img src=""images/pattern_5.png"" style=""width: 234px; height: 230px; margin-top: -50px;""><div style=""display: flex; justify-content: space-between; margin-top: 33px;""><img src=""images/choice_trial_7.png"" style=""width: 408px; height: 417px; margin-left:608px;""></div></div>",,delaylearn,learning,display_response,mRtXV4NP3ffAjrcvUQizGSja4cR2,mRtXV4NP3ffAjrcvUQizGSja4cR2,,,,,,,,,,,,,,,,,chosen stimuli: images/choice_trial_7.png,,,,,59baf1a2178f1b0001828a26,09:09:24,27/02/2024
html-keyboard-response,54,106381,0.0-24.0-2.0,,,,delaylearn,learning,feedback_duration_window,mRtXV4NP3ffAjrcvUQizGSja4cR2,mRtXV4NP3ffAjrcvUQizGSja4cR2,,,,,,,,,,,,,,,,,,750.0,,,,59baf1a2178f1b0001828a26,09:09:24,27/02/2024
html-keyboard-response,55,107893,0.0-24.0-3.0,,<div style='margin:auto;width: auto; font-size: 150%'><span style='font-weight: bold; font-size: 100px; color: green;'>+10 points!</span><br><br></div>,,delaylearn,learning,feedback_image_window,mRtXV4NP3ffAjrcvUQizGSja4cR2,mRtXV4NP3ffAjrcvUQizGSja4cR2,,,,,,,,,,,,,,,,,,,,,,59baf1a2178f1b0001828a26,09:09:24,27/02/2024
html-keyboard-response,56,109806,0.0-25.0,,"<div style=""font-size:100px;"">+</div>",,delaylearn,learning,ITI,mRtXV4NP3ffAjrcvUQizGSja4cR2,mRtXV4NP3ffAjrcvUQizGSja4cR2,,,,,,,,,,,,,,,,,,,1900.0,,,59baf1a2178f1b0001828a26,09:09:24,27/02/2024
html-keyboard-response,57,112249,0.0-26.0-0.0,2437.0,"<div style=""display: flex; flex-direction: column; align-items: center; margin-top: -40px;""><img src=""images/pattern_6.png"" style=""width: 234px; height: 230px; margin-top: -50px;""><div style=""display: flex; justify-content: space-between; margin-top: 33px;""><img src=""images/choice_trial_14.png"" style=""width: 408px; height: 417px; margin-right: 200px;""><img src=""images/choice_trial_9.png"" style=""width: 408px; height: 417px;""></div></div>",j,delaylearn,learning,trial,mRtXV4NP3ffAjrcvUQizGSja4cR2,mRtXV4NP3ffAjrcvUQizGSja4cR2,5.0,images/choice_trial_14.png,images/choice_trial_9.png,images/pattern_6.png,j,f,750.0,14.0,9.0,5.0,0.0,11.0,0.0,1.0,9.0,90.0,,,,,,59baf1a2178f1b0001828a26,09:09:24,27/02/2024
html-keyboard-response,58,113260,0.0-26.0-1.0,,"<div style=""display: flex; flex-direction: column; align-items: center; margin-top: -40px;""><img src=""images/pattern_6.png"" style=""width: 234px; height: 230px; margin-top: -50px;""><div style=""display: flex; justify-content: space-between; margin-top: 33px;""><img src=""images/choice_trial_9.png"" style=""width: 408px; height: 417px; margin-left:608px;""></div></div>",,delaylearn,learning,display_response,mRtXV4NP3ffAjrcvUQizGSja4cR2,mRtXV4NP3ffAjrcvUQizGSja4cR2,,,,,,,,,,,,,,,,,chosen stimuli: images/choice_trial_9.png,,,,,59baf1a2178f1b0001828a26,09:09:24,27/02/2024
html-keyboard-response,59,114020,0.0-26.0-2.0,,,,delaylearn,learning,feedback_duration_window,mRtXV4NP3ffAjrcvUQizGSja4cR2,mRtXV4NP3ffAjrcvUQizGSja4cR2,,,,,,,,,,,,,,,,,,750.0,,,,59baf1a2178f1b0001828a26,09:09:24,27/02/2024
html-keyboard-response,60,115534,0.0-26.0-3.0,,<div style='margin:auto;width: auto; font-size: 150%'><span style='font-weight: bold; font-size: 100px; color: green;'>+10 points!</span><br><br></div>,,delaylearn,learning,feedback_image_window,mRtXV4NP3ffAjrcvUQizGSja4cR2,mRtXV4NP3ffAjrcvUQizGSja4cR2,,,,,,,,,,,,,,,,,,,,,,59baf1a2178f1b0001828a26,09:09:24,27/02/2024
html-keyboard-response,61,116046,0.0-27.0-0.0,,,,,,mood_trial_fixation,mRtXV4NP3ffAjrcvUQizGSja4cR2,,,,,,,,,,,,,,,,,,,,,,,59baf1a2178f1b0001828a26,09:09:24,27/02/2024
lmdlab-html-vas-response,62,120637,0.0-27.0-1.0,3577.0,How happy are you right now?,0.7734563087043504,delaylearn,learning,mood_trial,mRtXV4NP3ffAjrcvUQizGSja4cR2,mRtXV4NP3ffAjrcvUQizGSja4cR2,,,,,,,,,,,,,,,,,,,,"['Very unhappy', 'Very happy']",,59baf1a2178f1b0001828a26,09:09:24,27/02/2024
html-keyboard-response,63,122653,0.0-28.0,,"<div style=""font-size:100px;"">+</div>",,delaylearn,learning,ITI,mRtXV4NP3ffAjrcvUQizGSja4cR2,mRtXV4NP3ffAjrcvUQizGSja4cR2,,,,,,,,,,,,,,,,,,,2011.0,,,59baf1a2178f1b0001828a26,09:09:24,27/02/2024
html-keyboard-response,64,123981,0.0-29.0-0.0,1322.0999999642372,"<div style=""display: flex; flex-direction: column; align-items: center; margin-top: -40px;""><img src=""images/pattern_1.png"" style=""width: 234px; height: 230px; margin-top: -50px;""><div style=""display: flex; justify-content: space-between; margin-top: 33px;""><img src=""images/choice_trial_15.png"" style=""width: 408px; height: 417px; margin-right: 200px;""><img src=""images/choice_trial_6.png"" style=""width: 408px; height: 417px;""></div></div>",f,delaylearn,learning,trial,mRtXV4NP3ffAjrcvUQizGSja4cR2,mRtXV4NP3ffAjrcvUQizGSja4cR2,5.0,images/choice_trial_15.png,images/choice_trial_6.png,images/pattern_1.png,j,j,7000.0,15.0,6.0,1.0,1.0,12.0,0.0,0.0,15.0,90.0,,,,,,59baf1a2178f1b0001828a26,09:09:24,27/02/2024
html-keyboard-response,65,124989,0.0-29.0-1.0,,"<div style=""display: flex; flex-direction: column; align-items: center; margin-top: -40px;""><img src=""images/pattern_1.png"" style=""width: 234px; height: 230px; margin-top: -50px;""><div style=""display: flex; justify-content: space-between; margin-top: 33px;""><img src=""images/choice_trial_15.png"" style=""width: 408px; height: 417px; margin-right: 608px;""></div></div>",,delaylearn,learning,display_response,mRtXV4NP3ffAjrcvUQizGSja4cR2,mRtXV4NP3ffAjrcvUQizGSja4cR2,,,,,,,,,,,,,,,,,chosen stimuli: images/choice_trial_15.png,,,,,59baf1a2178f1b0001828a26,09:09:24,27/02/2024
html-keyboard-response,66,131996,0.0-29.0-2.0,,,,delaylearn,learning,feedback_duration_window,mRtXV4NP3ffAjrcvUQizGSja4cR2,mRtXV4NP3ffAjrcvUQizGSja4cR2,,,,,,,,,,,,,,,,,,7000.0,,,,59baf1a2178f1b0001828a26,09:09:24,27/02/2024
html-keyboard-response,67,133500,0.0-29.0-3.0,,<div style='margin:auto;width: auto; font-size: 150%'><span style='font-weight: bold; font-size: 100px; color: red;'>0 points!</span><br><br></div>,,delaylearn,learning,feedback_image_window,mRtXV4NP3ffAjrcvUQizGSja4cR2,mRtXV4NP3ffAjrcvUQizGSja4cR2,,,,,,,,,,,,,,,,,,,,,,59baf1a2178f1b0001828a26,09:09:24,27/02/2024
html-keyboard-response,68,135413,0.0-30.0,,"<div style=""font-size:100px;"">+</div>",,delaylearn,learning,ITI,mRtXV4NP3ffAjrcvUQizGSja4cR2,mRtXV4NP3ffAjrcvUQizGSja4cR2,,,,,,,,,,,,,,,,,,,1906.0,,,59baf1a2178f1b0001828a26,09:09:24,27/02/2024
html-keyboard-response,69,137578,0.0-31.0-0.0,2156.899999976158,"<div style=""display: flex; flex-direction: column; align-items: center; margin-top: -40px;""><img src=""images/pattern_3.png"" style=""width: 234px; height: 230px; margin-top: -50px;""><div style=""display: flex; justify-content: space-between; margin-top: 33px;""><img src=""images/choice_trial_2.png"" style=""width: 408px; height: 417px; margin-right: 200px;""><img src=""images/choice_trial_16.png"" style=""width: 408px; height: 417px;""></div></div>",f,delaylearn,learning,trial,mRtXV4NP3ffAjrcvUQizGSja4cR2,mRtXV4NP3ffAjrcvUQizGSja4cR2,5.0,images/choice_trial_2.png,images/choice_trial_16.png,images/pattern_3.png,f,j,7000.0,2.0,16.0,2.0,1.0,13.0,0.0,1.0,2.0,100.0,,,,,,59baf1a2178f1b0001828a26,09:09:24,27/02/2024
html-keyboard-response,70,138589,0.0-31.0-1.0,,"<div style=""display: flex; flex-direction: column; align-items: center; margin-top: -40px;""><img src=""images/pattern_3.png"" style=""width: 234px; height: 230px; margin-top: -50px;""><div style=""display: flex; justify-content: space-between; margin-top: 33px;""><img src=""images/choice_trial_2.png"" style=""width: 408px; height: 417px; margin-right: 608px;""></div></div>",,delaylearn,learning,display_response,mRtXV4NP3ffAjrcvUQizGSja4cR2,mRtXV4NP3ffAjrcvUQizGSja4cR2,,,,,,,,,,,,,,,,,chosen stimuli: images/choice_trial_2.png,,,,,59baf1a2178f1b0001828a26,09:09:24,27/02/2024
html-keyboard-response,71,145597,0.0-31.0-2.0,,,,delaylearn,learning,feedback_duration_window,mRtXV4NP3ffAjrcvUQizGSja4cR2,mRtXV4NP3ffAjrcvUQizGSja4cR2,,,,,,,,,,,,,,,,,,7000.0,,,,59baf1a2178f1b0001828a26,09:09:24,27/02/2024
html-keyboard-response,72,147108,0.0-31.0-3.0,,<div style='margin:auto;width: auto; font-size: 150%'><span style='font-weight: bold; font-size: 100px; color: green;'>+10 points!</span><br><br></div>,,delaylearn,learning,feedback_image_window,mRtXV4NP3ffAjrcvUQizGSja4cR2,mRtXV4NP3ffAjrcvUQizGSja4cR2,,,,,,,,,,,,,,,,,,,,,,59baf1a2178f1b0001828a26,09:09:24,27/02/2024
html-keyboard-response,73,148725,0.0-32.0,,"<div style=""font-size:100px;"">+</div>",,delaylearn,learning,ITI,mRtXV4NP3ffAjrcvUQizGSja4cR2,mRtXV4NP3ffAjrcvUQizGSja4cR2,,,,,,,,,,,,,,,,,,,1605.0,,,59baf1a2178f1b0001828a26,09:09:24,27/02/2024
html-keyboard-response,74,149974,0.0-33.0-0.0,1241.5,"<div style=""display: flex; flex-direction: column; align-items: center; margin-top: -40px;""><img src=""images/pattern_5.png"" style=""width: 234px; height: 230px; margin-top: -50px;""><div style=""display: flex; justify-content: space-between; margin-top: 33px;""><img src=""images/choice_trial_7.png"" style=""width: 408px; height: 417px; margin-right: 200px;""><img src=""images/choice_trial_13.png"" style=""width: 408px; height: 417px;""></div></div>",f,delaylearn,learning,trial,mRtXV4NP3ffAjrcvUQizGSja4cR2,mRtXV4NP3ffAjrcvUQizGSja4cR2,5.0,images/choice_trial_7.png,images/choice_trial_13.png,images/pattern_5.png,f,f,750.0,7.0,13.0,4.0,0.0,14.0,1.0,1.0,7.0,110.0,,,,,,59baf1a2178f1b0001828a26,09:09:24,27/02/2024
html-keyboard-response,75,150980,0.0-33.0-1.0,,"<div style=""display: flex; flex-direction: column; align-items: center; margin-top: -40px;""><img src=""images/pattern_5.png"" style=""width: 234px; height: 230px; margin-top: -50px;""><div style=""display: flex; justify-content: space-between; margin-top: 33px;""><img src=""images/choice_trial_7.png"" style=""width: 408px; height: 417px; margin-right: 608px;""></div></div>",,delaylearn,learning,display_response,mRtXV4NP3ffAjrcvUQizGSja4cR2,mRtXV4NP3ffAjrcvUQizGSja4cR2,,,,,,,,,,,,,,,,,chosen stimuli: images/choice_trial_7.png,,,,,59baf1a2178f1b0001828a26,09:09:24,27/02/2024
html-keyboard-response,76,151741,0.0-33.0-2.0,,,,delaylearn,learning,feedback_duration_window,mRtXV4NP3ffAjrcvUQizGSja4cR2,mRtXV4NP3ffAjrcvUQizGSja4cR2,,,,,,,,,,,,,,,,,,750.0,,,,59baf1a2178f1b0001828a26,09:09:24,27/02/2024
html-keyboard-response,77,153253,0.0-33.0-3.0,,<div style='margin:auto;width: auto; font-size: 150%'><span style='font-weight: bold; font-size: 100px; color: green;'>+10 points!</span><br><br></div>,,delaylearn,learning,feedback_image_window,mRtXV4NP3ffAjrcvUQizGSja4cR2,mRtXV4NP3ffAjrcvUQizGSja4cR2,,,,,,,,,,,,,,,,,,,,,,59baf1a2178f1b0001828a26,09:09:24,27/02/2024
html-keyboard-response,78,153765,0.0-34.0-0.0,,,,,,mood_trial_fixation,mRtXV4NP3ffAjrcvUQizGSja4cR2,,,,,,,,,,,,,,,,,,,,,,,59baf1a2178f1b0001828a26,09:09:24,27/02/2024
lmdlab-html-vas-response,79,157709,0.0-34.0-1.0,2930.0,How happy are you right now?,0.7691160014919806,delaylearn,learning,mood_trial,mRtXV4NP3ffAjrcvUQizGSja4cR2,mRtXV4NP3ffAjrcvUQizGSja4cR2,,,,,,,,,,,,,,,,,,,,"['Very unhappy', 'Very happy']",,59baf1a2178f1b0001828a26,09:09:24,27/02/2024
html-keyboard-response,80,159748,0.0-35.0,,"<div style=""font-size:100px;"">+</div>",,delaylearn,learning,ITI,mRtXV4NP3ffAjrcvUQizGSja4cR2,mRtXV4NP3ffAjrcvUQizGSja4cR2,,,,,,,,,,,,,,,,,,,2031.0,,,59baf1a2178f1b0001828a26,09:09:24,27/02/2024
html-keyboard-response,81,162048,0.0-36.0-0.0,2292.2000000476837,"<div style=""display: flex; flex-direction: column; align-items: center; margin-top: -40px;""><img src=""images/pattern_6.png"" style=""width: 234px; height: 230px; margin-top: -50px;""><div style=""display: flex; justify-content: space-between; margin-top: 33px;""><img src=""images/choice_trial_14.png"" style=""width: 408px; height: 417px; margin-right: 200px;""><img src=""images/choice_trial_9.png"" style=""width: 408px; height: 417px;""></div></div>",j,delaylearn,learning,trial,mRtXV4NP3ffAjrcvUQizGSja4cR2,mRtXV4NP3ffAjrcvUQizGSja4cR2,5.0,images/choice_trial_14.png,images/choice_trial_9.png,images/pattern_6.png,f,f,750.0,14.0,9.0,5.0,0.0,15.0,0.0,0.0,9.0,110.0,,,,,,59baf1a2178f1b0001828a26,09:09:24,27/02/2024
html-keyboard-response,82,163053,0.0-36.0-1.0,,"<div style=""display: flex; flex-direction: column; align-items: center; margin-top: -40px;""><img src=""images/pattern_6.png"" style=""width: 234px; height: 230px; margin-top: -50px;""><div style=""display: flex; justify-content: space-between; margin-top: 33px;""><img src=""images/choice_trial_9.png"" style=""width: 408px; height: 417px; margin-left:608px;""></div></div>",,delaylearn,learning,display_response,mRtXV4NP3ffAjrcvUQizGSja4cR2,mRtXV4NP3ffAjrcvUQizGSja4cR2,,,,,,,,,,,,,,,,,chosen stimuli: images/choice_trial_9.png,,,,,59baf1a2178f1b0001828a26,09:09:24,27/02/2024
html-keyboard-response,83,163811,0.0-36.0-2.0,,,,delaylearn,learning,feedback_duration_window,mRtXV4NP3ffAjrcvUQizGSja4cR2,mRtXV4NP3ffAjrcvUQizGSja4cR2,,,,,,,,,,,,,,,,,,750.0,,,,59baf1a2178f1b0001828a26,09:09:24,27/02/2024
html-keyboard-response,84,165316,0.0-36.0-3.0,,<div style='margin:auto;width: auto; font-size: 150%'><span style='font-weight: bold; font-size: 100px; color: red;'>0 points!</span><br><br></div>,,delaylearn,learning,feedback_image_window,mRtXV4NP3ffAjrcvUQizGSja4cR2,mRtXV4NP3ffAjrcvUQizGSja4cR2,,,,,,,,,,,,,,,,,,,,,,59baf1a2178f1b0001828a26,09:09:24,27/02/2024
html-keyboard-response,85,167228,0.0-37.0,,"<div style=""font-size:100px;"">+</div>",,delaylearn,learning,ITI,mRtXV4NP3ffAjrcvUQizGSja4cR2,mRtXV4NP3ffAjrcvUQizGSja4cR2,,,,,,,,,,,,,,,,,,,1907.0,,,59baf1a2178f1b0001828a26,09:09:24,27/02/2024
html-keyboard-response,86,168505,0.0-38.0-0.0,1271.1000000238419,"<div style=""display: flex; flex-direction: column; align-items: center; margin-top: -40px;""><img src=""images/pattern_4.png"" style=""width: 234px; height: 230px; margin-top: -50px;""><div style=""display: flex; justify-content: space-between; margin-top: 33px;""><img src=""images/choice_trial_4.png"" style=""width: 408px; height: 417px; margin-right: 200px;""><img src=""images/choice_trial_11.png"" style=""width: 408px; height: 417px;""></div></div>",j,delaylearn,learning,trial,mRtXV4NP3ffAjrcvUQizGSja4cR2,mRtXV4NP3ffAjrcvUQizGSja4cR2,5.0,images/choice_trial_4.png,images/choice_trial_11.png,images/pattern_4.png,j,j,7000.0,4.0,11.0,3.0,1.0,16.0,1.0,1.0,11.0,120.0,,,,,,59baf1a2178f1b0001828a26,09:09:24,27/02/2024
html-keyboard-response,87,169515,0.0-38.0-1.0,,"<div style=""display: flex; flex-direction: column; align-items: center; margin-top: -40px;""><img src=""images/pattern_4.png"" style=""width: 234px; height: 230px; margin-top: -50px;""><div style=""display: flex; justify-content: space-between; margin-top: 33px;""><img src=""images/choice_trial_11.png"" style=""width: 408px; height: 417px; margin-left:608px;""></div></div>",,delaylearn,learning,display_response,mRtXV4NP3ffAjrcvUQizGSja4cR2,mRtXV4NP3ffAjrcvUQizGSja4cR2,,,,,,,,,,,,,,,,,chosen stimuli: images/choice_trial_11.png,,,,,59baf1a2178f1b0001828a26,09:09:24,27/02/2024
html-keyboard-response,88,176524,0.0-38.0-2.0,,,,delaylearn,learning,feedback_duration_window,mRtXV4NP3ffAjrcvUQizGSja4cR2,mRtXV4NP3ffAjrcvUQizGSja4cR2,,,,,,,,,,,,,,,,,,7000.0,,,,59baf1a2178f1b0001828a26,09:09:24,27/02/2024
html-keyboard-response,89,178037,0.0-38.0-3.0,,<div style='margin:auto;width: auto; font-size: 150%'><span style='font-weight: bold; font-size: 100px; color: green;'>+10 points!</span><br><br></div>,,delaylearn,learning,feedback_image_window,mRtXV4NP3ffAjrcvUQizGSja4cR2,mRtXV4NP3ffAjrcvUQizGSja4cR2,,,,,,,,,,,,,,,,,,,,,,59baf1a2178f1b0001828a26,09:09:24,27/02/2024
html-keyboard-response,90,180284,0.0-39.0,,"<div style=""font-size:100px;"">+</div>",,delaylearn,learning,ITI,mRtXV4NP3ffAjrcvUQizGSja4cR2,mRtXV4NP3ffAjrcvUQizGSja4cR2,,,,,,,,,,,,,,,,,,,2243.0,,,59baf1a2178f1b0001828a26,09:09:24,27/02/2024
html-keyboard-response,91,182213,0.0-40.0-0.0,1922.5,"<div style=""display: flex; flex-direction: column; align-items: center; margin-top: -40px;""><img src=""images/pattern_7.png"" style=""width: 234px; height: 230px; margin-top: -50px;""><div style=""display: flex; justify-content: space-between; margin-top: 33px;""><img src=""images/choice_trial_8.png"" style=""width: 408px; height: 417px; margin-right: 200px;""><img src=""images/choice_trial_10.png"" style=""width: 408px; height: 417px;""></div></div>",f,delaylearn,learning,trial,mRtXV4NP3ffAjrcvUQizGSja4cR2,mRtXV4NP3ffAjrcvUQizGSja4cR2,5.0,images/choice_trial_8.png,images/choice_trial_10.png,images/pattern_7.png,j,f,750.0,8.0,10.0,6.0,0.0,17.0,1.0,0.0,8.0,120.0,,,,,,59baf1a2178f1b0001828a26,09:09:24,27/02/2024
html-keyboard-response,92,183220,0.0-40.0-1.0,,"<div style=""display: flex; flex-direction: column; align-items: center; margin-top: -40px;""><img src=""images/pattern_7.png"" style=""width: 234px; height: 230px; margin-top: -50px;""><div style=""display: flex; justify-content: space-between; margin-top: 33px;""><img src=""images/choice_trial_8.png"" style=""width: 408px; height: 417px; margin-right: 608px;""></div></div>",,delaylearn,learning,display_response,mRtXV4NP3ffAjrcvUQizGSja4cR2,mRtXV4NP3ffAjrcvUQizGSja4cR2,,,,,,,,,,,,,,,,,chosen stimuli: images/choice_trial_8.png,,,,,59baf1a2178f1b0001828a26,09:09:24,27/02/2024
html-keyboard-response,93,183979,0.0-40.0-2.0,,,,delaylearn,learning,feedback_duration_window,mRtXV4NP3ffAjrcvUQizGSja4cR2,mRtXV4NP3ffAjrcvUQizGSja4cR2,,,,,,,,,,,,,,,,,,750.0,,,,59baf1a2178f1b0001828a26,09:09:24,27/02/2024
html-keyboard-response,94,185485,0.0-40.0-3.0,,<div style='margin:auto;width: auto; font-size: 150%'><span style='font-weight: bold; font-size: 100px; color: red;'>0 points!</span><br><br></div>,,delaylearn,learning,feedback_image_window,mRtXV4NP3ffAjrcvUQizGSja4cR2,mRtXV4NP3ffAjrcvUQizGSja4cR2,,,,,,,,,,,,,,,,,,,,,,59baf1a2178f1b0001828a26,09:09:24,27/02/2024
html-keyboard-response,95,187891,0.0-41.0,,"<div style=""font-size:100px;"">+</div>",,delaylearn,learning,ITI,mRtXV4NP3ffAjrcvUQizGSja4cR2,mRtXV4NP3ffAjrcvUQizGSja4cR2,,,,,,,,,,,,,,,,,,,2397.0,,,59baf1a2178f1b0001828a26,09:09:24,27/02/2024
html-keyboard-response,96,189899,0.0-42.0-0.0,2001.4000000357628,"<div style=""display: flex; flex-direction: column; align-items: center; margin-top: -40px;""><img src=""images/pattern_1.png"" style=""width: 234px; height: 230px; margin-top: -50px;""><div style=""display: flex; justify-content: space-between; margin-top: 33px;""><img src=""images/choice_trial_6.png"" style=""width: 408px; height: 417px; margin-right: 200px;""><img src=""images/choice_trial_15.png"" style=""width: 408px; height: 417px;""></div></div>",j,delaylearn,learning,trial,mRtXV4NP3ffAjrcvUQizGSja4cR2,mRtXV4NP3ffAjrcvUQizGSja4cR2,5.0,images/choice_trial_6.png,images/choice_trial_15.png,images/pattern_1.png,f,f,7000.0,6.0,15.0,1.0,0.0,18.0,0.0,0.0,15.0,120.0,,,,,,59baf1a2178f1b0001828a26,09:09:24,27/02/2024
html-keyboard-response,97,190908,0.0-42.0-1.0,,"<div style=""display: flex; flex-direction: column; align-items: center; margin-top: -40px;""><img src=""images/pattern_1.png"" style=""width: 234px; height: 230px; margin-top: -50px;""><div style=""display: flex; justify-content: space-between; margin-top: 33px;""><img src=""images/choice_trial_15.png"" style=""width: 408px; height: 417px; margin-left:608px;""></div></div>",,delaylearn,learning,display_response,mRtXV4NP3ffAjrcvUQizGSja4cR2,mRtXV4NP3ffAjrcvUQizGSja4cR2,,,,,,,,,,,,,,,,,chosen stimuli: images/choice_trial_15.png,,,,,59baf1a2178f1b0001828a26,09:09:24,27/02/2024
html-keyboard-response,98,197917,0.0-42.0-2.0,,,,delaylearn,learning,feedback_duration_window,mRtXV4NP3ffAjrcvUQizGSja4cR2,mRtXV4NP3ffAjrcvUQizGSja4cR2,,,,,,,,,,,,,,,,,,7000.0,,,,59baf1a2178f1b0001828a26,09:09:24,27/02/2024
html-keyboard-response,99,199427,0.0-42.0-3.0,,<div style='margin:auto;width: auto; font-size: 150%'><span style='font-weight: bold; font-size: 100px; color: red;'>0 points!</span><br><br></div>,,delaylearn,learning,feedback_image_window,mRtXV4NP3ffAjrcvUQizGSja4cR2,mRtXV4NP3ffAjrcvUQizGSja4cR2,,,,,,,,,,,,,,,,,,,,,,59baf1a2178f1b0001828a26,09:09:24,27/02/2024
html-keyboard-response,100,201909,0.0-43.0,,"<div style=""font-size:100px;"">+</div>",,delaylearn,learning,ITI,mRtXV4NP3ffAjrcvUQizGSja4cR2,mRtXV4NP3ffAjrcvUQizGSja4cR2,,,,,,,,,,,,,,,,,,,2476.0,,,59baf1a2178f1b0001828a26,09:09:24,27/02/2024
html-keyboard-response,101,203248,0.0-44.0-0.0,1331.5,"<div style=""display: flex; flex-direction: column; align-items: center; margin-top: -40px;""><img src=""images/pattern_6.png"" style=""width: 234px; height: 230px; margin-top: -50px;""><div style=""display: flex; justify-content: space-between; margin-top: 33px;""><img src=""images/choice_trial_9.png"" style=""width: 408px; height: 417px; margin-right: 200px;""><img src=""images/choice_trial_14.png"" style=""width: 408px; height: 417px;""></div></div>",j,delaylearn,learning,trial,mRtXV4NP3ffAjrcvUQizGSja4cR2,mRtXV4NP3ffAjrcvUQizGSja4cR2,5.0,images/choice_trial_9.png,images/choice_trial_14.png,images/pattern_6.png,j,j,750.0,9.0,14.0,5.0,1.0,19.0,1.0,1.0,14.0,130.0,,,,,,59baf1a2178f1b0001828a26,09:09:24,27/02/2024
html-keyboard-response,102,204260,0.0-44.0-1.0,,"<div style=""display: flex; flex-direction: column; align-items: center; margin-top: -40px;""><img src=""images/pattern_6.png"" style=""width: 234px; height: 230px; margin-top: -50px;""><div style=""display: flex; justify-content: space-between; margin-top: 33px;""><img src=""images/choice_trial_14.png"" style=""width: 408px; height: 417px; margin-left:608px;""></div></div>",,delaylearn,learning,display_response,mRtXV4NP3ffAjrcvUQizGSja4cR2,mRtXV4NP3ffAjrcvUQizGSja4cR2,,,,,,,,,,,,,,,,,chosen stimuli: images/choice_trial_14.png,,,,,59baf1a2178f1b0001828a26,09:09:24,27/02/2024
html-keyboard-response,103,205020,0.0-44.0-2.0,,,,delaylearn,learning,feedback_duration_window,mRtXV4NP3ffAjrcvUQizGSja4cR2,mRtXV4NP3ffAjrcvUQizGSja4cR2,,,,,,,,,,,,,,,,,,750.0,,,,59baf1a2178f1b0001828a26,09:09:24,27/02/2024
html-keyboard-response,104,206532,0.0-44.0-3.0,,<div style='margin:auto;width: auto; font-size: 150%'><span style='font-weight: bold; font-size: 100px; color: green;'>+10 points!</span><br><br></div>,,delaylearn,learning,feedback_image_window,mRtXV4NP3ffAjrcvUQizGSja4cR2,mRtXV4NP3ffAjrcvUQizGSja4cR2,,,,,,,,,,,,,,,,,,,,,,59baf1a2178f1b0001828a26,09:09:24,27/02/2024
html-keyboard-response,105,208788,0.0-45.0,,"<div style=""font-size:100px;"">+</div>",,delaylearn,learning,ITI,mRtXV4NP3ffAjrcvUQizGSja4cR2,mRtXV4NP3ffAjrcvUQizGSja4cR2,,,,,,,,,,,,,,,,,,,2246.0,,,59baf1a2178f1b0001828a26,09:09:24,27/02/2024
html-keyboard-response,106,209790,0.0-46.0-0.0,991.5999999642372,"<div style=""display: flex; flex-direction: column; align-items: center; margin-top: -40px;""><img src=""images/pattern_4.png"" style=""width: 234px; height: 230px; margin-top: -50px;""><div style=""display: flex; justify-content: space-between; margin-top: 33px;""><img src=""images/choice_trial_11.png"" style=""width: 408px; height: 417px; margin-right: 200px;""><img src=""images/choice_trial_4.png"" style=""width: 408px; height: 417px;""></div></div>",f,delaylearn,learning,trial,mRtXV4NP3ffAjrcvUQizGSja4cR2,mRtXV4NP3ffAjrcvUQizGSja4cR2,5.0,images/choice_trial_11.png,images/choice_trial_4.png,images/pattern_4.png,f,f,7000.0,11.0,4.0,3.0,0.0,20.0,1.0,1.0,11.0,140.0,,,,,,59baf1a2178f1b0001828a26,09:09:24,27/02/2024
html-keyboard-response,107,210796,0.0-46.0-1.0,,"<div style=""display: flex; flex-direction: column; align-items: center; margin-top: -40px;""><img src=""images/pattern_4.png"" style=""width: 234px; height: 230px; margin-top: -50px;""><div style=""display: flex; justify-content: space-between; margin-top: 33px;""><img src=""images/choice_trial_11.png"" style=""width: 408px; height: 417px; margin-right: 608px;""></div></div>",,delaylearn,learning,display_response,mRtXV4NP3ffAjrcvUQizGSja4cR2,mRtXV4NP3ffAjrcvUQizGSja4cR2,,,,,,,,,,,,,,,,,chosen stimuli: images/choice_trial_11.png,,,,,59baf1a2178f1b0001828a26,09:09:24,27/02/2024
html-keyboard-response,108,217803,0.0-46.0-2.0,,,,delaylearn,learning,feedback_duration_window,mRtXV4NP3ffAjrcvUQizGSja4cR2,mRtXV4NP3ffAjrcvUQizGSja4cR2,,,,,,,,,,,,,,,,,,7000.0,,,,59baf1a2178f1b0001828a26,09:09:24,27/02/2024
html-keyboard-response,109,219307,0.0-46.0-3.0,,<div style='margin:auto;width: auto; font-size: 150%'><span style='font-weight: bold; font-size: 100px; color: green;'>+10 points!</span><br><br></div>,,delaylearn,learning,feedback_image_window,mRtXV4NP3ffAjrcvUQizGSja4cR2,mRtXV4NP3ffAjrcvUQizGSja4cR2,,,,,,,,,,,,,,,,,,,,,,59baf1a2178f1b0001828a26,09:09:24,27/02/2024
html-keyboard-response,110,219811,0.0-47.0-0.0,,,,,,mood_trial_fixation,mRtXV4NP3ffAjrcvUQizGSja4cR2,,,,,,,,,,,,,,,,,,,,,,,59baf1a2178f1b0001828a26,09:09:24,27/02/2024
lmdlab-html-vas-response,111,224315,0.0-47.0-1.0,3491.0,How happy are you right now?,0.7126920077311723,delaylearn,learning,mood_trial,mRtXV4NP3ffAjrcvUQizGSja4cR2,mRtXV4NP3ffAjrcvUQizGSja4cR2,,,,,,,,,,,,,,,,,,,,"['Very unhappy', 'Very happy']",,59baf1a2178f1b0001828a26,09:09:24,27/02/2024
html-keyboard-response,112,226699,0.0-48.0,,"<div style=""font-size:100px;"">+</div>",,delaylearn,learning,ITI,mRtXV4NP3ffAjrcvUQizGSja4cR2,mRtXV4NP3ffAjrcvUQizGSja4cR2,,,,,,,,,,,,,,,,,,,2376.0,,,59baf1a2178f1b0001828a26,09:09:24,27/02/2024
html-keyboard-response,113,228750,0.0-49.0-0.0,2040.6000000238419,"<div style=""display: flex; flex-direction: column; align-items: center; margin-top: -40px;""><img src=""images/pattern_7.png"" style=""width: 234px; height: 230px; margin-top: -50px;""><div style=""display: flex; justify-content: space-between; margin-top: 33px;""><img src=""images/choice_trial_10.png"" style=""width: 408px; height: 417px; margin-right: 200px;""><img src=""images/choice_trial_8.png"" style=""width: 408px; height: 417px;""></div></div>",j,delaylearn,learning,trial,mRtXV4NP3ffAjrcvUQizGSja4cR2,mRtXV4NP3ffAjrcvUQizGSja4cR2,5.0,images/choice_trial_10.png,images/choice_trial_8.png,images/pattern_7.png,j,j,750.0,10.0,8.0,6.0,1.0,21.0,1.0,1.0,8.0,150.0,,,,,,59baf1a2178f1b0001828a26,09:09:24,27/02/2024
html-keyboard-response,114,229756,0.0-49.0-1.0,,"<div style=""display: flex; flex-direction: column; align-items: center; margin-top: -40px;""><img src=""images/pattern_7.png"" style=""width: 234px; height: 230px; margin-top: -50px;""><div style=""display: flex; justify-content: space-between; margin-top: 33px;""><img src=""images/choice_trial_8.png"" style=""width: 408px; height: 417px; margin-left:608px;""></div></div>",,delaylearn,learning,display_response,mRtXV4NP3ffAjrcvUQizGSja4cR2,mRtXV4NP3ffAjrcvUQizGSja4cR2,,,,,,,,,,,,,,,,,chosen stimuli: images/choice_trial_8.png,,,,,59baf1a2178f1b0001828a26,09:09:24,27/02/2024
html-keyboard-response,115,230515,0.0-49.0-2.0,,,,delaylearn,learning,feedback_duration_window,mRtXV4NP3ffAjrcvUQizGSja4cR2,mRtXV4NP3ffAjrcvUQizGSja4cR2,,,,,,,,,,,,,,,,,,750.0,,,,59baf1a2178f1b0001828a26,09:09:24,27/02/2024
html-keyboard-response,116,232020,0.0-49.0-3.0,,<div style='margin:auto;width: auto; font-size: 150%'><span style='font-weight: bold; font-size: 100px; color: green;'>+10 points!</span><br><br></div>,,delaylearn,learning,feedback_image_window,mRtXV4NP3ffAjrcvUQizGSja4cR2,mRtXV4NP3ffAjrcvUQizGSja4cR2,,,,,,,,,,,,,,,,,,,,,,59baf1a2178f1b0001828a26,09:09:24,27/02/2024
html-keyboard-response,117,234372,0.0-50.0,,"<div style=""font-size:100px;"">+</div>",,delaylearn,learning,ITI,mRtXV4NP3ffAjrcvUQizGSja4cR2,mRtXV4NP3ffAjrcvUQizGSja4cR2,,,,,,,,,,,,,,,,,,,2346.0,,,59baf1a2178f1b0001828a26,09:09:24,27/02/2024
html-keyboard-response,118,236458,0.0-51.0-0.0,2077.199999988079,"<div style=""display: flex; flex-direction: column; align-items: center; margin-top: -40px;""><img src=""images/pattern_1.png"" style=""width: 234px; height: 230px; margin-top: -50px;""><div style=""display: flex; justify-content: space-between; margin-top: 33px;""><img src=""images/choice_trial_15.png"" style=""width: 408px; height: 417px; margin-right: 200px;""><img src=""images/choice_trial_6.png"" style=""width: 408px; height: 417px;""></div></div>",f,delaylearn,learning,trial,mRtXV4NP3ffAjrcvUQizGSja4cR2,mRtXV4NP3ffAjrcvUQizGSja4cR2,5.0,images/choice_trial_15.png,images/choice_trial_6.png,images/pattern_1.png,f,j,7000.0,15.0,6.0,1.0,1.0,22.0,0.0,1.0,15.0,160.0,,,,,,59baf1a2178f1b0001828a26,09:09:24,27/02/2024
html-keyboard-response,119,237468,0.0-51.0-1.0,,"<div style=""display: flex; flex-direction: column; align-items: center; margin-top: -40px;""><img src=""images/pattern_1.png"" style=""width: 234px; height: 230px; margin-top: -50px;""><div style=""display: flex; justify-content: space-between; margin-top: 33px;""><img src=""images/choice_trial_15.png"" style=""width: 408px; height: 417px; margin-right: 608px;""></div></div>",,delaylearn,learning,display_response,mRtXV4NP3ffAjrcvUQizGSja4cR2,mRtXV4NP3ffAjrcvUQizGSja4cR2,,,,,,,,,,,,,,,,,chosen stimuli: images/choice_trial_15.png,,,,,59baf1a2178f1b0001828a26,09:09:24,27/02/2024
html-keyboard-response,120,244476,0.0-51.0-2.0,,,,delaylearn,learning,feedback_duration_window,mRtXV4NP3ffAjrcvUQizGSja4cR2,mRtXV4NP3ffAjrcvUQizGSja4cR2,,,,,,,,,,,,,,,,,,7000.0,,,,59baf1a2178f1b0001828a26,09:09:24,27/02/2024
html-keyboard-response,121,245989,0.0-51.0-3.0,,<div style='margin:auto;width: auto; font-size: 150%'><span style='font-weight: bold; font-size: 100px; color: green;'>+10 points!</span><br><br></div>,,delaylearn,learning,feedback_image_window,mRtXV4NP3ffAjrcvUQizGSja4cR2,mRtXV4NP3ffAjrcvUQizGSja4cR2,,,,,,,,,,,,,,,,,,,,,,59baf1a2178f1b0001828a26,09:09:24,27/02/2024
html-keyboard-response,122,247676,0.0-52.0,,"<div style=""font-size:100px;"">+</div>",,delaylearn,learning,ITI,mRtXV4NP3ffAjrcvUQizGSja4cR2,mRtXV4NP3ffAjrcvUQizGSja4cR2,,,,,,,,,,,,,,,,,,,1680.0,,,59baf1a2178f1b0001828a26,09:09:24,27/02/2024
html-keyboard-response,123,249320,0.0-53.0-0.0,1636.8999999761581,"<div style=""display: flex; flex-direction: column; align-items: center; margin-top: -40px;""><img src=""images/pattern_5.png"" style=""width: 234px; height: 230px; margin-top: -50px;""><div style=""display: flex; justify-content: space-between; margin-top: 33px;""><img src=""images/choice_trial_13.png"" style=""width: 408px; height: 417px; margin-right: 200px;""><img src=""images/choice_trial_7.png"" style=""width: 408px; height: 417px;""></div></div>",j,delaylearn,learning,trial,mRtXV4NP3ffAjrcvUQizGSja4cR2,mRtXV4NP3ffAjrcvUQizGSja4cR2,5.0,images/choice_trial_13.png,images/choice_trial_7.png,images/pattern_5.png,j,j,750.0,13.0,7.0,4.0,1.0,23.0,1.0,1.0,7.0,170.0,,,,,,59baf1a2178f1b0001828a26,09:09:24,27/02/2024
html-keyboard-response,124,250333,0.0-53.0-1.0,,"<div style=""display: flex; flex-direction: column; align-items: center; margin-top: -40px;""><img src=""images/pattern_5.png"" style=""width: 234px; height: 230px; margin-top: -50px;""><div style=""display: flex; justify-content: space-between; margin-top: 33px;""><img src=""images/choice_trial_7.png"" style=""width: 408px; height: 417px; margin-left:608px;""></div></div>",,delaylearn,learning,display_response,mRtXV4NP3ffAjrcvUQizGSja4cR2,mRtXV4NP3ffAjrcvUQizGSja4cR2,,,,,,,,,,,,,,,,,chosen stimuli: images/choice_trial_7.png,,,,,59baf1a2178f1b0001828a26,09:09:24,27/02/2024
html-keyboard-response,125,251092,0.0-53.0-2.0,,,,delaylearn,learning,feedback_duration_window,mRtXV4NP3ffAjrcvUQizGSja4cR2,mRtXV4NP3ffAjrcvUQizGSja4cR2,,,,,,,,,,,,,,,,,,750.0,,,,59baf1a2178f1b0001828a26,09:09:24,27/02/2024
html-keyboard-response,126,252604,0.0-53.0-3.0,,<div style='margin:auto;width: auto; font-size: 150%'><span style='font-weight: bold; font-size: 100px; color: green;'>+10 points!</span><br><br></div>,,delaylearn,learning,feedback_image_window,mRtXV4NP3ffAjrcvUQizGSja4cR2,mRtXV4NP3ffAjrcvUQizGSja4cR2,,,,,,,,,,,,,,,,,,,,,,59baf1a2178f1b0001828a26,09:09:24,27/02/2024
html-keyboard-response,127,255060,0.0-54.0,,"<div style=""font-size:100px;"">+</div>",,delaylearn,learning,ITI,mRtXV4NP3ffAjrcvUQizGSja4cR2,mRtXV4NP3ffAjrcvUQizGSja4cR2,,,,,,,,,,,,,,,,,,,2446.0,,,59baf1a2178f1b0001828a26,09:09:24,27/02/2024
html-keyboard-response,128,258076,0.0-55.0-0.0,,"<div style=""display: flex; flex-direction: column; align-items: center; margin-top: -40px;""><img src=""images/pattern_3.png"" style=""width: 234px; height: 230px; margin-top: -50px;""><div style=""display: flex; justify-content: space-between; margin-top: 33px;""><img src=""images/choice_trial_2.png"" style=""width: 408px; height: 417px; margin-right: 200px;""><img src=""images/choice_trial_16.png"" style=""width: 408px; height: 417px;""></div></div>",,delaylearn,learning,trial,mRtXV4NP3ffAjrcvUQizGSja4cR2,mRtXV4NP3ffAjrcvUQizGSja4cR2,5.0,images/choice_trial_2.png,images/choice_trial_16.png,images/pattern_3.png,j,j,7000.0,2.0,16.0,2.0,1.0,24.0,0.0,0.0,0.0,170.0,,,,,,59baf1a2178f1b0001828a26,09:09:24,27/02/2024
html-keyboard-response,129,259084,0.0-55.0-1.0,,<div style='font-weight: bold; font-size: 75px; color: red;'>Missed Trial <br><br><br><br> Please respond faster</div>,,delaylearn,learning,display_response,mRtXV4NP3ffAjrcvUQizGSja4cR2,mRtXV4NP3ffAjrcvUQizGSja4cR2,,,,,,,,,,,,,,,,,Missed trial,,,,,59baf1a2178f1b0001828a26,09:09:24,27/02/2024
html-keyboard-response,130,259091,0.0-55.0-2.0,,,,delaylearn,learning,feedback_duration_window,mRtXV4NP3ffAjrcvUQizGSja4cR2,mRtXV4NP3ffAjrcvUQizGSja4cR2,,,,,,,,,,,,,,,,,,0.0,,,,59baf1a2178f1b0001828a26,09:09:24,27/02/2024
html-keyboard-response,131,259099,0.0-55.0-3.0,,,,delaylearn,learning,feedback_image_window,mRtXV4NP3ffAjrcvUQizGSja4cR2,mRtXV4NP3ffAjrcvUQizGSja4cR2,,,,,,,,,,,,,,,,,,,,,,59baf1a2178f1b0001828a26,09:09:24,27/02/2024
lmdlab-html-vas-response,132,265981,0.0-56.0-0.0,5356.0,*How <b><u>confident</u></b> are you feeling about your answers at this moment?*,0.6258858634837747,rewlearn,rate_confidence,,mRtXV4NP3ffAjrcvUQizGSja4cR2,mRtXV4NP3ffAjrcvUQizGSja4cR2,,,,,,,,,,,,,,,,,,,,"['No confidence', 'Complete confidence']",,59baf1a2178f1b0001828a26,09:09:24,27/02/2024
lmdlab-rest-trial-limit,133,294219,0.0-56.0-1.0,26727.5,"<div style=""font-size:40px;""><b>Please take a break!</b><br><br><br><br><p>Great work: you earned undefined points.<br><br><br><p>You have completed part(s) 1 of 6.<br><br><br><br>When you are ready to continue<br><br><br>please click the button.</p><br><br>",0,delaylearn,learning,break,mRtXV4NP3ffAjrcvUQizGSja4cR2,mRtXV4NP3ffAjrcvUQizGSja4cR2,,,,,,,,,,,,,,,,,,,,,0.0,59baf1a2178f1b0001828a26,09:09:24,27/02/2024
html-keyboard-response,134,297228,0.0-56.0-2.0,,"<div style=""font-size:100px;"">+</div>",,delaylearn,learning,pre_fixation,mRtXV4NP3ffAjrcvUQizGSja4cR2,,,,,,,,,,,,,,,,,,,,,,,59baf1a2178f1b0001828a26,09:09:24,27/02/2024
lmdlab-html-vas-response,135,301595,0.0-56.0-3.0-0.0,3352.0,How happy are you right now?,0.5586111016920416,delaylearn,learning,mood_baseline,mRtXV4NP3ffAjrcvUQizGSja4cR2,mRtXV4NP3ffAjrcvUQizGSja4cR2,,,,,,,,,,,,,,,,,,,,"['Very unhappy', 'Very happy']",,59baf1a2178f1b0001828a26,09:09:24,27/02/2024
html-keyboard-response,136,303099,0.0-56.0-3.0-1.0,,,,,,mood_baseline_fixation,mRtXV4NP3ffAjrcvUQizGSja4cR2,,,,,,,,,,,,,,,,,,,,,,,59baf1a2178f1b0001828a26,09:09:24,27/02/2024
html-keyboard-response,137,304875,0.0-57.0,,"<div style=""font-size:100px;"">+</div>",,delaylearn,learning,ITI,mRtXV4NP3ffAjrcvUQizGSja4cR2,mRtXV4NP3ffAjrcvUQizGSja4cR2,,,,,,,,,,,,,,,,,,,1767.0,,,59baf1a2178f1b0001828a26,09:09:24,27/02/2024
html-keyboard-response,138,306720,0.0-58.0-0.0,1836.2999999523163,"<div style=""display: flex; flex-direction: column; align-items: center; margin-top: -40px;""><img src=""images/pattern_7.png"" style=""width: 234px; height: 230px; margin-top: -50px;""><div style=""display: flex; justify-content: space-between; margin-top: 33px;""><img src=""images/choice_trial_10.png"" style=""width: 408px; height: 417px; margin-right: 200px;""><img src=""images/choice_trial_8.png"" style=""width: 408px; height: 417px;""></div></div>",j,delaylearn,learning,trial,mRtXV4NP3ffAjrcvUQizGSja4cR2,mRtXV4NP3ffAjrcvUQizGSja4cR2,5.0,images/choice_trial_10.png,images/choice_trial_8.png,images/pattern_7.png,j,j,750.0,10.0,8.0,6.0,1.0,25.0,1.0,1.0,8.0,180.0,,,,,,59baf1a2178f1b0001828a26,09:09:24,27/02/2024
html-keyboard-response,139,307732,0.0-58.0-1.0,,"<div style=""display: flex; flex-direction: column; align-items: center; margin-top: -40px;""><img src=""images/pattern_7.png"" style=""width: 234px; height: 230px; margin-top: -50px;""><div style=""display: flex; justify-content: space-between; margin-top: 33px;""><img src=""images/choice_trial_8.png"" style=""width: 408px; height: 417px; margin-left:608px;""></div></div>",,delaylearn,learning,display_response,mRtXV4NP3ffAjrcvUQizGSja4cR2,mRtXV4NP3ffAjrcvUQizGSja4cR2,,,,,,,,,,,,,,,,,chosen stimuli: images/choice_trial_8.png,,,,,59baf1a2178f1b0001828a26,09:09:24,27/02/2024
html-keyboard-response,140,308492,0.0-58.0-2.0,,,,delaylearn,learning,feedback_duration_window,mRtXV4NP3ffAjrcvUQizGSja4cR2,mRtXV4NP3ffAjrcvUQizGSja4cR2,,,,,,,,,,,,,,,,,,750.0,,,,59baf1a2178f1b0001828a26,09:09:24,27/02/2024
html-keyboard-response,141,310006,0.0-58.0-3.0,,<div style='margin:auto;width: auto; font-size: 150%'><span style='font-weight: bold; font-size: 100px; color: green;'>+10 points!</span><br><br></div>,,delaylearn,learning,feedback_image_window,mRtXV4NP3ffAjrcvUQizGSja4cR2,mRtXV4NP3ffAjrcvUQizGSja4cR2,,,,,,,,,,,,,,,,,,,,,,59baf1a2178f1b0001828a26,09:09:24,27/02/2024
html-keyboard-response,142,310516,0.0-59.0-0.0,,,,,,mood_trial_fixation,mRtXV4NP3ffAjrcvUQizGSja4cR2,,,,,,,,,,,,,,,,,,,,,,,59baf1a2178f1b0001828a26,09:09:24,27/02/2024
lmdlab-html-vas-response,143,314603,0.0-59.0-1.0,3072.0,How happy are you right now?,0.6909904716693228,delaylearn,learning,mood_trial,mRtXV4NP3ffAjrcvUQizGSja4cR2,mRtXV4NP3ffAjrcvUQizGSja4cR2,,,,,,,,,,,,,,,,,,,,"['Very unhappy', 'Very happy']",,59baf1a2178f1b0001828a26,09:09:24,27/02/2024
html-keyboard-response,144,316260,0.0-60.0,,"<div style=""font-size:100px;"">+</div>",,delaylearn,learning,ITI,mRtXV4NP3ffAjrcvUQizGSja4cR2,mRtXV4NP3ffAjrcvUQizGSja4cR2,,,,,,,,,,,,,,,,,,,1652.0,,,59baf1a2178f1b0001828a26,09:09:24,27/02/2024
html-keyboard-response,145,317421,0.0-61.0-0.0,1157.7000000476837,"<div style=""display: flex; flex-direction: column; align-items: center; margin-top: -40px;""><img src=""images/pattern_1.png"" style=""width: 234px; height: 230px; margin-top: -50px;""><div style=""display: flex; justify-content: space-between; margin-top: 33px;""><img src=""images/choice_trial_6.png"" style=""width: 408px; height: 417px; margin-right: 200px;""><img src=""images/choice_trial_15.png"" style=""width: 408px; height: 417px;""></div></div>",j,delaylearn,learning,trial,mRtXV4NP3ffAjrcvUQizGSja4cR2,mRtXV4NP3ffAjrcvUQizGSja4cR2,5.0,images/choice_trial_6.png,images/choice_trial_15.png,images/pattern_1.png,f,f,7000.0,6.0,15.0,1.0,0.0,26.0,0.0,0.0,15.0,180.0,,,,,,59baf1a2178f1b0001828a26,09:09:24,27/02/2024
html-keyboard-response,146,318427,0.0-61.0-1.0,,"<div style=""display: flex; flex-direction: column; align-items: center; margin-top: -40px;""><img src=""images/pattern_1.png"" style=""width: 234px; height: 230px; margin-top: -50px;""><div style=""display: flex; justify-content: space-between; margin-top: 33px;""><img src=""images/choice_trial_15.png"" style=""width: 408px; height: 417px; margin-left:608px;""></div></div>",,delaylearn,learning,display_response,mRtXV4NP3ffAjrcvUQizGSja4cR2,mRtXV4NP3ffAjrcvUQizGSja4cR2,,,,,,,,,,,,,,,,,chosen stimuli: images/choice_trial_15.png,,,,,59baf1a2178f1b0001828a26,09:09:24,27/02/2024
html-keyboard-response,147,325436,0.0-61.0-2.0,,,,delaylearn,learning,feedback_duration_window,mRtXV4NP3ffAjrcvUQizGSja4cR2,mRtXV4NP3ffAjrcvUQizGSja4cR2,,,,,,,,,,,,,,,,,,7000.0,,,,59baf1a2178f1b0001828a26,09:09:24,27/02/2024
html-keyboard-response,148,326943,0.0-61.0-3.0,,<div style='margin:auto;width: auto; font-size: 150%'><span style='font-weight: bold; font-size: 100px; color: red;'>0 points!</span><br><br></div>,,delaylearn,learning,feedback_image_window,mRtXV4NP3ffAjrcvUQizGSja4cR2,mRtXV4NP3ffAjrcvUQizGSja4cR2,,,,,,,,,,,,,,,,,,,,,,59baf1a2178f1b0001828a26,09:09:24,27/02/2024
html-keyboard-response,149,328860,0.0-62.0,,"<div style=""font-size:100px;"">+</div>",,delaylearn,learning,ITI,mRtXV4NP3ffAjrcvUQizGSja4cR2,mRtXV4NP3ffAjrcvUQizGSja4cR2,,,,,,,,,,,,,,,,,,,1909.0,,,59baf1a2178f1b0001828a26,09:09:24,27/02/2024
html-keyboard-response,150,330239,0.0-63.0-0.0,1371.2000000476837,"<div style=""display: flex; flex-direction: column; align-items: center; margin-top: -40px;""><img src=""images/pattern_5.png"" style=""width: 234px; height: 230px; margin-top: -50px;""><div style=""display: flex; justify-content: space-between; margin-top: 33px;""><img src=""images/choice_trial_7.png"" style=""width: 408px; height: 417px; margin-right: 200px;""><img src=""images/choice_trial_13.png"" style=""width: 408px; height: 417px;""></div></div>",f,delaylearn,learning,trial,mRtXV4NP3ffAjrcvUQizGSja4cR2,mRtXV4NP3ffAjrcvUQizGSja4cR2,5.0,images/choice_trial_7.png,images/choice_trial_13.png,images/pattern_5.png,f,f,750.0,7.0,13.0,4.0,0.0,27.0,1.0,1.0,7.0,190.0,,,,,,59baf1a2178f1b0001828a26,09:09:24,27/02/2024
html-keyboard-response,151,331251,0.0-63.0-1.0,,"<div style=""display: flex; flex-direction: column; align-items: center; margin-top: -40px;""><img src=""images/pattern_5.png"" style=""width: 234px; height: 230px; margin-top: -50px;""><div style=""display: flex; justify-content: space-between; margin-top: 33px;""><img src=""images/choice_trial_7.png"" style=""width: 408px; height: 417px; margin-right: 608px;""></div></div>",,delaylearn,learning,display_response,mRtXV4NP3ffAjrcvUQizGSja4cR2,mRtXV4NP3ffAjrcvUQizGSja4cR2,,,,,,,,,,,,,,,,,chosen stimuli: images/choice_trial_7.png,,,,,59baf1a2178f1b0001828a26,09:09:24,27/02/2024
html-keyboard-response,152,332012,0.0-63.0-2.0,,,,delaylearn,learning,feedback_duration_window,mRtXV4NP3ffAjrcvUQizGSja4cR2,mRtXV4NP3ffAjrcvUQizGSja4cR2,,,,,,,,,,,,,,,,,,750.0,,,,59baf1a2178f1b0001828a26,09:09:24,27/02/2024
html-keyboard-response,153,333524,0.0-63.0-3.0,,<div style='margin:auto;width: auto; font-size: 150%'><span style='font-weight: bold; font-size: 100px; color: green;'>+10 points!</span><br><br></div>,,delaylearn,learning,feedback_image_window,mRtXV4NP3ffAjrcvUQizGSja4cR2,mRtXV4NP3ffAjrcvUQizGSja4cR2,,,,,,,,,,,,,,,,,,,,,,59baf1a2178f1b0001828a26,09:09:24,27/02/2024
html-keyboard-response,154,335988,0.0-64.0,,"<div style=""font-size:100px;"">+</div>",,delaylearn,learning,ITI,mRtXV4NP3ffAjrcvUQizGSja4cR2,mRtXV4NP3ffAjrcvUQizGSja4cR2,,,,,,,,,,,,,,,,,,,2457.0,,,59baf1a2178f1b0001828a26,09:09:24,27/02/2024
html-keyboard-response,155,337302,0.0-65.0-0.0,1306.4000000357628,"<div style=""display: flex; flex-direction: column; align-items: center; margin-top: -40px;""><img src=""images/pattern_6.png"" style=""width: 234px; height: 230px; margin-top: -50px;""><div style=""display: flex; justify-content: space-between; margin-top: 33px;""><img src=""images/choice_trial_9.png"" style=""width: 408px; height: 417px; margin-right: 200px;""><img src=""images/choice_trial_14.png"" style=""width: 408px; height: 417px;""></div></div>",j,delaylearn,learning,trial,mRtXV4NP3ffAjrcvUQizGSja4cR2,mRtXV4NP3ffAjrcvUQizGSja4cR2,5.0,images/choice_trial_9.png,images/choice_trial_14.png,images/pattern_6.png,j,j,750.0,9.0,14.0,5.0,1.0,28.0,1.0,1.0,14.0,200.0,,,,,,59baf1a2178f1b0001828a26,09:09:24,27/02/2024
html-keyboard-response,156,338308,0.0-65.0-1.0,,"<div style=""display: flex; flex-direction: column; align-items: center; margin-top: -40px;""><img src=""images/pattern_6.png"" style=""width: 234px; height: 230px; margin-top: -50px;""><div style=""display: flex; justify-content: space-between; margin-top: 33px;""><img src=""images/choice_trial_14.png"" style=""width: 408px; height: 417px; margin-left:608px;""></div></div>",,delaylearn,learning,display_response,mRtXV4NP3ffAjrcvUQizGSja4cR2,mRtXV4NP3ffAjrcvUQizGSja4cR2,,,,,,,,,,,,,,,,,chosen stimuli: images/choice_trial_14.png,,,,,59baf1a2178f1b0001828a26,09:09:24,27/02/2024
html-keyboard-response,157,339069,0.0-65.0-2.0,,,,delaylearn,learning,feedback_duration_window,mRtXV4NP3ffAjrcvUQizGSja4cR2,mRtXV4NP3ffAjrcvUQizGSja4cR2,,,,,,,,,,,,,,,,,,750.0,,,,59baf1a2178f1b0001828a26,09:09:24,27/02/2024
html-keyboard-response,158,340580,0.0-65.0-3.0,,<div style='margin:auto;width: auto; font-size: 150%'><span style='font-weight: bold; font-size: 100px; color: green;'>+10 points!</span><br><br></div>,,delaylearn,learning,feedback_image_window,mRtXV4NP3ffAjrcvUQizGSja4cR2,mRtXV4NP3ffAjrcvUQizGSja4cR2,,,,,,,,,,,,,,,,,,,,,,59baf1a2178f1b0001828a26,09:09:24,27/02/2024
html-keyboard-response,159,341084,0.0-66.0-0.0,,,,,,mood_trial_fixation,mRtXV4NP3ffAjrcvUQizGSja4cR2,,,,,,,,,,,,,,,,,,,,,,,59baf1a2178f1b0001828a26,09:09:24,27/02/2024
lmdlab-html-vas-response,160,344995,0.0-66.0-1.0,2900.0,How happy are you right now?,0.6801397036383982,delaylearn,learning,mood_trial,mRtXV4NP3ffAjrcvUQizGSja4cR2,mRtXV4NP3ffAjrcvUQizGSja4cR2,,,,,,,,,,,,,,,,,,,,"['Very unhappy', 'Very happy']",,59baf1a2178f1b0001828a26,09:09:24,27/02/2024
html-keyboard-response,161,346796,0.0-67.0,,"<div style=""font-size:100px;"">+</div>",,delaylearn,learning,ITI,mRtXV4NP3ffAjrcvUQizGSja4cR2,mRtXV4NP3ffAjrcvUQizGSja4cR2,,,,,,,,,,,,,,,,,,,1796.0,,,59baf1a2178f1b0001828a26,09:09:24,27/02/2024
html-keyboard-response,162,348011,0.0-68.0-0.0,1211.199999988079,"<div style=""display: flex; flex-direction: column; align-items: center; margin-top: -40px;""><img src=""images/pattern_4.png"" style=""width: 234px; height: 230px; margin-top: -50px;""><div style=""display: flex; justify-content: space-between; margin-top: 33px;""><img src=""images/choice_trial_4.png"" style=""width: 408px; height: 417px; margin-right: 200px;""><img src=""images/choice_trial_11.png"" style=""width: 408px; height: 417px;""></div></div>",j,delaylearn,learning,trial,mRtXV4NP3ffAjrcvUQizGSja4cR2,mRtXV4NP3ffAjrcvUQizGSja4cR2,5.0,images/choice_trial_4.png,images/choice_trial_11.png,images/pattern_4.png,j,j,7000.0,4.0,11.0,3.0,1.0,29.0,1.0,1.0,11.0,210.0,,,,,,59baf1a2178f1b0001828a26,09:09:24,27/02/2024
html-keyboard-response,163,349020,0.0-68.0-1.0,,"<div style=""display: flex; flex-direction: column; align-items: center; margin-top: -40px;""><img src=""images/pattern_4.png"" style=""width: 234px; height: 230px; margin-top: -50px;""><div style=""display: flex; justify-content: space-between; margin-top: 33px;""><img src=""images/choice_trial_11.png"" style=""width: 408px; height: 417px; margin-left:608px;""></div></div>",,delaylearn,learning,display_response,mRtXV4NP3ffAjrcvUQizGSja4cR2,mRtXV4NP3ffAjrcvUQizGSja4cR2,,,,,,,,,,,,,,,,,chosen stimuli: images/choice_trial_11.png,,,,,59baf1a2178f1b0001828a26,09:09:24,27/02/2024
html-keyboard-response,164,356027,0.0-68.0-2.0,,,,delaylearn,learning,feedback_duration_window,mRtXV4NP3ffAjrcvUQizGSja4cR2,mRtXV4NP3ffAjrcvUQizGSja4cR2,,,,,,,,,,,,,,,,,,7000.0,,,,59baf1a2178f1b0001828a26,09:09:24,27/02/2024
html-keyboard-response,165,357532,0.0-68.0-3.0,,<div style='margin:auto;width: auto; font-size: 150%'><span style='font-weight: bold; font-size: 100px; color: green;'>+10 points!</span><br><br></div>,,delaylearn,learning,feedback_image_window,mRtXV4NP3ffAjrcvUQizGSja4cR2,mRtXV4NP3ffAjrcvUQizGSja4cR2,,,,,,,,,,,,,,,,,,,,,,59baf1a2178f1b0001828a26,09:09:24,27/02/2024
html-keyboard-response,166,359828,0.0-69.0,,"<div style=""font-size:100px;"">+</div>",,delaylearn,learning,ITI,mRtXV4NP3ffAjrcvUQizGSja4cR2,mRtXV4NP3ffAjrcvUQizGSja4cR2,,,,,,,,,,,,,,,,,,,2286.0,,,59baf1a2178f1b0001828a26,09:09:24,27/02/2024
html-keyboard-response,167,362001,0.0-70.0-0.0,2167.100000023842,"<div style=""display: flex; flex-direction: column; align-items: center; margin-top: -40px;""><img src=""images/pattern_3.png"" style=""width: 234px; height: 230px; margin-top: -50px;""><div style=""display: flex; justify-content: space-between; margin-top: 33px;""><img src=""images/choice_trial_2.png"" style=""width: 408px; height: 417px; margin-right: 200px;""><img src=""images/choice_trial_16.png"" style=""width: 408px; height: 417px;""></div></div>",j,delaylearn,learning,trial,mRtXV4NP3ffAjrcvUQizGSja4cR2,mRtXV4NP3ffAjrcvUQizGSja4cR2,5.0,images/choice_trial_2.png,images/choice_trial_16.png,images/pattern_3.png,j,j,7000.0,2.0,16.0,2.0,1.0,30.0,1.0,1.0,16.0,220.0,,,,,,59baf1a2178f1b0001828a26,09:09:24,27/02/2024
html-keyboard-response,168,363011,0.0-70.0-1.0,,"<div style=""display: flex; flex-direction: column; align-items: center; margin-top: -40px;""><img src=""images/pattern_3.png"" style=""width: 234px; height: 230px; margin-top: -50px;""><div style=""display: flex; justify-content: space-between; margin-top: 33px;""><img src=""images/choice_trial_16.png"" style=""width: 408px; height: 417px; margin-left:608px;""></div></div>",,delaylearn,learning,display_response,mRtXV4NP3ffAjrcvUQizGSja4cR2,mRtXV4NP3ffAjrcvUQizGSja4cR2,,,,,,,,,,,,,,,,,chosen stimuli: images/choice_trial_16.png,,,,,59baf1a2178f1b0001828a26,09:09:24,27/02/2024
html-keyboard-response,169,370019,0.0-70.0-2.0,,,,delaylearn,learning,feedback_duration_window,mRtXV4NP3ffAjrcvUQizGSja4cR2,mRtXV4NP3ffAjrcvUQizGSja4cR2,,,,,,,,,,,,,,,,,,7000.0,,,,59baf1a2178f1b0001828a26,09:09:24,27/02/2024
html-keyboard-response,170,371524,0.0-70.0-3.0,,<div style='margin:auto;width: auto; font-size: 150%'><span style='font-weight: bold; font-size: 100px; color: green;'>+10 points!</span><br><br></div>,,delaylearn,learning,feedback_image_window,mRtXV4NP3ffAjrcvUQizGSja4cR2,mRtXV4NP3ffAjrcvUQizGSja4cR2,,,,,,,,,,,,,,,,,,,,,,59baf1a2178f1b0001828a26,09:09:24,27/02/2024
html-keyboard-response,171,373452,0.0-71.0,,"<div style=""font-size:100px;"">+</div>",,delaylearn,learning,ITI,mRtXV4NP3ffAjrcvUQizGSja4cR2,mRtXV4NP3ffAjrcvUQizGSja4cR2,,,,,,,,,,,,,,,,,,,1920.0,,,59baf1a2178f1b0001828a26,09:09:24,27/02/2024
html-keyboard-response,172,374622,0.0-72.0-0.0,1164.1000000238419,"<div style=""display: flex; flex-direction: column; align-items: center; margin-top: -40px;""><img src=""images/pattern_5.png"" style=""width: 234px; height: 230px; margin-top: -50px;""><div style=""display: flex; justify-content: space-between; margin-top: 33px;""><img src=""images/choice_trial_7.png"" style=""width: 408px; height: 417px; margin-right: 200px;""><img src=""images/choice_trial_13.png"" style=""width: 408px; height: 417px;""></div></div>",f,delaylearn,learning,trial,mRtXV4NP3ffAjrcvUQizGSja4cR2,mRtXV4NP3ffAjrcvUQizGSja4cR2,5.0,images/choice_trial_7.png,images/choice_trial_13.png,images/pattern_5.png,j,f,750.0,7.0,13.0,4.0,0.0,31.0,1.0,0.0,7.0,220.0,,,,,,59baf1a2178f1b0001828a26,09:09:24,27/02/2024
html-keyboard-response,173,375628,0.0-72.0-1.0,,"<div style=""display: flex; flex-direction: column; align-items: center; margin-top: -40px;""><img src=""images/pattern_5.png"" style=""width: 234px; height: 230px; margin-top: -50px;""><div style=""display: flex; justify-content: space-between; margin-top: 33px;""><img src=""images/choice_trial_7.png"" style=""width: 408px; height: 417px; margin-right: 608px;""></div></div>",,delaylearn,learning,display_response,mRtXV4NP3ffAjrcvUQizGSja4cR2,mRtXV4NP3ffAjrcvUQizGSja4cR2,,,,,,,,,,,,,,,,,chosen stimuli: images/choice_trial_7.png,,,,,59baf1a2178f1b0001828a26,09:09:24,27/02/2024
html-keyboard-response,174,376387,0.0-72.0-2.0,,,,delaylearn,learning,feedback_duration_window,mRtXV4NP3ffAjrcvUQizGSja4cR2,mRtXV4NP3ffAjrcvUQizGSja4cR2,,,,,,,,,,,,,,,,,,750.0,,,,59baf1a2178f1b0001828a26,09:09:24,27/02/2024
html-keyboard-response,175,377892,0.0-72.0-3.0,,<div style='margin:auto;width: auto; font-size: 150%'><span style='font-weight: bold; font-size: 100px; color: red;'>0 points!</span><br><br></div>,,delaylearn,learning,feedback_image_window,mRtXV4NP3ffAjrcvUQizGSja4cR2,mRtXV4NP3ffAjrcvUQizGSja4cR2,,,,,,,,,,,,,,,,,,,,,,59baf1a2178f1b0001828a26,09:09:24,27/02/2024
html-keyboard-response,176,379867,0.0-73.0,,"<div style=""font-size:100px;"">+</div>",,delaylearn,learning,ITI,mRtXV4NP3ffAjrcvUQizGSja4cR2,mRtXV4NP3ffAjrcvUQizGSja4cR2,,,,,,,,,,,,,,,,,,,1966.0,,,59baf1a2178f1b0001828a26,09:09:24,27/02/2024
html-keyboard-response,177,380742,0.0-74.0-0.0,870.1999999880791,"<div style=""display: flex; flex-direction: column; align-items: center; margin-top: -40px;""><img src=""images/pattern_1.png"" style=""width: 234px; height: 230px; margin-top: -50px;""><div style=""display: flex; justify-content: space-between; margin-top: 33px;""><img src=""images/choice_trial_6.png"" style=""width: 408px; height: 417px; margin-right: 200px;""><img src=""images/choice_trial_15.png"" style=""width: 408px; height: 417px;""></div></div>",j,delaylearn,learning,trial,mRtXV4NP3ffAjrcvUQizGSja4cR2,mRtXV4NP3ffAjrcvUQizGSja4cR2,5.0,images/choice_trial_6.png,images/choice_trial_15.png,images/pattern_1.png,f,f,7000.0,6.0,15.0,1.0,0.0,32.0,0.0,0.0,15.0,220.0,,,,,,59baf1a2178f1b0001828a26,09:09:24,27/02/2024
html-keyboard-response,178,381748,0.0-74.0-1.0,,"<div style=""display: flex; flex-direction: column; align-items: center; margin-top: -40px;""><img src=""images/pattern_1.png"" style=""width: 234px; height: 230px; margin-top: -50px;""><div style=""display: flex; justify-content: space-between; margin-top: 33px;""><img src=""images/choice_trial_15.png"" style=""width: 408px; height: 417px; margin-left:608px;""></div></div>",,delaylearn,learning,display_response,mRtXV4NP3ffAjrcvUQizGSja4cR2,mRtXV4NP3ffAjrcvUQizGSja4cR2,,,,,,,,,,,,,,,,,chosen stimuli: images/choice_trial_15.png,,,,,59baf1a2178f1b0001828a26,09:09:24,27/02/2024
html-keyboard-response,179,388755,0.0-74.0-2.0,,,,delaylearn,learning,feedback_duration_window,mRtXV4NP3ffAjrcvUQizGSja4cR2,mRtXV4NP3ffAjrcvUQizGSja4cR2,,,,,,,,,,,,,,,,,,7000.0,,,,59baf1a2178f1b0001828a26,09:09:24,27/02/2024
html-keyboard-response,180,390260,0.0-74.0-3.0,,<div style='margin:auto;width: auto; font-size: 150%'><span style='font-weight: bold; font-size: 100px; color: red;'>0 points!</span><br><br></div>,,delaylearn,learning,feedback_image_window,mRtXV4NP3ffAjrcvUQizGSja4cR2,mRtXV4NP3ffAjrcvUQizGSja4cR2,,,,,,,,,,,,,,,,,,,,,,59baf1a2178f1b0001828a26,09:09:24,27/02/2024
html-keyboard-response,181,390763,0.0-75.0-0.0,,,,,,mood_trial_fixation,mRtXV4NP3ffAjrcvUQizGSja4cR2,,,,,,,,,,,,,,,,,,,,,,,59baf1a2178f1b0001828a26,09:09:24,27/02/2024
lmdlab-html-vas-response,182,394444,0.0-75.0-1.0,2668.0,How happy are you right now?,0.6519277067579939,delaylearn,learning,mood_trial,mRtXV4NP3ffAjrcvUQizGSja4cR2,mRtXV4NP3ffAjrcvUQizGSja4cR2,,,,,,,,,,,,,,,,,,,,"['Very unhappy', 'Very happy']",,59baf1a2178f1b0001828a26,09:09:24,27/02/2024
html-keyboard-response,183,396403,0.0-76.0,,"<div style=""font-size:100px;"">+</div>",,delaylearn,learning,ITI,mRtXV4NP3ffAjrcvUQizGSja4cR2,mRtXV4NP3ffAjrcvUQizGSja4cR2,,,,,,,,,,,,,,,,,,,1952.0,,,59baf1a2178f1b0001828a26,09:09:24,27/02/2024
html-keyboard-response,184,397651,0.0-77.0-0.0,1241.800000011921,"<div style=""display: flex; flex-direction: column; align-items: center; margin-top: -40px;""><img src=""images/pattern_6.png"" style=""width: 234px; height: 230px; margin-top: -50px;""><div style=""display: flex; justify-content: space-between; margin-top: 33px;""><img src=""images/choice_trial_14.png"" style=""width: 408px; height: 417px; margin-right: 200px;""><img src=""images/choice_trial_9.png"" style=""width: 408px; height: 417px;""></div></div>",j,delaylearn,learning,trial,mRtXV4NP3ffAjrcvUQizGSja4cR2,mRtXV4NP3ffAjrcvUQizGSja4cR2,5.0,images/choice_trial_14.png,images/choice_trial_9.png,images/pattern_6.png,j,f,750.0,14.0,9.0,5.0,0.0,33.0,0.0,1.0,9.0,230.0,,,,,,59baf1a2178f1b0001828a26,09:09:24,27/02/2024
html-keyboard-response,185,398660,0.0-77.0-1.0,,"<div style=""display: flex; flex-direction: column; align-items: center; margin-top: -40px;""><img src=""images/pattern_6.png"" style=""width: 234px; height: 230px; margin-top: -50px;""><div style=""display: flex; justify-content: space-between; margin-top: 33px;""><img src=""images/choice_trial_9.png"" style=""width: 408px; height: 417px; margin-left:608px;""></div></div>",,delaylearn,learning,display_response,mRtXV4NP3ffAjrcvUQizGSja4cR2,mRtXV4NP3ffAjrcvUQizGSja4cR2,,,,,,,,,,,,,,,,,chosen stimuli: images/choice_trial_9.png,,,,,59baf1a2178f1b0001828a26,09:09:24,27/02/2024
html-keyboard-response,186,399420,0.0-77.0-2.0,,,,delaylearn,learning,feedback_duration_window,mRtXV4NP3ffAjrcvUQizGSja4cR2,mRtXV4NP3ffAjrcvUQizGSja4cR2,,,,,,,,,,,,,,,,,,750.0,,,,59baf1a2178f1b0001828a26,09:09:24,27/02/2024
html-keyboard-response,187,400932,0.0-77.0-3.0,,<div style='margin:auto;width: auto; font-size: 150%'><span style='font-weight: bold; font-size: 100px; color: green;'>+10 points!</span><br><br></div>,,delaylearn,learning,feedback_image_window,mRtXV4NP3ffAjrcvUQizGSja4cR2,mRtXV4NP3ffAjrcvUQizGSja4cR2,,,,,,,,,,,,,,,,,,,,,,59baf1a2178f1b0001828a26,09:09:24,27/02/2024
html-keyboard-response,188,402588,0.0-78.0,,"<div style=""font-size:100px;"">+</div>",,delaylearn,learning,ITI,mRtXV4NP3ffAjrcvUQizGSja4cR2,mRtXV4NP3ffAjrcvUQizGSja4cR2,,,,,,,,,,,,,,,,,,,1648.0,,,59baf1a2178f1b0001828a26,09:09:24,27/02/2024
html-keyboard-response,189,404083,0.0-79.0-0.0,1490.4000000357628,"<div style=""display: flex; flex-direction: column; align-items: center; margin-top: -40px;""><img src=""images/pattern_3.png"" style=""width: 234px; height: 230px; margin-top: -50px;""><div style=""display: flex; justify-content: space-between; margin-top: 33px;""><img src=""images/choice_trial_2.png"" style=""width: 408px; height: 417px; margin-right: 200px;""><img src=""images/choice_trial_16.png"" style=""width: 408px; height: 417px;""></div></div>",f,delaylearn,learning,trial,mRtXV4NP3ffAjrcvUQizGSja4cR2,mRtXV4NP3ffAjrcvUQizGSja4cR2,5.0,images/choice_trial_2.png,images/choice_trial_16.png,images/pattern_3.png,j,j,7000.0,2.0,16.0,2.0,1.0,34.0,0.0,0.0,2.0,230.0,,,,,,59baf1a2178f1b0001828a26,09:09:24,27/02/2024
html-keyboard-response,190,405092,0.0-79.0-1.0,,"<div style=""display: flex; flex-direction: column; align-items: center; margin-top: -40px;""><img src=""images/pattern_3.png"" style=""width: 234px; height: 230px; margin-top: -50px;""><div style=""display: flex; justify-content: space-between; margin-top: 33px;""><img src=""images/choice_trial_2.png"" style=""width: 408px; height: 417px; margin-right: 608px;""></div></div>",,delaylearn,learning,display_response,mRtXV4NP3ffAjrcvUQizGSja4cR2,mRtXV4NP3ffAjrcvUQizGSja4cR2,,,,,,,,,,,,,,,,,chosen stimuli: images/choice_trial_2.png,,,,,59baf1a2178f1b0001828a26,09:09:24,27/02/2024
html-keyboard-response,191,412099,0.0-79.0-2.0,,,,delaylearn,learning,feedback_duration_window,mRtXV4NP3ffAjrcvUQizGSja4cR2,mRtXV4NP3ffAjrcvUQizGSja4cR2,,,,,,,,,,,,,,,,,,7000.0,,,,59baf1a2178f1b0001828a26,09:09:24,27/02/2024
html-keyboard-response,192,413612,0.0-79.0-3.0,,<div style='margin:auto;width: auto; font-size: 150%'><span style='font-weight: bold; font-size: 100px; color: red;'>0 points!</span><br><br></div>,,delaylearn,learning,feedback_image_window,mRtXV4NP3ffAjrcvUQizGSja4cR2,mRtXV4NP3ffAjrcvUQizGSja4cR2,,,,,,,,,,,,,,,,,,,,,,59baf1a2178f1b0001828a26,09:09:24,27/02/2024
html-keyboard-response,193,415300,0.0-80.0,,"<div style=""font-size:100px;"">+</div>",,delaylearn,learning,ITI,mRtXV4NP3ffAjrcvUQizGSja4cR2,mRtXV4NP3ffAjrcvUQizGSja4cR2,,,,,,,,,,,,,,,,,,,1679.0,,,59baf1a2178f1b0001828a26,09:09:24,27/02/2024
html-keyboard-response,194,416808,0.0-81.0-0.0,1499.5,"<div style=""display: flex; flex-direction: column; align-items: center; margin-top: -40px;""><img src=""images/pattern_4.png"" style=""width: 234px; height: 230px; margin-top: -50px;""><div style=""display: flex; justify-content: space-between; margin-top: 33px;""><img src=""images/choice_trial_4.png"" style=""width: 408px; height: 417px; margin-right: 200px;""><img src=""images/choice_trial_11.png"" style=""width: 408px; height: 417px;""></div></div>",f,delaylearn,learning,trial,mRtXV4NP3ffAjrcvUQizGSja4cR2,mRtXV4NP3ffAjrcvUQizGSja4cR2,5.0,images/choice_trial_4.png,images/choice_trial_11.png,images/pattern_4.png,f,j,7000.0,4.0,11.0,3.0,1.0,35.0,0.0,1.0,4.0,240.0,,,,,,59baf1a2178f1b0001828a26,09:09:24,27/02/2024
html-keyboard-response,195,417820,0.0-81.0-1.0,,"<div style=""display: flex; flex-direction: column; align-items: center; margin-top: -40px;""><img src=""images/pattern_4.png"" style=""width: 234px; height: 230px; margin-top: -50px;""><div style=""display: flex; justify-content: space-between; margin-top: 33px;""><img src=""images/choice_trial_4.png"" style=""width: 408px; height: 417px; margin-right: 608px;""></div></div>",,delaylearn,learning,display_response,mRtXV4NP3ffAjrcvUQizGSja4cR2,mRtXV4NP3ffAjrcvUQizGSja4cR2,,,,,,,,,,,,,,,,,chosen stimuli: images/choice_trial_4.png,,,,,59baf1a2178f1b0001828a26,09:09:24,27/02/2024
html-keyboard-response,196,424828,0.0-81.0-2.0,,,,delaylearn,learning,feedback_duration_window,mRtXV4NP3ffAjrcvUQizGSja4cR2,mRtXV4NP3ffAjrcvUQizGSja4cR2,,,,,,,,,,,,,,,,,,7000.0,,,,59baf1a2178f1b0001828a26,09:09:24,27/02/2024
html-keyboard-response,197,426340,0.0-81.0-3.0,,<div style='margin:auto;width: auto; font-size: 150%'><span style='font-weight: bold; font-size: 100px; color: green;'>+10 points!</span><br><br></div>,,delaylearn,learning,feedback_image_window,mRtXV4NP3ffAjrcvUQizGSja4cR2,mRtXV4NP3ffAjrcvUQizGSja4cR2,,,,,,,,,,,,,,,,,,,,,,59baf1a2178f1b0001828a26,09:09:24,27/02/2024
html-keyboard-response,198,428476,0.0-82.0,,"<div style=""font-size:100px;"">+</div>",,delaylearn,learning,ITI,mRtXV4NP3ffAjrcvUQizGSja4cR2,mRtXV4NP3ffAjrcvUQizGSja4cR2,,,,,,,,,,,,,,,,,,,2131.0,,,59baf1a2178f1b0001828a26,09:09:24,27/02/2024
html-keyboard-response,199,429900,0.0-83.0-0.0,1414.3999999761581,"<div style=""display: flex; flex-direction: column; align-items: center; margin-top: -40px;""><img src=""images/pattern_7.png"" style=""width: 234px; height: 230px; margin-top: -50px;""><div style=""display: flex; justify-content: space-between; margin-top: 33px;""><img src=""images/choice_trial_8.png"" style=""width: 408px; height: 417px; margin-right: 200px;""><img src=""images/choice_trial_10.png"" style=""width: 408px; height: 417px;""></div></div>",f,delaylearn,learning,trial,mRtXV4NP3ffAjrcvUQizGSja4cR2,mRtXV4NP3ffAjrcvUQizGSja4cR2,5.0,images/choice_trial_8.png,images/choice_trial_10.png,images/pattern_7.png,f,f,750.0,8.0,10.0,6.0,0.0,36.0,1.0,1.0,8.0,250.0,,,,,,59baf1a2178f1b0001828a26,09:09:24,27/02/2024
html-keyboard-response,200,430907,0.0-83.0-1.0,,"<div style=""display: flex; flex-direction: column; align-items: center; margin-top: -40px;""><img src=""images/pattern_7.png"" style=""width: 234px; height: 230px; margin-top: -50px;""><div style=""display: flex; justify-content: space-between; margin-top: 33px;""><img src=""images/choice_trial_8.png"" style=""width: 408px; height: 417px; margin-right: 608px;""></div></div>",,delaylearn,learning,display_response,mRtXV4NP3ffAjrcvUQizGSja4cR2,mRtXV4NP3ffAjrcvUQizGSja4cR2,,,,,,,,,,,,,,,,,chosen stimuli: images/choice_trial_8.png,,,,,59baf1a2178f1b0001828a26,09:09:24,27/02/2024
html-keyboard-response,201,431668,0.0-83.0-2.0,,,,delaylearn,learning,feedback_duration_window,mRtXV4NP3ffAjrcvUQizGSja4cR2,mRtXV4NP3ffAjrcvUQizGSja4cR2,,,,,,,,,,,,,,,,,,750.0,,,,59baf1a2178f1b0001828a26,09:09:24,27/02/2024
html-keyboard-response,202,433179,0.0-83.0-3.0,,<div style='margin:auto;width: auto; font-size: 150%'><span style='font-weight: bold; font-size: 100px; color: green;'>+10 points!</span><br><br></div>,,delaylearn,learning,feedback_image_window,mRtXV4NP3ffAjrcvUQizGSja4cR2,mRtXV4NP3ffAjrcvUQizGSja4cR2,,,,,,,,,,,,,,,,,,,,,,59baf1a2178f1b0001828a26,09:09:24,27/02/2024
html-keyboard-response,203,434732,0.0-84.0,,"<div style=""font-size:100px;"">+</div>",,delaylearn,learning,ITI,mRtXV4NP3ffAjrcvUQizGSja4cR2,mRtXV4NP3ffAjrcvUQizGSja4cR2,,,,,,,,,,,,,,,,,,,1548.0,,,59baf1a2178f1b0001828a26,09:09:24,27/02/2024
html-keyboard-response,204,436185,0.0-85.0-0.0,1442.0,"<div style=""display: flex; flex-direction: column; align-items: center; margin-top: -40px;""><img src=""images/pattern_1.png"" style=""width: 234px; height: 230px; margin-top: -50px;""><div style=""display: flex; justify-content: space-between; margin-top: 33px;""><img src=""images/choice_trial_6.png"" style=""width: 408px; height: 417px; margin-right: 200px;""><img src=""images/choice_trial_15.png"" style=""width: 408px; height: 417px;""></div></div>",j,delaylearn,learning,trial,mRtXV4NP3ffAjrcvUQizGSja4cR2,mRtXV4NP3ffAjrcvUQizGSja4cR2,5.0,images/choice_trial_6.png,images/choice_trial_15.png,images/pattern_1.png,f,f,7000.0,6.0,15.0,1.0,0.0,37.0,0.0,0.0,15.0,250.0,,,,,,59baf1a2178f1b0001828a26,09:09:24,27/02/2024
html-keyboard-response,205,437196,0.0-85.0-1.0,,"<div style=""display: flex; flex-direction: column; align-items: center; margin-top: -40px;""><img src=""images/pattern_1.png"" style=""width: 234px; height: 230px; margin-top: -50px;""><div style=""display: flex; justify-content: space-between; margin-top: 33px;""><img src=""images/choice_trial_15.png"" style=""width: 408px; height: 417px; margin-left:608px;""></div></div>",,delaylearn,learning,display_response,mRtXV4NP3ffAjrcvUQizGSja4cR2,mRtXV4NP3ffAjrcvUQizGSja4cR2,,,,,,,,,,,,,,,,,chosen stimuli: images/choice_trial_15.png,,,,,59baf1a2178f1b0001828a26,09:09:24,27/02/2024
html-keyboard-response,206,444204,0.0-85.0-2.0,,,,delaylearn,learning,feedback_duration_window,mRtXV4NP3ffAjrcvUQizGSja4cR2,mRtXV4NP3ffAjrcvUQizGSja4cR2,,,,,,,,,,,,,,,,,,7000.0,,,,59baf1a2178f1b0001828a26,09:09:24,27/02/2024
html-keyboard-response,207,445717,0.0-85.0-3.0,,<div style='margin:auto;width: auto; font-size: 150%'><span style='font-weight: bold; font-size: 100px; color: red;'>0 points!</span><br><br></div>,,delaylearn,learning,feedback_image_window,mRtXV4NP3ffAjrcvUQizGSja4cR2,mRtXV4NP3ffAjrcvUQizGSja4cR2,,,,,,,,,,,,,,,,,,,,,,59baf1a2178f1b0001828a26,09:09:24,27/02/2024
html-keyboard-response,208,446227,0.0-86.0-0.0,,,,,,mood_trial_fixation,mRtXV4NP3ffAjrcvUQizGSja4cR2,,,,,,,,,,,,,,,,,,,,,,,59baf1a2178f1b0001828a26,09:09:24,27/02/2024
lmdlab-html-vas-response,209,450492,0.0-86.0-1.0,3250.0,How happy are you right now?,0.6562680139703638,delaylearn,learning,mood_trial,mRtXV4NP3ffAjrcvUQizGSja4cR2,mRtXV4NP3ffAjrcvUQizGSja4cR2,,,,,,,,,,,,,,,,,,,,"['Very unhappy', 'Very happy']",,59baf1a2178f1b0001828a26,09:09:24,27/02/2024
html-keyboard-response,210,452859,0.0-87.0,,"<div style=""font-size:100px;"">+</div>",,delaylearn,learning,ITI,mRtXV4NP3ffAjrcvUQizGSja4cR2,mRtXV4NP3ffAjrcvUQizGSja4cR2,,,,,,,,,,,,,,,,,,,2363.0,,,59baf1a2178f1b0001828a26,09:09:24,27/02/2024
html-keyboard-response,211,454315,0.0-88.0-0.0,1445.300000011921,"<div style=""display: flex; flex-direction: column; align-items: center; margin-top: -40px;""><img src=""images/pattern_3.png"" style=""width: 234px; height: 230px; margin-top: -50px;""><div style=""display: flex; justify-content: space-between; margin-top: 33px;""><img src=""images/choice_trial_16.png"" style=""width: 408px; height: 417px; margin-right: 200px;""><img src=""images/choice_trial_2.png"" style=""width: 408px; height: 417px;""></div></div>",f,delaylearn,learning,trial,mRtXV4NP3ffAjrcvUQizGSja4cR2,mRtXV4NP3ffAjrcvUQizGSja4cR2,5.0,images/choice_trial_16.png,images/choice_trial_2.png,images/pattern_3.png,j,f,7000.0,16.0,2.0,2.0,0.0,38.0,1.0,0.0,16.0,250.0,,,,,,59baf1a2178f1b0001828a26,09:09:24,27/02/2024
html-keyboard-response,212,455325,0.0-88.0-1.0,,"<div style=""display: flex; flex-direction: column; align-items: center; margin-top: -40px;""><img src=""images/pattern_3.png"" style=""width: 234px; height: 230px; margin-top: -50px;""><div style=""display: flex; justify-content: space-between; margin-top: 33px;""><img src=""images/choice_trial_16.png"" style=""width: 408px; height: 417px; margin-right: 608px;""></div></div>",,delaylearn,learning,display_response,mRtXV4NP3ffAjrcvUQizGSja4cR2,mRtXV4NP3ffAjrcvUQizGSja4cR2,,,,,,,,,,,,,,,,,chosen stimuli: images/choice_trial_16.png,,,,,59baf1a2178f1b0001828a26,09:09:24,27/02/2024
html-keyboard-response,213,462333,0.0-88.0-2.0,,,,delaylearn,learning,feedback_duration_window,mRtXV4NP3ffAjrcvUQizGSja4cR2,mRtXV4NP3ffAjrcvUQizGSja4cR2,,,,,,,,,,,,,,,,,,7000.0,,,,59baf1a2178f1b0001828a26,09:09:24,27/02/2024
html-keyboard-response,214,463845,0.0-88.0-3.0,,<div style='margin:auto;width: auto; font-size: 150%'><span style='font-weight: bold; font-size: 100px; color: red;'>0 points!</span><br><br></div>,,delaylearn,learning,feedback_image_window,mRtXV4NP3ffAjrcvUQizGSja4cR2,mRtXV4NP3ffAjrcvUQizGSja4cR2,,,,,,,,,,,,,,,,,,,,,,59baf1a2178f1b0001828a26,09:09:24,27/02/2024
html-keyboard-response,215,466324,0.0-89.0,,"<div style=""font-size:100px;"">+</div>",,delaylearn,learning,ITI,mRtXV4NP3ffAjrcvUQizGSja4cR2,mRtXV4NP3ffAjrcvUQizGSja4cR2,,,,,,,,,,,,,,,,,,,2472.0,,,59baf1a2178f1b0001828a26,09:09:24,27/02/2024
html-keyboard-response,216,467477,0.0-90.0-0.0,1142.699999988079,"<div style=""display: flex; flex-direction: column; align-items: center; margin-top: -40px;""><img src=""images/pattern_7.png"" style=""width: 234px; height: 230px; margin-top: -50px;""><div style=""display: flex; justify-content: space-between; margin-top: 33px;""><img src=""images/choice_trial_10.png"" style=""width: 408px; height: 417px; margin-right: 200px;""><img src=""images/choice_trial_8.png"" style=""width: 408px; height: 417px;""></div></div>",j,delaylearn,learning,trial,mRtXV4NP3ffAjrcvUQizGSja4cR2,mRtXV4NP3ffAjrcvUQizGSja4cR2,5.0,images/choice_trial_10.png,images/choice_trial_8.png,images/pattern_7.png,j,j,750.0,10.0,8.0,6.0,1.0,39.0,1.0,1.0,8.0,260.0,,,,,,59baf1a2178f1b0001828a26,09:09:24,27/02/2024
html-keyboard-response,217,468485,0.0-90.0-1.0,,"<div style=""display: flex; flex-direction: column; align-items: center; margin-top: -40px;""><img src=""images/pattern_7.png"" style=""width: 234px; height: 230px; margin-top: -50px;""><div style=""display: flex; justify-content: space-between; margin-top: 33px;""><img src=""images/choice_trial_8.png"" style=""width: 408px; height: 417px; margin-left:608px;""></div></div>",,delaylearn,learning,display_response,mRtXV4NP3ffAjrcvUQizGSja4cR2,mRtXV4NP3ffAjrcvUQizGSja4cR2,,,,,,,,,,,,,,,,,chosen stimuli: images/choice_trial_8.png,,,,,59baf1a2178f1b0001828a26,09:09:24,27/02/2024
html-keyboard-response,218,469244,0.0-90.0-2.0,,,,delaylearn,learning,feedback_duration_window,mRtXV4NP3ffAjrcvUQizGSja4cR2,mRtXV4NP3ffAjrcvUQizGSja4cR2,,,,,,,,,,,,,,,,,,750.0,,,,59baf1a2178f1b0001828a26,09:09:24,27/02/2024
html-keyboard-response,219,470756,0.0-90.0-3.0,,<div style='margin:auto;width: auto; font-size: 150%'><span style='font-weight: bold; font-size: 100px; color: green;'>+10 points!</span><br><br></div>,,delaylearn,learning,feedback_image_window,mRtXV4NP3ffAjrcvUQizGSja4cR2,mRtXV4NP3ffAjrcvUQizGSja4cR2,,,,,,,,,,,,,,,,,,,,,,59baf1a2178f1b0001828a26,09:09:24,27/02/2024
html-keyboard-response,220,472436,0.0-91.0,,"<div style=""font-size:100px;"">+</div>",,delaylearn,learning,ITI,mRtXV4NP3ffAjrcvUQizGSja4cR2,mRtXV4NP3ffAjrcvUQizGSja4cR2,,,,,,,,,,,,,,,,,,,1670.0,,,59baf1a2178f1b0001828a26,09:09:24,27/02/2024
html-keyboard-response,221,473607,0.0-92.0-0.0,1163.0,"<div style=""display: flex; flex-direction: column; align-items: center; margin-top: -40px;""><img src=""images/pattern_5.png"" style=""width: 234px; height: 230px; margin-top: -50px;""><div style=""display: flex; justify-content: space-between; margin-top: 33px;""><img src=""images/choice_trial_13.png"" style=""width: 408px; height: 417px; margin-right: 200px;""><img src=""images/choice_trial_7.png"" style=""width: 408px; height: 417px;""></div></div>",j,delaylearn,learning,trial,mRtXV4NP3ffAjrcvUQizGSja4cR2,mRtXV4NP3ffAjrcvUQizGSja4cR2,5.0,images/choice_trial_13.png,images/choice_trial_7.png,images/pattern_5.png,j,j,750.0,13.0,7.0,4.0,1.0,40.0,1.0,1.0,7.0,270.0,,,,,,59baf1a2178f1b0001828a26,09:09:24,27/02/2024
html-keyboard-response,222,474612,0.0-92.0-1.0,,"<div style=""display: flex; flex-direction: column; align-items: center; margin-top: -40px;""><img src=""images/pattern_5.png"" style=""width: 234px; height: 230px; margin-top: -50px;""><div style=""display: flex; justify-content: space-between; margin-top: 33px;""><img src=""images/choice_trial_7.png"" style=""width: 408px; height: 417px; margin-left:608px;""></div></div>",,delaylearn,learning,display_response,mRtXV4NP3ffAjrcvUQizGSja4cR2,mRtXV4NP3ffAjrcvUQizGSja4cR2,,,,,,,,,,,,,,,,,chosen stimuli: images/choice_trial_7.png,,,,,59baf1a2178f1b0001828a26,09:09:24,27/02/2024
html-keyboard-response,223,475373,0.0-92.0-2.0,,,,delaylearn,learning,feedback_duration_window,mRtXV4NP3ffAjrcvUQizGSja4cR2,mRtXV4NP3ffAjrcvUQizGSja4cR2,,,,,,,,,,,,,,,,,,750.0,,,,59baf1a2178f1b0001828a26,09:09:24,27/02/2024
html-keyboard-response,224,476884,0.0-92.0-3.0,,<div style='margin:auto;width: auto; font-size: 150%'><span style='font-weight: bold; font-size: 100px; color: green;'>+10 points!</span><br><br></div>,,delaylearn,learning,feedback_image_window,mRtXV4NP3ffAjrcvUQizGSja4cR2,mRtXV4NP3ffAjrcvUQizGSja4cR2,,,,,,,,,,,,,,,,,,,,,,59baf1a2178f1b0001828a26,09:09:24,27/02/2024
html-keyboard-response,225,477389,0.0-93.0-0.0,,,,,,mood_trial_fixation,mRtXV4NP3ffAjrcvUQizGSja4cR2,,,,,,,,,,,,,,,,,,,,,,,59baf1a2178f1b0001828a26,09:09:24,27/02/2024
lmdlab-html-vas-response,226,481043,0.0-93.0-1.0,2640.0,How happy are you right now?,0.6584381675765488,delaylearn,learning,mood_trial,mRtXV4NP3ffAjrcvUQizGSja4cR2,mRtXV4NP3ffAjrcvUQizGSja4cR2,,,,,,,,,,,,,,,,,,,,"['Very unhappy', 'Very happy']",,59baf1a2178f1b0001828a26,09:09:24,27/02/2024
html-keyboard-response,227,482573,0.0-94.0,,"<div style=""font-size:100px;"">+</div>",,delaylearn,learning,ITI,mRtXV4NP3ffAjrcvUQizGSja4cR2,mRtXV4NP3ffAjrcvUQizGSja4cR2,,,,,,,,,,,,,,,,,,,1524.0,,,59baf1a2178f1b0001828a26,09:09:24,27/02/2024
html-keyboard-response,228,483660,0.0-95.0-0.0,1079.800000011921,"<div style=""display: flex; flex-direction: column; align-items: center; margin-top: -40px;""><img src=""images/pattern_4.png"" style=""width: 234px; height: 230px; margin-top: -50px;""><div style=""display: flex; justify-content: space-between; margin-top: 33px;""><img src=""images/choice_trial_11.png"" style=""width: 408px; height: 417px; margin-right: 200px;""><img src=""images/choice_trial_4.png"" style=""width: 408px; height: 417px;""></div></div>",f,delaylearn,learning,trial,mRtXV4NP3ffAjrcvUQizGSja4cR2,mRtXV4NP3ffAjrcvUQizGSja4cR2,5.0,images/choice_trial_11.png,images/choice_trial_4.png,images/pattern_4.png,f,f,7000.0,11.0,4.0,3.0,0.0,41.0,1.0,1.0,11.0,280.0,,,,,,59baf1a2178f1b0001828a26,09:09:24,27/02/2024
html-keyboard-response,229,484668,0.0-95.0-1.0,,"<div style=""display: flex; flex-direction: column; align-items: center; margin-top: -40px;""><img src=""images/pattern_4.png"" style=""width: 234px; height: 230px; margin-top: -50px;""><div style=""display: flex; justify-content: space-between; margin-top: 33px;""><img src=""images/choice_trial_11.png"" style=""width: 408px; height: 417px; margin-right: 608px;""></div></div>",,delaylearn,learning,display_response,mRtXV4NP3ffAjrcvUQizGSja4cR2,mRtXV4NP3ffAjrcvUQizGSja4cR2,,,,,,,,,,,,,,,,,chosen stimuli: images/choice_trial_11.png,,,,,59baf1a2178f1b0001828a26,09:09:24,27/02/2024
html-keyboard-response,230,491677,0.0-95.0-2.0,,,,delaylearn,learning,feedback_duration_window,mRtXV4NP3ffAjrcvUQizGSja4cR2,mRtXV4NP3ffAjrcvUQizGSja4cR2,,,,,,,,,,,,,,,,,,7000.0,,,,59baf1a2178f1b0001828a26,09:09:24,27/02/2024
html-keyboard-response,231,493188,0.0-95.0-3.0,,<div style='margin:auto;width: auto; font-size: 150%'><span style='font-weight: bold; font-size: 100px; color: green;'>+10 points!</span><br><br></div>,,delaylearn,learning,feedback_image_window,mRtXV4NP3ffAjrcvUQizGSja4cR2,mRtXV4NP3ffAjrcvUQizGSja4cR2,,,,,,,,,,,,,,,,,,,,,,59baf1a2178f1b0001828a26,09:09:24,27/02/2024
html-keyboard-response,232,495477,0.0-96.0,,"<div style=""font-size:100px;"">+</div>",,delaylearn,learning,ITI,mRtXV4NP3ffAjrcvUQizGSja4cR2,mRtXV4NP3ffAjrcvUQizGSja4cR2,,,,,,,,,,,,,,,,,,,2283.0,,,59baf1a2178f1b0001828a26,09:09:24,27/02/2024
