trial_type,trial_index,time_elapsed,internal_node_id,rt,stimulus,response,exp_name,exp_stage,test_part,subjectID,databaseID,counterbal,choice_stimuli_1,choice_stimuli_2,pattern_stimuli,rewarded_answer,correct_answer,feedback_duration_times,stim_left,stim_right,pair,leftright_counter,trial,response_correct,response_rewarded,chosen_stim,counter,displayed_choice,feedback_durations,ITI_duration,labels,rest_warning,prolificID,start_time,date
pavlovia,0,414,0.0-0.0,,,,,,,jenb8cxzszdkjsbQLlXayS0suJ73,,,,,,,,,,,,,,,,,,,,,,,65a5418464c0267277a80a1e,09:06:03,27/02/2024
html-keyboard-response,1,3429,0.0-1.0,,"<div style=""font-size:100px;"">+</div>",,delaylearn,learning,pre_fixation,jenb8cxzszdkjsbQLlXayS0suJ73,,,,,,,,,,,,,,,,,,,,,,,65a5418464c0267277a80a1e,09:06:03,27/02/2024
html-keyboard-response,2,4158,0.0-2.0-0.0,728.0,"<div style=""display: flex; flex-direction: column; align-items: center; margin-top: -40px;""><img src=""images/demo_images/pattern_1.png"" style=""width: 234px; height: 230px; margin-top: -50px;""><div style=""display: flex; justify-content: space-between; margin-top: 33px;""><img src=""images/demo_images/choice_trial_2.png"" style=""width: 408px; height: 417px; margin-right: 200px;""><img src=""images/demo_images/choice_trial_1.png"" style=""width: 408px; height: 417px;""></div></div>",j,delaylearn,learning,trial,jenb8cxzszdkjsbQLlXayS0suJ73,jenb8cxzszdkjsbQLlXayS0suJ73,2.0,images/demo_images/choice_trial_2.png,images/demo_images/choice_trial_1.png,images/demo_images/pattern_1.png,j,j,3000.0,2.0,1.0,20.0,1.0,1.0,1.0,1.0,1.0,10.0,,,,,,65a5418464c0267277a80a1e,09:06:03,27/02/2024
html-keyboard-response,3,5161,0.0-2.0-1.0,,"<div style=""display: flex; flex-direction: column; align-items: center; margin-top: -40px;""><img src=""images/demo_images/pattern_1.png"" style=""width: 234px; height: 230px; margin-top: -50px;""><div style=""display: flex; justify-content: space-between; margin-top: 33px;""><img src=""images/demo_images/choice_trial_1.png"" style=""width: 408px; height: 417px; margin-left:608px;""></div></div>",,delaylearn,learning,display_response,jenb8cxzszdkjsbQLlXayS0suJ73,jenb8cxzszdkjsbQLlXayS0suJ73,,,,,,,,,,,,,,,,,chosen stimuli: images/demo_images/choice_trial_1.png,,,,,65a5418464c0267277a80a1e,09:06:03,27/02/2024
html-keyboard-response,4,8171,0.0-2.0-2.0,,,,delaylearn,learning,feedback_duration_window,jenb8cxzszdkjsbQLlXayS0suJ73,jenb8cxzszdkjsbQLlXayS0suJ73,,,,,,,,,,,,,,,,,,3000.0,,,,65a5418464c0267277a80a1e,09:06:03,27/02/2024
html-keyboard-response,5,9673,0.0-2.0-3.0,,<div style='margin:auto;width: auto; font-size: 150%'><span style='font-weight: bold; font-size: 100px; color: green;'>+10 points!</span><br><br></div>,,delaylearn,learning,feedback_image_window,jenb8cxzszdkjsbQLlXayS0suJ73,jenb8cxzszdkjsbQLlXayS0suJ73,,,,,,,,,,,,,,,,,,,,,,65a5418464c0267277a80a1e,09:06:03,27/02/2024
html-keyboard-response,6,11926,0.0-3.0,,"<div style=""font-size:100px;"">+</div>",,delaylearn,learning,ITI,jenb8cxzszdkjsbQLlXayS0suJ73,jenb8cxzszdkjsbQLlXayS0suJ73,,,,,,,,,,,,,,,,,,,2243.0,,,65a5418464c0267277a80a1e,09:06:03,27/02/2024
html-keyboard-response,7,12608,0.0-4.0-0.0,681.3000000119209,"<div style=""display: flex; flex-direction: column; align-items: center; margin-top: -40px;""><img src=""images/demo_images/pattern_1.png"" style=""width: 234px; height: 230px; margin-top: -50px;""><div style=""display: flex; justify-content: space-between; margin-top: 33px;""><img src=""images/demo_images/choice_trial_2.png"" style=""width: 408px; height: 417px; margin-right: 200px;""><img src=""images/demo_images/choice_trial_1.png"" style=""width: 408px; height: 417px;""></div></div>",j,delaylearn,learning,trial,jenb8cxzszdkjsbQLlXayS0suJ73,jenb8cxzszdkjsbQLlXayS0suJ73,2.0,images/demo_images/choice_trial_2.png,images/demo_images/choice_trial_1.png,images/demo_images/pattern_1.png,j,j,3000.0,2.0,1.0,20.0,1.0,2.0,1.0,1.0,1.0,20.0,,,,,,65a5418464c0267277a80a1e,09:06:03,27/02/2024
html-keyboard-response,8,13612,0.0-4.0-1.0,,"<div style=""display: flex; flex-direction: column; align-items: center; margin-top: -40px;""><img src=""images/demo_images/pattern_1.png"" style=""width: 234px; height: 230px; margin-top: -50px;""><div style=""display: flex; justify-content: space-between; margin-top: 33px;""><img src=""images/demo_images/choice_trial_1.png"" style=""width: 408px; height: 417px; margin-left:608px;""></div></div>",,delaylearn,learning,display_response,jenb8cxzszdkjsbQLlXayS0suJ73,jenb8cxzszdkjsbQLlXayS0suJ73,,,,,,,,,,,,,,,,,chosen stimuli: images/demo_images/choice_trial_1.png,,,,,65a5418464c0267277a80a1e,09:06:03,27/02/2024
html-keyboard-response,9,16627,0.0-4.0-2.0,,,,delaylearn,learning,feedback_duration_window,jenb8cxzszdkjsbQLlXayS0suJ73,jenb8cxzszdkjsbQLlXayS0suJ73,,,,,,,,,,,,,,,,,,3000.0,,,,65a5418464c0267277a80a1e,09:06:03,27/02/2024
html-keyboard-response,10,18139,0.0-4.0-3.0,,<div style='margin:auto;width: auto; font-size: 150%'><span style='font-weight: bold; font-size: 100px; color: green;'>+10 points!</span><br><br></div>,,delaylearn,learning,feedback_image_window,jenb8cxzszdkjsbQLlXayS0suJ73,jenb8cxzszdkjsbQLlXayS0suJ73,,,,,,,,,,,,,,,,,,,,,,65a5418464c0267277a80a1e,09:06:03,27/02/2024
html-keyboard-response,11,20554,0.0-5.0,,"<div style=""font-size:100px;"">+</div>",,delaylearn,learning,ITI,jenb8cxzszdkjsbQLlXayS0suJ73,jenb8cxzszdkjsbQLlXayS0suJ73,,,,,,,,,,,,,,,,,,,2407.0,,,65a5418464c0267277a80a1e,09:06:03,27/02/2024
html-keyboard-response,12,21021,0.0-6.0-0.0,466.30000001192093,"<div style=""display: flex; flex-direction: column; align-items: center; margin-top: -40px;""><img src=""images/demo_images/pattern_1.png"" style=""width: 234px; height: 230px; margin-top: -50px;""><div style=""display: flex; justify-content: space-between; margin-top: 33px;""><img src=""images/demo_images/choice_trial_1.png"" style=""width: 408px; height: 417px; margin-right: 200px;""><img src=""images/demo_images/choice_trial_2.png"" style=""width: 408px; height: 417px;""></div></div>",f,delaylearn,learning,trial,jenb8cxzszdkjsbQLlXayS0suJ73,jenb8cxzszdkjsbQLlXayS0suJ73,2.0,images/demo_images/choice_trial_1.png,images/demo_images/choice_trial_2.png,images/demo_images/pattern_1.png,j,f,3000.0,1.0,2.0,20.0,0.0,3.0,1.0,0.0,1.0,20.0,,,,,,65a5418464c0267277a80a1e,09:06:03,27/02/2024
html-keyboard-response,13,22037,0.0-6.0-1.0,,"<div style=""display: flex; flex-direction: column; align-items: center; margin-top: -40px;""><img src=""images/demo_images/pattern_1.png"" style=""width: 234px; height: 230px; margin-top: -50px;""><div style=""display: flex; justify-content: space-between; margin-top: 33px;""><img src=""images/demo_images/choice_trial_1.png"" style=""width: 408px; height: 417px; margin-right: 608px;""></div></div>",,delaylearn,learning,display_response,jenb8cxzszdkjsbQLlXayS0suJ73,jenb8cxzszdkjsbQLlXayS0suJ73,,,,,,,,,,,,,,,,,chosen stimuli: images/demo_images/choice_trial_1.png,,,,,65a5418464c0267277a80a1e,09:06:03,27/02/2024
html-keyboard-response,14,25042,0.0-6.0-2.0,,,,delaylearn,learning,feedback_duration_window,jenb8cxzszdkjsbQLlXayS0suJ73,jenb8cxzszdkjsbQLlXayS0suJ73,,,,,,,,,,,,,,,,,,3000.0,,,,65a5418464c0267277a80a1e,09:06:03,27/02/2024
html-keyboard-response,15,26554,0.0-6.0-3.0,,<div style='margin:auto;width: auto; font-size: 150%'><span style='font-weight: bold; font-size: 100px; color: red;'>0 points!</span><br><br></div>,,delaylearn,learning,feedback_image_window,jenb8cxzszdkjsbQLlXayS0suJ73,jenb8cxzszdkjsbQLlXayS0suJ73,,,,,,,,,,,,,,,,,,,,,,65a5418464c0267277a80a1e,09:06:03,27/02/2024
html-keyboard-response,16,28936,0.0-7.0,,"<div style=""font-size:100px;"">+</div>",,delaylearn,learning,ITI,jenb8cxzszdkjsbQLlXayS0suJ73,jenb8cxzszdkjsbQLlXayS0suJ73,,,,,,,,,,,,,,,,,,,2371.0,,,65a5418464c0267277a80a1e,09:06:03,27/02/2024
html-keyboard-response,17,30491,0.0-8.0-0.0,1554.300000011921,"<div style=""display: flex; flex-direction: column; align-items: center; margin-top: -40px;""><img src=""images/demo_images/pattern_1.png"" style=""width: 234px; height: 230px; margin-top: -50px;""><div style=""display: flex; justify-content: space-between; margin-top: 33px;""><img src=""images/demo_images/choice_trial_1.png"" style=""width: 408px; height: 417px; margin-right: 200px;""><img src=""images/demo_images/choice_trial_2.png"" style=""width: 408px; height: 417px;""></div></div>",f,delaylearn,learning,trial,jenb8cxzszdkjsbQLlXayS0suJ73,jenb8cxzszdkjsbQLlXayS0suJ73,2.0,images/demo_images/choice_trial_1.png,images/demo_images/choice_trial_2.png,images/demo_images/pattern_1.png,f,f,3000.0,1.0,2.0,20.0,0.0,4.0,1.0,1.0,1.0,30.0,,,,,,65a5418464c0267277a80a1e,09:06:03,27/02/2024
html-keyboard-response,18,31498,0.0-8.0-1.0,,"<div style=""display: flex; flex-direction: column; align-items: center; margin-top: -40px;""><img src=""images/demo_images/pattern_1.png"" style=""width: 234px; height: 230px; margin-top: -50px;""><div style=""display: flex; justify-content: space-between; margin-top: 33px;""><img src=""images/demo_images/choice_trial_1.png"" style=""width: 408px; height: 417px; margin-right: 608px;""></div></div>",,delaylearn,learning,display_response,jenb8cxzszdkjsbQLlXayS0suJ73,jenb8cxzszdkjsbQLlXayS0suJ73,,,,,,,,,,,,,,,,,chosen stimuli: images/demo_images/choice_trial_1.png,,,,,65a5418464c0267277a80a1e,09:06:03,27/02/2024
html-keyboard-response,19,34499,0.0-8.0-2.0,,,,delaylearn,learning,feedback_duration_window,jenb8cxzszdkjsbQLlXayS0suJ73,jenb8cxzszdkjsbQLlXayS0suJ73,,,,,,,,,,,,,,,,,,3000.0,,,,65a5418464c0267277a80a1e,09:06:03,27/02/2024
html-keyboard-response,20,36002,0.0-8.0-3.0,,<div style='margin:auto;width: auto; font-size: 150%'><span style='font-weight: bold; font-size: 100px; color: green;'>+10 points!</span><br><br></div>,,delaylearn,learning,feedback_image_window,jenb8cxzszdkjsbQLlXayS0suJ73,jenb8cxzszdkjsbQLlXayS0suJ73,,,,,,,,,,,,,,,,,,,,,,65a5418464c0267277a80a1e,09:06:03,27/02/2024
html-keyboard-response,21,36514,0.0-9.0-0.0,,,,,,mood_trial_fixation,jenb8cxzszdkjsbQLlXayS0suJ73,,,,,,,,,,,,,,,,,,,,,,,65a5418464c0267277a80a1e,09:06:03,27/02/2024
lmdlab-html-vas-response,22,41164,0.0-9.0-1.0,3642.0,How happy are you right now?,0.845679012345679,delaylearn,learning,mood_trial,jenb8cxzszdkjsbQLlXayS0suJ73,jenb8cxzszdkjsbQLlXayS0suJ73,,,,,,,,,,,,,,,,,,,,"['Very unhappy', 'Very happy']",,65a5418464c0267277a80a1e,09:06:03,27/02/2024
html-keyboard-response,23,42716,0.0-10.0,,"<div style=""font-size:100px;"">+</div>",,delaylearn,learning,ITI,jenb8cxzszdkjsbQLlXayS0suJ73,jenb8cxzszdkjsbQLlXayS0suJ73,,,,,,,,,,,,,,,,,,,1538.0,,,65a5418464c0267277a80a1e,09:06:03,27/02/2024
html-keyboard-response,24,43201,0.0-11.0-0.0,483.80000001192093,"<div style=""display: flex; flex-direction: column; align-items: center; margin-top: -40px;""><img src=""images/demo_images/pattern_1.png"" style=""width: 234px; height: 230px; margin-top: -50px;""><div style=""display: flex; justify-content: space-between; margin-top: 33px;""><img src=""images/demo_images/choice_trial_2.png"" style=""width: 408px; height: 417px; margin-right: 200px;""><img src=""images/demo_images/choice_trial_1.png"" style=""width: 408px; height: 417px;""></div></div>",j,delaylearn,learning,trial,jenb8cxzszdkjsbQLlXayS0suJ73,jenb8cxzszdkjsbQLlXayS0suJ73,2.0,images/demo_images/choice_trial_2.png,images/demo_images/choice_trial_1.png,images/demo_images/pattern_1.png,j,j,3000.0,2.0,1.0,20.0,1.0,5.0,1.0,1.0,1.0,40.0,,,,,,65a5418464c0267277a80a1e,09:06:03,27/02/2024
html-keyboard-response,25,44216,0.0-11.0-1.0,,"<div style=""display: flex; flex-direction: column; align-items: center; margin-top: -40px;""><img src=""images/demo_images/pattern_1.png"" style=""width: 234px; height: 230px; margin-top: -50px;""><div style=""display: flex; justify-content: space-between; margin-top: 33px;""><img src=""images/demo_images/choice_trial_1.png"" style=""width: 408px; height: 417px; margin-left:608px;""></div></div>",,delaylearn,learning,display_response,jenb8cxzszdkjsbQLlXayS0suJ73,jenb8cxzszdkjsbQLlXayS0suJ73,,,,,,,,,,,,,,,,,chosen stimuli: images/demo_images/choice_trial_1.png,,,,,65a5418464c0267277a80a1e,09:06:03,27/02/2024
html-keyboard-response,26,47224,0.0-11.0-2.0,,,,delaylearn,learning,feedback_duration_window,jenb8cxzszdkjsbQLlXayS0suJ73,jenb8cxzszdkjsbQLlXayS0suJ73,,,,,,,,,,,,,,,,,,3000.0,,,,65a5418464c0267277a80a1e,09:06:03,27/02/2024
html-keyboard-response,27,48737,0.0-11.0-3.0,,<div style='margin:auto;width: auto; font-size: 150%'><span style='font-weight: bold; font-size: 100px; color: green;'>+10 points!</span><br><br></div>,,delaylearn,learning,feedback_image_window,jenb8cxzszdkjsbQLlXayS0suJ73,jenb8cxzszdkjsbQLlXayS0suJ73,,,,,,,,,,,,,,,,,,,,,,65a5418464c0267277a80a1e,09:06:03,27/02/2024
html-keyboard-response,28,50901,0.0-12.0,,"<div style=""font-size:100px;"">+</div>",,delaylearn,learning,ITI,jenb8cxzszdkjsbQLlXayS0suJ73,jenb8cxzszdkjsbQLlXayS0suJ73,,,,,,,,,,,,,,,,,,,2151.0,,,65a5418464c0267277a80a1e,09:06:03,27/02/2024
html-keyboard-response,29,51330,0.0-13.0-0.0,428.0999999642372,"<div style=""display: flex; flex-direction: column; align-items: center; margin-top: -40px;""><img src=""images/demo_images/pattern_1.png"" style=""width: 234px; height: 230px; margin-top: -50px;""><div style=""display: flex; justify-content: space-between; margin-top: 33px;""><img src=""images/demo_images/choice_trial_1.png"" style=""width: 408px; height: 417px; margin-right: 200px;""><img src=""images/demo_images/choice_trial_2.png"" style=""width: 408px; height: 417px;""></div></div>",f,delaylearn,learning,trial,jenb8cxzszdkjsbQLlXayS0suJ73,jenb8cxzszdkjsbQLlXayS0suJ73,2.0,images/demo_images/choice_trial_1.png,images/demo_images/choice_trial_2.png,images/demo_images/pattern_1.png,f,f,3000.0,1.0,2.0,20.0,0.0,6.0,1.0,1.0,1.0,50.0,,,,,,65a5418464c0267277a80a1e,09:06:03,27/02/2024
html-keyboard-response,30,52346,0.0-13.0-1.0,,"<div style=""display: flex; flex-direction: column; align-items: center; margin-top: -40px;""><img src=""images/demo_images/pattern_1.png"" style=""width: 234px; height: 230px; margin-top: -50px;""><div style=""display: flex; justify-content: space-between; margin-top: 33px;""><img src=""images/demo_images/choice_trial_1.png"" style=""width: 408px; height: 417px; margin-right: 608px;""></div></div>",,delaylearn,learning,display_response,jenb8cxzszdkjsbQLlXayS0suJ73,jenb8cxzszdkjsbQLlXayS0suJ73,,,,,,,,,,,,,,,,,chosen stimuli: images/demo_images/choice_trial_1.png,,,,,65a5418464c0267277a80a1e,09:06:03,27/02/2024
html-keyboard-response,31,55356,0.0-13.0-2.0,,,,delaylearn,learning,feedback_duration_window,jenb8cxzszdkjsbQLlXayS0suJ73,jenb8cxzszdkjsbQLlXayS0suJ73,,,,,,,,,,,,,,,,,,3000.0,,,,65a5418464c0267277a80a1e,09:06:03,27/02/2024
html-keyboard-response,32,56866,0.0-13.0-3.0,,<div style='margin:auto;width: auto; font-size: 150%'><span style='font-weight: bold; font-size: 100px; color: green;'>+10 points!</span><br><br></div>,,delaylearn,learning,feedback_image_window,jenb8cxzszdkjsbQLlXayS0suJ73,jenb8cxzszdkjsbQLlXayS0suJ73,,,,,,,,,,,,,,,,,,,,,,65a5418464c0267277a80a1e,09:06:03,27/02/2024
html-button-response,33,58589,0.0-14.0,1722.0999999642372,"
  <div style=""display: flex; align-items: center; justify-content: center; height: 80vh;"">
  <div>
          <img src=""images/inst_demo_finish.png"" style=""width: 80vw; height:auto;"">
          <br><br>
      </div>
      <br><br>
  </div>",0,,,,jenb8cxzszdkjsbQLlXayS0suJ73,,,,,,,,,,,,,,,,,,,,,,,65a5418464c0267277a80a1e,09:06:03,27/02/2024
html-keyboard-response,34,61968,0.0-15.0,3378.699999988079,"
  <div style=""display: flex; align-items: center; justify-content: center; height: 80vh;"">
  <div>
          <img src=""images/inst_6.png"" style=""width: 80vw; height:auto;"">
          <br><br>
      </div>
      <br><br>
  </div>",j,,,,jenb8cxzszdkjsbQLlXayS0suJ73,,,,,,,,,,,,,,,,,,,,,,,65a5418464c0267277a80a1e,09:06:03,27/02/2024
html-keyboard-response,35,64973,0.0-16.0,,"<div style=""font-size:100px;"">+</div>",,delaylearn,learning,pre_fixation,jenb8cxzszdkjsbQLlXayS0suJ73,,,,,,,,,,,,,,,,,,,,,,,65a5418464c0267277a80a1e,09:06:03,27/02/2024
html-keyboard-response,36,67079,0.0-17.0,,"<div style=""font-size:100px;"">+</div>",,delaylearn,learning,ITI,jenb8cxzszdkjsbQLlXayS0suJ73,jenb8cxzszdkjsbQLlXayS0suJ73,,,,,,,,,,,,,,,,,,,2104.0,,,65a5418464c0267277a80a1e,09:06:03,27/02/2024
html-keyboard-response,37,67874,0.0-18.0-0.0,794.9000000357628,"<div style=""display: flex; flex-direction: column; align-items: center; margin-top: -40px;""><img src=""images/pattern_3.png"" style=""width: 234px; height: 230px; margin-top: -50px;""><div style=""display: flex; justify-content: space-between; margin-top: 33px;""><img src=""images/choice_trial_12.png"" style=""width: 408px; height: 417px; margin-right: 200px;""><img src=""images/choice_trial_14.png"" style=""width: 408px; height: 417px;""></div></div>",j,delaylearn,learning,trial,jenb8cxzszdkjsbQLlXayS0suJ73,jenb8cxzszdkjsbQLlXayS0suJ73,2.0,images/choice_trial_12.png,images/choice_trial_14.png,images/pattern_3.png,f,f,7000.0,12.0,14.0,2.0,0.0,7.0,0.0,0.0,14.0,50.0,,,,,,65a5418464c0267277a80a1e,09:06:03,27/02/2024
html-keyboard-response,38,68885,0.0-18.0-1.0,,"<div style=""display: flex; flex-direction: column; align-items: center; margin-top: -40px;""><img src=""images/pattern_3.png"" style=""width: 234px; height: 230px; margin-top: -50px;""><div style=""display: flex; justify-content: space-between; margin-top: 33px;""><img src=""images/choice_trial_14.png"" style=""width: 408px; height: 417px; margin-left:608px;""></div></div>",,delaylearn,learning,display_response,jenb8cxzszdkjsbQLlXayS0suJ73,jenb8cxzszdkjsbQLlXayS0suJ73,,,,,,,,,,,,,,,,,chosen stimuli: images/choice_trial_14.png,,,,,65a5418464c0267277a80a1e,09:06:03,27/02/2024
html-keyboard-response,39,75890,0.0-18.0-2.0,,,,delaylearn,learning,feedback_duration_window,jenb8cxzszdkjsbQLlXayS0suJ73,jenb8cxzszdkjsbQLlXayS0suJ73,,,,,,,,,,,,,,,,,,7000.0,,,,65a5418464c0267277a80a1e,09:06:03,27/02/2024
html-keyboard-response,40,77399,0.0-18.0-3.0,,<div style='margin:auto;width: auto; font-size: 150%'><span style='font-weight: bold; font-size: 100px; color: red;'>0 points!</span><br><br></div>,,delaylearn,learning,feedback_image_window,jenb8cxzszdkjsbQLlXayS0suJ73,jenb8cxzszdkjsbQLlXayS0suJ73,,,,,,,,,,,,,,,,,,,,,,65a5418464c0267277a80a1e,09:06:03,27/02/2024
html-keyboard-response,41,79061,0.0-19.0,,"<div style=""font-size:100px;"">+</div>",,delaylearn,learning,ITI,jenb8cxzszdkjsbQLlXayS0suJ73,jenb8cxzszdkjsbQLlXayS0suJ73,,,,,,,,,,,,,,,,,,,1647.0,,,65a5418464c0267277a80a1e,09:06:03,27/02/2024
html-keyboard-response,42,80685,0.0-20.0-0.0,1623.1000000238419,"<div style=""display: flex; flex-direction: column; align-items: center; margin-top: -40px;""><img src=""images/pattern_7.png"" style=""width: 234px; height: 230px; margin-top: -50px;""><div style=""display: flex; justify-content: space-between; margin-top: 33px;""><img src=""images/choice_trial_15.png"" style=""width: 408px; height: 417px; margin-right: 200px;""><img src=""images/choice_trial_8.png"" style=""width: 408px; height: 417px;""></div></div>",f,delaylearn,learning,trial,jenb8cxzszdkjsbQLlXayS0suJ73,jenb8cxzszdkjsbQLlXayS0suJ73,2.0,images/choice_trial_15.png,images/choice_trial_8.png,images/pattern_7.png,j,j,750.0,15.0,8.0,6.0,1.0,8.0,0.0,0.0,15.0,50.0,,,,,,65a5418464c0267277a80a1e,09:06:03,27/02/2024
html-keyboard-response,43,81692,0.0-20.0-1.0,,"<div style=""display: flex; flex-direction: column; align-items: center; margin-top: -40px;""><img src=""images/pattern_7.png"" style=""width: 234px; height: 230px; margin-top: -50px;""><div style=""display: flex; justify-content: space-between; margin-top: 33px;""><img src=""images/choice_trial_15.png"" style=""width: 408px; height: 417px; margin-right: 608px;""></div></div>",,delaylearn,learning,display_response,jenb8cxzszdkjsbQLlXayS0suJ73,jenb8cxzszdkjsbQLlXayS0suJ73,,,,,,,,,,,,,,,,,chosen stimuli: images/choice_trial_15.png,,,,,65a5418464c0267277a80a1e,09:06:03,27/02/2024
html-keyboard-response,44,82456,0.0-20.0-2.0,,,,delaylearn,learning,feedback_duration_window,jenb8cxzszdkjsbQLlXayS0suJ73,jenb8cxzszdkjsbQLlXayS0suJ73,,,,,,,,,,,,,,,,,,750.0,,,,65a5418464c0267277a80a1e,09:06:03,27/02/2024
html-keyboard-response,45,83961,0.0-20.0-3.0,,<div style='margin:auto;width: auto; font-size: 150%'><span style='font-weight: bold; font-size: 100px; color: red;'>0 points!</span><br><br></div>,,delaylearn,learning,feedback_image_window,jenb8cxzszdkjsbQLlXayS0suJ73,jenb8cxzszdkjsbQLlXayS0suJ73,,,,,,,,,,,,,,,,,,,,,,65a5418464c0267277a80a1e,09:06:03,27/02/2024
html-keyboard-response,46,86251,0.0-21.0,,"<div style=""font-size:100px;"">+</div>",,delaylearn,learning,ITI,jenb8cxzszdkjsbQLlXayS0suJ73,jenb8cxzszdkjsbQLlXayS0suJ73,,,,,,,,,,,,,,,,,,,2284.0,,,65a5418464c0267277a80a1e,09:06:03,27/02/2024
html-keyboard-response,47,87175,0.0-22.0-0.0,923.8000000119209,"<div style=""display: flex; flex-direction: column; align-items: center; margin-top: -40px;""><img src=""images/pattern_4.png"" style=""width: 234px; height: 230px; margin-top: -50px;""><div style=""display: flex; justify-content: space-between; margin-top: 33px;""><img src=""images/choice_trial_4.png"" style=""width: 408px; height: 417px; margin-right: 200px;""><img src=""images/choice_trial_16.png"" style=""width: 408px; height: 417px;""></div></div>",j,delaylearn,learning,trial,jenb8cxzszdkjsbQLlXayS0suJ73,jenb8cxzszdkjsbQLlXayS0suJ73,2.0,images/choice_trial_4.png,images/choice_trial_16.png,images/pattern_4.png,f,f,7000.0,4.0,16.0,3.0,0.0,9.0,0.0,0.0,16.0,50.0,,,,,,65a5418464c0267277a80a1e,09:06:03,27/02/2024
html-keyboard-response,48,88182,0.0-22.0-1.0,,"<div style=""display: flex; flex-direction: column; align-items: center; margin-top: -40px;""><img src=""images/pattern_4.png"" style=""width: 234px; height: 230px; margin-top: -50px;""><div style=""display: flex; justify-content: space-between; margin-top: 33px;""><img src=""images/choice_trial_16.png"" style=""width: 408px; height: 417px; margin-left:608px;""></div></div>",,delaylearn,learning,display_response,jenb8cxzszdkjsbQLlXayS0suJ73,jenb8cxzszdkjsbQLlXayS0suJ73,,,,,,,,,,,,,,,,,chosen stimuli: images/choice_trial_16.png,,,,,65a5418464c0267277a80a1e,09:06:03,27/02/2024
html-keyboard-response,49,95193,0.0-22.0-2.0,,,,delaylearn,learning,feedback_duration_window,jenb8cxzszdkjsbQLlXayS0suJ73,jenb8cxzszdkjsbQLlXayS0suJ73,,,,,,,,,,,,,,,,,,7000.0,,,,65a5418464c0267277a80a1e,09:06:03,27/02/2024
html-keyboard-response,50,96707,0.0-22.0-3.0,,<div style='margin:auto;width: auto; font-size: 150%'><span style='font-weight: bold; font-size: 100px; color: red;'>0 points!</span><br><br></div>,,delaylearn,learning,feedback_image_window,jenb8cxzszdkjsbQLlXayS0suJ73,jenb8cxzszdkjsbQLlXayS0suJ73,,,,,,,,,,,,,,,,,,,,,,65a5418464c0267277a80a1e,09:06:03,27/02/2024
html-keyboard-response,51,98283,0.0-23.0,,"<div style=""font-size:100px;"">+</div>",,delaylearn,learning,ITI,jenb8cxzszdkjsbQLlXayS0suJ73,jenb8cxzszdkjsbQLlXayS0suJ73,,,,,,,,,,,,,,,,,,,1561.0,,,65a5418464c0267277a80a1e,09:06:03,27/02/2024
html-keyboard-response,52,99526,0.0-24.0-0.0,1243.0,"<div style=""display: flex; flex-direction: column; align-items: center; margin-top: -40px;""><img src=""images/pattern_5.png"" style=""width: 234px; height: 230px; margin-top: -50px;""><div style=""display: flex; justify-content: space-between; margin-top: 33px;""><img src=""images/choice_trial_9.png"" style=""width: 408px; height: 417px; margin-right: 200px;""><img src=""images/choice_trial_2.png"" style=""width: 408px; height: 417px;""></div></div>",f,delaylearn,learning,trial,jenb8cxzszdkjsbQLlXayS0suJ73,jenb8cxzszdkjsbQLlXayS0suJ73,2.0,images/choice_trial_9.png,images/choice_trial_2.png,images/pattern_5.png,j,j,750.0,9.0,2.0,4.0,1.0,10.0,0.0,0.0,9.0,50.0,,,,,,65a5418464c0267277a80a1e,09:06:03,27/02/2024
html-keyboard-response,53,100527,0.0-24.0-1.0,,"<div style=""display: flex; flex-direction: column; align-items: center; margin-top: -40px;""><img src=""images/pattern_5.png"" style=""width: 234px; height: 230px; margin-top: -50px;""><div style=""display: flex; justify-content: space-between; margin-top: 33px;""><img src=""images/choice_trial_9.png"" style=""width: 408px; height: 417px; margin-right: 608px;""></div></div>",,delaylearn,learning,display_response,jenb8cxzszdkjsbQLlXayS0suJ73,jenb8cxzszdkjsbQLlXayS0suJ73,,,,,,,,,,,,,,,,,chosen stimuli: images/choice_trial_9.png,,,,,65a5418464c0267277a80a1e,09:06:03,27/02/2024
html-keyboard-response,54,101284,0.0-24.0-2.0,,,,delaylearn,learning,feedback_duration_window,jenb8cxzszdkjsbQLlXayS0suJ73,jenb8cxzszdkjsbQLlXayS0suJ73,,,,,,,,,,,,,,,,,,750.0,,,,65a5418464c0267277a80a1e,09:06:03,27/02/2024
html-keyboard-response,55,102801,0.0-24.0-3.0,,<div style='margin:auto;width: auto; font-size: 150%'><span style='font-weight: bold; font-size: 100px; color: red;'>0 points!</span><br><br></div>,,delaylearn,learning,feedback_image_window,jenb8cxzszdkjsbQLlXayS0suJ73,jenb8cxzszdkjsbQLlXayS0suJ73,,,,,,,,,,,,,,,,,,,,,,65a5418464c0267277a80a1e,09:06:03,27/02/2024
html-keyboard-response,56,104974,0.0-25.0,,"<div style=""font-size:100px;"">+</div>",,delaylearn,learning,ITI,jenb8cxzszdkjsbQLlXayS0suJ73,jenb8cxzszdkjsbQLlXayS0suJ73,,,,,,,,,,,,,,,,,,,2160.0,,,65a5418464c0267277a80a1e,09:06:03,27/02/2024
html-keyboard-response,57,106131,0.0-26.0-0.0,1156.1000000238419,"<div style=""display: flex; flex-direction: column; align-items: center; margin-top: -40px;""><img src=""images/pattern_6.png"" style=""width: 234px; height: 230px; margin-top: -50px;""><div style=""display: flex; justify-content: space-between; margin-top: 33px;""><img src=""images/choice_trial_11.png"" style=""width: 408px; height: 417px; margin-right: 200px;""><img src=""images/choice_trial_5.png"" style=""width: 408px; height: 417px;""></div></div>",j,delaylearn,learning,trial,jenb8cxzszdkjsbQLlXayS0suJ73,jenb8cxzszdkjsbQLlXayS0suJ73,2.0,images/choice_trial_11.png,images/choice_trial_5.png,images/pattern_6.png,j,f,750.0,11.0,5.0,5.0,0.0,11.0,0.0,1.0,5.0,60.0,,,,,,65a5418464c0267277a80a1e,09:06:03,27/02/2024
html-keyboard-response,58,107142,0.0-26.0-1.0,,"<div style=""display: flex; flex-direction: column; align-items: center; margin-top: -40px;""><img src=""images/pattern_6.png"" style=""width: 234px; height: 230px; margin-top: -50px;""><div style=""display: flex; justify-content: space-between; margin-top: 33px;""><img src=""images/choice_trial_5.png"" style=""width: 408px; height: 417px; margin-left:608px;""></div></div>",,delaylearn,learning,display_response,jenb8cxzszdkjsbQLlXayS0suJ73,jenb8cxzszdkjsbQLlXayS0suJ73,,,,,,,,,,,,,,,,,chosen stimuli: images/choice_trial_5.png,,,,,65a5418464c0267277a80a1e,09:06:03,27/02/2024
html-keyboard-response,59,107895,0.0-26.0-2.0,,,,delaylearn,learning,feedback_duration_window,jenb8cxzszdkjsbQLlXayS0suJ73,jenb8cxzszdkjsbQLlXayS0suJ73,,,,,,,,,,,,,,,,,,750.0,,,,65a5418464c0267277a80a1e,09:06:03,27/02/2024
html-keyboard-response,60,109404,0.0-26.0-3.0,,<div style='margin:auto;width: auto; font-size: 150%'><span style='font-weight: bold; font-size: 100px; color: green;'>+10 points!</span><br><br></div>,,delaylearn,learning,feedback_image_window,jenb8cxzszdkjsbQLlXayS0suJ73,jenb8cxzszdkjsbQLlXayS0suJ73,,,,,,,,,,,,,,,,,,,,,,65a5418464c0267277a80a1e,09:06:03,27/02/2024
html-keyboard-response,61,109907,0.0-27.0-0.0,,,,,,mood_trial_fixation,jenb8cxzszdkjsbQLlXayS0suJ73,,,,,,,,,,,,,,,,,,,,,,,65a5418464c0267277a80a1e,09:06:03,27/02/2024
lmdlab-html-vas-response,62,113868,0.0-27.0-1.0,2951.0,How happy are you right now?,0.8935185185185185,delaylearn,learning,mood_trial,jenb8cxzszdkjsbQLlXayS0suJ73,jenb8cxzszdkjsbQLlXayS0suJ73,,,,,,,,,,,,,,,,,,,,"['Very unhappy', 'Very happy']",,65a5418464c0267277a80a1e,09:06:03,27/02/2024
html-keyboard-response,63,116167,0.0-28.0,,"<div style=""font-size:100px;"">+</div>",,delaylearn,learning,ITI,jenb8cxzszdkjsbQLlXayS0suJ73,jenb8cxzszdkjsbQLlXayS0suJ73,,,,,,,,,,,,,,,,,,,2285.0,,,65a5418464c0267277a80a1e,09:06:03,27/02/2024
html-keyboard-response,64,117089,0.0-29.0-0.0,921.5,"<div style=""display: flex; flex-direction: column; align-items: center; margin-top: -40px;""><img src=""images/pattern_1.png"" style=""width: 234px; height: 230px; margin-top: -50px;""><div style=""display: flex; justify-content: space-between; margin-top: 33px;""><img src=""images/choice_trial_10.png"" style=""width: 408px; height: 417px; margin-right: 200px;""><img src=""images/choice_trial_3.png"" style=""width: 408px; height: 417px;""></div></div>",j,delaylearn,learning,trial,jenb8cxzszdkjsbQLlXayS0suJ73,jenb8cxzszdkjsbQLlXayS0suJ73,2.0,images/choice_trial_10.png,images/choice_trial_3.png,images/pattern_1.png,j,j,7000.0,10.0,3.0,1.0,1.0,12.0,1.0,1.0,3.0,70.0,,,,,,65a5418464c0267277a80a1e,09:06:03,27/02/2024
html-keyboard-response,65,118095,0.0-29.0-1.0,,"<div style=""display: flex; flex-direction: column; align-items: center; margin-top: -40px;""><img src=""images/pattern_1.png"" style=""width: 234px; height: 230px; margin-top: -50px;""><div style=""display: flex; justify-content: space-between; margin-top: 33px;""><img src=""images/choice_trial_3.png"" style=""width: 408px; height: 417px; margin-left:608px;""></div></div>",,delaylearn,learning,display_response,jenb8cxzszdkjsbQLlXayS0suJ73,jenb8cxzszdkjsbQLlXayS0suJ73,,,,,,,,,,,,,,,,,chosen stimuli: images/choice_trial_3.png,,,,,65a5418464c0267277a80a1e,09:06:03,27/02/2024
html-keyboard-response,66,125107,0.0-29.0-2.0,,,,delaylearn,learning,feedback_duration_window,jenb8cxzszdkjsbQLlXayS0suJ73,jenb8cxzszdkjsbQLlXayS0suJ73,,,,,,,,,,,,,,,,,,7000.0,,,,65a5418464c0267277a80a1e,09:06:03,27/02/2024
html-keyboard-response,67,126620,0.0-29.0-3.0,,<div style='margin:auto;width: auto; font-size: 150%'><span style='font-weight: bold; font-size: 100px; color: green;'>+10 points!</span><br><br></div>,,delaylearn,learning,feedback_image_window,jenb8cxzszdkjsbQLlXayS0suJ73,jenb8cxzszdkjsbQLlXayS0suJ73,,,,,,,,,,,,,,,,,,,,,,65a5418464c0267277a80a1e,09:06:03,27/02/2024
html-keyboard-response,68,128790,0.0-30.0,,"<div style=""font-size:100px;"">+</div>",,delaylearn,learning,ITI,jenb8cxzszdkjsbQLlXayS0suJ73,jenb8cxzszdkjsbQLlXayS0suJ73,,,,,,,,,,,,,,,,,,,2165.0,,,65a5418464c0267277a80a1e,09:06:03,27/02/2024
html-keyboard-response,69,130201,0.0-31.0-0.0,1410.1000000238419,"<div style=""display: flex; flex-direction: column; align-items: center; margin-top: -40px;""><img src=""images/pattern_3.png"" style=""width: 234px; height: 230px; margin-top: -50px;""><div style=""display: flex; justify-content: space-between; margin-top: 33px;""><img src=""images/choice_trial_14.png"" style=""width: 408px; height: 417px; margin-right: 200px;""><img src=""images/choice_trial_12.png"" style=""width: 408px; height: 417px;""></div></div>",j,delaylearn,learning,trial,jenb8cxzszdkjsbQLlXayS0suJ73,jenb8cxzszdkjsbQLlXayS0suJ73,2.0,images/choice_trial_14.png,images/choice_trial_12.png,images/pattern_3.png,f,j,7000.0,14.0,12.0,2.0,1.0,13.0,1.0,0.0,12.0,70.0,,,,,,65a5418464c0267277a80a1e,09:06:03,27/02/2024
html-keyboard-response,70,131209,0.0-31.0-1.0,,"<div style=""display: flex; flex-direction: column; align-items: center; margin-top: -40px;""><img src=""images/pattern_3.png"" style=""width: 234px; height: 230px; margin-top: -50px;""><div style=""display: flex; justify-content: space-between; margin-top: 33px;""><img src=""images/choice_trial_12.png"" style=""width: 408px; height: 417px; margin-left:608px;""></div></div>",,delaylearn,learning,display_response,jenb8cxzszdkjsbQLlXayS0suJ73,jenb8cxzszdkjsbQLlXayS0suJ73,,,,,,,,,,,,,,,,,chosen stimuli: images/choice_trial_12.png,,,,,65a5418464c0267277a80a1e,09:06:03,27/02/2024
html-keyboard-response,71,138225,0.0-31.0-2.0,,,,delaylearn,learning,feedback_duration_window,jenb8cxzszdkjsbQLlXayS0suJ73,jenb8cxzszdkjsbQLlXayS0suJ73,,,,,,,,,,,,,,,,,,7000.0,,,,65a5418464c0267277a80a1e,09:06:03,27/02/2024
html-keyboard-response,72,139734,0.0-31.0-3.0,,<div style='margin:auto;width: auto; font-size: 150%'><span style='font-weight: bold; font-size: 100px; color: red;'>0 points!</span><br><br></div>,,delaylearn,learning,feedback_image_window,jenb8cxzszdkjsbQLlXayS0suJ73,jenb8cxzszdkjsbQLlXayS0suJ73,,,,,,,,,,,,,,,,,,,,,,65a5418464c0267277a80a1e,09:06:03,27/02/2024
html-keyboard-response,73,141498,0.0-32.0,,"<div style=""font-size:100px;"">+</div>",,delaylearn,learning,ITI,jenb8cxzszdkjsbQLlXayS0suJ73,jenb8cxzszdkjsbQLlXayS0suJ73,,,,,,,,,,,,,,,,,,,1762.0,,,65a5418464c0267277a80a1e,09:06:03,27/02/2024
html-keyboard-response,74,142969,0.0-33.0-0.0,1469.9000000357628,"<div style=""display: flex; flex-direction: column; align-items: center; margin-top: -40px;""><img src=""images/pattern_5.png"" style=""width: 234px; height: 230px; margin-top: -50px;""><div style=""display: flex; justify-content: space-between; margin-top: 33px;""><img src=""images/choice_trial_2.png"" style=""width: 408px; height: 417px; margin-right: 200px;""><img src=""images/choice_trial_9.png"" style=""width: 408px; height: 417px;""></div></div>",f,delaylearn,learning,trial,jenb8cxzszdkjsbQLlXayS0suJ73,jenb8cxzszdkjsbQLlXayS0suJ73,2.0,images/choice_trial_2.png,images/choice_trial_9.png,images/pattern_5.png,f,f,750.0,2.0,9.0,4.0,0.0,14.0,1.0,1.0,2.0,80.0,,,,,,65a5418464c0267277a80a1e,09:06:03,27/02/2024
html-keyboard-response,75,143973,0.0-33.0-1.0,,"<div style=""display: flex; flex-direction: column; align-items: center; margin-top: -40px;""><img src=""images/pattern_5.png"" style=""width: 234px; height: 230px; margin-top: -50px;""><div style=""display: flex; justify-content: space-between; margin-top: 33px;""><img src=""images/choice_trial_2.png"" style=""width: 408px; height: 417px; margin-right: 608px;""></div></div>",,delaylearn,learning,display_response,jenb8cxzszdkjsbQLlXayS0suJ73,jenb8cxzszdkjsbQLlXayS0suJ73,,,,,,,,,,,,,,,,,chosen stimuli: images/choice_trial_2.png,,,,,65a5418464c0267277a80a1e,09:06:03,27/02/2024
html-keyboard-response,76,144737,0.0-33.0-2.0,,,,delaylearn,learning,feedback_duration_window,jenb8cxzszdkjsbQLlXayS0suJ73,jenb8cxzszdkjsbQLlXayS0suJ73,,,,,,,,,,,,,,,,,,750.0,,,,65a5418464c0267277a80a1e,09:06:03,27/02/2024
html-keyboard-response,77,146245,0.0-33.0-3.0,,<div style='margin:auto;width: auto; font-size: 150%'><span style='font-weight: bold; font-size: 100px; color: green;'>+10 points!</span><br><br></div>,,delaylearn,learning,feedback_image_window,jenb8cxzszdkjsbQLlXayS0suJ73,jenb8cxzszdkjsbQLlXayS0suJ73,,,,,,,,,,,,,,,,,,,,,,65a5418464c0267277a80a1e,09:06:03,27/02/2024
html-keyboard-response,78,146748,0.0-34.0-0.0,,,,,,mood_trial_fixation,jenb8cxzszdkjsbQLlXayS0suJ73,,,,,,,,,,,,,,,,,,,,,,,65a5418464c0267277a80a1e,09:06:03,27/02/2024
lmdlab-html-vas-response,79,151104,0.0-34.0-1.0,3346.0,How happy are you right now?,0.8919753086419753,delaylearn,learning,mood_trial,jenb8cxzszdkjsbQLlXayS0suJ73,jenb8cxzszdkjsbQLlXayS0suJ73,,,,,,,,,,,,,,,,,,,,"['Very unhappy', 'Very happy']",,65a5418464c0267277a80a1e,09:06:03,27/02/2024
html-keyboard-response,80,152727,0.0-35.0,,"<div style=""font-size:100px;"">+</div>",,delaylearn,learning,ITI,jenb8cxzszdkjsbQLlXayS0suJ73,jenb8cxzszdkjsbQLlXayS0suJ73,,,,,,,,,,,,,,,,,,,1618.0,,,65a5418464c0267277a80a1e,09:06:03,27/02/2024
html-keyboard-response,81,154911,0.0-36.0-0.0,2182.300000011921,"<div style=""display: flex; flex-direction: column; align-items: center; margin-top: -40px;""><img src=""images/pattern_6.png"" style=""width: 234px; height: 230px; margin-top: -50px;""><div style=""display: flex; justify-content: space-between; margin-top: 33px;""><img src=""images/choice_trial_11.png"" style=""width: 408px; height: 417px; margin-right: 200px;""><img src=""images/choice_trial_5.png"" style=""width: 408px; height: 417px;""></div></div>",j,delaylearn,learning,trial,jenb8cxzszdkjsbQLlXayS0suJ73,jenb8cxzszdkjsbQLlXayS0suJ73,2.0,images/choice_trial_11.png,images/choice_trial_5.png,images/pattern_6.png,f,f,750.0,11.0,5.0,5.0,0.0,15.0,0.0,0.0,5.0,80.0,,,,,,65a5418464c0267277a80a1e,09:06:03,27/02/2024
html-keyboard-response,82,155926,0.0-36.0-1.0,,"<div style=""display: flex; flex-direction: column; align-items: center; margin-top: -40px;""><img src=""images/pattern_6.png"" style=""width: 234px; height: 230px; margin-top: -50px;""><div style=""display: flex; justify-content: space-between; margin-top: 33px;""><img src=""images/choice_trial_5.png"" style=""width: 408px; height: 417px; margin-left:608px;""></div></div>",,delaylearn,learning,display_response,jenb8cxzszdkjsbQLlXayS0suJ73,jenb8cxzszdkjsbQLlXayS0suJ73,,,,,,,,,,,,,,,,,chosen stimuli: images/choice_trial_5.png,,,,,65a5418464c0267277a80a1e,09:06:03,27/02/2024
html-keyboard-response,83,156689,0.0-36.0-2.0,,,,delaylearn,learning,feedback_duration_window,jenb8cxzszdkjsbQLlXayS0suJ73,jenb8cxzszdkjsbQLlXayS0suJ73,,,,,,,,,,,,,,,,,,750.0,,,,65a5418464c0267277a80a1e,09:06:03,27/02/2024
html-keyboard-response,84,158201,0.0-36.0-3.0,,<div style='margin:auto;width: auto; font-size: 150%'><span style='font-weight: bold; font-size: 100px; color: red;'>0 points!</span><br><br></div>,,delaylearn,learning,feedback_image_window,jenb8cxzszdkjsbQLlXayS0suJ73,jenb8cxzszdkjsbQLlXayS0suJ73,,,,,,,,,,,,,,,,,,,,,,65a5418464c0267277a80a1e,09:06:03,27/02/2024
html-keyboard-response,85,159834,0.0-37.0,,"<div style=""font-size:100px;"">+</div>",,delaylearn,learning,ITI,jenb8cxzszdkjsbQLlXayS0suJ73,jenb8cxzszdkjsbQLlXayS0suJ73,,,,,,,,,,,,,,,,,,,1632.0,,,65a5418464c0267277a80a1e,09:06:03,27/02/2024
html-keyboard-response,86,161575,0.0-38.0-0.0,1740.3999999761581,"<div style=""display: flex; flex-direction: column; align-items: center; margin-top: -40px;""><img src=""images/pattern_4.png"" style=""width: 234px; height: 230px; margin-top: -50px;""><div style=""display: flex; justify-content: space-between; margin-top: 33px;""><img src=""images/choice_trial_16.png"" style=""width: 408px; height: 417px; margin-right: 200px;""><img src=""images/choice_trial_4.png"" style=""width: 408px; height: 417px;""></div></div>",j,delaylearn,learning,trial,jenb8cxzszdkjsbQLlXayS0suJ73,jenb8cxzszdkjsbQLlXayS0suJ73,2.0,images/choice_trial_16.png,images/choice_trial_4.png,images/pattern_4.png,j,j,7000.0,16.0,4.0,3.0,1.0,16.0,1.0,1.0,4.0,90.0,,,,,,65a5418464c0267277a80a1e,09:06:03,27/02/2024
html-keyboard-response,87,162589,0.0-38.0-1.0,,"<div style=""display: flex; flex-direction: column; align-items: center; margin-top: -40px;""><img src=""images/pattern_4.png"" style=""width: 234px; height: 230px; margin-top: -50px;""><div style=""display: flex; justify-content: space-between; margin-top: 33px;""><img src=""images/choice_trial_4.png"" style=""width: 408px; height: 417px; margin-left:608px;""></div></div>",,delaylearn,learning,display_response,jenb8cxzszdkjsbQLlXayS0suJ73,jenb8cxzszdkjsbQLlXayS0suJ73,,,,,,,,,,,,,,,,,chosen stimuli: images/choice_trial_4.png,,,,,65a5418464c0267277a80a1e,09:06:03,27/02/2024
html-keyboard-response,88,169593,0.0-38.0-2.0,,,,delaylearn,learning,feedback_duration_window,jenb8cxzszdkjsbQLlXayS0suJ73,jenb8cxzszdkjsbQLlXayS0suJ73,,,,,,,,,,,,,,,,,,7000.0,,,,65a5418464c0267277a80a1e,09:06:03,27/02/2024
html-keyboard-response,89,171103,0.0-38.0-3.0,,<div style='margin:auto;width: auto; font-size: 150%'><span style='font-weight: bold; font-size: 100px; color: green;'>+10 points!</span><br><br></div>,,delaylearn,learning,feedback_image_window,jenb8cxzszdkjsbQLlXayS0suJ73,jenb8cxzszdkjsbQLlXayS0suJ73,,,,,,,,,,,,,,,,,,,,,,65a5418464c0267277a80a1e,09:06:03,27/02/2024
html-keyboard-response,90,173530,0.0-39.0,,"<div style=""font-size:100px;"">+</div>",,delaylearn,learning,ITI,jenb8cxzszdkjsbQLlXayS0suJ73,jenb8cxzszdkjsbQLlXayS0suJ73,,,,,,,,,,,,,,,,,,,2413.0,,,65a5418464c0267277a80a1e,09:06:03,27/02/2024
html-keyboard-response,91,176540,0.0-40.0-0.0,,"<div style=""display: flex; flex-direction: column; align-items: center; margin-top: -40px;""><img src=""images/pattern_7.png"" style=""width: 234px; height: 230px; margin-top: -50px;""><div style=""display: flex; justify-content: space-between; margin-top: 33px;""><img src=""images/choice_trial_8.png"" style=""width: 408px; height: 417px; margin-right: 200px;""><img src=""images/choice_trial_15.png"" style=""width: 408px; height: 417px;""></div></div>",,delaylearn,learning,trial,jenb8cxzszdkjsbQLlXayS0suJ73,jenb8cxzszdkjsbQLlXayS0suJ73,2.0,images/choice_trial_8.png,images/choice_trial_15.png,images/pattern_7.png,j,f,750.0,8.0,15.0,6.0,0.0,17.0,0.0,0.0,0.0,90.0,,,,,,65a5418464c0267277a80a1e,09:06:03,27/02/2024
html-keyboard-response,92,177548,0.0-40.0-1.0,,<div style='font-weight: bold; font-size: 75px; color: red;'>Missed Trial <br><br><br><br> Please respond faster</div>,,delaylearn,learning,display_response,jenb8cxzszdkjsbQLlXayS0suJ73,jenb8cxzszdkjsbQLlXayS0suJ73,,,,,,,,,,,,,,,,,Missed trial,,,,,65a5418464c0267277a80a1e,09:06:03,27/02/2024
html-keyboard-response,93,177553,0.0-40.0-2.0,,,,delaylearn,learning,feedback_duration_window,jenb8cxzszdkjsbQLlXayS0suJ73,jenb8cxzszdkjsbQLlXayS0suJ73,,,,,,,,,,,,,,,,,,0.0,,,,65a5418464c0267277a80a1e,09:06:03,27/02/2024
html-keyboard-response,94,177557,0.0-40.0-3.0,,,,delaylearn,learning,feedback_image_window,jenb8cxzszdkjsbQLlXayS0suJ73,jenb8cxzszdkjsbQLlXayS0suJ73,,,,,,,,,,,,,,,,,,,,,,65a5418464c0267277a80a1e,09:06:03,27/02/2024
html-keyboard-response,95,179954,0.0-41.0,,"<div style=""font-size:100px;"">+</div>",,delaylearn,learning,ITI,jenb8cxzszdkjsbQLlXayS0suJ73,jenb8cxzszdkjsbQLlXayS0suJ73,,,,,,,,,,,,,,,,,,,2383.0,,,65a5418464c0267277a80a1e,09:06:03,27/02/2024
html-keyboard-response,96,181238,0.0-42.0-0.0,1283.8999999761581,"<div style=""display: flex; flex-direction: column; align-items: center; margin-top: -40px;""><img src=""images/pattern_1.png"" style=""width: 234px; height: 230px; margin-top: -50px;""><div style=""display: flex; justify-content: space-between; margin-top: 33px;""><img src=""images/choice_trial_3.png"" style=""width: 408px; height: 417px; margin-right: 200px;""><img src=""images/choice_trial_10.png"" style=""width: 408px; height: 417px;""></div></div>",j,delaylearn,learning,trial,jenb8cxzszdkjsbQLlXayS0suJ73,jenb8cxzszdkjsbQLlXayS0suJ73,2.0,images/choice_trial_3.png,images/choice_trial_10.png,images/pattern_1.png,f,f,7000.0,3.0,10.0,1.0,0.0,18.0,0.0,0.0,10.0,90.0,,,,,,65a5418464c0267277a80a1e,09:06:03,27/02/2024
html-keyboard-response,97,182243,0.0-42.0-1.0,,"<div style=""display: flex; flex-direction: column; align-items: center; margin-top: -40px;""><img src=""images/pattern_1.png"" style=""width: 234px; height: 230px; margin-top: -50px;""><div style=""display: flex; justify-content: space-between; margin-top: 33px;""><img src=""images/choice_trial_10.png"" style=""width: 408px; height: 417px; margin-left:608px;""></div></div>",,delaylearn,learning,display_response,jenb8cxzszdkjsbQLlXayS0suJ73,jenb8cxzszdkjsbQLlXayS0suJ73,,,,,,,,,,,,,,,,,chosen stimuli: images/choice_trial_10.png,,,,,65a5418464c0267277a80a1e,09:06:03,27/02/2024
html-keyboard-response,98,189254,0.0-42.0-2.0,,,,delaylearn,learning,feedback_duration_window,jenb8cxzszdkjsbQLlXayS0suJ73,jenb8cxzszdkjsbQLlXayS0suJ73,,,,,,,,,,,,,,,,,,7000.0,,,,65a5418464c0267277a80a1e,09:06:03,27/02/2024
html-keyboard-response,99,190767,0.0-42.0-3.0,,<div style='margin:auto;width: auto; font-size: 150%'><span style='font-weight: bold; font-size: 100px; color: red;'>0 points!</span><br><br></div>,,delaylearn,learning,feedback_image_window,jenb8cxzszdkjsbQLlXayS0suJ73,jenb8cxzszdkjsbQLlXayS0suJ73,,,,,,,,,,,,,,,,,,,,,,65a5418464c0267277a80a1e,09:06:03,27/02/2024
html-keyboard-response,100,192966,0.0-43.0,,"<div style=""font-size:100px;"">+</div>",,delaylearn,learning,ITI,jenb8cxzszdkjsbQLlXayS0suJ73,jenb8cxzszdkjsbQLlXayS0suJ73,,,,,,,,,,,,,,,,,,,2192.0,,,65a5418464c0267277a80a1e,09:06:03,27/02/2024
html-keyboard-response,101,194647,0.0-44.0-0.0,1679.300000011921,"<div style=""display: flex; flex-direction: column; align-items: center; margin-top: -40px;""><img src=""images/pattern_6.png"" style=""width: 234px; height: 230px; margin-top: -50px;""><div style=""display: flex; justify-content: space-between; margin-top: 33px;""><img src=""images/choice_trial_5.png"" style=""width: 408px; height: 417px; margin-right: 200px;""><img src=""images/choice_trial_11.png"" style=""width: 408px; height: 417px;""></div></div>",f,delaylearn,learning,trial,jenb8cxzszdkjsbQLlXayS0suJ73,jenb8cxzszdkjsbQLlXayS0suJ73,2.0,images/choice_trial_5.png,images/choice_trial_11.png,images/pattern_6.png,j,j,750.0,5.0,11.0,5.0,1.0,19.0,0.0,0.0,5.0,90.0,,,,,,65a5418464c0267277a80a1e,09:06:03,27/02/2024
html-keyboard-response,102,195649,0.0-44.0-1.0,,"<div style=""display: flex; flex-direction: column; align-items: center; margin-top: -40px;""><img src=""images/pattern_6.png"" style=""width: 234px; height: 230px; margin-top: -50px;""><div style=""display: flex; justify-content: space-between; margin-top: 33px;""><img src=""images/choice_trial_5.png"" style=""width: 408px; height: 417px; margin-right: 608px;""></div></div>",,delaylearn,learning,display_response,jenb8cxzszdkjsbQLlXayS0suJ73,jenb8cxzszdkjsbQLlXayS0suJ73,,,,,,,,,,,,,,,,,chosen stimuli: images/choice_trial_5.png,,,,,65a5418464c0267277a80a1e,09:06:03,27/02/2024
html-keyboard-response,103,196402,0.0-44.0-2.0,,,,delaylearn,learning,feedback_duration_window,jenb8cxzszdkjsbQLlXayS0suJ73,jenb8cxzszdkjsbQLlXayS0suJ73,,,,,,,,,,,,,,,,,,750.0,,,,65a5418464c0267277a80a1e,09:06:03,27/02/2024
html-keyboard-response,104,197905,0.0-44.0-3.0,,<div style='margin:auto;width: auto; font-size: 150%'><span style='font-weight: bold; font-size: 100px; color: red;'>0 points!</span><br><br></div>,,delaylearn,learning,feedback_image_window,jenb8cxzszdkjsbQLlXayS0suJ73,jenb8cxzszdkjsbQLlXayS0suJ73,,,,,,,,,,,,,,,,,,,,,,65a5418464c0267277a80a1e,09:06:03,27/02/2024
html-keyboard-response,105,200173,0.0-45.0,,"<div style=""font-size:100px;"">+</div>",,delaylearn,learning,ITI,jenb8cxzszdkjsbQLlXayS0suJ73,jenb8cxzszdkjsbQLlXayS0suJ73,,,,,,,,,,,,,,,,,,,2266.0,,,65a5418464c0267277a80a1e,09:06:03,27/02/2024
html-keyboard-response,106,201418,0.0-46.0-0.0,1243.5,"<div style=""display: flex; flex-direction: column; align-items: center; margin-top: -40px;""><img src=""images/pattern_4.png"" style=""width: 234px; height: 230px; margin-top: -50px;""><div style=""display: flex; justify-content: space-between; margin-top: 33px;""><img src=""images/choice_trial_4.png"" style=""width: 408px; height: 417px; margin-right: 200px;""><img src=""images/choice_trial_16.png"" style=""width: 408px; height: 417px;""></div></div>",f,delaylearn,learning,trial,jenb8cxzszdkjsbQLlXayS0suJ73,jenb8cxzszdkjsbQLlXayS0suJ73,2.0,images/choice_trial_4.png,images/choice_trial_16.png,images/pattern_4.png,f,f,7000.0,4.0,16.0,3.0,0.0,20.0,1.0,1.0,4.0,100.0,,,,,,65a5418464c0267277a80a1e,09:06:03,27/02/2024
html-keyboard-response,107,202428,0.0-46.0-1.0,,"<div style=""display: flex; flex-direction: column; align-items: center; margin-top: -40px;""><img src=""images/pattern_4.png"" style=""width: 234px; height: 230px; margin-top: -50px;""><div style=""display: flex; justify-content: space-between; margin-top: 33px;""><img src=""images/choice_trial_4.png"" style=""width: 408px; height: 417px; margin-right: 608px;""></div></div>",,delaylearn,learning,display_response,jenb8cxzszdkjsbQLlXayS0suJ73,jenb8cxzszdkjsbQLlXayS0suJ73,,,,,,,,,,,,,,,,,chosen stimuli: images/choice_trial_4.png,,,,,65a5418464c0267277a80a1e,09:06:03,27/02/2024
html-keyboard-response,108,209436,0.0-46.0-2.0,,,,delaylearn,learning,feedback_duration_window,jenb8cxzszdkjsbQLlXayS0suJ73,jenb8cxzszdkjsbQLlXayS0suJ73,,,,,,,,,,,,,,,,,,7000.0,,,,65a5418464c0267277a80a1e,09:06:03,27/02/2024
html-keyboard-response,109,210945,0.0-46.0-3.0,,<div style='margin:auto;width: auto; font-size: 150%'><span style='font-weight: bold; font-size: 100px; color: green;'>+10 points!</span><br><br></div>,,delaylearn,learning,feedback_image_window,jenb8cxzszdkjsbQLlXayS0suJ73,jenb8cxzszdkjsbQLlXayS0suJ73,,,,,,,,,,,,,,,,,,,,,,65a5418464c0267277a80a1e,09:06:03,27/02/2024
html-keyboard-response,110,211451,0.0-47.0-0.0,,,,,,mood_trial_fixation,jenb8cxzszdkjsbQLlXayS0suJ73,,,,,,,,,,,,,,,,,,,,,,,65a5418464c0267277a80a1e,09:06:03,27/02/2024
lmdlab-html-vas-response,111,215183,0.0-47.0-1.0,2726.0,How happy are you right now?,0.8580246913580247,delaylearn,learning,mood_trial,jenb8cxzszdkjsbQLlXayS0suJ73,jenb8cxzszdkjsbQLlXayS0suJ73,,,,,,,,,,,,,,,,,,,,"['Very unhappy', 'Very happy']",,65a5418464c0267277a80a1e,09:06:03,27/02/2024
html-keyboard-response,112,216815,0.0-48.0,,"<div style=""font-size:100px;"">+</div>",,delaylearn,learning,ITI,jenb8cxzszdkjsbQLlXayS0suJ73,jenb8cxzszdkjsbQLlXayS0suJ73,,,,,,,,,,,,,,,,,,,1615.0,,,65a5418464c0267277a80a1e,09:06:03,27/02/2024
html-keyboard-response,113,218285,0.0-49.0-0.0,1469.8999999761581,"<div style=""display: flex; flex-direction: column; align-items: center; margin-top: -40px;""><img src=""images/pattern_7.png"" style=""width: 234px; height: 230px; margin-top: -50px;""><div style=""display: flex; justify-content: space-between; margin-top: 33px;""><img src=""images/choice_trial_15.png"" style=""width: 408px; height: 417px; margin-right: 200px;""><img src=""images/choice_trial_8.png"" style=""width: 408px; height: 417px;""></div></div>",f,delaylearn,learning,trial,jenb8cxzszdkjsbQLlXayS0suJ73,jenb8cxzszdkjsbQLlXayS0suJ73,2.0,images/choice_trial_15.png,images/choice_trial_8.png,images/pattern_7.png,j,j,750.0,15.0,8.0,6.0,1.0,21.0,0.0,0.0,15.0,100.0,,,,,,65a5418464c0267277a80a1e,09:06:03,27/02/2024
html-keyboard-response,114,219300,0.0-49.0-1.0,,"<div style=""display: flex; flex-direction: column; align-items: center; margin-top: -40px;""><img src=""images/pattern_7.png"" style=""width: 234px; height: 230px; margin-top: -50px;""><div style=""display: flex; justify-content: space-between; margin-top: 33px;""><img src=""images/choice_trial_15.png"" style=""width: 408px; height: 417px; margin-right: 608px;""></div></div>",,delaylearn,learning,display_response,jenb8cxzszdkjsbQLlXayS0suJ73,jenb8cxzszdkjsbQLlXayS0suJ73,,,,,,,,,,,,,,,,,chosen stimuli: images/choice_trial_15.png,,,,,65a5418464c0267277a80a1e,09:06:03,27/02/2024
html-keyboard-response,115,220061,0.0-49.0-2.0,,,,delaylearn,learning,feedback_duration_window,jenb8cxzszdkjsbQLlXayS0suJ73,jenb8cxzszdkjsbQLlXayS0suJ73,,,,,,,,,,,,,,,,,,750.0,,,,65a5418464c0267277a80a1e,09:06:03,27/02/2024
html-keyboard-response,116,221563,0.0-49.0-3.0,,<div style='margin:auto;width: auto; font-size: 150%'><span style='font-weight: bold; font-size: 100px; color: red;'>0 points!</span><br><br></div>,,delaylearn,learning,feedback_image_window,jenb8cxzszdkjsbQLlXayS0suJ73,jenb8cxzszdkjsbQLlXayS0suJ73,,,,,,,,,,,,,,,,,,,,,,65a5418464c0267277a80a1e,09:06:03,27/02/2024
html-keyboard-response,117,223975,0.0-50.0,,"<div style=""font-size:100px;"">+</div>",,delaylearn,learning,ITI,jenb8cxzszdkjsbQLlXayS0suJ73,jenb8cxzszdkjsbQLlXayS0suJ73,,,,,,,,,,,,,,,,,,,2396.0,,,65a5418464c0267277a80a1e,09:06:03,27/02/2024
html-keyboard-response,118,225740,0.0-51.0-0.0,1764.0999999642372,"<div style=""display: flex; flex-direction: column; align-items: center; margin-top: -40px;""><img src=""images/pattern_1.png"" style=""width: 234px; height: 230px; margin-top: -50px;""><div style=""display: flex; justify-content: space-between; margin-top: 33px;""><img src=""images/choice_trial_10.png"" style=""width: 408px; height: 417px; margin-right: 200px;""><img src=""images/choice_trial_3.png"" style=""width: 408px; height: 417px;""></div></div>",j,delaylearn,learning,trial,jenb8cxzszdkjsbQLlXayS0suJ73,jenb8cxzszdkjsbQLlXayS0suJ73,2.0,images/choice_trial_10.png,images/choice_trial_3.png,images/pattern_1.png,f,j,7000.0,10.0,3.0,1.0,1.0,22.0,1.0,0.0,3.0,100.0,,,,,,65a5418464c0267277a80a1e,09:06:03,27/02/2024
html-keyboard-response,119,226755,0.0-51.0-1.0,,"<div style=""display: flex; flex-direction: column; align-items: center; margin-top: -40px;""><img src=""images/pattern_1.png"" style=""width: 234px; height: 230px; margin-top: -50px;""><div style=""display: flex; justify-content: space-between; margin-top: 33px;""><img src=""images/choice_trial_3.png"" style=""width: 408px; height: 417px; margin-left:608px;""></div></div>",,delaylearn,learning,display_response,jenb8cxzszdkjsbQLlXayS0suJ73,jenb8cxzszdkjsbQLlXayS0suJ73,,,,,,,,,,,,,,,,,chosen stimuli: images/choice_trial_3.png,,,,,65a5418464c0267277a80a1e,09:06:03,27/02/2024
html-keyboard-response,120,233768,0.0-51.0-2.0,,,,delaylearn,learning,feedback_duration_window,jenb8cxzszdkjsbQLlXayS0suJ73,jenb8cxzszdkjsbQLlXayS0suJ73,,,,,,,,,,,,,,,,,,7000.0,,,,65a5418464c0267277a80a1e,09:06:03,27/02/2024
html-keyboard-response,121,235279,0.0-51.0-3.0,,<div style='margin:auto;width: auto; font-size: 150%'><span style='font-weight: bold; font-size: 100px; color: red;'>0 points!</span><br><br></div>,,delaylearn,learning,feedback_image_window,jenb8cxzszdkjsbQLlXayS0suJ73,jenb8cxzszdkjsbQLlXayS0suJ73,,,,,,,,,,,,,,,,,,,,,,65a5418464c0267277a80a1e,09:06:03,27/02/2024
html-keyboard-response,122,237417,0.0-52.0,,"<div style=""font-size:100px;"">+</div>",,delaylearn,learning,ITI,jenb8cxzszdkjsbQLlXayS0suJ73,jenb8cxzszdkjsbQLlXayS0suJ73,,,,,,,,,,,,,,,,,,,2126.0,,,65a5418464c0267277a80a1e,09:06:03,27/02/2024
html-keyboard-response,123,239302,0.0-53.0-0.0,1884.0,"<div style=""display: flex; flex-direction: column; align-items: center; margin-top: -40px;""><img src=""images/pattern_5.png"" style=""width: 234px; height: 230px; margin-top: -50px;""><div style=""display: flex; justify-content: space-between; margin-top: 33px;""><img src=""images/choice_trial_9.png"" style=""width: 408px; height: 417px; margin-right: 200px;""><img src=""images/choice_trial_2.png"" style=""width: 408px; height: 417px;""></div></div>",j,delaylearn,learning,trial,jenb8cxzszdkjsbQLlXayS0suJ73,jenb8cxzszdkjsbQLlXayS0suJ73,2.0,images/choice_trial_9.png,images/choice_trial_2.png,images/pattern_5.png,j,j,750.0,9.0,2.0,4.0,1.0,23.0,1.0,1.0,2.0,110.0,,,,,,65a5418464c0267277a80a1e,09:06:03,27/02/2024
html-keyboard-response,124,240316,0.0-53.0-1.0,,"<div style=""display: flex; flex-direction: column; align-items: center; margin-top: -40px;""><img src=""images/pattern_5.png"" style=""width: 234px; height: 230px; margin-top: -50px;""><div style=""display: flex; justify-content: space-between; margin-top: 33px;""><img src=""images/choice_trial_2.png"" style=""width: 408px; height: 417px; margin-left:608px;""></div></div>",,delaylearn,learning,display_response,jenb8cxzszdkjsbQLlXayS0suJ73,jenb8cxzszdkjsbQLlXayS0suJ73,,,,,,,,,,,,,,,,,chosen stimuli: images/choice_trial_2.png,,,,,65a5418464c0267277a80a1e,09:06:03,27/02/2024
html-keyboard-response,125,241075,0.0-53.0-2.0,,,,delaylearn,learning,feedback_duration_window,jenb8cxzszdkjsbQLlXayS0suJ73,jenb8cxzszdkjsbQLlXayS0suJ73,,,,,,,,,,,,,,,,,,750.0,,,,65a5418464c0267277a80a1e,09:06:03,27/02/2024
html-keyboard-response,126,242577,0.0-53.0-3.0,,<div style='margin:auto;width: auto; font-size: 150%'><span style='font-weight: bold; font-size: 100px; color: green;'>+10 points!</span><br><br></div>,,delaylearn,learning,feedback_image_window,jenb8cxzszdkjsbQLlXayS0suJ73,jenb8cxzszdkjsbQLlXayS0suJ73,,,,,,,,,,,,,,,,,,,,,,65a5418464c0267277a80a1e,09:06:03,27/02/2024
html-keyboard-response,127,244567,0.0-54.0,,"<div style=""font-size:100px;"">+</div>",,delaylearn,learning,ITI,jenb8cxzszdkjsbQLlXayS0suJ73,jenb8cxzszdkjsbQLlXayS0suJ73,,,,,,,,,,,,,,,,,,,1979.0,,,65a5418464c0267277a80a1e,09:06:03,27/02/2024
html-keyboard-response,128,246186,0.0-55.0-0.0,1618.8999999761581,"<div style=""display: flex; flex-direction: column; align-items: center; margin-top: -40px;""><img src=""images/pattern_3.png"" style=""width: 234px; height: 230px; margin-top: -50px;""><div style=""display: flex; justify-content: space-between; margin-top: 33px;""><img src=""images/choice_trial_14.png"" style=""width: 408px; height: 417px; margin-right: 200px;""><img src=""images/choice_trial_12.png"" style=""width: 408px; height: 417px;""></div></div>",j,delaylearn,learning,trial,jenb8cxzszdkjsbQLlXayS0suJ73,jenb8cxzszdkjsbQLlXayS0suJ73,2.0,images/choice_trial_14.png,images/choice_trial_12.png,images/pattern_3.png,j,j,7000.0,14.0,12.0,2.0,1.0,24.0,1.0,1.0,12.0,120.0,,,,,,65a5418464c0267277a80a1e,09:06:03,27/02/2024
html-keyboard-response,129,247188,0.0-55.0-1.0,,"<div style=""display: flex; flex-direction: column; align-items: center; margin-top: -40px;""><img src=""images/pattern_3.png"" style=""width: 234px; height: 230px; margin-top: -50px;""><div style=""display: flex; justify-content: space-between; margin-top: 33px;""><img src=""images/choice_trial_12.png"" style=""width: 408px; height: 417px; margin-left:608px;""></div></div>",,delaylearn,learning,display_response,jenb8cxzszdkjsbQLlXayS0suJ73,jenb8cxzszdkjsbQLlXayS0suJ73,,,,,,,,,,,,,,,,,chosen stimuli: images/choice_trial_12.png,,,,,65a5418464c0267277a80a1e,09:06:03,27/02/2024
html-keyboard-response,130,254199,0.0-55.0-2.0,,,,delaylearn,learning,feedback_duration_window,jenb8cxzszdkjsbQLlXayS0suJ73,jenb8cxzszdkjsbQLlXayS0suJ73,,,,,,,,,,,,,,,,,,7000.0,,,,65a5418464c0267277a80a1e,09:06:03,27/02/2024
html-keyboard-response,131,255702,0.0-55.0-3.0,,<div style='margin:auto;width: auto; font-size: 150%'><span style='font-weight: bold; font-size: 100px; color: green;'>+10 points!</span><br><br></div>,,delaylearn,learning,feedback_image_window,jenb8cxzszdkjsbQLlXayS0suJ73,jenb8cxzszdkjsbQLlXayS0suJ73,,,,,,,,,,,,,,,,,,,,,,65a5418464c0267277a80a1e,09:06:03,27/02/2024
lmdlab-html-vas-response,132,261527,0.0-56.0-0.0,4314.0,*How <b><u>confident</u></b> are you feeling about your answers at this moment?*,0.46141975308641975,rewlearn,rate_confidence,,jenb8cxzszdkjsbQLlXayS0suJ73,jenb8cxzszdkjsbQLlXayS0suJ73,,,,,,,,,,,,,,,,,,,,"['No confidence', 'Complete confidence']",,65a5418464c0267277a80a1e,09:06:03,27/02/2024
lmdlab-rest-trial-limit,133,269144,0.0-56.0-1.0,6100.800000011921,"<div style=""font-size:40px;""><b>Please take a break!</b><br><br><br><br><p>Great work: you earned undefined points.<br><br><br><p>You have completed part(s) 1 of 6.<br><br><br><br>When you are ready to continue<br><br><br>please click the button.</p><br><br>",0,delaylearn,learning,break,jenb8cxzszdkjsbQLlXayS0suJ73,jenb8cxzszdkjsbQLlXayS0suJ73,,,,,,,,,,,,,,,,,,,,,0.0,65a5418464c0267277a80a1e,09:06:03,27/02/2024
html-keyboard-response,134,272156,0.0-56.0-2.0,,"<div style=""font-size:100px;"">+</div>",,delaylearn,learning,pre_fixation,jenb8cxzszdkjsbQLlXayS0suJ73,,,,,,,,,,,,,,,,,,,,,,,65a5418464c0267277a80a1e,09:06:03,27/02/2024
lmdlab-html-vas-response,135,275649,0.0-56.0-3.0-0.0,2483.0,How happy are you right now?,0.816358024691358,delaylearn,learning,mood_baseline,jenb8cxzszdkjsbQLlXayS0suJ73,jenb8cxzszdkjsbQLlXayS0suJ73,,,,,,,,,,,,,,,,,,,,"['Very unhappy', 'Very happy']",,65a5418464c0267277a80a1e,09:06:03,27/02/2024
html-keyboard-response,136,277160,0.0-56.0-3.0-1.0,,,,,,mood_baseline_fixation,jenb8cxzszdkjsbQLlXayS0suJ73,,,,,,,,,,,,,,,,,,,,,,,65a5418464c0267277a80a1e,09:06:03,27/02/2024
html-keyboard-response,137,279263,0.0-57.0,,"<div style=""font-size:100px;"">+</div>",,delaylearn,learning,ITI,jenb8cxzszdkjsbQLlXayS0suJ73,jenb8cxzszdkjsbQLlXayS0suJ73,,,,,,,,,,,,,,,,,,,2097.0,,,65a5418464c0267277a80a1e,09:06:03,27/02/2024
html-keyboard-response,138,280140,0.0-58.0-0.0,875.5999999642372,"<div style=""display: flex; flex-direction: column; align-items: center; margin-top: -40px;""><img src=""images/pattern_7.png"" style=""width: 234px; height: 230px; margin-top: -50px;""><div style=""display: flex; justify-content: space-between; margin-top: 33px;""><img src=""images/choice_trial_15.png"" style=""width: 408px; height: 417px; margin-right: 200px;""><img src=""images/choice_trial_8.png"" style=""width: 408px; height: 417px;""></div></div>",j,delaylearn,learning,trial,jenb8cxzszdkjsbQLlXayS0suJ73,jenb8cxzszdkjsbQLlXayS0suJ73,2.0,images/choice_trial_15.png,images/choice_trial_8.png,images/pattern_7.png,j,j,750.0,15.0,8.0,6.0,1.0,25.0,1.0,1.0,8.0,130.0,,,,,,65a5418464c0267277a80a1e,09:06:03,27/02/2024
html-keyboard-response,139,281148,0.0-58.0-1.0,,"<div style=""display: flex; flex-direction: column; align-items: center; margin-top: -40px;""><img src=""images/pattern_7.png"" style=""width: 234px; height: 230px; margin-top: -50px;""><div style=""display: flex; justify-content: space-between; margin-top: 33px;""><img src=""images/choice_trial_8.png"" style=""width: 408px; height: 417px; margin-left:608px;""></div></div>",,delaylearn,learning,display_response,jenb8cxzszdkjsbQLlXayS0suJ73,jenb8cxzszdkjsbQLlXayS0suJ73,,,,,,,,,,,,,,,,,chosen stimuli: images/choice_trial_8.png,,,,,65a5418464c0267277a80a1e,09:06:03,27/02/2024
html-keyboard-response,140,281905,0.0-58.0-2.0,,,,delaylearn,learning,feedback_duration_window,jenb8cxzszdkjsbQLlXayS0suJ73,jenb8cxzszdkjsbQLlXayS0suJ73,,,,,,,,,,,,,,,,,,750.0,,,,65a5418464c0267277a80a1e,09:06:03,27/02/2024
html-keyboard-response,141,283421,0.0-58.0-3.0,,<div style='margin:auto;width: auto; font-size: 150%'><span style='font-weight: bold; font-size: 100px; color: green;'>+10 points!</span><br><br></div>,,delaylearn,learning,feedback_image_window,jenb8cxzszdkjsbQLlXayS0suJ73,jenb8cxzszdkjsbQLlXayS0suJ73,,,,,,,,,,,,,,,,,,,,,,65a5418464c0267277a80a1e,09:06:03,27/02/2024
html-keyboard-response,142,283935,0.0-59.0-0.0,,,,,,mood_trial_fixation,jenb8cxzszdkjsbQLlXayS0suJ73,,,,,,,,,,,,,,,,,,,,,,,65a5418464c0267277a80a1e,09:06:03,27/02/2024
lmdlab-html-vas-response,143,287311,0.0-59.0-1.0,2363.0,How happy are you right now?,0.8317901234567902,delaylearn,learning,mood_trial,jenb8cxzszdkjsbQLlXayS0suJ73,jenb8cxzszdkjsbQLlXayS0suJ73,,,,,,,,,,,,,,,,,,,,"['Very unhappy', 'Very happy']",,65a5418464c0267277a80a1e,09:06:03,27/02/2024
html-keyboard-response,144,289107,0.0-60.0,,"<div style=""font-size:100px;"">+</div>",,delaylearn,learning,ITI,jenb8cxzszdkjsbQLlXayS0suJ73,jenb8cxzszdkjsbQLlXayS0suJ73,,,,,,,,,,,,,,,,,,,1795.0,,,65a5418464c0267277a80a1e,09:06:03,27/02/2024
html-keyboard-response,145,290671,0.0-61.0-0.0,1562.3999999761581,"<div style=""display: flex; flex-direction: column; align-items: center; margin-top: -40px;""><img src=""images/pattern_1.png"" style=""width: 234px; height: 230px; margin-top: -50px;""><div style=""display: flex; justify-content: space-between; margin-top: 33px;""><img src=""images/choice_trial_3.png"" style=""width: 408px; height: 417px; margin-right: 200px;""><img src=""images/choice_trial_10.png"" style=""width: 408px; height: 417px;""></div></div>",j,delaylearn,learning,trial,jenb8cxzszdkjsbQLlXayS0suJ73,jenb8cxzszdkjsbQLlXayS0suJ73,2.0,images/choice_trial_3.png,images/choice_trial_10.png,images/pattern_1.png,f,f,7000.0,3.0,10.0,1.0,0.0,26.0,0.0,0.0,10.0,130.0,,,,,,65a5418464c0267277a80a1e,09:06:03,27/02/2024
html-keyboard-response,146,291676,0.0-61.0-1.0,,"<div style=""display: flex; flex-direction: column; align-items: center; margin-top: -40px;""><img src=""images/pattern_1.png"" style=""width: 234px; height: 230px; margin-top: -50px;""><div style=""display: flex; justify-content: space-between; margin-top: 33px;""><img src=""images/choice_trial_10.png"" style=""width: 408px; height: 417px; margin-left:608px;""></div></div>",,delaylearn,learning,display_response,jenb8cxzszdkjsbQLlXayS0suJ73,jenb8cxzszdkjsbQLlXayS0suJ73,,,,,,,,,,,,,,,,,chosen stimuli: images/choice_trial_10.png,,,,,65a5418464c0267277a80a1e,09:06:03,27/02/2024
html-keyboard-response,147,298681,0.0-61.0-2.0,,,,delaylearn,learning,feedback_duration_window,jenb8cxzszdkjsbQLlXayS0suJ73,jenb8cxzszdkjsbQLlXayS0suJ73,,,,,,,,,,,,,,,,,,7000.0,,,,65a5418464c0267277a80a1e,09:06:03,27/02/2024
html-keyboard-response,148,300195,0.0-61.0-3.0,,<div style='margin:auto;width: auto; font-size: 150%'><span style='font-weight: bold; font-size: 100px; color: red;'>0 points!</span><br><br></div>,,delaylearn,learning,feedback_image_window,jenb8cxzszdkjsbQLlXayS0suJ73,jenb8cxzszdkjsbQLlXayS0suJ73,,,,,,,,,,,,,,,,,,,,,,65a5418464c0267277a80a1e,09:06:03,27/02/2024
html-keyboard-response,149,301811,0.0-62.0,,"<div style=""font-size:100px;"">+</div>",,delaylearn,learning,ITI,jenb8cxzszdkjsbQLlXayS0suJ73,jenb8cxzszdkjsbQLlXayS0suJ73,,,,,,,,,,,,,,,,,,,1606.0,,,65a5418464c0267277a80a1e,09:06:03,27/02/2024
html-keyboard-response,150,303550,0.0-63.0-0.0,1738.1000000238419,"<div style=""display: flex; flex-direction: column; align-items: center; margin-top: -40px;""><img src=""images/pattern_5.png"" style=""width: 234px; height: 230px; margin-top: -50px;""><div style=""display: flex; justify-content: space-between; margin-top: 33px;""><img src=""images/choice_trial_2.png"" style=""width: 408px; height: 417px; margin-right: 200px;""><img src=""images/choice_trial_9.png"" style=""width: 408px; height: 417px;""></div></div>",j,delaylearn,learning,trial,jenb8cxzszdkjsbQLlXayS0suJ73,jenb8cxzszdkjsbQLlXayS0suJ73,2.0,images/choice_trial_2.png,images/choice_trial_9.png,images/pattern_5.png,f,f,750.0,2.0,9.0,4.0,0.0,27.0,0.0,0.0,9.0,130.0,,,,,,65a5418464c0267277a80a1e,09:06:03,27/02/2024
html-keyboard-response,151,304551,0.0-63.0-1.0,,"<div style=""display: flex; flex-direction: column; align-items: center; margin-top: -40px;""><img src=""images/pattern_5.png"" style=""width: 234px; height: 230px; margin-top: -50px;""><div style=""display: flex; justify-content: space-between; margin-top: 33px;""><img src=""images/choice_trial_9.png"" style=""width: 408px; height: 417px; margin-left:608px;""></div></div>",,delaylearn,learning,display_response,jenb8cxzszdkjsbQLlXayS0suJ73,jenb8cxzszdkjsbQLlXayS0suJ73,,,,,,,,,,,,,,,,,chosen stimuli: images/choice_trial_9.png,,,,,65a5418464c0267277a80a1e,09:06:03,27/02/2024
html-keyboard-response,152,305313,0.0-63.0-2.0,,,,delaylearn,learning,feedback_duration_window,jenb8cxzszdkjsbQLlXayS0suJ73,jenb8cxzszdkjsbQLlXayS0suJ73,,,,,,,,,,,,,,,,,,750.0,,,,65a5418464c0267277a80a1e,09:06:03,27/02/2024
html-keyboard-response,153,306815,0.0-63.0-3.0,,<div style='margin:auto;width: auto; font-size: 150%'><span style='font-weight: bold; font-size: 100px; color: red;'>0 points!</span><br><br></div>,,delaylearn,learning,feedback_image_window,jenb8cxzszdkjsbQLlXayS0suJ73,jenb8cxzszdkjsbQLlXayS0suJ73,,,,,,,,,,,,,,,,,,,,,,65a5418464c0267277a80a1e,09:06:03,27/02/2024
html-keyboard-response,154,308456,0.0-64.0,,"<div style=""font-size:100px;"">+</div>",,delaylearn,learning,ITI,jenb8cxzszdkjsbQLlXayS0suJ73,jenb8cxzszdkjsbQLlXayS0suJ73,,,,,,,,,,,,,,,,,,,1628.0,,,65a5418464c0267277a80a1e,09:06:03,27/02/2024
html-keyboard-response,155,309445,0.0-65.0-0.0,988.1999999880791,"<div style=""display: flex; flex-direction: column; align-items: center; margin-top: -40px;""><img src=""images/pattern_6.png"" style=""width: 234px; height: 230px; margin-top: -50px;""><div style=""display: flex; justify-content: space-between; margin-top: 33px;""><img src=""images/choice_trial_5.png"" style=""width: 408px; height: 417px; margin-right: 200px;""><img src=""images/choice_trial_11.png"" style=""width: 408px; height: 417px;""></div></div>",f,delaylearn,learning,trial,jenb8cxzszdkjsbQLlXayS0suJ73,jenb8cxzszdkjsbQLlXayS0suJ73,2.0,images/choice_trial_5.png,images/choice_trial_11.png,images/pattern_6.png,j,j,750.0,5.0,11.0,5.0,1.0,28.0,0.0,0.0,5.0,130.0,,,,,,65a5418464c0267277a80a1e,09:06:03,27/02/2024
html-keyboard-response,156,310456,0.0-65.0-1.0,,"<div style=""display: flex; flex-direction: column; align-items: center; margin-top: -40px;""><img src=""images/pattern_6.png"" style=""width: 234px; height: 230px; margin-top: -50px;""><div style=""display: flex; justify-content: space-between; margin-top: 33px;""><img src=""images/choice_trial_5.png"" style=""width: 408px; height: 417px; margin-right: 608px;""></div></div>",,delaylearn,learning,display_response,jenb8cxzszdkjsbQLlXayS0suJ73,jenb8cxzszdkjsbQLlXayS0suJ73,,,,,,,,,,,,,,,,,chosen stimuli: images/choice_trial_5.png,,,,,65a5418464c0267277a80a1e,09:06:03,27/02/2024
html-keyboard-response,157,311213,0.0-65.0-2.0,,,,delaylearn,learning,feedback_duration_window,jenb8cxzszdkjsbQLlXayS0suJ73,jenb8cxzszdkjsbQLlXayS0suJ73,,,,,,,,,,,,,,,,,,750.0,,,,65a5418464c0267277a80a1e,09:06:03,27/02/2024
html-keyboard-response,158,312724,0.0-65.0-3.0,,<div style='margin:auto;width: auto; font-size: 150%'><span style='font-weight: bold; font-size: 100px; color: red;'>0 points!</span><br><br></div>,,delaylearn,learning,feedback_image_window,jenb8cxzszdkjsbQLlXayS0suJ73,jenb8cxzszdkjsbQLlXayS0suJ73,,,,,,,,,,,,,,,,,,,,,,65a5418464c0267277a80a1e,09:06:03,27/02/2024
html-keyboard-response,159,313229,0.0-66.0-0.0,,,,,,mood_trial_fixation,jenb8cxzszdkjsbQLlXayS0suJ73,,,,,,,,,,,,,,,,,,,,,,,65a5418464c0267277a80a1e,09:06:03,27/02/2024
lmdlab-html-vas-response,160,316336,0.0-66.0-1.0,2096.0,How happy are you right now?,0.7669753086419753,delaylearn,learning,mood_trial,jenb8cxzszdkjsbQLlXayS0suJ73,jenb8cxzszdkjsbQLlXayS0suJ73,,,,,,,,,,,,,,,,,,,,"['Very unhappy', 'Very happy']",,65a5418464c0267277a80a1e,09:06:03,27/02/2024
html-keyboard-response,161,318299,0.0-67.0,,"<div style=""font-size:100px;"">+</div>",,delaylearn,learning,ITI,jenb8cxzszdkjsbQLlXayS0suJ73,jenb8cxzszdkjsbQLlXayS0suJ73,,,,,,,,,,,,,,,,,,,1952.0,,,65a5418464c0267277a80a1e,09:06:03,27/02/2024
html-keyboard-response,162,319362,0.0-68.0-0.0,1061.6000000238419,"<div style=""display: flex; flex-direction: column; align-items: center; margin-top: -40px;""><img src=""images/pattern_4.png"" style=""width: 234px; height: 230px; margin-top: -50px;""><div style=""display: flex; justify-content: space-between; margin-top: 33px;""><img src=""images/choice_trial_16.png"" style=""width: 408px; height: 417px; margin-right: 200px;""><img src=""images/choice_trial_4.png"" style=""width: 408px; height: 417px;""></div></div>",j,delaylearn,learning,trial,jenb8cxzszdkjsbQLlXayS0suJ73,jenb8cxzszdkjsbQLlXayS0suJ73,2.0,images/choice_trial_16.png,images/choice_trial_4.png,images/pattern_4.png,j,j,7000.0,16.0,4.0,3.0,1.0,29.0,1.0,1.0,4.0,140.0,,,,,,65a5418464c0267277a80a1e,09:06:03,27/02/2024
html-keyboard-response,163,320373,0.0-68.0-1.0,,"<div style=""display: flex; flex-direction: column; align-items: center; margin-top: -40px;""><img src=""images/pattern_4.png"" style=""width: 234px; height: 230px; margin-top: -50px;""><div style=""display: flex; justify-content: space-between; margin-top: 33px;""><img src=""images/choice_trial_4.png"" style=""width: 408px; height: 417px; margin-left:608px;""></div></div>",,delaylearn,learning,display_response,jenb8cxzszdkjsbQLlXayS0suJ73,jenb8cxzszdkjsbQLlXayS0suJ73,,,,,,,,,,,,,,,,,chosen stimuli: images/choice_trial_4.png,,,,,65a5418464c0267277a80a1e,09:06:03,27/02/2024
html-keyboard-response,164,327387,0.0-68.0-2.0,,,,delaylearn,learning,feedback_duration_window,jenb8cxzszdkjsbQLlXayS0suJ73,jenb8cxzszdkjsbQLlXayS0suJ73,,,,,,,,,,,,,,,,,,7000.0,,,,65a5418464c0267277a80a1e,09:06:03,27/02/2024
html-keyboard-response,165,328892,0.0-68.0-3.0,,<div style='margin:auto;width: auto; font-size: 150%'><span style='font-weight: bold; font-size: 100px; color: green;'>+10 points!</span><br><br></div>,,delaylearn,learning,feedback_image_window,jenb8cxzszdkjsbQLlXayS0suJ73,jenb8cxzszdkjsbQLlXayS0suJ73,,,,,,,,,,,,,,,,,,,,,,65a5418464c0267277a80a1e,09:06:03,27/02/2024
html-keyboard-response,166,330551,0.0-69.0,,"<div style=""font-size:100px;"">+</div>",,delaylearn,learning,ITI,jenb8cxzszdkjsbQLlXayS0suJ73,jenb8cxzszdkjsbQLlXayS0suJ73,,,,,,,,,,,,,,,,,,,1652.0,,,65a5418464c0267277a80a1e,09:06:03,27/02/2024
html-keyboard-response,167,332190,0.0-70.0-0.0,1638.1000000238419,"<div style=""display: flex; flex-direction: column; align-items: center; margin-top: -40px;""><img src=""images/pattern_3.png"" style=""width: 234px; height: 230px; margin-top: -50px;""><div style=""display: flex; justify-content: space-between; margin-top: 33px;""><img src=""images/choice_trial_14.png"" style=""width: 408px; height: 417px; margin-right: 200px;""><img src=""images/choice_trial_12.png"" style=""width: 408px; height: 417px;""></div></div>",f,delaylearn,learning,trial,jenb8cxzszdkjsbQLlXayS0suJ73,jenb8cxzszdkjsbQLlXayS0suJ73,2.0,images/choice_trial_14.png,images/choice_trial_12.png,images/pattern_3.png,j,j,7000.0,14.0,12.0,2.0,1.0,30.0,0.0,0.0,14.0,140.0,,,,,,65a5418464c0267277a80a1e,09:06:03,27/02/2024
html-keyboard-response,168,333192,0.0-70.0-1.0,,"<div style=""display: flex; flex-direction: column; align-items: center; margin-top: -40px;""><img src=""images/pattern_3.png"" style=""width: 234px; height: 230px; margin-top: -50px;""><div style=""display: flex; justify-content: space-between; margin-top: 33px;""><img src=""images/choice_trial_14.png"" style=""width: 408px; height: 417px; margin-right: 608px;""></div></div>",,delaylearn,learning,display_response,jenb8cxzszdkjsbQLlXayS0suJ73,jenb8cxzszdkjsbQLlXayS0suJ73,,,,,,,,,,,,,,,,,chosen stimuli: images/choice_trial_14.png,,,,,65a5418464c0267277a80a1e,09:06:03,27/02/2024
html-keyboard-response,169,340201,0.0-70.0-2.0,,,,delaylearn,learning,feedback_duration_window,jenb8cxzszdkjsbQLlXayS0suJ73,jenb8cxzszdkjsbQLlXayS0suJ73,,,,,,,,,,,,,,,,,,7000.0,,,,65a5418464c0267277a80a1e,09:06:03,27/02/2024
html-keyboard-response,170,341703,0.0-70.0-3.0,,<div style='margin:auto;width: auto; font-size: 150%'><span style='font-weight: bold; font-size: 100px; color: red;'>0 points!</span><br><br></div>,,delaylearn,learning,feedback_image_window,jenb8cxzszdkjsbQLlXayS0suJ73,jenb8cxzszdkjsbQLlXayS0suJ73,,,,,,,,,,,,,,,,,,,,,,65a5418464c0267277a80a1e,09:06:03,27/02/2024
html-keyboard-response,171,343760,0.0-71.0,,"<div style=""font-size:100px;"">+</div>",,delaylearn,learning,ITI,jenb8cxzszdkjsbQLlXayS0suJ73,jenb8cxzszdkjsbQLlXayS0suJ73,,,,,,,,,,,,,,,,,,,2047.0,,,65a5418464c0267277a80a1e,09:06:03,27/02/2024
html-keyboard-response,172,344997,0.0-72.0-0.0,1235.7999999523163,"<div style=""display: flex; flex-direction: column; align-items: center; margin-top: -40px;""><img src=""images/pattern_5.png"" style=""width: 234px; height: 230px; margin-top: -50px;""><div style=""display: flex; justify-content: space-between; margin-top: 33px;""><img src=""images/choice_trial_2.png"" style=""width: 408px; height: 417px; margin-right: 200px;""><img src=""images/choice_trial_9.png"" style=""width: 408px; height: 417px;""></div></div>",f,delaylearn,learning,trial,jenb8cxzszdkjsbQLlXayS0suJ73,jenb8cxzszdkjsbQLlXayS0suJ73,2.0,images/choice_trial_2.png,images/choice_trial_9.png,images/pattern_5.png,j,f,750.0,2.0,9.0,4.0,0.0,31.0,1.0,0.0,2.0,140.0,,,,,,65a5418464c0267277a80a1e,09:06:03,27/02/2024
html-keyboard-response,173,346000,0.0-72.0-1.0,,"<div style=""display: flex; flex-direction: column; align-items: center; margin-top: -40px;""><img src=""images/pattern_5.png"" style=""width: 234px; height: 230px; margin-top: -50px;""><div style=""display: flex; justify-content: space-between; margin-top: 33px;""><img src=""images/choice_trial_2.png"" style=""width: 408px; height: 417px; margin-right: 608px;""></div></div>",,delaylearn,learning,display_response,jenb8cxzszdkjsbQLlXayS0suJ73,jenb8cxzszdkjsbQLlXayS0suJ73,,,,,,,,,,,,,,,,,chosen stimuli: images/choice_trial_2.png,,,,,65a5418464c0267277a80a1e,09:06:03,27/02/2024
html-keyboard-response,174,346759,0.0-72.0-2.0,,,,delaylearn,learning,feedback_duration_window,jenb8cxzszdkjsbQLlXayS0suJ73,jenb8cxzszdkjsbQLlXayS0suJ73,,,,,,,,,,,,,,,,,,750.0,,,,65a5418464c0267277a80a1e,09:06:03,27/02/2024
html-keyboard-response,175,348273,0.0-72.0-3.0,,<div style='margin:auto;width: auto; font-size: 150%'><span style='font-weight: bold; font-size: 100px; color: red;'>0 points!</span><br><br></div>,,delaylearn,learning,feedback_image_window,jenb8cxzszdkjsbQLlXayS0suJ73,jenb8cxzszdkjsbQLlXayS0suJ73,,,,,,,,,,,,,,,,,,,,,,65a5418464c0267277a80a1e,09:06:03,27/02/2024
html-keyboard-response,176,350653,0.0-73.0,,"<div style=""font-size:100px;"">+</div>",,delaylearn,learning,ITI,jenb8cxzszdkjsbQLlXayS0suJ73,jenb8cxzszdkjsbQLlXayS0suJ73,,,,,,,,,,,,,,,,,,,2364.0,,,65a5418464c0267277a80a1e,09:06:03,27/02/2024
html-keyboard-response,177,352184,0.0-74.0-0.0,1529.800000011921,"<div style=""display: flex; flex-direction: column; align-items: center; margin-top: -40px;""><img src=""images/pattern_1.png"" style=""width: 234px; height: 230px; margin-top: -50px;""><div style=""display: flex; justify-content: space-between; margin-top: 33px;""><img src=""images/choice_trial_3.png"" style=""width: 408px; height: 417px; margin-right: 200px;""><img src=""images/choice_trial_10.png"" style=""width: 408px; height: 417px;""></div></div>",f,delaylearn,learning,trial,jenb8cxzszdkjsbQLlXayS0suJ73,jenb8cxzszdkjsbQLlXayS0suJ73,2.0,images/choice_trial_3.png,images/choice_trial_10.png,images/pattern_1.png,f,f,7000.0,3.0,10.0,1.0,0.0,32.0,1.0,1.0,3.0,150.0,,,,,,65a5418464c0267277a80a1e,09:06:03,27/02/2024
html-keyboard-response,178,353193,0.0-74.0-1.0,,"<div style=""display: flex; flex-direction: column; align-items: center; margin-top: -40px;""><img src=""images/pattern_1.png"" style=""width: 234px; height: 230px; margin-top: -50px;""><div style=""display: flex; justify-content: space-between; margin-top: 33px;""><img src=""images/choice_trial_3.png"" style=""width: 408px; height: 417px; margin-right: 608px;""></div></div>",,delaylearn,learning,display_response,jenb8cxzszdkjsbQLlXayS0suJ73,jenb8cxzszdkjsbQLlXayS0suJ73,,,,,,,,,,,,,,,,,chosen stimuli: images/choice_trial_3.png,,,,,65a5418464c0267277a80a1e,09:06:03,27/02/2024
html-keyboard-response,179,360202,0.0-74.0-2.0,,,,delaylearn,learning,feedback_duration_window,jenb8cxzszdkjsbQLlXayS0suJ73,jenb8cxzszdkjsbQLlXayS0suJ73,,,,,,,,,,,,,,,,,,7000.0,,,,65a5418464c0267277a80a1e,09:06:03,27/02/2024
html-keyboard-response,180,361708,0.0-74.0-3.0,,<div style='margin:auto;width: auto; font-size: 150%'><span style='font-weight: bold; font-size: 100px; color: green;'>+10 points!</span><br><br></div>,,delaylearn,learning,feedback_image_window,jenb8cxzszdkjsbQLlXayS0suJ73,jenb8cxzszdkjsbQLlXayS0suJ73,,,,,,,,,,,,,,,,,,,,,,65a5418464c0267277a80a1e,09:06:03,27/02/2024
html-keyboard-response,181,362222,0.0-75.0-0.0,,,,,,mood_trial_fixation,jenb8cxzszdkjsbQLlXayS0suJ73,,,,,,,,,,,,,,,,,,,,,,,65a5418464c0267277a80a1e,09:06:03,27/02/2024
lmdlab-html-vas-response,182,365559,0.0-75.0-1.0,2321.0,How happy are you right now?,0.816358024691358,delaylearn,learning,mood_trial,jenb8cxzszdkjsbQLlXayS0suJ73,jenb8cxzszdkjsbQLlXayS0suJ73,,,,,,,,,,,,,,,,,,,,"['Very unhappy', 'Very happy']",,65a5418464c0267277a80a1e,09:06:03,27/02/2024
html-keyboard-response,183,367583,0.0-76.0,,"<div style=""font-size:100px;"">+</div>",,delaylearn,learning,ITI,jenb8cxzszdkjsbQLlXayS0suJ73,jenb8cxzszdkjsbQLlXayS0suJ73,,,,,,,,,,,,,,,,,,,2021.0,,,65a5418464c0267277a80a1e,09:06:03,27/02/2024
html-keyboard-response,184,369177,0.0-77.0-0.0,1593.7000000476837,"<div style=""display: flex; flex-direction: column; align-items: center; margin-top: -40px;""><img src=""images/pattern_6.png"" style=""width: 234px; height: 230px; margin-top: -50px;""><div style=""display: flex; justify-content: space-between; margin-top: 33px;""><img src=""images/choice_trial_11.png"" style=""width: 408px; height: 417px; margin-right: 200px;""><img src=""images/choice_trial_5.png"" style=""width: 408px; height: 417px;""></div></div>",f,delaylearn,learning,trial,jenb8cxzszdkjsbQLlXayS0suJ73,jenb8cxzszdkjsbQLlXayS0suJ73,2.0,images/choice_trial_11.png,images/choice_trial_5.png,images/pattern_6.png,j,f,750.0,11.0,5.0,5.0,0.0,33.0,1.0,0.0,11.0,150.0,,,,,,65a5418464c0267277a80a1e,09:06:03,27/02/2024
html-keyboard-response,185,370185,0.0-77.0-1.0,,"<div style=""display: flex; flex-direction: column; align-items: center; margin-top: -40px;""><img src=""images/pattern_6.png"" style=""width: 234px; height: 230px; margin-top: -50px;""><div style=""display: flex; justify-content: space-between; margin-top: 33px;""><img src=""images/choice_trial_11.png"" style=""width: 408px; height: 417px; margin-right: 608px;""></div></div>",,delaylearn,learning,display_response,jenb8cxzszdkjsbQLlXayS0suJ73,jenb8cxzszdkjsbQLlXayS0suJ73,,,,,,,,,,,,,,,,,chosen stimuli: images/choice_trial_11.png,,,,,65a5418464c0267277a80a1e,09:06:03,27/02/2024
html-keyboard-response,186,370948,0.0-77.0-2.0,,,,delaylearn,learning,feedback_duration_window,jenb8cxzszdkjsbQLlXayS0suJ73,jenb8cxzszdkjsbQLlXayS0suJ73,,,,,,,,,,,,,,,,,,750.0,,,,65a5418464c0267277a80a1e,09:06:03,27/02/2024
html-keyboard-response,187,372457,0.0-77.0-3.0,,<div style='margin:auto;width: auto; font-size: 150%'><span style='font-weight: bold; font-size: 100px; color: red;'>0 points!</span><br><br></div>,,delaylearn,learning,feedback_image_window,jenb8cxzszdkjsbQLlXayS0suJ73,jenb8cxzszdkjsbQLlXayS0suJ73,,,,,,,,,,,,,,,,,,,,,,65a5418464c0267277a80a1e,09:06:03,27/02/2024
html-keyboard-response,188,374361,0.0-78.0,,"<div style=""font-size:100px;"">+</div>",,delaylearn,learning,ITI,jenb8cxzszdkjsbQLlXayS0suJ73,jenb8cxzszdkjsbQLlXayS0suJ73,,,,,,,,,,,,,,,,,,,1888.0,,,65a5418464c0267277a80a1e,09:06:03,27/02/2024
html-keyboard-response,189,376274,0.0-79.0-0.0,1911.8999999761581,"<div style=""display: flex; flex-direction: column; align-items: center; margin-top: -40px;""><img src=""images/pattern_3.png"" style=""width: 234px; height: 230px; margin-top: -50px;""><div style=""display: flex; justify-content: space-between; margin-top: 33px;""><img src=""images/choice_trial_14.png"" style=""width: 408px; height: 417px; margin-right: 200px;""><img src=""images/choice_trial_12.png"" style=""width: 408px; height: 417px;""></div></div>",j,delaylearn,learning,trial,jenb8cxzszdkjsbQLlXayS0suJ73,jenb8cxzszdkjsbQLlXayS0suJ73,2.0,images/choice_trial_14.png,images/choice_trial_12.png,images/pattern_3.png,j,j,7000.0,14.0,12.0,2.0,1.0,34.0,1.0,1.0,12.0,160.0,,,,,,65a5418464c0267277a80a1e,09:06:03,27/02/2024
html-keyboard-response,190,377281,0.0-79.0-1.0,,"<div style=""display: flex; flex-direction: column; align-items: center; margin-top: -40px;""><img src=""images/pattern_3.png"" style=""width: 234px; height: 230px; margin-top: -50px;""><div style=""display: flex; justify-content: space-between; margin-top: 33px;""><img src=""images/choice_trial_12.png"" style=""width: 408px; height: 417px; margin-left:608px;""></div></div>",,delaylearn,learning,display_response,jenb8cxzszdkjsbQLlXayS0suJ73,jenb8cxzszdkjsbQLlXayS0suJ73,,,,,,,,,,,,,,,,,chosen stimuli: images/choice_trial_12.png,,,,,65a5418464c0267277a80a1e,09:06:03,27/02/2024
html-keyboard-response,191,384283,0.0-79.0-2.0,,,,delaylearn,learning,feedback_duration_window,jenb8cxzszdkjsbQLlXayS0suJ73,jenb8cxzszdkjsbQLlXayS0suJ73,,,,,,,,,,,,,,,,,,7000.0,,,,65a5418464c0267277a80a1e,09:06:03,27/02/2024
html-keyboard-response,192,385794,0.0-79.0-3.0,,<div style='margin:auto;width: auto; font-size: 150%'><span style='font-weight: bold; font-size: 100px; color: green;'>+10 points!</span><br><br></div>,,delaylearn,learning,feedback_image_window,jenb8cxzszdkjsbQLlXayS0suJ73,jenb8cxzszdkjsbQLlXayS0suJ73,,,,,,,,,,,,,,,,,,,,,,65a5418464c0267277a80a1e,09:06:03,27/02/2024
html-keyboard-response,193,388089,0.0-80.0,,"<div style=""font-size:100px;"">+</div>",,delaylearn,learning,ITI,jenb8cxzszdkjsbQLlXayS0suJ73,jenb8cxzszdkjsbQLlXayS0suJ73,,,,,,,,,,,,,,,,,,,2292.0,,,65a5418464c0267277a80a1e,09:06:03,27/02/2024
html-keyboard-response,194,389017,0.0-81.0-0.0,926.3000000119209,"<div style=""display: flex; flex-direction: column; align-items: center; margin-top: -40px;""><img src=""images/pattern_4.png"" style=""width: 234px; height: 230px; margin-top: -50px;""><div style=""display: flex; justify-content: space-between; margin-top: 33px;""><img src=""images/choice_trial_16.png"" style=""width: 408px; height: 417px; margin-right: 200px;""><img src=""images/choice_trial_4.png"" style=""width: 408px; height: 417px;""></div></div>",j,delaylearn,learning,trial,jenb8cxzszdkjsbQLlXayS0suJ73,jenb8cxzszdkjsbQLlXayS0suJ73,2.0,images/choice_trial_16.png,images/choice_trial_4.png,images/pattern_4.png,f,j,7000.0,16.0,4.0,3.0,1.0,35.0,1.0,0.0,4.0,160.0,,,,,,65a5418464c0267277a80a1e,09:06:03,27/02/2024
html-keyboard-response,195,390023,0.0-81.0-1.0,,"<div style=""display: flex; flex-direction: column; align-items: center; margin-top: -40px;""><img src=""images/pattern_4.png"" style=""width: 234px; height: 230px; margin-top: -50px;""><div style=""display: flex; justify-content: space-between; margin-top: 33px;""><img src=""images/choice_trial_4.png"" style=""width: 408px; height: 417px; margin-left:608px;""></div></div>",,delaylearn,learning,display_response,jenb8cxzszdkjsbQLlXayS0suJ73,jenb8cxzszdkjsbQLlXayS0suJ73,,,,,,,,,,,,,,,,,chosen stimuli: images/choice_trial_4.png,,,,,65a5418464c0267277a80a1e,09:06:03,27/02/2024
html-keyboard-response,196,397037,0.0-81.0-2.0,,,,delaylearn,learning,feedback_duration_window,jenb8cxzszdkjsbQLlXayS0suJ73,jenb8cxzszdkjsbQLlXayS0suJ73,,,,,,,,,,,,,,,,,,7000.0,,,,65a5418464c0267277a80a1e,09:06:03,27/02/2024
html-keyboard-response,197,398541,0.0-81.0-3.0,,<div style='margin:auto;width: auto; font-size: 150%'><span style='font-weight: bold; font-size: 100px; color: red;'>0 points!</span><br><br></div>,,delaylearn,learning,feedback_image_window,jenb8cxzszdkjsbQLlXayS0suJ73,jenb8cxzszdkjsbQLlXayS0suJ73,,,,,,,,,,,,,,,,,,,,,,65a5418464c0267277a80a1e,09:06:03,27/02/2024
html-keyboard-response,198,400521,0.0-82.0,,"<div style=""font-size:100px;"">+</div>",,delaylearn,learning,ITI,jenb8cxzszdkjsbQLlXayS0suJ73,jenb8cxzszdkjsbQLlXayS0suJ73,,,,,,,,,,,,,,,,,,,1973.0,,,65a5418464c0267277a80a1e,09:06:03,27/02/2024
html-keyboard-response,199,402422,0.0-83.0-0.0,1900.0999999642372,"<div style=""display: flex; flex-direction: column; align-items: center; margin-top: -40px;""><img src=""images/pattern_7.png"" style=""width: 234px; height: 230px; margin-top: -50px;""><div style=""display: flex; justify-content: space-between; margin-top: 33px;""><img src=""images/choice_trial_8.png"" style=""width: 408px; height: 417px; margin-right: 200px;""><img src=""images/choice_trial_15.png"" style=""width: 408px; height: 417px;""></div></div>",f,delaylearn,learning,trial,jenb8cxzszdkjsbQLlXayS0suJ73,jenb8cxzszdkjsbQLlXayS0suJ73,2.0,images/choice_trial_8.png,images/choice_trial_15.png,images/pattern_7.png,f,f,750.0,8.0,15.0,6.0,0.0,36.0,1.0,1.0,8.0,170.0,,,,,,65a5418464c0267277a80a1e,09:06:03,27/02/2024
html-keyboard-response,200,403427,0.0-83.0-1.0,,"<div style=""display: flex; flex-direction: column; align-items: center; margin-top: -40px;""><img src=""images/pattern_7.png"" style=""width: 234px; height: 230px; margin-top: -50px;""><div style=""display: flex; justify-content: space-between; margin-top: 33px;""><img src=""images/choice_trial_8.png"" style=""width: 408px; height: 417px; margin-right: 608px;""></div></div>",,delaylearn,learning,display_response,jenb8cxzszdkjsbQLlXayS0suJ73,jenb8cxzszdkjsbQLlXayS0suJ73,,,,,,,,,,,,,,,,,chosen stimuli: images/choice_trial_8.png,,,,,65a5418464c0267277a80a1e,09:06:03,27/02/2024
html-keyboard-response,201,404180,0.0-83.0-2.0,,,,delaylearn,learning,feedback_duration_window,jenb8cxzszdkjsbQLlXayS0suJ73,jenb8cxzszdkjsbQLlXayS0suJ73,,,,,,,,,,,,,,,,,,750.0,,,,65a5418464c0267277a80a1e,09:06:03,27/02/2024
html-keyboard-response,202,405684,0.0-83.0-3.0,,<div style='margin:auto;width: auto; font-size: 150%'><span style='font-weight: bold; font-size: 100px; color: green;'>+10 points!</span><br><br></div>,,delaylearn,learning,feedback_image_window,jenb8cxzszdkjsbQLlXayS0suJ73,jenb8cxzszdkjsbQLlXayS0suJ73,,,,,,,,,,,,,,,,,,,,,,65a5418464c0267277a80a1e,09:06:03,27/02/2024
html-keyboard-response,203,407273,0.0-84.0,,"<div style=""font-size:100px;"">+</div>",,delaylearn,learning,ITI,jenb8cxzszdkjsbQLlXayS0suJ73,jenb8cxzszdkjsbQLlXayS0suJ73,,,,,,,,,,,,,,,,,,,1576.0,,,65a5418464c0267277a80a1e,09:06:03,27/02/2024
html-keyboard-response,204,408762,0.0-85.0-0.0,1487.699999988079,"<div style=""display: flex; flex-direction: column; align-items: center; margin-top: -40px;""><img src=""images/pattern_1.png"" style=""width: 234px; height: 230px; margin-top: -50px;""><div style=""display: flex; justify-content: space-between; margin-top: 33px;""><img src=""images/choice_trial_3.png"" style=""width: 408px; height: 417px; margin-right: 200px;""><img src=""images/choice_trial_10.png"" style=""width: 408px; height: 417px;""></div></div>",f,delaylearn,learning,trial,jenb8cxzszdkjsbQLlXayS0suJ73,jenb8cxzszdkjsbQLlXayS0suJ73,2.0,images/choice_trial_3.png,images/choice_trial_10.png,images/pattern_1.png,f,f,7000.0,3.0,10.0,1.0,0.0,37.0,1.0,1.0,3.0,180.0,,,,,,65a5418464c0267277a80a1e,09:06:03,27/02/2024
html-keyboard-response,205,409776,0.0-85.0-1.0,,"<div style=""display: flex; flex-direction: column; align-items: center; margin-top: -40px;""><img src=""images/pattern_1.png"" style=""width: 234px; height: 230px; margin-top: -50px;""><div style=""display: flex; justify-content: space-between; margin-top: 33px;""><img src=""images/choice_trial_3.png"" style=""width: 408px; height: 417px; margin-right: 608px;""></div></div>",,delaylearn,learning,display_response,jenb8cxzszdkjsbQLlXayS0suJ73,jenb8cxzszdkjsbQLlXayS0suJ73,,,,,,,,,,,,,,,,,chosen stimuli: images/choice_trial_3.png,,,,,65a5418464c0267277a80a1e,09:06:03,27/02/2024
html-keyboard-response,206,416785,0.0-85.0-2.0,,,,delaylearn,learning,feedback_duration_window,jenb8cxzszdkjsbQLlXayS0suJ73,jenb8cxzszdkjsbQLlXayS0suJ73,,,,,,,,,,,,,,,,,,7000.0,,,,65a5418464c0267277a80a1e,09:06:03,27/02/2024
html-keyboard-response,207,418297,0.0-85.0-3.0,,<div style='margin:auto;width: auto; font-size: 150%'><span style='font-weight: bold; font-size: 100px; color: green;'>+10 points!</span><br><br></div>,,delaylearn,learning,feedback_image_window,jenb8cxzszdkjsbQLlXayS0suJ73,jenb8cxzszdkjsbQLlXayS0suJ73,,,,,,,,,,,,,,,,,,,,,,65a5418464c0267277a80a1e,09:06:03,27/02/2024
html-keyboard-response,208,418798,0.0-86.0-0.0,,,,,,mood_trial_fixation,jenb8cxzszdkjsbQLlXayS0suJ73,,,,,,,,,,,,,,,,,,,,,,,65a5418464c0267277a80a1e,09:06:03,27/02/2024
lmdlab-html-vas-response,209,422195,0.0-86.0-1.0,2395.0,How happy are you right now?,0.8209876543209876,delaylearn,learning,mood_trial,jenb8cxzszdkjsbQLlXayS0suJ73,jenb8cxzszdkjsbQLlXayS0suJ73,,,,,,,,,,,,,,,,,,,,"['Very unhappy', 'Very happy']",,65a5418464c0267277a80a1e,09:06:03,27/02/2024
html-keyboard-response,210,423901,0.0-87.0,,"<div style=""font-size:100px;"">+</div>",,delaylearn,learning,ITI,jenb8cxzszdkjsbQLlXayS0suJ73,jenb8cxzszdkjsbQLlXayS0suJ73,,,,,,,,,,,,,,,,,,,1689.0,,,65a5418464c0267277a80a1e,09:06:03,27/02/2024
html-keyboard-response,211,425341,0.0-88.0-0.0,1438.5,"<div style=""display: flex; flex-direction: column; align-items: center; margin-top: -40px;""><img src=""images/pattern_3.png"" style=""width: 234px; height: 230px; margin-top: -50px;""><div style=""display: flex; justify-content: space-between; margin-top: 33px;""><img src=""images/choice_trial_12.png"" style=""width: 408px; height: 417px; margin-right: 200px;""><img src=""images/choice_trial_14.png"" style=""width: 408px; height: 417px;""></div></div>",j,delaylearn,learning,trial,jenb8cxzszdkjsbQLlXayS0suJ73,jenb8cxzszdkjsbQLlXayS0suJ73,2.0,images/choice_trial_12.png,images/choice_trial_14.png,images/pattern_3.png,j,f,7000.0,12.0,14.0,2.0,0.0,38.0,0.0,1.0,14.0,190.0,,,,,,65a5418464c0267277a80a1e,09:06:03,27/02/2024
html-keyboard-response,212,426343,0.0-88.0-1.0,,"<div style=""display: flex; flex-direction: column; align-items: center; margin-top: -40px;""><img src=""images/pattern_3.png"" style=""width: 234px; height: 230px; margin-top: -50px;""><div style=""display: flex; justify-content: space-between; margin-top: 33px;""><img src=""images/choice_trial_14.png"" style=""width: 408px; height: 417px; margin-left:608px;""></div></div>",,delaylearn,learning,display_response,jenb8cxzszdkjsbQLlXayS0suJ73,jenb8cxzszdkjsbQLlXayS0suJ73,,,,,,,,,,,,,,,,,chosen stimuli: images/choice_trial_14.png,,,,,65a5418464c0267277a80a1e,09:06:03,27/02/2024
html-keyboard-response,213,433344,0.0-88.0-2.0,,,,delaylearn,learning,feedback_duration_window,jenb8cxzszdkjsbQLlXayS0suJ73,jenb8cxzszdkjsbQLlXayS0suJ73,,,,,,,,,,,,,,,,,,7000.0,,,,65a5418464c0267277a80a1e,09:06:03,27/02/2024
html-keyboard-response,214,434855,0.0-88.0-3.0,,<div style='margin:auto;width: auto; font-size: 150%'><span style='font-weight: bold; font-size: 100px; color: green;'>+10 points!</span><br><br></div>,,delaylearn,learning,feedback_image_window,jenb8cxzszdkjsbQLlXayS0suJ73,jenb8cxzszdkjsbQLlXayS0suJ73,,,,,,,,,,,,,,,,,,,,,,65a5418464c0267277a80a1e,09:06:03,27/02/2024
html-keyboard-response,215,437343,0.0-89.0,,"<div style=""font-size:100px;"">+</div>",,delaylearn,learning,ITI,jenb8cxzszdkjsbQLlXayS0suJ73,jenb8cxzszdkjsbQLlXayS0suJ73,,,,,,,,,,,,,,,,,,,2482.0,,,65a5418464c0267277a80a1e,09:06:03,27/02/2024
html-keyboard-response,216,438494,0.0-90.0-0.0,1149.699999988079,"<div style=""display: flex; flex-direction: column; align-items: center; margin-top: -40px;""><img src=""images/pattern_7.png"" style=""width: 234px; height: 230px; margin-top: -50px;""><div style=""display: flex; justify-content: space-between; margin-top: 33px;""><img src=""images/choice_trial_15.png"" style=""width: 408px; height: 417px; margin-right: 200px;""><img src=""images/choice_trial_8.png"" style=""width: 408px; height: 417px;""></div></div>",j,delaylearn,learning,trial,jenb8cxzszdkjsbQLlXayS0suJ73,jenb8cxzszdkjsbQLlXayS0suJ73,2.0,images/choice_trial_15.png,images/choice_trial_8.png,images/pattern_7.png,j,j,750.0,15.0,8.0,6.0,1.0,39.0,1.0,1.0,8.0,200.0,,,,,,65a5418464c0267277a80a1e,09:06:03,27/02/2024
html-keyboard-response,217,439501,0.0-90.0-1.0,,"<div style=""display: flex; flex-direction: column; align-items: center; margin-top: -40px;""><img src=""images/pattern_7.png"" style=""width: 234px; height: 230px; margin-top: -50px;""><div style=""display: flex; justify-content: space-between; margin-top: 33px;""><img src=""images/choice_trial_8.png"" style=""width: 408px; height: 417px; margin-left:608px;""></div></div>",,delaylearn,learning,display_response,jenb8cxzszdkjsbQLlXayS0suJ73,jenb8cxzszdkjsbQLlXayS0suJ73,,,,,,,,,,,,,,,,,chosen stimuli: images/choice_trial_8.png,,,,,65a5418464c0267277a80a1e,09:06:03,27/02/2024
html-keyboard-response,218,440264,0.0-90.0-2.0,,,,delaylearn,learning,feedback_duration_window,jenb8cxzszdkjsbQLlXayS0suJ73,jenb8cxzszdkjsbQLlXayS0suJ73,,,,,,,,,,,,,,,,,,750.0,,,,65a5418464c0267277a80a1e,09:06:03,27/02/2024
html-keyboard-response,219,441779,0.0-90.0-3.0,,<div style='margin:auto;width: auto; font-size: 150%'><span style='font-weight: bold; font-size: 100px; color: green;'>+10 points!</span><br><br></div>,,delaylearn,learning,feedback_image_window,jenb8cxzszdkjsbQLlXayS0suJ73,jenb8cxzszdkjsbQLlXayS0suJ73,,,,,,,,,,,,,,,,,,,,,,65a5418464c0267277a80a1e,09:06:03,27/02/2024
html-keyboard-response,220,443816,0.0-91.0,,"<div style=""font-size:100px;"">+</div>",,delaylearn,learning,ITI,jenb8cxzszdkjsbQLlXayS0suJ73,jenb8cxzszdkjsbQLlXayS0suJ73,,,,,,,,,,,,,,,,,,,2030.0,,,65a5418464c0267277a80a1e,09:06:03,27/02/2024
html-keyboard-response,221,445307,0.0-92.0-0.0,1489.0,"<div style=""display: flex; flex-direction: column; align-items: center; margin-top: -40px;""><img src=""images/pattern_5.png"" style=""width: 234px; height: 230px; margin-top: -50px;""><div style=""display: flex; justify-content: space-between; margin-top: 33px;""><img src=""images/choice_trial_9.png"" style=""width: 408px; height: 417px; margin-right: 200px;""><img src=""images/choice_trial_2.png"" style=""width: 408px; height: 417px;""></div></div>",j,delaylearn,learning,trial,jenb8cxzszdkjsbQLlXayS0suJ73,jenb8cxzszdkjsbQLlXayS0suJ73,2.0,images/choice_trial_9.png,images/choice_trial_2.png,images/pattern_5.png,j,j,750.0,9.0,2.0,4.0,1.0,40.0,1.0,1.0,2.0,210.0,,,,,,65a5418464c0267277a80a1e,09:06:03,27/02/2024
html-keyboard-response,222,446313,0.0-92.0-1.0,,"<div style=""display: flex; flex-direction: column; align-items: center; margin-top: -40px;""><img src=""images/pattern_5.png"" style=""width: 234px; height: 230px; margin-top: -50px;""><div style=""display: flex; justify-content: space-between; margin-top: 33px;""><img src=""images/choice_trial_2.png"" style=""width: 408px; height: 417px; margin-left:608px;""></div></div>",,delaylearn,learning,display_response,jenb8cxzszdkjsbQLlXayS0suJ73,jenb8cxzszdkjsbQLlXayS0suJ73,,,,,,,,,,,,,,,,,chosen stimuli: images/choice_trial_2.png,,,,,65a5418464c0267277a80a1e,09:06:03,27/02/2024
html-keyboard-response,223,447067,0.0-92.0-2.0,,,,delaylearn,learning,feedback_duration_window,jenb8cxzszdkjsbQLlXayS0suJ73,jenb8cxzszdkjsbQLlXayS0suJ73,,,,,,,,,,,,,,,,,,750.0,,,,65a5418464c0267277a80a1e,09:06:03,27/02/2024
html-keyboard-response,224,448570,0.0-92.0-3.0,,<div style='margin:auto;width: auto; font-size: 150%'><span style='font-weight: bold; font-size: 100px; color: green;'>+10 points!</span><br><br></div>,,delaylearn,learning,feedback_image_window,jenb8cxzszdkjsbQLlXayS0suJ73,jenb8cxzszdkjsbQLlXayS0suJ73,,,,,,,,,,,,,,,,,,,,,,65a5418464c0267277a80a1e,09:06:03,27/02/2024
html-keyboard-response,225,449083,0.0-93.0-0.0,,,,,,mood_trial_fixation,jenb8cxzszdkjsbQLlXayS0suJ73,,,,,,,,,,,,,,,,,,,,,,,65a5418464c0267277a80a1e,09:06:03,27/02/2024
lmdlab-html-vas-response,226,452992,0.0-93.0-1.0,2903.0,How happy are you right now?,0.8410493827160493,delaylearn,learning,mood_trial,jenb8cxzszdkjsbQLlXayS0suJ73,jenb8cxzszdkjsbQLlXayS0suJ73,,,,,,,,,,,,,,,,,,,,"['Very unhappy', 'Very happy']",,65a5418464c0267277a80a1e,09:06:03,27/02/2024
html-keyboard-response,227,454826,0.0-94.0,,"<div style=""font-size:100px;"">+</div>",,delaylearn,learning,ITI,jenb8cxzszdkjsbQLlXayS0suJ73,jenb8cxzszdkjsbQLlXayS0suJ73,,,,,,,,,,,,,,,,,,,1821.0,,,65a5418464c0267277a80a1e,09:06:03,27/02/2024
html-keyboard-response,228,456324,0.0-95.0-0.0,1496.3999999761581,"<div style=""display: flex; flex-direction: column; align-items: center; margin-top: -40px;""><img src=""images/pattern_4.png"" style=""width: 234px; height: 230px; margin-top: -50px;""><div style=""display: flex; justify-content: space-between; margin-top: 33px;""><img src=""images/choice_trial_4.png"" style=""width: 408px; height: 417px; margin-right: 200px;""><img src=""images/choice_trial_16.png"" style=""width: 408px; height: 417px;""></div></div>",f,delaylearn,learning,trial,jenb8cxzszdkjsbQLlXayS0suJ73,jenb8cxzszdkjsbQLlXayS0suJ73,2.0,images/choice_trial_4.png,images/choice_trial_16.png,images/pattern_4.png,f,f,7000.0,4.0,16.0,3.0,0.0,41.0,1.0,1.0,4.0,220.0,,,,,,65a5418464c0267277a80a1e,09:06:03,27/02/2024
html-keyboard-response,229,457325,0.0-95.0-1.0,,"<div style=""display: flex; flex-direction: column; align-items: center; margin-top: -40px;""><img src=""images/pattern_4.png"" style=""width: 234px; height: 230px; margin-top: -50px;""><div style=""display: flex; justify-content: space-between; margin-top: 33px;""><img src=""images/choice_trial_4.png"" style=""width: 408px; height: 417px; margin-right: 608px;""></div></div>",,delaylearn,learning,display_response,jenb8cxzszdkjsbQLlXayS0suJ73,jenb8cxzszdkjsbQLlXayS0suJ73,,,,,,,,,,,,,,,,,chosen stimuli: images/choice_trial_4.png,,,,,65a5418464c0267277a80a1e,09:06:03,27/02/2024
html-keyboard-response,230,464329,0.0-95.0-2.0,,,,delaylearn,learning,feedback_duration_window,jenb8cxzszdkjsbQLlXayS0suJ73,jenb8cxzszdkjsbQLlXayS0suJ73,,,,,,,,,,,,,,,,,,7000.0,,,,65a5418464c0267277a80a1e,09:06:03,27/02/2024
html-keyboard-response,231,465832,0.0-95.0-3.0,,<div style='margin:auto;width: auto; font-size: 150%'><span style='font-weight: bold; font-size: 100px; color: green;'>+10 points!</span><br><br></div>,,delaylearn,learning,feedback_image_window,jenb8cxzszdkjsbQLlXayS0suJ73,jenb8cxzszdkjsbQLlXayS0suJ73,,,,,,,,,,,,,,,,,,,,,,65a5418464c0267277a80a1e,09:06:03,27/02/2024
html-keyboard-response,232,468219,0.0-96.0,,"<div style=""font-size:100px;"">+</div>",,delaylearn,learning,ITI,jenb8cxzszdkjsbQLlXayS0suJ73,jenb8cxzszdkjsbQLlXayS0suJ73,,,,,,,,,,,,,,,,,,,2384.0,,,65a5418464c0267277a80a1e,09:06:03,27/02/2024
