trial_type,trial_index,time_elapsed,internal_node_id,rt,stimulus,response,exp_name,exp_stage,test_part,subjectID,databaseID,counterbal,choice_stimuli_1,choice_stimuli_2,pattern_stimuli,rewarded_answer,correct_answer,feedback_duration_times,stim_left,stim_right,pair,leftright_counter,trial,response_correct,response_rewarded,chosen_stim,counter,displayed_choice,feedback_durations,ITI_duration,labels,rest_warning,prolificID,start_time,date
pavlovia,0,581,0.0-0.0,,,,,,,oMwNjKB6SoQ3djruQ3s5VXeAKTN2,,,,,,,,,,,,,,,,,,,,,,,60c341ec2ed9da27095ffab4,16:43:15,27/03/2024
html-keyboard-response,1,3586,0.0-1.0,,"<div style=""font-size:100px;"">+</div>",,delaylearn,learning,pre_fixation,oMwNjKB6SoQ3djruQ3s5VXeAKTN2,,,,,,,,,,,,,,,,,,,,,,,60c341ec2ed9da27095ffab4,16:43:15,27/03/2024
html-keyboard-response,2,4970,0.0-2.0-0.0,1379.5999999940395,"<div style=""display: flex; flex-direction: column; align-items: center; margin-top: -40px;""><img src=""images/demo_images/pattern_1.png"" style=""width: 234px; height: 230px; margin-top: -50px;""><div style=""display: flex; justify-content: space-between; margin-top: 33px;""><img src=""images/demo_images/choice_trial_2.png"" style=""width: 408px; height: 417px; margin-right: 200px;""><img src=""images/demo_images/choice_trial_1.png"" style=""width: 408px; height: 417px;""></div></div>",f,delaylearn,learning,trial,oMwNjKB6SoQ3djruQ3s5VXeAKTN2,oMwNjKB6SoQ3djruQ3s5VXeAKTN2,3.0,images/demo_images/choice_trial_2.png,images/demo_images/choice_trial_1.png,images/demo_images/pattern_1.png,j,j,3000.0,2.0,1.0,20.0,1.0,1.0,0.0,0.0,2.0,0.0,,,,,,60c341ec2ed9da27095ffab4,16:43:15,27/03/2024
html-keyboard-response,3,5977,0.0-2.0-1.0,,"<div style=""display: flex; flex-direction: column; align-items: center; margin-top: -40px;""><img src=""images/demo_images/pattern_1.png"" style=""width: 234px; height: 230px; margin-top: -50px;""><div style=""display: flex; justify-content: space-between; margin-top: 33px;""><img src=""images/demo_images/choice_trial_2.png"" style=""width: 408px; height: 417px; margin-right: 608px;""></div></div>",,delaylearn,learning,display_response,oMwNjKB6SoQ3djruQ3s5VXeAKTN2,oMwNjKB6SoQ3djruQ3s5VXeAKTN2,,,,,,,,,,,,,,,,,chosen stimuli: images/demo_images/choice_trial_2.png,,,,,60c341ec2ed9da27095ffab4,16:43:15,27/03/2024
html-keyboard-response,4,8992,0.0-2.0-2.0,,,,delaylearn,learning,feedback_duration_window,oMwNjKB6SoQ3djruQ3s5VXeAKTN2,oMwNjKB6SoQ3djruQ3s5VXeAKTN2,,,,,,,,,,,,,,,,,,3000.0,,,,60c341ec2ed9da27095ffab4,16:43:15,27/03/2024
html-keyboard-response,5,10516,0.0-2.0-3.0,,<div style='margin:auto;width: auto; font-size: 150%'><span style='font-weight: bold; font-size: 100px; color: red;'>0 points!</span><br><br></div>,,delaylearn,learning,feedback_image_window,oMwNjKB6SoQ3djruQ3s5VXeAKTN2,oMwNjKB6SoQ3djruQ3s5VXeAKTN2,,,,,,,,,,,,,,,,,,,,,,60c341ec2ed9da27095ffab4,16:43:15,27/03/2024
html-keyboard-response,6,12703,0.0-3.0,,"<div style=""font-size:100px;"">+</div>",,delaylearn,learning,ITI,oMwNjKB6SoQ3djruQ3s5VXeAKTN2,oMwNjKB6SoQ3djruQ3s5VXeAKTN2,,,,,,,,,,,,,,,,,,,2182.0,,,60c341ec2ed9da27095ffab4,16:43:15,27/03/2024
html-keyboard-response,7,14782,0.0-4.0-0.0,2075.9000000059605,"<div style=""display: flex; flex-direction: column; align-items: center; margin-top: -40px;""><img src=""images/demo_images/pattern_1.png"" style=""width: 234px; height: 230px; margin-top: -50px;""><div style=""display: flex; justify-content: space-between; margin-top: 33px;""><img src=""images/demo_images/choice_trial_2.png"" style=""width: 408px; height: 417px; margin-right: 200px;""><img src=""images/demo_images/choice_trial_1.png"" style=""width: 408px; height: 417px;""></div></div>",j,delaylearn,learning,trial,oMwNjKB6SoQ3djruQ3s5VXeAKTN2,oMwNjKB6SoQ3djruQ3s5VXeAKTN2,3.0,images/demo_images/choice_trial_2.png,images/demo_images/choice_trial_1.png,images/demo_images/pattern_1.png,j,j,3000.0,2.0,1.0,20.0,1.0,2.0,1.0,1.0,1.0,10.0,,,,,,60c341ec2ed9da27095ffab4,16:43:15,27/03/2024
html-keyboard-response,8,15798,0.0-4.0-1.0,,"<div style=""display: flex; flex-direction: column; align-items: center; margin-top: -40px;""><img src=""images/demo_images/pattern_1.png"" style=""width: 234px; height: 230px; margin-top: -50px;""><div style=""display: flex; justify-content: space-between; margin-top: 33px;""><img src=""images/demo_images/choice_trial_1.png"" style=""width: 408px; height: 417px; margin-left:608px;""></div></div>",,delaylearn,learning,display_response,oMwNjKB6SoQ3djruQ3s5VXeAKTN2,oMwNjKB6SoQ3djruQ3s5VXeAKTN2,,,,,,,,,,,,,,,,,chosen stimuli: images/demo_images/choice_trial_1.png,,,,,60c341ec2ed9da27095ffab4,16:43:15,27/03/2024
html-keyboard-response,9,18806,0.0-4.0-2.0,,,,delaylearn,learning,feedback_duration_window,oMwNjKB6SoQ3djruQ3s5VXeAKTN2,oMwNjKB6SoQ3djruQ3s5VXeAKTN2,,,,,,,,,,,,,,,,,,3000.0,,,,60c341ec2ed9da27095ffab4,16:43:15,27/03/2024
html-keyboard-response,10,20333,0.0-4.0-3.0,,<div style='margin:auto;width: auto; font-size: 150%'><span style='font-weight: bold; font-size: 100px; color: green;'>+10 points!</span><br><br></div>,,delaylearn,learning,feedback_image_window,oMwNjKB6SoQ3djruQ3s5VXeAKTN2,oMwNjKB6SoQ3djruQ3s5VXeAKTN2,,,,,,,,,,,,,,,,,,,,,,60c341ec2ed9da27095ffab4,16:43:15,27/03/2024
html-keyboard-response,11,22777,0.0-5.0,,"<div style=""font-size:100px;"">+</div>",,delaylearn,learning,ITI,oMwNjKB6SoQ3djruQ3s5VXeAKTN2,oMwNjKB6SoQ3djruQ3s5VXeAKTN2,,,,,,,,,,,,,,,,,,,2429.0,,,60c341ec2ed9da27095ffab4,16:43:15,27/03/2024
html-keyboard-response,12,23955,0.0-6.0-0.0,1176.199999988079,"<div style=""display: flex; flex-direction: column; align-items: center; margin-top: -40px;""><img src=""images/demo_images/pattern_1.png"" style=""width: 234px; height: 230px; margin-top: -50px;""><div style=""display: flex; justify-content: space-between; margin-top: 33px;""><img src=""images/demo_images/choice_trial_1.png"" style=""width: 408px; height: 417px; margin-right: 200px;""><img src=""images/demo_images/choice_trial_2.png"" style=""width: 408px; height: 417px;""></div></div>",f,delaylearn,learning,trial,oMwNjKB6SoQ3djruQ3s5VXeAKTN2,oMwNjKB6SoQ3djruQ3s5VXeAKTN2,3.0,images/demo_images/choice_trial_1.png,images/demo_images/choice_trial_2.png,images/demo_images/pattern_1.png,j,f,3000.0,1.0,2.0,20.0,0.0,3.0,1.0,0.0,1.0,10.0,,,,,,60c341ec2ed9da27095ffab4,16:43:15,27/03/2024
html-keyboard-response,13,24966,0.0-6.0-1.0,,"<div style=""display: flex; flex-direction: column; align-items: center; margin-top: -40px;""><img src=""images/demo_images/pattern_1.png"" style=""width: 234px; height: 230px; margin-top: -50px;""><div style=""display: flex; justify-content: space-between; margin-top: 33px;""><img src=""images/demo_images/choice_trial_1.png"" style=""width: 408px; height: 417px; margin-right: 608px;""></div></div>",,delaylearn,learning,display_response,oMwNjKB6SoQ3djruQ3s5VXeAKTN2,oMwNjKB6SoQ3djruQ3s5VXeAKTN2,,,,,,,,,,,,,,,,,chosen stimuli: images/demo_images/choice_trial_1.png,,,,,60c341ec2ed9da27095ffab4,16:43:15,27/03/2024
html-keyboard-response,14,27969,0.0-6.0-2.0,,,,delaylearn,learning,feedback_duration_window,oMwNjKB6SoQ3djruQ3s5VXeAKTN2,oMwNjKB6SoQ3djruQ3s5VXeAKTN2,,,,,,,,,,,,,,,,,,3000.0,,,,60c341ec2ed9da27095ffab4,16:43:15,27/03/2024
html-keyboard-response,15,29494,0.0-6.0-3.0,,<div style='margin:auto;width: auto; font-size: 150%'><span style='font-weight: bold; font-size: 100px; color: red;'>0 points!</span><br><br></div>,,delaylearn,learning,feedback_image_window,oMwNjKB6SoQ3djruQ3s5VXeAKTN2,oMwNjKB6SoQ3djruQ3s5VXeAKTN2,,,,,,,,,,,,,,,,,,,,,,60c341ec2ed9da27095ffab4,16:43:15,27/03/2024
html-keyboard-response,16,31788,0.0-7.0,,"<div style=""font-size:100px;"">+</div>",,delaylearn,learning,ITI,oMwNjKB6SoQ3djruQ3s5VXeAKTN2,oMwNjKB6SoQ3djruQ3s5VXeAKTN2,,,,,,,,,,,,,,,,,,,2289.0,,,60c341ec2ed9da27095ffab4,16:43:15,27/03/2024
html-keyboard-response,17,33477,0.0-8.0-0.0,1685.0,"<div style=""display: flex; flex-direction: column; align-items: center; margin-top: -40px;""><img src=""images/demo_images/pattern_1.png"" style=""width: 234px; height: 230px; margin-top: -50px;""><div style=""display: flex; justify-content: space-between; margin-top: 33px;""><img src=""images/demo_images/choice_trial_1.png"" style=""width: 408px; height: 417px; margin-right: 200px;""><img src=""images/demo_images/choice_trial_2.png"" style=""width: 408px; height: 417px;""></div></div>",j,delaylearn,learning,trial,oMwNjKB6SoQ3djruQ3s5VXeAKTN2,oMwNjKB6SoQ3djruQ3s5VXeAKTN2,3.0,images/demo_images/choice_trial_1.png,images/demo_images/choice_trial_2.png,images/demo_images/pattern_1.png,f,f,3000.0,1.0,2.0,20.0,0.0,4.0,0.0,0.0,2.0,10.0,,,,,,60c341ec2ed9da27095ffab4,16:43:15,27/03/2024
html-keyboard-response,18,34498,0.0-8.0-1.0,,"<div style=""display: flex; flex-direction: column; align-items: center; margin-top: -40px;""><img src=""images/demo_images/pattern_1.png"" style=""width: 234px; height: 230px; margin-top: -50px;""><div style=""display: flex; justify-content: space-between; margin-top: 33px;""><img src=""images/demo_images/choice_trial_2.png"" style=""width: 408px; height: 417px; margin-left:608px;""></div></div>",,delaylearn,learning,display_response,oMwNjKB6SoQ3djruQ3s5VXeAKTN2,oMwNjKB6SoQ3djruQ3s5VXeAKTN2,,,,,,,,,,,,,,,,,chosen stimuli: images/demo_images/choice_trial_2.png,,,,,60c341ec2ed9da27095ffab4,16:43:15,27/03/2024
html-keyboard-response,19,37502,0.0-8.0-2.0,,,,delaylearn,learning,feedback_duration_window,oMwNjKB6SoQ3djruQ3s5VXeAKTN2,oMwNjKB6SoQ3djruQ3s5VXeAKTN2,,,,,,,,,,,,,,,,,,3000.0,,,,60c341ec2ed9da27095ffab4,16:43:15,27/03/2024
html-keyboard-response,20,39006,0.0-8.0-3.0,,<div style='margin:auto;width: auto; font-size: 150%'><span style='font-weight: bold; font-size: 100px; color: red;'>0 points!</span><br><br></div>,,delaylearn,learning,feedback_image_window,oMwNjKB6SoQ3djruQ3s5VXeAKTN2,oMwNjKB6SoQ3djruQ3s5VXeAKTN2,,,,,,,,,,,,,,,,,,,,,,60c341ec2ed9da27095ffab4,16:43:15,27/03/2024
html-keyboard-response,21,39511,0.0-9.0-0.0,,,,,,mood_trial_fixation,oMwNjKB6SoQ3djruQ3s5VXeAKTN2,,,,,,,,,,,,,,,,,,,,,,,60c341ec2ed9da27095ffab4,16:43:15,27/03/2024
lmdlab-html-vas-response,22,45031,0.0-9.0-1.0,4480.0,How happy are you right now?,0.10416666666666667,delaylearn,learning,mood_trial,oMwNjKB6SoQ3djruQ3s5VXeAKTN2,oMwNjKB6SoQ3djruQ3s5VXeAKTN2,,,,,,,,,,,,,,,,,,,,"['Very unhappy', 'Very happy']",,60c341ec2ed9da27095ffab4,16:43:15,27/03/2024
html-keyboard-response,23,47215,0.0-10.0,,"<div style=""font-size:100px;"">+</div>",,delaylearn,learning,ITI,oMwNjKB6SoQ3djruQ3s5VXeAKTN2,oMwNjKB6SoQ3djruQ3s5VXeAKTN2,,,,,,,,,,,,,,,,,,,2174.0,,,60c341ec2ed9da27095ffab4,16:43:15,27/03/2024
html-keyboard-response,24,50232,0.0-11.0-0.0,,"<div style=""display: flex; flex-direction: column; align-items: center; margin-top: -40px;""><img src=""images/demo_images/pattern_1.png"" style=""width: 234px; height: 230px; margin-top: -50px;""><div style=""display: flex; justify-content: space-between; margin-top: 33px;""><img src=""images/demo_images/choice_trial_2.png"" style=""width: 408px; height: 417px; margin-right: 200px;""><img src=""images/demo_images/choice_trial_1.png"" style=""width: 408px; height: 417px;""></div></div>",,delaylearn,learning,trial,oMwNjKB6SoQ3djruQ3s5VXeAKTN2,oMwNjKB6SoQ3djruQ3s5VXeAKTN2,3.0,images/demo_images/choice_trial_2.png,images/demo_images/choice_trial_1.png,images/demo_images/pattern_1.png,j,j,3000.0,2.0,1.0,20.0,1.0,5.0,0.0,0.0,0.0,10.0,,,,,,60c341ec2ed9da27095ffab4,16:43:15,27/03/2024
html-keyboard-response,25,51235,0.0-11.0-1.0,,<div style='font-weight: bold; font-size: 75px; color: red;'>Missed Trial <br><br><br><br> Please respond faster</div>,,delaylearn,learning,display_response,oMwNjKB6SoQ3djruQ3s5VXeAKTN2,oMwNjKB6SoQ3djruQ3s5VXeAKTN2,,,,,,,,,,,,,,,,,Missed trial,,,,,60c341ec2ed9da27095ffab4,16:43:15,27/03/2024
html-keyboard-response,26,51242,0.0-11.0-2.0,,,,delaylearn,learning,feedback_duration_window,oMwNjKB6SoQ3djruQ3s5VXeAKTN2,oMwNjKB6SoQ3djruQ3s5VXeAKTN2,,,,,,,,,,,,,,,,,,0.0,,,,60c341ec2ed9da27095ffab4,16:43:15,27/03/2024
html-keyboard-response,27,51248,0.0-11.0-3.0,,,,delaylearn,learning,feedback_image_window,oMwNjKB6SoQ3djruQ3s5VXeAKTN2,oMwNjKB6SoQ3djruQ3s5VXeAKTN2,,,,,,,,,,,,,,,,,,,,,,60c341ec2ed9da27095ffab4,16:43:15,27/03/2024
html-keyboard-response,28,53374,0.0-12.0,,"<div style=""font-size:100px;"">+</div>",,delaylearn,learning,ITI,oMwNjKB6SoQ3djruQ3s5VXeAKTN2,oMwNjKB6SoQ3djruQ3s5VXeAKTN2,,,,,,,,,,,,,,,,,,,2113.0,,,60c341ec2ed9da27095ffab4,16:43:15,27/03/2024
html-keyboard-response,29,53670,0.0-13.0-0.0,291.5,"<div style=""display: flex; flex-direction: column; align-items: center; margin-top: -40px;""><img src=""images/demo_images/pattern_1.png"" style=""width: 234px; height: 230px; margin-top: -50px;""><div style=""display: flex; justify-content: space-between; margin-top: 33px;""><img src=""images/demo_images/choice_trial_1.png"" style=""width: 408px; height: 417px; margin-right: 200px;""><img src=""images/demo_images/choice_trial_2.png"" style=""width: 408px; height: 417px;""></div></div>",j,delaylearn,learning,trial,oMwNjKB6SoQ3djruQ3s5VXeAKTN2,oMwNjKB6SoQ3djruQ3s5VXeAKTN2,3.0,images/demo_images/choice_trial_1.png,images/demo_images/choice_trial_2.png,images/demo_images/pattern_1.png,f,f,3000.0,1.0,2.0,20.0,0.0,6.0,0.0,0.0,2.0,10.0,,,,,,60c341ec2ed9da27095ffab4,16:43:15,27/03/2024
html-keyboard-response,30,54677,0.0-13.0-1.0,,"<div style=""display: flex; flex-direction: column; align-items: center; margin-top: -40px;""><img src=""images/demo_images/pattern_1.png"" style=""width: 234px; height: 230px; margin-top: -50px;""><div style=""display: flex; justify-content: space-between; margin-top: 33px;""><img src=""images/demo_images/choice_trial_2.png"" style=""width: 408px; height: 417px; margin-left:608px;""></div></div>",,delaylearn,learning,display_response,oMwNjKB6SoQ3djruQ3s5VXeAKTN2,oMwNjKB6SoQ3djruQ3s5VXeAKTN2,,,,,,,,,,,,,,,,,chosen stimuli: images/demo_images/choice_trial_2.png,,,,,60c341ec2ed9da27095ffab4,16:43:15,27/03/2024
html-keyboard-response,31,57681,0.0-13.0-2.0,,,,delaylearn,learning,feedback_duration_window,oMwNjKB6SoQ3djruQ3s5VXeAKTN2,oMwNjKB6SoQ3djruQ3s5VXeAKTN2,,,,,,,,,,,,,,,,,,3000.0,,,,60c341ec2ed9da27095ffab4,16:43:15,27/03/2024
html-keyboard-response,32,59185,0.0-13.0-3.0,,<div style='margin:auto;width: auto; font-size: 150%'><span style='font-weight: bold; font-size: 100px; color: red;'>0 points!</span><br><br></div>,,delaylearn,learning,feedback_image_window,oMwNjKB6SoQ3djruQ3s5VXeAKTN2,oMwNjKB6SoQ3djruQ3s5VXeAKTN2,,,,,,,,,,,,,,,,,,,,,,60c341ec2ed9da27095ffab4,16:43:15,27/03/2024
html-keyboard-response,33,60758,0.0-14.0,,"<div style=""font-size:100px;"">+</div>",,delaylearn,learning,ITI,oMwNjKB6SoQ3djruQ3s5VXeAKTN2,oMwNjKB6SoQ3djruQ3s5VXeAKTN2,,,,,,,,,,,,,,,,,,,1565.0,,,60c341ec2ed9da27095ffab4,16:43:15,27/03/2024
html-keyboard-response,34,62211,0.0-15.0-0.0,1450.0,"<div style=""display: flex; flex-direction: column; align-items: center; margin-top: -40px;""><img src=""images/demo_images/pattern_1.png"" style=""width: 234px; height: 230px; margin-top: -50px;""><div style=""display: flex; justify-content: space-between; margin-top: 33px;""><img src=""images/demo_images/choice_trial_2.png"" style=""width: 408px; height: 417px; margin-right: 200px;""><img src=""images/demo_images/choice_trial_1.png"" style=""width: 408px; height: 417px;""></div></div>",j,delaylearn,learning,trial,oMwNjKB6SoQ3djruQ3s5VXeAKTN2,oMwNjKB6SoQ3djruQ3s5VXeAKTN2,3.0,images/demo_images/choice_trial_2.png,images/demo_images/choice_trial_1.png,images/demo_images/pattern_1.png,j,j,3000.0,2.0,1.0,20.0,1.0,7.0,1.0,1.0,1.0,20.0,,,,,,60c341ec2ed9da27095ffab4,16:43:15,27/03/2024
html-keyboard-response,35,63222,0.0-15.0-1.0,,"<div style=""display: flex; flex-direction: column; align-items: center; margin-top: -40px;""><img src=""images/demo_images/pattern_1.png"" style=""width: 234px; height: 230px; margin-top: -50px;""><div style=""display: flex; justify-content: space-between; margin-top: 33px;""><img src=""images/demo_images/choice_trial_1.png"" style=""width: 408px; height: 417px; margin-left:608px;""></div></div>",,delaylearn,learning,display_response,oMwNjKB6SoQ3djruQ3s5VXeAKTN2,oMwNjKB6SoQ3djruQ3s5VXeAKTN2,,,,,,,,,,,,,,,,,chosen stimuli: images/demo_images/choice_trial_1.png,,,,,60c341ec2ed9da27095ffab4,16:43:15,27/03/2024
html-keyboard-response,36,66232,0.0-15.0-2.0,,,,delaylearn,learning,feedback_duration_window,oMwNjKB6SoQ3djruQ3s5VXeAKTN2,oMwNjKB6SoQ3djruQ3s5VXeAKTN2,,,,,,,,,,,,,,,,,,3000.0,,,,60c341ec2ed9da27095ffab4,16:43:15,27/03/2024
html-keyboard-response,37,67744,0.0-15.0-3.0,,<div style='margin:auto;width: auto; font-size: 150%'><span style='font-weight: bold; font-size: 100px; color: green;'>+10 points!</span><br><br></div>,,delaylearn,learning,feedback_image_window,oMwNjKB6SoQ3djruQ3s5VXeAKTN2,oMwNjKB6SoQ3djruQ3s5VXeAKTN2,,,,,,,,,,,,,,,,,,,,,,60c341ec2ed9da27095ffab4,16:43:15,27/03/2024
html-keyboard-response,38,69535,0.0-16.0,,"<div style=""font-size:100px;"">+</div>",,delaylearn,learning,ITI,oMwNjKB6SoQ3djruQ3s5VXeAKTN2,oMwNjKB6SoQ3djruQ3s5VXeAKTN2,,,,,,,,,,,,,,,,,,,1777.0,,,60c341ec2ed9da27095ffab4,16:43:15,27/03/2024
html-keyboard-response,39,71139,0.0-17.0-0.0,1601.5,"<div style=""display: flex; flex-direction: column; align-items: center; margin-top: -40px;""><img src=""images/demo_images/pattern_1.png"" style=""width: 234px; height: 230px; margin-top: -50px;""><div style=""display: flex; justify-content: space-between; margin-top: 33px;""><img src=""images/demo_images/choice_trial_1.png"" style=""width: 408px; height: 417px; margin-right: 200px;""><img src=""images/demo_images/choice_trial_2.png"" style=""width: 408px; height: 417px;""></div></div>",f,delaylearn,learning,trial,oMwNjKB6SoQ3djruQ3s5VXeAKTN2,oMwNjKB6SoQ3djruQ3s5VXeAKTN2,3.0,images/demo_images/choice_trial_1.png,images/demo_images/choice_trial_2.png,images/demo_images/pattern_1.png,f,f,3000.0,1.0,2.0,20.0,0.0,8.0,1.0,1.0,1.0,30.0,,,,,,60c341ec2ed9da27095ffab4,16:43:15,27/03/2024
html-keyboard-response,40,72154,0.0-17.0-1.0,,"<div style=""display: flex; flex-direction: column; align-items: center; margin-top: -40px;""><img src=""images/demo_images/pattern_1.png"" style=""width: 234px; height: 230px; margin-top: -50px;""><div style=""display: flex; justify-content: space-between; margin-top: 33px;""><img src=""images/demo_images/choice_trial_1.png"" style=""width: 408px; height: 417px; margin-right: 608px;""></div></div>",,delaylearn,learning,display_response,oMwNjKB6SoQ3djruQ3s5VXeAKTN2,oMwNjKB6SoQ3djruQ3s5VXeAKTN2,,,,,,,,,,,,,,,,,chosen stimuli: images/demo_images/choice_trial_1.png,,,,,60c341ec2ed9da27095ffab4,16:43:15,27/03/2024
html-keyboard-response,41,75169,0.0-17.0-2.0,,,,delaylearn,learning,feedback_duration_window,oMwNjKB6SoQ3djruQ3s5VXeAKTN2,oMwNjKB6SoQ3djruQ3s5VXeAKTN2,,,,,,,,,,,,,,,,,,3000.0,,,,60c341ec2ed9da27095ffab4,16:43:15,27/03/2024
html-keyboard-response,42,76681,0.0-17.0-3.0,,<div style='margin:auto;width: auto; font-size: 150%'><span style='font-weight: bold; font-size: 100px; color: green;'>+10 points!</span><br><br></div>,,delaylearn,learning,feedback_image_window,oMwNjKB6SoQ3djruQ3s5VXeAKTN2,oMwNjKB6SoQ3djruQ3s5VXeAKTN2,,,,,,,,,,,,,,,,,,,,,,60c341ec2ed9da27095ffab4,16:43:15,27/03/2024
html-button-response,43,78940,0.0-18.0,2256.7999999821186,"
  <div style=""display: flex; align-items: center; justify-content: center; height: 80vh;"">
  <div>
          <img src=""images/inst_demo_finish.png"" style=""width: 80vw; height:auto;"">
          <br><br>
      </div>
      <br><br>
  </div>",0,,,,oMwNjKB6SoQ3djruQ3s5VXeAKTN2,,,,,,,,,,,,,,,,,,,,,,,60c341ec2ed9da27095ffab4,16:43:15,27/03/2024
html-keyboard-response,44,82715,0.0-19.0,3773.4000000059605,"
  <div style=""display: flex; align-items: center; justify-content: center; height: 80vh;"">
  <div>
          <img src=""images/inst_6.png"" style=""width: 80vw; height:auto;"">
          <br><br>
      </div>
      <br><br>
  </div>",j,,,,oMwNjKB6SoQ3djruQ3s5VXeAKTN2,,,,,,,,,,,,,,,,,,,,,,,60c341ec2ed9da27095ffab4,16:43:15,27/03/2024
html-keyboard-response,45,85719,0.0-20.0,,"<div style=""font-size:100px;"">+</div>",,delaylearn,learning,pre_fixation,oMwNjKB6SoQ3djruQ3s5VXeAKTN2,,,,,,,,,,,,,,,,,,,,,,,60c341ec2ed9da27095ffab4,16:43:15,27/03/2024
html-keyboard-response,46,88114,0.0-21.0,,"<div style=""font-size:100px;"">+</div>",,delaylearn,learning,ITI,oMwNjKB6SoQ3djruQ3s5VXeAKTN2,oMwNjKB6SoQ3djruQ3s5VXeAKTN2,,,,,,,,,,,,,,,,,,,2375.0,,,60c341ec2ed9da27095ffab4,16:43:15,27/03/2024
html-keyboard-response,47,90266,0.0-22.0-0.0,2148.5999999940395,"<div style=""display: flex; flex-direction: column; align-items: center; margin-top: -40px;""><img src=""images/pattern_3.png"" style=""width: 234px; height: 230px; margin-top: -50px;""><div style=""display: flex; justify-content: space-between; margin-top: 33px;""><img src=""images/choice_trial_13.png"" style=""width: 408px; height: 417px; margin-right: 200px;""><img src=""images/choice_trial_10.png"" style=""width: 408px; height: 417px;""></div></div>",f,delaylearn,learning,trial,oMwNjKB6SoQ3djruQ3s5VXeAKTN2,oMwNjKB6SoQ3djruQ3s5VXeAKTN2,3.0,images/choice_trial_13.png,images/choice_trial_10.png,images/pattern_3.png,f,f,7000.0,13.0,10.0,2.0,0.0,9.0,1.0,1.0,13.0,40.0,,,,,,60c341ec2ed9da27095ffab4,16:43:15,27/03/2024
html-keyboard-response,48,91283,0.0-22.0-1.0,,"<div style=""display: flex; flex-direction: column; align-items: center; margin-top: -40px;""><img src=""images/pattern_3.png"" style=""width: 234px; height: 230px; margin-top: -50px;""><div style=""display: flex; justify-content: space-between; margin-top: 33px;""><img src=""images/choice_trial_13.png"" style=""width: 408px; height: 417px; margin-right: 608px;""></div></div>",,delaylearn,learning,display_response,oMwNjKB6SoQ3djruQ3s5VXeAKTN2,oMwNjKB6SoQ3djruQ3s5VXeAKTN2,,,,,,,,,,,,,,,,,chosen stimuli: images/choice_trial_13.png,,,,,60c341ec2ed9da27095ffab4,16:43:15,27/03/2024
html-keyboard-response,49,98286,0.0-22.0-2.0,,,,delaylearn,learning,feedback_duration_window,oMwNjKB6SoQ3djruQ3s5VXeAKTN2,oMwNjKB6SoQ3djruQ3s5VXeAKTN2,,,,,,,,,,,,,,,,,,7000.0,,,,60c341ec2ed9da27095ffab4,16:43:15,27/03/2024
html-keyboard-response,50,99792,0.0-22.0-3.0,,<div style='margin:auto;width: auto; font-size: 150%'><span style='font-weight: bold; font-size: 100px; color: green;'>+10 points!</span><br><br></div>,,delaylearn,learning,feedback_image_window,oMwNjKB6SoQ3djruQ3s5VXeAKTN2,oMwNjKB6SoQ3djruQ3s5VXeAKTN2,,,,,,,,,,,,,,,,,,,,,,60c341ec2ed9da27095ffab4,16:43:15,27/03/2024
html-keyboard-response,51,102183,0.0-23.0,,"<div style=""font-size:100px;"">+</div>",,delaylearn,learning,ITI,oMwNjKB6SoQ3djruQ3s5VXeAKTN2,oMwNjKB6SoQ3djruQ3s5VXeAKTN2,,,,,,,,,,,,,,,,,,,2379.0,,,60c341ec2ed9da27095ffab4,16:43:15,27/03/2024
html-keyboard-response,52,104513,0.0-24.0-0.0,2325.300000011921,"<div style=""display: flex; flex-direction: column; align-items: center; margin-top: -40px;""><img src=""images/pattern_7.png"" style=""width: 234px; height: 230px; margin-top: -50px;""><div style=""display: flex; justify-content: space-between; margin-top: 33px;""><img src=""images/choice_trial_12.png"" style=""width: 408px; height: 417px; margin-right: 200px;""><img src=""images/choice_trial_6.png"" style=""width: 408px; height: 417px;""></div></div>",j,delaylearn,learning,trial,oMwNjKB6SoQ3djruQ3s5VXeAKTN2,oMwNjKB6SoQ3djruQ3s5VXeAKTN2,3.0,images/choice_trial_12.png,images/choice_trial_6.png,images/pattern_7.png,j,j,750.0,12.0,6.0,6.0,1.0,10.0,1.0,1.0,6.0,50.0,,,,,,60c341ec2ed9da27095ffab4,16:43:15,27/03/2024
html-keyboard-response,53,105527,0.0-24.0-1.0,,"<div style=""display: flex; flex-direction: column; align-items: center; margin-top: -40px;""><img src=""images/pattern_7.png"" style=""width: 234px; height: 230px; margin-top: -50px;""><div style=""display: flex; justify-content: space-between; margin-top: 33px;""><img src=""images/choice_trial_6.png"" style=""width: 408px; height: 417px; margin-left:608px;""></div></div>",,delaylearn,learning,display_response,oMwNjKB6SoQ3djruQ3s5VXeAKTN2,oMwNjKB6SoQ3djruQ3s5VXeAKTN2,,,,,,,,,,,,,,,,,chosen stimuli: images/choice_trial_6.png,,,,,60c341ec2ed9da27095ffab4,16:43:15,27/03/2024
html-keyboard-response,54,106298,0.0-24.0-2.0,,,,delaylearn,learning,feedback_duration_window,oMwNjKB6SoQ3djruQ3s5VXeAKTN2,oMwNjKB6SoQ3djruQ3s5VXeAKTN2,,,,,,,,,,,,,,,,,,750.0,,,,60c341ec2ed9da27095ffab4,16:43:15,27/03/2024
html-keyboard-response,55,107804,0.0-24.0-3.0,,<div style='margin:auto;width: auto; font-size: 150%'><span style='font-weight: bold; font-size: 100px; color: green;'>+10 points!</span><br><br></div>,,delaylearn,learning,feedback_image_window,oMwNjKB6SoQ3djruQ3s5VXeAKTN2,oMwNjKB6SoQ3djruQ3s5VXeAKTN2,,,,,,,,,,,,,,,,,,,,,,60c341ec2ed9da27095ffab4,16:43:15,27/03/2024
html-keyboard-response,56,110196,0.0-25.0,,"<div style=""font-size:100px;"">+</div>",,delaylearn,learning,ITI,oMwNjKB6SoQ3djruQ3s5VXeAKTN2,oMwNjKB6SoQ3djruQ3s5VXeAKTN2,,,,,,,,,,,,,,,,,,,2381.0,,,60c341ec2ed9da27095ffab4,16:43:15,27/03/2024
html-keyboard-response,57,112431,0.0-26.0-0.0,2231.9000000059605,"<div style=""display: flex; flex-direction: column; align-items: center; margin-top: -40px;""><img src=""images/pattern_4.png"" style=""width: 234px; height: 230px; margin-top: -50px;""><div style=""display: flex; justify-content: space-between; margin-top: 33px;""><img src=""images/choice_trial_15.png"" style=""width: 408px; height: 417px; margin-right: 200px;""><img src=""images/choice_trial_9.png"" style=""width: 408px; height: 417px;""></div></div>",j,delaylearn,learning,trial,oMwNjKB6SoQ3djruQ3s5VXeAKTN2,oMwNjKB6SoQ3djruQ3s5VXeAKTN2,3.0,images/choice_trial_15.png,images/choice_trial_9.png,images/pattern_4.png,f,f,7000.0,15.0,9.0,3.0,0.0,11.0,0.0,0.0,9.0,50.0,,,,,,60c341ec2ed9da27095ffab4,16:43:15,27/03/2024
html-keyboard-response,58,113440,0.0-26.0-1.0,,"<div style=""display: flex; flex-direction: column; align-items: center; margin-top: -40px;""><img src=""images/pattern_4.png"" style=""width: 234px; height: 230px; margin-top: -50px;""><div style=""display: flex; justify-content: space-between; margin-top: 33px;""><img src=""images/choice_trial_9.png"" style=""width: 408px; height: 417px; margin-left:608px;""></div></div>",,delaylearn,learning,display_response,oMwNjKB6SoQ3djruQ3s5VXeAKTN2,oMwNjKB6SoQ3djruQ3s5VXeAKTN2,,,,,,,,,,,,,,,,,chosen stimuli: images/choice_trial_9.png,,,,,60c341ec2ed9da27095ffab4,16:43:15,27/03/2024
html-keyboard-response,59,120453,0.0-26.0-2.0,,,,delaylearn,learning,feedback_duration_window,oMwNjKB6SoQ3djruQ3s5VXeAKTN2,oMwNjKB6SoQ3djruQ3s5VXeAKTN2,,,,,,,,,,,,,,,,,,7000.0,,,,60c341ec2ed9da27095ffab4,16:43:15,27/03/2024
html-keyboard-response,60,121959,0.0-26.0-3.0,,<div style='margin:auto;width: auto; font-size: 150%'><span style='font-weight: bold; font-size: 100px; color: red;'>0 points!</span><br><br></div>,,delaylearn,learning,feedback_image_window,oMwNjKB6SoQ3djruQ3s5VXeAKTN2,oMwNjKB6SoQ3djruQ3s5VXeAKTN2,,,,,,,,,,,,,,,,,,,,,,60c341ec2ed9da27095ffab4,16:43:15,27/03/2024
html-keyboard-response,61,123481,0.0-27.0,,"<div style=""font-size:100px;"">+</div>",,delaylearn,learning,ITI,oMwNjKB6SoQ3djruQ3s5VXeAKTN2,oMwNjKB6SoQ3djruQ3s5VXeAKTN2,,,,,,,,,,,,,,,,,,,1509.0,,,60c341ec2ed9da27095ffab4,16:43:15,27/03/2024
html-keyboard-response,62,124844,0.0-28.0-0.0,1358.9000000059605,"<div style=""display: flex; flex-direction: column; align-items: center; margin-top: -40px;""><img src=""images/pattern_5.png"" style=""width: 234px; height: 230px; margin-top: -50px;""><div style=""display: flex; justify-content: space-between; margin-top: 33px;""><img src=""images/choice_trial_2.png"" style=""width: 408px; height: 417px; margin-right: 200px;""><img src=""images/choice_trial_11.png"" style=""width: 408px; height: 417px;""></div></div>",f,delaylearn,learning,trial,oMwNjKB6SoQ3djruQ3s5VXeAKTN2,oMwNjKB6SoQ3djruQ3s5VXeAKTN2,3.0,images/choice_trial_2.png,images/choice_trial_11.png,images/pattern_5.png,j,j,750.0,2.0,11.0,4.0,1.0,12.0,0.0,0.0,2.0,50.0,,,,,,60c341ec2ed9da27095ffab4,16:43:15,27/03/2024
html-keyboard-response,63,125873,0.0-28.0-1.0,,"<div style=""display: flex; flex-direction: column; align-items: center; margin-top: -40px;""><img src=""images/pattern_5.png"" style=""width: 234px; height: 230px; margin-top: -50px;""><div style=""display: flex; justify-content: space-between; margin-top: 33px;""><img src=""images/choice_trial_2.png"" style=""width: 408px; height: 417px; margin-right: 608px;""></div></div>",,delaylearn,learning,display_response,oMwNjKB6SoQ3djruQ3s5VXeAKTN2,oMwNjKB6SoQ3djruQ3s5VXeAKTN2,,,,,,,,,,,,,,,,,chosen stimuli: images/choice_trial_2.png,,,,,60c341ec2ed9da27095ffab4,16:43:15,27/03/2024
html-keyboard-response,64,126633,0.0-28.0-2.0,,,,delaylearn,learning,feedback_duration_window,oMwNjKB6SoQ3djruQ3s5VXeAKTN2,oMwNjKB6SoQ3djruQ3s5VXeAKTN2,,,,,,,,,,,,,,,,,,750.0,,,,60c341ec2ed9da27095ffab4,16:43:15,27/03/2024
html-keyboard-response,65,128138,0.0-28.0-3.0,,<div style='margin:auto;width: auto; font-size: 150%'><span style='font-weight: bold; font-size: 100px; color: red;'>0 points!</span><br><br></div>,,delaylearn,learning,feedback_image_window,oMwNjKB6SoQ3djruQ3s5VXeAKTN2,oMwNjKB6SoQ3djruQ3s5VXeAKTN2,,,,,,,,,,,,,,,,,,,,,,60c341ec2ed9da27095ffab4,16:43:15,27/03/2024
html-keyboard-response,66,129967,0.0-29.0,,"<div style=""font-size:100px;"">+</div>",,delaylearn,learning,ITI,oMwNjKB6SoQ3djruQ3s5VXeAKTN2,oMwNjKB6SoQ3djruQ3s5VXeAKTN2,,,,,,,,,,,,,,,,,,,1813.0,,,60c341ec2ed9da27095ffab4,16:43:15,27/03/2024
html-keyboard-response,67,130673,0.0-30.0-0.0,702.1999999880791,"<div style=""display: flex; flex-direction: column; align-items: center; margin-top: -40px;""><img src=""images/pattern_6.png"" style=""width: 234px; height: 230px; margin-top: -50px;""><div style=""display: flex; justify-content: space-between; margin-top: 33px;""><img src=""images/choice_trial_16.png"" style=""width: 408px; height: 417px; margin-right: 200px;""><img src=""images/choice_trial_3.png"" style=""width: 408px; height: 417px;""></div></div>",j,delaylearn,learning,trial,oMwNjKB6SoQ3djruQ3s5VXeAKTN2,oMwNjKB6SoQ3djruQ3s5VXeAKTN2,3.0,images/choice_trial_16.png,images/choice_trial_3.png,images/pattern_6.png,j,f,750.0,16.0,3.0,5.0,0.0,13.0,0.0,1.0,3.0,60.0,,,,,,60c341ec2ed9da27095ffab4,16:43:15,27/03/2024
html-keyboard-response,68,131691,0.0-30.0-1.0,,"<div style=""display: flex; flex-direction: column; align-items: center; margin-top: -40px;""><img src=""images/pattern_6.png"" style=""width: 234px; height: 230px; margin-top: -50px;""><div style=""display: flex; justify-content: space-between; margin-top: 33px;""><img src=""images/choice_trial_3.png"" style=""width: 408px; height: 417px; margin-left:608px;""></div></div>",,delaylearn,learning,display_response,oMwNjKB6SoQ3djruQ3s5VXeAKTN2,oMwNjKB6SoQ3djruQ3s5VXeAKTN2,,,,,,,,,,,,,,,,,chosen stimuli: images/choice_trial_3.png,,,,,60c341ec2ed9da27095ffab4,16:43:15,27/03/2024
html-keyboard-response,69,132456,0.0-30.0-2.0,,,,delaylearn,learning,feedback_duration_window,oMwNjKB6SoQ3djruQ3s5VXeAKTN2,oMwNjKB6SoQ3djruQ3s5VXeAKTN2,,,,,,,,,,,,,,,,,,750.0,,,,60c341ec2ed9da27095ffab4,16:43:15,27/03/2024
html-keyboard-response,70,133960,0.0-30.0-3.0,,<div style='margin:auto;width: auto; font-size: 150%'><span style='font-weight: bold; font-size: 100px; color: green;'>+10 points!</span><br><br></div>,,delaylearn,learning,feedback_image_window,oMwNjKB6SoQ3djruQ3s5VXeAKTN2,oMwNjKB6SoQ3djruQ3s5VXeAKTN2,,,,,,,,,,,,,,,,,,,,,,60c341ec2ed9da27095ffab4,16:43:15,27/03/2024
html-keyboard-response,71,134467,0.0-31.0-0.0,,,,,,mood_trial_fixation,oMwNjKB6SoQ3djruQ3s5VXeAKTN2,,,,,,,,,,,,,,,,,,,,,,,60c341ec2ed9da27095ffab4,16:43:15,27/03/2024
lmdlab-html-vas-response,72,139032,0.0-31.0-1.0,3554.0,How happy are you right now?,0.6944444444444444,delaylearn,learning,mood_trial,oMwNjKB6SoQ3djruQ3s5VXeAKTN2,oMwNjKB6SoQ3djruQ3s5VXeAKTN2,,,,,,,,,,,,,,,,,,,,"['Very unhappy', 'Very happy']",,60c341ec2ed9da27095ffab4,16:43:15,27/03/2024
html-keyboard-response,73,141466,0.0-32.0,,"<div style=""font-size:100px;"">+</div>",,delaylearn,learning,ITI,oMwNjKB6SoQ3djruQ3s5VXeAKTN2,oMwNjKB6SoQ3djruQ3s5VXeAKTN2,,,,,,,,,,,,,,,,,,,2425.0,,,60c341ec2ed9da27095ffab4,16:43:15,27/03/2024
html-keyboard-response,74,142158,0.0-33.0-0.0,688.7999999821186,"<div style=""display: flex; flex-direction: column; align-items: center; margin-top: -40px;""><img src=""images/pattern_1.png"" style=""width: 234px; height: 230px; margin-top: -50px;""><div style=""display: flex; justify-content: space-between; margin-top: 33px;""><img src=""images/choice_trial_8.png"" style=""width: 408px; height: 417px; margin-right: 200px;""><img src=""images/choice_trial_14.png"" style=""width: 408px; height: 417px;""></div></div>",f,delaylearn,learning,trial,oMwNjKB6SoQ3djruQ3s5VXeAKTN2,oMwNjKB6SoQ3djruQ3s5VXeAKTN2,3.0,images/choice_trial_8.png,images/choice_trial_14.png,images/pattern_1.png,j,j,7000.0,8.0,14.0,1.0,1.0,14.0,0.0,0.0,8.0,60.0,,,,,,60c341ec2ed9da27095ffab4,16:43:15,27/03/2024
html-keyboard-response,75,143174,0.0-33.0-1.0,,"<div style=""display: flex; flex-direction: column; align-items: center; margin-top: -40px;""><img src=""images/pattern_1.png"" style=""width: 234px; height: 230px; margin-top: -50px;""><div style=""display: flex; justify-content: space-between; margin-top: 33px;""><img src=""images/choice_trial_8.png"" style=""width: 408px; height: 417px; margin-right: 608px;""></div></div>",,delaylearn,learning,display_response,oMwNjKB6SoQ3djruQ3s5VXeAKTN2,oMwNjKB6SoQ3djruQ3s5VXeAKTN2,,,,,,,,,,,,,,,,,chosen stimuli: images/choice_trial_8.png,,,,,60c341ec2ed9da27095ffab4,16:43:15,27/03/2024
html-keyboard-response,76,150180,0.0-33.0-2.0,,,,delaylearn,learning,feedback_duration_window,oMwNjKB6SoQ3djruQ3s5VXeAKTN2,oMwNjKB6SoQ3djruQ3s5VXeAKTN2,,,,,,,,,,,,,,,,,,7000.0,,,,60c341ec2ed9da27095ffab4,16:43:15,27/03/2024
html-keyboard-response,77,151685,0.0-33.0-3.0,,<div style='margin:auto;width: auto; font-size: 150%'><span style='font-weight: bold; font-size: 100px; color: red;'>0 points!</span><br><br></div>,,delaylearn,learning,feedback_image_window,oMwNjKB6SoQ3djruQ3s5VXeAKTN2,oMwNjKB6SoQ3djruQ3s5VXeAKTN2,,,,,,,,,,,,,,,,,,,,,,60c341ec2ed9da27095ffab4,16:43:15,27/03/2024
html-keyboard-response,78,153794,0.0-34.0,,"<div style=""font-size:100px;"">+</div>",,delaylearn,learning,ITI,oMwNjKB6SoQ3djruQ3s5VXeAKTN2,oMwNjKB6SoQ3djruQ3s5VXeAKTN2,,,,,,,,,,,,,,,,,,,2107.0,,,60c341ec2ed9da27095ffab4,16:43:15,27/03/2024
html-keyboard-response,79,154389,0.0-35.0-0.0,593.3000000119209,"<div style=""display: flex; flex-direction: column; align-items: center; margin-top: -40px;""><img src=""images/pattern_3.png"" style=""width: 234px; height: 230px; margin-top: -50px;""><div style=""display: flex; justify-content: space-between; margin-top: 33px;""><img src=""images/choice_trial_10.png"" style=""width: 408px; height: 417px; margin-right: 200px;""><img src=""images/choice_trial_13.png"" style=""width: 408px; height: 417px;""></div></div>",j,delaylearn,learning,trial,oMwNjKB6SoQ3djruQ3s5VXeAKTN2,oMwNjKB6SoQ3djruQ3s5VXeAKTN2,3.0,images/choice_trial_10.png,images/choice_trial_13.png,images/pattern_3.png,f,j,7000.0,10.0,13.0,2.0,1.0,15.0,1.0,0.0,13.0,60.0,,,,,,60c341ec2ed9da27095ffab4,16:43:15,27/03/2024
html-keyboard-response,80,155393,0.0-35.0-1.0,,"<div style=""display: flex; flex-direction: column; align-items: center; margin-top: -40px;""><img src=""images/pattern_3.png"" style=""width: 234px; height: 230px; margin-top: -50px;""><div style=""display: flex; justify-content: space-between; margin-top: 33px;""><img src=""images/choice_trial_13.png"" style=""width: 408px; height: 417px; margin-left:608px;""></div></div>",,delaylearn,learning,display_response,oMwNjKB6SoQ3djruQ3s5VXeAKTN2,oMwNjKB6SoQ3djruQ3s5VXeAKTN2,,,,,,,,,,,,,,,,,chosen stimuli: images/choice_trial_13.png,,,,,60c341ec2ed9da27095ffab4,16:43:15,27/03/2024
html-keyboard-response,81,162408,0.0-35.0-2.0,,,,delaylearn,learning,feedback_duration_window,oMwNjKB6SoQ3djruQ3s5VXeAKTN2,oMwNjKB6SoQ3djruQ3s5VXeAKTN2,,,,,,,,,,,,,,,,,,7000.0,,,,60c341ec2ed9da27095ffab4,16:43:15,27/03/2024
html-keyboard-response,82,163922,0.0-35.0-3.0,,<div style='margin:auto;width: auto; font-size: 150%'><span style='font-weight: bold; font-size: 100px; color: red;'>0 points!</span><br><br></div>,,delaylearn,learning,feedback_image_window,oMwNjKB6SoQ3djruQ3s5VXeAKTN2,oMwNjKB6SoQ3djruQ3s5VXeAKTN2,,,,,,,,,,,,,,,,,,,,,,60c341ec2ed9da27095ffab4,16:43:15,27/03/2024
html-keyboard-response,83,166190,0.0-36.0,,"<div style=""font-size:100px;"">+</div>",,delaylearn,learning,ITI,oMwNjKB6SoQ3djruQ3s5VXeAKTN2,oMwNjKB6SoQ3djruQ3s5VXeAKTN2,,,,,,,,,,,,,,,,,,,2254.0,,,60c341ec2ed9da27095ffab4,16:43:15,27/03/2024
html-keyboard-response,84,166620,0.0-37.0-0.0,426.2999999821186,"<div style=""display: flex; flex-direction: column; align-items: center; margin-top: -40px;""><img src=""images/pattern_5.png"" style=""width: 234px; height: 230px; margin-top: -50px;""><div style=""display: flex; justify-content: space-between; margin-top: 33px;""><img src=""images/choice_trial_11.png"" style=""width: 408px; height: 417px; margin-right: 200px;""><img src=""images/choice_trial_2.png"" style=""width: 408px; height: 417px;""></div></div>",j,delaylearn,learning,trial,oMwNjKB6SoQ3djruQ3s5VXeAKTN2,oMwNjKB6SoQ3djruQ3s5VXeAKTN2,3.0,images/choice_trial_11.png,images/choice_trial_2.png,images/pattern_5.png,f,f,750.0,11.0,2.0,4.0,0.0,16.0,0.0,0.0,2.0,60.0,,,,,,60c341ec2ed9da27095ffab4,16:43:15,27/03/2024
html-keyboard-response,85,167632,0.0-37.0-1.0,,"<div style=""display: flex; flex-direction: column; align-items: center; margin-top: -40px;""><img src=""images/pattern_5.png"" style=""width: 234px; height: 230px; margin-top: -50px;""><div style=""display: flex; justify-content: space-between; margin-top: 33px;""><img src=""images/choice_trial_2.png"" style=""width: 408px; height: 417px; margin-left:608px;""></div></div>",,delaylearn,learning,display_response,oMwNjKB6SoQ3djruQ3s5VXeAKTN2,oMwNjKB6SoQ3djruQ3s5VXeAKTN2,,,,,,,,,,,,,,,,,chosen stimuli: images/choice_trial_2.png,,,,,60c341ec2ed9da27095ffab4,16:43:15,27/03/2024
html-keyboard-response,86,168395,0.0-37.0-2.0,,,,delaylearn,learning,feedback_duration_window,oMwNjKB6SoQ3djruQ3s5VXeAKTN2,oMwNjKB6SoQ3djruQ3s5VXeAKTN2,,,,,,,,,,,,,,,,,,750.0,,,,60c341ec2ed9da27095ffab4,16:43:15,27/03/2024
html-keyboard-response,87,169903,0.0-37.0-3.0,,<div style='margin:auto;width: auto; font-size: 150%'><span style='font-weight: bold; font-size: 100px; color: red;'>0 points!</span><br><br></div>,,delaylearn,learning,feedback_image_window,oMwNjKB6SoQ3djruQ3s5VXeAKTN2,oMwNjKB6SoQ3djruQ3s5VXeAKTN2,,,,,,,,,,,,,,,,,,,,,,60c341ec2ed9da27095ffab4,16:43:15,27/03/2024
html-keyboard-response,88,170422,0.0-38.0-0.0,,,,,,mood_trial_fixation,oMwNjKB6SoQ3djruQ3s5VXeAKTN2,,,,,,,,,,,,,,,,,,,,,,,60c341ec2ed9da27095ffab4,16:43:15,27/03/2024
lmdlab-html-vas-response,89,178466,0.0-38.0-1.0,7035.0,How happy are you right now?,0.032407407407407406,delaylearn,learning,mood_trial,oMwNjKB6SoQ3djruQ3s5VXeAKTN2,oMwNjKB6SoQ3djruQ3s5VXeAKTN2,,,,,,,,,,,,,,,,,,,,"['Very unhappy', 'Very happy']",,60c341ec2ed9da27095ffab4,16:43:15,27/03/2024
html-keyboard-response,90,180922,0.0-39.0,,"<div style=""font-size:100px;"">+</div>",,delaylearn,learning,ITI,oMwNjKB6SoQ3djruQ3s5VXeAKTN2,oMwNjKB6SoQ3djruQ3s5VXeAKTN2,,,,,,,,,,,,,,,,,,,2452.0,,,60c341ec2ed9da27095ffab4,16:43:15,27/03/2024
html-keyboard-response,91,182447,0.0-40.0-0.0,1521.7000000178814,"<div style=""display: flex; flex-direction: column; align-items: center; margin-top: -40px;""><img src=""images/pattern_6.png"" style=""width: 234px; height: 230px; margin-top: -50px;""><div style=""display: flex; justify-content: space-between; margin-top: 33px;""><img src=""images/choice_trial_16.png"" style=""width: 408px; height: 417px; margin-right: 200px;""><img src=""images/choice_trial_3.png"" style=""width: 408px; height: 417px;""></div></div>",j,delaylearn,learning,trial,oMwNjKB6SoQ3djruQ3s5VXeAKTN2,oMwNjKB6SoQ3djruQ3s5VXeAKTN2,3.0,images/choice_trial_16.png,images/choice_trial_3.png,images/pattern_6.png,f,f,750.0,16.0,3.0,5.0,0.0,17.0,0.0,0.0,3.0,60.0,,,,,,60c341ec2ed9da27095ffab4,16:43:15,27/03/2024
html-keyboard-response,92,183465,0.0-40.0-1.0,,"<div style=""display: flex; flex-direction: column; align-items: center; margin-top: -40px;""><img src=""images/pattern_6.png"" style=""width: 234px; height: 230px; margin-top: -50px;""><div style=""display: flex; justify-content: space-between; margin-top: 33px;""><img src=""images/choice_trial_3.png"" style=""width: 408px; height: 417px; margin-left:608px;""></div></div>",,delaylearn,learning,display_response,oMwNjKB6SoQ3djruQ3s5VXeAKTN2,oMwNjKB6SoQ3djruQ3s5VXeAKTN2,,,,,,,,,,,,,,,,,chosen stimuli: images/choice_trial_3.png,,,,,60c341ec2ed9da27095ffab4,16:43:15,27/03/2024
html-keyboard-response,93,184218,0.0-40.0-2.0,,,,delaylearn,learning,feedback_duration_window,oMwNjKB6SoQ3djruQ3s5VXeAKTN2,oMwNjKB6SoQ3djruQ3s5VXeAKTN2,,,,,,,,,,,,,,,,,,750.0,,,,60c341ec2ed9da27095ffab4,16:43:15,27/03/2024
html-keyboard-response,94,185722,0.0-40.0-3.0,,<div style='margin:auto;width: auto; font-size: 150%'><span style='font-weight: bold; font-size: 100px; color: red;'>0 points!</span><br><br></div>,,delaylearn,learning,feedback_image_window,oMwNjKB6SoQ3djruQ3s5VXeAKTN2,oMwNjKB6SoQ3djruQ3s5VXeAKTN2,,,,,,,,,,,,,,,,,,,,,,60c341ec2ed9da27095ffab4,16:43:15,27/03/2024
html-keyboard-response,95,187301,0.0-41.0,,"<div style=""font-size:100px;"">+</div>",,delaylearn,learning,ITI,oMwNjKB6SoQ3djruQ3s5VXeAKTN2,oMwNjKB6SoQ3djruQ3s5VXeAKTN2,,,,,,,,,,,,,,,,,,,1565.0,,,60c341ec2ed9da27095ffab4,16:43:15,27/03/2024
html-keyboard-response,96,187501,0.0-42.0-0.0,198.2999999821186,"<div style=""display: flex; flex-direction: column; align-items: center; margin-top: -40px;""><img src=""images/pattern_4.png"" style=""width: 234px; height: 230px; margin-top: -50px;""><div style=""display: flex; justify-content: space-between; margin-top: 33px;""><img src=""images/choice_trial_9.png"" style=""width: 408px; height: 417px; margin-right: 200px;""><img src=""images/choice_trial_15.png"" style=""width: 408px; height: 417px;""></div></div>",f,delaylearn,learning,trial,oMwNjKB6SoQ3djruQ3s5VXeAKTN2,oMwNjKB6SoQ3djruQ3s5VXeAKTN2,3.0,images/choice_trial_9.png,images/choice_trial_15.png,images/pattern_4.png,j,j,7000.0,9.0,15.0,3.0,1.0,18.0,0.0,0.0,9.0,60.0,,,,,,60c341ec2ed9da27095ffab4,16:43:15,27/03/2024
html-keyboard-response,97,188506,0.0-42.0-1.0,,"<div style=""display: flex; flex-direction: column; align-items: center; margin-top: -40px;""><img src=""images/pattern_4.png"" style=""width: 234px; height: 230px; margin-top: -50px;""><div style=""display: flex; justify-content: space-between; margin-top: 33px;""><img src=""images/choice_trial_9.png"" style=""width: 408px; height: 417px; margin-right: 608px;""></div></div>",,delaylearn,learning,display_response,oMwNjKB6SoQ3djruQ3s5VXeAKTN2,oMwNjKB6SoQ3djruQ3s5VXeAKTN2,,,,,,,,,,,,,,,,,chosen stimuli: images/choice_trial_9.png,,,,,60c341ec2ed9da27095ffab4,16:43:15,27/03/2024
html-keyboard-response,98,195518,0.0-42.0-2.0,,,,delaylearn,learning,feedback_duration_window,oMwNjKB6SoQ3djruQ3s5VXeAKTN2,oMwNjKB6SoQ3djruQ3s5VXeAKTN2,,,,,,,,,,,,,,,,,,7000.0,,,,60c341ec2ed9da27095ffab4,16:43:15,27/03/2024
html-keyboard-response,99,197030,0.0-42.0-3.0,,<div style='margin:auto;width: auto; font-size: 150%'><span style='font-weight: bold; font-size: 100px; color: red;'>0 points!</span><br><br></div>,,delaylearn,learning,feedback_image_window,oMwNjKB6SoQ3djruQ3s5VXeAKTN2,oMwNjKB6SoQ3djruQ3s5VXeAKTN2,,,,,,,,,,,,,,,,,,,,,,60c341ec2ed9da27095ffab4,16:43:15,27/03/2024
html-keyboard-response,100,198935,0.0-43.0,,"<div style=""font-size:100px;"">+</div>",,delaylearn,learning,ITI,oMwNjKB6SoQ3djruQ3s5VXeAKTN2,oMwNjKB6SoQ3djruQ3s5VXeAKTN2,,,,,,,,,,,,,,,,,,,1902.0,,,60c341ec2ed9da27095ffab4,16:43:15,27/03/2024
html-keyboard-response,101,200489,0.0-44.0-0.0,1550.5999999940395,"<div style=""display: flex; flex-direction: column; align-items: center; margin-top: -40px;""><img src=""images/pattern_7.png"" style=""width: 234px; height: 230px; margin-top: -50px;""><div style=""display: flex; justify-content: space-between; margin-top: 33px;""><img src=""images/choice_trial_6.png"" style=""width: 408px; height: 417px; margin-right: 200px;""><img src=""images/choice_trial_12.png"" style=""width: 408px; height: 417px;""></div></div>",f,delaylearn,learning,trial,oMwNjKB6SoQ3djruQ3s5VXeAKTN2,oMwNjKB6SoQ3djruQ3s5VXeAKTN2,3.0,images/choice_trial_6.png,images/choice_trial_12.png,images/pattern_7.png,j,f,750.0,6.0,12.0,6.0,0.0,19.0,1.0,0.0,6.0,60.0,,,,,,60c341ec2ed9da27095ffab4,16:43:15,27/03/2024
html-keyboard-response,102,201493,0.0-44.0-1.0,,"<div style=""display: flex; flex-direction: column; align-items: center; margin-top: -40px;""><img src=""images/pattern_7.png"" style=""width: 234px; height: 230px; margin-top: -50px;""><div style=""display: flex; justify-content: space-between; margin-top: 33px;""><img src=""images/choice_trial_6.png"" style=""width: 408px; height: 417px; margin-right: 608px;""></div></div>",,delaylearn,learning,display_response,oMwNjKB6SoQ3djruQ3s5VXeAKTN2,oMwNjKB6SoQ3djruQ3s5VXeAKTN2,,,,,,,,,,,,,,,,,chosen stimuli: images/choice_trial_6.png,,,,,60c341ec2ed9da27095ffab4,16:43:15,27/03/2024
html-keyboard-response,103,202244,0.0-44.0-2.0,,,,delaylearn,learning,feedback_duration_window,oMwNjKB6SoQ3djruQ3s5VXeAKTN2,oMwNjKB6SoQ3djruQ3s5VXeAKTN2,,,,,,,,,,,,,,,,,,750.0,,,,60c341ec2ed9da27095ffab4,16:43:15,27/03/2024
html-keyboard-response,104,203759,0.0-44.0-3.0,,<div style='margin:auto;width: auto; font-size: 150%'><span style='font-weight: bold; font-size: 100px; color: red;'>0 points!</span><br><br></div>,,delaylearn,learning,feedback_image_window,oMwNjKB6SoQ3djruQ3s5VXeAKTN2,oMwNjKB6SoQ3djruQ3s5VXeAKTN2,,,,,,,,,,,,,,,,,,,,,,60c341ec2ed9da27095ffab4,16:43:15,27/03/2024
html-keyboard-response,105,205571,0.0-45.0,,"<div style=""font-size:100px;"">+</div>",,delaylearn,learning,ITI,oMwNjKB6SoQ3djruQ3s5VXeAKTN2,oMwNjKB6SoQ3djruQ3s5VXeAKTN2,,,,,,,,,,,,,,,,,,,1795.0,,,60c341ec2ed9da27095ffab4,16:43:15,27/03/2024
html-keyboard-response,106,206938,0.0-46.0-0.0,1363.4000000059605,"<div style=""display: flex; flex-direction: column; align-items: center; margin-top: -40px;""><img src=""images/pattern_1.png"" style=""width: 234px; height: 230px; margin-top: -50px;""><div style=""display: flex; justify-content: space-between; margin-top: 33px;""><img src=""images/choice_trial_14.png"" style=""width: 408px; height: 417px; margin-right: 200px;""><img src=""images/choice_trial_8.png"" style=""width: 408px; height: 417px;""></div></div>",f,delaylearn,learning,trial,oMwNjKB6SoQ3djruQ3s5VXeAKTN2,oMwNjKB6SoQ3djruQ3s5VXeAKTN2,3.0,images/choice_trial_14.png,images/choice_trial_8.png,images/pattern_1.png,f,f,7000.0,14.0,8.0,1.0,0.0,20.0,1.0,1.0,14.0,70.0,,,,,,60c341ec2ed9da27095ffab4,16:43:15,27/03/2024
html-keyboard-response,107,207953,0.0-46.0-1.0,,"<div style=""display: flex; flex-direction: column; align-items: center; margin-top: -40px;""><img src=""images/pattern_1.png"" style=""width: 234px; height: 230px; margin-top: -50px;""><div style=""display: flex; justify-content: space-between; margin-top: 33px;""><img src=""images/choice_trial_14.png"" style=""width: 408px; height: 417px; margin-right: 608px;""></div></div>",,delaylearn,learning,display_response,oMwNjKB6SoQ3djruQ3s5VXeAKTN2,oMwNjKB6SoQ3djruQ3s5VXeAKTN2,,,,,,,,,,,,,,,,,chosen stimuli: images/choice_trial_14.png,,,,,60c341ec2ed9da27095ffab4,16:43:15,27/03/2024
html-keyboard-response,108,214957,0.0-46.0-2.0,,,,delaylearn,learning,feedback_duration_window,oMwNjKB6SoQ3djruQ3s5VXeAKTN2,oMwNjKB6SoQ3djruQ3s5VXeAKTN2,,,,,,,,,,,,,,,,,,7000.0,,,,60c341ec2ed9da27095ffab4,16:43:15,27/03/2024
html-keyboard-response,109,216465,0.0-46.0-3.0,,<div style='margin:auto;width: auto; font-size: 150%'><span style='font-weight: bold; font-size: 100px; color: green;'>+10 points!</span><br><br></div>,,delaylearn,learning,feedback_image_window,oMwNjKB6SoQ3djruQ3s5VXeAKTN2,oMwNjKB6SoQ3djruQ3s5VXeAKTN2,,,,,,,,,,,,,,,,,,,,,,60c341ec2ed9da27095ffab4,16:43:15,27/03/2024
html-keyboard-response,110,218195,0.0-47.0,,"<div style=""font-size:100px;"">+</div>",,delaylearn,learning,ITI,oMwNjKB6SoQ3djruQ3s5VXeAKTN2,oMwNjKB6SoQ3djruQ3s5VXeAKTN2,,,,,,,,,,,,,,,,,,,1719.0,,,60c341ec2ed9da27095ffab4,16:43:15,27/03/2024
html-keyboard-response,111,218945,0.0-48.0-0.0,746.7000000178814,"<div style=""display: flex; flex-direction: column; align-items: center; margin-top: -40px;""><img src=""images/pattern_6.png"" style=""width: 234px; height: 230px; margin-top: -50px;""><div style=""display: flex; justify-content: space-between; margin-top: 33px;""><img src=""images/choice_trial_3.png"" style=""width: 408px; height: 417px; margin-right: 200px;""><img src=""images/choice_trial_16.png"" style=""width: 408px; height: 417px;""></div></div>",f,delaylearn,learning,trial,oMwNjKB6SoQ3djruQ3s5VXeAKTN2,oMwNjKB6SoQ3djruQ3s5VXeAKTN2,3.0,images/choice_trial_3.png,images/choice_trial_16.png,images/pattern_6.png,j,j,750.0,3.0,16.0,5.0,1.0,21.0,0.0,0.0,3.0,70.0,,,,,,60c341ec2ed9da27095ffab4,16:43:15,27/03/2024
html-keyboard-response,112,219951,0.0-48.0-1.0,,"<div style=""display: flex; flex-direction: column; align-items: center; margin-top: -40px;""><img src=""images/pattern_6.png"" style=""width: 234px; height: 230px; margin-top: -50px;""><div style=""display: flex; justify-content: space-between; margin-top: 33px;""><img src=""images/choice_trial_3.png"" style=""width: 408px; height: 417px; margin-right: 608px;""></div></div>",,delaylearn,learning,display_response,oMwNjKB6SoQ3djruQ3s5VXeAKTN2,oMwNjKB6SoQ3djruQ3s5VXeAKTN2,,,,,,,,,,,,,,,,,chosen stimuli: images/choice_trial_3.png,,,,,60c341ec2ed9da27095ffab4,16:43:15,27/03/2024
html-keyboard-response,113,220721,0.0-48.0-2.0,,,,delaylearn,learning,feedback_duration_window,oMwNjKB6SoQ3djruQ3s5VXeAKTN2,oMwNjKB6SoQ3djruQ3s5VXeAKTN2,,,,,,,,,,,,,,,,,,750.0,,,,60c341ec2ed9da27095ffab4,16:43:15,27/03/2024
html-keyboard-response,114,222224,0.0-48.0-3.0,,<div style='margin:auto;width: auto; font-size: 150%'><span style='font-weight: bold; font-size: 100px; color: red;'>0 points!</span><br><br></div>,,delaylearn,learning,feedback_image_window,oMwNjKB6SoQ3djruQ3s5VXeAKTN2,oMwNjKB6SoQ3djruQ3s5VXeAKTN2,,,,,,,,,,,,,,,,,,,,,,60c341ec2ed9da27095ffab4,16:43:15,27/03/2024
html-keyboard-response,115,224128,0.0-49.0,,"<div style=""font-size:100px;"">+</div>",,delaylearn,learning,ITI,oMwNjKB6SoQ3djruQ3s5VXeAKTN2,oMwNjKB6SoQ3djruQ3s5VXeAKTN2,,,,,,,,,,,,,,,,,,,1893.0,,,60c341ec2ed9da27095ffab4,16:43:15,27/03/2024
html-keyboard-response,116,224238,0.0-50.0-0.0,106.5,"<div style=""display: flex; flex-direction: column; align-items: center; margin-top: -40px;""><img src=""images/pattern_4.png"" style=""width: 234px; height: 230px; margin-top: -50px;""><div style=""display: flex; justify-content: space-between; margin-top: 33px;""><img src=""images/choice_trial_15.png"" style=""width: 408px; height: 417px; margin-right: 200px;""><img src=""images/choice_trial_9.png"" style=""width: 408px; height: 417px;""></div></div>",f,delaylearn,learning,trial,oMwNjKB6SoQ3djruQ3s5VXeAKTN2,oMwNjKB6SoQ3djruQ3s5VXeAKTN2,3.0,images/choice_trial_15.png,images/choice_trial_9.png,images/pattern_4.png,f,f,7000.0,15.0,9.0,3.0,0.0,22.0,1.0,1.0,15.0,80.0,,,,,,60c341ec2ed9da27095ffab4,16:43:15,27/03/2024
html-keyboard-response,117,225247,0.0-50.0-1.0,,"<div style=""display: flex; flex-direction: column; align-items: center; margin-top: -40px;""><img src=""images/pattern_4.png"" style=""width: 234px; height: 230px; margin-top: -50px;""><div style=""display: flex; justify-content: space-between; margin-top: 33px;""><img src=""images/choice_trial_15.png"" style=""width: 408px; height: 417px; margin-right: 608px;""></div></div>",,delaylearn,learning,display_response,oMwNjKB6SoQ3djruQ3s5VXeAKTN2,oMwNjKB6SoQ3djruQ3s5VXeAKTN2,,,,,,,,,,,,,,,,,chosen stimuli: images/choice_trial_15.png,,,,,60c341ec2ed9da27095ffab4,16:43:15,27/03/2024
html-keyboard-response,118,232249,0.0-50.0-2.0,,,,delaylearn,learning,feedback_duration_window,oMwNjKB6SoQ3djruQ3s5VXeAKTN2,oMwNjKB6SoQ3djruQ3s5VXeAKTN2,,,,,,,,,,,,,,,,,,7000.0,,,,60c341ec2ed9da27095ffab4,16:43:15,27/03/2024
html-keyboard-response,119,233767,0.0-50.0-3.0,,<div style='margin:auto;width: auto; font-size: 150%'><span style='font-weight: bold; font-size: 100px; color: green;'>+10 points!</span><br><br></div>,,delaylearn,learning,feedback_image_window,oMwNjKB6SoQ3djruQ3s5VXeAKTN2,oMwNjKB6SoQ3djruQ3s5VXeAKTN2,,,,,,,,,,,,,,,,,,,,,,60c341ec2ed9da27095ffab4,16:43:15,27/03/2024
html-keyboard-response,120,234280,0.0-51.0-0.0,,,,,,mood_trial_fixation,oMwNjKB6SoQ3djruQ3s5VXeAKTN2,,,,,,,,,,,,,,,,,,,,,,,60c341ec2ed9da27095ffab4,16:43:15,27/03/2024
lmdlab-html-vas-response,121,243111,0.0-51.0-1.0,7819.0,How happy are you right now?,0.023148148148148147,delaylearn,learning,mood_trial,oMwNjKB6SoQ3djruQ3s5VXeAKTN2,oMwNjKB6SoQ3djruQ3s5VXeAKTN2,,,,,,,,,,,,,,,,,,,,"['Very unhappy', 'Very happy']",,60c341ec2ed9da27095ffab4,16:43:15,27/03/2024
html-keyboard-response,122,245081,0.0-52.0,,"<div style=""font-size:100px;"">+</div>",,delaylearn,learning,ITI,oMwNjKB6SoQ3djruQ3s5VXeAKTN2,oMwNjKB6SoQ3djruQ3s5VXeAKTN2,,,,,,,,,,,,,,,,,,,1953.0,,,60c341ec2ed9da27095ffab4,16:43:15,27/03/2024
html-keyboard-response,123,246997,0.0-53.0-0.0,1914.0,"<div style=""display: flex; flex-direction: column; align-items: center; margin-top: -40px;""><img src=""images/pattern_7.png"" style=""width: 234px; height: 230px; margin-top: -50px;""><div style=""display: flex; justify-content: space-between; margin-top: 33px;""><img src=""images/choice_trial_12.png"" style=""width: 408px; height: 417px; margin-right: 200px;""><img src=""images/choice_trial_6.png"" style=""width: 408px; height: 417px;""></div></div>",j,delaylearn,learning,trial,oMwNjKB6SoQ3djruQ3s5VXeAKTN2,oMwNjKB6SoQ3djruQ3s5VXeAKTN2,3.0,images/choice_trial_12.png,images/choice_trial_6.png,images/pattern_7.png,j,j,750.0,12.0,6.0,6.0,1.0,23.0,1.0,1.0,6.0,90.0,,,,,,60c341ec2ed9da27095ffab4,16:43:15,27/03/2024
html-keyboard-response,124,248001,0.0-53.0-1.0,,"<div style=""display: flex; flex-direction: column; align-items: center; margin-top: -40px;""><img src=""images/pattern_7.png"" style=""width: 234px; height: 230px; margin-top: -50px;""><div style=""display: flex; justify-content: space-between; margin-top: 33px;""><img src=""images/choice_trial_6.png"" style=""width: 408px; height: 417px; margin-left:608px;""></div></div>",,delaylearn,learning,display_response,oMwNjKB6SoQ3djruQ3s5VXeAKTN2,oMwNjKB6SoQ3djruQ3s5VXeAKTN2,,,,,,,,,,,,,,,,,chosen stimuli: images/choice_trial_6.png,,,,,60c341ec2ed9da27095ffab4,16:43:15,27/03/2024
html-keyboard-response,125,248765,0.0-53.0-2.0,,,,delaylearn,learning,feedback_duration_window,oMwNjKB6SoQ3djruQ3s5VXeAKTN2,oMwNjKB6SoQ3djruQ3s5VXeAKTN2,,,,,,,,,,,,,,,,,,750.0,,,,60c341ec2ed9da27095ffab4,16:43:15,27/03/2024
html-keyboard-response,126,250280,0.0-53.0-3.0,,<div style='margin:auto;width: auto; font-size: 150%'><span style='font-weight: bold; font-size: 100px; color: green;'>+10 points!</span><br><br></div>,,delaylearn,learning,feedback_image_window,oMwNjKB6SoQ3djruQ3s5VXeAKTN2,oMwNjKB6SoQ3djruQ3s5VXeAKTN2,,,,,,,,,,,,,,,,,,,,,,60c341ec2ed9da27095ffab4,16:43:15,27/03/2024
html-keyboard-response,127,252195,0.0-54.0,,"<div style=""font-size:100px;"">+</div>",,delaylearn,learning,ITI,oMwNjKB6SoQ3djruQ3s5VXeAKTN2,oMwNjKB6SoQ3djruQ3s5VXeAKTN2,,,,,,,,,,,,,,,,,,,1906.0,,,60c341ec2ed9da27095ffab4,16:43:15,27/03/2024
html-keyboard-response,128,252597,0.0-55.0-0.0,398.40000000596046,"<div style=""display: flex; flex-direction: column; align-items: center; margin-top: -40px;""><img src=""images/pattern_1.png"" style=""width: 234px; height: 230px; margin-top: -50px;""><div style=""display: flex; justify-content: space-between; margin-top: 33px;""><img src=""images/choice_trial_8.png"" style=""width: 408px; height: 417px; margin-right: 200px;""><img src=""images/choice_trial_14.png"" style=""width: 408px; height: 417px;""></div></div>",j,delaylearn,learning,trial,oMwNjKB6SoQ3djruQ3s5VXeAKTN2,oMwNjKB6SoQ3djruQ3s5VXeAKTN2,3.0,images/choice_trial_8.png,images/choice_trial_14.png,images/pattern_1.png,f,j,7000.0,8.0,14.0,1.0,1.0,24.0,1.0,0.0,14.0,90.0,,,,,,60c341ec2ed9da27095ffab4,16:43:15,27/03/2024
html-keyboard-response,129,253611,0.0-55.0-1.0,,"<div style=""display: flex; flex-direction: column; align-items: center; margin-top: -40px;""><img src=""images/pattern_1.png"" style=""width: 234px; height: 230px; margin-top: -50px;""><div style=""display: flex; justify-content: space-between; margin-top: 33px;""><img src=""images/choice_trial_14.png"" style=""width: 408px; height: 417px; margin-left:608px;""></div></div>",,delaylearn,learning,display_response,oMwNjKB6SoQ3djruQ3s5VXeAKTN2,oMwNjKB6SoQ3djruQ3s5VXeAKTN2,,,,,,,,,,,,,,,,,chosen stimuli: images/choice_trial_14.png,,,,,60c341ec2ed9da27095ffab4,16:43:15,27/03/2024
html-keyboard-response,130,260629,0.0-55.0-2.0,,,,delaylearn,learning,feedback_duration_window,oMwNjKB6SoQ3djruQ3s5VXeAKTN2,oMwNjKB6SoQ3djruQ3s5VXeAKTN2,,,,,,,,,,,,,,,,,,7000.0,,,,60c341ec2ed9da27095ffab4,16:43:15,27/03/2024
html-keyboard-response,131,262147,0.0-55.0-3.0,,<div style='margin:auto;width: auto; font-size: 150%'><span style='font-weight: bold; font-size: 100px; color: red;'>0 points!</span><br><br></div>,,delaylearn,learning,feedback_image_window,oMwNjKB6SoQ3djruQ3s5VXeAKTN2,oMwNjKB6SoQ3djruQ3s5VXeAKTN2,,,,,,,,,,,,,,,,,,,,,,60c341ec2ed9da27095ffab4,16:43:15,27/03/2024
html-keyboard-response,132,264491,0.0-56.0,,"<div style=""font-size:100px;"">+</div>",,delaylearn,learning,ITI,oMwNjKB6SoQ3djruQ3s5VXeAKTN2,oMwNjKB6SoQ3djruQ3s5VXeAKTN2,,,,,,,,,,,,,,,,,,,2339.0,,,60c341ec2ed9da27095ffab4,16:43:15,27/03/2024
html-keyboard-response,133,264682,0.0-57.0-0.0,186.5,"<div style=""display: flex; flex-direction: column; align-items: center; margin-top: -40px;""><img src=""images/pattern_5.png"" style=""width: 234px; height: 230px; margin-top: -50px;""><div style=""display: flex; justify-content: space-between; margin-top: 33px;""><img src=""images/choice_trial_2.png"" style=""width: 408px; height: 417px; margin-right: 200px;""><img src=""images/choice_trial_11.png"" style=""width: 408px; height: 417px;""></div></div>",f,delaylearn,learning,trial,oMwNjKB6SoQ3djruQ3s5VXeAKTN2,oMwNjKB6SoQ3djruQ3s5VXeAKTN2,3.0,images/choice_trial_2.png,images/choice_trial_11.png,images/pattern_5.png,j,j,750.0,2.0,11.0,4.0,1.0,25.0,0.0,0.0,2.0,90.0,,,,,,60c341ec2ed9da27095ffab4,16:43:15,27/03/2024
html-keyboard-response,134,265701,0.0-57.0-1.0,,"<div style=""display: flex; flex-direction: column; align-items: center; margin-top: -40px;""><img src=""images/pattern_5.png"" style=""width: 234px; height: 230px; margin-top: -50px;""><div style=""display: flex; justify-content: space-between; margin-top: 33px;""><img src=""images/choice_trial_2.png"" style=""width: 408px; height: 417px; margin-right: 608px;""></div></div>",,delaylearn,learning,display_response,oMwNjKB6SoQ3djruQ3s5VXeAKTN2,oMwNjKB6SoQ3djruQ3s5VXeAKTN2,,,,,,,,,,,,,,,,,chosen stimuli: images/choice_trial_2.png,,,,,60c341ec2ed9da27095ffab4,16:43:15,27/03/2024
html-keyboard-response,135,266464,0.0-57.0-2.0,,,,delaylearn,learning,feedback_duration_window,oMwNjKB6SoQ3djruQ3s5VXeAKTN2,oMwNjKB6SoQ3djruQ3s5VXeAKTN2,,,,,,,,,,,,,,,,,,750.0,,,,60c341ec2ed9da27095ffab4,16:43:15,27/03/2024
html-keyboard-response,136,267967,0.0-57.0-3.0,,<div style='margin:auto;width: auto; font-size: 150%'><span style='font-weight: bold; font-size: 100px; color: red;'>0 points!</span><br><br></div>,,delaylearn,learning,feedback_image_window,oMwNjKB6SoQ3djruQ3s5VXeAKTN2,oMwNjKB6SoQ3djruQ3s5VXeAKTN2,,,,,,,,,,,,,,,,,,,,,,60c341ec2ed9da27095ffab4,16:43:15,27/03/2024
html-keyboard-response,137,270139,0.0-58.0,,"<div style=""font-size:100px;"">+</div>",,delaylearn,learning,ITI,oMwNjKB6SoQ3djruQ3s5VXeAKTN2,oMwNjKB6SoQ3djruQ3s5VXeAKTN2,,,,,,,,,,,,,,,,,,,2170.0,,,60c341ec2ed9da27095ffab4,16:43:15,27/03/2024
html-keyboard-response,138,272487,0.0-59.0-0.0,2343.800000011921,"<div style=""display: flex; flex-direction: column; align-items: center; margin-top: -40px;""><img src=""images/pattern_3.png"" style=""width: 234px; height: 230px; margin-top: -50px;""><div style=""display: flex; justify-content: space-between; margin-top: 33px;""><img src=""images/choice_trial_10.png"" style=""width: 408px; height: 417px; margin-right: 200px;""><img src=""images/choice_trial_13.png"" style=""width: 408px; height: 417px;""></div></div>",f,delaylearn,learning,trial,oMwNjKB6SoQ3djruQ3s5VXeAKTN2,oMwNjKB6SoQ3djruQ3s5VXeAKTN2,3.0,images/choice_trial_10.png,images/choice_trial_13.png,images/pattern_3.png,j,j,7000.0,10.0,13.0,2.0,1.0,26.0,0.0,0.0,10.0,90.0,,,,,,60c341ec2ed9da27095ffab4,16:43:15,27/03/2024
html-keyboard-response,139,273505,0.0-59.0-1.0,,"<div style=""display: flex; flex-direction: column; align-items: center; margin-top: -40px;""><img src=""images/pattern_3.png"" style=""width: 234px; height: 230px; margin-top: -50px;""><div style=""display: flex; justify-content: space-between; margin-top: 33px;""><img src=""images/choice_trial_10.png"" style=""width: 408px; height: 417px; margin-right: 608px;""></div></div>",,delaylearn,learning,display_response,oMwNjKB6SoQ3djruQ3s5VXeAKTN2,oMwNjKB6SoQ3djruQ3s5VXeAKTN2,,,,,,,,,,,,,,,,,chosen stimuli: images/choice_trial_10.png,,,,,60c341ec2ed9da27095ffab4,16:43:15,27/03/2024
html-keyboard-response,140,280511,0.0-59.0-2.0,,,,delaylearn,learning,feedback_duration_window,oMwNjKB6SoQ3djruQ3s5VXeAKTN2,oMwNjKB6SoQ3djruQ3s5VXeAKTN2,,,,,,,,,,,,,,,,,,7000.0,,,,60c341ec2ed9da27095ffab4,16:43:15,27/03/2024
html-keyboard-response,141,282016,0.0-59.0-3.0,,<div style='margin:auto;width: auto; font-size: 150%'><span style='font-weight: bold; font-size: 100px; color: red;'>0 points!</span><br><br></div>,,delaylearn,learning,feedback_image_window,oMwNjKB6SoQ3djruQ3s5VXeAKTN2,oMwNjKB6SoQ3djruQ3s5VXeAKTN2,,,,,,,,,,,,,,,,,,,,,,60c341ec2ed9da27095ffab4,16:43:15,27/03/2024
lmdlab-html-vas-response,142,287533,0.0-60.0-0.0,3975.0,*How <b><u>confident</u></b> are you feeling about your answers at this moment?*,0.03935185185185185,rewlearn,rate_confidence,,oMwNjKB6SoQ3djruQ3s5VXeAKTN2,oMwNjKB6SoQ3djruQ3s5VXeAKTN2,,,,,,,,,,,,,,,,,,,,"['No confidence', 'Complete confidence']",,60c341ec2ed9da27095ffab4,16:43:15,27/03/2024
lmdlab-rest-trial-limit,143,294385,0.0-60.0-1.0,5345.800000011921,"<div style=""font-size:40px;""><b>Please take a break!</b><br><br><br><br><p>Great work: you earned 90 points.<br><br><br><p>You have completed part(s) 1 of 5.<br><br><br><br>When you are ready to continue<br><br><br>please click the button.</p><br><br>",0,delaylearn,learning,break,oMwNjKB6SoQ3djruQ3s5VXeAKTN2,oMwNjKB6SoQ3djruQ3s5VXeAKTN2,,,,,,,,,,,,,,,,,,,,,0.0,60c341ec2ed9da27095ffab4,16:43:15,27/03/2024
html-keyboard-response,144,297398,0.0-60.0-2.0,,"<div style=""font-size:100px;"">+</div>",,delaylearn,learning,pre_fixation,oMwNjKB6SoQ3djruQ3s5VXeAKTN2,,,,,,,,,,,,,,,,,,,,,,,60c341ec2ed9da27095ffab4,16:43:15,27/03/2024
lmdlab-html-vas-response,145,301593,0.0-60.0-3.0-0.0,3185.0,How happy are you right now?,0.004629629629629629,delaylearn,learning,mood_baseline,oMwNjKB6SoQ3djruQ3s5VXeAKTN2,oMwNjKB6SoQ3djruQ3s5VXeAKTN2,,,,,,,,,,,,,,,,,,,,"['Very unhappy', 'Very happy']",,60c341ec2ed9da27095ffab4,16:43:15,27/03/2024
html-keyboard-response,146,303109,0.0-60.0-3.0-1.0,,,,,,mood_baseline_fixation,oMwNjKB6SoQ3djruQ3s5VXeAKTN2,,,,,,,,,,,,,,,,,,,,,,,60c341ec2ed9da27095ffab4,16:43:15,27/03/2024
html-keyboard-response,147,305318,0.0-61.0,,"<div style=""font-size:100px;"">+</div>",,delaylearn,learning,ITI,oMwNjKB6SoQ3djruQ3s5VXeAKTN2,oMwNjKB6SoQ3djruQ3s5VXeAKTN2,,,,,,,,,,,,,,,,,,,2197.0,,,60c341ec2ed9da27095ffab4,16:43:15,27/03/2024
html-keyboard-response,148,307079,0.0-62.0-0.0,1756.7000000178814,"<div style=""display: flex; flex-direction: column; align-items: center; margin-top: -40px;""><img src=""images/pattern_7.png"" style=""width: 234px; height: 230px; margin-top: -50px;""><div style=""display: flex; justify-content: space-between; margin-top: 33px;""><img src=""images/choice_trial_12.png"" style=""width: 408px; height: 417px; margin-right: 200px;""><img src=""images/choice_trial_6.png"" style=""width: 408px; height: 417px;""></div></div>",f,delaylearn,learning,trial,oMwNjKB6SoQ3djruQ3s5VXeAKTN2,oMwNjKB6SoQ3djruQ3s5VXeAKTN2,3.0,images/choice_trial_12.png,images/choice_trial_6.png,images/pattern_7.png,j,j,750.0,12.0,6.0,6.0,1.0,27.0,0.0,0.0,12.0,90.0,,,,,,60c341ec2ed9da27095ffab4,16:43:15,27/03/2024
html-keyboard-response,149,308097,0.0-62.0-1.0,,"<div style=""display: flex; flex-direction: column; align-items: center; margin-top: -40px;""><img src=""images/pattern_7.png"" style=""width: 234px; height: 230px; margin-top: -50px;""><div style=""display: flex; justify-content: space-between; margin-top: 33px;""><img src=""images/choice_trial_12.png"" style=""width: 408px; height: 417px; margin-right: 608px;""></div></div>",,delaylearn,learning,display_response,oMwNjKB6SoQ3djruQ3s5VXeAKTN2,oMwNjKB6SoQ3djruQ3s5VXeAKTN2,,,,,,,,,,,,,,,,,chosen stimuli: images/choice_trial_12.png,,,,,60c341ec2ed9da27095ffab4,16:43:15,27/03/2024
html-keyboard-response,150,308854,0.0-62.0-2.0,,,,delaylearn,learning,feedback_duration_window,oMwNjKB6SoQ3djruQ3s5VXeAKTN2,oMwNjKB6SoQ3djruQ3s5VXeAKTN2,,,,,,,,,,,,,,,,,,750.0,,,,60c341ec2ed9da27095ffab4,16:43:15,27/03/2024
html-keyboard-response,151,310367,0.0-62.0-3.0,,<div style='margin:auto;width: auto; font-size: 150%'><span style='font-weight: bold; font-size: 100px; color: red;'>0 points!</span><br><br></div>,,delaylearn,learning,feedback_image_window,oMwNjKB6SoQ3djruQ3s5VXeAKTN2,oMwNjKB6SoQ3djruQ3s5VXeAKTN2,,,,,,,,,,,,,,,,,,,,,,60c341ec2ed9da27095ffab4,16:43:15,27/03/2024
html-keyboard-response,152,310879,0.0-63.0-0.0,,,,,,mood_trial_fixation,oMwNjKB6SoQ3djruQ3s5VXeAKTN2,,,,,,,,,,,,,,,,,,,,,,,60c341ec2ed9da27095ffab4,16:43:15,27/03/2024
lmdlab-html-vas-response,153,318247,0.0-63.0-1.0,6354.0,How happy are you right now?,0.05092592592592592,delaylearn,learning,mood_trial,oMwNjKB6SoQ3djruQ3s5VXeAKTN2,oMwNjKB6SoQ3djruQ3s5VXeAKTN2,,,,,,,,,,,,,,,,,,,,"['Very unhappy', 'Very happy']",,60c341ec2ed9da27095ffab4,16:43:15,27/03/2024
html-keyboard-response,154,320531,0.0-64.0,,"<div style=""font-size:100px;"">+</div>",,delaylearn,learning,ITI,oMwNjKB6SoQ3djruQ3s5VXeAKTN2,oMwNjKB6SoQ3djruQ3s5VXeAKTN2,,,,,,,,,,,,,,,,,,,2263.0,,,60c341ec2ed9da27095ffab4,16:43:15,27/03/2024
html-keyboard-response,155,323492,0.0-65.0-0.0,2956.800000011921,"<div style=""display: flex; flex-direction: column; align-items: center; margin-top: -40px;""><img src=""images/pattern_1.png"" style=""width: 234px; height: 230px; margin-top: -50px;""><div style=""display: flex; justify-content: space-between; margin-top: 33px;""><img src=""images/choice_trial_14.png"" style=""width: 408px; height: 417px; margin-right: 200px;""><img src=""images/choice_trial_8.png"" style=""width: 408px; height: 417px;""></div></div>",f,delaylearn,learning,trial,oMwNjKB6SoQ3djruQ3s5VXeAKTN2,oMwNjKB6SoQ3djruQ3s5VXeAKTN2,3.0,images/choice_trial_14.png,images/choice_trial_8.png,images/pattern_1.png,f,f,7000.0,14.0,8.0,1.0,0.0,28.0,1.0,1.0,14.0,100.0,,,,,,60c341ec2ed9da27095ffab4,16:43:15,27/03/2024
html-keyboard-response,156,324512,0.0-65.0-1.0,,"<div style=""display: flex; flex-direction: column; align-items: center; margin-top: -40px;""><img src=""images/pattern_1.png"" style=""width: 234px; height: 230px; margin-top: -50px;""><div style=""display: flex; justify-content: space-between; margin-top: 33px;""><img src=""images/choice_trial_14.png"" style=""width: 408px; height: 417px; margin-right: 608px;""></div></div>",,delaylearn,learning,display_response,oMwNjKB6SoQ3djruQ3s5VXeAKTN2,oMwNjKB6SoQ3djruQ3s5VXeAKTN2,,,,,,,,,,,,,,,,,chosen stimuli: images/choice_trial_14.png,,,,,60c341ec2ed9da27095ffab4,16:43:15,27/03/2024
html-keyboard-response,157,331518,0.0-65.0-2.0,,,,delaylearn,learning,feedback_duration_window,oMwNjKB6SoQ3djruQ3s5VXeAKTN2,oMwNjKB6SoQ3djruQ3s5VXeAKTN2,,,,,,,,,,,,,,,,,,7000.0,,,,60c341ec2ed9da27095ffab4,16:43:15,27/03/2024
html-keyboard-response,158,333023,0.0-65.0-3.0,,<div style='margin:auto;width: auto; font-size: 150%'><span style='font-weight: bold; font-size: 100px; color: green;'>+10 points!</span><br><br></div>,,delaylearn,learning,feedback_image_window,oMwNjKB6SoQ3djruQ3s5VXeAKTN2,oMwNjKB6SoQ3djruQ3s5VXeAKTN2,,,,,,,,,,,,,,,,,,,,,,60c341ec2ed9da27095ffab4,16:43:15,27/03/2024
html-keyboard-response,159,334697,0.0-66.0,,"<div style=""font-size:100px;"">+</div>",,delaylearn,learning,ITI,oMwNjKB6SoQ3djruQ3s5VXeAKTN2,oMwNjKB6SoQ3djruQ3s5VXeAKTN2,,,,,,,,,,,,,,,,,,,1672.0,,,60c341ec2ed9da27095ffab4,16:43:15,27/03/2024
html-keyboard-response,160,335348,0.0-67.0-0.0,644.3000000119209,"<div style=""display: flex; flex-direction: column; align-items: center; margin-top: -40px;""><img src=""images/pattern_5.png"" style=""width: 234px; height: 230px; margin-top: -50px;""><div style=""display: flex; justify-content: space-between; margin-top: 33px;""><img src=""images/choice_trial_11.png"" style=""width: 408px; height: 417px; margin-right: 200px;""><img src=""images/choice_trial_2.png"" style=""width: 408px; height: 417px;""></div></div>",j,delaylearn,learning,trial,oMwNjKB6SoQ3djruQ3s5VXeAKTN2,oMwNjKB6SoQ3djruQ3s5VXeAKTN2,3.0,images/choice_trial_11.png,images/choice_trial_2.png,images/pattern_5.png,f,f,750.0,11.0,2.0,4.0,0.0,29.0,0.0,0.0,2.0,100.0,,,,,,60c341ec2ed9da27095ffab4,16:43:15,27/03/2024
html-keyboard-response,161,336352,0.0-67.0-1.0,,"<div style=""display: flex; flex-direction: column; align-items: center; margin-top: -40px;""><img src=""images/pattern_5.png"" style=""width: 234px; height: 230px; margin-top: -50px;""><div style=""display: flex; justify-content: space-between; margin-top: 33px;""><img src=""images/choice_trial_2.png"" style=""width: 408px; height: 417px; margin-left:608px;""></div></div>",,delaylearn,learning,display_response,oMwNjKB6SoQ3djruQ3s5VXeAKTN2,oMwNjKB6SoQ3djruQ3s5VXeAKTN2,,,,,,,,,,,,,,,,,chosen stimuli: images/choice_trial_2.png,,,,,60c341ec2ed9da27095ffab4,16:43:15,27/03/2024
html-keyboard-response,162,337107,0.0-67.0-2.0,,,,delaylearn,learning,feedback_duration_window,oMwNjKB6SoQ3djruQ3s5VXeAKTN2,oMwNjKB6SoQ3djruQ3s5VXeAKTN2,,,,,,,,,,,,,,,,,,750.0,,,,60c341ec2ed9da27095ffab4,16:43:15,27/03/2024
html-keyboard-response,163,338625,0.0-67.0-3.0,,<div style='margin:auto;width: auto; font-size: 150%'><span style='font-weight: bold; font-size: 100px; color: red;'>0 points!</span><br><br></div>,,delaylearn,learning,feedback_image_window,oMwNjKB6SoQ3djruQ3s5VXeAKTN2,oMwNjKB6SoQ3djruQ3s5VXeAKTN2,,,,,,,,,,,,,,,,,,,,,,60c341ec2ed9da27095ffab4,16:43:15,27/03/2024
html-keyboard-response,164,340762,0.0-68.0,,"<div style=""font-size:100px;"">+</div>",,delaylearn,learning,ITI,oMwNjKB6SoQ3djruQ3s5VXeAKTN2,oMwNjKB6SoQ3djruQ3s5VXeAKTN2,,,,,,,,,,,,,,,,,,,2123.0,,,60c341ec2ed9da27095ffab4,16:43:15,27/03/2024
html-keyboard-response,165,343666,0.0-69.0-0.0,2900.199999988079,"<div style=""display: flex; flex-direction: column; align-items: center; margin-top: -40px;""><img src=""images/pattern_6.png"" style=""width: 234px; height: 230px; margin-top: -50px;""><div style=""display: flex; justify-content: space-between; margin-top: 33px;""><img src=""images/choice_trial_3.png"" style=""width: 408px; height: 417px; margin-right: 200px;""><img src=""images/choice_trial_16.png"" style=""width: 408px; height: 417px;""></div></div>",f,delaylearn,learning,trial,oMwNjKB6SoQ3djruQ3s5VXeAKTN2,oMwNjKB6SoQ3djruQ3s5VXeAKTN2,3.0,images/choice_trial_3.png,images/choice_trial_16.png,images/pattern_6.png,j,j,750.0,3.0,16.0,5.0,1.0,30.0,0.0,0.0,3.0,100.0,,,,,,60c341ec2ed9da27095ffab4,16:43:15,27/03/2024
html-keyboard-response,166,344679,0.0-69.0-1.0,,"<div style=""display: flex; flex-direction: column; align-items: center; margin-top: -40px;""><img src=""images/pattern_6.png"" style=""width: 234px; height: 230px; margin-top: -50px;""><div style=""display: flex; justify-content: space-between; margin-top: 33px;""><img src=""images/choice_trial_3.png"" style=""width: 408px; height: 417px; margin-right: 608px;""></div></div>",,delaylearn,learning,display_response,oMwNjKB6SoQ3djruQ3s5VXeAKTN2,oMwNjKB6SoQ3djruQ3s5VXeAKTN2,,,,,,,,,,,,,,,,,chosen stimuli: images/choice_trial_3.png,,,,,60c341ec2ed9da27095ffab4,16:43:15,27/03/2024
html-keyboard-response,167,345445,0.0-69.0-2.0,,,,delaylearn,learning,feedback_duration_window,oMwNjKB6SoQ3djruQ3s5VXeAKTN2,oMwNjKB6SoQ3djruQ3s5VXeAKTN2,,,,,,,,,,,,,,,,,,750.0,,,,60c341ec2ed9da27095ffab4,16:43:15,27/03/2024
html-keyboard-response,168,346951,0.0-69.0-3.0,,<div style='margin:auto;width: auto; font-size: 150%'><span style='font-weight: bold; font-size: 100px; color: red;'>0 points!</span><br><br></div>,,delaylearn,learning,feedback_image_window,oMwNjKB6SoQ3djruQ3s5VXeAKTN2,oMwNjKB6SoQ3djruQ3s5VXeAKTN2,,,,,,,,,,,,,,,,,,,,,,60c341ec2ed9da27095ffab4,16:43:15,27/03/2024
html-keyboard-response,169,347453,0.0-70.0-0.0,,,,,,mood_trial_fixation,oMwNjKB6SoQ3djruQ3s5VXeAKTN2,,,,,,,,,,,,,,,,,,,,,,,60c341ec2ed9da27095ffab4,16:43:15,27/03/2024
lmdlab-html-vas-response,170,352860,0.0-70.0-1.0,4399.0,How happy are you right now?,0.05555555555555555,delaylearn,learning,mood_trial,oMwNjKB6SoQ3djruQ3s5VXeAKTN2,oMwNjKB6SoQ3djruQ3s5VXeAKTN2,,,,,,,,,,,,,,,,,,,,"['Very unhappy', 'Very happy']",,60c341ec2ed9da27095ffab4,16:43:15,27/03/2024
html-keyboard-response,171,354807,0.0-71.0,,"<div style=""font-size:100px;"">+</div>",,delaylearn,learning,ITI,oMwNjKB6SoQ3djruQ3s5VXeAKTN2,oMwNjKB6SoQ3djruQ3s5VXeAKTN2,,,,,,,,,,,,,,,,,,,1942.0,,,60c341ec2ed9da27095ffab4,16:43:15,27/03/2024
html-keyboard-response,172,357814,0.0-72.0-0.0,,"<div style=""display: flex; flex-direction: column; align-items: center; margin-top: -40px;""><img src=""images/pattern_4.png"" style=""width: 234px; height: 230px; margin-top: -50px;""><div style=""display: flex; justify-content: space-between; margin-top: 33px;""><img src=""images/choice_trial_9.png"" style=""width: 408px; height: 417px; margin-right: 200px;""><img src=""images/choice_trial_15.png"" style=""width: 408px; height: 417px;""></div></div>",,delaylearn,learning,trial,oMwNjKB6SoQ3djruQ3s5VXeAKTN2,oMwNjKB6SoQ3djruQ3s5VXeAKTN2,3.0,images/choice_trial_9.png,images/choice_trial_15.png,images/pattern_4.png,j,j,7000.0,9.0,15.0,3.0,1.0,31.0,0.0,0.0,0.0,100.0,,,,,,60c341ec2ed9da27095ffab4,16:43:15,27/03/2024
html-keyboard-response,173,358834,0.0-72.0-1.0,,<div style='font-weight: bold; font-size: 75px; color: red;'>Missed Trial <br><br><br><br> Please respond faster</div>,,delaylearn,learning,display_response,oMwNjKB6SoQ3djruQ3s5VXeAKTN2,oMwNjKB6SoQ3djruQ3s5VXeAKTN2,,,,,,,,,,,,,,,,,Missed trial,,,,,60c341ec2ed9da27095ffab4,16:43:15,27/03/2024
html-keyboard-response,174,358840,0.0-72.0-2.0,,,,delaylearn,learning,feedback_duration_window,oMwNjKB6SoQ3djruQ3s5VXeAKTN2,oMwNjKB6SoQ3djruQ3s5VXeAKTN2,,,,,,,,,,,,,,,,,,0.0,,,,60c341ec2ed9da27095ffab4,16:43:15,27/03/2024
html-keyboard-response,175,358846,0.0-72.0-3.0,,,,delaylearn,learning,feedback_image_window,oMwNjKB6SoQ3djruQ3s5VXeAKTN2,oMwNjKB6SoQ3djruQ3s5VXeAKTN2,,,,,,,,,,,,,,,,,,,,,,60c341ec2ed9da27095ffab4,16:43:15,27/03/2024
html-keyboard-response,176,360878,0.0-73.0,,"<div style=""font-size:100px;"">+</div>",,delaylearn,learning,ITI,oMwNjKB6SoQ3djruQ3s5VXeAKTN2,oMwNjKB6SoQ3djruQ3s5VXeAKTN2,,,,,,,,,,,,,,,,,,,2017.0,,,60c341ec2ed9da27095ffab4,16:43:15,27/03/2024
html-keyboard-response,177,361335,0.0-74.0-0.0,452.39999997615814,"<div style=""display: flex; flex-direction: column; align-items: center; margin-top: -40px;""><img src=""images/pattern_3.png"" style=""width: 234px; height: 230px; margin-top: -50px;""><div style=""display: flex; justify-content: space-between; margin-top: 33px;""><img src=""images/choice_trial_10.png"" style=""width: 408px; height: 417px; margin-right: 200px;""><img src=""images/choice_trial_13.png"" style=""width: 408px; height: 417px;""></div></div>",f,delaylearn,learning,trial,oMwNjKB6SoQ3djruQ3s5VXeAKTN2,oMwNjKB6SoQ3djruQ3s5VXeAKTN2,3.0,images/choice_trial_10.png,images/choice_trial_13.png,images/pattern_3.png,j,j,7000.0,10.0,13.0,2.0,1.0,32.0,0.0,0.0,10.0,100.0,,,,,,60c341ec2ed9da27095ffab4,16:43:15,27/03/2024
html-keyboard-response,178,362352,0.0-74.0-1.0,,"<div style=""display: flex; flex-direction: column; align-items: center; margin-top: -40px;""><img src=""images/pattern_3.png"" style=""width: 234px; height: 230px; margin-top: -50px;""><div style=""display: flex; justify-content: space-between; margin-top: 33px;""><img src=""images/choice_trial_10.png"" style=""width: 408px; height: 417px; margin-right: 608px;""></div></div>",,delaylearn,learning,display_response,oMwNjKB6SoQ3djruQ3s5VXeAKTN2,oMwNjKB6SoQ3djruQ3s5VXeAKTN2,,,,,,,,,,,,,,,,,chosen stimuli: images/choice_trial_10.png,,,,,60c341ec2ed9da27095ffab4,16:43:15,27/03/2024
html-keyboard-response,179,369356,0.0-74.0-2.0,,,,delaylearn,learning,feedback_duration_window,oMwNjKB6SoQ3djruQ3s5VXeAKTN2,oMwNjKB6SoQ3djruQ3s5VXeAKTN2,,,,,,,,,,,,,,,,,,7000.0,,,,60c341ec2ed9da27095ffab4,16:43:15,27/03/2024
html-keyboard-response,180,370868,0.0-74.0-3.0,,<div style='margin:auto;width: auto; font-size: 150%'><span style='font-weight: bold; font-size: 100px; color: red;'>0 points!</span><br><br></div>,,delaylearn,learning,feedback_image_window,oMwNjKB6SoQ3djruQ3s5VXeAKTN2,oMwNjKB6SoQ3djruQ3s5VXeAKTN2,,,,,,,,,,,,,,,,,,,,,,60c341ec2ed9da27095ffab4,16:43:15,27/03/2024
html-keyboard-response,181,373106,0.0-75.0,,"<div style=""font-size:100px;"">+</div>",,delaylearn,learning,ITI,oMwNjKB6SoQ3djruQ3s5VXeAKTN2,oMwNjKB6SoQ3djruQ3s5VXeAKTN2,,,,,,,,,,,,,,,,,,,2217.0,,,60c341ec2ed9da27095ffab4,16:43:15,27/03/2024
html-keyboard-response,182,373657,0.0-76.0-0.0,547.0,"<div style=""display: flex; flex-direction: column; align-items: center; margin-top: -40px;""><img src=""images/pattern_5.png"" style=""width: 234px; height: 230px; margin-top: -50px;""><div style=""display: flex; justify-content: space-between; margin-top: 33px;""><img src=""images/choice_trial_11.png"" style=""width: 408px; height: 417px; margin-right: 200px;""><img src=""images/choice_trial_2.png"" style=""width: 408px; height: 417px;""></div></div>",j,delaylearn,learning,trial,oMwNjKB6SoQ3djruQ3s5VXeAKTN2,oMwNjKB6SoQ3djruQ3s5VXeAKTN2,3.0,images/choice_trial_11.png,images/choice_trial_2.png,images/pattern_5.png,j,f,750.0,11.0,2.0,4.0,0.0,33.0,0.0,1.0,2.0,110.0,,,,,,60c341ec2ed9da27095ffab4,16:43:15,27/03/2024
html-keyboard-response,183,374669,0.0-76.0-1.0,,"<div style=""display: flex; flex-direction: column; align-items: center; margin-top: -40px;""><img src=""images/pattern_5.png"" style=""width: 234px; height: 230px; margin-top: -50px;""><div style=""display: flex; justify-content: space-between; margin-top: 33px;""><img src=""images/choice_trial_2.png"" style=""width: 408px; height: 417px; margin-left:608px;""></div></div>",,delaylearn,learning,display_response,oMwNjKB6SoQ3djruQ3s5VXeAKTN2,oMwNjKB6SoQ3djruQ3s5VXeAKTN2,,,,,,,,,,,,,,,,,chosen stimuli: images/choice_trial_2.png,,,,,60c341ec2ed9da27095ffab4,16:43:15,27/03/2024
html-keyboard-response,184,375429,0.0-76.0-2.0,,,,delaylearn,learning,feedback_duration_window,oMwNjKB6SoQ3djruQ3s5VXeAKTN2,oMwNjKB6SoQ3djruQ3s5VXeAKTN2,,,,,,,,,,,,,,,,,,750.0,,,,60c341ec2ed9da27095ffab4,16:43:15,27/03/2024
html-keyboard-response,185,376946,0.0-76.0-3.0,,<div style='margin:auto;width: auto; font-size: 150%'><span style='font-weight: bold; font-size: 100px; color: green;'>+10 points!</span><br><br></div>,,delaylearn,learning,feedback_image_window,oMwNjKB6SoQ3djruQ3s5VXeAKTN2,oMwNjKB6SoQ3djruQ3s5VXeAKTN2,,,,,,,,,,,,,,,,,,,,,,60c341ec2ed9da27095ffab4,16:43:15,27/03/2024
html-keyboard-response,186,379167,0.0-77.0,,"<div style=""font-size:100px;"">+</div>",,delaylearn,learning,ITI,oMwNjKB6SoQ3djruQ3s5VXeAKTN2,oMwNjKB6SoQ3djruQ3s5VXeAKTN2,,,,,,,,,,,,,,,,,,,2213.0,,,60c341ec2ed9da27095ffab4,16:43:15,27/03/2024
html-keyboard-response,187,379902,0.0-78.0-0.0,732.5999999940395,"<div style=""display: flex; flex-direction: column; align-items: center; margin-top: -40px;""><img src=""images/pattern_1.png"" style=""width: 234px; height: 230px; margin-top: -50px;""><div style=""display: flex; justify-content: space-between; margin-top: 33px;""><img src=""images/choice_trial_14.png"" style=""width: 408px; height: 417px; margin-right: 200px;""><img src=""images/choice_trial_8.png"" style=""width: 408px; height: 417px;""></div></div>",f,delaylearn,learning,trial,oMwNjKB6SoQ3djruQ3s5VXeAKTN2,oMwNjKB6SoQ3djruQ3s5VXeAKTN2,3.0,images/choice_trial_14.png,images/choice_trial_8.png,images/pattern_1.png,f,f,7000.0,14.0,8.0,1.0,0.0,34.0,1.0,1.0,14.0,120.0,,,,,,60c341ec2ed9da27095ffab4,16:43:15,27/03/2024
html-keyboard-response,188,380924,0.0-78.0-1.0,,"<div style=""display: flex; flex-direction: column; align-items: center; margin-top: -40px;""><img src=""images/pattern_1.png"" style=""width: 234px; height: 230px; margin-top: -50px;""><div style=""display: flex; justify-content: space-between; margin-top: 33px;""><img src=""images/choice_trial_14.png"" style=""width: 408px; height: 417px; margin-right: 608px;""></div></div>",,delaylearn,learning,display_response,oMwNjKB6SoQ3djruQ3s5VXeAKTN2,oMwNjKB6SoQ3djruQ3s5VXeAKTN2,,,,,,,,,,,,,,,,,chosen stimuli: images/choice_trial_14.png,,,,,60c341ec2ed9da27095ffab4,16:43:15,27/03/2024
html-keyboard-response,189,387943,0.0-78.0-2.0,,,,delaylearn,learning,feedback_duration_window,oMwNjKB6SoQ3djruQ3s5VXeAKTN2,oMwNjKB6SoQ3djruQ3s5VXeAKTN2,,,,,,,,,,,,,,,,,,7000.0,,,,60c341ec2ed9da27095ffab4,16:43:15,27/03/2024
html-keyboard-response,190,389449,0.0-78.0-3.0,,<div style='margin:auto;width: auto; font-size: 150%'><span style='font-weight: bold; font-size: 100px; color: green;'>+10 points!</span><br><br></div>,,delaylearn,learning,feedback_image_window,oMwNjKB6SoQ3djruQ3s5VXeAKTN2,oMwNjKB6SoQ3djruQ3s5VXeAKTN2,,,,,,,,,,,,,,,,,,,,,,60c341ec2ed9da27095ffab4,16:43:15,27/03/2024
html-keyboard-response,191,389968,0.0-79.0-0.0,,,,,,mood_trial_fixation,oMwNjKB6SoQ3djruQ3s5VXeAKTN2,,,,,,,,,,,,,,,,,,,,,,,60c341ec2ed9da27095ffab4,16:43:15,27/03/2024
lmdlab-html-vas-response,192,397608,0.0-79.0-1.0,6627.0,How happy are you right now?,0.10648148148148148,delaylearn,learning,mood_trial,oMwNjKB6SoQ3djruQ3s5VXeAKTN2,oMwNjKB6SoQ3djruQ3s5VXeAKTN2,,,,,,,,,,,,,,,,,,,,"['Very unhappy', 'Very happy']",,60c341ec2ed9da27095ffab4,16:43:15,27/03/2024
html-keyboard-response,193,399615,0.0-80.0,,"<div style=""font-size:100px;"">+</div>",,delaylearn,learning,ITI,oMwNjKB6SoQ3djruQ3s5VXeAKTN2,oMwNjKB6SoQ3djruQ3s5VXeAKTN2,,,,,,,,,,,,,,,,,,,1994.0,,,60c341ec2ed9da27095ffab4,16:43:15,27/03/2024
html-keyboard-response,194,401211,0.0-81.0-0.0,1590.7999999821186,"<div style=""display: flex; flex-direction: column; align-items: center; margin-top: -40px;""><img src=""images/pattern_6.png"" style=""width: 234px; height: 230px; margin-top: -50px;""><div style=""display: flex; justify-content: space-between; margin-top: 33px;""><img src=""images/choice_trial_16.png"" style=""width: 408px; height: 417px; margin-right: 200px;""><img src=""images/choice_trial_3.png"" style=""width: 408px; height: 417px;""></div></div>",j,delaylearn,learning,trial,oMwNjKB6SoQ3djruQ3s5VXeAKTN2,oMwNjKB6SoQ3djruQ3s5VXeAKTN2,3.0,images/choice_trial_16.png,images/choice_trial_3.png,images/pattern_6.png,j,f,750.0,16.0,3.0,5.0,0.0,35.0,0.0,1.0,3.0,130.0,,,,,,60c341ec2ed9da27095ffab4,16:43:15,27/03/2024
html-keyboard-response,195,402229,0.0-81.0-1.0,,"<div style=""display: flex; flex-direction: column; align-items: center; margin-top: -40px;""><img src=""images/pattern_6.png"" style=""width: 234px; height: 230px; margin-top: -50px;""><div style=""display: flex; justify-content: space-between; margin-top: 33px;""><img src=""images/choice_trial_3.png"" style=""width: 408px; height: 417px; margin-left:608px;""></div></div>",,delaylearn,learning,display_response,oMwNjKB6SoQ3djruQ3s5VXeAKTN2,oMwNjKB6SoQ3djruQ3s5VXeAKTN2,,,,,,,,,,,,,,,,,chosen stimuli: images/choice_trial_3.png,,,,,60c341ec2ed9da27095ffab4,16:43:15,27/03/2024
html-keyboard-response,196,402992,0.0-81.0-2.0,,,,delaylearn,learning,feedback_duration_window,oMwNjKB6SoQ3djruQ3s5VXeAKTN2,oMwNjKB6SoQ3djruQ3s5VXeAKTN2,,,,,,,,,,,,,,,,,,750.0,,,,60c341ec2ed9da27095ffab4,16:43:15,27/03/2024
html-keyboard-response,197,404498,0.0-81.0-3.0,,<div style='margin:auto;width: auto; font-size: 150%'><span style='font-weight: bold; font-size: 100px; color: green;'>+10 points!</span><br><br></div>,,delaylearn,learning,feedback_image_window,oMwNjKB6SoQ3djruQ3s5VXeAKTN2,oMwNjKB6SoQ3djruQ3s5VXeAKTN2,,,,,,,,,,,,,,,,,,,,,,60c341ec2ed9da27095ffab4,16:43:15,27/03/2024
html-keyboard-response,198,406978,0.0-82.0,,"<div style=""font-size:100px;"">+</div>",,delaylearn,learning,ITI,oMwNjKB6SoQ3djruQ3s5VXeAKTN2,oMwNjKB6SoQ3djruQ3s5VXeAKTN2,,,,,,,,,,,,,,,,,,,2466.0,,,60c341ec2ed9da27095ffab4,16:43:15,27/03/2024
html-keyboard-response,199,409252,0.0-83.0-0.0,2269.399999976158,"<div style=""display: flex; flex-direction: column; align-items: center; margin-top: -40px;""><img src=""images/pattern_3.png"" style=""width: 234px; height: 230px; margin-top: -50px;""><div style=""display: flex; justify-content: space-between; margin-top: 33px;""><img src=""images/choice_trial_10.png"" style=""width: 408px; height: 417px; margin-right: 200px;""><img src=""images/choice_trial_13.png"" style=""width: 408px; height: 417px;""></div></div>",j,delaylearn,learning,trial,oMwNjKB6SoQ3djruQ3s5VXeAKTN2,oMwNjKB6SoQ3djruQ3s5VXeAKTN2,3.0,images/choice_trial_10.png,images/choice_trial_13.png,images/pattern_3.png,j,j,7000.0,10.0,13.0,2.0,1.0,36.0,1.0,1.0,13.0,140.0,,,,,,60c341ec2ed9da27095ffab4,16:43:15,27/03/2024
html-keyboard-response,200,410265,0.0-83.0-1.0,,"<div style=""display: flex; flex-direction: column; align-items: center; margin-top: -40px;""><img src=""images/pattern_3.png"" style=""width: 234px; height: 230px; margin-top: -50px;""><div style=""display: flex; justify-content: space-between; margin-top: 33px;""><img src=""images/choice_trial_13.png"" style=""width: 408px; height: 417px; margin-left:608px;""></div></div>",,delaylearn,learning,display_response,oMwNjKB6SoQ3djruQ3s5VXeAKTN2,oMwNjKB6SoQ3djruQ3s5VXeAKTN2,,,,,,,,,,,,,,,,,chosen stimuli: images/choice_trial_13.png,,,,,60c341ec2ed9da27095ffab4,16:43:15,27/03/2024
html-keyboard-response,201,417268,0.0-83.0-2.0,,,,delaylearn,learning,feedback_duration_window,oMwNjKB6SoQ3djruQ3s5VXeAKTN2,oMwNjKB6SoQ3djruQ3s5VXeAKTN2,,,,,,,,,,,,,,,,,,7000.0,,,,60c341ec2ed9da27095ffab4,16:43:15,27/03/2024
html-keyboard-response,202,418774,0.0-83.0-3.0,,<div style='margin:auto;width: auto; font-size: 150%'><span style='font-weight: bold; font-size: 100px; color: green;'>+10 points!</span><br><br></div>,,delaylearn,learning,feedback_image_window,oMwNjKB6SoQ3djruQ3s5VXeAKTN2,oMwNjKB6SoQ3djruQ3s5VXeAKTN2,,,,,,,,,,,,,,,,,,,,,,60c341ec2ed9da27095ffab4,16:43:15,27/03/2024
html-keyboard-response,203,420466,0.0-84.0,,"<div style=""font-size:100px;"">+</div>",,delaylearn,learning,ITI,oMwNjKB6SoQ3djruQ3s5VXeAKTN2,oMwNjKB6SoQ3djruQ3s5VXeAKTN2,,,,,,,,,,,,,,,,,,,1682.0,,,60c341ec2ed9da27095ffab4,16:43:15,27/03/2024
html-keyboard-response,204,422642,0.0-85.0-0.0,2172.0,"<div style=""display: flex; flex-direction: column; align-items: center; margin-top: -40px;""><img src=""images/pattern_4.png"" style=""width: 234px; height: 230px; margin-top: -50px;""><div style=""display: flex; justify-content: space-between; margin-top: 33px;""><img src=""images/choice_trial_9.png"" style=""width: 408px; height: 417px; margin-right: 200px;""><img src=""images/choice_trial_15.png"" style=""width: 408px; height: 417px;""></div></div>",j,delaylearn,learning,trial,oMwNjKB6SoQ3djruQ3s5VXeAKTN2,oMwNjKB6SoQ3djruQ3s5VXeAKTN2,3.0,images/choice_trial_9.png,images/choice_trial_15.png,images/pattern_4.png,f,j,7000.0,9.0,15.0,3.0,1.0,37.0,1.0,0.0,15.0,140.0,,,,,,60c341ec2ed9da27095ffab4,16:43:15,27/03/2024
html-keyboard-response,205,423657,0.0-85.0-1.0,,"<div style=""display: flex; flex-direction: column; align-items: center; margin-top: -40px;""><img src=""images/pattern_4.png"" style=""width: 234px; height: 230px; margin-top: -50px;""><div style=""display: flex; justify-content: space-between; margin-top: 33px;""><img src=""images/choice_trial_15.png"" style=""width: 408px; height: 417px; margin-left:608px;""></div></div>",,delaylearn,learning,display_response,oMwNjKB6SoQ3djruQ3s5VXeAKTN2,oMwNjKB6SoQ3djruQ3s5VXeAKTN2,,,,,,,,,,,,,,,,,chosen stimuli: images/choice_trial_15.png,,,,,60c341ec2ed9da27095ffab4,16:43:15,27/03/2024
html-keyboard-response,206,430661,0.0-85.0-2.0,,,,delaylearn,learning,feedback_duration_window,oMwNjKB6SoQ3djruQ3s5VXeAKTN2,oMwNjKB6SoQ3djruQ3s5VXeAKTN2,,,,,,,,,,,,,,,,,,7000.0,,,,60c341ec2ed9da27095ffab4,16:43:15,27/03/2024
html-keyboard-response,207,432185,0.0-85.0-3.0,,<div style='margin:auto;width: auto; font-size: 150%'><span style='font-weight: bold; font-size: 100px; color: red;'>0 points!</span><br><br></div>,,delaylearn,learning,feedback_image_window,oMwNjKB6SoQ3djruQ3s5VXeAKTN2,oMwNjKB6SoQ3djruQ3s5VXeAKTN2,,,,,,,,,,,,,,,,,,,,,,60c341ec2ed9da27095ffab4,16:43:15,27/03/2024
html-keyboard-response,208,434510,0.0-86.0,,"<div style=""font-size:100px;"">+</div>",,delaylearn,learning,ITI,oMwNjKB6SoQ3djruQ3s5VXeAKTN2,oMwNjKB6SoQ3djruQ3s5VXeAKTN2,,,,,,,,,,,,,,,,,,,2321.0,,,60c341ec2ed9da27095ffab4,16:43:15,27/03/2024
html-keyboard-response,209,436284,0.0-87.0-0.0,1770.0999999940395,"<div style=""display: flex; flex-direction: column; align-items: center; margin-top: -40px;""><img src=""images/pattern_7.png"" style=""width: 234px; height: 230px; margin-top: -50px;""><div style=""display: flex; justify-content: space-between; margin-top: 33px;""><img src=""images/choice_trial_6.png"" style=""width: 408px; height: 417px; margin-right: 200px;""><img src=""images/choice_trial_12.png"" style=""width: 408px; height: 417px;""></div></div>",f,delaylearn,learning,trial,oMwNjKB6SoQ3djruQ3s5VXeAKTN2,oMwNjKB6SoQ3djruQ3s5VXeAKTN2,3.0,images/choice_trial_6.png,images/choice_trial_12.png,images/pattern_7.png,f,f,750.0,6.0,12.0,6.0,0.0,38.0,1.0,1.0,6.0,150.0,,,,,,60c341ec2ed9da27095ffab4,16:43:15,27/03/2024
html-keyboard-response,210,437300,0.0-87.0-1.0,,"<div style=""display: flex; flex-direction: column; align-items: center; margin-top: -40px;""><img src=""images/pattern_7.png"" style=""width: 234px; height: 230px; margin-top: -50px;""><div style=""display: flex; justify-content: space-between; margin-top: 33px;""><img src=""images/choice_trial_6.png"" style=""width: 408px; height: 417px; margin-right: 608px;""></div></div>",,delaylearn,learning,display_response,oMwNjKB6SoQ3djruQ3s5VXeAKTN2,oMwNjKB6SoQ3djruQ3s5VXeAKTN2,,,,,,,,,,,,,,,,,chosen stimuli: images/choice_trial_6.png,,,,,60c341ec2ed9da27095ffab4,16:43:15,27/03/2024
html-keyboard-response,211,438067,0.0-87.0-2.0,,,,delaylearn,learning,feedback_duration_window,oMwNjKB6SoQ3djruQ3s5VXeAKTN2,oMwNjKB6SoQ3djruQ3s5VXeAKTN2,,,,,,,,,,,,,,,,,,750.0,,,,60c341ec2ed9da27095ffab4,16:43:15,27/03/2024
html-keyboard-response,212,439571,0.0-87.0-3.0,,<div style='margin:auto;width: auto; font-size: 150%'><span style='font-weight: bold; font-size: 100px; color: green;'>+10 points!</span><br><br></div>,,delaylearn,learning,feedback_image_window,oMwNjKB6SoQ3djruQ3s5VXeAKTN2,oMwNjKB6SoQ3djruQ3s5VXeAKTN2,,,,,,,,,,,,,,,,,,,,,,60c341ec2ed9da27095ffab4,16:43:15,27/03/2024
html-keyboard-response,213,441084,0.0-88.0,,"<div style=""font-size:100px;"">+</div>",,delaylearn,learning,ITI,oMwNjKB6SoQ3djruQ3s5VXeAKTN2,oMwNjKB6SoQ3djruQ3s5VXeAKTN2,,,,,,,,,,,,,,,,,,,1506.0,,,60c341ec2ed9da27095ffab4,16:43:15,27/03/2024
html-keyboard-response,214,441972,0.0-89.0-0.0,883.6999999880791,"<div style=""display: flex; flex-direction: column; align-items: center; margin-top: -40px;""><img src=""images/pattern_1.png"" style=""width: 234px; height: 230px; margin-top: -50px;""><div style=""display: flex; justify-content: space-between; margin-top: 33px;""><img src=""images/choice_trial_14.png"" style=""width: 408px; height: 417px; margin-right: 200px;""><img src=""images/choice_trial_8.png"" style=""width: 408px; height: 417px;""></div></div>",f,delaylearn,learning,trial,oMwNjKB6SoQ3djruQ3s5VXeAKTN2,oMwNjKB6SoQ3djruQ3s5VXeAKTN2,3.0,images/choice_trial_14.png,images/choice_trial_8.png,images/pattern_1.png,f,f,7000.0,14.0,8.0,1.0,0.0,39.0,1.0,1.0,14.0,160.0,,,,,,60c341ec2ed9da27095ffab4,16:43:15,27/03/2024
html-keyboard-response,215,442976,0.0-89.0-1.0,,"<div style=""display: flex; flex-direction: column; align-items: center; margin-top: -40px;""><img src=""images/pattern_1.png"" style=""width: 234px; height: 230px; margin-top: -50px;""><div style=""display: flex; justify-content: space-between; margin-top: 33px;""><img src=""images/choice_trial_14.png"" style=""width: 408px; height: 417px; margin-right: 608px;""></div></div>",,delaylearn,learning,display_response,oMwNjKB6SoQ3djruQ3s5VXeAKTN2,oMwNjKB6SoQ3djruQ3s5VXeAKTN2,,,,,,,,,,,,,,,,,chosen stimuli: images/choice_trial_14.png,,,,,60c341ec2ed9da27095ffab4,16:43:15,27/03/2024
html-keyboard-response,216,449991,0.0-89.0-2.0,,,,delaylearn,learning,feedback_duration_window,oMwNjKB6SoQ3djruQ3s5VXeAKTN2,oMwNjKB6SoQ3djruQ3s5VXeAKTN2,,,,,,,,,,,,,,,,,,7000.0,,,,60c341ec2ed9da27095ffab4,16:43:15,27/03/2024
html-keyboard-response,217,451502,0.0-89.0-3.0,,<div style='margin:auto;width: auto; font-size: 150%'><span style='font-weight: bold; font-size: 100px; color: green;'>+10 points!</span><br><br></div>,,delaylearn,learning,feedback_image_window,oMwNjKB6SoQ3djruQ3s5VXeAKTN2,oMwNjKB6SoQ3djruQ3s5VXeAKTN2,,,,,,,,,,,,,,,,,,,,,,60c341ec2ed9da27095ffab4,16:43:15,27/03/2024
html-keyboard-response,218,452016,0.0-90.0-0.0,,,,,,mood_trial_fixation,oMwNjKB6SoQ3djruQ3s5VXeAKTN2,,,,,,,,,,,,,,,,,,,,,,,60c341ec2ed9da27095ffab4,16:43:15,27/03/2024
lmdlab-html-vas-response,219,457451,0.0-90.0-1.0,4411.0,How happy are you right now?,0.07407407407407407,delaylearn,learning,mood_trial,oMwNjKB6SoQ3djruQ3s5VXeAKTN2,oMwNjKB6SoQ3djruQ3s5VXeAKTN2,,,,,,,,,,,,,,,,,,,,"['Very unhappy', 'Very happy']",,60c341ec2ed9da27095ffab4,16:43:15,27/03/2024
html-keyboard-response,220,459405,0.0-91.0,,"<div style=""font-size:100px;"">+</div>",,delaylearn,learning,ITI,oMwNjKB6SoQ3djruQ3s5VXeAKTN2,oMwNjKB6SoQ3djruQ3s5VXeAKTN2,,,,,,,,,,,,,,,,,,,1940.0,,,60c341ec2ed9da27095ffab4,16:43:15,27/03/2024
html-keyboard-response,221,461500,0.0-92.0-0.0,2091.699999988079,"<div style=""display: flex; flex-direction: column; align-items: center; margin-top: -40px;""><img src=""images/pattern_3.png"" style=""width: 234px; height: 230px; margin-top: -50px;""><div style=""display: flex; justify-content: space-between; margin-top: 33px;""><img src=""images/choice_trial_13.png"" style=""width: 408px; height: 417px; margin-right: 200px;""><img src=""images/choice_trial_10.png"" style=""width: 408px; height: 417px;""></div></div>",f,delaylearn,learning,trial,oMwNjKB6SoQ3djruQ3s5VXeAKTN2,oMwNjKB6SoQ3djruQ3s5VXeAKTN2,3.0,images/choice_trial_13.png,images/choice_trial_10.png,images/pattern_3.png,j,f,7000.0,13.0,10.0,2.0,0.0,40.0,1.0,0.0,13.0,160.0,,,,,,60c341ec2ed9da27095ffab4,16:43:15,27/03/2024
html-keyboard-response,222,462510,0.0-92.0-1.0,,"<div style=""display: flex; flex-direction: column; align-items: center; margin-top: -40px;""><img src=""images/pattern_3.png"" style=""width: 234px; height: 230px; margin-top: -50px;""><div style=""display: flex; justify-content: space-between; margin-top: 33px;""><img src=""images/choice_trial_13.png"" style=""width: 408px; height: 417px; margin-right: 608px;""></div></div>",,delaylearn,learning,display_response,oMwNjKB6SoQ3djruQ3s5VXeAKTN2,oMwNjKB6SoQ3djruQ3s5VXeAKTN2,,,,,,,,,,,,,,,,,chosen stimuli: images/choice_trial_13.png,,,,,60c341ec2ed9da27095ffab4,16:43:15,27/03/2024
html-keyboard-response,223,469530,0.0-92.0-2.0,,,,delaylearn,learning,feedback_duration_window,oMwNjKB6SoQ3djruQ3s5VXeAKTN2,oMwNjKB6SoQ3djruQ3s5VXeAKTN2,,,,,,,,,,,,,,,,,,7000.0,,,,60c341ec2ed9da27095ffab4,16:43:15,27/03/2024
html-keyboard-response,224,471047,0.0-92.0-3.0,,<div style='margin:auto;width: auto; font-size: 150%'><span style='font-weight: bold; font-size: 100px; color: red;'>0 points!</span><br><br></div>,,delaylearn,learning,feedback_image_window,oMwNjKB6SoQ3djruQ3s5VXeAKTN2,oMwNjKB6SoQ3djruQ3s5VXeAKTN2,,,,,,,,,,,,,,,,,,,,,,60c341ec2ed9da27095ffab4,16:43:15,27/03/2024
html-keyboard-response,225,472871,0.0-93.0,,"<div style=""font-size:100px;"">+</div>",,delaylearn,learning,ITI,oMwNjKB6SoQ3djruQ3s5VXeAKTN2,oMwNjKB6SoQ3djruQ3s5VXeAKTN2,,,,,,,,,,,,,,,,,,,1809.0,,,60c341ec2ed9da27095ffab4,16:43:15,27/03/2024
html-keyboard-response,226,473311,0.0-94.0-0.0,437.59999999403954,"<div style=""display: flex; flex-direction: column; align-items: center; margin-top: -40px;""><img src=""images/pattern_7.png"" style=""width: 234px; height: 230px; margin-top: -50px;""><div style=""display: flex; justify-content: space-between; margin-top: 33px;""><img src=""images/choice_trial_12.png"" style=""width: 408px; height: 417px; margin-right: 200px;""><img src=""images/choice_trial_6.png"" style=""width: 408px; height: 417px;""></div></div>",j,delaylearn,learning,trial,oMwNjKB6SoQ3djruQ3s5VXeAKTN2,oMwNjKB6SoQ3djruQ3s5VXeAKTN2,3.0,images/choice_trial_12.png,images/choice_trial_6.png,images/pattern_7.png,j,j,750.0,12.0,6.0,6.0,1.0,41.0,1.0,1.0,6.0,170.0,,,,,,60c341ec2ed9da27095ffab4,16:43:15,27/03/2024
html-keyboard-response,227,474327,0.0-94.0-1.0,,"<div style=""display: flex; flex-direction: column; align-items: center; margin-top: -40px;""><img src=""images/pattern_7.png"" style=""width: 234px; height: 230px; margin-top: -50px;""><div style=""display: flex; justify-content: space-between; margin-top: 33px;""><img src=""images/choice_trial_6.png"" style=""width: 408px; height: 417px; margin-left:608px;""></div></div>",,delaylearn,learning,display_response,oMwNjKB6SoQ3djruQ3s5VXeAKTN2,oMwNjKB6SoQ3djruQ3s5VXeAKTN2,,,,,,,,,,,,,,,,,chosen stimuli: images/choice_trial_6.png,,,,,60c341ec2ed9da27095ffab4,16:43:15,27/03/2024
html-keyboard-response,228,475094,0.0-94.0-2.0,,,,delaylearn,learning,feedback_duration_window,oMwNjKB6SoQ3djruQ3s5VXeAKTN2,oMwNjKB6SoQ3djruQ3s5VXeAKTN2,,,,,,,,,,,,,,,,,,750.0,,,,60c341ec2ed9da27095ffab4,16:43:15,27/03/2024
html-keyboard-response,229,476600,0.0-94.0-3.0,,<div style='margin:auto;width: auto; font-size: 150%'><span style='font-weight: bold; font-size: 100px; color: green;'>+10 points!</span><br><br></div>,,delaylearn,learning,feedback_image_window,oMwNjKB6SoQ3djruQ3s5VXeAKTN2,oMwNjKB6SoQ3djruQ3s5VXeAKTN2,,,,,,,,,,,,,,,,,,,,,,60c341ec2ed9da27095ffab4,16:43:15,27/03/2024
html-keyboard-response,230,478738,0.0-95.0,,"<div style=""font-size:100px;"">+</div>",,delaylearn,learning,ITI,oMwNjKB6SoQ3djruQ3s5VXeAKTN2,oMwNjKB6SoQ3djruQ3s5VXeAKTN2,,,,,,,,,,,,,,,,,,,2122.0,,,60c341ec2ed9da27095ffab4,16:43:15,27/03/2024
html-keyboard-response,231,481649,0.0-96.0-0.0,2906.4000000059605,"<div style=""display: flex; flex-direction: column; align-items: center; margin-top: -40px;""><img src=""images/pattern_5.png"" style=""width: 234px; height: 230px; margin-top: -50px;""><div style=""display: flex; justify-content: space-between; margin-top: 33px;""><img src=""images/choice_trial_2.png"" style=""width: 408px; height: 417px; margin-right: 200px;""><img src=""images/choice_trial_11.png"" style=""width: 408px; height: 417px;""></div></div>",f,delaylearn,learning,trial,oMwNjKB6SoQ3djruQ3s5VXeAKTN2,oMwNjKB6SoQ3djruQ3s5VXeAKTN2,3.0,images/choice_trial_2.png,images/choice_trial_11.png,images/pattern_5.png,j,j,750.0,2.0,11.0,4.0,1.0,42.0,0.0,0.0,2.0,170.0,,,,,,60c341ec2ed9da27095ffab4,16:43:15,27/03/2024
