trial_type,trial_index,time_elapsed,internal_node_id,rt,stimulus,response,exp_name,exp_stage,test_part,subjectID,databaseID,counterbal,choice_stimuli_1,choice_stimuli_2,pattern_stimuli,rewarded_answer,correct_answer,feedback_duration_times,stim_left,stim_right,pair,leftright_counter,trial,response_correct,response_rewarded,chosen_stim,counter,displayed_choice,feedback_durations,ITI_duration,labels,rest_warning,prolificID,start_time,date
pavlovia,0,3353,0.0-0.0,,,,,,,muJ8ZgPLXSW0ladHZrfyk6RX81j2,,,,,,,,,,,,,,,,,,,,,,,5e7c55274f63942a04b08c29,16:58:12,27/03/2024
html-keyboard-response,1,6381,0.0-1.0,,"<div style=""font-size:100px;"">+</div>",,delaylearn,learning,pre_fixation,muJ8ZgPLXSW0ladHZrfyk6RX81j2,not found,,,,,,,,,,,,,,,,,,,,,,5e7c55274f63942a04b08c29,16:58:12,27/03/2024
html-keyboard-response,2,9387,0.0-2.0-0.0,,"<div style=""display: flex; flex-direction: column; align-items: center; margin-top: -40px;""><img src=""images/demo_images/pattern_1.png"" style=""width: 234px; height: 230px; margin-top: -50px;""><div style=""display: flex; justify-content: space-between; margin-top: 33px;""><img src=""images/demo_images/choice_trial_2.png"" style=""width: 408px; height: 417px; margin-right: 200px;""><img src=""images/demo_images/choice_trial_1.png"" style=""width: 408px; height: 417px;""></div></div>",,delaylearn,learning,trial,muJ8ZgPLXSW0ladHZrfyk6RX81j2,muJ8ZgPLXSW0ladHZrfyk6RX81j2,3.0,images/demo_images/choice_trial_2.png,images/demo_images/choice_trial_1.png,images/demo_images/pattern_1.png,j,j,3000.0,2.0,1.0,20.0,1.0,1.0,0.0,0.0,0.0,0.0,,,,,,5e7c55274f63942a04b08c29,16:58:12,27/03/2024
html-keyboard-response,3,10403,0.0-2.0-1.0,,<div style='font-weight: bold; font-size: 75px; color: red;'>Missed Trial <br><br><br><br> Please respond faster</div>,,delaylearn,learning,display_response,muJ8ZgPLXSW0ladHZrfyk6RX81j2,muJ8ZgPLXSW0ladHZrfyk6RX81j2,,,,,,,,,,,,,,,,,Missed trial,,,,,5e7c55274f63942a04b08c29,16:58:12,27/03/2024
html-keyboard-response,4,10405,0.0-2.0-2.0,,,,delaylearn,learning,feedback_duration_window,muJ8ZgPLXSW0ladHZrfyk6RX81j2,muJ8ZgPLXSW0ladHZrfyk6RX81j2,,,,,,,,,,,,,,,,,,0.0,,,,5e7c55274f63942a04b08c29,16:58:12,27/03/2024
html-keyboard-response,5,10411,0.0-2.0-3.0,,,,delaylearn,learning,feedback_image_window,muJ8ZgPLXSW0ladHZrfyk6RX81j2,muJ8ZgPLXSW0ladHZrfyk6RX81j2,,,,,,,,,,,,,,,,,,,,,,5e7c55274f63942a04b08c29,16:58:12,27/03/2024
html-keyboard-response,6,12503,0.0-3.0,,"<div style=""font-size:100px;"">+</div>",,delaylearn,learning,ITI,muJ8ZgPLXSW0ladHZrfyk6RX81j2,muJ8ZgPLXSW0ladHZrfyk6RX81j2,,,,,,,,,,,,,,,,,,,2077.0,,,5e7c55274f63942a04b08c29,16:58:12,27/03/2024
html-keyboard-response,7,13024,0.0-4.0-0.0,519.5,"<div style=""display: flex; flex-direction: column; align-items: center; margin-top: -40px;""><img src=""images/demo_images/pattern_1.png"" style=""width: 234px; height: 230px; margin-top: -50px;""><div style=""display: flex; justify-content: space-between; margin-top: 33px;""><img src=""images/demo_images/choice_trial_2.png"" style=""width: 408px; height: 417px; margin-right: 200px;""><img src=""images/demo_images/choice_trial_1.png"" style=""width: 408px; height: 417px;""></div></div>",f,delaylearn,learning,trial,muJ8ZgPLXSW0ladHZrfyk6RX81j2,muJ8ZgPLXSW0ladHZrfyk6RX81j2,3.0,images/demo_images/choice_trial_2.png,images/demo_images/choice_trial_1.png,images/demo_images/pattern_1.png,j,j,3000.0,2.0,1.0,20.0,1.0,2.0,0.0,0.0,2.0,0.0,,,,,,5e7c55274f63942a04b08c29,16:58:12,27/03/2024
html-keyboard-response,8,14039,0.0-4.0-1.0,,"<div style=""display: flex; flex-direction: column; align-items: center; margin-top: -40px;""><img src=""images/demo_images/pattern_1.png"" style=""width: 234px; height: 230px; margin-top: -50px;""><div style=""display: flex; justify-content: space-between; margin-top: 33px;""><img src=""images/demo_images/choice_trial_2.png"" style=""width: 408px; height: 417px; margin-right: 608px;""></div></div>",,delaylearn,learning,display_response,muJ8ZgPLXSW0ladHZrfyk6RX81j2,muJ8ZgPLXSW0ladHZrfyk6RX81j2,,,,,,,,,,,,,,,,,chosen stimuli: images/demo_images/choice_trial_2.png,,,,,5e7c55274f63942a04b08c29,16:58:12,27/03/2024
html-keyboard-response,9,17056,0.0-4.0-2.0,,,,delaylearn,learning,feedback_duration_window,muJ8ZgPLXSW0ladHZrfyk6RX81j2,muJ8ZgPLXSW0ladHZrfyk6RX81j2,,,,,,,,,,,,,,,,,,3000.0,,,,5e7c55274f63942a04b08c29,16:58:12,27/03/2024
html-keyboard-response,10,18570,0.0-4.0-3.0,,<div style='margin:auto;width: auto; font-size: 150%'><span style='font-weight: bold; font-size: 100px; color: red;'>0 points!</span><br><br></div>,,delaylearn,learning,feedback_image_window,muJ8ZgPLXSW0ladHZrfyk6RX81j2,muJ8ZgPLXSW0ladHZrfyk6RX81j2,,,,,,,,,,,,,,,,,,,,,,5e7c55274f63942a04b08c29,16:58:12,27/03/2024
html-keyboard-response,11,20135,0.0-5.0,,"<div style=""font-size:100px;"">+</div>",,delaylearn,learning,ITI,muJ8ZgPLXSW0ladHZrfyk6RX81j2,muJ8ZgPLXSW0ladHZrfyk6RX81j2,,,,,,,,,,,,,,,,,,,1554.0,,,5e7c55274f63942a04b08c29,16:58:12,27/03/2024
html-keyboard-response,12,21659,0.0-6.0-0.0,1523.2000000476837,"<div style=""display: flex; flex-direction: column; align-items: center; margin-top: -40px;""><img src=""images/demo_images/pattern_1.png"" style=""width: 234px; height: 230px; margin-top: -50px;""><div style=""display: flex; justify-content: space-between; margin-top: 33px;""><img src=""images/demo_images/choice_trial_1.png"" style=""width: 408px; height: 417px; margin-right: 200px;""><img src=""images/demo_images/choice_trial_2.png"" style=""width: 408px; height: 417px;""></div></div>",f,delaylearn,learning,trial,muJ8ZgPLXSW0ladHZrfyk6RX81j2,muJ8ZgPLXSW0ladHZrfyk6RX81j2,3.0,images/demo_images/choice_trial_1.png,images/demo_images/choice_trial_2.png,images/demo_images/pattern_1.png,j,f,3000.0,1.0,2.0,20.0,0.0,3.0,1.0,0.0,1.0,0.0,,,,,,5e7c55274f63942a04b08c29,16:58:12,27/03/2024
html-keyboard-response,13,22672,0.0-6.0-1.0,,"<div style=""display: flex; flex-direction: column; align-items: center; margin-top: -40px;""><img src=""images/demo_images/pattern_1.png"" style=""width: 234px; height: 230px; margin-top: -50px;""><div style=""display: flex; justify-content: space-between; margin-top: 33px;""><img src=""images/demo_images/choice_trial_1.png"" style=""width: 408px; height: 417px; margin-right: 608px;""></div></div>",,delaylearn,learning,display_response,muJ8ZgPLXSW0ladHZrfyk6RX81j2,muJ8ZgPLXSW0ladHZrfyk6RX81j2,,,,,,,,,,,,,,,,,chosen stimuli: images/demo_images/choice_trial_1.png,,,,,5e7c55274f63942a04b08c29,16:58:12,27/03/2024
html-keyboard-response,14,25686,0.0-6.0-2.0,,,,delaylearn,learning,feedback_duration_window,muJ8ZgPLXSW0ladHZrfyk6RX81j2,muJ8ZgPLXSW0ladHZrfyk6RX81j2,,,,,,,,,,,,,,,,,,3000.0,,,,5e7c55274f63942a04b08c29,16:58:12,27/03/2024
html-keyboard-response,15,27203,0.0-6.0-3.0,,<div style='margin:auto;width: auto; font-size: 150%'><span style='font-weight: bold; font-size: 100px; color: red;'>0 points!</span><br><br></div>,,delaylearn,learning,feedback_image_window,muJ8ZgPLXSW0ladHZrfyk6RX81j2,muJ8ZgPLXSW0ladHZrfyk6RX81j2,,,,,,,,,,,,,,,,,,,,,,5e7c55274f63942a04b08c29,16:58:12,27/03/2024
html-keyboard-response,16,28838,0.0-7.0,,"<div style=""font-size:100px;"">+</div>",,delaylearn,learning,ITI,muJ8ZgPLXSW0ladHZrfyk6RX81j2,muJ8ZgPLXSW0ladHZrfyk6RX81j2,,,,,,,,,,,,,,,,,,,1627.0,,,5e7c55274f63942a04b08c29,16:58:12,27/03/2024
html-keyboard-response,17,29770,0.0-8.0-0.0,930.5,"<div style=""display: flex; flex-direction: column; align-items: center; margin-top: -40px;""><img src=""images/demo_images/pattern_1.png"" style=""width: 234px; height: 230px; margin-top: -50px;""><div style=""display: flex; justify-content: space-between; margin-top: 33px;""><img src=""images/demo_images/choice_trial_1.png"" style=""width: 408px; height: 417px; margin-right: 200px;""><img src=""images/demo_images/choice_trial_2.png"" style=""width: 408px; height: 417px;""></div></div>",j,delaylearn,learning,trial,muJ8ZgPLXSW0ladHZrfyk6RX81j2,muJ8ZgPLXSW0ladHZrfyk6RX81j2,3.0,images/demo_images/choice_trial_1.png,images/demo_images/choice_trial_2.png,images/demo_images/pattern_1.png,f,f,3000.0,1.0,2.0,20.0,0.0,4.0,0.0,0.0,2.0,0.0,,,,,,5e7c55274f63942a04b08c29,16:58:12,27/03/2024
html-keyboard-response,18,30789,0.0-8.0-1.0,,"<div style=""display: flex; flex-direction: column; align-items: center; margin-top: -40px;""><img src=""images/demo_images/pattern_1.png"" style=""width: 234px; height: 230px; margin-top: -50px;""><div style=""display: flex; justify-content: space-between; margin-top: 33px;""><img src=""images/demo_images/choice_trial_2.png"" style=""width: 408px; height: 417px; margin-left:608px;""></div></div>",,delaylearn,learning,display_response,muJ8ZgPLXSW0ladHZrfyk6RX81j2,muJ8ZgPLXSW0ladHZrfyk6RX81j2,,,,,,,,,,,,,,,,,chosen stimuli: images/demo_images/choice_trial_2.png,,,,,5e7c55274f63942a04b08c29,16:58:12,27/03/2024
html-keyboard-response,19,33802,0.0-8.0-2.0,,,,delaylearn,learning,feedback_duration_window,muJ8ZgPLXSW0ladHZrfyk6RX81j2,muJ8ZgPLXSW0ladHZrfyk6RX81j2,,,,,,,,,,,,,,,,,,3000.0,,,,5e7c55274f63942a04b08c29,16:58:12,27/03/2024
html-keyboard-response,20,35319,0.0-8.0-3.0,,<div style='margin:auto;width: auto; font-size: 150%'><span style='font-weight: bold; font-size: 100px; color: red;'>0 points!</span><br><br></div>,,delaylearn,learning,feedback_image_window,muJ8ZgPLXSW0ladHZrfyk6RX81j2,muJ8ZgPLXSW0ladHZrfyk6RX81j2,,,,,,,,,,,,,,,,,,,,,,5e7c55274f63942a04b08c29,16:58:12,27/03/2024
html-keyboard-response,21,35822,0.0-9.0-0.0,,,,,,mood_trial_fixation,muJ8ZgPLXSW0ladHZrfyk6RX81j2,,,,,,,,,,,,,,,,,,,,,,,5e7c55274f63942a04b08c29,16:58:12,27/03/2024
lmdlab-html-vas-response,22,42049,0.0-9.0-1.0,5208.0,How happy are you right now?,0.24732347194890755,delaylearn,learning,mood_trial,muJ8ZgPLXSW0ladHZrfyk6RX81j2,muJ8ZgPLXSW0ladHZrfyk6RX81j2,,,,,,,,,,,,,,,,,,,,"['Very unhappy', 'Very happy']",,5e7c55274f63942a04b08c29,16:58:12,27/03/2024
html-keyboard-response,23,44183,0.0-10.0,,"<div style=""font-size:100px;"">+</div>",,delaylearn,learning,ITI,muJ8ZgPLXSW0ladHZrfyk6RX81j2,muJ8ZgPLXSW0ladHZrfyk6RX81j2,,,,,,,,,,,,,,,,,,,2123.0,,,5e7c55274f63942a04b08c29,16:58:12,27/03/2024
html-keyboard-response,24,46076,0.0-11.0-0.0,1889.6999999284744,"<div style=""display: flex; flex-direction: column; align-items: center; margin-top: -40px;""><img src=""images/demo_images/pattern_1.png"" style=""width: 234px; height: 230px; margin-top: -50px;""><div style=""display: flex; justify-content: space-between; margin-top: 33px;""><img src=""images/demo_images/choice_trial_2.png"" style=""width: 408px; height: 417px; margin-right: 200px;""><img src=""images/demo_images/choice_trial_1.png"" style=""width: 408px; height: 417px;""></div></div>",f,delaylearn,learning,trial,muJ8ZgPLXSW0ladHZrfyk6RX81j2,muJ8ZgPLXSW0ladHZrfyk6RX81j2,3.0,images/demo_images/choice_trial_2.png,images/demo_images/choice_trial_1.png,images/demo_images/pattern_1.png,j,j,3000.0,2.0,1.0,20.0,1.0,5.0,0.0,0.0,2.0,0.0,,,,,,5e7c55274f63942a04b08c29,16:58:12,27/03/2024
html-keyboard-response,25,47087,0.0-11.0-1.0,,"<div style=""display: flex; flex-direction: column; align-items: center; margin-top: -40px;""><img src=""images/demo_images/pattern_1.png"" style=""width: 234px; height: 230px; margin-top: -50px;""><div style=""display: flex; justify-content: space-between; margin-top: 33px;""><img src=""images/demo_images/choice_trial_2.png"" style=""width: 408px; height: 417px; margin-right: 608px;""></div></div>",,delaylearn,learning,display_response,muJ8ZgPLXSW0ladHZrfyk6RX81j2,muJ8ZgPLXSW0ladHZrfyk6RX81j2,,,,,,,,,,,,,,,,,chosen stimuli: images/demo_images/choice_trial_2.png,,,,,5e7c55274f63942a04b08c29,16:58:12,27/03/2024
html-keyboard-response,26,50101,0.0-11.0-2.0,,,,delaylearn,learning,feedback_duration_window,muJ8ZgPLXSW0ladHZrfyk6RX81j2,muJ8ZgPLXSW0ladHZrfyk6RX81j2,,,,,,,,,,,,,,,,,,3000.0,,,,5e7c55274f63942a04b08c29,16:58:12,27/03/2024
html-keyboard-response,27,51622,0.0-11.0-3.0,,<div style='margin:auto;width: auto; font-size: 150%'><span style='font-weight: bold; font-size: 100px; color: red;'>0 points!</span><br><br></div>,,delaylearn,learning,feedback_image_window,muJ8ZgPLXSW0ladHZrfyk6RX81j2,muJ8ZgPLXSW0ladHZrfyk6RX81j2,,,,,,,,,,,,,,,,,,,,,,5e7c55274f63942a04b08c29,16:58:12,27/03/2024
html-keyboard-response,28,53671,0.0-12.0,,"<div style=""font-size:100px;"">+</div>",,delaylearn,learning,ITI,muJ8ZgPLXSW0ladHZrfyk6RX81j2,muJ8ZgPLXSW0ladHZrfyk6RX81j2,,,,,,,,,,,,,,,,,,,2042.0,,,5e7c55274f63942a04b08c29,16:58:12,27/03/2024
html-keyboard-response,29,54757,0.0-13.0-0.0,1083.6000000238419,"<div style=""display: flex; flex-direction: column; align-items: center; margin-top: -40px;""><img src=""images/demo_images/pattern_1.png"" style=""width: 234px; height: 230px; margin-top: -50px;""><div style=""display: flex; justify-content: space-between; margin-top: 33px;""><img src=""images/demo_images/choice_trial_1.png"" style=""width: 408px; height: 417px; margin-right: 200px;""><img src=""images/demo_images/choice_trial_2.png"" style=""width: 408px; height: 417px;""></div></div>",f,delaylearn,learning,trial,muJ8ZgPLXSW0ladHZrfyk6RX81j2,muJ8ZgPLXSW0ladHZrfyk6RX81j2,3.0,images/demo_images/choice_trial_1.png,images/demo_images/choice_trial_2.png,images/demo_images/pattern_1.png,f,f,3000.0,1.0,2.0,20.0,0.0,6.0,1.0,1.0,1.0,10.0,,,,,,5e7c55274f63942a04b08c29,16:58:12,27/03/2024
html-keyboard-response,30,55771,0.0-13.0-1.0,,"<div style=""display: flex; flex-direction: column; align-items: center; margin-top: -40px;""><img src=""images/demo_images/pattern_1.png"" style=""width: 234px; height: 230px; margin-top: -50px;""><div style=""display: flex; justify-content: space-between; margin-top: 33px;""><img src=""images/demo_images/choice_trial_1.png"" style=""width: 408px; height: 417px; margin-right: 608px;""></div></div>",,delaylearn,learning,display_response,muJ8ZgPLXSW0ladHZrfyk6RX81j2,muJ8ZgPLXSW0ladHZrfyk6RX81j2,,,,,,,,,,,,,,,,,chosen stimuli: images/demo_images/choice_trial_1.png,,,,,5e7c55274f63942a04b08c29,16:58:12,27/03/2024
html-keyboard-response,31,58786,0.0-13.0-2.0,,,,delaylearn,learning,feedback_duration_window,muJ8ZgPLXSW0ladHZrfyk6RX81j2,muJ8ZgPLXSW0ladHZrfyk6RX81j2,,,,,,,,,,,,,,,,,,3000.0,,,,5e7c55274f63942a04b08c29,16:58:12,27/03/2024
html-keyboard-response,32,60302,0.0-13.0-3.0,,<div style='margin:auto;width: auto; font-size: 150%'><span style='font-weight: bold; font-size: 100px; color: green;'>+10 points!</span><br><br></div>,,delaylearn,learning,feedback_image_window,muJ8ZgPLXSW0ladHZrfyk6RX81j2,muJ8ZgPLXSW0ladHZrfyk6RX81j2,,,,,,,,,,,,,,,,,,,,,,5e7c55274f63942a04b08c29,16:58:12,27/03/2024
html-keyboard-response,33,62137,0.0-14.0,,"<div style=""font-size:100px;"">+</div>",,delaylearn,learning,ITI,muJ8ZgPLXSW0ladHZrfyk6RX81j2,muJ8ZgPLXSW0ladHZrfyk6RX81j2,,,,,,,,,,,,,,,,,,,1822.0,,,5e7c55274f63942a04b08c29,16:58:12,27/03/2024
html-keyboard-response,34,62952,0.0-15.0-0.0,812.8999999761581,"<div style=""display: flex; flex-direction: column; align-items: center; margin-top: -40px;""><img src=""images/demo_images/pattern_1.png"" style=""width: 234px; height: 230px; margin-top: -50px;""><div style=""display: flex; justify-content: space-between; margin-top: 33px;""><img src=""images/demo_images/choice_trial_2.png"" style=""width: 408px; height: 417px; margin-right: 200px;""><img src=""images/demo_images/choice_trial_1.png"" style=""width: 408px; height: 417px;""></div></div>",j,delaylearn,learning,trial,muJ8ZgPLXSW0ladHZrfyk6RX81j2,muJ8ZgPLXSW0ladHZrfyk6RX81j2,3.0,images/demo_images/choice_trial_2.png,images/demo_images/choice_trial_1.png,images/demo_images/pattern_1.png,j,j,3000.0,2.0,1.0,20.0,1.0,7.0,1.0,1.0,1.0,20.0,,,,,,5e7c55274f63942a04b08c29,16:58:12,27/03/2024
html-keyboard-response,35,63969,0.0-15.0-1.0,,"<div style=""display: flex; flex-direction: column; align-items: center; margin-top: -40px;""><img src=""images/demo_images/pattern_1.png"" style=""width: 234px; height: 230px; margin-top: -50px;""><div style=""display: flex; justify-content: space-between; margin-top: 33px;""><img src=""images/demo_images/choice_trial_1.png"" style=""width: 408px; height: 417px; margin-left:608px;""></div></div>",,delaylearn,learning,display_response,muJ8ZgPLXSW0ladHZrfyk6RX81j2,muJ8ZgPLXSW0ladHZrfyk6RX81j2,,,,,,,,,,,,,,,,,chosen stimuli: images/demo_images/choice_trial_1.png,,,,,5e7c55274f63942a04b08c29,16:58:12,27/03/2024
html-keyboard-response,36,66971,0.0-15.0-2.0,,,,delaylearn,learning,feedback_duration_window,muJ8ZgPLXSW0ladHZrfyk6RX81j2,muJ8ZgPLXSW0ladHZrfyk6RX81j2,,,,,,,,,,,,,,,,,,3000.0,,,,5e7c55274f63942a04b08c29,16:58:12,27/03/2024
html-keyboard-response,37,68487,0.0-15.0-3.0,,<div style='margin:auto;width: auto; font-size: 150%'><span style='font-weight: bold; font-size: 100px; color: green;'>+10 points!</span><br><br></div>,,delaylearn,learning,feedback_image_window,muJ8ZgPLXSW0ladHZrfyk6RX81j2,muJ8ZgPLXSW0ladHZrfyk6RX81j2,,,,,,,,,,,,,,,,,,,,,,5e7c55274f63942a04b08c29,16:58:12,27/03/2024
html-keyboard-response,38,70989,0.0-16.0,,"<div style=""font-size:100px;"">+</div>",,delaylearn,learning,ITI,muJ8ZgPLXSW0ladHZrfyk6RX81j2,muJ8ZgPLXSW0ladHZrfyk6RX81j2,,,,,,,,,,,,,,,,,,,2483.0,,,5e7c55274f63942a04b08c29,16:58:12,27/03/2024
html-keyboard-response,39,71643,0.0-17.0-0.0,652.0,"<div style=""display: flex; flex-direction: column; align-items: center; margin-top: -40px;""><img src=""images/demo_images/pattern_1.png"" style=""width: 234px; height: 230px; margin-top: -50px;""><div style=""display: flex; justify-content: space-between; margin-top: 33px;""><img src=""images/demo_images/choice_trial_1.png"" style=""width: 408px; height: 417px; margin-right: 200px;""><img src=""images/demo_images/choice_trial_2.png"" style=""width: 408px; height: 417px;""></div></div>",f,delaylearn,learning,trial,muJ8ZgPLXSW0ladHZrfyk6RX81j2,muJ8ZgPLXSW0ladHZrfyk6RX81j2,3.0,images/demo_images/choice_trial_1.png,images/demo_images/choice_trial_2.png,images/demo_images/pattern_1.png,f,f,3000.0,1.0,2.0,20.0,0.0,8.0,1.0,1.0,1.0,30.0,,,,,,5e7c55274f63942a04b08c29,16:58:12,27/03/2024
html-keyboard-response,40,72653,0.0-17.0-1.0,,"<div style=""display: flex; flex-direction: column; align-items: center; margin-top: -40px;""><img src=""images/demo_images/pattern_1.png"" style=""width: 234px; height: 230px; margin-top: -50px;""><div style=""display: flex; justify-content: space-between; margin-top: 33px;""><img src=""images/demo_images/choice_trial_1.png"" style=""width: 408px; height: 417px; margin-right: 608px;""></div></div>",,delaylearn,learning,display_response,muJ8ZgPLXSW0ladHZrfyk6RX81j2,muJ8ZgPLXSW0ladHZrfyk6RX81j2,,,,,,,,,,,,,,,,,chosen stimuli: images/demo_images/choice_trial_1.png,,,,,5e7c55274f63942a04b08c29,16:58:12,27/03/2024
html-keyboard-response,41,75668,0.0-17.0-2.0,,,,delaylearn,learning,feedback_duration_window,muJ8ZgPLXSW0ladHZrfyk6RX81j2,muJ8ZgPLXSW0ladHZrfyk6RX81j2,,,,,,,,,,,,,,,,,,3000.0,,,,5e7c55274f63942a04b08c29,16:58:12,27/03/2024
html-keyboard-response,42,77189,0.0-17.0-3.0,,<div style='margin:auto;width: auto; font-size: 150%'><span style='font-weight: bold; font-size: 100px; color: green;'>+10 points!</span><br><br></div>,,delaylearn,learning,feedback_image_window,muJ8ZgPLXSW0ladHZrfyk6RX81j2,muJ8ZgPLXSW0ladHZrfyk6RX81j2,,,,,,,,,,,,,,,,,,,,,,5e7c55274f63942a04b08c29,16:58:12,27/03/2024
html-button-response,43,80604,0.0-18.0,3413.2000000476837,"
  <div style=""display: flex; align-items: center; justify-content: center; height: 80vh;"">
  <div>
          <img src=""images/inst_demo_finish.png"" style=""width: 80vw; height:auto;"">
          <br><br>
      </div>
      <br><br>
  </div>",0,,,,muJ8ZgPLXSW0ladHZrfyk6RX81j2,,,,,,,,,,,,,,,,,,,,,,,5e7c55274f63942a04b08c29,16:58:12,27/03/2024
html-keyboard-response,44,92405,0.0-19.0,11800.300000071526,"
  <div style=""display: flex; align-items: center; justify-content: center; height: 80vh;"">
  <div>
          <img src=""images/inst_6.png"" style=""width: 80vw; height:auto;"">
          <br><br>
      </div>
      <br><br>
  </div>",j,,,,muJ8ZgPLXSW0ladHZrfyk6RX81j2,,,,,,,,,,,,,,,,,,,,,,,5e7c55274f63942a04b08c29,16:58:12,27/03/2024
html-keyboard-response,45,95419,0.0-20.0,,"<div style=""font-size:100px;"">+</div>",,delaylearn,learning,pre_fixation,muJ8ZgPLXSW0ladHZrfyk6RX81j2,not found,,,,,,,,,,,,,,,,,,,,,,5e7c55274f63942a04b08c29,16:58:12,27/03/2024
html-keyboard-response,46,97422,0.0-21.0,,"<div style=""font-size:100px;"">+</div>",,delaylearn,learning,ITI,muJ8ZgPLXSW0ladHZrfyk6RX81j2,muJ8ZgPLXSW0ladHZrfyk6RX81j2,,,,,,,,,,,,,,,,,,,1998.0,,,5e7c55274f63942a04b08c29,16:58:12,27/03/2024
html-keyboard-response,47,98553,0.0-22.0-0.0,1128.8999999761581,"<div style=""display: flex; flex-direction: column; align-items: center; margin-top: -40px;""><img src=""images/pattern_3.png"" style=""width: 234px; height: 230px; margin-top: -50px;""><div style=""display: flex; justify-content: space-between; margin-top: 33px;""><img src=""images/choice_trial_13.png"" style=""width: 408px; height: 417px; margin-right: 200px;""><img src=""images/choice_trial_10.png"" style=""width: 408px; height: 417px;""></div></div>",f,delaylearn,learning,trial,muJ8ZgPLXSW0ladHZrfyk6RX81j2,muJ8ZgPLXSW0ladHZrfyk6RX81j2,3.0,images/choice_trial_13.png,images/choice_trial_10.png,images/pattern_3.png,f,f,7000.0,13.0,10.0,2.0,0.0,9.0,1.0,1.0,13.0,40.0,,,,,,5e7c55274f63942a04b08c29,16:58:12,27/03/2024
html-keyboard-response,48,99570,0.0-22.0-1.0,,"<div style=""display: flex; flex-direction: column; align-items: center; margin-top: -40px;""><img src=""images/pattern_3.png"" style=""width: 234px; height: 230px; margin-top: -50px;""><div style=""display: flex; justify-content: space-between; margin-top: 33px;""><img src=""images/choice_trial_13.png"" style=""width: 408px; height: 417px; margin-right: 608px;""></div></div>",,delaylearn,learning,display_response,muJ8ZgPLXSW0ladHZrfyk6RX81j2,muJ8ZgPLXSW0ladHZrfyk6RX81j2,,,,,,,,,,,,,,,,,chosen stimuli: images/choice_trial_13.png,,,,,5e7c55274f63942a04b08c29,16:58:12,27/03/2024
html-keyboard-response,49,106586,0.0-22.0-2.0,,,,delaylearn,learning,feedback_duration_window,muJ8ZgPLXSW0ladHZrfyk6RX81j2,muJ8ZgPLXSW0ladHZrfyk6RX81j2,,,,,,,,,,,,,,,,,,7000.0,,,,5e7c55274f63942a04b08c29,16:58:12,27/03/2024
html-keyboard-response,50,108101,0.0-22.0-3.0,,<div style='margin:auto;width: auto; font-size: 150%'><span style='font-weight: bold; font-size: 100px; color: green;'>+10 points!</span><br><br></div>,,delaylearn,learning,feedback_image_window,muJ8ZgPLXSW0ladHZrfyk6RX81j2,muJ8ZgPLXSW0ladHZrfyk6RX81j2,,,,,,,,,,,,,,,,,,,,,,5e7c55274f63942a04b08c29,16:58:12,27/03/2024
html-keyboard-response,51,109936,0.0-23.0,,"<div style=""font-size:100px;"">+</div>",,delaylearn,learning,ITI,muJ8ZgPLXSW0ladHZrfyk6RX81j2,muJ8ZgPLXSW0ladHZrfyk6RX81j2,,,,,,,,,,,,,,,,,,,1821.0,,,5e7c55274f63942a04b08c29,16:58:12,27/03/2024
html-keyboard-response,52,111311,0.0-24.0-0.0,1372.7999999523163,"<div style=""display: flex; flex-direction: column; align-items: center; margin-top: -40px;""><img src=""images/pattern_7.png"" style=""width: 234px; height: 230px; margin-top: -50px;""><div style=""display: flex; justify-content: space-between; margin-top: 33px;""><img src=""images/choice_trial_12.png"" style=""width: 408px; height: 417px; margin-right: 200px;""><img src=""images/choice_trial_6.png"" style=""width: 408px; height: 417px;""></div></div>",j,delaylearn,learning,trial,muJ8ZgPLXSW0ladHZrfyk6RX81j2,muJ8ZgPLXSW0ladHZrfyk6RX81j2,3.0,images/choice_trial_12.png,images/choice_trial_6.png,images/pattern_7.png,j,j,750.0,12.0,6.0,6.0,1.0,10.0,1.0,1.0,6.0,50.0,,,,,,5e7c55274f63942a04b08c29,16:58:12,27/03/2024
html-keyboard-response,53,112322,0.0-24.0-1.0,,"<div style=""display: flex; flex-direction: column; align-items: center; margin-top: -40px;""><img src=""images/pattern_7.png"" style=""width: 234px; height: 230px; margin-top: -50px;""><div style=""display: flex; justify-content: space-between; margin-top: 33px;""><img src=""images/choice_trial_6.png"" style=""width: 408px; height: 417px; margin-left:608px;""></div></div>",,delaylearn,learning,display_response,muJ8ZgPLXSW0ladHZrfyk6RX81j2,muJ8ZgPLXSW0ladHZrfyk6RX81j2,,,,,,,,,,,,,,,,,chosen stimuli: images/choice_trial_6.png,,,,,5e7c55274f63942a04b08c29,16:58:12,27/03/2024
html-keyboard-response,54,113089,0.0-24.0-2.0,,,,delaylearn,learning,feedback_duration_window,muJ8ZgPLXSW0ladHZrfyk6RX81j2,muJ8ZgPLXSW0ladHZrfyk6RX81j2,,,,,,,,,,,,,,,,,,750.0,,,,5e7c55274f63942a04b08c29,16:58:12,27/03/2024
html-keyboard-response,55,114603,0.0-24.0-3.0,,<div style='margin:auto;width: auto; font-size: 150%'><span style='font-weight: bold; font-size: 100px; color: green;'>+10 points!</span><br><br></div>,,delaylearn,learning,feedback_image_window,muJ8ZgPLXSW0ladHZrfyk6RX81j2,muJ8ZgPLXSW0ladHZrfyk6RX81j2,,,,,,,,,,,,,,,,,,,,,,5e7c55274f63942a04b08c29,16:58:12,27/03/2024
html-keyboard-response,56,116654,0.0-25.0,,"<div style=""font-size:100px;"">+</div>",,delaylearn,learning,ITI,muJ8ZgPLXSW0ladHZrfyk6RX81j2,muJ8ZgPLXSW0ladHZrfyk6RX81j2,,,,,,,,,,,,,,,,,,,2039.0,,,5e7c55274f63942a04b08c29,16:58:12,27/03/2024
html-keyboard-response,57,118440,0.0-26.0-0.0,1783.2999999523163,"<div style=""display: flex; flex-direction: column; align-items: center; margin-top: -40px;""><img src=""images/pattern_4.png"" style=""width: 234px; height: 230px; margin-top: -50px;""><div style=""display: flex; justify-content: space-between; margin-top: 33px;""><img src=""images/choice_trial_15.png"" style=""width: 408px; height: 417px; margin-right: 200px;""><img src=""images/choice_trial_9.png"" style=""width: 408px; height: 417px;""></div></div>",j,delaylearn,learning,trial,muJ8ZgPLXSW0ladHZrfyk6RX81j2,muJ8ZgPLXSW0ladHZrfyk6RX81j2,3.0,images/choice_trial_15.png,images/choice_trial_9.png,images/pattern_4.png,f,f,7000.0,15.0,9.0,3.0,0.0,11.0,0.0,0.0,9.0,50.0,,,,,,5e7c55274f63942a04b08c29,16:58:12,27/03/2024
html-keyboard-response,58,119454,0.0-26.0-1.0,,"<div style=""display: flex; flex-direction: column; align-items: center; margin-top: -40px;""><img src=""images/pattern_4.png"" style=""width: 234px; height: 230px; margin-top: -50px;""><div style=""display: flex; justify-content: space-between; margin-top: 33px;""><img src=""images/choice_trial_9.png"" style=""width: 408px; height: 417px; margin-left:608px;""></div></div>",,delaylearn,learning,display_response,muJ8ZgPLXSW0ladHZrfyk6RX81j2,muJ8ZgPLXSW0ladHZrfyk6RX81j2,,,,,,,,,,,,,,,,,chosen stimuli: images/choice_trial_9.png,,,,,5e7c55274f63942a04b08c29,16:58:12,27/03/2024
html-keyboard-response,59,126470,0.0-26.0-2.0,,,,delaylearn,learning,feedback_duration_window,muJ8ZgPLXSW0ladHZrfyk6RX81j2,muJ8ZgPLXSW0ladHZrfyk6RX81j2,,,,,,,,,,,,,,,,,,7000.0,,,,5e7c55274f63942a04b08c29,16:58:12,27/03/2024
html-keyboard-response,60,127985,0.0-26.0-3.0,,<div style='margin:auto;width: auto; font-size: 150%'><span style='font-weight: bold; font-size: 100px; color: red;'>0 points!</span><br><br></div>,,delaylearn,learning,feedback_image_window,muJ8ZgPLXSW0ladHZrfyk6RX81j2,muJ8ZgPLXSW0ladHZrfyk6RX81j2,,,,,,,,,,,,,,,,,,,,,,5e7c55274f63942a04b08c29,16:58:12,27/03/2024
html-keyboard-response,61,130021,0.0-27.0,,"<div style=""font-size:100px;"">+</div>",,delaylearn,learning,ITI,muJ8ZgPLXSW0ladHZrfyk6RX81j2,muJ8ZgPLXSW0ladHZrfyk6RX81j2,,,,,,,,,,,,,,,,,,,2021.0,,,5e7c55274f63942a04b08c29,16:58:12,27/03/2024
html-keyboard-response,62,131480,0.0-28.0-0.0,1456.1000000238419,"<div style=""display: flex; flex-direction: column; align-items: center; margin-top: -40px;""><img src=""images/pattern_5.png"" style=""width: 234px; height: 230px; margin-top: -50px;""><div style=""display: flex; justify-content: space-between; margin-top: 33px;""><img src=""images/choice_trial_2.png"" style=""width: 408px; height: 417px; margin-right: 200px;""><img src=""images/choice_trial_11.png"" style=""width: 408px; height: 417px;""></div></div>",f,delaylearn,learning,trial,muJ8ZgPLXSW0ladHZrfyk6RX81j2,muJ8ZgPLXSW0ladHZrfyk6RX81j2,3.0,images/choice_trial_2.png,images/choice_trial_11.png,images/pattern_5.png,j,j,750.0,2.0,11.0,4.0,1.0,12.0,0.0,0.0,2.0,50.0,,,,,,5e7c55274f63942a04b08c29,16:58:12,27/03/2024
html-keyboard-response,63,132486,0.0-28.0-1.0,,"<div style=""display: flex; flex-direction: column; align-items: center; margin-top: -40px;""><img src=""images/pattern_5.png"" style=""width: 234px; height: 230px; margin-top: -50px;""><div style=""display: flex; justify-content: space-between; margin-top: 33px;""><img src=""images/choice_trial_2.png"" style=""width: 408px; height: 417px; margin-right: 608px;""></div></div>",,delaylearn,learning,display_response,muJ8ZgPLXSW0ladHZrfyk6RX81j2,muJ8ZgPLXSW0ladHZrfyk6RX81j2,,,,,,,,,,,,,,,,,chosen stimuli: images/choice_trial_2.png,,,,,5e7c55274f63942a04b08c29,16:58:12,27/03/2024
html-keyboard-response,64,133254,0.0-28.0-2.0,,,,delaylearn,learning,feedback_duration_window,muJ8ZgPLXSW0ladHZrfyk6RX81j2,muJ8ZgPLXSW0ladHZrfyk6RX81j2,,,,,,,,,,,,,,,,,,750.0,,,,5e7c55274f63942a04b08c29,16:58:12,27/03/2024
html-keyboard-response,65,134766,0.0-28.0-3.0,,<div style='margin:auto;width: auto; font-size: 150%'><span style='font-weight: bold; font-size: 100px; color: red;'>0 points!</span><br><br></div>,,delaylearn,learning,feedback_image_window,muJ8ZgPLXSW0ladHZrfyk6RX81j2,muJ8ZgPLXSW0ladHZrfyk6RX81j2,,,,,,,,,,,,,,,,,,,,,,5e7c55274f63942a04b08c29,16:58:12,27/03/2024
html-keyboard-response,66,136570,0.0-29.0,,"<div style=""font-size:100px;"">+</div>",,delaylearn,learning,ITI,muJ8ZgPLXSW0ladHZrfyk6RX81j2,muJ8ZgPLXSW0ladHZrfyk6RX81j2,,,,,,,,,,,,,,,,,,,1802.0,,,5e7c55274f63942a04b08c29,16:58:12,27/03/2024
html-keyboard-response,67,137813,0.0-30.0-0.0,1240.2000000476837,"<div style=""display: flex; flex-direction: column; align-items: center; margin-top: -40px;""><img src=""images/pattern_6.png"" style=""width: 234px; height: 230px; margin-top: -50px;""><div style=""display: flex; justify-content: space-between; margin-top: 33px;""><img src=""images/choice_trial_16.png"" style=""width: 408px; height: 417px; margin-right: 200px;""><img src=""images/choice_trial_3.png"" style=""width: 408px; height: 417px;""></div></div>",j,delaylearn,learning,trial,muJ8ZgPLXSW0ladHZrfyk6RX81j2,muJ8ZgPLXSW0ladHZrfyk6RX81j2,3.0,images/choice_trial_16.png,images/choice_trial_3.png,images/pattern_6.png,j,f,750.0,16.0,3.0,5.0,0.0,13.0,0.0,1.0,3.0,60.0,,,,,,5e7c55274f63942a04b08c29,16:58:12,27/03/2024
html-keyboard-response,68,138820,0.0-30.0-1.0,,"<div style=""display: flex; flex-direction: column; align-items: center; margin-top: -40px;""><img src=""images/pattern_6.png"" style=""width: 234px; height: 230px; margin-top: -50px;""><div style=""display: flex; justify-content: space-between; margin-top: 33px;""><img src=""images/choice_trial_3.png"" style=""width: 408px; height: 417px; margin-left:608px;""></div></div>",,delaylearn,learning,display_response,muJ8ZgPLXSW0ladHZrfyk6RX81j2,muJ8ZgPLXSW0ladHZrfyk6RX81j2,,,,,,,,,,,,,,,,,chosen stimuli: images/choice_trial_3.png,,,,,5e7c55274f63942a04b08c29,16:58:12,27/03/2024
html-keyboard-response,69,139588,0.0-30.0-2.0,,,,delaylearn,learning,feedback_duration_window,muJ8ZgPLXSW0ladHZrfyk6RX81j2,muJ8ZgPLXSW0ladHZrfyk6RX81j2,,,,,,,,,,,,,,,,,,750.0,,,,5e7c55274f63942a04b08c29,16:58:12,27/03/2024
html-keyboard-response,70,141101,0.0-30.0-3.0,,<div style='margin:auto;width: auto; font-size: 150%'><span style='font-weight: bold; font-size: 100px; color: green;'>+10 points!</span><br><br></div>,,delaylearn,learning,feedback_image_window,muJ8ZgPLXSW0ladHZrfyk6RX81j2,muJ8ZgPLXSW0ladHZrfyk6RX81j2,,,,,,,,,,,,,,,,,,,,,,5e7c55274f63942a04b08c29,16:58:12,27/03/2024
html-keyboard-response,71,141603,0.0-31.0-0.0,,,,,,mood_trial_fixation,muJ8ZgPLXSW0ladHZrfyk6RX81j2,,,,,,,,,,,,,,,,,,,,,,,5e7c55274f63942a04b08c29,16:58:12,27/03/2024
lmdlab-html-vas-response,72,147800,0.0-31.0-1.0,5177.0,How happy are you right now?,0.4845919792932591,delaylearn,learning,mood_trial,muJ8ZgPLXSW0ladHZrfyk6RX81j2,muJ8ZgPLXSW0ladHZrfyk6RX81j2,,,,,,,,,,,,,,,,,,,,"['Very unhappy', 'Very happy']",,5e7c55274f63942a04b08c29,16:58:12,27/03/2024
html-keyboard-response,73,149434,0.0-32.0,,"<div style=""font-size:100px;"">+</div>",,delaylearn,learning,ITI,muJ8ZgPLXSW0ladHZrfyk6RX81j2,muJ8ZgPLXSW0ladHZrfyk6RX81j2,,,,,,,,,,,,,,,,,,,1624.0,,,5e7c55274f63942a04b08c29,16:58:12,27/03/2024
html-keyboard-response,74,150929,0.0-33.0-0.0,1493.1000000238419,"<div style=""display: flex; flex-direction: column; align-items: center; margin-top: -40px;""><img src=""images/pattern_1.png"" style=""width: 234px; height: 230px; margin-top: -50px;""><div style=""display: flex; justify-content: space-between; margin-top: 33px;""><img src=""images/choice_trial_8.png"" style=""width: 408px; height: 417px; margin-right: 200px;""><img src=""images/choice_trial_14.png"" style=""width: 408px; height: 417px;""></div></div>",j,delaylearn,learning,trial,muJ8ZgPLXSW0ladHZrfyk6RX81j2,muJ8ZgPLXSW0ladHZrfyk6RX81j2,3.0,images/choice_trial_8.png,images/choice_trial_14.png,images/pattern_1.png,j,j,7000.0,8.0,14.0,1.0,1.0,14.0,1.0,1.0,14.0,70.0,,,,,,5e7c55274f63942a04b08c29,16:58:12,27/03/2024
html-keyboard-response,75,151937,0.0-33.0-1.0,,"<div style=""display: flex; flex-direction: column; align-items: center; margin-top: -40px;""><img src=""images/pattern_1.png"" style=""width: 234px; height: 230px; margin-top: -50px;""><div style=""display: flex; justify-content: space-between; margin-top: 33px;""><img src=""images/choice_trial_14.png"" style=""width: 408px; height: 417px; margin-left:608px;""></div></div>",,delaylearn,learning,display_response,muJ8ZgPLXSW0ladHZrfyk6RX81j2,muJ8ZgPLXSW0ladHZrfyk6RX81j2,,,,,,,,,,,,,,,,,chosen stimuli: images/choice_trial_14.png,,,,,5e7c55274f63942a04b08c29,16:58:12,27/03/2024
html-keyboard-response,76,158954,0.0-33.0-2.0,,,,delaylearn,learning,feedback_duration_window,muJ8ZgPLXSW0ladHZrfyk6RX81j2,muJ8ZgPLXSW0ladHZrfyk6RX81j2,,,,,,,,,,,,,,,,,,7000.0,,,,5e7c55274f63942a04b08c29,16:58:12,27/03/2024
html-keyboard-response,77,160468,0.0-33.0-3.0,,<div style='margin:auto;width: auto; font-size: 150%'><span style='font-weight: bold; font-size: 100px; color: green;'>+10 points!</span><br><br></div>,,delaylearn,learning,feedback_image_window,muJ8ZgPLXSW0ladHZrfyk6RX81j2,muJ8ZgPLXSW0ladHZrfyk6RX81j2,,,,,,,,,,,,,,,,,,,,,,5e7c55274f63942a04b08c29,16:58:12,27/03/2024
html-keyboard-response,78,162602,0.0-34.0,,"<div style=""font-size:100px;"">+</div>",,delaylearn,learning,ITI,muJ8ZgPLXSW0ladHZrfyk6RX81j2,muJ8ZgPLXSW0ladHZrfyk6RX81j2,,,,,,,,,,,,,,,,,,,2128.0,,,5e7c55274f63942a04b08c29,16:58:12,27/03/2024
html-keyboard-response,79,164461,0.0-35.0-0.0,1857.0,"<div style=""display: flex; flex-direction: column; align-items: center; margin-top: -40px;""><img src=""images/pattern_3.png"" style=""width: 234px; height: 230px; margin-top: -50px;""><div style=""display: flex; justify-content: space-between; margin-top: 33px;""><img src=""images/choice_trial_10.png"" style=""width: 408px; height: 417px; margin-right: 200px;""><img src=""images/choice_trial_13.png"" style=""width: 408px; height: 417px;""></div></div>",j,delaylearn,learning,trial,muJ8ZgPLXSW0ladHZrfyk6RX81j2,muJ8ZgPLXSW0ladHZrfyk6RX81j2,3.0,images/choice_trial_10.png,images/choice_trial_13.png,images/pattern_3.png,f,j,7000.0,10.0,13.0,2.0,1.0,15.0,1.0,0.0,13.0,70.0,,,,,,5e7c55274f63942a04b08c29,16:58:12,27/03/2024
html-keyboard-response,80,165470,0.0-35.0-1.0,,"<div style=""display: flex; flex-direction: column; align-items: center; margin-top: -40px;""><img src=""images/pattern_3.png"" style=""width: 234px; height: 230px; margin-top: -50px;""><div style=""display: flex; justify-content: space-between; margin-top: 33px;""><img src=""images/choice_trial_13.png"" style=""width: 408px; height: 417px; margin-left:608px;""></div></div>",,delaylearn,learning,display_response,muJ8ZgPLXSW0ladHZrfyk6RX81j2,muJ8ZgPLXSW0ladHZrfyk6RX81j2,,,,,,,,,,,,,,,,,chosen stimuli: images/choice_trial_13.png,,,,,5e7c55274f63942a04b08c29,16:58:12,27/03/2024
html-keyboard-response,81,172486,0.0-35.0-2.0,,,,delaylearn,learning,feedback_duration_window,muJ8ZgPLXSW0ladHZrfyk6RX81j2,muJ8ZgPLXSW0ladHZrfyk6RX81j2,,,,,,,,,,,,,,,,,,7000.0,,,,5e7c55274f63942a04b08c29,16:58:12,27/03/2024
html-keyboard-response,82,174000,0.0-35.0-3.0,,<div style='margin:auto;width: auto; font-size: 150%'><span style='font-weight: bold; font-size: 100px; color: red;'>0 points!</span><br><br></div>,,delaylearn,learning,feedback_image_window,muJ8ZgPLXSW0ladHZrfyk6RX81j2,muJ8ZgPLXSW0ladHZrfyk6RX81j2,,,,,,,,,,,,,,,,,,,,,,5e7c55274f63942a04b08c29,16:58:12,27/03/2024
html-keyboard-response,83,175852,0.0-36.0,,"<div style=""font-size:100px;"">+</div>",,delaylearn,learning,ITI,muJ8ZgPLXSW0ladHZrfyk6RX81j2,muJ8ZgPLXSW0ladHZrfyk6RX81j2,,,,,,,,,,,,,,,,,,,1840.0,,,5e7c55274f63942a04b08c29,16:58:12,27/03/2024
html-keyboard-response,84,178645,0.0-37.0-0.0,2791.2999999523163,"<div style=""display: flex; flex-direction: column; align-items: center; margin-top: -40px;""><img src=""images/pattern_5.png"" style=""width: 234px; height: 230px; margin-top: -50px;""><div style=""display: flex; justify-content: space-between; margin-top: 33px;""><img src=""images/choice_trial_11.png"" style=""width: 408px; height: 417px; margin-right: 200px;""><img src=""images/choice_trial_2.png"" style=""width: 408px; height: 417px;""></div></div>",f,delaylearn,learning,trial,muJ8ZgPLXSW0ladHZrfyk6RX81j2,muJ8ZgPLXSW0ladHZrfyk6RX81j2,3.0,images/choice_trial_11.png,images/choice_trial_2.png,images/pattern_5.png,f,f,750.0,11.0,2.0,4.0,0.0,16.0,1.0,1.0,11.0,80.0,,,,,,5e7c55274f63942a04b08c29,16:58:12,27/03/2024
html-keyboard-response,85,179654,0.0-37.0-1.0,,"<div style=""display: flex; flex-direction: column; align-items: center; margin-top: -40px;""><img src=""images/pattern_5.png"" style=""width: 234px; height: 230px; margin-top: -50px;""><div style=""display: flex; justify-content: space-between; margin-top: 33px;""><img src=""images/choice_trial_11.png"" style=""width: 408px; height: 417px; margin-right: 608px;""></div></div>",,delaylearn,learning,display_response,muJ8ZgPLXSW0ladHZrfyk6RX81j2,muJ8ZgPLXSW0ladHZrfyk6RX81j2,,,,,,,,,,,,,,,,,chosen stimuli: images/choice_trial_11.png,,,,,5e7c55274f63942a04b08c29,16:58:12,27/03/2024
html-keyboard-response,86,180421,0.0-37.0-2.0,,,,delaylearn,learning,feedback_duration_window,muJ8ZgPLXSW0ladHZrfyk6RX81j2,muJ8ZgPLXSW0ladHZrfyk6RX81j2,,,,,,,,,,,,,,,,,,750.0,,,,5e7c55274f63942a04b08c29,16:58:12,27/03/2024
html-keyboard-response,87,181936,0.0-37.0-3.0,,<div style='margin:auto;width: auto; font-size: 150%'><span style='font-weight: bold; font-size: 100px; color: green;'>+10 points!</span><br><br></div>,,delaylearn,learning,feedback_image_window,muJ8ZgPLXSW0ladHZrfyk6RX81j2,muJ8ZgPLXSW0ladHZrfyk6RX81j2,,,,,,,,,,,,,,,,,,,,,,5e7c55274f63942a04b08c29,16:58:12,27/03/2024
html-keyboard-response,88,182453,0.0-38.0-0.0,,,,,,mood_trial_fixation,muJ8ZgPLXSW0ladHZrfyk6RX81j2,,,,,,,,,,,,,,,,,,,,,,,5e7c55274f63942a04b08c29,16:58:12,27/03/2024
lmdlab-html-vas-response,89,190091,0.0-38.0-1.0,6620.0,How happy are you right now?,0.47301790576426633,delaylearn,learning,mood_trial,muJ8ZgPLXSW0ladHZrfyk6RX81j2,muJ8ZgPLXSW0ladHZrfyk6RX81j2,,,,,,,,,,,,,,,,,,,,"['Very unhappy', 'Very happy']",,5e7c55274f63942a04b08c29,16:58:12,27/03/2024
html-keyboard-response,90,192336,0.0-39.0,,"<div style=""font-size:100px;"">+</div>",,delaylearn,learning,ITI,muJ8ZgPLXSW0ladHZrfyk6RX81j2,muJ8ZgPLXSW0ladHZrfyk6RX81j2,,,,,,,,,,,,,,,,,,,2231.0,,,5e7c55274f63942a04b08c29,16:58:12,27/03/2024
html-keyboard-response,91,193739,0.0-40.0-0.0,1400.2999999523163,"<div style=""display: flex; flex-direction: column; align-items: center; margin-top: -40px;""><img src=""images/pattern_6.png"" style=""width: 234px; height: 230px; margin-top: -50px;""><div style=""display: flex; justify-content: space-between; margin-top: 33px;""><img src=""images/choice_trial_16.png"" style=""width: 408px; height: 417px; margin-right: 200px;""><img src=""images/choice_trial_3.png"" style=""width: 408px; height: 417px;""></div></div>",f,delaylearn,learning,trial,muJ8ZgPLXSW0ladHZrfyk6RX81j2,muJ8ZgPLXSW0ladHZrfyk6RX81j2,3.0,images/choice_trial_16.png,images/choice_trial_3.png,images/pattern_6.png,f,f,750.0,16.0,3.0,5.0,0.0,17.0,1.0,1.0,16.0,90.0,,,,,,5e7c55274f63942a04b08c29,16:58:12,27/03/2024
html-keyboard-response,92,194753,0.0-40.0-1.0,,"<div style=""display: flex; flex-direction: column; align-items: center; margin-top: -40px;""><img src=""images/pattern_6.png"" style=""width: 234px; height: 230px; margin-top: -50px;""><div style=""display: flex; justify-content: space-between; margin-top: 33px;""><img src=""images/choice_trial_16.png"" style=""width: 408px; height: 417px; margin-right: 608px;""></div></div>",,delaylearn,learning,display_response,muJ8ZgPLXSW0ladHZrfyk6RX81j2,muJ8ZgPLXSW0ladHZrfyk6RX81j2,,,,,,,,,,,,,,,,,chosen stimuli: images/choice_trial_16.png,,,,,5e7c55274f63942a04b08c29,16:58:12,27/03/2024
html-keyboard-response,93,195520,0.0-40.0-2.0,,,,delaylearn,learning,feedback_duration_window,muJ8ZgPLXSW0ladHZrfyk6RX81j2,muJ8ZgPLXSW0ladHZrfyk6RX81j2,,,,,,,,,,,,,,,,,,750.0,,,,5e7c55274f63942a04b08c29,16:58:12,27/03/2024
html-keyboard-response,94,197035,0.0-40.0-3.0,,<div style='margin:auto;width: auto; font-size: 150%'><span style='font-weight: bold; font-size: 100px; color: green;'>+10 points!</span><br><br></div>,,delaylearn,learning,feedback_image_window,muJ8ZgPLXSW0ladHZrfyk6RX81j2,muJ8ZgPLXSW0ladHZrfyk6RX81j2,,,,,,,,,,,,,,,,,,,,,,5e7c55274f63942a04b08c29,16:58:12,27/03/2024
html-keyboard-response,95,198986,0.0-41.0,,"<div style=""font-size:100px;"">+</div>",,delaylearn,learning,ITI,muJ8ZgPLXSW0ladHZrfyk6RX81j2,muJ8ZgPLXSW0ladHZrfyk6RX81j2,,,,,,,,,,,,,,,,,,,1941.0,,,5e7c55274f63942a04b08c29,16:58:12,27/03/2024
html-keyboard-response,96,200427,0.0-42.0-0.0,1439.0,"<div style=""display: flex; flex-direction: column; align-items: center; margin-top: -40px;""><img src=""images/pattern_4.png"" style=""width: 234px; height: 230px; margin-top: -50px;""><div style=""display: flex; justify-content: space-between; margin-top: 33px;""><img src=""images/choice_trial_9.png"" style=""width: 408px; height: 417px; margin-right: 200px;""><img src=""images/choice_trial_15.png"" style=""width: 408px; height: 417px;""></div></div>",j,delaylearn,learning,trial,muJ8ZgPLXSW0ladHZrfyk6RX81j2,muJ8ZgPLXSW0ladHZrfyk6RX81j2,3.0,images/choice_trial_9.png,images/choice_trial_15.png,images/pattern_4.png,j,j,7000.0,9.0,15.0,3.0,1.0,18.0,1.0,1.0,15.0,100.0,,,,,,5e7c55274f63942a04b08c29,16:58:12,27/03/2024
html-keyboard-response,97,201437,0.0-42.0-1.0,,"<div style=""display: flex; flex-direction: column; align-items: center; margin-top: -40px;""><img src=""images/pattern_4.png"" style=""width: 234px; height: 230px; margin-top: -50px;""><div style=""display: flex; justify-content: space-between; margin-top: 33px;""><img src=""images/choice_trial_15.png"" style=""width: 408px; height: 417px; margin-left:608px;""></div></div>",,delaylearn,learning,display_response,muJ8ZgPLXSW0ladHZrfyk6RX81j2,muJ8ZgPLXSW0ladHZrfyk6RX81j2,,,,,,,,,,,,,,,,,chosen stimuli: images/choice_trial_15.png,,,,,5e7c55274f63942a04b08c29,16:58:12,27/03/2024
html-keyboard-response,98,208454,0.0-42.0-2.0,,,,delaylearn,learning,feedback_duration_window,muJ8ZgPLXSW0ladHZrfyk6RX81j2,muJ8ZgPLXSW0ladHZrfyk6RX81j2,,,,,,,,,,,,,,,,,,7000.0,,,,5e7c55274f63942a04b08c29,16:58:12,27/03/2024
html-keyboard-response,99,209968,0.0-42.0-3.0,,<div style='margin:auto;width: auto; font-size: 150%'><span style='font-weight: bold; font-size: 100px; color: green;'>+10 points!</span><br><br></div>,,delaylearn,learning,feedback_image_window,muJ8ZgPLXSW0ladHZrfyk6RX81j2,muJ8ZgPLXSW0ladHZrfyk6RX81j2,,,,,,,,,,,,,,,,,,,,,,5e7c55274f63942a04b08c29,16:58:12,27/03/2024
html-keyboard-response,100,211921,0.0-43.0,,"<div style=""font-size:100px;"">+</div>",,delaylearn,learning,ITI,muJ8ZgPLXSW0ladHZrfyk6RX81j2,muJ8ZgPLXSW0ladHZrfyk6RX81j2,,,,,,,,,,,,,,,,,,,1943.0,,,5e7c55274f63942a04b08c29,16:58:12,27/03/2024
html-keyboard-response,101,214015,0.0-44.0-0.0,2091.5,"<div style=""display: flex; flex-direction: column; align-items: center; margin-top: -40px;""><img src=""images/pattern_7.png"" style=""width: 234px; height: 230px; margin-top: -50px;""><div style=""display: flex; justify-content: space-between; margin-top: 33px;""><img src=""images/choice_trial_6.png"" style=""width: 408px; height: 417px; margin-right: 200px;""><img src=""images/choice_trial_12.png"" style=""width: 408px; height: 417px;""></div></div>",j,delaylearn,learning,trial,muJ8ZgPLXSW0ladHZrfyk6RX81j2,muJ8ZgPLXSW0ladHZrfyk6RX81j2,3.0,images/choice_trial_6.png,images/choice_trial_12.png,images/pattern_7.png,j,f,750.0,6.0,12.0,6.0,0.0,19.0,0.0,1.0,12.0,110.0,,,,,,5e7c55274f63942a04b08c29,16:58:12,27/03/2024
html-keyboard-response,102,215020,0.0-44.0-1.0,,"<div style=""display: flex; flex-direction: column; align-items: center; margin-top: -40px;""><img src=""images/pattern_7.png"" style=""width: 234px; height: 230px; margin-top: -50px;""><div style=""display: flex; justify-content: space-between; margin-top: 33px;""><img src=""images/choice_trial_12.png"" style=""width: 408px; height: 417px; margin-left:608px;""></div></div>",,delaylearn,learning,display_response,muJ8ZgPLXSW0ladHZrfyk6RX81j2,muJ8ZgPLXSW0ladHZrfyk6RX81j2,,,,,,,,,,,,,,,,,chosen stimuli: images/choice_trial_12.png,,,,,5e7c55274f63942a04b08c29,16:58:12,27/03/2024
html-keyboard-response,103,215785,0.0-44.0-2.0,,,,delaylearn,learning,feedback_duration_window,muJ8ZgPLXSW0ladHZrfyk6RX81j2,muJ8ZgPLXSW0ladHZrfyk6RX81j2,,,,,,,,,,,,,,,,,,750.0,,,,5e7c55274f63942a04b08c29,16:58:12,27/03/2024
html-keyboard-response,104,217300,0.0-44.0-3.0,,<div style='margin:auto;width: auto; font-size: 150%'><span style='font-weight: bold; font-size: 100px; color: green;'>+10 points!</span><br><br></div>,,delaylearn,learning,feedback_image_window,muJ8ZgPLXSW0ladHZrfyk6RX81j2,muJ8ZgPLXSW0ladHZrfyk6RX81j2,,,,,,,,,,,,,,,,,,,,,,5e7c55274f63942a04b08c29,16:58:12,27/03/2024
html-keyboard-response,105,219570,0.0-45.0,,"<div style=""font-size:100px;"">+</div>",,delaylearn,learning,ITI,muJ8ZgPLXSW0ladHZrfyk6RX81j2,muJ8ZgPLXSW0ladHZrfyk6RX81j2,,,,,,,,,,,,,,,,,,,2258.0,,,5e7c55274f63942a04b08c29,16:58:12,27/03/2024
html-keyboard-response,106,221313,0.0-46.0-0.0,1741.1000000238419,"<div style=""display: flex; flex-direction: column; align-items: center; margin-top: -40px;""><img src=""images/pattern_1.png"" style=""width: 234px; height: 230px; margin-top: -50px;""><div style=""display: flex; justify-content: space-between; margin-top: 33px;""><img src=""images/choice_trial_14.png"" style=""width: 408px; height: 417px; margin-right: 200px;""><img src=""images/choice_trial_8.png"" style=""width: 408px; height: 417px;""></div></div>",f,delaylearn,learning,trial,muJ8ZgPLXSW0ladHZrfyk6RX81j2,muJ8ZgPLXSW0ladHZrfyk6RX81j2,3.0,images/choice_trial_14.png,images/choice_trial_8.png,images/pattern_1.png,f,f,7000.0,14.0,8.0,1.0,0.0,20.0,1.0,1.0,14.0,120.0,,,,,,5e7c55274f63942a04b08c29,16:58:12,27/03/2024
html-keyboard-response,107,222319,0.0-46.0-1.0,,"<div style=""display: flex; flex-direction: column; align-items: center; margin-top: -40px;""><img src=""images/pattern_1.png"" style=""width: 234px; height: 230px; margin-top: -50px;""><div style=""display: flex; justify-content: space-between; margin-top: 33px;""><img src=""images/choice_trial_14.png"" style=""width: 408px; height: 417px; margin-right: 608px;""></div></div>",,delaylearn,learning,display_response,muJ8ZgPLXSW0ladHZrfyk6RX81j2,muJ8ZgPLXSW0ladHZrfyk6RX81j2,,,,,,,,,,,,,,,,,chosen stimuli: images/choice_trial_14.png,,,,,5e7c55274f63942a04b08c29,16:58:12,27/03/2024
html-keyboard-response,108,229334,0.0-46.0-2.0,,,,delaylearn,learning,feedback_duration_window,muJ8ZgPLXSW0ladHZrfyk6RX81j2,muJ8ZgPLXSW0ladHZrfyk6RX81j2,,,,,,,,,,,,,,,,,,7000.0,,,,5e7c55274f63942a04b08c29,16:58:12,27/03/2024
html-keyboard-response,109,230852,0.0-46.0-3.0,,<div style='margin:auto;width: auto; font-size: 150%'><span style='font-weight: bold; font-size: 100px; color: green;'>+10 points!</span><br><br></div>,,delaylearn,learning,feedback_image_window,muJ8ZgPLXSW0ladHZrfyk6RX81j2,muJ8ZgPLXSW0ladHZrfyk6RX81j2,,,,,,,,,,,,,,,,,,,,,,5e7c55274f63942a04b08c29,16:58:12,27/03/2024
html-keyboard-response,110,233236,0.0-47.0,,"<div style=""font-size:100px;"">+</div>",,delaylearn,learning,ITI,muJ8ZgPLXSW0ladHZrfyk6RX81j2,muJ8ZgPLXSW0ladHZrfyk6RX81j2,,,,,,,,,,,,,,,,,,,2374.0,,,5e7c55274f63942a04b08c29,16:58:12,27/03/2024
html-keyboard-response,111,234710,0.0-48.0-0.0,1470.8999999761581,"<div style=""display: flex; flex-direction: column; align-items: center; margin-top: -40px;""><img src=""images/pattern_6.png"" style=""width: 234px; height: 230px; margin-top: -50px;""><div style=""display: flex; justify-content: space-between; margin-top: 33px;""><img src=""images/choice_trial_3.png"" style=""width: 408px; height: 417px; margin-right: 200px;""><img src=""images/choice_trial_16.png"" style=""width: 408px; height: 417px;""></div></div>",j,delaylearn,learning,trial,muJ8ZgPLXSW0ladHZrfyk6RX81j2,muJ8ZgPLXSW0ladHZrfyk6RX81j2,3.0,images/choice_trial_3.png,images/choice_trial_16.png,images/pattern_6.png,j,j,750.0,3.0,16.0,5.0,1.0,21.0,1.0,1.0,16.0,130.0,,,,,,5e7c55274f63942a04b08c29,16:58:12,27/03/2024
html-keyboard-response,112,235718,0.0-48.0-1.0,,"<div style=""display: flex; flex-direction: column; align-items: center; margin-top: -40px;""><img src=""images/pattern_6.png"" style=""width: 234px; height: 230px; margin-top: -50px;""><div style=""display: flex; justify-content: space-between; margin-top: 33px;""><img src=""images/choice_trial_16.png"" style=""width: 408px; height: 417px; margin-left:608px;""></div></div>",,delaylearn,learning,display_response,muJ8ZgPLXSW0ladHZrfyk6RX81j2,muJ8ZgPLXSW0ladHZrfyk6RX81j2,,,,,,,,,,,,,,,,,chosen stimuli: images/choice_trial_16.png,,,,,5e7c55274f63942a04b08c29,16:58:12,27/03/2024
html-keyboard-response,113,236469,0.0-48.0-2.0,,,,delaylearn,learning,feedback_duration_window,muJ8ZgPLXSW0ladHZrfyk6RX81j2,muJ8ZgPLXSW0ladHZrfyk6RX81j2,,,,,,,,,,,,,,,,,,750.0,,,,5e7c55274f63942a04b08c29,16:58:12,27/03/2024
html-keyboard-response,114,237986,0.0-48.0-3.0,,<div style='margin:auto;width: auto; font-size: 150%'><span style='font-weight: bold; font-size: 100px; color: green;'>+10 points!</span><br><br></div>,,delaylearn,learning,feedback_image_window,muJ8ZgPLXSW0ladHZrfyk6RX81j2,muJ8ZgPLXSW0ladHZrfyk6RX81j2,,,,,,,,,,,,,,,,,,,,,,5e7c55274f63942a04b08c29,16:58:12,27/03/2024
html-keyboard-response,115,240036,0.0-49.0,,"<div style=""font-size:100px;"">+</div>",,delaylearn,learning,ITI,muJ8ZgPLXSW0ladHZrfyk6RX81j2,muJ8ZgPLXSW0ladHZrfyk6RX81j2,,,,,,,,,,,,,,,,,,,2037.0,,,5e7c55274f63942a04b08c29,16:58:12,27/03/2024
html-keyboard-response,116,241466,0.0-50.0-0.0,1427.8999999761581,"<div style=""display: flex; flex-direction: column; align-items: center; margin-top: -40px;""><img src=""images/pattern_4.png"" style=""width: 234px; height: 230px; margin-top: -50px;""><div style=""display: flex; justify-content: space-between; margin-top: 33px;""><img src=""images/choice_trial_15.png"" style=""width: 408px; height: 417px; margin-right: 200px;""><img src=""images/choice_trial_9.png"" style=""width: 408px; height: 417px;""></div></div>",f,delaylearn,learning,trial,muJ8ZgPLXSW0ladHZrfyk6RX81j2,muJ8ZgPLXSW0ladHZrfyk6RX81j2,3.0,images/choice_trial_15.png,images/choice_trial_9.png,images/pattern_4.png,f,f,7000.0,15.0,9.0,3.0,0.0,22.0,1.0,1.0,15.0,140.0,,,,,,5e7c55274f63942a04b08c29,16:58:12,27/03/2024
html-keyboard-response,117,242469,0.0-50.0-1.0,,"<div style=""display: flex; flex-direction: column; align-items: center; margin-top: -40px;""><img src=""images/pattern_4.png"" style=""width: 234px; height: 230px; margin-top: -50px;""><div style=""display: flex; justify-content: space-between; margin-top: 33px;""><img src=""images/choice_trial_15.png"" style=""width: 408px; height: 417px; margin-right: 608px;""></div></div>",,delaylearn,learning,display_response,muJ8ZgPLXSW0ladHZrfyk6RX81j2,muJ8ZgPLXSW0ladHZrfyk6RX81j2,,,,,,,,,,,,,,,,,chosen stimuli: images/choice_trial_15.png,,,,,5e7c55274f63942a04b08c29,16:58:12,27/03/2024
html-keyboard-response,118,249486,0.0-50.0-2.0,,,,delaylearn,learning,feedback_duration_window,muJ8ZgPLXSW0ladHZrfyk6RX81j2,muJ8ZgPLXSW0ladHZrfyk6RX81j2,,,,,,,,,,,,,,,,,,7000.0,,,,5e7c55274f63942a04b08c29,16:58:12,27/03/2024
html-keyboard-response,119,251000,0.0-50.0-3.0,,<div style='margin:auto;width: auto; font-size: 150%'><span style='font-weight: bold; font-size: 100px; color: green;'>+10 points!</span><br><br></div>,,delaylearn,learning,feedback_image_window,muJ8ZgPLXSW0ladHZrfyk6RX81j2,muJ8ZgPLXSW0ladHZrfyk6RX81j2,,,,,,,,,,,,,,,,,,,,,,5e7c55274f63942a04b08c29,16:58:12,27/03/2024
html-keyboard-response,120,251521,0.0-51.0-0.0,,,,,,mood_trial_fixation,muJ8ZgPLXSW0ladHZrfyk6RX81j2,,,,,,,,,,,,,,,,,,,,,,,5e7c55274f63942a04b08c29,16:58:12,27/03/2024
lmdlab-html-vas-response,121,259855,0.0-51.0-1.0,7316.0,How happy are you right now?,0.4942370405674197,delaylearn,learning,mood_trial,muJ8ZgPLXSW0ladHZrfyk6RX81j2,muJ8ZgPLXSW0ladHZrfyk6RX81j2,,,,,,,,,,,,,,,,,,,,"['Very unhappy', 'Very happy']",,5e7c55274f63942a04b08c29,16:58:12,27/03/2024
html-keyboard-response,122,262167,0.0-52.0,,"<div style=""font-size:100px;"">+</div>",,delaylearn,learning,ITI,muJ8ZgPLXSW0ladHZrfyk6RX81j2,muJ8ZgPLXSW0ladHZrfyk6RX81j2,,,,,,,,,,,,,,,,,,,2299.0,,,5e7c55274f63942a04b08c29,16:58:12,27/03/2024
html-keyboard-response,123,263704,0.0-53.0-0.0,1534.8999999761581,"<div style=""display: flex; flex-direction: column; align-items: center; margin-top: -40px;""><img src=""images/pattern_7.png"" style=""width: 234px; height: 230px; margin-top: -50px;""><div style=""display: flex; justify-content: space-between; margin-top: 33px;""><img src=""images/choice_trial_12.png"" style=""width: 408px; height: 417px; margin-right: 200px;""><img src=""images/choice_trial_6.png"" style=""width: 408px; height: 417px;""></div></div>",j,delaylearn,learning,trial,muJ8ZgPLXSW0ladHZrfyk6RX81j2,muJ8ZgPLXSW0ladHZrfyk6RX81j2,3.0,images/choice_trial_12.png,images/choice_trial_6.png,images/pattern_7.png,j,j,750.0,12.0,6.0,6.0,1.0,23.0,1.0,1.0,6.0,150.0,,,,,,5e7c55274f63942a04b08c29,16:58:12,27/03/2024
html-keyboard-response,124,264718,0.0-53.0-1.0,,"<div style=""display: flex; flex-direction: column; align-items: center; margin-top: -40px;""><img src=""images/pattern_7.png"" style=""width: 234px; height: 230px; margin-top: -50px;""><div style=""display: flex; justify-content: space-between; margin-top: 33px;""><img src=""images/choice_trial_6.png"" style=""width: 408px; height: 417px; margin-left:608px;""></div></div>",,delaylearn,learning,display_response,muJ8ZgPLXSW0ladHZrfyk6RX81j2,muJ8ZgPLXSW0ladHZrfyk6RX81j2,,,,,,,,,,,,,,,,,chosen stimuli: images/choice_trial_6.png,,,,,5e7c55274f63942a04b08c29,16:58:12,27/03/2024
html-keyboard-response,125,265484,0.0-53.0-2.0,,,,delaylearn,learning,feedback_duration_window,muJ8ZgPLXSW0ladHZrfyk6RX81j2,muJ8ZgPLXSW0ladHZrfyk6RX81j2,,,,,,,,,,,,,,,,,,750.0,,,,5e7c55274f63942a04b08c29,16:58:12,27/03/2024
html-keyboard-response,126,267002,0.0-53.0-3.0,,<div style='margin:auto;width: auto; font-size: 150%'><span style='font-weight: bold; font-size: 100px; color: green;'>+10 points!</span><br><br></div>,,delaylearn,learning,feedback_image_window,muJ8ZgPLXSW0ladHZrfyk6RX81j2,muJ8ZgPLXSW0ladHZrfyk6RX81j2,,,,,,,,,,,,,,,,,,,,,,5e7c55274f63942a04b08c29,16:58:12,27/03/2024
html-keyboard-response,127,268935,0.0-54.0,,"<div style=""font-size:100px;"">+</div>",,delaylearn,learning,ITI,muJ8ZgPLXSW0ladHZrfyk6RX81j2,muJ8ZgPLXSW0ladHZrfyk6RX81j2,,,,,,,,,,,,,,,,,,,1928.0,,,5e7c55274f63942a04b08c29,16:58:12,27/03/2024
html-keyboard-response,128,270089,0.0-55.0-0.0,1152.3000000715256,"<div style=""display: flex; flex-direction: column; align-items: center; margin-top: -40px;""><img src=""images/pattern_1.png"" style=""width: 234px; height: 230px; margin-top: -50px;""><div style=""display: flex; justify-content: space-between; margin-top: 33px;""><img src=""images/choice_trial_8.png"" style=""width: 408px; height: 417px; margin-right: 200px;""><img src=""images/choice_trial_14.png"" style=""width: 408px; height: 417px;""></div></div>",j,delaylearn,learning,trial,muJ8ZgPLXSW0ladHZrfyk6RX81j2,muJ8ZgPLXSW0ladHZrfyk6RX81j2,3.0,images/choice_trial_8.png,images/choice_trial_14.png,images/pattern_1.png,f,j,7000.0,8.0,14.0,1.0,1.0,24.0,1.0,0.0,14.0,150.0,,,,,,5e7c55274f63942a04b08c29,16:58:12,27/03/2024
html-keyboard-response,129,271102,0.0-55.0-1.0,,"<div style=""display: flex; flex-direction: column; align-items: center; margin-top: -40px;""><img src=""images/pattern_1.png"" style=""width: 234px; height: 230px; margin-top: -50px;""><div style=""display: flex; justify-content: space-between; margin-top: 33px;""><img src=""images/choice_trial_14.png"" style=""width: 408px; height: 417px; margin-left:608px;""></div></div>",,delaylearn,learning,display_response,muJ8ZgPLXSW0ladHZrfyk6RX81j2,muJ8ZgPLXSW0ladHZrfyk6RX81j2,,,,,,,,,,,,,,,,,chosen stimuli: images/choice_trial_14.png,,,,,5e7c55274f63942a04b08c29,16:58:12,27/03/2024
html-keyboard-response,130,278119,0.0-55.0-2.0,,,,delaylearn,learning,feedback_duration_window,muJ8ZgPLXSW0ladHZrfyk6RX81j2,muJ8ZgPLXSW0ladHZrfyk6RX81j2,,,,,,,,,,,,,,,,,,7000.0,,,,5e7c55274f63942a04b08c29,16:58:12,27/03/2024
html-keyboard-response,131,279633,0.0-55.0-3.0,,<div style='margin:auto;width: auto; font-size: 150%'><span style='font-weight: bold; font-size: 100px; color: red;'>0 points!</span><br><br></div>,,delaylearn,learning,feedback_image_window,muJ8ZgPLXSW0ladHZrfyk6RX81j2,muJ8ZgPLXSW0ladHZrfyk6RX81j2,,,,,,,,,,,,,,,,,,,,,,5e7c55274f63942a04b08c29,16:58:12,27/03/2024
html-keyboard-response,132,281300,0.0-56.0,,"<div style=""font-size:100px;"">+</div>",,delaylearn,learning,ITI,muJ8ZgPLXSW0ladHZrfyk6RX81j2,muJ8ZgPLXSW0ladHZrfyk6RX81j2,,,,,,,,,,,,,,,,,,,1652.0,,,5e7c55274f63942a04b08c29,16:58:12,27/03/2024
html-keyboard-response,133,282753,0.0-57.0-0.0,1450.1000000238419,"<div style=""display: flex; flex-direction: column; align-items: center; margin-top: -40px;""><img src=""images/pattern_5.png"" style=""width: 234px; height: 230px; margin-top: -50px;""><div style=""display: flex; justify-content: space-between; margin-top: 33px;""><img src=""images/choice_trial_2.png"" style=""width: 408px; height: 417px; margin-right: 200px;""><img src=""images/choice_trial_11.png"" style=""width: 408px; height: 417px;""></div></div>",j,delaylearn,learning,trial,muJ8ZgPLXSW0ladHZrfyk6RX81j2,muJ8ZgPLXSW0ladHZrfyk6RX81j2,3.0,images/choice_trial_2.png,images/choice_trial_11.png,images/pattern_5.png,j,j,750.0,2.0,11.0,4.0,1.0,25.0,1.0,1.0,11.0,160.0,,,,,,5e7c55274f63942a04b08c29,16:58:12,27/03/2024
html-keyboard-response,134,283768,0.0-57.0-1.0,,"<div style=""display: flex; flex-direction: column; align-items: center; margin-top: -40px;""><img src=""images/pattern_5.png"" style=""width: 234px; height: 230px; margin-top: -50px;""><div style=""display: flex; justify-content: space-between; margin-top: 33px;""><img src=""images/choice_trial_11.png"" style=""width: 408px; height: 417px; margin-left:608px;""></div></div>",,delaylearn,learning,display_response,muJ8ZgPLXSW0ladHZrfyk6RX81j2,muJ8ZgPLXSW0ladHZrfyk6RX81j2,,,,,,,,,,,,,,,,,chosen stimuli: images/choice_trial_11.png,,,,,5e7c55274f63942a04b08c29,16:58:12,27/03/2024
html-keyboard-response,135,284533,0.0-57.0-2.0,,,,delaylearn,learning,feedback_duration_window,muJ8ZgPLXSW0ladHZrfyk6RX81j2,muJ8ZgPLXSW0ladHZrfyk6RX81j2,,,,,,,,,,,,,,,,,,750.0,,,,5e7c55274f63942a04b08c29,16:58:12,27/03/2024
html-keyboard-response,136,286052,0.0-57.0-3.0,,<div style='margin:auto;width: auto; font-size: 150%'><span style='font-weight: bold; font-size: 100px; color: green;'>+10 points!</span><br><br></div>,,delaylearn,learning,feedback_image_window,muJ8ZgPLXSW0ladHZrfyk6RX81j2,muJ8ZgPLXSW0ladHZrfyk6RX81j2,,,,,,,,,,,,,,,,,,,,,,5e7c55274f63942a04b08c29,16:58:12,27/03/2024
html-keyboard-response,137,288317,0.0-58.0,,"<div style=""font-size:100px;"">+</div>",,delaylearn,learning,ITI,muJ8ZgPLXSW0ladHZrfyk6RX81j2,muJ8ZgPLXSW0ladHZrfyk6RX81j2,,,,,,,,,,,,,,,,,,,2248.0,,,5e7c55274f63942a04b08c29,16:58:12,27/03/2024
html-keyboard-response,138,290775,0.0-59.0-0.0,2455.0999999046326,"<div style=""display: flex; flex-direction: column; align-items: center; margin-top: -40px;""><img src=""images/pattern_3.png"" style=""width: 234px; height: 230px; margin-top: -50px;""><div style=""display: flex; justify-content: space-between; margin-top: 33px;""><img src=""images/choice_trial_10.png"" style=""width: 408px; height: 417px; margin-right: 200px;""><img src=""images/choice_trial_13.png"" style=""width: 408px; height: 417px;""></div></div>",j,delaylearn,learning,trial,muJ8ZgPLXSW0ladHZrfyk6RX81j2,muJ8ZgPLXSW0ladHZrfyk6RX81j2,3.0,images/choice_trial_10.png,images/choice_trial_13.png,images/pattern_3.png,j,j,7000.0,10.0,13.0,2.0,1.0,26.0,1.0,1.0,13.0,170.0,,,,,,5e7c55274f63942a04b08c29,16:58:12,27/03/2024
html-keyboard-response,139,291786,0.0-59.0-1.0,,"<div style=""display: flex; flex-direction: column; align-items: center; margin-top: -40px;""><img src=""images/pattern_3.png"" style=""width: 234px; height: 230px; margin-top: -50px;""><div style=""display: flex; justify-content: space-between; margin-top: 33px;""><img src=""images/choice_trial_13.png"" style=""width: 408px; height: 417px; margin-left:608px;""></div></div>",,delaylearn,learning,display_response,muJ8ZgPLXSW0ladHZrfyk6RX81j2,muJ8ZgPLXSW0ladHZrfyk6RX81j2,,,,,,,,,,,,,,,,,chosen stimuli: images/choice_trial_13.png,,,,,5e7c55274f63942a04b08c29,16:58:12,27/03/2024
html-keyboard-response,140,298802,0.0-59.0-2.0,,,,delaylearn,learning,feedback_duration_window,muJ8ZgPLXSW0ladHZrfyk6RX81j2,muJ8ZgPLXSW0ladHZrfyk6RX81j2,,,,,,,,,,,,,,,,,,7000.0,,,,5e7c55274f63942a04b08c29,16:58:12,27/03/2024
html-keyboard-response,141,300316,0.0-59.0-3.0,,<div style='margin:auto;width: auto; font-size: 150%'><span style='font-weight: bold; font-size: 100px; color: green;'>+10 points!</span><br><br></div>,,delaylearn,learning,feedback_image_window,muJ8ZgPLXSW0ladHZrfyk6RX81j2,muJ8ZgPLXSW0ladHZrfyk6RX81j2,,,,,,,,,,,,,,,,,,,,,,5e7c55274f63942a04b08c29,16:58:12,27/03/2024
lmdlab-html-vas-response,142,309700,0.0-60.0-0.0,7858.0,*How <b><u>confident</u></b> are you feeling about your answers at this moment?*,0.5520832720116852,rewlearn,rate_confidence,,muJ8ZgPLXSW0ladHZrfyk6RX81j2,muJ8ZgPLXSW0ladHZrfyk6RX81j2,,,,,,,,,,,,,,,,,,,,"['No confidence', 'Complete confidence']",,5e7c55274f63942a04b08c29,16:58:12,27/03/2024
lmdlab-rest-trial-limit,143,425050,0.0-60.0-1.0,113847.10000002384,"<div style=""font-size:40px;""><b>Please take a break!</b><br><br><br><br><p>Great work: you earned 170 points.<br><br><br><p>You have completed part(s) 1 of 5.<br><br><br><br>When you are ready to continue<br><br><br>please click the button.</p><br><br>",0,delaylearn,learning,break,muJ8ZgPLXSW0ladHZrfyk6RX81j2,muJ8ZgPLXSW0ladHZrfyk6RX81j2,,,,,,,,,,,,,,,,,,,,,0.0,5e7c55274f63942a04b08c29,16:58:12,27/03/2024
html-keyboard-response,144,428067,0.0-60.0-2.0,,"<div style=""font-size:100px;"">+</div>",,delaylearn,learning,pre_fixation,muJ8ZgPLXSW0ladHZrfyk6RX81j2,not found,,,,,,,,,,,,,,,,,,,,,,5e7c55274f63942a04b08c29,16:58:12,27/03/2024
lmdlab-html-vas-response,145,433637,0.0-60.0-3.0-0.0,4551.0,How happy are you right now?,0.5424623469382228,delaylearn,learning,mood_baseline,muJ8ZgPLXSW0ladHZrfyk6RX81j2,muJ8ZgPLXSW0ladHZrfyk6RX81j2,,,,,,,,,,,,,,,,,,,,"['Very unhappy', 'Very happy']",,5e7c55274f63942a04b08c29,16:58:12,27/03/2024
html-keyboard-response,146,435150,0.0-60.0-3.0-1.0,,,,,,mood_baseline_fixation,muJ8ZgPLXSW0ladHZrfyk6RX81j2,,,,,,,,,,,,,,,,,,,,,,,5e7c55274f63942a04b08c29,16:58:12,27/03/2024
html-keyboard-response,147,437485,0.0-61.0,,"<div style=""font-size:100px;"">+</div>",,delaylearn,learning,ITI,muJ8ZgPLXSW0ladHZrfyk6RX81j2,muJ8ZgPLXSW0ladHZrfyk6RX81j2,,,,,,,,,,,,,,,,,,,2332.0,,,5e7c55274f63942a04b08c29,16:58:12,27/03/2024
html-keyboard-response,148,439025,0.0-62.0-0.0,1536.7000000476837,"<div style=""display: flex; flex-direction: column; align-items: center; margin-top: -40px;""><img src=""images/pattern_7.png"" style=""width: 234px; height: 230px; margin-top: -50px;""><div style=""display: flex; justify-content: space-between; margin-top: 33px;""><img src=""images/choice_trial_12.png"" style=""width: 408px; height: 417px; margin-right: 200px;""><img src=""images/choice_trial_6.png"" style=""width: 408px; height: 417px;""></div></div>",j,delaylearn,learning,trial,muJ8ZgPLXSW0ladHZrfyk6RX81j2,muJ8ZgPLXSW0ladHZrfyk6RX81j2,3.0,images/choice_trial_12.png,images/choice_trial_6.png,images/pattern_7.png,j,j,750.0,12.0,6.0,6.0,1.0,27.0,1.0,1.0,6.0,180.0,,,,,,5e7c55274f63942a04b08c29,16:58:12,27/03/2024
html-keyboard-response,149,440032,0.0-62.0-1.0,,"<div style=""display: flex; flex-direction: column; align-items: center; margin-top: -40px;""><img src=""images/pattern_7.png"" style=""width: 234px; height: 230px; margin-top: -50px;""><div style=""display: flex; justify-content: space-between; margin-top: 33px;""><img src=""images/choice_trial_6.png"" style=""width: 408px; height: 417px; margin-left:608px;""></div></div>",,delaylearn,learning,display_response,muJ8ZgPLXSW0ladHZrfyk6RX81j2,muJ8ZgPLXSW0ladHZrfyk6RX81j2,,,,,,,,,,,,,,,,,chosen stimuli: images/choice_trial_6.png,,,,,5e7c55274f63942a04b08c29,16:58:12,27/03/2024
html-keyboard-response,150,440798,0.0-62.0-2.0,,,,delaylearn,learning,feedback_duration_window,muJ8ZgPLXSW0ladHZrfyk6RX81j2,muJ8ZgPLXSW0ladHZrfyk6RX81j2,,,,,,,,,,,,,,,,,,750.0,,,,5e7c55274f63942a04b08c29,16:58:12,27/03/2024
html-keyboard-response,151,442301,0.0-62.0-3.0,,<div style='margin:auto;width: auto; font-size: 150%'><span style='font-weight: bold; font-size: 100px; color: green;'>+10 points!</span><br><br></div>,,delaylearn,learning,feedback_image_window,muJ8ZgPLXSW0ladHZrfyk6RX81j2,muJ8ZgPLXSW0ladHZrfyk6RX81j2,,,,,,,,,,,,,,,,,,,,,,5e7c55274f63942a04b08c29,16:58:12,27/03/2024
html-keyboard-response,152,442816,0.0-63.0-0.0,,,,,,mood_trial_fixation,muJ8ZgPLXSW0ladHZrfyk6RX81j2,,,,,,,,,,,,,,,,,,,,,,,5e7c55274f63942a04b08c29,16:58:12,27/03/2024
lmdlab-html-vas-response,153,449955,0.0-63.0-1.0,6120.0,How happy are you right now?,0.5463203714478871,delaylearn,learning,mood_trial,muJ8ZgPLXSW0ladHZrfyk6RX81j2,muJ8ZgPLXSW0ladHZrfyk6RX81j2,,,,,,,,,,,,,,,,,,,,"['Very unhappy', 'Very happy']",,5e7c55274f63942a04b08c29,16:58:12,27/03/2024
html-keyboard-response,154,452232,0.0-64.0,,"<div style=""font-size:100px;"">+</div>",,delaylearn,learning,ITI,muJ8ZgPLXSW0ladHZrfyk6RX81j2,muJ8ZgPLXSW0ladHZrfyk6RX81j2,,,,,,,,,,,,,,,,,,,2270.0,,,5e7c55274f63942a04b08c29,16:58:12,27/03/2024
html-keyboard-response,155,453600,0.0-65.0-0.0,1365.1999999284744,"<div style=""display: flex; flex-direction: column; align-items: center; margin-top: -40px;""><img src=""images/pattern_1.png"" style=""width: 234px; height: 230px; margin-top: -50px;""><div style=""display: flex; justify-content: space-between; margin-top: 33px;""><img src=""images/choice_trial_14.png"" style=""width: 408px; height: 417px; margin-right: 200px;""><img src=""images/choice_trial_8.png"" style=""width: 408px; height: 417px;""></div></div>",f,delaylearn,learning,trial,muJ8ZgPLXSW0ladHZrfyk6RX81j2,muJ8ZgPLXSW0ladHZrfyk6RX81j2,3.0,images/choice_trial_14.png,images/choice_trial_8.png,images/pattern_1.png,f,f,7000.0,14.0,8.0,1.0,0.0,28.0,1.0,1.0,14.0,190.0,,,,,,5e7c55274f63942a04b08c29,16:58:12,27/03/2024
html-keyboard-response,156,454617,0.0-65.0-1.0,,"<div style=""display: flex; flex-direction: column; align-items: center; margin-top: -40px;""><img src=""images/pattern_1.png"" style=""width: 234px; height: 230px; margin-top: -50px;""><div style=""display: flex; justify-content: space-between; margin-top: 33px;""><img src=""images/choice_trial_14.png"" style=""width: 408px; height: 417px; margin-right: 608px;""></div></div>",,delaylearn,learning,display_response,muJ8ZgPLXSW0ladHZrfyk6RX81j2,muJ8ZgPLXSW0ladHZrfyk6RX81j2,,,,,,,,,,,,,,,,,chosen stimuli: images/choice_trial_14.png,,,,,5e7c55274f63942a04b08c29,16:58:12,27/03/2024
html-keyboard-response,157,461634,0.0-65.0-2.0,,,,delaylearn,learning,feedback_duration_window,muJ8ZgPLXSW0ladHZrfyk6RX81j2,muJ8ZgPLXSW0ladHZrfyk6RX81j2,,,,,,,,,,,,,,,,,,7000.0,,,,5e7c55274f63942a04b08c29,16:58:12,27/03/2024
html-keyboard-response,158,463149,0.0-65.0-3.0,,<div style='margin:auto;width: auto; font-size: 150%'><span style='font-weight: bold; font-size: 100px; color: green;'>+10 points!</span><br><br></div>,,delaylearn,learning,feedback_image_window,muJ8ZgPLXSW0ladHZrfyk6RX81j2,muJ8ZgPLXSW0ladHZrfyk6RX81j2,,,,,,,,,,,,,,,,,,,,,,5e7c55274f63942a04b08c29,16:58:12,27/03/2024
html-keyboard-response,159,465083,0.0-66.0,,"<div style=""font-size:100px;"">+</div>",,delaylearn,learning,ITI,muJ8ZgPLXSW0ladHZrfyk6RX81j2,muJ8ZgPLXSW0ladHZrfyk6RX81j2,,,,,,,,,,,,,,,,,,,1928.0,,,5e7c55274f63942a04b08c29,16:58:12,27/03/2024
html-keyboard-response,160,467705,0.0-67.0-0.0,2619.100000023842,"<div style=""display: flex; flex-direction: column; align-items: center; margin-top: -40px;""><img src=""images/pattern_5.png"" style=""width: 234px; height: 230px; margin-top: -50px;""><div style=""display: flex; justify-content: space-between; margin-top: 33px;""><img src=""images/choice_trial_11.png"" style=""width: 408px; height: 417px; margin-right: 200px;""><img src=""images/choice_trial_2.png"" style=""width: 408px; height: 417px;""></div></div>",f,delaylearn,learning,trial,muJ8ZgPLXSW0ladHZrfyk6RX81j2,muJ8ZgPLXSW0ladHZrfyk6RX81j2,3.0,images/choice_trial_11.png,images/choice_trial_2.png,images/pattern_5.png,f,f,750.0,11.0,2.0,4.0,0.0,29.0,1.0,1.0,11.0,200.0,,,,,,5e7c55274f63942a04b08c29,16:58:12,27/03/2024
html-keyboard-response,161,468719,0.0-67.0-1.0,,"<div style=""display: flex; flex-direction: column; align-items: center; margin-top: -40px;""><img src=""images/pattern_5.png"" style=""width: 234px; height: 230px; margin-top: -50px;""><div style=""display: flex; justify-content: space-between; margin-top: 33px;""><img src=""images/choice_trial_11.png"" style=""width: 408px; height: 417px; margin-right: 608px;""></div></div>",,delaylearn,learning,display_response,muJ8ZgPLXSW0ladHZrfyk6RX81j2,muJ8ZgPLXSW0ladHZrfyk6RX81j2,,,,,,,,,,,,,,,,,chosen stimuli: images/choice_trial_11.png,,,,,5e7c55274f63942a04b08c29,16:58:12,27/03/2024
html-keyboard-response,162,469483,0.0-67.0-2.0,,,,delaylearn,learning,feedback_duration_window,muJ8ZgPLXSW0ladHZrfyk6RX81j2,muJ8ZgPLXSW0ladHZrfyk6RX81j2,,,,,,,,,,,,,,,,,,750.0,,,,5e7c55274f63942a04b08c29,16:58:12,27/03/2024
html-keyboard-response,163,471000,0.0-67.0-3.0,,<div style='margin:auto;width: auto; font-size: 150%'><span style='font-weight: bold; font-size: 100px; color: green;'>+10 points!</span><br><br></div>,,delaylearn,learning,feedback_image_window,muJ8ZgPLXSW0ladHZrfyk6RX81j2,muJ8ZgPLXSW0ladHZrfyk6RX81j2,,,,,,,,,,,,,,,,,,,,,,5e7c55274f63942a04b08c29,16:58:12,27/03/2024
html-keyboard-response,164,472901,0.0-68.0,,"<div style=""font-size:100px;"">+</div>",,delaylearn,learning,ITI,muJ8ZgPLXSW0ladHZrfyk6RX81j2,muJ8ZgPLXSW0ladHZrfyk6RX81j2,,,,,,,,,,,,,,,,,,,1896.0,,,5e7c55274f63942a04b08c29,16:58:12,27/03/2024
html-keyboard-response,165,475541,0.0-69.0-0.0,2637.7999999523163,"<div style=""display: flex; flex-direction: column; align-items: center; margin-top: -40px;""><img src=""images/pattern_6.png"" style=""width: 234px; height: 230px; margin-top: -50px;""><div style=""display: flex; justify-content: space-between; margin-top: 33px;""><img src=""images/choice_trial_3.png"" style=""width: 408px; height: 417px; margin-right: 200px;""><img src=""images/choice_trial_16.png"" style=""width: 408px; height: 417px;""></div></div>",j,delaylearn,learning,trial,muJ8ZgPLXSW0ladHZrfyk6RX81j2,muJ8ZgPLXSW0ladHZrfyk6RX81j2,3.0,images/choice_trial_3.png,images/choice_trial_16.png,images/pattern_6.png,j,j,750.0,3.0,16.0,5.0,1.0,30.0,1.0,1.0,16.0,210.0,,,,,,5e7c55274f63942a04b08c29,16:58:12,27/03/2024
html-keyboard-response,166,476551,0.0-69.0-1.0,,"<div style=""display: flex; flex-direction: column; align-items: center; margin-top: -40px;""><img src=""images/pattern_6.png"" style=""width: 234px; height: 230px; margin-top: -50px;""><div style=""display: flex; justify-content: space-between; margin-top: 33px;""><img src=""images/choice_trial_16.png"" style=""width: 408px; height: 417px; margin-left:608px;""></div></div>",,delaylearn,learning,display_response,muJ8ZgPLXSW0ladHZrfyk6RX81j2,muJ8ZgPLXSW0ladHZrfyk6RX81j2,,,,,,,,,,,,,,,,,chosen stimuli: images/choice_trial_16.png,,,,,5e7c55274f63942a04b08c29,16:58:12,27/03/2024
html-keyboard-response,167,477319,0.0-69.0-2.0,,,,delaylearn,learning,feedback_duration_window,muJ8ZgPLXSW0ladHZrfyk6RX81j2,muJ8ZgPLXSW0ladHZrfyk6RX81j2,,,,,,,,,,,,,,,,,,750.0,,,,5e7c55274f63942a04b08c29,16:58:12,27/03/2024
html-keyboard-response,168,478832,0.0-69.0-3.0,,<div style='margin:auto;width: auto; font-size: 150%'><span style='font-weight: bold; font-size: 100px; color: green;'>+10 points!</span><br><br></div>,,delaylearn,learning,feedback_image_window,muJ8ZgPLXSW0ladHZrfyk6RX81j2,muJ8ZgPLXSW0ladHZrfyk6RX81j2,,,,,,,,,,,,,,,,,,,,,,5e7c55274f63942a04b08c29,16:58:12,27/03/2024
html-keyboard-response,169,479333,0.0-70.0-0.0,,,,,,mood_trial_fixation,muJ8ZgPLXSW0ladHZrfyk6RX81j2,,,,,,,,,,,,,,,,,,,,,,,5e7c55274f63942a04b08c29,16:58:12,27/03/2024
lmdlab-html-vas-response,170,485769,0.0-70.0-1.0,5417.0,How happy are you right now?,0.5270302488995658,delaylearn,learning,mood_trial,muJ8ZgPLXSW0ladHZrfyk6RX81j2,muJ8ZgPLXSW0ladHZrfyk6RX81j2,,,,,,,,,,,,,,,,,,,,"['Very unhappy', 'Very happy']",,5e7c55274f63942a04b08c29,16:58:12,27/03/2024
html-keyboard-response,171,487449,0.0-71.0,,"<div style=""font-size:100px;"">+</div>",,delaylearn,learning,ITI,muJ8ZgPLXSW0ladHZrfyk6RX81j2,muJ8ZgPLXSW0ladHZrfyk6RX81j2,,,,,,,,,,,,,,,,,,,1673.0,,,5e7c55274f63942a04b08c29,16:58:12,27/03/2024
html-keyboard-response,172,490065,0.0-72.0-0.0,2614.100000023842,"<div style=""display: flex; flex-direction: column; align-items: center; margin-top: -40px;""><img src=""images/pattern_4.png"" style=""width: 234px; height: 230px; margin-top: -50px;""><div style=""display: flex; justify-content: space-between; margin-top: 33px;""><img src=""images/choice_trial_9.png"" style=""width: 408px; height: 417px; margin-right: 200px;""><img src=""images/choice_trial_15.png"" style=""width: 408px; height: 417px;""></div></div>",j,delaylearn,learning,trial,muJ8ZgPLXSW0ladHZrfyk6RX81j2,muJ8ZgPLXSW0ladHZrfyk6RX81j2,3.0,images/choice_trial_9.png,images/choice_trial_15.png,images/pattern_4.png,j,j,7000.0,9.0,15.0,3.0,1.0,31.0,1.0,1.0,15.0,220.0,,,,,,5e7c55274f63942a04b08c29,16:58:12,27/03/2024
html-keyboard-response,173,491085,0.0-72.0-1.0,,"<div style=""display: flex; flex-direction: column; align-items: center; margin-top: -40px;""><img src=""images/pattern_4.png"" style=""width: 234px; height: 230px; margin-top: -50px;""><div style=""display: flex; justify-content: space-between; margin-top: 33px;""><img src=""images/choice_trial_15.png"" style=""width: 408px; height: 417px; margin-left:608px;""></div></div>",,delaylearn,learning,display_response,muJ8ZgPLXSW0ladHZrfyk6RX81j2,muJ8ZgPLXSW0ladHZrfyk6RX81j2,,,,,,,,,,,,,,,,,chosen stimuli: images/choice_trial_15.png,,,,,5e7c55274f63942a04b08c29,16:58:12,27/03/2024
html-keyboard-response,174,498095,0.0-72.0-2.0,,,,delaylearn,learning,feedback_duration_window,muJ8ZgPLXSW0ladHZrfyk6RX81j2,muJ8ZgPLXSW0ladHZrfyk6RX81j2,,,,,,,,,,,,,,,,,,7000.0,,,,5e7c55274f63942a04b08c29,16:58:12,27/03/2024
html-keyboard-response,175,499600,0.0-72.0-3.0,,<div style='margin:auto;width: auto; font-size: 150%'><span style='font-weight: bold; font-size: 100px; color: green;'>+10 points!</span><br><br></div>,,delaylearn,learning,feedback_image_window,muJ8ZgPLXSW0ladHZrfyk6RX81j2,muJ8ZgPLXSW0ladHZrfyk6RX81j2,,,,,,,,,,,,,,,,,,,,,,5e7c55274f63942a04b08c29,16:58:12,27/03/2024
html-keyboard-response,176,502032,0.0-73.0,,"<div style=""font-size:100px;"">+</div>",,delaylearn,learning,ITI,muJ8ZgPLXSW0ladHZrfyk6RX81j2,muJ8ZgPLXSW0ladHZrfyk6RX81j2,,,,,,,,,,,,,,,,,,,2417.0,,,5e7c55274f63942a04b08c29,16:58:12,27/03/2024
html-keyboard-response,177,503384,0.0-74.0-0.0,1349.0,"<div style=""display: flex; flex-direction: column; align-items: center; margin-top: -40px;""><img src=""images/pattern_3.png"" style=""width: 234px; height: 230px; margin-top: -50px;""><div style=""display: flex; justify-content: space-between; margin-top: 33px;""><img src=""images/choice_trial_10.png"" style=""width: 408px; height: 417px; margin-right: 200px;""><img src=""images/choice_trial_13.png"" style=""width: 408px; height: 417px;""></div></div>",j,delaylearn,learning,trial,muJ8ZgPLXSW0ladHZrfyk6RX81j2,muJ8ZgPLXSW0ladHZrfyk6RX81j2,3.0,images/choice_trial_10.png,images/choice_trial_13.png,images/pattern_3.png,j,j,7000.0,10.0,13.0,2.0,1.0,32.0,1.0,1.0,13.0,230.0,,,,,,5e7c55274f63942a04b08c29,16:58:12,27/03/2024
html-keyboard-response,178,504398,0.0-74.0-1.0,,"<div style=""display: flex; flex-direction: column; align-items: center; margin-top: -40px;""><img src=""images/pattern_3.png"" style=""width: 234px; height: 230px; margin-top: -50px;""><div style=""display: flex; justify-content: space-between; margin-top: 33px;""><img src=""images/choice_trial_13.png"" style=""width: 408px; height: 417px; margin-left:608px;""></div></div>",,delaylearn,learning,display_response,muJ8ZgPLXSW0ladHZrfyk6RX81j2,muJ8ZgPLXSW0ladHZrfyk6RX81j2,,,,,,,,,,,,,,,,,chosen stimuli: images/choice_trial_13.png,,,,,5e7c55274f63942a04b08c29,16:58:12,27/03/2024
html-keyboard-response,179,511417,0.0-74.0-2.0,,,,delaylearn,learning,feedback_duration_window,muJ8ZgPLXSW0ladHZrfyk6RX81j2,muJ8ZgPLXSW0ladHZrfyk6RX81j2,,,,,,,,,,,,,,,,,,7000.0,,,,5e7c55274f63942a04b08c29,16:58:12,27/03/2024
html-keyboard-response,180,512931,0.0-74.0-3.0,,<div style='margin:auto;width: auto; font-size: 150%'><span style='font-weight: bold; font-size: 100px; color: green;'>+10 points!</span><br><br></div>,,delaylearn,learning,feedback_image_window,muJ8ZgPLXSW0ladHZrfyk6RX81j2,muJ8ZgPLXSW0ladHZrfyk6RX81j2,,,,,,,,,,,,,,,,,,,,,,5e7c55274f63942a04b08c29,16:58:12,27/03/2024
html-keyboard-response,181,515182,0.0-75.0,,"<div style=""font-size:100px;"">+</div>",,delaylearn,learning,ITI,muJ8ZgPLXSW0ladHZrfyk6RX81j2,muJ8ZgPLXSW0ladHZrfyk6RX81j2,,,,,,,,,,,,,,,,,,,2239.0,,,5e7c55274f63942a04b08c29,16:58:12,27/03/2024
html-keyboard-response,182,516809,0.0-76.0-0.0,1624.1000000238419,"<div style=""display: flex; flex-direction: column; align-items: center; margin-top: -40px;""><img src=""images/pattern_5.png"" style=""width: 234px; height: 230px; margin-top: -50px;""><div style=""display: flex; justify-content: space-between; margin-top: 33px;""><img src=""images/choice_trial_11.png"" style=""width: 408px; height: 417px; margin-right: 200px;""><img src=""images/choice_trial_2.png"" style=""width: 408px; height: 417px;""></div></div>",f,delaylearn,learning,trial,muJ8ZgPLXSW0ladHZrfyk6RX81j2,muJ8ZgPLXSW0ladHZrfyk6RX81j2,3.0,images/choice_trial_11.png,images/choice_trial_2.png,images/pattern_5.png,j,f,750.0,11.0,2.0,4.0,0.0,33.0,1.0,0.0,11.0,230.0,,,,,,5e7c55274f63942a04b08c29,16:58:12,27/03/2024
html-keyboard-response,183,517818,0.0-76.0-1.0,,"<div style=""display: flex; flex-direction: column; align-items: center; margin-top: -40px;""><img src=""images/pattern_5.png"" style=""width: 234px; height: 230px; margin-top: -50px;""><div style=""display: flex; justify-content: space-between; margin-top: 33px;""><img src=""images/choice_trial_11.png"" style=""width: 408px; height: 417px; margin-right: 608px;""></div></div>",,delaylearn,learning,display_response,muJ8ZgPLXSW0ladHZrfyk6RX81j2,muJ8ZgPLXSW0ladHZrfyk6RX81j2,,,,,,,,,,,,,,,,,chosen stimuli: images/choice_trial_11.png,,,,,5e7c55274f63942a04b08c29,16:58:12,27/03/2024
html-keyboard-response,184,518582,0.0-76.0-2.0,,,,delaylearn,learning,feedback_duration_window,muJ8ZgPLXSW0ladHZrfyk6RX81j2,muJ8ZgPLXSW0ladHZrfyk6RX81j2,,,,,,,,,,,,,,,,,,750.0,,,,5e7c55274f63942a04b08c29,16:58:12,27/03/2024
html-keyboard-response,185,520084,0.0-76.0-3.0,,<div style='margin:auto;width: auto; font-size: 150%'><span style='font-weight: bold; font-size: 100px; color: red;'>0 points!</span><br><br></div>,,delaylearn,learning,feedback_image_window,muJ8ZgPLXSW0ladHZrfyk6RX81j2,muJ8ZgPLXSW0ladHZrfyk6RX81j2,,,,,,,,,,,,,,,,,,,,,,5e7c55274f63942a04b08c29,16:58:12,27/03/2024
html-keyboard-response,186,522483,0.0-77.0,,"<div style=""font-size:100px;"">+</div>",,delaylearn,learning,ITI,muJ8ZgPLXSW0ladHZrfyk6RX81j2,muJ8ZgPLXSW0ladHZrfyk6RX81j2,,,,,,,,,,,,,,,,,,,2395.0,,,5e7c55274f63942a04b08c29,16:58:12,27/03/2024
html-keyboard-response,187,523570,0.0-78.0-0.0,1084.8999999761581,"<div style=""display: flex; flex-direction: column; align-items: center; margin-top: -40px;""><img src=""images/pattern_1.png"" style=""width: 234px; height: 230px; margin-top: -50px;""><div style=""display: flex; justify-content: space-between; margin-top: 33px;""><img src=""images/choice_trial_14.png"" style=""width: 408px; height: 417px; margin-right: 200px;""><img src=""images/choice_trial_8.png"" style=""width: 408px; height: 417px;""></div></div>",f,delaylearn,learning,trial,muJ8ZgPLXSW0ladHZrfyk6RX81j2,muJ8ZgPLXSW0ladHZrfyk6RX81j2,3.0,images/choice_trial_14.png,images/choice_trial_8.png,images/pattern_1.png,f,f,7000.0,14.0,8.0,1.0,0.0,34.0,1.0,1.0,14.0,240.0,,,,,,5e7c55274f63942a04b08c29,16:58:12,27/03/2024
html-keyboard-response,188,524581,0.0-78.0-1.0,,"<div style=""display: flex; flex-direction: column; align-items: center; margin-top: -40px;""><img src=""images/pattern_1.png"" style=""width: 234px; height: 230px; margin-top: -50px;""><div style=""display: flex; justify-content: space-between; margin-top: 33px;""><img src=""images/choice_trial_14.png"" style=""width: 408px; height: 417px; margin-right: 608px;""></div></div>",,delaylearn,learning,display_response,muJ8ZgPLXSW0ladHZrfyk6RX81j2,muJ8ZgPLXSW0ladHZrfyk6RX81j2,,,,,,,,,,,,,,,,,chosen stimuli: images/choice_trial_14.png,,,,,5e7c55274f63942a04b08c29,16:58:12,27/03/2024
html-keyboard-response,189,531585,0.0-78.0-2.0,,,,delaylearn,learning,feedback_duration_window,muJ8ZgPLXSW0ladHZrfyk6RX81j2,muJ8ZgPLXSW0ladHZrfyk6RX81j2,,,,,,,,,,,,,,,,,,7000.0,,,,5e7c55274f63942a04b08c29,16:58:12,27/03/2024
html-keyboard-response,190,533098,0.0-78.0-3.0,,<div style='margin:auto;width: auto; font-size: 150%'><span style='font-weight: bold; font-size: 100px; color: green;'>+10 points!</span><br><br></div>,,delaylearn,learning,feedback_image_window,muJ8ZgPLXSW0ladHZrfyk6RX81j2,muJ8ZgPLXSW0ladHZrfyk6RX81j2,,,,,,,,,,,,,,,,,,,,,,5e7c55274f63942a04b08c29,16:58:12,27/03/2024
html-keyboard-response,191,533617,0.0-79.0-0.0,,,,,,mood_trial_fixation,muJ8ZgPLXSW0ladHZrfyk6RX81j2,,,,,,,,,,,,,,,,,,,,,,,5e7c55274f63942a04b08c29,16:58:12,27/03/2024
lmdlab-html-vas-response,192,539086,0.0-79.0-1.0,4449.0,How happy are you right now?,0.4595148199804414,delaylearn,learning,mood_trial,muJ8ZgPLXSW0ladHZrfyk6RX81j2,muJ8ZgPLXSW0ladHZrfyk6RX81j2,,,,,,,,,,,,,,,,,,,,"['Very unhappy', 'Very happy']",,5e7c55274f63942a04b08c29,16:58:12,27/03/2024
html-keyboard-response,193,540747,0.0-80.0,,"<div style=""font-size:100px;"">+</div>",,delaylearn,learning,ITI,muJ8ZgPLXSW0ladHZrfyk6RX81j2,muJ8ZgPLXSW0ladHZrfyk6RX81j2,,,,,,,,,,,,,,,,,,,1657.0,,,5e7c55274f63942a04b08c29,16:58:12,27/03/2024
html-keyboard-response,194,541952,0.0-81.0-0.0,1202.7000000476837,"<div style=""display: flex; flex-direction: column; align-items: center; margin-top: -40px;""><img src=""images/pattern_6.png"" style=""width: 234px; height: 230px; margin-top: -50px;""><div style=""display: flex; justify-content: space-between; margin-top: 33px;""><img src=""images/choice_trial_16.png"" style=""width: 408px; height: 417px; margin-right: 200px;""><img src=""images/choice_trial_3.png"" style=""width: 408px; height: 417px;""></div></div>",f,delaylearn,learning,trial,muJ8ZgPLXSW0ladHZrfyk6RX81j2,muJ8ZgPLXSW0ladHZrfyk6RX81j2,3.0,images/choice_trial_16.png,images/choice_trial_3.png,images/pattern_6.png,j,f,750.0,16.0,3.0,5.0,0.0,35.0,1.0,0.0,16.0,240.0,,,,,,5e7c55274f63942a04b08c29,16:58:12,27/03/2024
html-keyboard-response,195,542964,0.0-81.0-1.0,,"<div style=""display: flex; flex-direction: column; align-items: center; margin-top: -40px;""><img src=""images/pattern_6.png"" style=""width: 234px; height: 230px; margin-top: -50px;""><div style=""display: flex; justify-content: space-between; margin-top: 33px;""><img src=""images/choice_trial_16.png"" style=""width: 408px; height: 417px; margin-right: 608px;""></div></div>",,delaylearn,learning,display_response,muJ8ZgPLXSW0ladHZrfyk6RX81j2,muJ8ZgPLXSW0ladHZrfyk6RX81j2,,,,,,,,,,,,,,,,,chosen stimuli: images/choice_trial_16.png,,,,,5e7c55274f63942a04b08c29,16:58:12,27/03/2024
html-keyboard-response,196,543718,0.0-81.0-2.0,,,,delaylearn,learning,feedback_duration_window,muJ8ZgPLXSW0ladHZrfyk6RX81j2,muJ8ZgPLXSW0ladHZrfyk6RX81j2,,,,,,,,,,,,,,,,,,750.0,,,,5e7c55274f63942a04b08c29,16:58:12,27/03/2024
html-keyboard-response,197,545231,0.0-81.0-3.0,,<div style='margin:auto;width: auto; font-size: 150%'><span style='font-weight: bold; font-size: 100px; color: red;'>0 points!</span><br><br></div>,,delaylearn,learning,feedback_image_window,muJ8ZgPLXSW0ladHZrfyk6RX81j2,muJ8ZgPLXSW0ladHZrfyk6RX81j2,,,,,,,,,,,,,,,,,,,,,,5e7c55274f63942a04b08c29,16:58:12,27/03/2024
html-keyboard-response,198,547583,0.0-82.0,,"<div style=""font-size:100px;"">+</div>",,delaylearn,learning,ITI,muJ8ZgPLXSW0ladHZrfyk6RX81j2,muJ8ZgPLXSW0ladHZrfyk6RX81j2,,,,,,,,,,,,,,,,,,,2347.0,,,5e7c55274f63942a04b08c29,16:58:12,27/03/2024
html-keyboard-response,199,548544,0.0-83.0-0.0,958.6000000238419,"<div style=""display: flex; flex-direction: column; align-items: center; margin-top: -40px;""><img src=""images/pattern_3.png"" style=""width: 234px; height: 230px; margin-top: -50px;""><div style=""display: flex; justify-content: space-between; margin-top: 33px;""><img src=""images/choice_trial_10.png"" style=""width: 408px; height: 417px; margin-right: 200px;""><img src=""images/choice_trial_13.png"" style=""width: 408px; height: 417px;""></div></div>",j,delaylearn,learning,trial,muJ8ZgPLXSW0ladHZrfyk6RX81j2,muJ8ZgPLXSW0ladHZrfyk6RX81j2,3.0,images/choice_trial_10.png,images/choice_trial_13.png,images/pattern_3.png,j,j,7000.0,10.0,13.0,2.0,1.0,36.0,1.0,1.0,13.0,250.0,,,,,,5e7c55274f63942a04b08c29,16:58:12,27/03/2024
html-keyboard-response,200,549554,0.0-83.0-1.0,,"<div style=""display: flex; flex-direction: column; align-items: center; margin-top: -40px;""><img src=""images/pattern_3.png"" style=""width: 234px; height: 230px; margin-top: -50px;""><div style=""display: flex; justify-content: space-between; margin-top: 33px;""><img src=""images/choice_trial_13.png"" style=""width: 408px; height: 417px; margin-left:608px;""></div></div>",,delaylearn,learning,display_response,muJ8ZgPLXSW0ladHZrfyk6RX81j2,muJ8ZgPLXSW0ladHZrfyk6RX81j2,,,,,,,,,,,,,,,,,chosen stimuli: images/choice_trial_13.png,,,,,5e7c55274f63942a04b08c29,16:58:12,27/03/2024
html-keyboard-response,201,556565,0.0-83.0-2.0,,,,delaylearn,learning,feedback_duration_window,muJ8ZgPLXSW0ladHZrfyk6RX81j2,muJ8ZgPLXSW0ladHZrfyk6RX81j2,,,,,,,,,,,,,,,,,,7000.0,,,,5e7c55274f63942a04b08c29,16:58:12,27/03/2024
html-keyboard-response,202,558083,0.0-83.0-3.0,,<div style='margin:auto;width: auto; font-size: 150%'><span style='font-weight: bold; font-size: 100px; color: green;'>+10 points!</span><br><br></div>,,delaylearn,learning,feedback_image_window,muJ8ZgPLXSW0ladHZrfyk6RX81j2,muJ8ZgPLXSW0ladHZrfyk6RX81j2,,,,,,,,,,,,,,,,,,,,,,5e7c55274f63942a04b08c29,16:58:12,27/03/2024
html-keyboard-response,203,560499,0.0-84.0,,"<div style=""font-size:100px;"">+</div>",,delaylearn,learning,ITI,muJ8ZgPLXSW0ladHZrfyk6RX81j2,muJ8ZgPLXSW0ladHZrfyk6RX81j2,,,,,,,,,,,,,,,,,,,2406.0,,,5e7c55274f63942a04b08c29,16:58:12,27/03/2024
html-keyboard-response,204,561840,0.0-85.0-0.0,1339.1000000238419,"<div style=""display: flex; flex-direction: column; align-items: center; margin-top: -40px;""><img src=""images/pattern_4.png"" style=""width: 234px; height: 230px; margin-top: -50px;""><div style=""display: flex; justify-content: space-between; margin-top: 33px;""><img src=""images/choice_trial_9.png"" style=""width: 408px; height: 417px; margin-right: 200px;""><img src=""images/choice_trial_15.png"" style=""width: 408px; height: 417px;""></div></div>",j,delaylearn,learning,trial,muJ8ZgPLXSW0ladHZrfyk6RX81j2,muJ8ZgPLXSW0ladHZrfyk6RX81j2,3.0,images/choice_trial_9.png,images/choice_trial_15.png,images/pattern_4.png,f,j,7000.0,9.0,15.0,3.0,1.0,37.0,1.0,0.0,15.0,250.0,,,,,,5e7c55274f63942a04b08c29,16:58:12,27/03/2024
html-keyboard-response,205,562850,0.0-85.0-1.0,,"<div style=""display: flex; flex-direction: column; align-items: center; margin-top: -40px;""><img src=""images/pattern_4.png"" style=""width: 234px; height: 230px; margin-top: -50px;""><div style=""display: flex; justify-content: space-between; margin-top: 33px;""><img src=""images/choice_trial_15.png"" style=""width: 408px; height: 417px; margin-left:608px;""></div></div>",,delaylearn,learning,display_response,muJ8ZgPLXSW0ladHZrfyk6RX81j2,muJ8ZgPLXSW0ladHZrfyk6RX81j2,,,,,,,,,,,,,,,,,chosen stimuli: images/choice_trial_15.png,,,,,5e7c55274f63942a04b08c29,16:58:12,27/03/2024
html-keyboard-response,206,569864,0.0-85.0-2.0,,,,delaylearn,learning,feedback_duration_window,muJ8ZgPLXSW0ladHZrfyk6RX81j2,muJ8ZgPLXSW0ladHZrfyk6RX81j2,,,,,,,,,,,,,,,,,,7000.0,,,,5e7c55274f63942a04b08c29,16:58:12,27/03/2024
html-keyboard-response,207,571382,0.0-85.0-3.0,,<div style='margin:auto;width: auto; font-size: 150%'><span style='font-weight: bold; font-size: 100px; color: red;'>0 points!</span><br><br></div>,,delaylearn,learning,feedback_image_window,muJ8ZgPLXSW0ladHZrfyk6RX81j2,muJ8ZgPLXSW0ladHZrfyk6RX81j2,,,,,,,,,,,,,,,,,,,,,,5e7c55274f63942a04b08c29,16:58:12,27/03/2024
html-keyboard-response,208,573865,0.0-86.0,,"<div style=""font-size:100px;"">+</div>",,delaylearn,learning,ITI,muJ8ZgPLXSW0ladHZrfyk6RX81j2,muJ8ZgPLXSW0ladHZrfyk6RX81j2,,,,,,,,,,,,,,,,,,,2473.0,,,5e7c55274f63942a04b08c29,16:58:12,27/03/2024
html-keyboard-response,209,574986,0.0-87.0-0.0,1117.2999999523163,"<div style=""display: flex; flex-direction: column; align-items: center; margin-top: -40px;""><img src=""images/pattern_7.png"" style=""width: 234px; height: 230px; margin-top: -50px;""><div style=""display: flex; justify-content: space-between; margin-top: 33px;""><img src=""images/choice_trial_6.png"" style=""width: 408px; height: 417px; margin-right: 200px;""><img src=""images/choice_trial_12.png"" style=""width: 408px; height: 417px;""></div></div>",f,delaylearn,learning,trial,muJ8ZgPLXSW0ladHZrfyk6RX81j2,muJ8ZgPLXSW0ladHZrfyk6RX81j2,3.0,images/choice_trial_6.png,images/choice_trial_12.png,images/pattern_7.png,f,f,750.0,6.0,12.0,6.0,0.0,38.0,1.0,1.0,6.0,260.0,,,,,,5e7c55274f63942a04b08c29,16:58:12,27/03/2024
html-keyboard-response,210,575993,0.0-87.0-1.0,,"<div style=""display: flex; flex-direction: column; align-items: center; margin-top: -40px;""><img src=""images/pattern_7.png"" style=""width: 234px; height: 230px; margin-top: -50px;""><div style=""display: flex; justify-content: space-between; margin-top: 33px;""><img src=""images/choice_trial_6.png"" style=""width: 408px; height: 417px; margin-right: 608px;""></div></div>",,delaylearn,learning,display_response,muJ8ZgPLXSW0ladHZrfyk6RX81j2,muJ8ZgPLXSW0ladHZrfyk6RX81j2,,,,,,,,,,,,,,,,,chosen stimuli: images/choice_trial_6.png,,,,,5e7c55274f63942a04b08c29,16:58:12,27/03/2024
html-keyboard-response,211,576747,0.0-87.0-2.0,,,,delaylearn,learning,feedback_duration_window,muJ8ZgPLXSW0ladHZrfyk6RX81j2,muJ8ZgPLXSW0ladHZrfyk6RX81j2,,,,,,,,,,,,,,,,,,750.0,,,,5e7c55274f63942a04b08c29,16:58:12,27/03/2024
html-keyboard-response,212,578250,0.0-87.0-3.0,,<div style='margin:auto;width: auto; font-size: 150%'><span style='font-weight: bold; font-size: 100px; color: green;'>+10 points!</span><br><br></div>,,delaylearn,learning,feedback_image_window,muJ8ZgPLXSW0ladHZrfyk6RX81j2,muJ8ZgPLXSW0ladHZrfyk6RX81j2,,,,,,,,,,,,,,,,,,,,,,5e7c55274f63942a04b08c29,16:58:12,27/03/2024
html-keyboard-response,213,580330,0.0-88.0,,"<div style=""font-size:100px;"">+</div>",,delaylearn,learning,ITI,muJ8ZgPLXSW0ladHZrfyk6RX81j2,muJ8ZgPLXSW0ladHZrfyk6RX81j2,,,,,,,,,,,,,,,,,,,2067.0,,,5e7c55274f63942a04b08c29,16:58:12,27/03/2024
html-keyboard-response,214,581436,0.0-89.0-0.0,1102.8000000715256,"<div style=""display: flex; flex-direction: column; align-items: center; margin-top: -40px;""><img src=""images/pattern_1.png"" style=""width: 234px; height: 230px; margin-top: -50px;""><div style=""display: flex; justify-content: space-between; margin-top: 33px;""><img src=""images/choice_trial_14.png"" style=""width: 408px; height: 417px; margin-right: 200px;""><img src=""images/choice_trial_8.png"" style=""width: 408px; height: 417px;""></div></div>",f,delaylearn,learning,trial,muJ8ZgPLXSW0ladHZrfyk6RX81j2,muJ8ZgPLXSW0ladHZrfyk6RX81j2,3.0,images/choice_trial_14.png,images/choice_trial_8.png,images/pattern_1.png,f,f,7000.0,14.0,8.0,1.0,0.0,39.0,1.0,1.0,14.0,270.0,,,,,,5e7c55274f63942a04b08c29,16:58:12,27/03/2024
html-keyboard-response,215,582448,0.0-89.0-1.0,,"<div style=""display: flex; flex-direction: column; align-items: center; margin-top: -40px;""><img src=""images/pattern_1.png"" style=""width: 234px; height: 230px; margin-top: -50px;""><div style=""display: flex; justify-content: space-between; margin-top: 33px;""><img src=""images/choice_trial_14.png"" style=""width: 408px; height: 417px; margin-right: 608px;""></div></div>",,delaylearn,learning,display_response,muJ8ZgPLXSW0ladHZrfyk6RX81j2,muJ8ZgPLXSW0ladHZrfyk6RX81j2,,,,,,,,,,,,,,,,,chosen stimuli: images/choice_trial_14.png,,,,,5e7c55274f63942a04b08c29,16:58:12,27/03/2024
html-keyboard-response,216,589450,0.0-89.0-2.0,,,,delaylearn,learning,feedback_duration_window,muJ8ZgPLXSW0ladHZrfyk6RX81j2,muJ8ZgPLXSW0ladHZrfyk6RX81j2,,,,,,,,,,,,,,,,,,7000.0,,,,5e7c55274f63942a04b08c29,16:58:12,27/03/2024
html-keyboard-response,217,590966,0.0-89.0-3.0,,<div style='margin:auto;width: auto; font-size: 150%'><span style='font-weight: bold; font-size: 100px; color: green;'>+10 points!</span><br><br></div>,,delaylearn,learning,feedback_image_window,muJ8ZgPLXSW0ladHZrfyk6RX81j2,muJ8ZgPLXSW0ladHZrfyk6RX81j2,,,,,,,,,,,,,,,,,,,,,,5e7c55274f63942a04b08c29,16:58:12,27/03/2024
html-keyboard-response,218,591482,0.0-90.0-0.0,,,,,,mood_trial_fixation,muJ8ZgPLXSW0ladHZrfyk6RX81j2,,,,,,,,,,,,,,,,,,,,,,,5e7c55274f63942a04b08c29,16:58:12,27/03/2024
lmdlab-html-vas-response,219,596384,0.0-90.0-1.0,3884.0,How happy are you right now?,0.46915988125460206,delaylearn,learning,mood_trial,muJ8ZgPLXSW0ladHZrfyk6RX81j2,muJ8ZgPLXSW0ladHZrfyk6RX81j2,,,,,,,,,,,,,,,,,,,,"['Very unhappy', 'Very happy']",,5e7c55274f63942a04b08c29,16:58:12,27/03/2024
html-keyboard-response,220,598883,0.0-91.0,,"<div style=""font-size:100px;"">+</div>",,delaylearn,learning,ITI,muJ8ZgPLXSW0ladHZrfyk6RX81j2,muJ8ZgPLXSW0ladHZrfyk6RX81j2,,,,,,,,,,,,,,,,,,,2486.0,,,5e7c55274f63942a04b08c29,16:58:12,27/03/2024
html-keyboard-response,221,599868,0.0-92.0-0.0,981.2999999523163,"<div style=""display: flex; flex-direction: column; align-items: center; margin-top: -40px;""><img src=""images/pattern_3.png"" style=""width: 234px; height: 230px; margin-top: -50px;""><div style=""display: flex; justify-content: space-between; margin-top: 33px;""><img src=""images/choice_trial_13.png"" style=""width: 408px; height: 417px; margin-right: 200px;""><img src=""images/choice_trial_10.png"" style=""width: 408px; height: 417px;""></div></div>",f,delaylearn,learning,trial,muJ8ZgPLXSW0ladHZrfyk6RX81j2,muJ8ZgPLXSW0ladHZrfyk6RX81j2,3.0,images/choice_trial_13.png,images/choice_trial_10.png,images/pattern_3.png,j,f,7000.0,13.0,10.0,2.0,0.0,40.0,1.0,0.0,13.0,270.0,,,,,,5e7c55274f63942a04b08c29,16:58:12,27/03/2024
html-keyboard-response,222,600880,0.0-92.0-1.0,,"<div style=""display: flex; flex-direction: column; align-items: center; margin-top: -40px;""><img src=""images/pattern_3.png"" style=""width: 234px; height: 230px; margin-top: -50px;""><div style=""display: flex; justify-content: space-between; margin-top: 33px;""><img src=""images/choice_trial_13.png"" style=""width: 408px; height: 417px; margin-right: 608px;""></div></div>",,delaylearn,learning,display_response,muJ8ZgPLXSW0ladHZrfyk6RX81j2,muJ8ZgPLXSW0ladHZrfyk6RX81j2,,,,,,,,,,,,,,,,,chosen stimuli: images/choice_trial_13.png,,,,,5e7c55274f63942a04b08c29,16:58:12,27/03/2024
html-keyboard-response,223,607897,0.0-92.0-2.0,,,,delaylearn,learning,feedback_duration_window,muJ8ZgPLXSW0ladHZrfyk6RX81j2,muJ8ZgPLXSW0ladHZrfyk6RX81j2,,,,,,,,,,,,,,,,,,7000.0,,,,5e7c55274f63942a04b08c29,16:58:12,27/03/2024
html-keyboard-response,224,609416,0.0-92.0-3.0,,<div style='margin:auto;width: auto; font-size: 150%'><span style='font-weight: bold; font-size: 100px; color: red;'>0 points!</span><br><br></div>,,delaylearn,learning,feedback_image_window,muJ8ZgPLXSW0ladHZrfyk6RX81j2,muJ8ZgPLXSW0ladHZrfyk6RX81j2,,,,,,,,,,,,,,,,,,,,,,5e7c55274f63942a04b08c29,16:58:12,27/03/2024
html-keyboard-response,225,611348,0.0-93.0,,"<div style=""font-size:100px;"">+</div>",,delaylearn,learning,ITI,muJ8ZgPLXSW0ladHZrfyk6RX81j2,muJ8ZgPLXSW0ladHZrfyk6RX81j2,,,,,,,,,,,,,,,,,,,1930.0,,,5e7c55274f63942a04b08c29,16:58:12,27/03/2024
html-keyboard-response,226,612263,0.0-94.0-0.0,912.7999999523163,"<div style=""display: flex; flex-direction: column; align-items: center; margin-top: -40px;""><img src=""images/pattern_7.png"" style=""width: 234px; height: 230px; margin-top: -50px;""><div style=""display: flex; justify-content: space-between; margin-top: 33px;""><img src=""images/choice_trial_12.png"" style=""width: 408px; height: 417px; margin-right: 200px;""><img src=""images/choice_trial_6.png"" style=""width: 408px; height: 417px;""></div></div>",j,delaylearn,learning,trial,muJ8ZgPLXSW0ladHZrfyk6RX81j2,muJ8ZgPLXSW0ladHZrfyk6RX81j2,3.0,images/choice_trial_12.png,images/choice_trial_6.png,images/pattern_7.png,j,j,750.0,12.0,6.0,6.0,1.0,41.0,1.0,1.0,6.0,280.0,,,,,,5e7c55274f63942a04b08c29,16:58:12,27/03/2024
html-keyboard-response,227,613283,0.0-94.0-1.0,,"<div style=""display: flex; flex-direction: column; align-items: center; margin-top: -40px;""><img src=""images/pattern_7.png"" style=""width: 234px; height: 230px; margin-top: -50px;""><div style=""display: flex; justify-content: space-between; margin-top: 33px;""><img src=""images/choice_trial_6.png"" style=""width: 408px; height: 417px; margin-left:608px;""></div></div>",,delaylearn,learning,display_response,muJ8ZgPLXSW0ladHZrfyk6RX81j2,muJ8ZgPLXSW0ladHZrfyk6RX81j2,,,,,,,,,,,,,,,,,chosen stimuli: images/choice_trial_6.png,,,,,5e7c55274f63942a04b08c29,16:58:12,27/03/2024
html-keyboard-response,228,614050,0.0-94.0-2.0,,,,delaylearn,learning,feedback_duration_window,muJ8ZgPLXSW0ladHZrfyk6RX81j2,muJ8ZgPLXSW0ladHZrfyk6RX81j2,,,,,,,,,,,,,,,,,,750.0,,,,5e7c55274f63942a04b08c29,16:58:12,27/03/2024
html-keyboard-response,229,615564,0.0-94.0-3.0,,<div style='margin:auto;width: auto; font-size: 150%'><span style='font-weight: bold; font-size: 100px; color: green;'>+10 points!</span><br><br></div>,,delaylearn,learning,feedback_image_window,muJ8ZgPLXSW0ladHZrfyk6RX81j2,muJ8ZgPLXSW0ladHZrfyk6RX81j2,,,,,,,,,,,,,,,,,,,,,,5e7c55274f63942a04b08c29,16:58:12,27/03/2024
html-keyboard-response,230,617747,0.0-95.0,,"<div style=""font-size:100px;"">+</div>",,delaylearn,learning,ITI,muJ8ZgPLXSW0ladHZrfyk6RX81j2,muJ8ZgPLXSW0ladHZrfyk6RX81j2,,,,,,,,,,,,,,,,,,,2176.0,,,5e7c55274f63942a04b08c29,16:58:12,27/03/2024
