trial_type,trial_index,time_elapsed,internal_node_id,rt,stimulus,response,exp_name,exp_stage,test_part,subjectID,databaseID,counterbal,choice_stimuli_1,choice_stimuli_2,pattern_stimuli,rewarded_answer,correct_answer,feedback_duration_times,stim_left,stim_right,pair,leftright_counter,trial,response_correct,response_rewarded,chosen_stim,counter,displayed_choice,feedback_durations,ITI_duration,labels,rest_warning,prolificID,start_time,date
pavlovia,0,1245,0.0-0.0,,,,,,,QL0mSPryEyVCFd2QC4iYC1ct6JP2,,,,,,,,,,,,,,,,,,,,,,,65b8200c6718c6362f486a45,10:14:54,27/02/2024
html-keyboard-response,1,4251,0.0-1.0,,"<div style=""font-size:100px;"">+</div>",,delaylearn,learning,pre_fixation,QL0mSPryEyVCFd2QC4iYC1ct6JP2,,,,,,,,,,,,,,,,,,,,,,,65b8200c6718c6362f486a45,10:14:54,27/02/2024
html-keyboard-response,2,6972,0.0-2.0-0.0,2715.7999999523163,"<div style=""display: flex; flex-direction: column; align-items: center; margin-top: -40px;""><img src=""images/demo_images/pattern_1.png"" style=""width: 234px; height: 230px; margin-top: -50px;""><div style=""display: flex; justify-content: space-between; margin-top: 33px;""><img src=""images/demo_images/choice_trial_2.png"" style=""width: 408px; height: 417px; margin-right: 200px;""><img src=""images/demo_images/choice_trial_1.png"" style=""width: 408px; height: 417px;""></div></div>",f,delaylearn,learning,trial,QL0mSPryEyVCFd2QC4iYC1ct6JP2,QL0mSPryEyVCFd2QC4iYC1ct6JP2,4.0,images/demo_images/choice_trial_2.png,images/demo_images/choice_trial_1.png,images/demo_images/pattern_1.png,j,j,3000.0,2.0,1.0,20.0,1.0,1.0,0.0,0.0,2.0,0.0,,,,,,65b8200c6718c6362f486a45,10:14:54,27/02/2024
html-keyboard-response,3,7986,0.0-2.0-1.0,,"<div style=""display: flex; flex-direction: column; align-items: center; margin-top: -40px;""><img src=""images/demo_images/pattern_1.png"" style=""width: 234px; height: 230px; margin-top: -50px;""><div style=""display: flex; justify-content: space-between; margin-top: 33px;""><img src=""images/demo_images/choice_trial_2.png"" style=""width: 408px; height: 417px; margin-right: 608px;""></div></div>",,delaylearn,learning,display_response,QL0mSPryEyVCFd2QC4iYC1ct6JP2,QL0mSPryEyVCFd2QC4iYC1ct6JP2,,,,,,,,,,,,,,,,,chosen stimuli: images/demo_images/choice_trial_2.png,,,,,65b8200c6718c6362f486a45,10:14:54,27/02/2024
html-keyboard-response,4,10992,0.0-2.0-2.0,,,,delaylearn,learning,feedback_duration_window,QL0mSPryEyVCFd2QC4iYC1ct6JP2,QL0mSPryEyVCFd2QC4iYC1ct6JP2,,,,,,,,,,,,,,,,,,3000.0,,,,65b8200c6718c6362f486a45,10:14:54,27/02/2024
html-keyboard-response,5,12508,0.0-2.0-3.0,,<div style='margin:auto;width: auto; font-size: 150%'><span style='font-weight: bold; font-size: 100px; color: red;'>0 points!</span><br><br></div>,,delaylearn,learning,feedback_image_window,QL0mSPryEyVCFd2QC4iYC1ct6JP2,QL0mSPryEyVCFd2QC4iYC1ct6JP2,,,,,,,,,,,,,,,,,,,,,,65b8200c6718c6362f486a45,10:14:54,27/02/2024
html-keyboard-response,6,14148,0.0-3.0,,"<div style=""font-size:100px;"">+</div>",,delaylearn,learning,ITI,QL0mSPryEyVCFd2QC4iYC1ct6JP2,QL0mSPryEyVCFd2QC4iYC1ct6JP2,,,,,,,,,,,,,,,,,,,1623.0,,,65b8200c6718c6362f486a45,10:14:54,27/02/2024
html-keyboard-response,7,15090,0.0-4.0-0.0,935.4000000953674,"<div style=""display: flex; flex-direction: column; align-items: center; margin-top: -40px;""><img src=""images/demo_images/pattern_1.png"" style=""width: 234px; height: 230px; margin-top: -50px;""><div style=""display: flex; justify-content: space-between; margin-top: 33px;""><img src=""images/demo_images/choice_trial_2.png"" style=""width: 408px; height: 417px; margin-right: 200px;""><img src=""images/demo_images/choice_trial_1.png"" style=""width: 408px; height: 417px;""></div></div>",j,delaylearn,learning,trial,QL0mSPryEyVCFd2QC4iYC1ct6JP2,QL0mSPryEyVCFd2QC4iYC1ct6JP2,4.0,images/demo_images/choice_trial_2.png,images/demo_images/choice_trial_1.png,images/demo_images/pattern_1.png,j,j,3000.0,2.0,1.0,20.0,1.0,2.0,1.0,1.0,1.0,10.0,,,,,,65b8200c6718c6362f486a45,10:14:54,27/02/2024
html-keyboard-response,8,16105,0.0-4.0-1.0,,"<div style=""display: flex; flex-direction: column; align-items: center; margin-top: -40px;""><img src=""images/demo_images/pattern_1.png"" style=""width: 234px; height: 230px; margin-top: -50px;""><div style=""display: flex; justify-content: space-between; margin-top: 33px;""><img src=""images/demo_images/choice_trial_1.png"" style=""width: 408px; height: 417px; margin-left:608px;""></div></div>",,delaylearn,learning,display_response,QL0mSPryEyVCFd2QC4iYC1ct6JP2,QL0mSPryEyVCFd2QC4iYC1ct6JP2,,,,,,,,,,,,,,,,,chosen stimuli: images/demo_images/choice_trial_1.png,,,,,65b8200c6718c6362f486a45,10:14:54,27/02/2024
html-keyboard-response,9,19108,0.0-4.0-2.0,,,,delaylearn,learning,feedback_duration_window,QL0mSPryEyVCFd2QC4iYC1ct6JP2,QL0mSPryEyVCFd2QC4iYC1ct6JP2,,,,,,,,,,,,,,,,,,3000.0,,,,65b8200c6718c6362f486a45,10:14:54,27/02/2024
html-keyboard-response,10,20625,0.0-4.0-3.0,,<div style='margin:auto;width: auto; font-size: 150%'><span style='font-weight: bold; font-size: 100px; color: green;'>+10 points!</span><br><br></div>,,delaylearn,learning,feedback_image_window,QL0mSPryEyVCFd2QC4iYC1ct6JP2,QL0mSPryEyVCFd2QC4iYC1ct6JP2,,,,,,,,,,,,,,,,,,,,,,65b8200c6718c6362f486a45,10:14:54,27/02/2024
html-keyboard-response,11,22597,0.0-5.0,,"<div style=""font-size:100px;"">+</div>",,delaylearn,learning,ITI,QL0mSPryEyVCFd2QC4iYC1ct6JP2,QL0mSPryEyVCFd2QC4iYC1ct6JP2,,,,,,,,,,,,,,,,,,,1971.0,,,65b8200c6718c6362f486a45,10:14:54,27/02/2024
html-keyboard-response,12,24082,0.0-6.0-0.0,1481.5,"<div style=""display: flex; flex-direction: column; align-items: center; margin-top: -40px;""><img src=""images/demo_images/pattern_1.png"" style=""width: 234px; height: 230px; margin-top: -50px;""><div style=""display: flex; justify-content: space-between; margin-top: 33px;""><img src=""images/demo_images/choice_trial_1.png"" style=""width: 408px; height: 417px; margin-right: 200px;""><img src=""images/demo_images/choice_trial_2.png"" style=""width: 408px; height: 417px;""></div></div>",f,delaylearn,learning,trial,QL0mSPryEyVCFd2QC4iYC1ct6JP2,QL0mSPryEyVCFd2QC4iYC1ct6JP2,4.0,images/demo_images/choice_trial_1.png,images/demo_images/choice_trial_2.png,images/demo_images/pattern_1.png,j,f,3000.0,1.0,2.0,20.0,0.0,3.0,1.0,0.0,1.0,10.0,,,,,,65b8200c6718c6362f486a45,10:14:54,27/02/2024
html-keyboard-response,13,25093,0.0-6.0-1.0,,"<div style=""display: flex; flex-direction: column; align-items: center; margin-top: -40px;""><img src=""images/demo_images/pattern_1.png"" style=""width: 234px; height: 230px; margin-top: -50px;""><div style=""display: flex; justify-content: space-between; margin-top: 33px;""><img src=""images/demo_images/choice_trial_1.png"" style=""width: 408px; height: 417px; margin-right: 608px;""></div></div>",,delaylearn,learning,display_response,QL0mSPryEyVCFd2QC4iYC1ct6JP2,QL0mSPryEyVCFd2QC4iYC1ct6JP2,,,,,,,,,,,,,,,,,chosen stimuli: images/demo_images/choice_trial_1.png,,,,,65b8200c6718c6362f486a45,10:14:54,27/02/2024
html-keyboard-response,14,28097,0.0-6.0-2.0,,,,delaylearn,learning,feedback_duration_window,QL0mSPryEyVCFd2QC4iYC1ct6JP2,QL0mSPryEyVCFd2QC4iYC1ct6JP2,,,,,,,,,,,,,,,,,,3000.0,,,,65b8200c6718c6362f486a45,10:14:54,27/02/2024
html-keyboard-response,15,29612,0.0-6.0-3.0,,<div style='margin:auto;width: auto; font-size: 150%'><span style='font-weight: bold; font-size: 100px; color: red;'>0 points!</span><br><br></div>,,delaylearn,learning,feedback_image_window,QL0mSPryEyVCFd2QC4iYC1ct6JP2,QL0mSPryEyVCFd2QC4iYC1ct6JP2,,,,,,,,,,,,,,,,,,,,,,65b8200c6718c6362f486a45,10:14:54,27/02/2024
html-keyboard-response,16,31962,0.0-7.0,,"<div style=""font-size:100px;"">+</div>",,delaylearn,learning,ITI,QL0mSPryEyVCFd2QC4iYC1ct6JP2,QL0mSPryEyVCFd2QC4iYC1ct6JP2,,,,,,,,,,,,,,,,,,,2338.0,,,65b8200c6718c6362f486a45,10:14:54,27/02/2024
html-keyboard-response,17,33589,0.0-8.0-0.0,1622.9000000953674,"<div style=""display: flex; flex-direction: column; align-items: center; margin-top: -40px;""><img src=""images/demo_images/pattern_1.png"" style=""width: 234px; height: 230px; margin-top: -50px;""><div style=""display: flex; justify-content: space-between; margin-top: 33px;""><img src=""images/demo_images/choice_trial_1.png"" style=""width: 408px; height: 417px; margin-right: 200px;""><img src=""images/demo_images/choice_trial_2.png"" style=""width: 408px; height: 417px;""></div></div>",j,delaylearn,learning,trial,QL0mSPryEyVCFd2QC4iYC1ct6JP2,QL0mSPryEyVCFd2QC4iYC1ct6JP2,4.0,images/demo_images/choice_trial_1.png,images/demo_images/choice_trial_2.png,images/demo_images/pattern_1.png,f,f,3000.0,1.0,2.0,20.0,0.0,4.0,0.0,0.0,2.0,10.0,,,,,,65b8200c6718c6362f486a45,10:14:54,27/02/2024
html-keyboard-response,18,34600,0.0-8.0-1.0,,"<div style=""display: flex; flex-direction: column; align-items: center; margin-top: -40px;""><img src=""images/demo_images/pattern_1.png"" style=""width: 234px; height: 230px; margin-top: -50px;""><div style=""display: flex; justify-content: space-between; margin-top: 33px;""><img src=""images/demo_images/choice_trial_2.png"" style=""width: 408px; height: 417px; margin-left:608px;""></div></div>",,delaylearn,learning,display_response,QL0mSPryEyVCFd2QC4iYC1ct6JP2,QL0mSPryEyVCFd2QC4iYC1ct6JP2,,,,,,,,,,,,,,,,,chosen stimuli: images/demo_images/choice_trial_2.png,,,,,65b8200c6718c6362f486a45,10:14:54,27/02/2024
html-keyboard-response,19,37604,0.0-8.0-2.0,,,,delaylearn,learning,feedback_duration_window,QL0mSPryEyVCFd2QC4iYC1ct6JP2,QL0mSPryEyVCFd2QC4iYC1ct6JP2,,,,,,,,,,,,,,,,,,3000.0,,,,65b8200c6718c6362f486a45,10:14:54,27/02/2024
html-keyboard-response,20,39107,0.0-8.0-3.0,,<div style='margin:auto;width: auto; font-size: 150%'><span style='font-weight: bold; font-size: 100px; color: red;'>0 points!</span><br><br></div>,,delaylearn,learning,feedback_image_window,QL0mSPryEyVCFd2QC4iYC1ct6JP2,QL0mSPryEyVCFd2QC4iYC1ct6JP2,,,,,,,,,,,,,,,,,,,,,,65b8200c6718c6362f486a45,10:14:54,27/02/2024
html-keyboard-response,21,39619,0.0-9.0-0.0,,,,,,mood_trial_fixation,QL0mSPryEyVCFd2QC4iYC1ct6JP2,,,,,,,,,,,,,,,,,,,,,,,65b8200c6718c6362f486a45,10:14:54,27/02/2024
lmdlab-html-vas-response,22,44824,0.0-9.0-1.0,4182.0,How happy are you right now?,0.8342206096775288,delaylearn,learning,mood_trial,QL0mSPryEyVCFd2QC4iYC1ct6JP2,QL0mSPryEyVCFd2QC4iYC1ct6JP2,,,,,,,,,,,,,,,,,,,,"['Very unhappy', 'Very happy']",,65b8200c6718c6362f486a45,10:14:54,27/02/2024
html-keyboard-response,23,47085,0.0-10.0,,"<div style=""font-size:100px;"">+</div>",,delaylearn,learning,ITI,QL0mSPryEyVCFd2QC4iYC1ct6JP2,QL0mSPryEyVCFd2QC4iYC1ct6JP2,,,,,,,,,,,,,,,,,,,2254.0,,,65b8200c6718c6362f486a45,10:14:54,27/02/2024
html-keyboard-response,24,48449,0.0-11.0-0.0,1360.7000000476837,"<div style=""display: flex; flex-direction: column; align-items: center; margin-top: -40px;""><img src=""images/demo_images/pattern_1.png"" style=""width: 234px; height: 230px; margin-top: -50px;""><div style=""display: flex; justify-content: space-between; margin-top: 33px;""><img src=""images/demo_images/choice_trial_2.png"" style=""width: 408px; height: 417px; margin-right: 200px;""><img src=""images/demo_images/choice_trial_1.png"" style=""width: 408px; height: 417px;""></div></div>",j,delaylearn,learning,trial,QL0mSPryEyVCFd2QC4iYC1ct6JP2,QL0mSPryEyVCFd2QC4iYC1ct6JP2,4.0,images/demo_images/choice_trial_2.png,images/demo_images/choice_trial_1.png,images/demo_images/pattern_1.png,j,j,3000.0,2.0,1.0,20.0,1.0,5.0,1.0,1.0,1.0,20.0,,,,,,65b8200c6718c6362f486a45,10:14:54,27/02/2024
html-keyboard-response,25,49459,0.0-11.0-1.0,,"<div style=""display: flex; flex-direction: column; align-items: center; margin-top: -40px;""><img src=""images/demo_images/pattern_1.png"" style=""width: 234px; height: 230px; margin-top: -50px;""><div style=""display: flex; justify-content: space-between; margin-top: 33px;""><img src=""images/demo_images/choice_trial_1.png"" style=""width: 408px; height: 417px; margin-left:608px;""></div></div>",,delaylearn,learning,display_response,QL0mSPryEyVCFd2QC4iYC1ct6JP2,QL0mSPryEyVCFd2QC4iYC1ct6JP2,,,,,,,,,,,,,,,,,chosen stimuli: images/demo_images/choice_trial_1.png,,,,,65b8200c6718c6362f486a45,10:14:54,27/02/2024
html-keyboard-response,26,52468,0.0-11.0-2.0,,,,delaylearn,learning,feedback_duration_window,QL0mSPryEyVCFd2QC4iYC1ct6JP2,QL0mSPryEyVCFd2QC4iYC1ct6JP2,,,,,,,,,,,,,,,,,,3000.0,,,,65b8200c6718c6362f486a45,10:14:54,27/02/2024
html-keyboard-response,27,53986,0.0-11.0-3.0,,<div style='margin:auto;width: auto; font-size: 150%'><span style='font-weight: bold; font-size: 100px; color: green;'>+10 points!</span><br><br></div>,,delaylearn,learning,feedback_image_window,QL0mSPryEyVCFd2QC4iYC1ct6JP2,QL0mSPryEyVCFd2QC4iYC1ct6JP2,,,,,,,,,,,,,,,,,,,,,,65b8200c6718c6362f486a45,10:14:54,27/02/2024
html-keyboard-response,28,55880,0.0-12.0,,"<div style=""font-size:100px;"">+</div>",,delaylearn,learning,ITI,QL0mSPryEyVCFd2QC4iYC1ct6JP2,QL0mSPryEyVCFd2QC4iYC1ct6JP2,,,,,,,,,,,,,,,,,,,1889.0,,,65b8200c6718c6362f486a45,10:14:54,27/02/2024
html-keyboard-response,29,57076,0.0-13.0-0.0,1191.4000000953674,"<div style=""display: flex; flex-direction: column; align-items: center; margin-top: -40px;""><img src=""images/demo_images/pattern_1.png"" style=""width: 234px; height: 230px; margin-top: -50px;""><div style=""display: flex; justify-content: space-between; margin-top: 33px;""><img src=""images/demo_images/choice_trial_1.png"" style=""width: 408px; height: 417px; margin-right: 200px;""><img src=""images/demo_images/choice_trial_2.png"" style=""width: 408px; height: 417px;""></div></div>",f,delaylearn,learning,trial,QL0mSPryEyVCFd2QC4iYC1ct6JP2,QL0mSPryEyVCFd2QC4iYC1ct6JP2,4.0,images/demo_images/choice_trial_1.png,images/demo_images/choice_trial_2.png,images/demo_images/pattern_1.png,f,f,3000.0,1.0,2.0,20.0,0.0,6.0,1.0,1.0,1.0,30.0,,,,,,65b8200c6718c6362f486a45,10:14:54,27/02/2024
html-keyboard-response,30,58090,0.0-13.0-1.0,,"<div style=""display: flex; flex-direction: column; align-items: center; margin-top: -40px;""><img src=""images/demo_images/pattern_1.png"" style=""width: 234px; height: 230px; margin-top: -50px;""><div style=""display: flex; justify-content: space-between; margin-top: 33px;""><img src=""images/demo_images/choice_trial_1.png"" style=""width: 408px; height: 417px; margin-right: 608px;""></div></div>",,delaylearn,learning,display_response,QL0mSPryEyVCFd2QC4iYC1ct6JP2,QL0mSPryEyVCFd2QC4iYC1ct6JP2,,,,,,,,,,,,,,,,,chosen stimuli: images/demo_images/choice_trial_1.png,,,,,65b8200c6718c6362f486a45,10:14:54,27/02/2024
html-keyboard-response,31,61106,0.0-13.0-2.0,,,,delaylearn,learning,feedback_duration_window,QL0mSPryEyVCFd2QC4iYC1ct6JP2,QL0mSPryEyVCFd2QC4iYC1ct6JP2,,,,,,,,,,,,,,,,,,3000.0,,,,65b8200c6718c6362f486a45,10:14:54,27/02/2024
html-keyboard-response,32,62610,0.0-13.0-3.0,,<div style='margin:auto;width: auto; font-size: 150%'><span style='font-weight: bold; font-size: 100px; color: green;'>+10 points!</span><br><br></div>,,delaylearn,learning,feedback_image_window,QL0mSPryEyVCFd2QC4iYC1ct6JP2,QL0mSPryEyVCFd2QC4iYC1ct6JP2,,,,,,,,,,,,,,,,,,,,,,65b8200c6718c6362f486a45,10:14:54,27/02/2024
html-button-response,33,67903,0.0-14.0,5289.5,"
  <div style=""display: flex; align-items: center; justify-content: center; height: 80vh;"">
  <div>
          <img src=""images/inst_demo_finish.png"" style=""width: 80vw; height:auto;"">
          <br><br>
      </div>
      <br><br>
  </div>",0,,,,QL0mSPryEyVCFd2QC4iYC1ct6JP2,,,,,,,,,,,,,,,,,,,,,,,65b8200c6718c6362f486a45,10:14:54,27/02/2024
html-keyboard-response,34,73229,0.0-15.0,5324.299999952316,"
  <div style=""display: flex; align-items: center; justify-content: center; height: 80vh;"">
  <div>
          <img src=""images/inst_6.png"" style=""width: 80vw; height:auto;"">
          <br><br>
      </div>
      <br><br>
  </div>",f,,,,QL0mSPryEyVCFd2QC4iYC1ct6JP2,,,,,,,,,,,,,,,,,,,,,,,65b8200c6718c6362f486a45,10:14:54,27/02/2024
html-keyboard-response,35,76243,0.0-16.0,,"<div style=""font-size:100px;"">+</div>",,delaylearn,learning,pre_fixation,QL0mSPryEyVCFd2QC4iYC1ct6JP2,,,,,,,,,,,,,,,,,,,,,,,65b8200c6718c6362f486a45,10:14:54,27/02/2024
html-keyboard-response,36,78495,0.0-17.0,,"<div style=""font-size:100px;"">+</div>",,delaylearn,learning,ITI,QL0mSPryEyVCFd2QC4iYC1ct6JP2,QL0mSPryEyVCFd2QC4iYC1ct6JP2,,,,,,,,,,,,,,,,,,,2240.0,,,65b8200c6718c6362f486a45,10:14:54,27/02/2024
html-keyboard-response,37,81499,0.0-18.0-0.0,,"<div style=""display: flex; flex-direction: column; align-items: center; margin-top: -40px;""><img src=""images/pattern_3.png"" style=""width: 234px; height: 230px; margin-top: -50px;""><div style=""display: flex; justify-content: space-between; margin-top: 33px;""><img src=""images/choice_trial_16.png"" style=""width: 408px; height: 417px; margin-right: 200px;""><img src=""images/choice_trial_6.png"" style=""width: 408px; height: 417px;""></div></div>",,delaylearn,learning,trial,QL0mSPryEyVCFd2QC4iYC1ct6JP2,QL0mSPryEyVCFd2QC4iYC1ct6JP2,4.0,images/choice_trial_16.png,images/choice_trial_6.png,images/pattern_3.png,f,f,7000.0,16.0,6.0,2.0,0.0,7.0,0.0,0.0,0.0,30.0,,,,,,65b8200c6718c6362f486a45,10:14:54,27/02/2024
html-keyboard-response,38,82524,0.0-18.0-1.0,,<div style='font-weight: bold; font-size: 75px; color: red;'>Missed Trial <br><br><br><br> Please respond faster</div>,,delaylearn,learning,display_response,QL0mSPryEyVCFd2QC4iYC1ct6JP2,QL0mSPryEyVCFd2QC4iYC1ct6JP2,,,,,,,,,,,,,,,,,Missed trial,,,,,65b8200c6718c6362f486a45,10:14:54,27/02/2024
html-keyboard-response,39,82530,0.0-18.0-2.0,,,,delaylearn,learning,feedback_duration_window,QL0mSPryEyVCFd2QC4iYC1ct6JP2,QL0mSPryEyVCFd2QC4iYC1ct6JP2,,,,,,,,,,,,,,,,,,0.0,,,,65b8200c6718c6362f486a45,10:14:54,27/02/2024
html-keyboard-response,40,82535,0.0-18.0-3.0,,,,delaylearn,learning,feedback_image_window,QL0mSPryEyVCFd2QC4iYC1ct6JP2,QL0mSPryEyVCFd2QC4iYC1ct6JP2,,,,,,,,,,,,,,,,,,,,,,65b8200c6718c6362f486a45,10:14:54,27/02/2024
html-keyboard-response,41,84270,0.0-19.0,,"<div style=""font-size:100px;"">+</div>",,delaylearn,learning,ITI,QL0mSPryEyVCFd2QC4iYC1ct6JP2,QL0mSPryEyVCFd2QC4iYC1ct6JP2,,,,,,,,,,,,,,,,,,,1729.0,,,65b8200c6718c6362f486a45,10:14:54,27/02/2024
html-keyboard-response,42,85462,0.0-20.0-0.0,1188.6000001430511,"<div style=""display: flex; flex-direction: column; align-items: center; margin-top: -40px;""><img src=""images/pattern_7.png"" style=""width: 234px; height: 230px; margin-top: -50px;""><div style=""display: flex; justify-content: space-between; margin-top: 33px;""><img src=""images/choice_trial_4.png"" style=""width: 408px; height: 417px; margin-right: 200px;""><img src=""images/choice_trial_13.png"" style=""width: 408px; height: 417px;""></div></div>",j,delaylearn,learning,trial,QL0mSPryEyVCFd2QC4iYC1ct6JP2,QL0mSPryEyVCFd2QC4iYC1ct6JP2,4.0,images/choice_trial_4.png,images/choice_trial_13.png,images/pattern_7.png,j,j,750.0,4.0,13.0,6.0,1.0,8.0,1.0,1.0,13.0,40.0,,,,,,65b8200c6718c6362f486a45,10:14:54,27/02/2024
html-keyboard-response,43,86478,0.0-20.0-1.0,,"<div style=""display: flex; flex-direction: column; align-items: center; margin-top: -40px;""><img src=""images/pattern_7.png"" style=""width: 234px; height: 230px; margin-top: -50px;""><div style=""display: flex; justify-content: space-between; margin-top: 33px;""><img src=""images/choice_trial_13.png"" style=""width: 408px; height: 417px; margin-left:608px;""></div></div>",,delaylearn,learning,display_response,QL0mSPryEyVCFd2QC4iYC1ct6JP2,QL0mSPryEyVCFd2QC4iYC1ct6JP2,,,,,,,,,,,,,,,,,chosen stimuli: images/choice_trial_13.png,,,,,65b8200c6718c6362f486a45,10:14:54,27/02/2024
html-keyboard-response,44,87251,0.0-20.0-2.0,,,,delaylearn,learning,feedback_duration_window,QL0mSPryEyVCFd2QC4iYC1ct6JP2,QL0mSPryEyVCFd2QC4iYC1ct6JP2,,,,,,,,,,,,,,,,,,750.0,,,,65b8200c6718c6362f486a45,10:14:54,27/02/2024
html-keyboard-response,45,88761,0.0-20.0-3.0,,<div style='margin:auto;width: auto; font-size: 150%'><span style='font-weight: bold; font-size: 100px; color: green;'>+10 points!</span><br><br></div>,,delaylearn,learning,feedback_image_window,QL0mSPryEyVCFd2QC4iYC1ct6JP2,QL0mSPryEyVCFd2QC4iYC1ct6JP2,,,,,,,,,,,,,,,,,,,,,,65b8200c6718c6362f486a45,10:14:54,27/02/2024
html-keyboard-response,46,90629,0.0-21.0,,"<div style=""font-size:100px;"">+</div>",,delaylearn,learning,ITI,QL0mSPryEyVCFd2QC4iYC1ct6JP2,QL0mSPryEyVCFd2QC4iYC1ct6JP2,,,,,,,,,,,,,,,,,,,1862.0,,,65b8200c6718c6362f486a45,10:14:54,27/02/2024
html-keyboard-response,47,91888,0.0-22.0-0.0,1256.1999998092651,"<div style=""display: flex; flex-direction: column; align-items: center; margin-top: -40px;""><img src=""images/pattern_4.png"" style=""width: 234px; height: 230px; margin-top: -50px;""><div style=""display: flex; justify-content: space-between; margin-top: 33px;""><img src=""images/choice_trial_8.png"" style=""width: 408px; height: 417px; margin-right: 200px;""><img src=""images/choice_trial_7.png"" style=""width: 408px; height: 417px;""></div></div>",f,delaylearn,learning,trial,QL0mSPryEyVCFd2QC4iYC1ct6JP2,QL0mSPryEyVCFd2QC4iYC1ct6JP2,4.0,images/choice_trial_8.png,images/choice_trial_7.png,images/pattern_4.png,f,f,7000.0,8.0,7.0,3.0,0.0,9.0,1.0,1.0,8.0,50.0,,,,,,65b8200c6718c6362f486a45,10:14:54,27/02/2024
html-keyboard-response,48,92900,0.0-22.0-1.0,,"<div style=""display: flex; flex-direction: column; align-items: center; margin-top: -40px;""><img src=""images/pattern_4.png"" style=""width: 234px; height: 230px; margin-top: -50px;""><div style=""display: flex; justify-content: space-between; margin-top: 33px;""><img src=""images/choice_trial_8.png"" style=""width: 408px; height: 417px; margin-right: 608px;""></div></div>",,delaylearn,learning,display_response,QL0mSPryEyVCFd2QC4iYC1ct6JP2,QL0mSPryEyVCFd2QC4iYC1ct6JP2,,,,,,,,,,,,,,,,,chosen stimuli: images/choice_trial_8.png,,,,,65b8200c6718c6362f486a45,10:14:54,27/02/2024
html-keyboard-response,49,99906,0.0-22.0-2.0,,,,delaylearn,learning,feedback_duration_window,QL0mSPryEyVCFd2QC4iYC1ct6JP2,QL0mSPryEyVCFd2QC4iYC1ct6JP2,,,,,,,,,,,,,,,,,,7000.0,,,,65b8200c6718c6362f486a45,10:14:54,27/02/2024
html-keyboard-response,50,101420,0.0-22.0-3.0,,<div style='margin:auto;width: auto; font-size: 150%'><span style='font-weight: bold; font-size: 100px; color: green;'>+10 points!</span><br><br></div>,,delaylearn,learning,feedback_image_window,QL0mSPryEyVCFd2QC4iYC1ct6JP2,QL0mSPryEyVCFd2QC4iYC1ct6JP2,,,,,,,,,,,,,,,,,,,,,,65b8200c6718c6362f486a45,10:14:54,27/02/2024
html-keyboard-response,51,103411,0.0-23.0,,"<div style=""font-size:100px;"">+</div>",,delaylearn,learning,ITI,QL0mSPryEyVCFd2QC4iYC1ct6JP2,QL0mSPryEyVCFd2QC4iYC1ct6JP2,,,,,,,,,,,,,,,,,,,1975.0,,,65b8200c6718c6362f486a45,10:14:54,27/02/2024
html-keyboard-response,52,105267,0.0-24.0-0.0,1852.2999999523163,"<div style=""display: flex; flex-direction: column; align-items: center; margin-top: -40px;""><img src=""images/pattern_5.png"" style=""width: 234px; height: 230px; margin-top: -50px;""><div style=""display: flex; justify-content: space-between; margin-top: 33px;""><img src=""images/choice_trial_15.png"" style=""width: 408px; height: 417px; margin-right: 200px;""><img src=""images/choice_trial_5.png"" style=""width: 408px; height: 417px;""></div></div>",f,delaylearn,learning,trial,QL0mSPryEyVCFd2QC4iYC1ct6JP2,QL0mSPryEyVCFd2QC4iYC1ct6JP2,4.0,images/choice_trial_15.png,images/choice_trial_5.png,images/pattern_5.png,j,j,750.0,15.0,5.0,4.0,1.0,10.0,0.0,0.0,15.0,50.0,,,,,,65b8200c6718c6362f486a45,10:14:54,27/02/2024
html-keyboard-response,53,106274,0.0-24.0-1.0,,"<div style=""display: flex; flex-direction: column; align-items: center; margin-top: -40px;""><img src=""images/pattern_5.png"" style=""width: 234px; height: 230px; margin-top: -50px;""><div style=""display: flex; justify-content: space-between; margin-top: 33px;""><img src=""images/choice_trial_15.png"" style=""width: 408px; height: 417px; margin-right: 608px;""></div></div>",,delaylearn,learning,display_response,QL0mSPryEyVCFd2QC4iYC1ct6JP2,QL0mSPryEyVCFd2QC4iYC1ct6JP2,,,,,,,,,,,,,,,,,chosen stimuli: images/choice_trial_15.png,,,,,65b8200c6718c6362f486a45,10:14:54,27/02/2024
html-keyboard-response,54,107040,0.0-24.0-2.0,,,,delaylearn,learning,feedback_duration_window,QL0mSPryEyVCFd2QC4iYC1ct6JP2,QL0mSPryEyVCFd2QC4iYC1ct6JP2,,,,,,,,,,,,,,,,,,750.0,,,,65b8200c6718c6362f486a45,10:14:54,27/02/2024
html-keyboard-response,55,108544,0.0-24.0-3.0,,<div style='margin:auto;width: auto; font-size: 150%'><span style='font-weight: bold; font-size: 100px; color: red;'>0 points!</span><br><br></div>,,delaylearn,learning,feedback_image_window,QL0mSPryEyVCFd2QC4iYC1ct6JP2,QL0mSPryEyVCFd2QC4iYC1ct6JP2,,,,,,,,,,,,,,,,,,,,,,65b8200c6718c6362f486a45,10:14:54,27/02/2024
html-keyboard-response,56,110187,0.0-25.0,,"<div style=""font-size:100px;"">+</div>",,delaylearn,learning,ITI,QL0mSPryEyVCFd2QC4iYC1ct6JP2,QL0mSPryEyVCFd2QC4iYC1ct6JP2,,,,,,,,,,,,,,,,,,,1637.0,,,65b8200c6718c6362f486a45,10:14:54,27/02/2024
html-keyboard-response,57,111439,0.0-26.0-0.0,1248.9000000953674,"<div style=""display: flex; flex-direction: column; align-items: center; margin-top: -40px;""><img src=""images/pattern_6.png"" style=""width: 234px; height: 230px; margin-top: -50px;""><div style=""display: flex; justify-content: space-between; margin-top: 33px;""><img src=""images/choice_trial_10.png"" style=""width: 408px; height: 417px; margin-right: 200px;""><img src=""images/choice_trial_3.png"" style=""width: 408px; height: 417px;""></div></div>",j,delaylearn,learning,trial,QL0mSPryEyVCFd2QC4iYC1ct6JP2,QL0mSPryEyVCFd2QC4iYC1ct6JP2,4.0,images/choice_trial_10.png,images/choice_trial_3.png,images/pattern_6.png,j,f,750.0,10.0,3.0,5.0,0.0,11.0,0.0,1.0,3.0,60.0,,,,,,65b8200c6718c6362f486a45,10:14:54,27/02/2024
html-keyboard-response,58,112457,0.0-26.0-1.0,,"<div style=""display: flex; flex-direction: column; align-items: center; margin-top: -40px;""><img src=""images/pattern_6.png"" style=""width: 234px; height: 230px; margin-top: -50px;""><div style=""display: flex; justify-content: space-between; margin-top: 33px;""><img src=""images/choice_trial_3.png"" style=""width: 408px; height: 417px; margin-left:608px;""></div></div>",,delaylearn,learning,display_response,QL0mSPryEyVCFd2QC4iYC1ct6JP2,QL0mSPryEyVCFd2QC4iYC1ct6JP2,,,,,,,,,,,,,,,,,chosen stimuli: images/choice_trial_3.png,,,,,65b8200c6718c6362f486a45,10:14:54,27/02/2024
html-keyboard-response,59,113211,0.0-26.0-2.0,,,,delaylearn,learning,feedback_duration_window,QL0mSPryEyVCFd2QC4iYC1ct6JP2,QL0mSPryEyVCFd2QC4iYC1ct6JP2,,,,,,,,,,,,,,,,,,750.0,,,,65b8200c6718c6362f486a45,10:14:54,27/02/2024
html-keyboard-response,60,114716,0.0-26.0-3.0,,<div style='margin:auto;width: auto; font-size: 150%'><span style='font-weight: bold; font-size: 100px; color: green;'>+10 points!</span><br><br></div>,,delaylearn,learning,feedback_image_window,QL0mSPryEyVCFd2QC4iYC1ct6JP2,QL0mSPryEyVCFd2QC4iYC1ct6JP2,,,,,,,,,,,,,,,,,,,,,,65b8200c6718c6362f486a45,10:14:54,27/02/2024
html-keyboard-response,61,115225,0.0-27.0-0.0,,,,,,mood_trial_fixation,QL0mSPryEyVCFd2QC4iYC1ct6JP2,,,,,,,,,,,,,,,,,,,,,,,65b8200c6718c6362f486a45,10:14:54,27/02/2024
lmdlab-html-vas-response,62,121693,0.0-27.0-1.0,5459.0,How happy are you right now?,0.894984910650707,delaylearn,learning,mood_trial,QL0mSPryEyVCFd2QC4iYC1ct6JP2,QL0mSPryEyVCFd2QC4iYC1ct6JP2,,,,,,,,,,,,,,,,,,,,"['Very unhappy', 'Very happy']",,65b8200c6718c6362f486a45,10:14:54,27/02/2024
html-keyboard-response,63,123935,0.0-28.0,,"<div style=""font-size:100px;"">+</div>",,delaylearn,learning,ITI,QL0mSPryEyVCFd2QC4iYC1ct6JP2,QL0mSPryEyVCFd2QC4iYC1ct6JP2,,,,,,,,,,,,,,,,,,,2238.0,,,65b8200c6718c6362f486a45,10:14:54,27/02/2024
html-keyboard-response,64,125104,0.0-29.0-0.0,1164.0999999046326,"<div style=""display: flex; flex-direction: column; align-items: center; margin-top: -40px;""><img src=""images/pattern_1.png"" style=""width: 234px; height: 230px; margin-top: -50px;""><div style=""display: flex; justify-content: space-between; margin-top: 33px;""><img src=""images/choice_trial_9.png"" style=""width: 408px; height: 417px; margin-right: 200px;""><img src=""images/choice_trial_1.png"" style=""width: 408px; height: 417px;""></div></div>",f,delaylearn,learning,trial,QL0mSPryEyVCFd2QC4iYC1ct6JP2,QL0mSPryEyVCFd2QC4iYC1ct6JP2,4.0,images/choice_trial_9.png,images/choice_trial_1.png,images/pattern_1.png,j,j,7000.0,9.0,1.0,1.0,1.0,12.0,0.0,0.0,9.0,60.0,,,,,,65b8200c6718c6362f486a45,10:14:54,27/02/2024
html-keyboard-response,65,126123,0.0-29.0-1.0,,"<div style=""display: flex; flex-direction: column; align-items: center; margin-top: -40px;""><img src=""images/pattern_1.png"" style=""width: 234px; height: 230px; margin-top: -50px;""><div style=""display: flex; justify-content: space-between; margin-top: 33px;""><img src=""images/choice_trial_9.png"" style=""width: 408px; height: 417px; margin-right: 608px;""></div></div>",,delaylearn,learning,display_response,QL0mSPryEyVCFd2QC4iYC1ct6JP2,QL0mSPryEyVCFd2QC4iYC1ct6JP2,,,,,,,,,,,,,,,,,chosen stimuli: images/choice_trial_9.png,,,,,65b8200c6718c6362f486a45,10:14:54,27/02/2024
html-keyboard-response,66,133131,0.0-29.0-2.0,,,,delaylearn,learning,feedback_duration_window,QL0mSPryEyVCFd2QC4iYC1ct6JP2,QL0mSPryEyVCFd2QC4iYC1ct6JP2,,,,,,,,,,,,,,,,,,7000.0,,,,65b8200c6718c6362f486a45,10:14:54,27/02/2024
html-keyboard-response,67,134646,0.0-29.0-3.0,,<div style='margin:auto;width: auto; font-size: 150%'><span style='font-weight: bold; font-size: 100px; color: red;'>0 points!</span><br><br></div>,,delaylearn,learning,feedback_image_window,QL0mSPryEyVCFd2QC4iYC1ct6JP2,QL0mSPryEyVCFd2QC4iYC1ct6JP2,,,,,,,,,,,,,,,,,,,,,,65b8200c6718c6362f486a45,10:14:54,27/02/2024
html-keyboard-response,68,137146,0.0-30.0,,"<div style=""font-size:100px;"">+</div>",,delaylearn,learning,ITI,QL0mSPryEyVCFd2QC4iYC1ct6JP2,QL0mSPryEyVCFd2QC4iYC1ct6JP2,,,,,,,,,,,,,,,,,,,2485.0,,,65b8200c6718c6362f486a45,10:14:54,27/02/2024
html-keyboard-response,69,138758,0.0-31.0-0.0,1608.7999999523163,"<div style=""display: flex; flex-direction: column; align-items: center; margin-top: -40px;""><img src=""images/pattern_3.png"" style=""width: 234px; height: 230px; margin-top: -50px;""><div style=""display: flex; justify-content: space-between; margin-top: 33px;""><img src=""images/choice_trial_6.png"" style=""width: 408px; height: 417px; margin-right: 200px;""><img src=""images/choice_trial_16.png"" style=""width: 408px; height: 417px;""></div></div>",j,delaylearn,learning,trial,QL0mSPryEyVCFd2QC4iYC1ct6JP2,QL0mSPryEyVCFd2QC4iYC1ct6JP2,4.0,images/choice_trial_6.png,images/choice_trial_16.png,images/pattern_3.png,f,j,7000.0,6.0,16.0,2.0,1.0,13.0,1.0,0.0,16.0,60.0,,,,,,65b8200c6718c6362f486a45,10:14:54,27/02/2024
html-keyboard-response,70,139785,0.0-31.0-1.0,,"<div style=""display: flex; flex-direction: column; align-items: center; margin-top: -40px;""><img src=""images/pattern_3.png"" style=""width: 234px; height: 230px; margin-top: -50px;""><div style=""display: flex; justify-content: space-between; margin-top: 33px;""><img src=""images/choice_trial_16.png"" style=""width: 408px; height: 417px; margin-left:608px;""></div></div>",,delaylearn,learning,display_response,QL0mSPryEyVCFd2QC4iYC1ct6JP2,QL0mSPryEyVCFd2QC4iYC1ct6JP2,,,,,,,,,,,,,,,,,chosen stimuli: images/choice_trial_16.png,,,,,65b8200c6718c6362f486a45,10:14:54,27/02/2024
html-keyboard-response,71,146799,0.0-31.0-2.0,,,,delaylearn,learning,feedback_duration_window,QL0mSPryEyVCFd2QC4iYC1ct6JP2,QL0mSPryEyVCFd2QC4iYC1ct6JP2,,,,,,,,,,,,,,,,,,7000.0,,,,65b8200c6718c6362f486a45,10:14:54,27/02/2024
html-keyboard-response,72,148305,0.0-31.0-3.0,,<div style='margin:auto;width: auto; font-size: 150%'><span style='font-weight: bold; font-size: 100px; color: red;'>0 points!</span><br><br></div>,,delaylearn,learning,feedback_image_window,QL0mSPryEyVCFd2QC4iYC1ct6JP2,QL0mSPryEyVCFd2QC4iYC1ct6JP2,,,,,,,,,,,,,,,,,,,,,,65b8200c6718c6362f486a45,10:14:54,27/02/2024
html-keyboard-response,73,150762,0.0-32.0,,"<div style=""font-size:100px;"">+</div>",,delaylearn,learning,ITI,QL0mSPryEyVCFd2QC4iYC1ct6JP2,QL0mSPryEyVCFd2QC4iYC1ct6JP2,,,,,,,,,,,,,,,,,,,2445.0,,,65b8200c6718c6362f486a45,10:14:54,27/02/2024
html-keyboard-response,74,152611,0.0-33.0-0.0,1843.7999999523163,"<div style=""display: flex; flex-direction: column; align-items: center; margin-top: -40px;""><img src=""images/pattern_5.png"" style=""width: 234px; height: 230px; margin-top: -50px;""><div style=""display: flex; justify-content: space-between; margin-top: 33px;""><img src=""images/choice_trial_5.png"" style=""width: 408px; height: 417px; margin-right: 200px;""><img src=""images/choice_trial_15.png"" style=""width: 408px; height: 417px;""></div></div>",f,delaylearn,learning,trial,QL0mSPryEyVCFd2QC4iYC1ct6JP2,QL0mSPryEyVCFd2QC4iYC1ct6JP2,4.0,images/choice_trial_5.png,images/choice_trial_15.png,images/pattern_5.png,f,f,750.0,5.0,15.0,4.0,0.0,14.0,1.0,1.0,5.0,70.0,,,,,,65b8200c6718c6362f486a45,10:14:54,27/02/2024
html-keyboard-response,75,153622,0.0-33.0-1.0,,"<div style=""display: flex; flex-direction: column; align-items: center; margin-top: -40px;""><img src=""images/pattern_5.png"" style=""width: 234px; height: 230px; margin-top: -50px;""><div style=""display: flex; justify-content: space-between; margin-top: 33px;""><img src=""images/choice_trial_5.png"" style=""width: 408px; height: 417px; margin-right: 608px;""></div></div>",,delaylearn,learning,display_response,QL0mSPryEyVCFd2QC4iYC1ct6JP2,QL0mSPryEyVCFd2QC4iYC1ct6JP2,,,,,,,,,,,,,,,,,chosen stimuli: images/choice_trial_5.png,,,,,65b8200c6718c6362f486a45,10:14:54,27/02/2024
html-keyboard-response,76,154390,0.0-33.0-2.0,,,,delaylearn,learning,feedback_duration_window,QL0mSPryEyVCFd2QC4iYC1ct6JP2,QL0mSPryEyVCFd2QC4iYC1ct6JP2,,,,,,,,,,,,,,,,,,750.0,,,,65b8200c6718c6362f486a45,10:14:54,27/02/2024
html-keyboard-response,77,155906,0.0-33.0-3.0,,<div style='margin:auto;width: auto; font-size: 150%'><span style='font-weight: bold; font-size: 100px; color: green;'>+10 points!</span><br><br></div>,,delaylearn,learning,feedback_image_window,QL0mSPryEyVCFd2QC4iYC1ct6JP2,QL0mSPryEyVCFd2QC4iYC1ct6JP2,,,,,,,,,,,,,,,,,,,,,,65b8200c6718c6362f486a45,10:14:54,27/02/2024
html-keyboard-response,78,156411,0.0-34.0-0.0,,,,,,mood_trial_fixation,QL0mSPryEyVCFd2QC4iYC1ct6JP2,,,,,,,,,,,,,,,,,,,,,,,65b8200c6718c6362f486a45,10:14:54,27/02/2024
lmdlab-html-vas-response,79,161111,0.0-34.0-1.0,3682.0,How happy are you right now?,0.8689430673764877,delaylearn,learning,mood_trial,QL0mSPryEyVCFd2QC4iYC1ct6JP2,QL0mSPryEyVCFd2QC4iYC1ct6JP2,,,,,,,,,,,,,,,,,,,,"['Very unhappy', 'Very happy']",,65b8200c6718c6362f486a45,10:14:54,27/02/2024
html-keyboard-response,80,163399,0.0-35.0,,"<div style=""font-size:100px;"">+</div>",,delaylearn,learning,ITI,QL0mSPryEyVCFd2QC4iYC1ct6JP2,QL0mSPryEyVCFd2QC4iYC1ct6JP2,,,,,,,,,,,,,,,,,,,2284.0,,,65b8200c6718c6362f486a45,10:14:54,27/02/2024
html-keyboard-response,81,164689,0.0-36.0-0.0,1286.4000000953674,"<div style=""display: flex; flex-direction: column; align-items: center; margin-top: -40px;""><img src=""images/pattern_6.png"" style=""width: 234px; height: 230px; margin-top: -50px;""><div style=""display: flex; justify-content: space-between; margin-top: 33px;""><img src=""images/choice_trial_10.png"" style=""width: 408px; height: 417px; margin-right: 200px;""><img src=""images/choice_trial_3.png"" style=""width: 408px; height: 417px;""></div></div>",j,delaylearn,learning,trial,QL0mSPryEyVCFd2QC4iYC1ct6JP2,QL0mSPryEyVCFd2QC4iYC1ct6JP2,4.0,images/choice_trial_10.png,images/choice_trial_3.png,images/pattern_6.png,f,f,750.0,10.0,3.0,5.0,0.0,15.0,0.0,0.0,3.0,70.0,,,,,,65b8200c6718c6362f486a45,10:14:54,27/02/2024
html-keyboard-response,82,165695,0.0-36.0-1.0,,"<div style=""display: flex; flex-direction: column; align-items: center; margin-top: -40px;""><img src=""images/pattern_6.png"" style=""width: 234px; height: 230px; margin-top: -50px;""><div style=""display: flex; justify-content: space-between; margin-top: 33px;""><img src=""images/choice_trial_3.png"" style=""width: 408px; height: 417px; margin-left:608px;""></div></div>",,delaylearn,learning,display_response,QL0mSPryEyVCFd2QC4iYC1ct6JP2,QL0mSPryEyVCFd2QC4iYC1ct6JP2,,,,,,,,,,,,,,,,,chosen stimuli: images/choice_trial_3.png,,,,,65b8200c6718c6362f486a45,10:14:54,27/02/2024
html-keyboard-response,83,166455,0.0-36.0-2.0,,,,delaylearn,learning,feedback_duration_window,QL0mSPryEyVCFd2QC4iYC1ct6JP2,QL0mSPryEyVCFd2QC4iYC1ct6JP2,,,,,,,,,,,,,,,,,,750.0,,,,65b8200c6718c6362f486a45,10:14:54,27/02/2024
html-keyboard-response,84,167964,0.0-36.0-3.0,,<div style='margin:auto;width: auto; font-size: 150%'><span style='font-weight: bold; font-size: 100px; color: red;'>0 points!</span><br><br></div>,,delaylearn,learning,feedback_image_window,QL0mSPryEyVCFd2QC4iYC1ct6JP2,QL0mSPryEyVCFd2QC4iYC1ct6JP2,,,,,,,,,,,,,,,,,,,,,,65b8200c6718c6362f486a45,10:14:54,27/02/2024
html-keyboard-response,85,170090,0.0-37.0,,"<div style=""font-size:100px;"">+</div>",,delaylearn,learning,ITI,QL0mSPryEyVCFd2QC4iYC1ct6JP2,QL0mSPryEyVCFd2QC4iYC1ct6JP2,,,,,,,,,,,,,,,,,,,2111.0,,,65b8200c6718c6362f486a45,10:14:54,27/02/2024
html-keyboard-response,86,171347,0.0-38.0-0.0,1252.7999999523163,"<div style=""display: flex; flex-direction: column; align-items: center; margin-top: -40px;""><img src=""images/pattern_4.png"" style=""width: 234px; height: 230px; margin-top: -50px;""><div style=""display: flex; justify-content: space-between; margin-top: 33px;""><img src=""images/choice_trial_7.png"" style=""width: 408px; height: 417px; margin-right: 200px;""><img src=""images/choice_trial_8.png"" style=""width: 408px; height: 417px;""></div></div>",f,delaylearn,learning,trial,QL0mSPryEyVCFd2QC4iYC1ct6JP2,QL0mSPryEyVCFd2QC4iYC1ct6JP2,4.0,images/choice_trial_7.png,images/choice_trial_8.png,images/pattern_4.png,j,j,7000.0,7.0,8.0,3.0,1.0,16.0,0.0,0.0,7.0,70.0,,,,,,65b8200c6718c6362f486a45,10:14:54,27/02/2024
html-keyboard-response,87,172356,0.0-38.0-1.0,,"<div style=""display: flex; flex-direction: column; align-items: center; margin-top: -40px;""><img src=""images/pattern_4.png"" style=""width: 234px; height: 230px; margin-top: -50px;""><div style=""display: flex; justify-content: space-between; margin-top: 33px;""><img src=""images/choice_trial_7.png"" style=""width: 408px; height: 417px; margin-right: 608px;""></div></div>",,delaylearn,learning,display_response,QL0mSPryEyVCFd2QC4iYC1ct6JP2,QL0mSPryEyVCFd2QC4iYC1ct6JP2,,,,,,,,,,,,,,,,,chosen stimuli: images/choice_trial_7.png,,,,,65b8200c6718c6362f486a45,10:14:54,27/02/2024
html-keyboard-response,88,179363,0.0-38.0-2.0,,,,delaylearn,learning,feedback_duration_window,QL0mSPryEyVCFd2QC4iYC1ct6JP2,QL0mSPryEyVCFd2QC4iYC1ct6JP2,,,,,,,,,,,,,,,,,,7000.0,,,,65b8200c6718c6362f486a45,10:14:54,27/02/2024
html-keyboard-response,89,180879,0.0-38.0-3.0,,<div style='margin:auto;width: auto; font-size: 150%'><span style='font-weight: bold; font-size: 100px; color: red;'>0 points!</span><br><br></div>,,delaylearn,learning,feedback_image_window,QL0mSPryEyVCFd2QC4iYC1ct6JP2,QL0mSPryEyVCFd2QC4iYC1ct6JP2,,,,,,,,,,,,,,,,,,,,,,65b8200c6718c6362f486a45,10:14:54,27/02/2024
html-keyboard-response,90,182421,0.0-39.0,,"<div style=""font-size:100px;"">+</div>",,delaylearn,learning,ITI,QL0mSPryEyVCFd2QC4iYC1ct6JP2,QL0mSPryEyVCFd2QC4iYC1ct6JP2,,,,,,,,,,,,,,,,,,,1539.0,,,65b8200c6718c6362f486a45,10:14:54,27/02/2024
html-keyboard-response,91,184254,0.0-40.0-0.0,1828.7999999523163,"<div style=""display: flex; flex-direction: column; align-items: center; margin-top: -40px;""><img src=""images/pattern_7.png"" style=""width: 234px; height: 230px; margin-top: -50px;""><div style=""display: flex; justify-content: space-between; margin-top: 33px;""><img src=""images/choice_trial_13.png"" style=""width: 408px; height: 417px; margin-right: 200px;""><img src=""images/choice_trial_4.png"" style=""width: 408px; height: 417px;""></div></div>",j,delaylearn,learning,trial,QL0mSPryEyVCFd2QC4iYC1ct6JP2,QL0mSPryEyVCFd2QC4iYC1ct6JP2,4.0,images/choice_trial_13.png,images/choice_trial_4.png,images/pattern_7.png,j,f,750.0,13.0,4.0,6.0,0.0,17.0,0.0,1.0,4.0,80.0,,,,,,65b8200c6718c6362f486a45,10:14:54,27/02/2024
html-keyboard-response,92,185261,0.0-40.0-1.0,,"<div style=""display: flex; flex-direction: column; align-items: center; margin-top: -40px;""><img src=""images/pattern_7.png"" style=""width: 234px; height: 230px; margin-top: -50px;""><div style=""display: flex; justify-content: space-between; margin-top: 33px;""><img src=""images/choice_trial_4.png"" style=""width: 408px; height: 417px; margin-left:608px;""></div></div>",,delaylearn,learning,display_response,QL0mSPryEyVCFd2QC4iYC1ct6JP2,QL0mSPryEyVCFd2QC4iYC1ct6JP2,,,,,,,,,,,,,,,,,chosen stimuli: images/choice_trial_4.png,,,,,65b8200c6718c6362f486a45,10:14:54,27/02/2024
html-keyboard-response,93,186026,0.0-40.0-2.0,,,,delaylearn,learning,feedback_duration_window,QL0mSPryEyVCFd2QC4iYC1ct6JP2,QL0mSPryEyVCFd2QC4iYC1ct6JP2,,,,,,,,,,,,,,,,,,750.0,,,,65b8200c6718c6362f486a45,10:14:54,27/02/2024
html-keyboard-response,94,187532,0.0-40.0-3.0,,<div style='margin:auto;width: auto; font-size: 150%'><span style='font-weight: bold; font-size: 100px; color: green;'>+10 points!</span><br><br></div>,,delaylearn,learning,feedback_image_window,QL0mSPryEyVCFd2QC4iYC1ct6JP2,QL0mSPryEyVCFd2QC4iYC1ct6JP2,,,,,,,,,,,,,,,,,,,,,,65b8200c6718c6362f486a45,10:14:54,27/02/2024
html-keyboard-response,95,189412,0.0-41.0,,"<div style=""font-size:100px;"">+</div>",,delaylearn,learning,ITI,QL0mSPryEyVCFd2QC4iYC1ct6JP2,QL0mSPryEyVCFd2QC4iYC1ct6JP2,,,,,,,,,,,,,,,,,,,1871.0,,,65b8200c6718c6362f486a45,10:14:54,27/02/2024
html-keyboard-response,96,190526,0.0-42.0-0.0,1109.7999999523163,"<div style=""display: flex; flex-direction: column; align-items: center; margin-top: -40px;""><img src=""images/pattern_1.png"" style=""width: 234px; height: 230px; margin-top: -50px;""><div style=""display: flex; justify-content: space-between; margin-top: 33px;""><img src=""images/choice_trial_1.png"" style=""width: 408px; height: 417px; margin-right: 200px;""><img src=""images/choice_trial_9.png"" style=""width: 408px; height: 417px;""></div></div>",f,delaylearn,learning,trial,QL0mSPryEyVCFd2QC4iYC1ct6JP2,QL0mSPryEyVCFd2QC4iYC1ct6JP2,4.0,images/choice_trial_1.png,images/choice_trial_9.png,images/pattern_1.png,f,f,7000.0,1.0,9.0,1.0,0.0,18.0,1.0,1.0,1.0,90.0,,,,,,65b8200c6718c6362f486a45,10:14:54,27/02/2024
html-keyboard-response,97,191530,0.0-42.0-1.0,,"<div style=""display: flex; flex-direction: column; align-items: center; margin-top: -40px;""><img src=""images/pattern_1.png"" style=""width: 234px; height: 230px; margin-top: -50px;""><div style=""display: flex; justify-content: space-between; margin-top: 33px;""><img src=""images/choice_trial_1.png"" style=""width: 408px; height: 417px; margin-right: 608px;""></div></div>",,delaylearn,learning,display_response,QL0mSPryEyVCFd2QC4iYC1ct6JP2,QL0mSPryEyVCFd2QC4iYC1ct6JP2,,,,,,,,,,,,,,,,,chosen stimuli: images/choice_trial_1.png,,,,,65b8200c6718c6362f486a45,10:14:54,27/02/2024
html-keyboard-response,98,198537,0.0-42.0-2.0,,,,delaylearn,learning,feedback_duration_window,QL0mSPryEyVCFd2QC4iYC1ct6JP2,QL0mSPryEyVCFd2QC4iYC1ct6JP2,,,,,,,,,,,,,,,,,,7000.0,,,,65b8200c6718c6362f486a45,10:14:54,27/02/2024
html-keyboard-response,99,200042,0.0-42.0-3.0,,<div style='margin:auto;width: auto; font-size: 150%'><span style='font-weight: bold; font-size: 100px; color: green;'>+10 points!</span><br><br></div>,,delaylearn,learning,feedback_image_window,QL0mSPryEyVCFd2QC4iYC1ct6JP2,QL0mSPryEyVCFd2QC4iYC1ct6JP2,,,,,,,,,,,,,,,,,,,,,,65b8200c6718c6362f486a45,10:14:54,27/02/2024
html-keyboard-response,100,202544,0.0-43.0,,"<div style=""font-size:100px;"">+</div>",,delaylearn,learning,ITI,QL0mSPryEyVCFd2QC4iYC1ct6JP2,QL0mSPryEyVCFd2QC4iYC1ct6JP2,,,,,,,,,,,,,,,,,,,2491.0,,,65b8200c6718c6362f486a45,10:14:54,27/02/2024
html-keyboard-response,101,203736,0.0-44.0-0.0,1189.2000000476837,"<div style=""display: flex; flex-direction: column; align-items: center; margin-top: -40px;""><img src=""images/pattern_6.png"" style=""width: 234px; height: 230px; margin-top: -50px;""><div style=""display: flex; justify-content: space-between; margin-top: 33px;""><img src=""images/choice_trial_3.png"" style=""width: 408px; height: 417px; margin-right: 200px;""><img src=""images/choice_trial_10.png"" style=""width: 408px; height: 417px;""></div></div>",f,delaylearn,learning,trial,QL0mSPryEyVCFd2QC4iYC1ct6JP2,QL0mSPryEyVCFd2QC4iYC1ct6JP2,4.0,images/choice_trial_3.png,images/choice_trial_10.png,images/pattern_6.png,j,j,750.0,3.0,10.0,5.0,1.0,19.0,0.0,0.0,3.0,90.0,,,,,,65b8200c6718c6362f486a45,10:14:54,27/02/2024
html-keyboard-response,102,204749,0.0-44.0-1.0,,"<div style=""display: flex; flex-direction: column; align-items: center; margin-top: -40px;""><img src=""images/pattern_6.png"" style=""width: 234px; height: 230px; margin-top: -50px;""><div style=""display: flex; justify-content: space-between; margin-top: 33px;""><img src=""images/choice_trial_3.png"" style=""width: 408px; height: 417px; margin-right: 608px;""></div></div>",,delaylearn,learning,display_response,QL0mSPryEyVCFd2QC4iYC1ct6JP2,QL0mSPryEyVCFd2QC4iYC1ct6JP2,,,,,,,,,,,,,,,,,chosen stimuli: images/choice_trial_3.png,,,,,65b8200c6718c6362f486a45,10:14:54,27/02/2024
html-keyboard-response,103,205511,0.0-44.0-2.0,,,,delaylearn,learning,feedback_duration_window,QL0mSPryEyVCFd2QC4iYC1ct6JP2,QL0mSPryEyVCFd2QC4iYC1ct6JP2,,,,,,,,,,,,,,,,,,750.0,,,,65b8200c6718c6362f486a45,10:14:54,27/02/2024
html-keyboard-response,104,207028,0.0-44.0-3.0,,<div style='margin:auto;width: auto; font-size: 150%'><span style='font-weight: bold; font-size: 100px; color: red;'>0 points!</span><br><br></div>,,delaylearn,learning,feedback_image_window,QL0mSPryEyVCFd2QC4iYC1ct6JP2,QL0mSPryEyVCFd2QC4iYC1ct6JP2,,,,,,,,,,,,,,,,,,,,,,65b8200c6718c6362f486a45,10:14:54,27/02/2024
html-keyboard-response,105,209469,0.0-45.0,,"<div style=""font-size:100px;"">+</div>",,delaylearn,learning,ITI,QL0mSPryEyVCFd2QC4iYC1ct6JP2,QL0mSPryEyVCFd2QC4iYC1ct6JP2,,,,,,,,,,,,,,,,,,,2431.0,,,65b8200c6718c6362f486a45,10:14:54,27/02/2024
html-keyboard-response,106,211128,0.0-46.0-0.0,1654.4000000953674,"<div style=""display: flex; flex-direction: column; align-items: center; margin-top: -40px;""><img src=""images/pattern_4.png"" style=""width: 234px; height: 230px; margin-top: -50px;""><div style=""display: flex; justify-content: space-between; margin-top: 33px;""><img src=""images/choice_trial_8.png"" style=""width: 408px; height: 417px; margin-right: 200px;""><img src=""images/choice_trial_7.png"" style=""width: 408px; height: 417px;""></div></div>",j,delaylearn,learning,trial,QL0mSPryEyVCFd2QC4iYC1ct6JP2,QL0mSPryEyVCFd2QC4iYC1ct6JP2,4.0,images/choice_trial_8.png,images/choice_trial_7.png,images/pattern_4.png,f,f,7000.0,8.0,7.0,3.0,0.0,20.0,0.0,0.0,7.0,90.0,,,,,,65b8200c6718c6362f486a45,10:14:54,27/02/2024
html-keyboard-response,107,212136,0.0-46.0-1.0,,"<div style=""display: flex; flex-direction: column; align-items: center; margin-top: -40px;""><img src=""images/pattern_4.png"" style=""width: 234px; height: 230px; margin-top: -50px;""><div style=""display: flex; justify-content: space-between; margin-top: 33px;""><img src=""images/choice_trial_7.png"" style=""width: 408px; height: 417px; margin-left:608px;""></div></div>",,delaylearn,learning,display_response,QL0mSPryEyVCFd2QC4iYC1ct6JP2,QL0mSPryEyVCFd2QC4iYC1ct6JP2,,,,,,,,,,,,,,,,,chosen stimuli: images/choice_trial_7.png,,,,,65b8200c6718c6362f486a45,10:14:54,27/02/2024
html-keyboard-response,108,219153,0.0-46.0-2.0,,,,delaylearn,learning,feedback_duration_window,QL0mSPryEyVCFd2QC4iYC1ct6JP2,QL0mSPryEyVCFd2QC4iYC1ct6JP2,,,,,,,,,,,,,,,,,,7000.0,,,,65b8200c6718c6362f486a45,10:14:54,27/02/2024
html-keyboard-response,109,220661,0.0-46.0-3.0,,<div style='margin:auto;width: auto; font-size: 150%'><span style='font-weight: bold; font-size: 100px; color: red;'>0 points!</span><br><br></div>,,delaylearn,learning,feedback_image_window,QL0mSPryEyVCFd2QC4iYC1ct6JP2,QL0mSPryEyVCFd2QC4iYC1ct6JP2,,,,,,,,,,,,,,,,,,,,,,65b8200c6718c6362f486a45,10:14:54,27/02/2024
html-keyboard-response,110,221177,0.0-47.0-0.0,,,,,,mood_trial_fixation,QL0mSPryEyVCFd2QC4iYC1ct6JP2,,,,,,,,,,,,,,,,,,,,,,,65b8200c6718c6362f486a45,10:14:54,27/02/2024
lmdlab-html-vas-response,111,226249,0.0-47.0-1.0,4065.0,How happy are you right now?,0.9014953714692618,delaylearn,learning,mood_trial,QL0mSPryEyVCFd2QC4iYC1ct6JP2,QL0mSPryEyVCFd2QC4iYC1ct6JP2,,,,,,,,,,,,,,,,,,,,"['Very unhappy', 'Very happy']",,65b8200c6718c6362f486a45,10:14:54,27/02/2024
html-keyboard-response,112,228207,0.0-48.0,,"<div style=""font-size:100px;"">+</div>",,delaylearn,learning,ITI,QL0mSPryEyVCFd2QC4iYC1ct6JP2,QL0mSPryEyVCFd2QC4iYC1ct6JP2,,,,,,,,,,,,,,,,,,,1943.0,,,65b8200c6718c6362f486a45,10:14:54,27/02/2024
html-keyboard-response,113,229028,0.0-49.0-0.0,815.6000001430511,"<div style=""display: flex; flex-direction: column; align-items: center; margin-top: -40px;""><img src=""images/pattern_7.png"" style=""width: 234px; height: 230px; margin-top: -50px;""><div style=""display: flex; justify-content: space-between; margin-top: 33px;""><img src=""images/choice_trial_4.png"" style=""width: 408px; height: 417px; margin-right: 200px;""><img src=""images/choice_trial_13.png"" style=""width: 408px; height: 417px;""></div></div>",f,delaylearn,learning,trial,QL0mSPryEyVCFd2QC4iYC1ct6JP2,QL0mSPryEyVCFd2QC4iYC1ct6JP2,4.0,images/choice_trial_4.png,images/choice_trial_13.png,images/pattern_7.png,j,j,750.0,4.0,13.0,6.0,1.0,21.0,0.0,0.0,4.0,90.0,,,,,,65b8200c6718c6362f486a45,10:14:54,27/02/2024
html-keyboard-response,114,230052,0.0-49.0-1.0,,"<div style=""display: flex; flex-direction: column; align-items: center; margin-top: -40px;""><img src=""images/pattern_7.png"" style=""width: 234px; height: 230px; margin-top: -50px;""><div style=""display: flex; justify-content: space-between; margin-top: 33px;""><img src=""images/choice_trial_4.png"" style=""width: 408px; height: 417px; margin-right: 608px;""></div></div>",,delaylearn,learning,display_response,QL0mSPryEyVCFd2QC4iYC1ct6JP2,QL0mSPryEyVCFd2QC4iYC1ct6JP2,,,,,,,,,,,,,,,,,chosen stimuli: images/choice_trial_4.png,,,,,65b8200c6718c6362f486a45,10:14:54,27/02/2024
html-keyboard-response,115,230816,0.0-49.0-2.0,,,,delaylearn,learning,feedback_duration_window,QL0mSPryEyVCFd2QC4iYC1ct6JP2,QL0mSPryEyVCFd2QC4iYC1ct6JP2,,,,,,,,,,,,,,,,,,750.0,,,,65b8200c6718c6362f486a45,10:14:54,27/02/2024
html-keyboard-response,116,232332,0.0-49.0-3.0,,<div style='margin:auto;width: auto; font-size: 150%'><span style='font-weight: bold; font-size: 100px; color: red;'>0 points!</span><br><br></div>,,delaylearn,learning,feedback_image_window,QL0mSPryEyVCFd2QC4iYC1ct6JP2,QL0mSPryEyVCFd2QC4iYC1ct6JP2,,,,,,,,,,,,,,,,,,,,,,65b8200c6718c6362f486a45,10:14:54,27/02/2024
html-keyboard-response,117,234768,0.0-50.0,,"<div style=""font-size:100px;"">+</div>",,delaylearn,learning,ITI,QL0mSPryEyVCFd2QC4iYC1ct6JP2,QL0mSPryEyVCFd2QC4iYC1ct6JP2,,,,,,,,,,,,,,,,,,,2432.0,,,65b8200c6718c6362f486a45,10:14:54,27/02/2024
html-keyboard-response,118,235440,0.0-51.0-0.0,666.4000000953674,"<div style=""display: flex; flex-direction: column; align-items: center; margin-top: -40px;""><img src=""images/pattern_1.png"" style=""width: 234px; height: 230px; margin-top: -50px;""><div style=""display: flex; justify-content: space-between; margin-top: 33px;""><img src=""images/choice_trial_9.png"" style=""width: 408px; height: 417px; margin-right: 200px;""><img src=""images/choice_trial_1.png"" style=""width: 408px; height: 417px;""></div></div>",j,delaylearn,learning,trial,QL0mSPryEyVCFd2QC4iYC1ct6JP2,QL0mSPryEyVCFd2QC4iYC1ct6JP2,4.0,images/choice_trial_9.png,images/choice_trial_1.png,images/pattern_1.png,f,j,7000.0,9.0,1.0,1.0,1.0,22.0,1.0,0.0,1.0,90.0,,,,,,65b8200c6718c6362f486a45,10:14:54,27/02/2024
html-keyboard-response,119,236456,0.0-51.0-1.0,,"<div style=""display: flex; flex-direction: column; align-items: center; margin-top: -40px;""><img src=""images/pattern_1.png"" style=""width: 234px; height: 230px; margin-top: -50px;""><div style=""display: flex; justify-content: space-between; margin-top: 33px;""><img src=""images/choice_trial_1.png"" style=""width: 408px; height: 417px; margin-left:608px;""></div></div>",,delaylearn,learning,display_response,QL0mSPryEyVCFd2QC4iYC1ct6JP2,QL0mSPryEyVCFd2QC4iYC1ct6JP2,,,,,,,,,,,,,,,,,chosen stimuli: images/choice_trial_1.png,,,,,65b8200c6718c6362f486a45,10:14:54,27/02/2024
html-keyboard-response,120,243467,0.0-51.0-2.0,,,,delaylearn,learning,feedback_duration_window,QL0mSPryEyVCFd2QC4iYC1ct6JP2,QL0mSPryEyVCFd2QC4iYC1ct6JP2,,,,,,,,,,,,,,,,,,7000.0,,,,65b8200c6718c6362f486a45,10:14:54,27/02/2024
html-keyboard-response,121,244982,0.0-51.0-3.0,,<div style='margin:auto;width: auto; font-size: 150%'><span style='font-weight: bold; font-size: 100px; color: red;'>0 points!</span><br><br></div>,,delaylearn,learning,feedback_image_window,QL0mSPryEyVCFd2QC4iYC1ct6JP2,QL0mSPryEyVCFd2QC4iYC1ct6JP2,,,,,,,,,,,,,,,,,,,,,,65b8200c6718c6362f486a45,10:14:54,27/02/2024
html-keyboard-response,122,247139,0.0-52.0,,"<div style=""font-size:100px;"">+</div>",,delaylearn,learning,ITI,QL0mSPryEyVCFd2QC4iYC1ct6JP2,QL0mSPryEyVCFd2QC4iYC1ct6JP2,,,,,,,,,,,,,,,,,,,2154.0,,,65b8200c6718c6362f486a45,10:14:54,27/02/2024
html-keyboard-response,123,248462,0.0-53.0-0.0,1317.2999999523163,"<div style=""display: flex; flex-direction: column; align-items: center; margin-top: -40px;""><img src=""images/pattern_5.png"" style=""width: 234px; height: 230px; margin-top: -50px;""><div style=""display: flex; justify-content: space-between; margin-top: 33px;""><img src=""images/choice_trial_15.png"" style=""width: 408px; height: 417px; margin-right: 200px;""><img src=""images/choice_trial_5.png"" style=""width: 408px; height: 417px;""></div></div>",j,delaylearn,learning,trial,QL0mSPryEyVCFd2QC4iYC1ct6JP2,QL0mSPryEyVCFd2QC4iYC1ct6JP2,4.0,images/choice_trial_15.png,images/choice_trial_5.png,images/pattern_5.png,j,j,750.0,15.0,5.0,4.0,1.0,23.0,1.0,1.0,5.0,100.0,,,,,,65b8200c6718c6362f486a45,10:14:54,27/02/2024
html-keyboard-response,124,249475,0.0-53.0-1.0,,"<div style=""display: flex; flex-direction: column; align-items: center; margin-top: -40px;""><img src=""images/pattern_5.png"" style=""width: 234px; height: 230px; margin-top: -50px;""><div style=""display: flex; justify-content: space-between; margin-top: 33px;""><img src=""images/choice_trial_5.png"" style=""width: 408px; height: 417px; margin-left:608px;""></div></div>",,delaylearn,learning,display_response,QL0mSPryEyVCFd2QC4iYC1ct6JP2,QL0mSPryEyVCFd2QC4iYC1ct6JP2,,,,,,,,,,,,,,,,,chosen stimuli: images/choice_trial_5.png,,,,,65b8200c6718c6362f486a45,10:14:54,27/02/2024
html-keyboard-response,125,250235,0.0-53.0-2.0,,,,delaylearn,learning,feedback_duration_window,QL0mSPryEyVCFd2QC4iYC1ct6JP2,QL0mSPryEyVCFd2QC4iYC1ct6JP2,,,,,,,,,,,,,,,,,,750.0,,,,65b8200c6718c6362f486a45,10:14:54,27/02/2024
html-keyboard-response,126,251753,0.0-53.0-3.0,,<div style='margin:auto;width: auto; font-size: 150%'><span style='font-weight: bold; font-size: 100px; color: green;'>+10 points!</span><br><br></div>,,delaylearn,learning,feedback_image_window,QL0mSPryEyVCFd2QC4iYC1ct6JP2,QL0mSPryEyVCFd2QC4iYC1ct6JP2,,,,,,,,,,,,,,,,,,,,,,65b8200c6718c6362f486a45,10:14:54,27/02/2024
html-keyboard-response,127,253798,0.0-54.0,,"<div style=""font-size:100px;"">+</div>",,delaylearn,learning,ITI,QL0mSPryEyVCFd2QC4iYC1ct6JP2,QL0mSPryEyVCFd2QC4iYC1ct6JP2,,,,,,,,,,,,,,,,,,,2031.0,,,65b8200c6718c6362f486a45,10:14:54,27/02/2024
html-keyboard-response,128,255763,0.0-55.0-0.0,1960.0999999046326,"<div style=""display: flex; flex-direction: column; align-items: center; margin-top: -40px;""><img src=""images/pattern_3.png"" style=""width: 234px; height: 230px; margin-top: -50px;""><div style=""display: flex; justify-content: space-between; margin-top: 33px;""><img src=""images/choice_trial_6.png"" style=""width: 408px; height: 417px; margin-right: 200px;""><img src=""images/choice_trial_16.png"" style=""width: 408px; height: 417px;""></div></div>",f,delaylearn,learning,trial,QL0mSPryEyVCFd2QC4iYC1ct6JP2,QL0mSPryEyVCFd2QC4iYC1ct6JP2,4.0,images/choice_trial_6.png,images/choice_trial_16.png,images/pattern_3.png,j,j,7000.0,6.0,16.0,2.0,1.0,24.0,0.0,0.0,6.0,100.0,,,,,,65b8200c6718c6362f486a45,10:14:54,27/02/2024
html-keyboard-response,129,256772,0.0-55.0-1.0,,"<div style=""display: flex; flex-direction: column; align-items: center; margin-top: -40px;""><img src=""images/pattern_3.png"" style=""width: 234px; height: 230px; margin-top: -50px;""><div style=""display: flex; justify-content: space-between; margin-top: 33px;""><img src=""images/choice_trial_6.png"" style=""width: 408px; height: 417px; margin-right: 608px;""></div></div>",,delaylearn,learning,display_response,QL0mSPryEyVCFd2QC4iYC1ct6JP2,QL0mSPryEyVCFd2QC4iYC1ct6JP2,,,,,,,,,,,,,,,,,chosen stimuli: images/choice_trial_6.png,,,,,65b8200c6718c6362f486a45,10:14:54,27/02/2024
html-keyboard-response,130,263777,0.0-55.0-2.0,,,,delaylearn,learning,feedback_duration_window,QL0mSPryEyVCFd2QC4iYC1ct6JP2,QL0mSPryEyVCFd2QC4iYC1ct6JP2,,,,,,,,,,,,,,,,,,7000.0,,,,65b8200c6718c6362f486a45,10:14:54,27/02/2024
html-keyboard-response,131,265281,0.0-55.0-3.0,,<div style='margin:auto;width: auto; font-size: 150%'><span style='font-weight: bold; font-size: 100px; color: red;'>0 points!</span><br><br></div>,,delaylearn,learning,feedback_image_window,QL0mSPryEyVCFd2QC4iYC1ct6JP2,QL0mSPryEyVCFd2QC4iYC1ct6JP2,,,,,,,,,,,,,,,,,,,,,,65b8200c6718c6362f486a45,10:14:54,27/02/2024
lmdlab-html-vas-response,132,274066,0.0-56.0-0.0,7236.0,*How <b><u>confident</u></b> are you feeling about your answers at this moment?*,0.44576311417042486,rewlearn,rate_confidence,,QL0mSPryEyVCFd2QC4iYC1ct6JP2,QL0mSPryEyVCFd2QC4iYC1ct6JP2,,,,,,,,,,,,,,,,,,,,"['No confidence', 'Complete confidence']",,65b8200c6718c6362f486a45,10:14:54,27/02/2024
lmdlab-rest-trial-limit,133,285591,0.0-56.0-1.0,10010.900000095367,"<div style=""font-size:40px;""><b>Please take a break!</b><br><br><br><br><p>Great work: you earned undefined points.<br><br><br><p>You have completed part(s) 1 of 6.<br><br><br><br>When you are ready to continue<br><br><br>please click the button.</p><br><br>",0,delaylearn,learning,break,QL0mSPryEyVCFd2QC4iYC1ct6JP2,QL0mSPryEyVCFd2QC4iYC1ct6JP2,,,,,,,,,,,,,,,,,,,,,0.0,65b8200c6718c6362f486a45,10:14:54,27/02/2024
html-keyboard-response,134,288597,0.0-56.0-2.0,,"<div style=""font-size:100px;"">+</div>",,delaylearn,learning,pre_fixation,QL0mSPryEyVCFd2QC4iYC1ct6JP2,,,,,,,,,,,,,,,,,,,,,,,65b8200c6718c6362f486a45,10:14:54,27/02/2024
lmdlab-html-vas-response,135,293252,0.0-56.0-3.0-0.0,3643.0,How happy are you right now?,0.7843070767352752,delaylearn,learning,mood_baseline,QL0mSPryEyVCFd2QC4iYC1ct6JP2,QL0mSPryEyVCFd2QC4iYC1ct6JP2,,,,,,,,,,,,,,,,,,,,"['Very unhappy', 'Very happy']",,65b8200c6718c6362f486a45,10:14:54,27/02/2024
html-keyboard-response,136,294769,0.0-56.0-3.0-1.0,,,,,,mood_baseline_fixation,QL0mSPryEyVCFd2QC4iYC1ct6JP2,,,,,,,,,,,,,,,,,,,,,,,65b8200c6718c6362f486a45,10:14:54,27/02/2024
html-keyboard-response,137,296557,0.0-57.0,,"<div style=""font-size:100px;"">+</div>",,delaylearn,learning,ITI,QL0mSPryEyVCFd2QC4iYC1ct6JP2,QL0mSPryEyVCFd2QC4iYC1ct6JP2,,,,,,,,,,,,,,,,,,,1775.0,,,65b8200c6718c6362f486a45,10:14:54,27/02/2024
html-keyboard-response,138,298079,0.0-58.0-0.0,1515.7000000476837,"<div style=""display: flex; flex-direction: column; align-items: center; margin-top: -40px;""><img src=""images/pattern_7.png"" style=""width: 234px; height: 230px; margin-top: -50px;""><div style=""display: flex; justify-content: space-between; margin-top: 33px;""><img src=""images/choice_trial_4.png"" style=""width: 408px; height: 417px; margin-right: 200px;""><img src=""images/choice_trial_13.png"" style=""width: 408px; height: 417px;""></div></div>",f,delaylearn,learning,trial,QL0mSPryEyVCFd2QC4iYC1ct6JP2,QL0mSPryEyVCFd2QC4iYC1ct6JP2,4.0,images/choice_trial_4.png,images/choice_trial_13.png,images/pattern_7.png,j,j,750.0,4.0,13.0,6.0,1.0,25.0,0.0,0.0,4.0,100.0,,,,,,65b8200c6718c6362f486a45,10:14:54,27/02/2024
html-keyboard-response,139,299091,0.0-58.0-1.0,,"<div style=""display: flex; flex-direction: column; align-items: center; margin-top: -40px;""><img src=""images/pattern_7.png"" style=""width: 234px; height: 230px; margin-top: -50px;""><div style=""display: flex; justify-content: space-between; margin-top: 33px;""><img src=""images/choice_trial_4.png"" style=""width: 408px; height: 417px; margin-right: 608px;""></div></div>",,delaylearn,learning,display_response,QL0mSPryEyVCFd2QC4iYC1ct6JP2,QL0mSPryEyVCFd2QC4iYC1ct6JP2,,,,,,,,,,,,,,,,,chosen stimuli: images/choice_trial_4.png,,,,,65b8200c6718c6362f486a45,10:14:54,27/02/2024
html-keyboard-response,140,299853,0.0-58.0-2.0,,,,delaylearn,learning,feedback_duration_window,QL0mSPryEyVCFd2QC4iYC1ct6JP2,QL0mSPryEyVCFd2QC4iYC1ct6JP2,,,,,,,,,,,,,,,,,,750.0,,,,65b8200c6718c6362f486a45,10:14:54,27/02/2024
html-keyboard-response,141,301370,0.0-58.0-3.0,,<div style='margin:auto;width: auto; font-size: 150%'><span style='font-weight: bold; font-size: 100px; color: red;'>0 points!</span><br><br></div>,,delaylearn,learning,feedback_image_window,QL0mSPryEyVCFd2QC4iYC1ct6JP2,QL0mSPryEyVCFd2QC4iYC1ct6JP2,,,,,,,,,,,,,,,,,,,,,,65b8200c6718c6362f486a45,10:14:54,27/02/2024
html-keyboard-response,142,301883,0.0-59.0-0.0,,,,,,mood_trial_fixation,QL0mSPryEyVCFd2QC4iYC1ct6JP2,,,,,,,,,,,,,,,,,,,,,,,65b8200c6718c6362f486a45,10:14:54,27/02/2024
lmdlab-html-vas-response,143,308872,0.0-59.0-1.0,5980.0,How happy are you right now?,0.23091790715811603,delaylearn,learning,mood_trial,QL0mSPryEyVCFd2QC4iYC1ct6JP2,QL0mSPryEyVCFd2QC4iYC1ct6JP2,,,,,,,,,,,,,,,,,,,,"['Very unhappy', 'Very happy']",,65b8200c6718c6362f486a45,10:14:54,27/02/2024
html-keyboard-response,144,310824,0.0-60.0,,"<div style=""font-size:100px;"">+</div>",,delaylearn,learning,ITI,QL0mSPryEyVCFd2QC4iYC1ct6JP2,QL0mSPryEyVCFd2QC4iYC1ct6JP2,,,,,,,,,,,,,,,,,,,1948.0,,,65b8200c6718c6362f486a45,10:14:54,27/02/2024
html-keyboard-response,145,312023,0.0-61.0-0.0,1194.7000000476837,"<div style=""display: flex; flex-direction: column; align-items: center; margin-top: -40px;""><img src=""images/pattern_1.png"" style=""width: 234px; height: 230px; margin-top: -50px;""><div style=""display: flex; justify-content: space-between; margin-top: 33px;""><img src=""images/choice_trial_1.png"" style=""width: 408px; height: 417px; margin-right: 200px;""><img src=""images/choice_trial_9.png"" style=""width: 408px; height: 417px;""></div></div>",j,delaylearn,learning,trial,QL0mSPryEyVCFd2QC4iYC1ct6JP2,QL0mSPryEyVCFd2QC4iYC1ct6JP2,4.0,images/choice_trial_1.png,images/choice_trial_9.png,images/pattern_1.png,f,f,7000.0,1.0,9.0,1.0,0.0,26.0,0.0,0.0,9.0,100.0,,,,,,65b8200c6718c6362f486a45,10:14:54,27/02/2024
html-keyboard-response,146,313032,0.0-61.0-1.0,,"<div style=""display: flex; flex-direction: column; align-items: center; margin-top: -40px;""><img src=""images/pattern_1.png"" style=""width: 234px; height: 230px; margin-top: -50px;""><div style=""display: flex; justify-content: space-between; margin-top: 33px;""><img src=""images/choice_trial_9.png"" style=""width: 408px; height: 417px; margin-left:608px;""></div></div>",,delaylearn,learning,display_response,QL0mSPryEyVCFd2QC4iYC1ct6JP2,QL0mSPryEyVCFd2QC4iYC1ct6JP2,,,,,,,,,,,,,,,,,chosen stimuli: images/choice_trial_9.png,,,,,65b8200c6718c6362f486a45,10:14:54,27/02/2024
html-keyboard-response,147,320044,0.0-61.0-2.0,,,,delaylearn,learning,feedback_duration_window,QL0mSPryEyVCFd2QC4iYC1ct6JP2,QL0mSPryEyVCFd2QC4iYC1ct6JP2,,,,,,,,,,,,,,,,,,7000.0,,,,65b8200c6718c6362f486a45,10:14:54,27/02/2024
html-keyboard-response,148,321560,0.0-61.0-3.0,,<div style='margin:auto;width: auto; font-size: 150%'><span style='font-weight: bold; font-size: 100px; color: red;'>0 points!</span><br><br></div>,,delaylearn,learning,feedback_image_window,QL0mSPryEyVCFd2QC4iYC1ct6JP2,QL0mSPryEyVCFd2QC4iYC1ct6JP2,,,,,,,,,,,,,,,,,,,,,,65b8200c6718c6362f486a45,10:14:54,27/02/2024
html-keyboard-response,149,323592,0.0-62.0,,"<div style=""font-size:100px;"">+</div>",,delaylearn,learning,ITI,QL0mSPryEyVCFd2QC4iYC1ct6JP2,QL0mSPryEyVCFd2QC4iYC1ct6JP2,,,,,,,,,,,,,,,,,,,2021.0,,,65b8200c6718c6362f486a45,10:14:54,27/02/2024
html-keyboard-response,150,325118,0.0-63.0-0.0,1520.7999999523163,"<div style=""display: flex; flex-direction: column; align-items: center; margin-top: -40px;""><img src=""images/pattern_5.png"" style=""width: 234px; height: 230px; margin-top: -50px;""><div style=""display: flex; justify-content: space-between; margin-top: 33px;""><img src=""images/choice_trial_5.png"" style=""width: 408px; height: 417px; margin-right: 200px;""><img src=""images/choice_trial_15.png"" style=""width: 408px; height: 417px;""></div></div>",j,delaylearn,learning,trial,QL0mSPryEyVCFd2QC4iYC1ct6JP2,QL0mSPryEyVCFd2QC4iYC1ct6JP2,4.0,images/choice_trial_5.png,images/choice_trial_15.png,images/pattern_5.png,f,f,750.0,5.0,15.0,4.0,0.0,27.0,0.0,0.0,15.0,100.0,,,,,,65b8200c6718c6362f486a45,10:14:54,27/02/2024
html-keyboard-response,151,326129,0.0-63.0-1.0,,"<div style=""display: flex; flex-direction: column; align-items: center; margin-top: -40px;""><img src=""images/pattern_5.png"" style=""width: 234px; height: 230px; margin-top: -50px;""><div style=""display: flex; justify-content: space-between; margin-top: 33px;""><img src=""images/choice_trial_15.png"" style=""width: 408px; height: 417px; margin-left:608px;""></div></div>",,delaylearn,learning,display_response,QL0mSPryEyVCFd2QC4iYC1ct6JP2,QL0mSPryEyVCFd2QC4iYC1ct6JP2,,,,,,,,,,,,,,,,,chosen stimuli: images/choice_trial_15.png,,,,,65b8200c6718c6362f486a45,10:14:54,27/02/2024
html-keyboard-response,152,326895,0.0-63.0-2.0,,,,delaylearn,learning,feedback_duration_window,QL0mSPryEyVCFd2QC4iYC1ct6JP2,QL0mSPryEyVCFd2QC4iYC1ct6JP2,,,,,,,,,,,,,,,,,,750.0,,,,65b8200c6718c6362f486a45,10:14:54,27/02/2024
html-keyboard-response,153,328413,0.0-63.0-3.0,,<div style='margin:auto;width: auto; font-size: 150%'><span style='font-weight: bold; font-size: 100px; color: red;'>0 points!</span><br><br></div>,,delaylearn,learning,feedback_image_window,QL0mSPryEyVCFd2QC4iYC1ct6JP2,QL0mSPryEyVCFd2QC4iYC1ct6JP2,,,,,,,,,,,,,,,,,,,,,,65b8200c6718c6362f486a45,10:14:54,27/02/2024
html-keyboard-response,154,330405,0.0-64.0,,"<div style=""font-size:100px;"">+</div>",,delaylearn,learning,ITI,QL0mSPryEyVCFd2QC4iYC1ct6JP2,QL0mSPryEyVCFd2QC4iYC1ct6JP2,,,,,,,,,,,,,,,,,,,1979.0,,,65b8200c6718c6362f486a45,10:14:54,27/02/2024
html-keyboard-response,155,331341,0.0-65.0-0.0,932.7000000476837,"<div style=""display: flex; flex-direction: column; align-items: center; margin-top: -40px;""><img src=""images/pattern_6.png"" style=""width: 234px; height: 230px; margin-top: -50px;""><div style=""display: flex; justify-content: space-between; margin-top: 33px;""><img src=""images/choice_trial_3.png"" style=""width: 408px; height: 417px; margin-right: 200px;""><img src=""images/choice_trial_10.png"" style=""width: 408px; height: 417px;""></div></div>",f,delaylearn,learning,trial,QL0mSPryEyVCFd2QC4iYC1ct6JP2,QL0mSPryEyVCFd2QC4iYC1ct6JP2,4.0,images/choice_trial_3.png,images/choice_trial_10.png,images/pattern_6.png,j,j,750.0,3.0,10.0,5.0,1.0,28.0,0.0,0.0,3.0,100.0,,,,,,65b8200c6718c6362f486a45,10:14:54,27/02/2024
html-keyboard-response,156,332348,0.0-65.0-1.0,,"<div style=""display: flex; flex-direction: column; align-items: center; margin-top: -40px;""><img src=""images/pattern_6.png"" style=""width: 234px; height: 230px; margin-top: -50px;""><div style=""display: flex; justify-content: space-between; margin-top: 33px;""><img src=""images/choice_trial_3.png"" style=""width: 408px; height: 417px; margin-right: 608px;""></div></div>",,delaylearn,learning,display_response,QL0mSPryEyVCFd2QC4iYC1ct6JP2,QL0mSPryEyVCFd2QC4iYC1ct6JP2,,,,,,,,,,,,,,,,,chosen stimuli: images/choice_trial_3.png,,,,,65b8200c6718c6362f486a45,10:14:54,27/02/2024
html-keyboard-response,157,333118,0.0-65.0-2.0,,,,delaylearn,learning,feedback_duration_window,QL0mSPryEyVCFd2QC4iYC1ct6JP2,QL0mSPryEyVCFd2QC4iYC1ct6JP2,,,,,,,,,,,,,,,,,,750.0,,,,65b8200c6718c6362f486a45,10:14:54,27/02/2024
html-keyboard-response,158,334630,0.0-65.0-3.0,,<div style='margin:auto;width: auto; font-size: 150%'><span style='font-weight: bold; font-size: 100px; color: red;'>0 points!</span><br><br></div>,,delaylearn,learning,feedback_image_window,QL0mSPryEyVCFd2QC4iYC1ct6JP2,QL0mSPryEyVCFd2QC4iYC1ct6JP2,,,,,,,,,,,,,,,,,,,,,,65b8200c6718c6362f486a45,10:14:54,27/02/2024
html-keyboard-response,159,335146,0.0-66.0-0.0,,,,,,mood_trial_fixation,QL0mSPryEyVCFd2QC4iYC1ct6JP2,,,,,,,,,,,,,,,,,,,,,,,65b8200c6718c6362f486a45,10:14:54,27/02/2024
lmdlab-html-vas-response,160,339853,0.0-66.0-1.0,3697.0,How happy are you right now?,0.20704621749008173,delaylearn,learning,mood_trial,QL0mSPryEyVCFd2QC4iYC1ct6JP2,QL0mSPryEyVCFd2QC4iYC1ct6JP2,,,,,,,,,,,,,,,,,,,,"['Very unhappy', 'Very happy']",,65b8200c6718c6362f486a45,10:14:54,27/02/2024
html-keyboard-response,161,342039,0.0-67.0,,"<div style=""font-size:100px;"">+</div>",,delaylearn,learning,ITI,QL0mSPryEyVCFd2QC4iYC1ct6JP2,QL0mSPryEyVCFd2QC4iYC1ct6JP2,,,,,,,,,,,,,,,,,,,2170.0,,,65b8200c6718c6362f486a45,10:14:54,27/02/2024
html-keyboard-response,162,343563,0.0-68.0-0.0,1519.4000000953674,"<div style=""display: flex; flex-direction: column; align-items: center; margin-top: -40px;""><img src=""images/pattern_4.png"" style=""width: 234px; height: 230px; margin-top: -50px;""><div style=""display: flex; justify-content: space-between; margin-top: 33px;""><img src=""images/choice_trial_7.png"" style=""width: 408px; height: 417px; margin-right: 200px;""><img src=""images/choice_trial_8.png"" style=""width: 408px; height: 417px;""></div></div>",j,delaylearn,learning,trial,QL0mSPryEyVCFd2QC4iYC1ct6JP2,QL0mSPryEyVCFd2QC4iYC1ct6JP2,4.0,images/choice_trial_7.png,images/choice_trial_8.png,images/pattern_4.png,j,j,7000.0,7.0,8.0,3.0,1.0,29.0,1.0,1.0,8.0,110.0,,,,,,65b8200c6718c6362f486a45,10:14:54,27/02/2024
html-keyboard-response,163,344574,0.0-68.0-1.0,,"<div style=""display: flex; flex-direction: column; align-items: center; margin-top: -40px;""><img src=""images/pattern_4.png"" style=""width: 234px; height: 230px; margin-top: -50px;""><div style=""display: flex; justify-content: space-between; margin-top: 33px;""><img src=""images/choice_trial_8.png"" style=""width: 408px; height: 417px; margin-left:608px;""></div></div>",,delaylearn,learning,display_response,QL0mSPryEyVCFd2QC4iYC1ct6JP2,QL0mSPryEyVCFd2QC4iYC1ct6JP2,,,,,,,,,,,,,,,,,chosen stimuli: images/choice_trial_8.png,,,,,65b8200c6718c6362f486a45,10:14:54,27/02/2024
html-keyboard-response,164,351582,0.0-68.0-2.0,,,,delaylearn,learning,feedback_duration_window,QL0mSPryEyVCFd2QC4iYC1ct6JP2,QL0mSPryEyVCFd2QC4iYC1ct6JP2,,,,,,,,,,,,,,,,,,7000.0,,,,65b8200c6718c6362f486a45,10:14:54,27/02/2024
html-keyboard-response,165,353097,0.0-68.0-3.0,,<div style='margin:auto;width: auto; font-size: 150%'><span style='font-weight: bold; font-size: 100px; color: green;'>+10 points!</span><br><br></div>,,delaylearn,learning,feedback_image_window,QL0mSPryEyVCFd2QC4iYC1ct6JP2,QL0mSPryEyVCFd2QC4iYC1ct6JP2,,,,,,,,,,,,,,,,,,,,,,65b8200c6718c6362f486a45,10:14:54,27/02/2024
html-keyboard-response,166,355400,0.0-69.0,,"<div style=""font-size:100px;"">+</div>",,delaylearn,learning,ITI,QL0mSPryEyVCFd2QC4iYC1ct6JP2,QL0mSPryEyVCFd2QC4iYC1ct6JP2,,,,,,,,,,,,,,,,,,,2299.0,,,65b8200c6718c6362f486a45,10:14:54,27/02/2024
html-keyboard-response,167,357924,0.0-70.0-0.0,2520.2000000476837,"<div style=""display: flex; flex-direction: column; align-items: center; margin-top: -40px;""><img src=""images/pattern_3.png"" style=""width: 234px; height: 230px; margin-top: -50px;""><div style=""display: flex; justify-content: space-between; margin-top: 33px;""><img src=""images/choice_trial_6.png"" style=""width: 408px; height: 417px; margin-right: 200px;""><img src=""images/choice_trial_16.png"" style=""width: 408px; height: 417px;""></div></div>",f,delaylearn,learning,trial,QL0mSPryEyVCFd2QC4iYC1ct6JP2,QL0mSPryEyVCFd2QC4iYC1ct6JP2,4.0,images/choice_trial_6.png,images/choice_trial_16.png,images/pattern_3.png,j,j,7000.0,6.0,16.0,2.0,1.0,30.0,0.0,0.0,6.0,110.0,,,,,,65b8200c6718c6362f486a45,10:14:54,27/02/2024
html-keyboard-response,168,358936,0.0-70.0-1.0,,"<div style=""display: flex; flex-direction: column; align-items: center; margin-top: -40px;""><img src=""images/pattern_3.png"" style=""width: 234px; height: 230px; margin-top: -50px;""><div style=""display: flex; justify-content: space-between; margin-top: 33px;""><img src=""images/choice_trial_6.png"" style=""width: 408px; height: 417px; margin-right: 608px;""></div></div>",,delaylearn,learning,display_response,QL0mSPryEyVCFd2QC4iYC1ct6JP2,QL0mSPryEyVCFd2QC4iYC1ct6JP2,,,,,,,,,,,,,,,,,chosen stimuli: images/choice_trial_6.png,,,,,65b8200c6718c6362f486a45,10:14:54,27/02/2024
html-keyboard-response,169,365949,0.0-70.0-2.0,,,,delaylearn,learning,feedback_duration_window,QL0mSPryEyVCFd2QC4iYC1ct6JP2,QL0mSPryEyVCFd2QC4iYC1ct6JP2,,,,,,,,,,,,,,,,,,7000.0,,,,65b8200c6718c6362f486a45,10:14:54,27/02/2024
html-keyboard-response,170,367454,0.0-70.0-3.0,,<div style='margin:auto;width: auto; font-size: 150%'><span style='font-weight: bold; font-size: 100px; color: red;'>0 points!</span><br><br></div>,,delaylearn,learning,feedback_image_window,QL0mSPryEyVCFd2QC4iYC1ct6JP2,QL0mSPryEyVCFd2QC4iYC1ct6JP2,,,,,,,,,,,,,,,,,,,,,,65b8200c6718c6362f486a45,10:14:54,27/02/2024
html-keyboard-response,171,369454,0.0-71.0,,"<div style=""font-size:100px;"">+</div>",,delaylearn,learning,ITI,QL0mSPryEyVCFd2QC4iYC1ct6JP2,QL0mSPryEyVCFd2QC4iYC1ct6JP2,,,,,,,,,,,,,,,,,,,1992.0,,,65b8200c6718c6362f486a45,10:14:54,27/02/2024
html-keyboard-response,172,371524,0.0-72.0-0.0,2065.5,"<div style=""display: flex; flex-direction: column; align-items: center; margin-top: -40px;""><img src=""images/pattern_5.png"" style=""width: 234px; height: 230px; margin-top: -50px;""><div style=""display: flex; justify-content: space-between; margin-top: 33px;""><img src=""images/choice_trial_5.png"" style=""width: 408px; height: 417px; margin-right: 200px;""><img src=""images/choice_trial_15.png"" style=""width: 408px; height: 417px;""></div></div>",j,delaylearn,learning,trial,QL0mSPryEyVCFd2QC4iYC1ct6JP2,QL0mSPryEyVCFd2QC4iYC1ct6JP2,4.0,images/choice_trial_5.png,images/choice_trial_15.png,images/pattern_5.png,j,f,750.0,5.0,15.0,4.0,0.0,31.0,0.0,1.0,15.0,120.0,,,,,,65b8200c6718c6362f486a45,10:14:54,27/02/2024
html-keyboard-response,173,372536,0.0-72.0-1.0,,"<div style=""display: flex; flex-direction: column; align-items: center; margin-top: -40px;""><img src=""images/pattern_5.png"" style=""width: 234px; height: 230px; margin-top: -50px;""><div style=""display: flex; justify-content: space-between; margin-top: 33px;""><img src=""images/choice_trial_15.png"" style=""width: 408px; height: 417px; margin-left:608px;""></div></div>",,delaylearn,learning,display_response,QL0mSPryEyVCFd2QC4iYC1ct6JP2,QL0mSPryEyVCFd2QC4iYC1ct6JP2,,,,,,,,,,,,,,,,,chosen stimuli: images/choice_trial_15.png,,,,,65b8200c6718c6362f486a45,10:14:54,27/02/2024
html-keyboard-response,174,373305,0.0-72.0-2.0,,,,delaylearn,learning,feedback_duration_window,QL0mSPryEyVCFd2QC4iYC1ct6JP2,QL0mSPryEyVCFd2QC4iYC1ct6JP2,,,,,,,,,,,,,,,,,,750.0,,,,65b8200c6718c6362f486a45,10:14:54,27/02/2024
html-keyboard-response,175,374808,0.0-72.0-3.0,,<div style='margin:auto;width: auto; font-size: 150%'><span style='font-weight: bold; font-size: 100px; color: green;'>+10 points!</span><br><br></div>,,delaylearn,learning,feedback_image_window,QL0mSPryEyVCFd2QC4iYC1ct6JP2,QL0mSPryEyVCFd2QC4iYC1ct6JP2,,,,,,,,,,,,,,,,,,,,,,65b8200c6718c6362f486a45,10:14:54,27/02/2024
html-keyboard-response,176,376527,0.0-73.0,,"<div style=""font-size:100px;"">+</div>",,delaylearn,learning,ITI,QL0mSPryEyVCFd2QC4iYC1ct6JP2,QL0mSPryEyVCFd2QC4iYC1ct6JP2,,,,,,,,,,,,,,,,,,,1707.0,,,65b8200c6718c6362f486a45,10:14:54,27/02/2024
html-keyboard-response,177,378031,0.0-74.0-0.0,1499.5999999046326,"<div style=""display: flex; flex-direction: column; align-items: center; margin-top: -40px;""><img src=""images/pattern_1.png"" style=""width: 234px; height: 230px; margin-top: -50px;""><div style=""display: flex; justify-content: space-between; margin-top: 33px;""><img src=""images/choice_trial_1.png"" style=""width: 408px; height: 417px; margin-right: 200px;""><img src=""images/choice_trial_9.png"" style=""width: 408px; height: 417px;""></div></div>",f,delaylearn,learning,trial,QL0mSPryEyVCFd2QC4iYC1ct6JP2,QL0mSPryEyVCFd2QC4iYC1ct6JP2,4.0,images/choice_trial_1.png,images/choice_trial_9.png,images/pattern_1.png,f,f,7000.0,1.0,9.0,1.0,0.0,32.0,1.0,1.0,1.0,130.0,,,,,,65b8200c6718c6362f486a45,10:14:54,27/02/2024
html-keyboard-response,178,379046,0.0-74.0-1.0,,"<div style=""display: flex; flex-direction: column; align-items: center; margin-top: -40px;""><img src=""images/pattern_1.png"" style=""width: 234px; height: 230px; margin-top: -50px;""><div style=""display: flex; justify-content: space-between; margin-top: 33px;""><img src=""images/choice_trial_1.png"" style=""width: 408px; height: 417px; margin-right: 608px;""></div></div>",,delaylearn,learning,display_response,QL0mSPryEyVCFd2QC4iYC1ct6JP2,QL0mSPryEyVCFd2QC4iYC1ct6JP2,,,,,,,,,,,,,,,,,chosen stimuli: images/choice_trial_1.png,,,,,65b8200c6718c6362f486a45,10:14:54,27/02/2024
html-keyboard-response,179,386055,0.0-74.0-2.0,,,,delaylearn,learning,feedback_duration_window,QL0mSPryEyVCFd2QC4iYC1ct6JP2,QL0mSPryEyVCFd2QC4iYC1ct6JP2,,,,,,,,,,,,,,,,,,7000.0,,,,65b8200c6718c6362f486a45,10:14:54,27/02/2024
html-keyboard-response,180,387561,0.0-74.0-3.0,,<div style='margin:auto;width: auto; font-size: 150%'><span style='font-weight: bold; font-size: 100px; color: green;'>+10 points!</span><br><br></div>,,delaylearn,learning,feedback_image_window,QL0mSPryEyVCFd2QC4iYC1ct6JP2,QL0mSPryEyVCFd2QC4iYC1ct6JP2,,,,,,,,,,,,,,,,,,,,,,65b8200c6718c6362f486a45,10:14:54,27/02/2024
html-keyboard-response,181,388063,0.0-75.0-0.0,,,,,,mood_trial_fixation,QL0mSPryEyVCFd2QC4iYC1ct6JP2,,,,,,,,,,,,,,,,,,,,,,,65b8200c6718c6362f486a45,10:14:54,27/02/2024
lmdlab-html-vas-response,182,393796,0.0-75.0-1.0,4713.0,How happy are you right now?,0.8472415313146384,delaylearn,learning,mood_trial,QL0mSPryEyVCFd2QC4iYC1ct6JP2,QL0mSPryEyVCFd2QC4iYC1ct6JP2,,,,,,,,,,,,,,,,,,,,"['Very unhappy', 'Very happy']",,65b8200c6718c6362f486a45,10:14:54,27/02/2024
html-keyboard-response,183,395613,0.0-76.0,,"<div style=""font-size:100px;"">+</div>",,delaylearn,learning,ITI,QL0mSPryEyVCFd2QC4iYC1ct6JP2,QL0mSPryEyVCFd2QC4iYC1ct6JP2,,,,,,,,,,,,,,,,,,,1796.0,,,65b8200c6718c6362f486a45,10:14:54,27/02/2024
html-keyboard-response,184,397176,0.0-77.0-0.0,1559.0999999046326,"<div style=""display: flex; flex-direction: column; align-items: center; margin-top: -40px;""><img src=""images/pattern_6.png"" style=""width: 234px; height: 230px; margin-top: -50px;""><div style=""display: flex; justify-content: space-between; margin-top: 33px;""><img src=""images/choice_trial_10.png"" style=""width: 408px; height: 417px; margin-right: 200px;""><img src=""images/choice_trial_3.png"" style=""width: 408px; height: 417px;""></div></div>",f,delaylearn,learning,trial,QL0mSPryEyVCFd2QC4iYC1ct6JP2,QL0mSPryEyVCFd2QC4iYC1ct6JP2,4.0,images/choice_trial_10.png,images/choice_trial_3.png,images/pattern_6.png,j,f,750.0,10.0,3.0,5.0,0.0,33.0,1.0,0.0,10.0,130.0,,,,,,65b8200c6718c6362f486a45,10:14:54,27/02/2024
html-keyboard-response,185,398184,0.0-77.0-1.0,,"<div style=""display: flex; flex-direction: column; align-items: center; margin-top: -40px;""><img src=""images/pattern_6.png"" style=""width: 234px; height: 230px; margin-top: -50px;""><div style=""display: flex; justify-content: space-between; margin-top: 33px;""><img src=""images/choice_trial_10.png"" style=""width: 408px; height: 417px; margin-right: 608px;""></div></div>",,delaylearn,learning,display_response,QL0mSPryEyVCFd2QC4iYC1ct6JP2,QL0mSPryEyVCFd2QC4iYC1ct6JP2,,,,,,,,,,,,,,,,,chosen stimuli: images/choice_trial_10.png,,,,,65b8200c6718c6362f486a45,10:14:54,27/02/2024
html-keyboard-response,186,398950,0.0-77.0-2.0,,,,delaylearn,learning,feedback_duration_window,QL0mSPryEyVCFd2QC4iYC1ct6JP2,QL0mSPryEyVCFd2QC4iYC1ct6JP2,,,,,,,,,,,,,,,,,,750.0,,,,65b8200c6718c6362f486a45,10:14:54,27/02/2024
html-keyboard-response,187,400458,0.0-77.0-3.0,,<div style='margin:auto;width: auto; font-size: 150%'><span style='font-weight: bold; font-size: 100px; color: red;'>0 points!</span><br><br></div>,,delaylearn,learning,feedback_image_window,QL0mSPryEyVCFd2QC4iYC1ct6JP2,QL0mSPryEyVCFd2QC4iYC1ct6JP2,,,,,,,,,,,,,,,,,,,,,,65b8200c6718c6362f486a45,10:14:54,27/02/2024
html-keyboard-response,188,402354,0.0-78.0,,"<div style=""font-size:100px;"">+</div>",,delaylearn,learning,ITI,QL0mSPryEyVCFd2QC4iYC1ct6JP2,QL0mSPryEyVCFd2QC4iYC1ct6JP2,,,,,,,,,,,,,,,,,,,1889.0,,,65b8200c6718c6362f486a45,10:14:54,27/02/2024
html-keyboard-response,189,404695,0.0-79.0-0.0,2337.7999999523163,"<div style=""display: flex; flex-direction: column; align-items: center; margin-top: -40px;""><img src=""images/pattern_3.png"" style=""width: 234px; height: 230px; margin-top: -50px;""><div style=""display: flex; justify-content: space-between; margin-top: 33px;""><img src=""images/choice_trial_6.png"" style=""width: 408px; height: 417px; margin-right: 200px;""><img src=""images/choice_trial_16.png"" style=""width: 408px; height: 417px;""></div></div>",f,delaylearn,learning,trial,QL0mSPryEyVCFd2QC4iYC1ct6JP2,QL0mSPryEyVCFd2QC4iYC1ct6JP2,4.0,images/choice_trial_6.png,images/choice_trial_16.png,images/pattern_3.png,j,j,7000.0,6.0,16.0,2.0,1.0,34.0,0.0,0.0,6.0,130.0,,,,,,65b8200c6718c6362f486a45,10:14:54,27/02/2024
html-keyboard-response,190,405711,0.0-79.0-1.0,,"<div style=""display: flex; flex-direction: column; align-items: center; margin-top: -40px;""><img src=""images/pattern_3.png"" style=""width: 234px; height: 230px; margin-top: -50px;""><div style=""display: flex; justify-content: space-between; margin-top: 33px;""><img src=""images/choice_trial_6.png"" style=""width: 408px; height: 417px; margin-right: 608px;""></div></div>",,delaylearn,learning,display_response,QL0mSPryEyVCFd2QC4iYC1ct6JP2,QL0mSPryEyVCFd2QC4iYC1ct6JP2,,,,,,,,,,,,,,,,,chosen stimuli: images/choice_trial_6.png,,,,,65b8200c6718c6362f486a45,10:14:54,27/02/2024
html-keyboard-response,191,412728,0.0-79.0-2.0,,,,delaylearn,learning,feedback_duration_window,QL0mSPryEyVCFd2QC4iYC1ct6JP2,QL0mSPryEyVCFd2QC4iYC1ct6JP2,,,,,,,,,,,,,,,,,,7000.0,,,,65b8200c6718c6362f486a45,10:14:54,27/02/2024
html-keyboard-response,192,414245,0.0-79.0-3.0,,<div style='margin:auto;width: auto; font-size: 150%'><span style='font-weight: bold; font-size: 100px; color: red;'>0 points!</span><br><br></div>,,delaylearn,learning,feedback_image_window,QL0mSPryEyVCFd2QC4iYC1ct6JP2,QL0mSPryEyVCFd2QC4iYC1ct6JP2,,,,,,,,,,,,,,,,,,,,,,65b8200c6718c6362f486a45,10:14:54,27/02/2024
html-keyboard-response,193,416392,0.0-80.0,,"<div style=""font-size:100px;"">+</div>",,delaylearn,learning,ITI,QL0mSPryEyVCFd2QC4iYC1ct6JP2,QL0mSPryEyVCFd2QC4iYC1ct6JP2,,,,,,,,,,,,,,,,,,,2144.0,,,65b8200c6718c6362f486a45,10:14:54,27/02/2024
html-keyboard-response,194,418891,0.0-81.0-0.0,2492.0999999046326,"<div style=""display: flex; flex-direction: column; align-items: center; margin-top: -40px;""><img src=""images/pattern_4.png"" style=""width: 234px; height: 230px; margin-top: -50px;""><div style=""display: flex; justify-content: space-between; margin-top: 33px;""><img src=""images/choice_trial_7.png"" style=""width: 408px; height: 417px; margin-right: 200px;""><img src=""images/choice_trial_8.png"" style=""width: 408px; height: 417px;""></div></div>",f,delaylearn,learning,trial,QL0mSPryEyVCFd2QC4iYC1ct6JP2,QL0mSPryEyVCFd2QC4iYC1ct6JP2,4.0,images/choice_trial_7.png,images/choice_trial_8.png,images/pattern_4.png,f,j,7000.0,7.0,8.0,3.0,1.0,35.0,0.0,1.0,7.0,140.0,,,,,,65b8200c6718c6362f486a45,10:14:54,27/02/2024
html-keyboard-response,195,419922,0.0-81.0-1.0,,"<div style=""display: flex; flex-direction: column; align-items: center; margin-top: -40px;""><img src=""images/pattern_4.png"" style=""width: 234px; height: 230px; margin-top: -50px;""><div style=""display: flex; justify-content: space-between; margin-top: 33px;""><img src=""images/choice_trial_7.png"" style=""width: 408px; height: 417px; margin-right: 608px;""></div></div>",,delaylearn,learning,display_response,QL0mSPryEyVCFd2QC4iYC1ct6JP2,QL0mSPryEyVCFd2QC4iYC1ct6JP2,,,,,,,,,,,,,,,,,chosen stimuli: images/choice_trial_7.png,,,,,65b8200c6718c6362f486a45,10:14:54,27/02/2024
html-keyboard-response,196,426928,0.0-81.0-2.0,,,,delaylearn,learning,feedback_duration_window,QL0mSPryEyVCFd2QC4iYC1ct6JP2,QL0mSPryEyVCFd2QC4iYC1ct6JP2,,,,,,,,,,,,,,,,,,7000.0,,,,65b8200c6718c6362f486a45,10:14:54,27/02/2024
html-keyboard-response,197,428445,0.0-81.0-3.0,,<div style='margin:auto;width: auto; font-size: 150%'><span style='font-weight: bold; font-size: 100px; color: green;'>+10 points!</span><br><br></div>,,delaylearn,learning,feedback_image_window,QL0mSPryEyVCFd2QC4iYC1ct6JP2,QL0mSPryEyVCFd2QC4iYC1ct6JP2,,,,,,,,,,,,,,,,,,,,,,65b8200c6718c6362f486a45,10:14:54,27/02/2024
html-keyboard-response,198,430476,0.0-82.0,,"<div style=""font-size:100px;"">+</div>",,delaylearn,learning,ITI,QL0mSPryEyVCFd2QC4iYC1ct6JP2,QL0mSPryEyVCFd2QC4iYC1ct6JP2,,,,,,,,,,,,,,,,,,,2017.0,,,65b8200c6718c6362f486a45,10:14:54,27/02/2024
html-keyboard-response,199,431940,0.0-83.0-0.0,1456.6999998092651,"<div style=""display: flex; flex-direction: column; align-items: center; margin-top: -40px;""><img src=""images/pattern_7.png"" style=""width: 234px; height: 230px; margin-top: -50px;""><div style=""display: flex; justify-content: space-between; margin-top: 33px;""><img src=""images/choice_trial_13.png"" style=""width: 408px; height: 417px; margin-right: 200px;""><img src=""images/choice_trial_4.png"" style=""width: 408px; height: 417px;""></div></div>",j,delaylearn,learning,trial,QL0mSPryEyVCFd2QC4iYC1ct6JP2,QL0mSPryEyVCFd2QC4iYC1ct6JP2,4.0,images/choice_trial_13.png,images/choice_trial_4.png,images/pattern_7.png,f,f,750.0,13.0,4.0,6.0,0.0,36.0,0.0,0.0,4.0,140.0,,,,,,65b8200c6718c6362f486a45,10:14:54,27/02/2024
html-keyboard-response,200,432949,0.0-83.0-1.0,,"<div style=""display: flex; flex-direction: column; align-items: center; margin-top: -40px;""><img src=""images/pattern_7.png"" style=""width: 234px; height: 230px; margin-top: -50px;""><div style=""display: flex; justify-content: space-between; margin-top: 33px;""><img src=""images/choice_trial_4.png"" style=""width: 408px; height: 417px; margin-left:608px;""></div></div>",,delaylearn,learning,display_response,QL0mSPryEyVCFd2QC4iYC1ct6JP2,QL0mSPryEyVCFd2QC4iYC1ct6JP2,,,,,,,,,,,,,,,,,chosen stimuli: images/choice_trial_4.png,,,,,65b8200c6718c6362f486a45,10:14:54,27/02/2024
html-keyboard-response,201,433702,0.0-83.0-2.0,,,,delaylearn,learning,feedback_duration_window,QL0mSPryEyVCFd2QC4iYC1ct6JP2,QL0mSPryEyVCFd2QC4iYC1ct6JP2,,,,,,,,,,,,,,,,,,750.0,,,,65b8200c6718c6362f486a45,10:14:54,27/02/2024
html-keyboard-response,202,435219,0.0-83.0-3.0,,<div style='margin:auto;width: auto; font-size: 150%'><span style='font-weight: bold; font-size: 100px; color: red;'>0 points!</span><br><br></div>,,delaylearn,learning,feedback_image_window,QL0mSPryEyVCFd2QC4iYC1ct6JP2,QL0mSPryEyVCFd2QC4iYC1ct6JP2,,,,,,,,,,,,,,,,,,,,,,65b8200c6718c6362f486a45,10:14:54,27/02/2024
html-keyboard-response,203,437107,0.0-84.0,,"<div style=""font-size:100px;"">+</div>",,delaylearn,learning,ITI,QL0mSPryEyVCFd2QC4iYC1ct6JP2,QL0mSPryEyVCFd2QC4iYC1ct6JP2,,,,,,,,,,,,,,,,,,,1886.0,,,65b8200c6718c6362f486a45,10:14:54,27/02/2024
html-keyboard-response,204,439076,0.0-85.0-0.0,1964.5,"<div style=""display: flex; flex-direction: column; align-items: center; margin-top: -40px;""><img src=""images/pattern_1.png"" style=""width: 234px; height: 230px; margin-top: -50px;""><div style=""display: flex; justify-content: space-between; margin-top: 33px;""><img src=""images/choice_trial_1.png"" style=""width: 408px; height: 417px; margin-right: 200px;""><img src=""images/choice_trial_9.png"" style=""width: 408px; height: 417px;""></div></div>",f,delaylearn,learning,trial,QL0mSPryEyVCFd2QC4iYC1ct6JP2,QL0mSPryEyVCFd2QC4iYC1ct6JP2,4.0,images/choice_trial_1.png,images/choice_trial_9.png,images/pattern_1.png,f,f,7000.0,1.0,9.0,1.0,0.0,37.0,1.0,1.0,1.0,150.0,,,,,,65b8200c6718c6362f486a45,10:14:54,27/02/2024
html-keyboard-response,205,440079,0.0-85.0-1.0,,"<div style=""display: flex; flex-direction: column; align-items: center; margin-top: -40px;""><img src=""images/pattern_1.png"" style=""width: 234px; height: 230px; margin-top: -50px;""><div style=""display: flex; justify-content: space-between; margin-top: 33px;""><img src=""images/choice_trial_1.png"" style=""width: 408px; height: 417px; margin-right: 608px;""></div></div>",,delaylearn,learning,display_response,QL0mSPryEyVCFd2QC4iYC1ct6JP2,QL0mSPryEyVCFd2QC4iYC1ct6JP2,,,,,,,,,,,,,,,,,chosen stimuli: images/choice_trial_1.png,,,,,65b8200c6718c6362f486a45,10:14:54,27/02/2024
html-keyboard-response,206,447083,0.0-85.0-2.0,,,,delaylearn,learning,feedback_duration_window,QL0mSPryEyVCFd2QC4iYC1ct6JP2,QL0mSPryEyVCFd2QC4iYC1ct6JP2,,,,,,,,,,,,,,,,,,7000.0,,,,65b8200c6718c6362f486a45,10:14:54,27/02/2024
html-keyboard-response,207,448600,0.0-85.0-3.0,,<div style='margin:auto;width: auto; font-size: 150%'><span style='font-weight: bold; font-size: 100px; color: green;'>+10 points!</span><br><br></div>,,delaylearn,learning,feedback_image_window,QL0mSPryEyVCFd2QC4iYC1ct6JP2,QL0mSPryEyVCFd2QC4iYC1ct6JP2,,,,,,,,,,,,,,,,,,,,,,65b8200c6718c6362f486a45,10:14:54,27/02/2024
html-keyboard-response,208,449116,0.0-86.0-0.0,,,,,,mood_trial_fixation,QL0mSPryEyVCFd2QC4iYC1ct6JP2,,,,,,,,,,,,,,,,,,,,,,,65b8200c6718c6362f486a45,10:14:54,27/02/2024
lmdlab-html-vas-response,209,455447,0.0-86.0-1.0,5309.0,How happy are you right now?,0.8363907632837136,delaylearn,learning,mood_trial,QL0mSPryEyVCFd2QC4iYC1ct6JP2,QL0mSPryEyVCFd2QC4iYC1ct6JP2,,,,,,,,,,,,,,,,,,,,"['Very unhappy', 'Very happy']",,65b8200c6718c6362f486a45,10:14:54,27/02/2024
html-keyboard-response,210,457923,0.0-87.0,,"<div style=""font-size:100px;"">+</div>",,delaylearn,learning,ITI,QL0mSPryEyVCFd2QC4iYC1ct6JP2,QL0mSPryEyVCFd2QC4iYC1ct6JP2,,,,,,,,,,,,,,,,,,,2457.0,,,65b8200c6718c6362f486a45,10:14:54,27/02/2024
html-keyboard-response,211,460936,0.0-88.0-0.0,,"<div style=""display: flex; flex-direction: column; align-items: center; margin-top: -40px;""><img src=""images/pattern_3.png"" style=""width: 234px; height: 230px; margin-top: -50px;""><div style=""display: flex; justify-content: space-between; margin-top: 33px;""><img src=""images/choice_trial_16.png"" style=""width: 408px; height: 417px; margin-right: 200px;""><img src=""images/choice_trial_6.png"" style=""width: 408px; height: 417px;""></div></div>",,delaylearn,learning,trial,QL0mSPryEyVCFd2QC4iYC1ct6JP2,QL0mSPryEyVCFd2QC4iYC1ct6JP2,4.0,images/choice_trial_16.png,images/choice_trial_6.png,images/pattern_3.png,j,f,7000.0,16.0,6.0,2.0,0.0,38.0,0.0,0.0,0.0,150.0,,,,,,65b8200c6718c6362f486a45,10:14:54,27/02/2024
html-keyboard-response,212,461940,0.0-88.0-1.0,,<div style='font-weight: bold; font-size: 75px; color: red;'>Missed Trial <br><br><br><br> Please respond faster</div>,,delaylearn,learning,display_response,QL0mSPryEyVCFd2QC4iYC1ct6JP2,QL0mSPryEyVCFd2QC4iYC1ct6JP2,,,,,,,,,,,,,,,,,Missed trial,,,,,65b8200c6718c6362f486a45,10:14:54,27/02/2024
html-keyboard-response,213,461947,0.0-88.0-2.0,,,,delaylearn,learning,feedback_duration_window,QL0mSPryEyVCFd2QC4iYC1ct6JP2,QL0mSPryEyVCFd2QC4iYC1ct6JP2,,,,,,,,,,,,,,,,,,0.0,,,,65b8200c6718c6362f486a45,10:14:54,27/02/2024
html-keyboard-response,214,461953,0.0-88.0-3.0,,,,delaylearn,learning,feedback_image_window,QL0mSPryEyVCFd2QC4iYC1ct6JP2,QL0mSPryEyVCFd2QC4iYC1ct6JP2,,,,,,,,,,,,,,,,,,,,,,65b8200c6718c6362f486a45,10:14:54,27/02/2024
html-keyboard-response,215,464250,0.0-89.0,,"<div style=""font-size:100px;"">+</div>",,delaylearn,learning,ITI,QL0mSPryEyVCFd2QC4iYC1ct6JP2,QL0mSPryEyVCFd2QC4iYC1ct6JP2,,,,,,,,,,,,,,,,,,,2281.0,,,65b8200c6718c6362f486a45,10:14:54,27/02/2024
html-keyboard-response,216,465400,0.0-90.0-0.0,1142.6000001430511,"<div style=""display: flex; flex-direction: column; align-items: center; margin-top: -40px;""><img src=""images/pattern_7.png"" style=""width: 234px; height: 230px; margin-top: -50px;""><div style=""display: flex; justify-content: space-between; margin-top: 33px;""><img src=""images/choice_trial_4.png"" style=""width: 408px; height: 417px; margin-right: 200px;""><img src=""images/choice_trial_13.png"" style=""width: 408px; height: 417px;""></div></div>",j,delaylearn,learning,trial,QL0mSPryEyVCFd2QC4iYC1ct6JP2,QL0mSPryEyVCFd2QC4iYC1ct6JP2,4.0,images/choice_trial_4.png,images/choice_trial_13.png,images/pattern_7.png,j,j,750.0,4.0,13.0,6.0,1.0,39.0,1.0,1.0,13.0,160.0,,,,,,65b8200c6718c6362f486a45,10:14:54,27/02/2024
html-keyboard-response,217,466411,0.0-90.0-1.0,,"<div style=""display: flex; flex-direction: column; align-items: center; margin-top: -40px;""><img src=""images/pattern_7.png"" style=""width: 234px; height: 230px; margin-top: -50px;""><div style=""display: flex; justify-content: space-between; margin-top: 33px;""><img src=""images/choice_trial_13.png"" style=""width: 408px; height: 417px; margin-left:608px;""></div></div>",,delaylearn,learning,display_response,QL0mSPryEyVCFd2QC4iYC1ct6JP2,QL0mSPryEyVCFd2QC4iYC1ct6JP2,,,,,,,,,,,,,,,,,chosen stimuli: images/choice_trial_13.png,,,,,65b8200c6718c6362f486a45,10:14:54,27/02/2024
html-keyboard-response,218,467175,0.0-90.0-2.0,,,,delaylearn,learning,feedback_duration_window,QL0mSPryEyVCFd2QC4iYC1ct6JP2,QL0mSPryEyVCFd2QC4iYC1ct6JP2,,,,,,,,,,,,,,,,,,750.0,,,,65b8200c6718c6362f486a45,10:14:54,27/02/2024
html-keyboard-response,219,468680,0.0-90.0-3.0,,<div style='margin:auto;width: auto; font-size: 150%'><span style='font-weight: bold; font-size: 100px; color: green;'>+10 points!</span><br><br></div>,,delaylearn,learning,feedback_image_window,QL0mSPryEyVCFd2QC4iYC1ct6JP2,QL0mSPryEyVCFd2QC4iYC1ct6JP2,,,,,,,,,,,,,,,,,,,,,,65b8200c6718c6362f486a45,10:14:54,27/02/2024
html-keyboard-response,220,470517,0.0-91.0,,"<div style=""font-size:100px;"">+</div>",,delaylearn,learning,ITI,QL0mSPryEyVCFd2QC4iYC1ct6JP2,QL0mSPryEyVCFd2QC4iYC1ct6JP2,,,,,,,,,,,,,,,,,,,1834.0,,,65b8200c6718c6362f486a45,10:14:54,27/02/2024
html-keyboard-response,221,472710,0.0-92.0-0.0,2186.699999809265,"<div style=""display: flex; flex-direction: column; align-items: center; margin-top: -40px;""><img src=""images/pattern_5.png"" style=""width: 234px; height: 230px; margin-top: -50px;""><div style=""display: flex; justify-content: space-between; margin-top: 33px;""><img src=""images/choice_trial_15.png"" style=""width: 408px; height: 417px; margin-right: 200px;""><img src=""images/choice_trial_5.png"" style=""width: 408px; height: 417px;""></div></div>",j,delaylearn,learning,trial,QL0mSPryEyVCFd2QC4iYC1ct6JP2,QL0mSPryEyVCFd2QC4iYC1ct6JP2,4.0,images/choice_trial_15.png,images/choice_trial_5.png,images/pattern_5.png,j,j,750.0,15.0,5.0,4.0,1.0,40.0,1.0,1.0,5.0,170.0,,,,,,65b8200c6718c6362f486a45,10:14:54,27/02/2024
html-keyboard-response,222,473725,0.0-92.0-1.0,,"<div style=""display: flex; flex-direction: column; align-items: center; margin-top: -40px;""><img src=""images/pattern_5.png"" style=""width: 234px; height: 230px; margin-top: -50px;""><div style=""display: flex; justify-content: space-between; margin-top: 33px;""><img src=""images/choice_trial_5.png"" style=""width: 408px; height: 417px; margin-left:608px;""></div></div>",,delaylearn,learning,display_response,QL0mSPryEyVCFd2QC4iYC1ct6JP2,QL0mSPryEyVCFd2QC4iYC1ct6JP2,,,,,,,,,,,,,,,,,chosen stimuli: images/choice_trial_5.png,,,,,65b8200c6718c6362f486a45,10:14:54,27/02/2024
html-keyboard-response,223,474493,0.0-92.0-2.0,,,,delaylearn,learning,feedback_duration_window,QL0mSPryEyVCFd2QC4iYC1ct6JP2,QL0mSPryEyVCFd2QC4iYC1ct6JP2,,,,,,,,,,,,,,,,,,750.0,,,,65b8200c6718c6362f486a45,10:14:54,27/02/2024
html-keyboard-response,224,476000,0.0-92.0-3.0,,<div style='margin:auto;width: auto; font-size: 150%'><span style='font-weight: bold; font-size: 100px; color: green;'>+10 points!</span><br><br></div>,,delaylearn,learning,feedback_image_window,QL0mSPryEyVCFd2QC4iYC1ct6JP2,QL0mSPryEyVCFd2QC4iYC1ct6JP2,,,,,,,,,,,,,,,,,,,,,,65b8200c6718c6362f486a45,10:14:54,27/02/2024
html-keyboard-response,225,476516,0.0-93.0-0.0,,,,,,mood_trial_fixation,QL0mSPryEyVCFd2QC4iYC1ct6JP2,,,,,,,,,,,,,,,,,,,,,,,65b8200c6718c6362f486a45,10:14:54,27/02/2024
lmdlab-html-vas-response,226,481661,0.0-93.0-1.0,4123.0,How happy are you right now?,0.9058356786816317,delaylearn,learning,mood_trial,QL0mSPryEyVCFd2QC4iYC1ct6JP2,QL0mSPryEyVCFd2QC4iYC1ct6JP2,,,,,,,,,,,,,,,,,,,,"['Very unhappy', 'Very happy']",,65b8200c6718c6362f486a45,10:14:54,27/02/2024
html-keyboard-response,227,484143,0.0-94.0,,"<div style=""font-size:100px;"">+</div>",,delaylearn,learning,ITI,QL0mSPryEyVCFd2QC4iYC1ct6JP2,QL0mSPryEyVCFd2QC4iYC1ct6JP2,,,,,,,,,,,,,,,,,,,2475.0,,,65b8200c6718c6362f486a45,10:14:54,27/02/2024
html-keyboard-response,228,485602,0.0-95.0-0.0,1451.0,"<div style=""display: flex; flex-direction: column; align-items: center; margin-top: -40px;""><img src=""images/pattern_4.png"" style=""width: 234px; height: 230px; margin-top: -50px;""><div style=""display: flex; justify-content: space-between; margin-top: 33px;""><img src=""images/choice_trial_8.png"" style=""width: 408px; height: 417px; margin-right: 200px;""><img src=""images/choice_trial_7.png"" style=""width: 408px; height: 417px;""></div></div>",j,delaylearn,learning,trial,QL0mSPryEyVCFd2QC4iYC1ct6JP2,QL0mSPryEyVCFd2QC4iYC1ct6JP2,4.0,images/choice_trial_8.png,images/choice_trial_7.png,images/pattern_4.png,f,f,7000.0,8.0,7.0,3.0,0.0,41.0,0.0,0.0,7.0,170.0,,,,,,65b8200c6718c6362f486a45,10:14:54,27/02/2024
html-keyboard-response,229,486614,0.0-95.0-1.0,,"<div style=""display: flex; flex-direction: column; align-items: center; margin-top: -40px;""><img src=""images/pattern_4.png"" style=""width: 234px; height: 230px; margin-top: -50px;""><div style=""display: flex; justify-content: space-between; margin-top: 33px;""><img src=""images/choice_trial_7.png"" style=""width: 408px; height: 417px; margin-left:608px;""></div></div>",,delaylearn,learning,display_response,QL0mSPryEyVCFd2QC4iYC1ct6JP2,QL0mSPryEyVCFd2QC4iYC1ct6JP2,,,,,,,,,,,,,,,,,chosen stimuli: images/choice_trial_7.png,,,,,65b8200c6718c6362f486a45,10:14:54,27/02/2024
html-keyboard-response,230,493618,0.0-95.0-2.0,,,,delaylearn,learning,feedback_duration_window,QL0mSPryEyVCFd2QC4iYC1ct6JP2,QL0mSPryEyVCFd2QC4iYC1ct6JP2,,,,,,,,,,,,,,,,,,7000.0,,,,65b8200c6718c6362f486a45,10:14:54,27/02/2024
html-keyboard-response,231,495128,0.0-95.0-3.0,,<div style='margin:auto;width: auto; font-size: 150%'><span style='font-weight: bold; font-size: 100px; color: red;'>0 points!</span><br><br></div>,,delaylearn,learning,feedback_image_window,QL0mSPryEyVCFd2QC4iYC1ct6JP2,QL0mSPryEyVCFd2QC4iYC1ct6JP2,,,,,,,,,,,,,,,,,,,,,,65b8200c6718c6362f486a45,10:14:54,27/02/2024
html-keyboard-response,232,496884,0.0-96.0,,"<div style=""font-size:100px;"">+</div>",,delaylearn,learning,ITI,QL0mSPryEyVCFd2QC4iYC1ct6JP2,QL0mSPryEyVCFd2QC4iYC1ct6JP2,,,,,,,,,,,,,,,,,,,1754.0,,,65b8200c6718c6362f486a45,10:14:54,27/02/2024
html-keyboard-response,233,498100,0.0-97.0-0.0,1211.0999999046326,"<div style=""display: flex; flex-direction: column; align-items: center; margin-top: -40px;""><img src=""images/pattern_6.png"" style=""width: 234px; height: 230px; margin-top: -50px;""><div style=""display: flex; justify-content: space-between; margin-top: 33px;""><img src=""images/choice_trial_3.png"" style=""width: 408px; height: 417px; margin-right: 200px;""><img src=""images/choice_trial_10.png"" style=""width: 408px; height: 417px;""></div></div>",j,delaylearn,learning,trial,QL0mSPryEyVCFd2QC4iYC1ct6JP2,QL0mSPryEyVCFd2QC4iYC1ct6JP2,4.0,images/choice_trial_3.png,images/choice_trial_10.png,images/pattern_6.png,j,j,750.0,3.0,10.0,5.0,1.0,42.0,1.0,1.0,10.0,180.0,,,,,,65b8200c6718c6362f486a45,10:14:54,27/02/2024
