trial_type,trial_index,time_elapsed,internal_node_id,rt,stimulus,response,exp_name,exp_stage,test_part,subjectID,databaseID,counterbal,choice_stimuli_1,choice_stimuli_2,pattern_stimuli,rewarded_answer,correct_answer,feedback_duration_times,stim_left,stim_right,pair,leftright_counter,trial,response_correct,response_rewarded,chosen_stim,counter,displayed_choice,feedback_durations,ITI_duration,labels,rest_warning,prolificID,start_time,date
pavlovia,0,532,0.0-0.0,,,,,,,9gYBF2HPp6QXCmIWVzv81XMXlBZ2,,,,,,,,,,,,,,,,,,,,,,,5ac3b688fa3b4e0001735a24,15:40:45,26/03/2024
html-keyboard-response,1,3541,0.0-1.0,,"<div style=""font-size:100px;"">+</div>",,delaylearn,learning,pre_fixation,9gYBF2HPp6QXCmIWVzv81XMXlBZ2,,,,,,,,,,,,,,,,,,,,,,,5ac3b688fa3b4e0001735a24,15:40:45,26/03/2024
html-keyboard-response,2,4708,0.0-2.0-0.0,1165.2999999523163,"<div style=""display: flex; flex-direction: column; align-items: center; margin-top: -40px;""><img src=""images/demo_images/pattern_1.png"" style=""width: 234px; height: 230px; margin-top: -50px;""><div style=""display: flex; justify-content: space-between; margin-top: 33px;""><img src=""images/demo_images/choice_trial_2.png"" style=""width: 408px; height: 417px; margin-right: 200px;""><img src=""images/demo_images/choice_trial_1.png"" style=""width: 408px; height: 417px;""></div></div>",f,delaylearn,learning,trial,9gYBF2HPp6QXCmIWVzv81XMXlBZ2,9gYBF2HPp6QXCmIWVzv81XMXlBZ2,3.0,images/demo_images/choice_trial_2.png,images/demo_images/choice_trial_1.png,images/demo_images/pattern_1.png,j,j,3000.0,2.0,1.0,20.0,1.0,1.0,0.0,0.0,2.0,0.0,,,,,,5ac3b688fa3b4e0001735a24,15:40:45,26/03/2024
html-keyboard-response,3,5722,0.0-2.0-1.0,,"<div style=""display: flex; flex-direction: column; align-items: center; margin-top: -40px;""><img src=""images/demo_images/pattern_1.png"" style=""width: 234px; height: 230px; margin-top: -50px;""><div style=""display: flex; justify-content: space-between; margin-top: 33px;""><img src=""images/demo_images/choice_trial_2.png"" style=""width: 408px; height: 417px; margin-right: 608px;""></div></div>",,delaylearn,learning,display_response,9gYBF2HPp6QXCmIWVzv81XMXlBZ2,9gYBF2HPp6QXCmIWVzv81XMXlBZ2,,,,,,,,,,,,,,,,,chosen stimuli: images/demo_images/choice_trial_2.png,,,,,5ac3b688fa3b4e0001735a24,15:40:45,26/03/2024
html-keyboard-response,4,8728,0.0-2.0-2.0,,,,delaylearn,learning,feedback_duration_window,9gYBF2HPp6QXCmIWVzv81XMXlBZ2,9gYBF2HPp6QXCmIWVzv81XMXlBZ2,,,,,,,,,,,,,,,,,,3000.0,,,,5ac3b688fa3b4e0001735a24,15:40:45,26/03/2024
html-keyboard-response,5,10234,0.0-2.0-3.0,,<div style='margin:auto;width: auto; font-size: 150%'><span style='font-weight: bold; font-size: 100px; color: red;'>0 points!</span><br><br></div>,,delaylearn,learning,feedback_image_window,9gYBF2HPp6QXCmIWVzv81XMXlBZ2,9gYBF2HPp6QXCmIWVzv81XMXlBZ2,,,,,,,,,,,,,,,,,,,,,,5ac3b688fa3b4e0001735a24,15:40:45,26/03/2024
html-keyboard-response,6,11833,0.0-3.0,,"<div style=""font-size:100px;"">+</div>",,delaylearn,learning,ITI,9gYBF2HPp6QXCmIWVzv81XMXlBZ2,9gYBF2HPp6QXCmIWVzv81XMXlBZ2,,,,,,,,,,,,,,,,,,,1583.0,,,5ac3b688fa3b4e0001735a24,15:40:45,26/03/2024
html-keyboard-response,7,12462,0.0-4.0-0.0,626.2999999523163,"<div style=""display: flex; flex-direction: column; align-items: center; margin-top: -40px;""><img src=""images/demo_images/pattern_1.png"" style=""width: 234px; height: 230px; margin-top: -50px;""><div style=""display: flex; justify-content: space-between; margin-top: 33px;""><img src=""images/demo_images/choice_trial_2.png"" style=""width: 408px; height: 417px; margin-right: 200px;""><img src=""images/demo_images/choice_trial_1.png"" style=""width: 408px; height: 417px;""></div></div>",j,delaylearn,learning,trial,9gYBF2HPp6QXCmIWVzv81XMXlBZ2,9gYBF2HPp6QXCmIWVzv81XMXlBZ2,3.0,images/demo_images/choice_trial_2.png,images/demo_images/choice_trial_1.png,images/demo_images/pattern_1.png,j,j,3000.0,2.0,1.0,20.0,1.0,2.0,1.0,1.0,1.0,10.0,,,,,,5ac3b688fa3b4e0001735a24,15:40:45,26/03/2024
html-keyboard-response,8,13475,0.0-4.0-1.0,,"<div style=""display: flex; flex-direction: column; align-items: center; margin-top: -40px;""><img src=""images/demo_images/pattern_1.png"" style=""width: 234px; height: 230px; margin-top: -50px;""><div style=""display: flex; justify-content: space-between; margin-top: 33px;""><img src=""images/demo_images/choice_trial_1.png"" style=""width: 408px; height: 417px; margin-left:608px;""></div></div>",,delaylearn,learning,display_response,9gYBF2HPp6QXCmIWVzv81XMXlBZ2,9gYBF2HPp6QXCmIWVzv81XMXlBZ2,,,,,,,,,,,,,,,,,chosen stimuli: images/demo_images/choice_trial_1.png,,,,,5ac3b688fa3b4e0001735a24,15:40:45,26/03/2024
html-keyboard-response,9,16485,0.0-4.0-2.0,,,,delaylearn,learning,feedback_duration_window,9gYBF2HPp6QXCmIWVzv81XMXlBZ2,9gYBF2HPp6QXCmIWVzv81XMXlBZ2,,,,,,,,,,,,,,,,,,3000.0,,,,5ac3b688fa3b4e0001735a24,15:40:45,26/03/2024
html-keyboard-response,10,17988,0.0-4.0-3.0,,<div style='margin:auto;width: auto; font-size: 150%'><span style='font-weight: bold; font-size: 100px; color: green;'>+10 points!</span><br><br></div>,,delaylearn,learning,feedback_image_window,9gYBF2HPp6QXCmIWVzv81XMXlBZ2,9gYBF2HPp6QXCmIWVzv81XMXlBZ2,,,,,,,,,,,,,,,,,,,,,,5ac3b688fa3b4e0001735a24,15:40:45,26/03/2024
html-keyboard-response,11,19722,0.0-5.0,,"<div style=""font-size:100px;"">+</div>",,delaylearn,learning,ITI,9gYBF2HPp6QXCmIWVzv81XMXlBZ2,9gYBF2HPp6QXCmIWVzv81XMXlBZ2,,,,,,,,,,,,,,,,,,,1721.0,,,5ac3b688fa3b4e0001735a24,15:40:45,26/03/2024
html-keyboard-response,12,20768,0.0-6.0-0.0,1043.7000000476837,"<div style=""display: flex; flex-direction: column; align-items: center; margin-top: -40px;""><img src=""images/demo_images/pattern_1.png"" style=""width: 234px; height: 230px; margin-top: -50px;""><div style=""display: flex; justify-content: space-between; margin-top: 33px;""><img src=""images/demo_images/choice_trial_1.png"" style=""width: 408px; height: 417px; margin-right: 200px;""><img src=""images/demo_images/choice_trial_2.png"" style=""width: 408px; height: 417px;""></div></div>",f,delaylearn,learning,trial,9gYBF2HPp6QXCmIWVzv81XMXlBZ2,9gYBF2HPp6QXCmIWVzv81XMXlBZ2,3.0,images/demo_images/choice_trial_1.png,images/demo_images/choice_trial_2.png,images/demo_images/pattern_1.png,j,f,3000.0,1.0,2.0,20.0,0.0,3.0,1.0,0.0,1.0,10.0,,,,,,5ac3b688fa3b4e0001735a24,15:40:45,26/03/2024
html-keyboard-response,13,21770,0.0-6.0-1.0,,"<div style=""display: flex; flex-direction: column; align-items: center; margin-top: -40px;""><img src=""images/demo_images/pattern_1.png"" style=""width: 234px; height: 230px; margin-top: -50px;""><div style=""display: flex; justify-content: space-between; margin-top: 33px;""><img src=""images/demo_images/choice_trial_1.png"" style=""width: 408px; height: 417px; margin-right: 608px;""></div></div>",,delaylearn,learning,display_response,9gYBF2HPp6QXCmIWVzv81XMXlBZ2,9gYBF2HPp6QXCmIWVzv81XMXlBZ2,,,,,,,,,,,,,,,,,chosen stimuli: images/demo_images/choice_trial_1.png,,,,,5ac3b688fa3b4e0001735a24,15:40:45,26/03/2024
html-keyboard-response,14,24777,0.0-6.0-2.0,,,,delaylearn,learning,feedback_duration_window,9gYBF2HPp6QXCmIWVzv81XMXlBZ2,9gYBF2HPp6QXCmIWVzv81XMXlBZ2,,,,,,,,,,,,,,,,,,3000.0,,,,5ac3b688fa3b4e0001735a24,15:40:45,26/03/2024
html-keyboard-response,15,26287,0.0-6.0-3.0,,<div style='margin:auto;width: auto; font-size: 150%'><span style='font-weight: bold; font-size: 100px; color: red;'>0 points!</span><br><br></div>,,delaylearn,learning,feedback_image_window,9gYBF2HPp6QXCmIWVzv81XMXlBZ2,9gYBF2HPp6QXCmIWVzv81XMXlBZ2,,,,,,,,,,,,,,,,,,,,,,5ac3b688fa3b4e0001735a24,15:40:45,26/03/2024
html-keyboard-response,16,28209,0.0-7.0,,"<div style=""font-size:100px;"">+</div>",,delaylearn,learning,ITI,9gYBF2HPp6QXCmIWVzv81XMXlBZ2,9gYBF2HPp6QXCmIWVzv81XMXlBZ2,,,,,,,,,,,,,,,,,,,1915.0,,,5ac3b688fa3b4e0001735a24,15:40:45,26/03/2024
html-keyboard-response,17,29641,0.0-8.0-0.0,1430.7999999523163,"<div style=""display: flex; flex-direction: column; align-items: center; margin-top: -40px;""><img src=""images/demo_images/pattern_1.png"" style=""width: 234px; height: 230px; margin-top: -50px;""><div style=""display: flex; justify-content: space-between; margin-top: 33px;""><img src=""images/demo_images/choice_trial_1.png"" style=""width: 408px; height: 417px; margin-right: 200px;""><img src=""images/demo_images/choice_trial_2.png"" style=""width: 408px; height: 417px;""></div></div>",j,delaylearn,learning,trial,9gYBF2HPp6QXCmIWVzv81XMXlBZ2,9gYBF2HPp6QXCmIWVzv81XMXlBZ2,3.0,images/demo_images/choice_trial_1.png,images/demo_images/choice_trial_2.png,images/demo_images/pattern_1.png,f,f,3000.0,1.0,2.0,20.0,0.0,4.0,0.0,0.0,2.0,10.0,,,,,,5ac3b688fa3b4e0001735a24,15:40:45,26/03/2024
html-keyboard-response,18,30645,0.0-8.0-1.0,,"<div style=""display: flex; flex-direction: column; align-items: center; margin-top: -40px;""><img src=""images/demo_images/pattern_1.png"" style=""width: 234px; height: 230px; margin-top: -50px;""><div style=""display: flex; justify-content: space-between; margin-top: 33px;""><img src=""images/demo_images/choice_trial_2.png"" style=""width: 408px; height: 417px; margin-left:608px;""></div></div>",,delaylearn,learning,display_response,9gYBF2HPp6QXCmIWVzv81XMXlBZ2,9gYBF2HPp6QXCmIWVzv81XMXlBZ2,,,,,,,,,,,,,,,,,chosen stimuli: images/demo_images/choice_trial_2.png,,,,,5ac3b688fa3b4e0001735a24,15:40:45,26/03/2024
html-keyboard-response,19,33653,0.0-8.0-2.0,,,,delaylearn,learning,feedback_duration_window,9gYBF2HPp6QXCmIWVzv81XMXlBZ2,9gYBF2HPp6QXCmIWVzv81XMXlBZ2,,,,,,,,,,,,,,,,,,3000.0,,,,5ac3b688fa3b4e0001735a24,15:40:45,26/03/2024
html-keyboard-response,20,35169,0.0-8.0-3.0,,<div style='margin:auto;width: auto; font-size: 150%'><span style='font-weight: bold; font-size: 100px; color: red;'>0 points!</span><br><br></div>,,delaylearn,learning,feedback_image_window,9gYBF2HPp6QXCmIWVzv81XMXlBZ2,9gYBF2HPp6QXCmIWVzv81XMXlBZ2,,,,,,,,,,,,,,,,,,,,,,5ac3b688fa3b4e0001735a24,15:40:45,26/03/2024
html-keyboard-response,21,35680,0.0-9.0-0.0,,,,,,mood_trial_fixation,9gYBF2HPp6QXCmIWVzv81XMXlBZ2,,,,,,,,,,,,,,,,,,,,,,,5ac3b688fa3b4e0001735a24,15:40:45,26/03/2024
lmdlab-html-vas-response,22,42080,0.0-9.0-1.0,5380.0,How happy are you right now?,0.14930555555555555,delaylearn,learning,mood_trial,9gYBF2HPp6QXCmIWVzv81XMXlBZ2,9gYBF2HPp6QXCmIWVzv81XMXlBZ2,,,,,,,,,,,,,,,,,,,,"['Very unhappy', 'Very happy']",,5ac3b688fa3b4e0001735a24,15:40:45,26/03/2024
html-keyboard-response,23,43996,0.0-10.0,,"<div style=""font-size:100px;"">+</div>",,delaylearn,learning,ITI,9gYBF2HPp6QXCmIWVzv81XMXlBZ2,9gYBF2HPp6QXCmIWVzv81XMXlBZ2,,,,,,,,,,,,,,,,,,,1907.0,,,5ac3b688fa3b4e0001735a24,15:40:45,26/03/2024
html-keyboard-response,24,44979,0.0-11.0-0.0,980.9000000953674,"<div style=""display: flex; flex-direction: column; align-items: center; margin-top: -40px;""><img src=""images/demo_images/pattern_1.png"" style=""width: 234px; height: 230px; margin-top: -50px;""><div style=""display: flex; justify-content: space-between; margin-top: 33px;""><img src=""images/demo_images/choice_trial_2.png"" style=""width: 408px; height: 417px; margin-right: 200px;""><img src=""images/demo_images/choice_trial_1.png"" style=""width: 408px; height: 417px;""></div></div>",j,delaylearn,learning,trial,9gYBF2HPp6QXCmIWVzv81XMXlBZ2,9gYBF2HPp6QXCmIWVzv81XMXlBZ2,3.0,images/demo_images/choice_trial_2.png,images/demo_images/choice_trial_1.png,images/demo_images/pattern_1.png,j,j,3000.0,2.0,1.0,20.0,1.0,5.0,1.0,1.0,1.0,20.0,,,,,,5ac3b688fa3b4e0001735a24,15:40:45,26/03/2024
html-keyboard-response,25,45983,0.0-11.0-1.0,,"<div style=""display: flex; flex-direction: column; align-items: center; margin-top: -40px;""><img src=""images/demo_images/pattern_1.png"" style=""width: 234px; height: 230px; margin-top: -50px;""><div style=""display: flex; justify-content: space-between; margin-top: 33px;""><img src=""images/demo_images/choice_trial_1.png"" style=""width: 408px; height: 417px; margin-left:608px;""></div></div>",,delaylearn,learning,display_response,9gYBF2HPp6QXCmIWVzv81XMXlBZ2,9gYBF2HPp6QXCmIWVzv81XMXlBZ2,,,,,,,,,,,,,,,,,chosen stimuli: images/demo_images/choice_trial_1.png,,,,,5ac3b688fa3b4e0001735a24,15:40:45,26/03/2024
html-keyboard-response,26,48989,0.0-11.0-2.0,,,,delaylearn,learning,feedback_duration_window,9gYBF2HPp6QXCmIWVzv81XMXlBZ2,9gYBF2HPp6QXCmIWVzv81XMXlBZ2,,,,,,,,,,,,,,,,,,3000.0,,,,5ac3b688fa3b4e0001735a24,15:40:45,26/03/2024
html-keyboard-response,27,50506,0.0-11.0-3.0,,<div style='margin:auto;width: auto; font-size: 150%'><span style='font-weight: bold; font-size: 100px; color: green;'>+10 points!</span><br><br></div>,,delaylearn,learning,feedback_image_window,9gYBF2HPp6QXCmIWVzv81XMXlBZ2,9gYBF2HPp6QXCmIWVzv81XMXlBZ2,,,,,,,,,,,,,,,,,,,,,,5ac3b688fa3b4e0001735a24,15:40:45,26/03/2024
html-keyboard-response,28,52287,0.0-12.0,,"<div style=""font-size:100px;"">+</div>",,delaylearn,learning,ITI,9gYBF2HPp6QXCmIWVzv81XMXlBZ2,9gYBF2HPp6QXCmIWVzv81XMXlBZ2,,,,,,,,,,,,,,,,,,,1770.0,,,5ac3b688fa3b4e0001735a24,15:40:45,26/03/2024
html-keyboard-response,29,52830,0.0-13.0-0.0,540.5,"<div style=""display: flex; flex-direction: column; align-items: center; margin-top: -40px;""><img src=""images/demo_images/pattern_1.png"" style=""width: 234px; height: 230px; margin-top: -50px;""><div style=""display: flex; justify-content: space-between; margin-top: 33px;""><img src=""images/demo_images/choice_trial_1.png"" style=""width: 408px; height: 417px; margin-right: 200px;""><img src=""images/demo_images/choice_trial_2.png"" style=""width: 408px; height: 417px;""></div></div>",f,delaylearn,learning,trial,9gYBF2HPp6QXCmIWVzv81XMXlBZ2,9gYBF2HPp6QXCmIWVzv81XMXlBZ2,3.0,images/demo_images/choice_trial_1.png,images/demo_images/choice_trial_2.png,images/demo_images/pattern_1.png,f,f,3000.0,1.0,2.0,20.0,0.0,6.0,1.0,1.0,1.0,30.0,,,,,,5ac3b688fa3b4e0001735a24,15:40:45,26/03/2024
html-keyboard-response,30,53837,0.0-13.0-1.0,,"<div style=""display: flex; flex-direction: column; align-items: center; margin-top: -40px;""><img src=""images/demo_images/pattern_1.png"" style=""width: 234px; height: 230px; margin-top: -50px;""><div style=""display: flex; justify-content: space-between; margin-top: 33px;""><img src=""images/demo_images/choice_trial_1.png"" style=""width: 408px; height: 417px; margin-right: 608px;""></div></div>",,delaylearn,learning,display_response,9gYBF2HPp6QXCmIWVzv81XMXlBZ2,9gYBF2HPp6QXCmIWVzv81XMXlBZ2,,,,,,,,,,,,,,,,,chosen stimuli: images/demo_images/choice_trial_1.png,,,,,5ac3b688fa3b4e0001735a24,15:40:45,26/03/2024
html-keyboard-response,31,56853,0.0-13.0-2.0,,,,delaylearn,learning,feedback_duration_window,9gYBF2HPp6QXCmIWVzv81XMXlBZ2,9gYBF2HPp6QXCmIWVzv81XMXlBZ2,,,,,,,,,,,,,,,,,,3000.0,,,,5ac3b688fa3b4e0001735a24,15:40:45,26/03/2024
html-keyboard-response,32,58369,0.0-13.0-3.0,,<div style='margin:auto;width: auto; font-size: 150%'><span style='font-weight: bold; font-size: 100px; color: green;'>+10 points!</span><br><br></div>,,delaylearn,learning,feedback_image_window,9gYBF2HPp6QXCmIWVzv81XMXlBZ2,9gYBF2HPp6QXCmIWVzv81XMXlBZ2,,,,,,,,,,,,,,,,,,,,,,5ac3b688fa3b4e0001735a24,15:40:45,26/03/2024
html-keyboard-response,33,60526,0.0-14.0,,"<div style=""font-size:100px;"">+</div>",,delaylearn,learning,ITI,9gYBF2HPp6QXCmIWVzv81XMXlBZ2,9gYBF2HPp6QXCmIWVzv81XMXlBZ2,,,,,,,,,,,,,,,,,,,2155.0,,,5ac3b688fa3b4e0001735a24,15:40:45,26/03/2024
html-keyboard-response,34,61153,0.0-15.0-0.0,625.1000001430511,"<div style=""display: flex; flex-direction: column; align-items: center; margin-top: -40px;""><img src=""images/demo_images/pattern_1.png"" style=""width: 234px; height: 230px; margin-top: -50px;""><div style=""display: flex; justify-content: space-between; margin-top: 33px;""><img src=""images/demo_images/choice_trial_2.png"" style=""width: 408px; height: 417px; margin-right: 200px;""><img src=""images/demo_images/choice_trial_1.png"" style=""width: 408px; height: 417px;""></div></div>",j,delaylearn,learning,trial,9gYBF2HPp6QXCmIWVzv81XMXlBZ2,9gYBF2HPp6QXCmIWVzv81XMXlBZ2,3.0,images/demo_images/choice_trial_2.png,images/demo_images/choice_trial_1.png,images/demo_images/pattern_1.png,j,j,3000.0,2.0,1.0,20.0,1.0,7.0,1.0,1.0,1.0,40.0,,,,,,5ac3b688fa3b4e0001735a24,15:40:45,26/03/2024
html-keyboard-response,35,62158,0.0-15.0-1.0,,"<div style=""display: flex; flex-direction: column; align-items: center; margin-top: -40px;""><img src=""images/demo_images/pattern_1.png"" style=""width: 234px; height: 230px; margin-top: -50px;""><div style=""display: flex; justify-content: space-between; margin-top: 33px;""><img src=""images/demo_images/choice_trial_1.png"" style=""width: 408px; height: 417px; margin-left:608px;""></div></div>",,delaylearn,learning,display_response,9gYBF2HPp6QXCmIWVzv81XMXlBZ2,9gYBF2HPp6QXCmIWVzv81XMXlBZ2,,,,,,,,,,,,,,,,,chosen stimuli: images/demo_images/choice_trial_1.png,,,,,5ac3b688fa3b4e0001735a24,15:40:45,26/03/2024
html-keyboard-response,36,65171,0.0-15.0-2.0,,,,delaylearn,learning,feedback_duration_window,9gYBF2HPp6QXCmIWVzv81XMXlBZ2,9gYBF2HPp6QXCmIWVzv81XMXlBZ2,,,,,,,,,,,,,,,,,,3000.0,,,,5ac3b688fa3b4e0001735a24,15:40:45,26/03/2024
html-keyboard-response,37,66675,0.0-15.0-3.0,,<div style='margin:auto;width: auto; font-size: 150%'><span style='font-weight: bold; font-size: 100px; color: green;'>+10 points!</span><br><br></div>,,delaylearn,learning,feedback_image_window,9gYBF2HPp6QXCmIWVzv81XMXlBZ2,9gYBF2HPp6QXCmIWVzv81XMXlBZ2,,,,,,,,,,,,,,,,,,,,,,5ac3b688fa3b4e0001735a24,15:40:45,26/03/2024
html-keyboard-response,38,68785,0.0-16.0,,"<div style=""font-size:100px;"">+</div>",,delaylearn,learning,ITI,9gYBF2HPp6QXCmIWVzv81XMXlBZ2,9gYBF2HPp6QXCmIWVzv81XMXlBZ2,,,,,,,,,,,,,,,,,,,2101.0,,,5ac3b688fa3b4e0001735a24,15:40:45,26/03/2024
html-keyboard-response,39,69276,0.0-17.0-0.0,489.0,"<div style=""display: flex; flex-direction: column; align-items: center; margin-top: -40px;""><img src=""images/demo_images/pattern_1.png"" style=""width: 234px; height: 230px; margin-top: -50px;""><div style=""display: flex; justify-content: space-between; margin-top: 33px;""><img src=""images/demo_images/choice_trial_1.png"" style=""width: 408px; height: 417px; margin-right: 200px;""><img src=""images/demo_images/choice_trial_2.png"" style=""width: 408px; height: 417px;""></div></div>",f,delaylearn,learning,trial,9gYBF2HPp6QXCmIWVzv81XMXlBZ2,9gYBF2HPp6QXCmIWVzv81XMXlBZ2,3.0,images/demo_images/choice_trial_1.png,images/demo_images/choice_trial_2.png,images/demo_images/pattern_1.png,f,f,3000.0,1.0,2.0,20.0,0.0,8.0,1.0,1.0,1.0,50.0,,,,,,5ac3b688fa3b4e0001735a24,15:40:45,26/03/2024
html-keyboard-response,40,70279,0.0-17.0-1.0,,"<div style=""display: flex; flex-direction: column; align-items: center; margin-top: -40px;""><img src=""images/demo_images/pattern_1.png"" style=""width: 234px; height: 230px; margin-top: -50px;""><div style=""display: flex; justify-content: space-between; margin-top: 33px;""><img src=""images/demo_images/choice_trial_1.png"" style=""width: 408px; height: 417px; margin-right: 608px;""></div></div>",,delaylearn,learning,display_response,9gYBF2HPp6QXCmIWVzv81XMXlBZ2,9gYBF2HPp6QXCmIWVzv81XMXlBZ2,,,,,,,,,,,,,,,,,chosen stimuli: images/demo_images/choice_trial_1.png,,,,,5ac3b688fa3b4e0001735a24,15:40:45,26/03/2024
html-keyboard-response,41,73285,0.0-17.0-2.0,,,,delaylearn,learning,feedback_duration_window,9gYBF2HPp6QXCmIWVzv81XMXlBZ2,9gYBF2HPp6QXCmIWVzv81XMXlBZ2,,,,,,,,,,,,,,,,,,3000.0,,,,5ac3b688fa3b4e0001735a24,15:40:45,26/03/2024
html-keyboard-response,42,74791,0.0-17.0-3.0,,<div style='margin:auto;width: auto; font-size: 150%'><span style='font-weight: bold; font-size: 100px; color: green;'>+10 points!</span><br><br></div>,,delaylearn,learning,feedback_image_window,9gYBF2HPp6QXCmIWVzv81XMXlBZ2,9gYBF2HPp6QXCmIWVzv81XMXlBZ2,,,,,,,,,,,,,,,,,,,,,,5ac3b688fa3b4e0001735a24,15:40:45,26/03/2024
html-button-response,43,78547,0.0-18.0,3754.2999999523163,"
  <div style=""display: flex; align-items: center; justify-content: center; height: 80vh;"">
  <div>
          <img src=""images/inst_demo_finish.png"" style=""width: 80vw; height:auto;"">
          <br><br>
      </div>
      <br><br>
  </div>",0,,,,9gYBF2HPp6QXCmIWVzv81XMXlBZ2,,,,,,,,,,,,,,,,,,,,,,,5ac3b688fa3b4e0001735a24,15:40:45,26/03/2024
html-keyboard-response,44,81993,0.0-19.0,3444.5999999046326,"
  <div style=""display: flex; align-items: center; justify-content: center; height: 80vh;"">
  <div>
          <img src=""images/inst_6.png"" style=""width: 80vw; height:auto;"">
          <br><br>
      </div>
      <br><br>
  </div>",j,,,,9gYBF2HPp6QXCmIWVzv81XMXlBZ2,,,,,,,,,,,,,,,,,,,,,,,5ac3b688fa3b4e0001735a24,15:40:45,26/03/2024
html-keyboard-response,45,85002,0.0-20.0,,"<div style=""font-size:100px;"">+</div>",,delaylearn,learning,pre_fixation,9gYBF2HPp6QXCmIWVzv81XMXlBZ2,,,,,,,,,,,,,,,,,,,,,,,5ac3b688fa3b4e0001735a24,15:40:45,26/03/2024
html-keyboard-response,46,86693,0.0-21.0,,"<div style=""font-size:100px;"">+</div>",,delaylearn,learning,ITI,9gYBF2HPp6QXCmIWVzv81XMXlBZ2,9gYBF2HPp6QXCmIWVzv81XMXlBZ2,,,,,,,,,,,,,,,,,,,1680.0,,,5ac3b688fa3b4e0001735a24,15:40:45,26/03/2024
html-keyboard-response,47,87511,0.0-22.0-0.0,816.0,"<div style=""display: flex; flex-direction: column; align-items: center; margin-top: -40px;""><img src=""images/pattern_3.png"" style=""width: 234px; height: 230px; margin-top: -50px;""><div style=""display: flex; justify-content: space-between; margin-top: 33px;""><img src=""images/choice_trial_13.png"" style=""width: 408px; height: 417px; margin-right: 200px;""><img src=""images/choice_trial_10.png"" style=""width: 408px; height: 417px;""></div></div>",f,delaylearn,learning,trial,9gYBF2HPp6QXCmIWVzv81XMXlBZ2,9gYBF2HPp6QXCmIWVzv81XMXlBZ2,3.0,images/choice_trial_13.png,images/choice_trial_10.png,images/pattern_3.png,f,f,7000.0,13.0,10.0,2.0,0.0,9.0,1.0,1.0,13.0,60.0,,,,,,5ac3b688fa3b4e0001735a24,15:40:45,26/03/2024
html-keyboard-response,48,88518,0.0-22.0-1.0,,"<div style=""display: flex; flex-direction: column; align-items: center; margin-top: -40px;""><img src=""images/pattern_3.png"" style=""width: 234px; height: 230px; margin-top: -50px;""><div style=""display: flex; justify-content: space-between; margin-top: 33px;""><img src=""images/choice_trial_13.png"" style=""width: 408px; height: 417px; margin-right: 608px;""></div></div>",,delaylearn,learning,display_response,9gYBF2HPp6QXCmIWVzv81XMXlBZ2,9gYBF2HPp6QXCmIWVzv81XMXlBZ2,,,,,,,,,,,,,,,,,chosen stimuli: images/choice_trial_13.png,,,,,5ac3b688fa3b4e0001735a24,15:40:45,26/03/2024
html-keyboard-response,49,95529,0.0-22.0-2.0,,,,delaylearn,learning,feedback_duration_window,9gYBF2HPp6QXCmIWVzv81XMXlBZ2,9gYBF2HPp6QXCmIWVzv81XMXlBZ2,,,,,,,,,,,,,,,,,,7000.0,,,,5ac3b688fa3b4e0001735a24,15:40:45,26/03/2024
html-keyboard-response,50,97033,0.0-22.0-3.0,,<div style='margin:auto;width: auto; font-size: 150%'><span style='font-weight: bold; font-size: 100px; color: green;'>+10 points!</span><br><br></div>,,delaylearn,learning,feedback_image_window,9gYBF2HPp6QXCmIWVzv81XMXlBZ2,9gYBF2HPp6QXCmIWVzv81XMXlBZ2,,,,,,,,,,,,,,,,,,,,,,5ac3b688fa3b4e0001735a24,15:40:45,26/03/2024
html-keyboard-response,51,99191,0.0-23.0,,"<div style=""font-size:100px;"">+</div>",,delaylearn,learning,ITI,9gYBF2HPp6QXCmIWVzv81XMXlBZ2,9gYBF2HPp6QXCmIWVzv81XMXlBZ2,,,,,,,,,,,,,,,,,,,2142.0,,,5ac3b688fa3b4e0001735a24,15:40:45,26/03/2024
html-keyboard-response,52,100452,0.0-24.0-0.0,1258.5,"<div style=""display: flex; flex-direction: column; align-items: center; margin-top: -40px;""><img src=""images/pattern_7.png"" style=""width: 234px; height: 230px; margin-top: -50px;""><div style=""display: flex; justify-content: space-between; margin-top: 33px;""><img src=""images/choice_trial_12.png"" style=""width: 408px; height: 417px; margin-right: 200px;""><img src=""images/choice_trial_6.png"" style=""width: 408px; height: 417px;""></div></div>",j,delaylearn,learning,trial,9gYBF2HPp6QXCmIWVzv81XMXlBZ2,9gYBF2HPp6QXCmIWVzv81XMXlBZ2,3.0,images/choice_trial_12.png,images/choice_trial_6.png,images/pattern_7.png,j,j,750.0,12.0,6.0,6.0,1.0,10.0,1.0,1.0,6.0,70.0,,,,,,5ac3b688fa3b4e0001735a24,15:40:45,26/03/2024
html-keyboard-response,53,101455,0.0-24.0-1.0,,"<div style=""display: flex; flex-direction: column; align-items: center; margin-top: -40px;""><img src=""images/pattern_7.png"" style=""width: 234px; height: 230px; margin-top: -50px;""><div style=""display: flex; justify-content: space-between; margin-top: 33px;""><img src=""images/choice_trial_6.png"" style=""width: 408px; height: 417px; margin-left:608px;""></div></div>",,delaylearn,learning,display_response,9gYBF2HPp6QXCmIWVzv81XMXlBZ2,9gYBF2HPp6QXCmIWVzv81XMXlBZ2,,,,,,,,,,,,,,,,,chosen stimuli: images/choice_trial_6.png,,,,,5ac3b688fa3b4e0001735a24,15:40:45,26/03/2024
html-keyboard-response,54,102215,0.0-24.0-2.0,,,,delaylearn,learning,feedback_duration_window,9gYBF2HPp6QXCmIWVzv81XMXlBZ2,9gYBF2HPp6QXCmIWVzv81XMXlBZ2,,,,,,,,,,,,,,,,,,750.0,,,,5ac3b688fa3b4e0001735a24,15:40:45,26/03/2024
html-keyboard-response,55,103721,0.0-24.0-3.0,,<div style='margin:auto;width: auto; font-size: 150%'><span style='font-weight: bold; font-size: 100px; color: green;'>+10 points!</span><br><br></div>,,delaylearn,learning,feedback_image_window,9gYBF2HPp6QXCmIWVzv81XMXlBZ2,9gYBF2HPp6QXCmIWVzv81XMXlBZ2,,,,,,,,,,,,,,,,,,,,,,5ac3b688fa3b4e0001735a24,15:40:45,26/03/2024
html-keyboard-response,56,105909,0.0-25.0,,"<div style=""font-size:100px;"">+</div>",,delaylearn,learning,ITI,9gYBF2HPp6QXCmIWVzv81XMXlBZ2,9gYBF2HPp6QXCmIWVzv81XMXlBZ2,,,,,,,,,,,,,,,,,,,2182.0,,,5ac3b688fa3b4e0001735a24,15:40:45,26/03/2024
html-keyboard-response,57,107155,0.0-26.0-0.0,1243.5,"<div style=""display: flex; flex-direction: column; align-items: center; margin-top: -40px;""><img src=""images/pattern_4.png"" style=""width: 234px; height: 230px; margin-top: -50px;""><div style=""display: flex; justify-content: space-between; margin-top: 33px;""><img src=""images/choice_trial_15.png"" style=""width: 408px; height: 417px; margin-right: 200px;""><img src=""images/choice_trial_9.png"" style=""width: 408px; height: 417px;""></div></div>",f,delaylearn,learning,trial,9gYBF2HPp6QXCmIWVzv81XMXlBZ2,9gYBF2HPp6QXCmIWVzv81XMXlBZ2,3.0,images/choice_trial_15.png,images/choice_trial_9.png,images/pattern_4.png,f,f,7000.0,15.0,9.0,3.0,0.0,11.0,1.0,1.0,15.0,80.0,,,,,,5ac3b688fa3b4e0001735a24,15:40:45,26/03/2024
html-keyboard-response,58,108158,0.0-26.0-1.0,,"<div style=""display: flex; flex-direction: column; align-items: center; margin-top: -40px;""><img src=""images/pattern_4.png"" style=""width: 234px; height: 230px; margin-top: -50px;""><div style=""display: flex; justify-content: space-between; margin-top: 33px;""><img src=""images/choice_trial_15.png"" style=""width: 408px; height: 417px; margin-right: 608px;""></div></div>",,delaylearn,learning,display_response,9gYBF2HPp6QXCmIWVzv81XMXlBZ2,9gYBF2HPp6QXCmIWVzv81XMXlBZ2,,,,,,,,,,,,,,,,,chosen stimuli: images/choice_trial_15.png,,,,,5ac3b688fa3b4e0001735a24,15:40:45,26/03/2024
html-keyboard-response,59,115167,0.0-26.0-2.0,,,,delaylearn,learning,feedback_duration_window,9gYBF2HPp6QXCmIWVzv81XMXlBZ2,9gYBF2HPp6QXCmIWVzv81XMXlBZ2,,,,,,,,,,,,,,,,,,7000.0,,,,5ac3b688fa3b4e0001735a24,15:40:45,26/03/2024
html-keyboard-response,60,116670,0.0-26.0-3.0,,<div style='margin:auto;width: auto; font-size: 150%'><span style='font-weight: bold; font-size: 100px; color: green;'>+10 points!</span><br><br></div>,,delaylearn,learning,feedback_image_window,9gYBF2HPp6QXCmIWVzv81XMXlBZ2,9gYBF2HPp6QXCmIWVzv81XMXlBZ2,,,,,,,,,,,,,,,,,,,,,,5ac3b688fa3b4e0001735a24,15:40:45,26/03/2024
html-keyboard-response,61,119105,0.0-27.0,,"<div style=""font-size:100px;"">+</div>",,delaylearn,learning,ITI,9gYBF2HPp6QXCmIWVzv81XMXlBZ2,9gYBF2HPp6QXCmIWVzv81XMXlBZ2,,,,,,,,,,,,,,,,,,,2432.0,,,5ac3b688fa3b4e0001735a24,15:40:45,26/03/2024
html-keyboard-response,62,121229,0.0-28.0-0.0,2122.199999809265,"<div style=""display: flex; flex-direction: column; align-items: center; margin-top: -40px;""><img src=""images/pattern_5.png"" style=""width: 234px; height: 230px; margin-top: -50px;""><div style=""display: flex; justify-content: space-between; margin-top: 33px;""><img src=""images/choice_trial_2.png"" style=""width: 408px; height: 417px; margin-right: 200px;""><img src=""images/choice_trial_11.png"" style=""width: 408px; height: 417px;""></div></div>",j,delaylearn,learning,trial,9gYBF2HPp6QXCmIWVzv81XMXlBZ2,9gYBF2HPp6QXCmIWVzv81XMXlBZ2,3.0,images/choice_trial_2.png,images/choice_trial_11.png,images/pattern_5.png,j,j,750.0,2.0,11.0,4.0,1.0,12.0,1.0,1.0,11.0,90.0,,,,,,5ac3b688fa3b4e0001735a24,15:40:45,26/03/2024
html-keyboard-response,63,122239,0.0-28.0-1.0,,"<div style=""display: flex; flex-direction: column; align-items: center; margin-top: -40px;""><img src=""images/pattern_5.png"" style=""width: 234px; height: 230px; margin-top: -50px;""><div style=""display: flex; justify-content: space-between; margin-top: 33px;""><img src=""images/choice_trial_11.png"" style=""width: 408px; height: 417px; margin-left:608px;""></div></div>",,delaylearn,learning,display_response,9gYBF2HPp6QXCmIWVzv81XMXlBZ2,9gYBF2HPp6QXCmIWVzv81XMXlBZ2,,,,,,,,,,,,,,,,,chosen stimuli: images/choice_trial_11.png,,,,,5ac3b688fa3b4e0001735a24,15:40:45,26/03/2024
html-keyboard-response,64,122999,0.0-28.0-2.0,,,,delaylearn,learning,feedback_duration_window,9gYBF2HPp6QXCmIWVzv81XMXlBZ2,9gYBF2HPp6QXCmIWVzv81XMXlBZ2,,,,,,,,,,,,,,,,,,750.0,,,,5ac3b688fa3b4e0001735a24,15:40:45,26/03/2024
html-keyboard-response,65,124503,0.0-28.0-3.0,,<div style='margin:auto;width: auto; font-size: 150%'><span style='font-weight: bold; font-size: 100px; color: green;'>+10 points!</span><br><br></div>,,delaylearn,learning,feedback_image_window,9gYBF2HPp6QXCmIWVzv81XMXlBZ2,9gYBF2HPp6QXCmIWVzv81XMXlBZ2,,,,,,,,,,,,,,,,,,,,,,5ac3b688fa3b4e0001735a24,15:40:45,26/03/2024
html-keyboard-response,66,126256,0.0-29.0,,"<div style=""font-size:100px;"">+</div>",,delaylearn,learning,ITI,9gYBF2HPp6QXCmIWVzv81XMXlBZ2,9gYBF2HPp6QXCmIWVzv81XMXlBZ2,,,,,,,,,,,,,,,,,,,1748.0,,,5ac3b688fa3b4e0001735a24,15:40:45,26/03/2024
html-keyboard-response,67,127405,0.0-30.0-0.0,1146.5,"<div style=""display: flex; flex-direction: column; align-items: center; margin-top: -40px;""><img src=""images/pattern_6.png"" style=""width: 234px; height: 230px; margin-top: -50px;""><div style=""display: flex; justify-content: space-between; margin-top: 33px;""><img src=""images/choice_trial_16.png"" style=""width: 408px; height: 417px; margin-right: 200px;""><img src=""images/choice_trial_3.png"" style=""width: 408px; height: 417px;""></div></div>",f,delaylearn,learning,trial,9gYBF2HPp6QXCmIWVzv81XMXlBZ2,9gYBF2HPp6QXCmIWVzv81XMXlBZ2,3.0,images/choice_trial_16.png,images/choice_trial_3.png,images/pattern_6.png,j,f,750.0,16.0,3.0,5.0,0.0,13.0,1.0,0.0,16.0,90.0,,,,,,5ac3b688fa3b4e0001735a24,15:40:45,26/03/2024
html-keyboard-response,68,128410,0.0-30.0-1.0,,"<div style=""display: flex; flex-direction: column; align-items: center; margin-top: -40px;""><img src=""images/pattern_6.png"" style=""width: 234px; height: 230px; margin-top: -50px;""><div style=""display: flex; justify-content: space-between; margin-top: 33px;""><img src=""images/choice_trial_16.png"" style=""width: 408px; height: 417px; margin-right: 608px;""></div></div>",,delaylearn,learning,display_response,9gYBF2HPp6QXCmIWVzv81XMXlBZ2,9gYBF2HPp6QXCmIWVzv81XMXlBZ2,,,,,,,,,,,,,,,,,chosen stimuli: images/choice_trial_16.png,,,,,5ac3b688fa3b4e0001735a24,15:40:45,26/03/2024
html-keyboard-response,69,129169,0.0-30.0-2.0,,,,delaylearn,learning,feedback_duration_window,9gYBF2HPp6QXCmIWVzv81XMXlBZ2,9gYBF2HPp6QXCmIWVzv81XMXlBZ2,,,,,,,,,,,,,,,,,,750.0,,,,5ac3b688fa3b4e0001735a24,15:40:45,26/03/2024
html-keyboard-response,70,130678,0.0-30.0-3.0,,<div style='margin:auto;width: auto; font-size: 150%'><span style='font-weight: bold; font-size: 100px; color: red;'>0 points!</span><br><br></div>,,delaylearn,learning,feedback_image_window,9gYBF2HPp6QXCmIWVzv81XMXlBZ2,9gYBF2HPp6QXCmIWVzv81XMXlBZ2,,,,,,,,,,,,,,,,,,,,,,5ac3b688fa3b4e0001735a24,15:40:45,26/03/2024
html-keyboard-response,71,131190,0.0-31.0-0.0,,,,,,mood_trial_fixation,9gYBF2HPp6QXCmIWVzv81XMXlBZ2,,,,,,,,,,,,,,,,,,,,,,,5ac3b688fa3b4e0001735a24,15:40:45,26/03/2024
lmdlab-html-vas-response,72,137172,0.0-31.0-1.0,4962.0,How happy are you right now?,0.24305555555555555,delaylearn,learning,mood_trial,9gYBF2HPp6QXCmIWVzv81XMXlBZ2,9gYBF2HPp6QXCmIWVzv81XMXlBZ2,,,,,,,,,,,,,,,,,,,,"['Very unhappy', 'Very happy']",,5ac3b688fa3b4e0001735a24,15:40:45,26/03/2024
html-keyboard-response,73,139248,0.0-32.0,,"<div style=""font-size:100px;"">+</div>",,delaylearn,learning,ITI,9gYBF2HPp6QXCmIWVzv81XMXlBZ2,9gYBF2HPp6QXCmIWVzv81XMXlBZ2,,,,,,,,,,,,,,,,,,,2064.0,,,5ac3b688fa3b4e0001735a24,15:40:45,26/03/2024
html-keyboard-response,74,140306,0.0-33.0-0.0,1055.4000000953674,"<div style=""display: flex; flex-direction: column; align-items: center; margin-top: -40px;""><img src=""images/pattern_1.png"" style=""width: 234px; height: 230px; margin-top: -50px;""><div style=""display: flex; justify-content: space-between; margin-top: 33px;""><img src=""images/choice_trial_8.png"" style=""width: 408px; height: 417px; margin-right: 200px;""><img src=""images/choice_trial_14.png"" style=""width: 408px; height: 417px;""></div></div>",j,delaylearn,learning,trial,9gYBF2HPp6QXCmIWVzv81XMXlBZ2,9gYBF2HPp6QXCmIWVzv81XMXlBZ2,3.0,images/choice_trial_8.png,images/choice_trial_14.png,images/pattern_1.png,j,j,7000.0,8.0,14.0,1.0,1.0,14.0,1.0,1.0,14.0,100.0,,,,,,5ac3b688fa3b4e0001735a24,15:40:45,26/03/2024
html-keyboard-response,75,141308,0.0-33.0-1.0,,"<div style=""display: flex; flex-direction: column; align-items: center; margin-top: -40px;""><img src=""images/pattern_1.png"" style=""width: 234px; height: 230px; margin-top: -50px;""><div style=""display: flex; justify-content: space-between; margin-top: 33px;""><img src=""images/choice_trial_14.png"" style=""width: 408px; height: 417px; margin-left:608px;""></div></div>",,delaylearn,learning,display_response,9gYBF2HPp6QXCmIWVzv81XMXlBZ2,9gYBF2HPp6QXCmIWVzv81XMXlBZ2,,,,,,,,,,,,,,,,,chosen stimuli: images/choice_trial_14.png,,,,,5ac3b688fa3b4e0001735a24,15:40:45,26/03/2024
html-keyboard-response,76,148311,0.0-33.0-2.0,,,,delaylearn,learning,feedback_duration_window,9gYBF2HPp6QXCmIWVzv81XMXlBZ2,9gYBF2HPp6QXCmIWVzv81XMXlBZ2,,,,,,,,,,,,,,,,,,7000.0,,,,5ac3b688fa3b4e0001735a24,15:40:45,26/03/2024
html-keyboard-response,77,149815,0.0-33.0-3.0,,<div style='margin:auto;width: auto; font-size: 150%'><span style='font-weight: bold; font-size: 100px; color: green;'>+10 points!</span><br><br></div>,,delaylearn,learning,feedback_image_window,9gYBF2HPp6QXCmIWVzv81XMXlBZ2,9gYBF2HPp6QXCmIWVzv81XMXlBZ2,,,,,,,,,,,,,,,,,,,,,,5ac3b688fa3b4e0001735a24,15:40:45,26/03/2024
html-keyboard-response,78,152206,0.0-34.0,,"<div style=""font-size:100px;"">+</div>",,delaylearn,learning,ITI,9gYBF2HPp6QXCmIWVzv81XMXlBZ2,9gYBF2HPp6QXCmIWVzv81XMXlBZ2,,,,,,,,,,,,,,,,,,,2377.0,,,5ac3b688fa3b4e0001735a24,15:40:45,26/03/2024
html-keyboard-response,79,153237,0.0-35.0-0.0,1028.5999999046326,"<div style=""display: flex; flex-direction: column; align-items: center; margin-top: -40px;""><img src=""images/pattern_3.png"" style=""width: 234px; height: 230px; margin-top: -50px;""><div style=""display: flex; justify-content: space-between; margin-top: 33px;""><img src=""images/choice_trial_10.png"" style=""width: 408px; height: 417px; margin-right: 200px;""><img src=""images/choice_trial_13.png"" style=""width: 408px; height: 417px;""></div></div>",j,delaylearn,learning,trial,9gYBF2HPp6QXCmIWVzv81XMXlBZ2,9gYBF2HPp6QXCmIWVzv81XMXlBZ2,3.0,images/choice_trial_10.png,images/choice_trial_13.png,images/pattern_3.png,f,j,7000.0,10.0,13.0,2.0,1.0,15.0,1.0,0.0,13.0,100.0,,,,,,5ac3b688fa3b4e0001735a24,15:40:45,26/03/2024
html-keyboard-response,80,154244,0.0-35.0-1.0,,"<div style=""display: flex; flex-direction: column; align-items: center; margin-top: -40px;""><img src=""images/pattern_3.png"" style=""width: 234px; height: 230px; margin-top: -50px;""><div style=""display: flex; justify-content: space-between; margin-top: 33px;""><img src=""images/choice_trial_13.png"" style=""width: 408px; height: 417px; margin-left:608px;""></div></div>",,delaylearn,learning,display_response,9gYBF2HPp6QXCmIWVzv81XMXlBZ2,9gYBF2HPp6QXCmIWVzv81XMXlBZ2,,,,,,,,,,,,,,,,,chosen stimuli: images/choice_trial_13.png,,,,,5ac3b688fa3b4e0001735a24,15:40:45,26/03/2024
html-keyboard-response,81,161261,0.0-35.0-2.0,,,,delaylearn,learning,feedback_duration_window,9gYBF2HPp6QXCmIWVzv81XMXlBZ2,9gYBF2HPp6QXCmIWVzv81XMXlBZ2,,,,,,,,,,,,,,,,,,7000.0,,,,5ac3b688fa3b4e0001735a24,15:40:45,26/03/2024
html-keyboard-response,82,162769,0.0-35.0-3.0,,<div style='margin:auto;width: auto; font-size: 150%'><span style='font-weight: bold; font-size: 100px; color: red;'>0 points!</span><br><br></div>,,delaylearn,learning,feedback_image_window,9gYBF2HPp6QXCmIWVzv81XMXlBZ2,9gYBF2HPp6QXCmIWVzv81XMXlBZ2,,,,,,,,,,,,,,,,,,,,,,5ac3b688fa3b4e0001735a24,15:40:45,26/03/2024
html-keyboard-response,83,164683,0.0-36.0,,"<div style=""font-size:100px;"">+</div>",,delaylearn,learning,ITI,9gYBF2HPp6QXCmIWVzv81XMXlBZ2,9gYBF2HPp6QXCmIWVzv81XMXlBZ2,,,,,,,,,,,,,,,,,,,1898.0,,,5ac3b688fa3b4e0001735a24,15:40:45,26/03/2024
html-keyboard-response,84,165885,0.0-37.0-0.0,1199.0999999046326,"<div style=""display: flex; flex-direction: column; align-items: center; margin-top: -40px;""><img src=""images/pattern_5.png"" style=""width: 234px; height: 230px; margin-top: -50px;""><div style=""display: flex; justify-content: space-between; margin-top: 33px;""><img src=""images/choice_trial_11.png"" style=""width: 408px; height: 417px; margin-right: 200px;""><img src=""images/choice_trial_2.png"" style=""width: 408px; height: 417px;""></div></div>",f,delaylearn,learning,trial,9gYBF2HPp6QXCmIWVzv81XMXlBZ2,9gYBF2HPp6QXCmIWVzv81XMXlBZ2,3.0,images/choice_trial_11.png,images/choice_trial_2.png,images/pattern_5.png,f,f,750.0,11.0,2.0,4.0,0.0,16.0,1.0,1.0,11.0,110.0,,,,,,5ac3b688fa3b4e0001735a24,15:40:45,26/03/2024
html-keyboard-response,85,166900,0.0-37.0-1.0,,"<div style=""display: flex; flex-direction: column; align-items: center; margin-top: -40px;""><img src=""images/pattern_5.png"" style=""width: 234px; height: 230px; margin-top: -50px;""><div style=""display: flex; justify-content: space-between; margin-top: 33px;""><img src=""images/choice_trial_11.png"" style=""width: 408px; height: 417px; margin-right: 608px;""></div></div>",,delaylearn,learning,display_response,9gYBF2HPp6QXCmIWVzv81XMXlBZ2,9gYBF2HPp6QXCmIWVzv81XMXlBZ2,,,,,,,,,,,,,,,,,chosen stimuli: images/choice_trial_11.png,,,,,5ac3b688fa3b4e0001735a24,15:40:45,26/03/2024
html-keyboard-response,86,167658,0.0-37.0-2.0,,,,delaylearn,learning,feedback_duration_window,9gYBF2HPp6QXCmIWVzv81XMXlBZ2,9gYBF2HPp6QXCmIWVzv81XMXlBZ2,,,,,,,,,,,,,,,,,,750.0,,,,5ac3b688fa3b4e0001735a24,15:40:45,26/03/2024
html-keyboard-response,87,169160,0.0-37.0-3.0,,<div style='margin:auto;width: auto; font-size: 150%'><span style='font-weight: bold; font-size: 100px; color: green;'>+10 points!</span><br><br></div>,,delaylearn,learning,feedback_image_window,9gYBF2HPp6QXCmIWVzv81XMXlBZ2,9gYBF2HPp6QXCmIWVzv81XMXlBZ2,,,,,,,,,,,,,,,,,,,,,,5ac3b688fa3b4e0001735a24,15:40:45,26/03/2024
html-keyboard-response,88,169672,0.0-38.0-0.0,,,,,,mood_trial_fixation,9gYBF2HPp6QXCmIWVzv81XMXlBZ2,,,,,,,,,,,,,,,,,,,,,,,5ac3b688fa3b4e0001735a24,15:40:45,26/03/2024
lmdlab-html-vas-response,89,175139,0.0-38.0-1.0,4453.0,How happy are you right now?,0.2517361111111111,delaylearn,learning,mood_trial,9gYBF2HPp6QXCmIWVzv81XMXlBZ2,9gYBF2HPp6QXCmIWVzv81XMXlBZ2,,,,,,,,,,,,,,,,,,,,"['Very unhappy', 'Very happy']",,5ac3b688fa3b4e0001735a24,15:40:45,26/03/2024
html-keyboard-response,90,177240,0.0-39.0,,"<div style=""font-size:100px;"">+</div>",,delaylearn,learning,ITI,9gYBF2HPp6QXCmIWVzv81XMXlBZ2,9gYBF2HPp6QXCmIWVzv81XMXlBZ2,,,,,,,,,,,,,,,,,,,2090.0,,,5ac3b688fa3b4e0001735a24,15:40:45,26/03/2024
html-keyboard-response,91,178415,0.0-40.0-0.0,1172.0999999046326,"<div style=""display: flex; flex-direction: column; align-items: center; margin-top: -40px;""><img src=""images/pattern_6.png"" style=""width: 234px; height: 230px; margin-top: -50px;""><div style=""display: flex; justify-content: space-between; margin-top: 33px;""><img src=""images/choice_trial_16.png"" style=""width: 408px; height: 417px; margin-right: 200px;""><img src=""images/choice_trial_3.png"" style=""width: 408px; height: 417px;""></div></div>",j,delaylearn,learning,trial,9gYBF2HPp6QXCmIWVzv81XMXlBZ2,9gYBF2HPp6QXCmIWVzv81XMXlBZ2,3.0,images/choice_trial_16.png,images/choice_trial_3.png,images/pattern_6.png,f,f,750.0,16.0,3.0,5.0,0.0,17.0,0.0,0.0,3.0,110.0,,,,,,5ac3b688fa3b4e0001735a24,15:40:45,26/03/2024
html-keyboard-response,92,179426,0.0-40.0-1.0,,"<div style=""display: flex; flex-direction: column; align-items: center; margin-top: -40px;""><img src=""images/pattern_6.png"" style=""width: 234px; height: 230px; margin-top: -50px;""><div style=""display: flex; justify-content: space-between; margin-top: 33px;""><img src=""images/choice_trial_3.png"" style=""width: 408px; height: 417px; margin-left:608px;""></div></div>",,delaylearn,learning,display_response,9gYBF2HPp6QXCmIWVzv81XMXlBZ2,9gYBF2HPp6QXCmIWVzv81XMXlBZ2,,,,,,,,,,,,,,,,,chosen stimuli: images/choice_trial_3.png,,,,,5ac3b688fa3b4e0001735a24,15:40:45,26/03/2024
html-keyboard-response,93,180184,0.0-40.0-2.0,,,,delaylearn,learning,feedback_duration_window,9gYBF2HPp6QXCmIWVzv81XMXlBZ2,9gYBF2HPp6QXCmIWVzv81XMXlBZ2,,,,,,,,,,,,,,,,,,750.0,,,,5ac3b688fa3b4e0001735a24,15:40:45,26/03/2024
html-keyboard-response,94,181690,0.0-40.0-3.0,,<div style='margin:auto;width: auto; font-size: 150%'><span style='font-weight: bold; font-size: 100px; color: red;'>0 points!</span><br><br></div>,,delaylearn,learning,feedback_image_window,9gYBF2HPp6QXCmIWVzv81XMXlBZ2,9gYBF2HPp6QXCmIWVzv81XMXlBZ2,,,,,,,,,,,,,,,,,,,,,,5ac3b688fa3b4e0001735a24,15:40:45,26/03/2024
html-keyboard-response,95,184073,0.0-41.0,,"<div style=""font-size:100px;"">+</div>",,delaylearn,learning,ITI,9gYBF2HPp6QXCmIWVzv81XMXlBZ2,9gYBF2HPp6QXCmIWVzv81XMXlBZ2,,,,,,,,,,,,,,,,,,,2367.0,,,5ac3b688fa3b4e0001735a24,15:40:45,26/03/2024
html-keyboard-response,96,184755,0.0-42.0-0.0,679.5,"<div style=""display: flex; flex-direction: column; align-items: center; margin-top: -40px;""><img src=""images/pattern_4.png"" style=""width: 234px; height: 230px; margin-top: -50px;""><div style=""display: flex; justify-content: space-between; margin-top: 33px;""><img src=""images/choice_trial_9.png"" style=""width: 408px; height: 417px; margin-right: 200px;""><img src=""images/choice_trial_15.png"" style=""width: 408px; height: 417px;""></div></div>",j,delaylearn,learning,trial,9gYBF2HPp6QXCmIWVzv81XMXlBZ2,9gYBF2HPp6QXCmIWVzv81XMXlBZ2,3.0,images/choice_trial_9.png,images/choice_trial_15.png,images/pattern_4.png,j,j,7000.0,9.0,15.0,3.0,1.0,18.0,1.0,1.0,15.0,120.0,,,,,,5ac3b688fa3b4e0001735a24,15:40:45,26/03/2024
html-keyboard-response,97,185765,0.0-42.0-1.0,,"<div style=""display: flex; flex-direction: column; align-items: center; margin-top: -40px;""><img src=""images/pattern_4.png"" style=""width: 234px; height: 230px; margin-top: -50px;""><div style=""display: flex; justify-content: space-between; margin-top: 33px;""><img src=""images/choice_trial_15.png"" style=""width: 408px; height: 417px; margin-left:608px;""></div></div>",,delaylearn,learning,display_response,9gYBF2HPp6QXCmIWVzv81XMXlBZ2,9gYBF2HPp6QXCmIWVzv81XMXlBZ2,,,,,,,,,,,,,,,,,chosen stimuli: images/choice_trial_15.png,,,,,5ac3b688fa3b4e0001735a24,15:40:45,26/03/2024
html-keyboard-response,98,192768,0.0-42.0-2.0,,,,delaylearn,learning,feedback_duration_window,9gYBF2HPp6QXCmIWVzv81XMXlBZ2,9gYBF2HPp6QXCmIWVzv81XMXlBZ2,,,,,,,,,,,,,,,,,,7000.0,,,,5ac3b688fa3b4e0001735a24,15:40:45,26/03/2024
html-keyboard-response,99,194274,0.0-42.0-3.0,,<div style='margin:auto;width: auto; font-size: 150%'><span style='font-weight: bold; font-size: 100px; color: green;'>+10 points!</span><br><br></div>,,delaylearn,learning,feedback_image_window,9gYBF2HPp6QXCmIWVzv81XMXlBZ2,9gYBF2HPp6QXCmIWVzv81XMXlBZ2,,,,,,,,,,,,,,,,,,,,,,5ac3b688fa3b4e0001735a24,15:40:45,26/03/2024
html-keyboard-response,100,196473,0.0-43.0,,"<div style=""font-size:100px;"">+</div>",,delaylearn,learning,ITI,9gYBF2HPp6QXCmIWVzv81XMXlBZ2,9gYBF2HPp6QXCmIWVzv81XMXlBZ2,,,,,,,,,,,,,,,,,,,2189.0,,,5ac3b688fa3b4e0001735a24,15:40:45,26/03/2024
html-keyboard-response,101,197666,0.0-44.0-0.0,1191.6000001430511,"<div style=""display: flex; flex-direction: column; align-items: center; margin-top: -40px;""><img src=""images/pattern_7.png"" style=""width: 234px; height: 230px; margin-top: -50px;""><div style=""display: flex; justify-content: space-between; margin-top: 33px;""><img src=""images/choice_trial_6.png"" style=""width: 408px; height: 417px; margin-right: 200px;""><img src=""images/choice_trial_12.png"" style=""width: 408px; height: 417px;""></div></div>",f,delaylearn,learning,trial,9gYBF2HPp6QXCmIWVzv81XMXlBZ2,9gYBF2HPp6QXCmIWVzv81XMXlBZ2,3.0,images/choice_trial_6.png,images/choice_trial_12.png,images/pattern_7.png,j,f,750.0,6.0,12.0,6.0,0.0,19.0,1.0,0.0,6.0,120.0,,,,,,5ac3b688fa3b4e0001735a24,15:40:45,26/03/2024
html-keyboard-response,102,198678,0.0-44.0-1.0,,"<div style=""display: flex; flex-direction: column; align-items: center; margin-top: -40px;""><img src=""images/pattern_7.png"" style=""width: 234px; height: 230px; margin-top: -50px;""><div style=""display: flex; justify-content: space-between; margin-top: 33px;""><img src=""images/choice_trial_6.png"" style=""width: 408px; height: 417px; margin-right: 608px;""></div></div>",,delaylearn,learning,display_response,9gYBF2HPp6QXCmIWVzv81XMXlBZ2,9gYBF2HPp6QXCmIWVzv81XMXlBZ2,,,,,,,,,,,,,,,,,chosen stimuli: images/choice_trial_6.png,,,,,5ac3b688fa3b4e0001735a24,15:40:45,26/03/2024
html-keyboard-response,103,199438,0.0-44.0-2.0,,,,delaylearn,learning,feedback_duration_window,9gYBF2HPp6QXCmIWVzv81XMXlBZ2,9gYBF2HPp6QXCmIWVzv81XMXlBZ2,,,,,,,,,,,,,,,,,,750.0,,,,5ac3b688fa3b4e0001735a24,15:40:45,26/03/2024
html-keyboard-response,104,200943,0.0-44.0-3.0,,<div style='margin:auto;width: auto; font-size: 150%'><span style='font-weight: bold; font-size: 100px; color: red;'>0 points!</span><br><br></div>,,delaylearn,learning,feedback_image_window,9gYBF2HPp6QXCmIWVzv81XMXlBZ2,9gYBF2HPp6QXCmIWVzv81XMXlBZ2,,,,,,,,,,,,,,,,,,,,,,5ac3b688fa3b4e0001735a24,15:40:45,26/03/2024
html-keyboard-response,105,202694,0.0-45.0,,"<div style=""font-size:100px;"">+</div>",,delaylearn,learning,ITI,9gYBF2HPp6QXCmIWVzv81XMXlBZ2,9gYBF2HPp6QXCmIWVzv81XMXlBZ2,,,,,,,,,,,,,,,,,,,1736.0,,,5ac3b688fa3b4e0001735a24,15:40:45,26/03/2024
html-keyboard-response,106,203854,0.0-46.0-0.0,1158.2000000476837,"<div style=""display: flex; flex-direction: column; align-items: center; margin-top: -40px;""><img src=""images/pattern_1.png"" style=""width: 234px; height: 230px; margin-top: -50px;""><div style=""display: flex; justify-content: space-between; margin-top: 33px;""><img src=""images/choice_trial_14.png"" style=""width: 408px; height: 417px; margin-right: 200px;""><img src=""images/choice_trial_8.png"" style=""width: 408px; height: 417px;""></div></div>",f,delaylearn,learning,trial,9gYBF2HPp6QXCmIWVzv81XMXlBZ2,9gYBF2HPp6QXCmIWVzv81XMXlBZ2,3.0,images/choice_trial_14.png,images/choice_trial_8.png,images/pattern_1.png,f,f,7000.0,14.0,8.0,1.0,0.0,20.0,1.0,1.0,14.0,130.0,,,,,,5ac3b688fa3b4e0001735a24,15:40:45,26/03/2024
html-keyboard-response,107,204862,0.0-46.0-1.0,,"<div style=""display: flex; flex-direction: column; align-items: center; margin-top: -40px;""><img src=""images/pattern_1.png"" style=""width: 234px; height: 230px; margin-top: -50px;""><div style=""display: flex; justify-content: space-between; margin-top: 33px;""><img src=""images/choice_trial_14.png"" style=""width: 408px; height: 417px; margin-right: 608px;""></div></div>",,delaylearn,learning,display_response,9gYBF2HPp6QXCmIWVzv81XMXlBZ2,9gYBF2HPp6QXCmIWVzv81XMXlBZ2,,,,,,,,,,,,,,,,,chosen stimuli: images/choice_trial_14.png,,,,,5ac3b688fa3b4e0001735a24,15:40:45,26/03/2024
html-keyboard-response,108,211878,0.0-46.0-2.0,,,,delaylearn,learning,feedback_duration_window,9gYBF2HPp6QXCmIWVzv81XMXlBZ2,9gYBF2HPp6QXCmIWVzv81XMXlBZ2,,,,,,,,,,,,,,,,,,7000.0,,,,5ac3b688fa3b4e0001735a24,15:40:45,26/03/2024
html-keyboard-response,109,213382,0.0-46.0-3.0,,<div style='margin:auto;width: auto; font-size: 150%'><span style='font-weight: bold; font-size: 100px; color: green;'>+10 points!</span><br><br></div>,,delaylearn,learning,feedback_image_window,9gYBF2HPp6QXCmIWVzv81XMXlBZ2,9gYBF2HPp6QXCmIWVzv81XMXlBZ2,,,,,,,,,,,,,,,,,,,,,,5ac3b688fa3b4e0001735a24,15:40:45,26/03/2024
html-keyboard-response,110,215475,0.0-47.0,,"<div style=""font-size:100px;"">+</div>",,delaylearn,learning,ITI,9gYBF2HPp6QXCmIWVzv81XMXlBZ2,9gYBF2HPp6QXCmIWVzv81XMXlBZ2,,,,,,,,,,,,,,,,,,,2080.0,,,5ac3b688fa3b4e0001735a24,15:40:45,26/03/2024
html-keyboard-response,111,216892,0.0-48.0-0.0,1415.1000001430511,"<div style=""display: flex; flex-direction: column; align-items: center; margin-top: -40px;""><img src=""images/pattern_6.png"" style=""width: 234px; height: 230px; margin-top: -50px;""><div style=""display: flex; justify-content: space-between; margin-top: 33px;""><img src=""images/choice_trial_3.png"" style=""width: 408px; height: 417px; margin-right: 200px;""><img src=""images/choice_trial_16.png"" style=""width: 408px; height: 417px;""></div></div>",f,delaylearn,learning,trial,9gYBF2HPp6QXCmIWVzv81XMXlBZ2,9gYBF2HPp6QXCmIWVzv81XMXlBZ2,3.0,images/choice_trial_3.png,images/choice_trial_16.png,images/pattern_6.png,j,j,750.0,3.0,16.0,5.0,1.0,21.0,0.0,0.0,3.0,130.0,,,,,,5ac3b688fa3b4e0001735a24,15:40:45,26/03/2024
html-keyboard-response,112,217901,0.0-48.0-1.0,,"<div style=""display: flex; flex-direction: column; align-items: center; margin-top: -40px;""><img src=""images/pattern_6.png"" style=""width: 234px; height: 230px; margin-top: -50px;""><div style=""display: flex; justify-content: space-between; margin-top: 33px;""><img src=""images/choice_trial_3.png"" style=""width: 408px; height: 417px; margin-right: 608px;""></div></div>",,delaylearn,learning,display_response,9gYBF2HPp6QXCmIWVzv81XMXlBZ2,9gYBF2HPp6QXCmIWVzv81XMXlBZ2,,,,,,,,,,,,,,,,,chosen stimuli: images/choice_trial_3.png,,,,,5ac3b688fa3b4e0001735a24,15:40:45,26/03/2024
html-keyboard-response,113,218658,0.0-48.0-2.0,,,,delaylearn,learning,feedback_duration_window,9gYBF2HPp6QXCmIWVzv81XMXlBZ2,9gYBF2HPp6QXCmIWVzv81XMXlBZ2,,,,,,,,,,,,,,,,,,750.0,,,,5ac3b688fa3b4e0001735a24,15:40:45,26/03/2024
html-keyboard-response,114,220162,0.0-48.0-3.0,,<div style='margin:auto;width: auto; font-size: 150%'><span style='font-weight: bold; font-size: 100px; color: red;'>0 points!</span><br><br></div>,,delaylearn,learning,feedback_image_window,9gYBF2HPp6QXCmIWVzv81XMXlBZ2,9gYBF2HPp6QXCmIWVzv81XMXlBZ2,,,,,,,,,,,,,,,,,,,,,,5ac3b688fa3b4e0001735a24,15:40:45,26/03/2024
html-keyboard-response,115,222568,0.0-49.0,,"<div style=""font-size:100px;"">+</div>",,delaylearn,learning,ITI,9gYBF2HPp6QXCmIWVzv81XMXlBZ2,9gYBF2HPp6QXCmIWVzv81XMXlBZ2,,,,,,,,,,,,,,,,,,,2399.0,,,5ac3b688fa3b4e0001735a24,15:40:45,26/03/2024
html-keyboard-response,116,223298,0.0-50.0-0.0,727.2999999523163,"<div style=""display: flex; flex-direction: column; align-items: center; margin-top: -40px;""><img src=""images/pattern_4.png"" style=""width: 234px; height: 230px; margin-top: -50px;""><div style=""display: flex; justify-content: space-between; margin-top: 33px;""><img src=""images/choice_trial_15.png"" style=""width: 408px; height: 417px; margin-right: 200px;""><img src=""images/choice_trial_9.png"" style=""width: 408px; height: 417px;""></div></div>",f,delaylearn,learning,trial,9gYBF2HPp6QXCmIWVzv81XMXlBZ2,9gYBF2HPp6QXCmIWVzv81XMXlBZ2,3.0,images/choice_trial_15.png,images/choice_trial_9.png,images/pattern_4.png,f,f,7000.0,15.0,9.0,3.0,0.0,22.0,1.0,1.0,15.0,140.0,,,,,,5ac3b688fa3b4e0001735a24,15:40:45,26/03/2024
html-keyboard-response,117,224306,0.0-50.0-1.0,,"<div style=""display: flex; flex-direction: column; align-items: center; margin-top: -40px;""><img src=""images/pattern_4.png"" style=""width: 234px; height: 230px; margin-top: -50px;""><div style=""display: flex; justify-content: space-between; margin-top: 33px;""><img src=""images/choice_trial_15.png"" style=""width: 408px; height: 417px; margin-right: 608px;""></div></div>",,delaylearn,learning,display_response,9gYBF2HPp6QXCmIWVzv81XMXlBZ2,9gYBF2HPp6QXCmIWVzv81XMXlBZ2,,,,,,,,,,,,,,,,,chosen stimuli: images/choice_trial_15.png,,,,,5ac3b688fa3b4e0001735a24,15:40:45,26/03/2024
html-keyboard-response,118,231311,0.0-50.0-2.0,,,,delaylearn,learning,feedback_duration_window,9gYBF2HPp6QXCmIWVzv81XMXlBZ2,9gYBF2HPp6QXCmIWVzv81XMXlBZ2,,,,,,,,,,,,,,,,,,7000.0,,,,5ac3b688fa3b4e0001735a24,15:40:45,26/03/2024
html-keyboard-response,119,232816,0.0-50.0-3.0,,<div style='margin:auto;width: auto; font-size: 150%'><span style='font-weight: bold; font-size: 100px; color: green;'>+10 points!</span><br><br></div>,,delaylearn,learning,feedback_image_window,9gYBF2HPp6QXCmIWVzv81XMXlBZ2,9gYBF2HPp6QXCmIWVzv81XMXlBZ2,,,,,,,,,,,,,,,,,,,,,,5ac3b688fa3b4e0001735a24,15:40:45,26/03/2024
html-keyboard-response,120,233328,0.0-51.0-0.0,,,,,,mood_trial_fixation,9gYBF2HPp6QXCmIWVzv81XMXlBZ2,,,,,,,,,,,,,,,,,,,,,,,5ac3b688fa3b4e0001735a24,15:40:45,26/03/2024
lmdlab-html-vas-response,121,238218,0.0-51.0-1.0,3873.0,How happy are you right now?,0.23958333333333334,delaylearn,learning,mood_trial,9gYBF2HPp6QXCmIWVzv81XMXlBZ2,9gYBF2HPp6QXCmIWVzv81XMXlBZ2,,,,,,,,,,,,,,,,,,,,"['Very unhappy', 'Very happy']",,5ac3b688fa3b4e0001735a24,15:40:45,26/03/2024
html-keyboard-response,122,240135,0.0-52.0,,"<div style=""font-size:100px;"">+</div>",,delaylearn,learning,ITI,9gYBF2HPp6QXCmIWVzv81XMXlBZ2,9gYBF2HPp6QXCmIWVzv81XMXlBZ2,,,,,,,,,,,,,,,,,,,1908.0,,,5ac3b688fa3b4e0001735a24,15:40:45,26/03/2024
html-keyboard-response,123,241451,0.0-53.0-0.0,1313.5,"<div style=""display: flex; flex-direction: column; align-items: center; margin-top: -40px;""><img src=""images/pattern_7.png"" style=""width: 234px; height: 230px; margin-top: -50px;""><div style=""display: flex; justify-content: space-between; margin-top: 33px;""><img src=""images/choice_trial_12.png"" style=""width: 408px; height: 417px; margin-right: 200px;""><img src=""images/choice_trial_6.png"" style=""width: 408px; height: 417px;""></div></div>",j,delaylearn,learning,trial,9gYBF2HPp6QXCmIWVzv81XMXlBZ2,9gYBF2HPp6QXCmIWVzv81XMXlBZ2,3.0,images/choice_trial_12.png,images/choice_trial_6.png,images/pattern_7.png,j,j,750.0,12.0,6.0,6.0,1.0,23.0,1.0,1.0,6.0,150.0,,,,,,5ac3b688fa3b4e0001735a24,15:40:45,26/03/2024
html-keyboard-response,124,242461,0.0-53.0-1.0,,"<div style=""display: flex; flex-direction: column; align-items: center; margin-top: -40px;""><img src=""images/pattern_7.png"" style=""width: 234px; height: 230px; margin-top: -50px;""><div style=""display: flex; justify-content: space-between; margin-top: 33px;""><img src=""images/choice_trial_6.png"" style=""width: 408px; height: 417px; margin-left:608px;""></div></div>",,delaylearn,learning,display_response,9gYBF2HPp6QXCmIWVzv81XMXlBZ2,9gYBF2HPp6QXCmIWVzv81XMXlBZ2,,,,,,,,,,,,,,,,,chosen stimuli: images/choice_trial_6.png,,,,,5ac3b688fa3b4e0001735a24,15:40:45,26/03/2024
html-keyboard-response,125,243219,0.0-53.0-2.0,,,,delaylearn,learning,feedback_duration_window,9gYBF2HPp6QXCmIWVzv81XMXlBZ2,9gYBF2HPp6QXCmIWVzv81XMXlBZ2,,,,,,,,,,,,,,,,,,750.0,,,,5ac3b688fa3b4e0001735a24,15:40:45,26/03/2024
html-keyboard-response,126,244735,0.0-53.0-3.0,,<div style='margin:auto;width: auto; font-size: 150%'><span style='font-weight: bold; font-size: 100px; color: green;'>+10 points!</span><br><br></div>,,delaylearn,learning,feedback_image_window,9gYBF2HPp6QXCmIWVzv81XMXlBZ2,9gYBF2HPp6QXCmIWVzv81XMXlBZ2,,,,,,,,,,,,,,,,,,,,,,5ac3b688fa3b4e0001735a24,15:40:45,26/03/2024
html-keyboard-response,127,246258,0.0-54.0,,"<div style=""font-size:100px;"">+</div>",,delaylearn,learning,ITI,9gYBF2HPp6QXCmIWVzv81XMXlBZ2,9gYBF2HPp6QXCmIWVzv81XMXlBZ2,,,,,,,,,,,,,,,,,,,1517.0,,,5ac3b688fa3b4e0001735a24,15:40:45,26/03/2024
html-keyboard-response,128,247896,0.0-55.0-0.0,1635.7999999523163,"<div style=""display: flex; flex-direction: column; align-items: center; margin-top: -40px;""><img src=""images/pattern_1.png"" style=""width: 234px; height: 230px; margin-top: -50px;""><div style=""display: flex; justify-content: space-between; margin-top: 33px;""><img src=""images/choice_trial_8.png"" style=""width: 408px; height: 417px; margin-right: 200px;""><img src=""images/choice_trial_14.png"" style=""width: 408px; height: 417px;""></div></div>",j,delaylearn,learning,trial,9gYBF2HPp6QXCmIWVzv81XMXlBZ2,9gYBF2HPp6QXCmIWVzv81XMXlBZ2,3.0,images/choice_trial_8.png,images/choice_trial_14.png,images/pattern_1.png,f,j,7000.0,8.0,14.0,1.0,1.0,24.0,1.0,0.0,14.0,150.0,,,,,,5ac3b688fa3b4e0001735a24,15:40:45,26/03/2024
html-keyboard-response,129,248910,0.0-55.0-1.0,,"<div style=""display: flex; flex-direction: column; align-items: center; margin-top: -40px;""><img src=""images/pattern_1.png"" style=""width: 234px; height: 230px; margin-top: -50px;""><div style=""display: flex; justify-content: space-between; margin-top: 33px;""><img src=""images/choice_trial_14.png"" style=""width: 408px; height: 417px; margin-left:608px;""></div></div>",,delaylearn,learning,display_response,9gYBF2HPp6QXCmIWVzv81XMXlBZ2,9gYBF2HPp6QXCmIWVzv81XMXlBZ2,,,,,,,,,,,,,,,,,chosen stimuli: images/choice_trial_14.png,,,,,5ac3b688fa3b4e0001735a24,15:40:45,26/03/2024
html-keyboard-response,130,255927,0.0-55.0-2.0,,,,delaylearn,learning,feedback_duration_window,9gYBF2HPp6QXCmIWVzv81XMXlBZ2,9gYBF2HPp6QXCmIWVzv81XMXlBZ2,,,,,,,,,,,,,,,,,,7000.0,,,,5ac3b688fa3b4e0001735a24,15:40:45,26/03/2024
html-keyboard-response,131,257433,0.0-55.0-3.0,,<div style='margin:auto;width: auto; font-size: 150%'><span style='font-weight: bold; font-size: 100px; color: red;'>0 points!</span><br><br></div>,,delaylearn,learning,feedback_image_window,9gYBF2HPp6QXCmIWVzv81XMXlBZ2,9gYBF2HPp6QXCmIWVzv81XMXlBZ2,,,,,,,,,,,,,,,,,,,,,,5ac3b688fa3b4e0001735a24,15:40:45,26/03/2024
html-keyboard-response,132,259490,0.0-56.0,,"<div style=""font-size:100px;"">+</div>",,delaylearn,learning,ITI,9gYBF2HPp6QXCmIWVzv81XMXlBZ2,9gYBF2HPp6QXCmIWVzv81XMXlBZ2,,,,,,,,,,,,,,,,,,,2055.0,,,5ac3b688fa3b4e0001735a24,15:40:45,26/03/2024
html-keyboard-response,133,260576,0.0-57.0-0.0,1083.2000000476837,"<div style=""display: flex; flex-direction: column; align-items: center; margin-top: -40px;""><img src=""images/pattern_5.png"" style=""width: 234px; height: 230px; margin-top: -50px;""><div style=""display: flex; justify-content: space-between; margin-top: 33px;""><img src=""images/choice_trial_2.png"" style=""width: 408px; height: 417px; margin-right: 200px;""><img src=""images/choice_trial_11.png"" style=""width: 408px; height: 417px;""></div></div>",j,delaylearn,learning,trial,9gYBF2HPp6QXCmIWVzv81XMXlBZ2,9gYBF2HPp6QXCmIWVzv81XMXlBZ2,3.0,images/choice_trial_2.png,images/choice_trial_11.png,images/pattern_5.png,j,j,750.0,2.0,11.0,4.0,1.0,25.0,1.0,1.0,11.0,160.0,,,,,,5ac3b688fa3b4e0001735a24,15:40:45,26/03/2024
html-keyboard-response,134,261586,0.0-57.0-1.0,,"<div style=""display: flex; flex-direction: column; align-items: center; margin-top: -40px;""><img src=""images/pattern_5.png"" style=""width: 234px; height: 230px; margin-top: -50px;""><div style=""display: flex; justify-content: space-between; margin-top: 33px;""><img src=""images/choice_trial_11.png"" style=""width: 408px; height: 417px; margin-left:608px;""></div></div>",,delaylearn,learning,display_response,9gYBF2HPp6QXCmIWVzv81XMXlBZ2,9gYBF2HPp6QXCmIWVzv81XMXlBZ2,,,,,,,,,,,,,,,,,chosen stimuli: images/choice_trial_11.png,,,,,5ac3b688fa3b4e0001735a24,15:40:45,26/03/2024
html-keyboard-response,135,262346,0.0-57.0-2.0,,,,delaylearn,learning,feedback_duration_window,9gYBF2HPp6QXCmIWVzv81XMXlBZ2,9gYBF2HPp6QXCmIWVzv81XMXlBZ2,,,,,,,,,,,,,,,,,,750.0,,,,5ac3b688fa3b4e0001735a24,15:40:45,26/03/2024
html-keyboard-response,136,263851,0.0-57.0-3.0,,<div style='margin:auto;width: auto; font-size: 150%'><span style='font-weight: bold; font-size: 100px; color: green;'>+10 points!</span><br><br></div>,,delaylearn,learning,feedback_image_window,9gYBF2HPp6QXCmIWVzv81XMXlBZ2,9gYBF2HPp6QXCmIWVzv81XMXlBZ2,,,,,,,,,,,,,,,,,,,,,,5ac3b688fa3b4e0001735a24,15:40:45,26/03/2024
html-keyboard-response,137,266336,0.0-58.0,,"<div style=""font-size:100px;"">+</div>",,delaylearn,learning,ITI,9gYBF2HPp6QXCmIWVzv81XMXlBZ2,9gYBF2HPp6QXCmIWVzv81XMXlBZ2,,,,,,,,,,,,,,,,,,,2479.0,,,5ac3b688fa3b4e0001735a24,15:40:45,26/03/2024
html-keyboard-response,138,267526,0.0-59.0-0.0,1187.4000000953674,"<div style=""display: flex; flex-direction: column; align-items: center; margin-top: -40px;""><img src=""images/pattern_3.png"" style=""width: 234px; height: 230px; margin-top: -50px;""><div style=""display: flex; justify-content: space-between; margin-top: 33px;""><img src=""images/choice_trial_10.png"" style=""width: 408px; height: 417px; margin-right: 200px;""><img src=""images/choice_trial_13.png"" style=""width: 408px; height: 417px;""></div></div>",j,delaylearn,learning,trial,9gYBF2HPp6QXCmIWVzv81XMXlBZ2,9gYBF2HPp6QXCmIWVzv81XMXlBZ2,3.0,images/choice_trial_10.png,images/choice_trial_13.png,images/pattern_3.png,j,j,7000.0,10.0,13.0,2.0,1.0,26.0,1.0,1.0,13.0,170.0,,,,,,5ac3b688fa3b4e0001735a24,15:40:45,26/03/2024
html-keyboard-response,139,268540,0.0-59.0-1.0,,"<div style=""display: flex; flex-direction: column; align-items: center; margin-top: -40px;""><img src=""images/pattern_3.png"" style=""width: 234px; height: 230px; margin-top: -50px;""><div style=""display: flex; justify-content: space-between; margin-top: 33px;""><img src=""images/choice_trial_13.png"" style=""width: 408px; height: 417px; margin-left:608px;""></div></div>",,delaylearn,learning,display_response,9gYBF2HPp6QXCmIWVzv81XMXlBZ2,9gYBF2HPp6QXCmIWVzv81XMXlBZ2,,,,,,,,,,,,,,,,,chosen stimuli: images/choice_trial_13.png,,,,,5ac3b688fa3b4e0001735a24,15:40:45,26/03/2024
html-keyboard-response,140,275546,0.0-59.0-2.0,,,,delaylearn,learning,feedback_duration_window,9gYBF2HPp6QXCmIWVzv81XMXlBZ2,9gYBF2HPp6QXCmIWVzv81XMXlBZ2,,,,,,,,,,,,,,,,,,7000.0,,,,5ac3b688fa3b4e0001735a24,15:40:45,26/03/2024
html-keyboard-response,141,277055,0.0-59.0-3.0,,<div style='margin:auto;width: auto; font-size: 150%'><span style='font-weight: bold; font-size: 100px; color: green;'>+10 points!</span><br><br></div>,,delaylearn,learning,feedback_image_window,9gYBF2HPp6QXCmIWVzv81XMXlBZ2,9gYBF2HPp6QXCmIWVzv81XMXlBZ2,,,,,,,,,,,,,,,,,,,,,,5ac3b688fa3b4e0001735a24,15:40:45,26/03/2024
lmdlab-html-vas-response,142,285148,0.0-60.0-0.0,6571.0,*How <b><u>confident</u></b> are you feeling about your answers at this moment?*,0.515625,rewlearn,rate_confidence,,9gYBF2HPp6QXCmIWVzv81XMXlBZ2,9gYBF2HPp6QXCmIWVzv81XMXlBZ2,,,,,,,,,,,,,,,,,,,,"['No confidence', 'Complete confidence']",,5ac3b688fa3b4e0001735a24,15:40:45,26/03/2024
lmdlab-rest-trial-limit,143,413564,0.0-60.0-1.0,126897.79999995232,"<div style=""font-size:40px;""><b>Please take a break!</b><br><br><br><br><p>Great work: you earned 170 points.<br><br><br><p>You have completed part(s) 1 of 5.<br><br><br><br>When you are ready to continue<br><br><br>please click the button.</p><br><br>",0,delaylearn,learning,break,9gYBF2HPp6QXCmIWVzv81XMXlBZ2,9gYBF2HPp6QXCmIWVzv81XMXlBZ2,,,,,,,,,,,,,,,,,,,,,0.0,5ac3b688fa3b4e0001735a24,15:40:45,26/03/2024
html-keyboard-response,144,416572,0.0-60.0-2.0,,"<div style=""font-size:100px;"">+</div>",,delaylearn,learning,pre_fixation,9gYBF2HPp6QXCmIWVzv81XMXlBZ2,,,,,,,,,,,,,,,,,,,,,,,5ac3b688fa3b4e0001735a24,15:40:45,26/03/2024
lmdlab-html-vas-response,145,420851,0.0-60.0-3.0-0.0,3263.0,How happy are you right now?,0.2743055555555556,delaylearn,learning,mood_baseline,9gYBF2HPp6QXCmIWVzv81XMXlBZ2,9gYBF2HPp6QXCmIWVzv81XMXlBZ2,,,,,,,,,,,,,,,,,,,,"['Very unhappy', 'Very happy']",,5ac3b688fa3b4e0001735a24,15:40:45,26/03/2024
html-keyboard-response,146,422366,0.0-60.0-3.0-1.0,,,,,,mood_baseline_fixation,9gYBF2HPp6QXCmIWVzv81XMXlBZ2,,,,,,,,,,,,,,,,,,,,,,,5ac3b688fa3b4e0001735a24,15:40:45,26/03/2024
html-keyboard-response,147,424242,0.0-61.0,,"<div style=""font-size:100px;"">+</div>",,delaylearn,learning,ITI,9gYBF2HPp6QXCmIWVzv81XMXlBZ2,9gYBF2HPp6QXCmIWVzv81XMXlBZ2,,,,,,,,,,,,,,,,,,,1868.0,,,5ac3b688fa3b4e0001735a24,15:40:45,26/03/2024
html-keyboard-response,148,425196,0.0-62.0-0.0,950.9000000953674,"<div style=""display: flex; flex-direction: column; align-items: center; margin-top: -40px;""><img src=""images/pattern_7.png"" style=""width: 234px; height: 230px; margin-top: -50px;""><div style=""display: flex; justify-content: space-between; margin-top: 33px;""><img src=""images/choice_trial_12.png"" style=""width: 408px; height: 417px; margin-right: 200px;""><img src=""images/choice_trial_6.png"" style=""width: 408px; height: 417px;""></div></div>",j,delaylearn,learning,trial,9gYBF2HPp6QXCmIWVzv81XMXlBZ2,9gYBF2HPp6QXCmIWVzv81XMXlBZ2,3.0,images/choice_trial_12.png,images/choice_trial_6.png,images/pattern_7.png,j,j,750.0,12.0,6.0,6.0,1.0,27.0,1.0,1.0,6.0,180.0,,,,,,5ac3b688fa3b4e0001735a24,15:40:45,26/03/2024
html-keyboard-response,149,426201,0.0-62.0-1.0,,"<div style=""display: flex; flex-direction: column; align-items: center; margin-top: -40px;""><img src=""images/pattern_7.png"" style=""width: 234px; height: 230px; margin-top: -50px;""><div style=""display: flex; justify-content: space-between; margin-top: 33px;""><img src=""images/choice_trial_6.png"" style=""width: 408px; height: 417px; margin-left:608px;""></div></div>",,delaylearn,learning,display_response,9gYBF2HPp6QXCmIWVzv81XMXlBZ2,9gYBF2HPp6QXCmIWVzv81XMXlBZ2,,,,,,,,,,,,,,,,,chosen stimuli: images/choice_trial_6.png,,,,,5ac3b688fa3b4e0001735a24,15:40:45,26/03/2024
html-keyboard-response,150,426962,0.0-62.0-2.0,,,,delaylearn,learning,feedback_duration_window,9gYBF2HPp6QXCmIWVzv81XMXlBZ2,9gYBF2HPp6QXCmIWVzv81XMXlBZ2,,,,,,,,,,,,,,,,,,750.0,,,,5ac3b688fa3b4e0001735a24,15:40:45,26/03/2024
html-keyboard-response,151,428469,0.0-62.0-3.0,,<div style='margin:auto;width: auto; font-size: 150%'><span style='font-weight: bold; font-size: 100px; color: green;'>+10 points!</span><br><br></div>,,delaylearn,learning,feedback_image_window,9gYBF2HPp6QXCmIWVzv81XMXlBZ2,9gYBF2HPp6QXCmIWVzv81XMXlBZ2,,,,,,,,,,,,,,,,,,,,,,5ac3b688fa3b4e0001735a24,15:40:45,26/03/2024
html-keyboard-response,152,428984,0.0-63.0-0.0,,,,,,mood_trial_fixation,9gYBF2HPp6QXCmIWVzv81XMXlBZ2,,,,,,,,,,,,,,,,,,,,,,,5ac3b688fa3b4e0001735a24,15:40:45,26/03/2024
lmdlab-html-vas-response,153,433676,0.0-63.0-1.0,3679.0,How happy are you right now?,0.3055555555555556,delaylearn,learning,mood_trial,9gYBF2HPp6QXCmIWVzv81XMXlBZ2,9gYBF2HPp6QXCmIWVzv81XMXlBZ2,,,,,,,,,,,,,,,,,,,,"['Very unhappy', 'Very happy']",,5ac3b688fa3b4e0001735a24,15:40:45,26/03/2024
html-keyboard-response,154,436165,0.0-64.0,,"<div style=""font-size:100px;"">+</div>",,delaylearn,learning,ITI,9gYBF2HPp6QXCmIWVzv81XMXlBZ2,9gYBF2HPp6QXCmIWVzv81XMXlBZ2,,,,,,,,,,,,,,,,,,,2480.0,,,5ac3b688fa3b4e0001735a24,15:40:45,26/03/2024
html-keyboard-response,155,437316,0.0-65.0-0.0,1148.5,"<div style=""display: flex; flex-direction: column; align-items: center; margin-top: -40px;""><img src=""images/pattern_1.png"" style=""width: 234px; height: 230px; margin-top: -50px;""><div style=""display: flex; justify-content: space-between; margin-top: 33px;""><img src=""images/choice_trial_14.png"" style=""width: 408px; height: 417px; margin-right: 200px;""><img src=""images/choice_trial_8.png"" style=""width: 408px; height: 417px;""></div></div>",f,delaylearn,learning,trial,9gYBF2HPp6QXCmIWVzv81XMXlBZ2,9gYBF2HPp6QXCmIWVzv81XMXlBZ2,3.0,images/choice_trial_14.png,images/choice_trial_8.png,images/pattern_1.png,f,f,7000.0,14.0,8.0,1.0,0.0,28.0,1.0,1.0,14.0,190.0,,,,,,5ac3b688fa3b4e0001735a24,15:40:45,26/03/2024
html-keyboard-response,156,438320,0.0-65.0-1.0,,"<div style=""display: flex; flex-direction: column; align-items: center; margin-top: -40px;""><img src=""images/pattern_1.png"" style=""width: 234px; height: 230px; margin-top: -50px;""><div style=""display: flex; justify-content: space-between; margin-top: 33px;""><img src=""images/choice_trial_14.png"" style=""width: 408px; height: 417px; margin-right: 608px;""></div></div>",,delaylearn,learning,display_response,9gYBF2HPp6QXCmIWVzv81XMXlBZ2,9gYBF2HPp6QXCmIWVzv81XMXlBZ2,,,,,,,,,,,,,,,,,chosen stimuli: images/choice_trial_14.png,,,,,5ac3b688fa3b4e0001735a24,15:40:45,26/03/2024
html-keyboard-response,157,445333,0.0-65.0-2.0,,,,delaylearn,learning,feedback_duration_window,9gYBF2HPp6QXCmIWVzv81XMXlBZ2,9gYBF2HPp6QXCmIWVzv81XMXlBZ2,,,,,,,,,,,,,,,,,,7000.0,,,,5ac3b688fa3b4e0001735a24,15:40:45,26/03/2024
html-keyboard-response,158,446838,0.0-65.0-3.0,,<div style='margin:auto;width: auto; font-size: 150%'><span style='font-weight: bold; font-size: 100px; color: green;'>+10 points!</span><br><br></div>,,delaylearn,learning,feedback_image_window,9gYBF2HPp6QXCmIWVzv81XMXlBZ2,9gYBF2HPp6QXCmIWVzv81XMXlBZ2,,,,,,,,,,,,,,,,,,,,,,5ac3b688fa3b4e0001735a24,15:40:45,26/03/2024
html-keyboard-response,159,449091,0.0-66.0,,"<div style=""font-size:100px;"">+</div>",,delaylearn,learning,ITI,9gYBF2HPp6QXCmIWVzv81XMXlBZ2,9gYBF2HPp6QXCmIWVzv81XMXlBZ2,,,,,,,,,,,,,,,,,,,2248.0,,,5ac3b688fa3b4e0001735a24,15:40:45,26/03/2024
html-keyboard-response,160,450228,0.0-67.0-0.0,1134.1000001430511,"<div style=""display: flex; flex-direction: column; align-items: center; margin-top: -40px;""><img src=""images/pattern_5.png"" style=""width: 234px; height: 230px; margin-top: -50px;""><div style=""display: flex; justify-content: space-between; margin-top: 33px;""><img src=""images/choice_trial_11.png"" style=""width: 408px; height: 417px; margin-right: 200px;""><img src=""images/choice_trial_2.png"" style=""width: 408px; height: 417px;""></div></div>",f,delaylearn,learning,trial,9gYBF2HPp6QXCmIWVzv81XMXlBZ2,9gYBF2HPp6QXCmIWVzv81XMXlBZ2,3.0,images/choice_trial_11.png,images/choice_trial_2.png,images/pattern_5.png,f,f,750.0,11.0,2.0,4.0,0.0,29.0,1.0,1.0,11.0,200.0,,,,,,5ac3b688fa3b4e0001735a24,15:40:45,26/03/2024
html-keyboard-response,161,451232,0.0-67.0-1.0,,"<div style=""display: flex; flex-direction: column; align-items: center; margin-top: -40px;""><img src=""images/pattern_5.png"" style=""width: 234px; height: 230px; margin-top: -50px;""><div style=""display: flex; justify-content: space-between; margin-top: 33px;""><img src=""images/choice_trial_11.png"" style=""width: 408px; height: 417px; margin-right: 608px;""></div></div>",,delaylearn,learning,display_response,9gYBF2HPp6QXCmIWVzv81XMXlBZ2,9gYBF2HPp6QXCmIWVzv81XMXlBZ2,,,,,,,,,,,,,,,,,chosen stimuli: images/choice_trial_11.png,,,,,5ac3b688fa3b4e0001735a24,15:40:45,26/03/2024
html-keyboard-response,162,451992,0.0-67.0-2.0,,,,delaylearn,learning,feedback_duration_window,9gYBF2HPp6QXCmIWVzv81XMXlBZ2,9gYBF2HPp6QXCmIWVzv81XMXlBZ2,,,,,,,,,,,,,,,,,,750.0,,,,5ac3b688fa3b4e0001735a24,15:40:45,26/03/2024
html-keyboard-response,163,453495,0.0-67.0-3.0,,<div style='margin:auto;width: auto; font-size: 150%'><span style='font-weight: bold; font-size: 100px; color: green;'>+10 points!</span><br><br></div>,,delaylearn,learning,feedback_image_window,9gYBF2HPp6QXCmIWVzv81XMXlBZ2,9gYBF2HPp6QXCmIWVzv81XMXlBZ2,,,,,,,,,,,,,,,,,,,,,,5ac3b688fa3b4e0001735a24,15:40:45,26/03/2024
html-keyboard-response,164,455656,0.0-68.0,,"<div style=""font-size:100px;"">+</div>",,delaylearn,learning,ITI,9gYBF2HPp6QXCmIWVzv81XMXlBZ2,9gYBF2HPp6QXCmIWVzv81XMXlBZ2,,,,,,,,,,,,,,,,,,,2144.0,,,5ac3b688fa3b4e0001735a24,15:40:45,26/03/2024
html-keyboard-response,165,456656,0.0-69.0-0.0,996.7999999523163,"<div style=""display: flex; flex-direction: column; align-items: center; margin-top: -40px;""><img src=""images/pattern_6.png"" style=""width: 234px; height: 230px; margin-top: -50px;""><div style=""display: flex; justify-content: space-between; margin-top: 33px;""><img src=""images/choice_trial_3.png"" style=""width: 408px; height: 417px; margin-right: 200px;""><img src=""images/choice_trial_16.png"" style=""width: 408px; height: 417px;""></div></div>",f,delaylearn,learning,trial,9gYBF2HPp6QXCmIWVzv81XMXlBZ2,9gYBF2HPp6QXCmIWVzv81XMXlBZ2,3.0,images/choice_trial_3.png,images/choice_trial_16.png,images/pattern_6.png,j,j,750.0,3.0,16.0,5.0,1.0,30.0,0.0,0.0,3.0,200.0,,,,,,5ac3b688fa3b4e0001735a24,15:40:45,26/03/2024
html-keyboard-response,166,457671,0.0-69.0-1.0,,"<div style=""display: flex; flex-direction: column; align-items: center; margin-top: -40px;""><img src=""images/pattern_6.png"" style=""width: 234px; height: 230px; margin-top: -50px;""><div style=""display: flex; justify-content: space-between; margin-top: 33px;""><img src=""images/choice_trial_3.png"" style=""width: 408px; height: 417px; margin-right: 608px;""></div></div>",,delaylearn,learning,display_response,9gYBF2HPp6QXCmIWVzv81XMXlBZ2,9gYBF2HPp6QXCmIWVzv81XMXlBZ2,,,,,,,,,,,,,,,,,chosen stimuli: images/choice_trial_3.png,,,,,5ac3b688fa3b4e0001735a24,15:40:45,26/03/2024
html-keyboard-response,167,458433,0.0-69.0-2.0,,,,delaylearn,learning,feedback_duration_window,9gYBF2HPp6QXCmIWVzv81XMXlBZ2,9gYBF2HPp6QXCmIWVzv81XMXlBZ2,,,,,,,,,,,,,,,,,,750.0,,,,5ac3b688fa3b4e0001735a24,15:40:45,26/03/2024
html-keyboard-response,168,459935,0.0-69.0-3.0,,<div style='margin:auto;width: auto; font-size: 150%'><span style='font-weight: bold; font-size: 100px; color: red;'>0 points!</span><br><br></div>,,delaylearn,learning,feedback_image_window,9gYBF2HPp6QXCmIWVzv81XMXlBZ2,9gYBF2HPp6QXCmIWVzv81XMXlBZ2,,,,,,,,,,,,,,,,,,,,,,5ac3b688fa3b4e0001735a24,15:40:45,26/03/2024
html-keyboard-response,169,460446,0.0-70.0-0.0,,,,,,mood_trial_fixation,9gYBF2HPp6QXCmIWVzv81XMXlBZ2,,,,,,,,,,,,,,,,,,,,,,,5ac3b688fa3b4e0001735a24,15:40:45,26/03/2024
lmdlab-html-vas-response,170,464742,0.0-70.0-1.0,3278.0,How happy are you right now?,0.2899305555555556,delaylearn,learning,mood_trial,9gYBF2HPp6QXCmIWVzv81XMXlBZ2,9gYBF2HPp6QXCmIWVzv81XMXlBZ2,,,,,,,,,,,,,,,,,,,,"['Very unhappy', 'Very happy']",,5ac3b688fa3b4e0001735a24,15:40:45,26/03/2024
html-keyboard-response,171,466935,0.0-71.0,,"<div style=""font-size:100px;"">+</div>",,delaylearn,learning,ITI,9gYBF2HPp6QXCmIWVzv81XMXlBZ2,9gYBF2HPp6QXCmIWVzv81XMXlBZ2,,,,,,,,,,,,,,,,,,,2177.0,,,5ac3b688fa3b4e0001735a24,15:40:45,26/03/2024
html-keyboard-response,172,467701,0.0-72.0-0.0,762.7000000476837,"<div style=""display: flex; flex-direction: column; align-items: center; margin-top: -40px;""><img src=""images/pattern_4.png"" style=""width: 234px; height: 230px; margin-top: -50px;""><div style=""display: flex; justify-content: space-between; margin-top: 33px;""><img src=""images/choice_trial_9.png"" style=""width: 408px; height: 417px; margin-right: 200px;""><img src=""images/choice_trial_15.png"" style=""width: 408px; height: 417px;""></div></div>",j,delaylearn,learning,trial,9gYBF2HPp6QXCmIWVzv81XMXlBZ2,9gYBF2HPp6QXCmIWVzv81XMXlBZ2,3.0,images/choice_trial_9.png,images/choice_trial_15.png,images/pattern_4.png,j,j,7000.0,9.0,15.0,3.0,1.0,31.0,1.0,1.0,15.0,210.0,,,,,,5ac3b688fa3b4e0001735a24,15:40:45,26/03/2024
html-keyboard-response,173,468703,0.0-72.0-1.0,,"<div style=""display: flex; flex-direction: column; align-items: center; margin-top: -40px;""><img src=""images/pattern_4.png"" style=""width: 234px; height: 230px; margin-top: -50px;""><div style=""display: flex; justify-content: space-between; margin-top: 33px;""><img src=""images/choice_trial_15.png"" style=""width: 408px; height: 417px; margin-left:608px;""></div></div>",,delaylearn,learning,display_response,9gYBF2HPp6QXCmIWVzv81XMXlBZ2,9gYBF2HPp6QXCmIWVzv81XMXlBZ2,,,,,,,,,,,,,,,,,chosen stimuli: images/choice_trial_15.png,,,,,5ac3b688fa3b4e0001735a24,15:40:45,26/03/2024
html-keyboard-response,174,475716,0.0-72.0-2.0,,,,delaylearn,learning,feedback_duration_window,9gYBF2HPp6QXCmIWVzv81XMXlBZ2,9gYBF2HPp6QXCmIWVzv81XMXlBZ2,,,,,,,,,,,,,,,,,,7000.0,,,,5ac3b688fa3b4e0001735a24,15:40:45,26/03/2024
html-keyboard-response,175,477221,0.0-72.0-3.0,,<div style='margin:auto;width: auto; font-size: 150%'><span style='font-weight: bold; font-size: 100px; color: green;'>+10 points!</span><br><br></div>,,delaylearn,learning,feedback_image_window,9gYBF2HPp6QXCmIWVzv81XMXlBZ2,9gYBF2HPp6QXCmIWVzv81XMXlBZ2,,,,,,,,,,,,,,,,,,,,,,5ac3b688fa3b4e0001735a24,15:40:45,26/03/2024
html-keyboard-response,176,479544,0.0-73.0,,"<div style=""font-size:100px;"">+</div>",,delaylearn,learning,ITI,9gYBF2HPp6QXCmIWVzv81XMXlBZ2,9gYBF2HPp6QXCmIWVzv81XMXlBZ2,,,,,,,,,,,,,,,,,,,2320.0,,,5ac3b688fa3b4e0001735a24,15:40:45,26/03/2024
html-keyboard-response,177,480848,0.0-74.0-0.0,1301.5,"<div style=""display: flex; flex-direction: column; align-items: center; margin-top: -40px;""><img src=""images/pattern_3.png"" style=""width: 234px; height: 230px; margin-top: -50px;""><div style=""display: flex; justify-content: space-between; margin-top: 33px;""><img src=""images/choice_trial_10.png"" style=""width: 408px; height: 417px; margin-right: 200px;""><img src=""images/choice_trial_13.png"" style=""width: 408px; height: 417px;""></div></div>",j,delaylearn,learning,trial,9gYBF2HPp6QXCmIWVzv81XMXlBZ2,9gYBF2HPp6QXCmIWVzv81XMXlBZ2,3.0,images/choice_trial_10.png,images/choice_trial_13.png,images/pattern_3.png,j,j,7000.0,10.0,13.0,2.0,1.0,32.0,1.0,1.0,13.0,220.0,,,,,,5ac3b688fa3b4e0001735a24,15:40:45,26/03/2024
html-keyboard-response,178,481851,0.0-74.0-1.0,,"<div style=""display: flex; flex-direction: column; align-items: center; margin-top: -40px;""><img src=""images/pattern_3.png"" style=""width: 234px; height: 230px; margin-top: -50px;""><div style=""display: flex; justify-content: space-between; margin-top: 33px;""><img src=""images/choice_trial_13.png"" style=""width: 408px; height: 417px; margin-left:608px;""></div></div>",,delaylearn,learning,display_response,9gYBF2HPp6QXCmIWVzv81XMXlBZ2,9gYBF2HPp6QXCmIWVzv81XMXlBZ2,,,,,,,,,,,,,,,,,chosen stimuli: images/choice_trial_13.png,,,,,5ac3b688fa3b4e0001735a24,15:40:45,26/03/2024
html-keyboard-response,179,488862,0.0-74.0-2.0,,,,delaylearn,learning,feedback_duration_window,9gYBF2HPp6QXCmIWVzv81XMXlBZ2,9gYBF2HPp6QXCmIWVzv81XMXlBZ2,,,,,,,,,,,,,,,,,,7000.0,,,,5ac3b688fa3b4e0001735a24,15:40:45,26/03/2024
html-keyboard-response,180,490372,0.0-74.0-3.0,,<div style='margin:auto;width: auto; font-size: 150%'><span style='font-weight: bold; font-size: 100px; color: green;'>+10 points!</span><br><br></div>,,delaylearn,learning,feedback_image_window,9gYBF2HPp6QXCmIWVzv81XMXlBZ2,9gYBF2HPp6QXCmIWVzv81XMXlBZ2,,,,,,,,,,,,,,,,,,,,,,5ac3b688fa3b4e0001735a24,15:40:45,26/03/2024
html-keyboard-response,181,492210,0.0-75.0,,"<div style=""font-size:100px;"">+</div>",,delaylearn,learning,ITI,9gYBF2HPp6QXCmIWVzv81XMXlBZ2,9gYBF2HPp6QXCmIWVzv81XMXlBZ2,,,,,,,,,,,,,,,,,,,1833.0,,,5ac3b688fa3b4e0001735a24,15:40:45,26/03/2024
html-keyboard-response,182,493367,0.0-76.0-0.0,1155.0,"<div style=""display: flex; flex-direction: column; align-items: center; margin-top: -40px;""><img src=""images/pattern_5.png"" style=""width: 234px; height: 230px; margin-top: -50px;""><div style=""display: flex; justify-content: space-between; margin-top: 33px;""><img src=""images/choice_trial_11.png"" style=""width: 408px; height: 417px; margin-right: 200px;""><img src=""images/choice_trial_2.png"" style=""width: 408px; height: 417px;""></div></div>",f,delaylearn,learning,trial,9gYBF2HPp6QXCmIWVzv81XMXlBZ2,9gYBF2HPp6QXCmIWVzv81XMXlBZ2,3.0,images/choice_trial_11.png,images/choice_trial_2.png,images/pattern_5.png,j,f,750.0,11.0,2.0,4.0,0.0,33.0,1.0,0.0,11.0,220.0,,,,,,5ac3b688fa3b4e0001735a24,15:40:45,26/03/2024
html-keyboard-response,183,494371,0.0-76.0-1.0,,"<div style=""display: flex; flex-direction: column; align-items: center; margin-top: -40px;""><img src=""images/pattern_5.png"" style=""width: 234px; height: 230px; margin-top: -50px;""><div style=""display: flex; justify-content: space-between; margin-top: 33px;""><img src=""images/choice_trial_11.png"" style=""width: 408px; height: 417px; margin-right: 608px;""></div></div>",,delaylearn,learning,display_response,9gYBF2HPp6QXCmIWVzv81XMXlBZ2,9gYBF2HPp6QXCmIWVzv81XMXlBZ2,,,,,,,,,,,,,,,,,chosen stimuli: images/choice_trial_11.png,,,,,5ac3b688fa3b4e0001735a24,15:40:45,26/03/2024
html-keyboard-response,184,495132,0.0-76.0-2.0,,,,delaylearn,learning,feedback_duration_window,9gYBF2HPp6QXCmIWVzv81XMXlBZ2,9gYBF2HPp6QXCmIWVzv81XMXlBZ2,,,,,,,,,,,,,,,,,,750.0,,,,5ac3b688fa3b4e0001735a24,15:40:45,26/03/2024
html-keyboard-response,185,496641,0.0-76.0-3.0,,<div style='margin:auto;width: auto; font-size: 150%'><span style='font-weight: bold; font-size: 100px; color: red;'>0 points!</span><br><br></div>,,delaylearn,learning,feedback_image_window,9gYBF2HPp6QXCmIWVzv81XMXlBZ2,9gYBF2HPp6QXCmIWVzv81XMXlBZ2,,,,,,,,,,,,,,,,,,,,,,5ac3b688fa3b4e0001735a24,15:40:45,26/03/2024
html-keyboard-response,186,498243,0.0-77.0,,"<div style=""font-size:100px;"">+</div>",,delaylearn,learning,ITI,9gYBF2HPp6QXCmIWVzv81XMXlBZ2,9gYBF2HPp6QXCmIWVzv81XMXlBZ2,,,,,,,,,,,,,,,,,,,1590.0,,,5ac3b688fa3b4e0001735a24,15:40:45,26/03/2024
html-keyboard-response,187,498977,0.0-78.0-0.0,730.6000001430511,"<div style=""display: flex; flex-direction: column; align-items: center; margin-top: -40px;""><img src=""images/pattern_1.png"" style=""width: 234px; height: 230px; margin-top: -50px;""><div style=""display: flex; justify-content: space-between; margin-top: 33px;""><img src=""images/choice_trial_14.png"" style=""width: 408px; height: 417px; margin-right: 200px;""><img src=""images/choice_trial_8.png"" style=""width: 408px; height: 417px;""></div></div>",f,delaylearn,learning,trial,9gYBF2HPp6QXCmIWVzv81XMXlBZ2,9gYBF2HPp6QXCmIWVzv81XMXlBZ2,3.0,images/choice_trial_14.png,images/choice_trial_8.png,images/pattern_1.png,f,f,7000.0,14.0,8.0,1.0,0.0,34.0,1.0,1.0,14.0,230.0,,,,,,5ac3b688fa3b4e0001735a24,15:40:45,26/03/2024
html-keyboard-response,188,499993,0.0-78.0-1.0,,"<div style=""display: flex; flex-direction: column; align-items: center; margin-top: -40px;""><img src=""images/pattern_1.png"" style=""width: 234px; height: 230px; margin-top: -50px;""><div style=""display: flex; justify-content: space-between; margin-top: 33px;""><img src=""images/choice_trial_14.png"" style=""width: 408px; height: 417px; margin-right: 608px;""></div></div>",,delaylearn,learning,display_response,9gYBF2HPp6QXCmIWVzv81XMXlBZ2,9gYBF2HPp6QXCmIWVzv81XMXlBZ2,,,,,,,,,,,,,,,,,chosen stimuli: images/choice_trial_14.png,,,,,5ac3b688fa3b4e0001735a24,15:40:45,26/03/2024
html-keyboard-response,189,506996,0.0-78.0-2.0,,,,delaylearn,learning,feedback_duration_window,9gYBF2HPp6QXCmIWVzv81XMXlBZ2,9gYBF2HPp6QXCmIWVzv81XMXlBZ2,,,,,,,,,,,,,,,,,,7000.0,,,,5ac3b688fa3b4e0001735a24,15:40:45,26/03/2024
html-keyboard-response,190,508512,0.0-78.0-3.0,,<div style='margin:auto;width: auto; font-size: 150%'><span style='font-weight: bold; font-size: 100px; color: green;'>+10 points!</span><br><br></div>,,delaylearn,learning,feedback_image_window,9gYBF2HPp6QXCmIWVzv81XMXlBZ2,9gYBF2HPp6QXCmIWVzv81XMXlBZ2,,,,,,,,,,,,,,,,,,,,,,5ac3b688fa3b4e0001735a24,15:40:45,26/03/2024
html-keyboard-response,191,509021,0.0-79.0-0.0,,,,,,mood_trial_fixation,9gYBF2HPp6QXCmIWVzv81XMXlBZ2,,,,,,,,,,,,,,,,,,,,,,,5ac3b688fa3b4e0001735a24,15:40:45,26/03/2024
lmdlab-html-vas-response,192,513187,0.0-79.0-1.0,3152.0,How happy are you right now?,0.2673611111111111,delaylearn,learning,mood_trial,9gYBF2HPp6QXCmIWVzv81XMXlBZ2,9gYBF2HPp6QXCmIWVzv81XMXlBZ2,,,,,,,,,,,,,,,,,,,,"['Very unhappy', 'Very happy']",,5ac3b688fa3b4e0001735a24,15:40:45,26/03/2024
html-keyboard-response,193,515698,0.0-80.0,,"<div style=""font-size:100px;"">+</div>",,delaylearn,learning,ITI,9gYBF2HPp6QXCmIWVzv81XMXlBZ2,9gYBF2HPp6QXCmIWVzv81XMXlBZ2,,,,,,,,,,,,,,,,,,,2496.0,,,5ac3b688fa3b4e0001735a24,15:40:45,26/03/2024
html-keyboard-response,194,516751,0.0-81.0-0.0,1049.3000001907349,"<div style=""display: flex; flex-direction: column; align-items: center; margin-top: -40px;""><img src=""images/pattern_6.png"" style=""width: 234px; height: 230px; margin-top: -50px;""><div style=""display: flex; justify-content: space-between; margin-top: 33px;""><img src=""images/choice_trial_16.png"" style=""width: 408px; height: 417px; margin-right: 200px;""><img src=""images/choice_trial_3.png"" style=""width: 408px; height: 417px;""></div></div>",j,delaylearn,learning,trial,9gYBF2HPp6QXCmIWVzv81XMXlBZ2,9gYBF2HPp6QXCmIWVzv81XMXlBZ2,3.0,images/choice_trial_16.png,images/choice_trial_3.png,images/pattern_6.png,j,f,750.0,16.0,3.0,5.0,0.0,35.0,0.0,1.0,3.0,240.0,,,,,,5ac3b688fa3b4e0001735a24,15:40:45,26/03/2024
html-keyboard-response,195,517762,0.0-81.0-1.0,,"<div style=""display: flex; flex-direction: column; align-items: center; margin-top: -40px;""><img src=""images/pattern_6.png"" style=""width: 234px; height: 230px; margin-top: -50px;""><div style=""display: flex; justify-content: space-between; margin-top: 33px;""><img src=""images/choice_trial_3.png"" style=""width: 408px; height: 417px; margin-left:608px;""></div></div>",,delaylearn,learning,display_response,9gYBF2HPp6QXCmIWVzv81XMXlBZ2,9gYBF2HPp6QXCmIWVzv81XMXlBZ2,,,,,,,,,,,,,,,,,chosen stimuli: images/choice_trial_3.png,,,,,5ac3b688fa3b4e0001735a24,15:40:45,26/03/2024
html-keyboard-response,196,518520,0.0-81.0-2.0,,,,delaylearn,learning,feedback_duration_window,9gYBF2HPp6QXCmIWVzv81XMXlBZ2,9gYBF2HPp6QXCmIWVzv81XMXlBZ2,,,,,,,,,,,,,,,,,,750.0,,,,5ac3b688fa3b4e0001735a24,15:40:45,26/03/2024
html-keyboard-response,197,520022,0.0-81.0-3.0,,<div style='margin:auto;width: auto; font-size: 150%'><span style='font-weight: bold; font-size: 100px; color: green;'>+10 points!</span><br><br></div>,,delaylearn,learning,feedback_image_window,9gYBF2HPp6QXCmIWVzv81XMXlBZ2,9gYBF2HPp6QXCmIWVzv81XMXlBZ2,,,,,,,,,,,,,,,,,,,,,,5ac3b688fa3b4e0001735a24,15:40:45,26/03/2024
html-keyboard-response,198,521544,0.0-82.0,,"<div style=""font-size:100px;"">+</div>",,delaylearn,learning,ITI,9gYBF2HPp6QXCmIWVzv81XMXlBZ2,9gYBF2HPp6QXCmIWVzv81XMXlBZ2,,,,,,,,,,,,,,,,,,,1517.0,,,5ac3b688fa3b4e0001735a24,15:40:45,26/03/2024
html-keyboard-response,199,522258,0.0-83.0-0.0,712.0,"<div style=""display: flex; flex-direction: column; align-items: center; margin-top: -40px;""><img src=""images/pattern_3.png"" style=""width: 234px; height: 230px; margin-top: -50px;""><div style=""display: flex; justify-content: space-between; margin-top: 33px;""><img src=""images/choice_trial_10.png"" style=""width: 408px; height: 417px; margin-right: 200px;""><img src=""images/choice_trial_13.png"" style=""width: 408px; height: 417px;""></div></div>",j,delaylearn,learning,trial,9gYBF2HPp6QXCmIWVzv81XMXlBZ2,9gYBF2HPp6QXCmIWVzv81XMXlBZ2,3.0,images/choice_trial_10.png,images/choice_trial_13.png,images/pattern_3.png,j,j,7000.0,10.0,13.0,2.0,1.0,36.0,1.0,1.0,13.0,250.0,,,,,,5ac3b688fa3b4e0001735a24,15:40:45,26/03/2024
html-keyboard-response,200,523268,0.0-83.0-1.0,,"<div style=""display: flex; flex-direction: column; align-items: center; margin-top: -40px;""><img src=""images/pattern_3.png"" style=""width: 234px; height: 230px; margin-top: -50px;""><div style=""display: flex; justify-content: space-between; margin-top: 33px;""><img src=""images/choice_trial_13.png"" style=""width: 408px; height: 417px; margin-left:608px;""></div></div>",,delaylearn,learning,display_response,9gYBF2HPp6QXCmIWVzv81XMXlBZ2,9gYBF2HPp6QXCmIWVzv81XMXlBZ2,,,,,,,,,,,,,,,,,chosen stimuli: images/choice_trial_13.png,,,,,5ac3b688fa3b4e0001735a24,15:40:45,26/03/2024
html-keyboard-response,201,530285,0.0-83.0-2.0,,,,delaylearn,learning,feedback_duration_window,9gYBF2HPp6QXCmIWVzv81XMXlBZ2,9gYBF2HPp6QXCmIWVzv81XMXlBZ2,,,,,,,,,,,,,,,,,,7000.0,,,,5ac3b688fa3b4e0001735a24,15:40:45,26/03/2024
html-keyboard-response,202,531791,0.0-83.0-3.0,,<div style='margin:auto;width: auto; font-size: 150%'><span style='font-weight: bold; font-size: 100px; color: green;'>+10 points!</span><br><br></div>,,delaylearn,learning,feedback_image_window,9gYBF2HPp6QXCmIWVzv81XMXlBZ2,9gYBF2HPp6QXCmIWVzv81XMXlBZ2,,,,,,,,,,,,,,,,,,,,,,5ac3b688fa3b4e0001735a24,15:40:45,26/03/2024
html-keyboard-response,203,534072,0.0-84.0,,"<div style=""font-size:100px;"">+</div>",,delaylearn,learning,ITI,9gYBF2HPp6QXCmIWVzv81XMXlBZ2,9gYBF2HPp6QXCmIWVzv81XMXlBZ2,,,,,,,,,,,,,,,,,,,2275.0,,,5ac3b688fa3b4e0001735a24,15:40:45,26/03/2024
html-keyboard-response,204,534884,0.0-85.0-0.0,809.0999999046326,"<div style=""display: flex; flex-direction: column; align-items: center; margin-top: -40px;""><img src=""images/pattern_4.png"" style=""width: 234px; height: 230px; margin-top: -50px;""><div style=""display: flex; justify-content: space-between; margin-top: 33px;""><img src=""images/choice_trial_9.png"" style=""width: 408px; height: 417px; margin-right: 200px;""><img src=""images/choice_trial_15.png"" style=""width: 408px; height: 417px;""></div></div>",j,delaylearn,learning,trial,9gYBF2HPp6QXCmIWVzv81XMXlBZ2,9gYBF2HPp6QXCmIWVzv81XMXlBZ2,3.0,images/choice_trial_9.png,images/choice_trial_15.png,images/pattern_4.png,f,j,7000.0,9.0,15.0,3.0,1.0,37.0,1.0,0.0,15.0,250.0,,,,,,5ac3b688fa3b4e0001735a24,15:40:45,26/03/2024
html-keyboard-response,205,535891,0.0-85.0-1.0,,"<div style=""display: flex; flex-direction: column; align-items: center; margin-top: -40px;""><img src=""images/pattern_4.png"" style=""width: 234px; height: 230px; margin-top: -50px;""><div style=""display: flex; justify-content: space-between; margin-top: 33px;""><img src=""images/choice_trial_15.png"" style=""width: 408px; height: 417px; margin-left:608px;""></div></div>",,delaylearn,learning,display_response,9gYBF2HPp6QXCmIWVzv81XMXlBZ2,9gYBF2HPp6QXCmIWVzv81XMXlBZ2,,,,,,,,,,,,,,,,,chosen stimuli: images/choice_trial_15.png,,,,,5ac3b688fa3b4e0001735a24,15:40:45,26/03/2024
html-keyboard-response,206,542893,0.0-85.0-2.0,,,,delaylearn,learning,feedback_duration_window,9gYBF2HPp6QXCmIWVzv81XMXlBZ2,9gYBF2HPp6QXCmIWVzv81XMXlBZ2,,,,,,,,,,,,,,,,,,7000.0,,,,5ac3b688fa3b4e0001735a24,15:40:45,26/03/2024
html-keyboard-response,207,544399,0.0-85.0-3.0,,<div style='margin:auto;width: auto; font-size: 150%'><span style='font-weight: bold; font-size: 100px; color: red;'>0 points!</span><br><br></div>,,delaylearn,learning,feedback_image_window,9gYBF2HPp6QXCmIWVzv81XMXlBZ2,9gYBF2HPp6QXCmIWVzv81XMXlBZ2,,,,,,,,,,,,,,,,,,,,,,5ac3b688fa3b4e0001735a24,15:40:45,26/03/2024
html-keyboard-response,208,546525,0.0-86.0,,"<div style=""font-size:100px;"">+</div>",,delaylearn,learning,ITI,9gYBF2HPp6QXCmIWVzv81XMXlBZ2,9gYBF2HPp6QXCmIWVzv81XMXlBZ2,,,,,,,,,,,,,,,,,,,2117.0,,,5ac3b688fa3b4e0001735a24,15:40:45,26/03/2024
html-keyboard-response,209,547371,0.0-87.0-0.0,843.6000001430511,"<div style=""display: flex; flex-direction: column; align-items: center; margin-top: -40px;""><img src=""images/pattern_7.png"" style=""width: 234px; height: 230px; margin-top: -50px;""><div style=""display: flex; justify-content: space-between; margin-top: 33px;""><img src=""images/choice_trial_6.png"" style=""width: 408px; height: 417px; margin-right: 200px;""><img src=""images/choice_trial_12.png"" style=""width: 408px; height: 417px;""></div></div>",f,delaylearn,learning,trial,9gYBF2HPp6QXCmIWVzv81XMXlBZ2,9gYBF2HPp6QXCmIWVzv81XMXlBZ2,3.0,images/choice_trial_6.png,images/choice_trial_12.png,images/pattern_7.png,f,f,750.0,6.0,12.0,6.0,0.0,38.0,1.0,1.0,6.0,260.0,,,,,,5ac3b688fa3b4e0001735a24,15:40:45,26/03/2024
html-keyboard-response,210,548387,0.0-87.0-1.0,,"<div style=""display: flex; flex-direction: column; align-items: center; margin-top: -40px;""><img src=""images/pattern_7.png"" style=""width: 234px; height: 230px; margin-top: -50px;""><div style=""display: flex; justify-content: space-between; margin-top: 33px;""><img src=""images/choice_trial_6.png"" style=""width: 408px; height: 417px; margin-right: 608px;""></div></div>",,delaylearn,learning,display_response,9gYBF2HPp6QXCmIWVzv81XMXlBZ2,9gYBF2HPp6QXCmIWVzv81XMXlBZ2,,,,,,,,,,,,,,,,,chosen stimuli: images/choice_trial_6.png,,,,,5ac3b688fa3b4e0001735a24,15:40:45,26/03/2024
html-keyboard-response,211,549148,0.0-87.0-2.0,,,,delaylearn,learning,feedback_duration_window,9gYBF2HPp6QXCmIWVzv81XMXlBZ2,9gYBF2HPp6QXCmIWVzv81XMXlBZ2,,,,,,,,,,,,,,,,,,750.0,,,,5ac3b688fa3b4e0001735a24,15:40:45,26/03/2024
html-keyboard-response,212,550652,0.0-87.0-3.0,,<div style='margin:auto;width: auto; font-size: 150%'><span style='font-weight: bold; font-size: 100px; color: green;'>+10 points!</span><br><br></div>,,delaylearn,learning,feedback_image_window,9gYBF2HPp6QXCmIWVzv81XMXlBZ2,9gYBF2HPp6QXCmIWVzv81XMXlBZ2,,,,,,,,,,,,,,,,,,,,,,5ac3b688fa3b4e0001735a24,15:40:45,26/03/2024
html-keyboard-response,213,552345,0.0-88.0,,"<div style=""font-size:100px;"">+</div>",,delaylearn,learning,ITI,9gYBF2HPp6QXCmIWVzv81XMXlBZ2,9gYBF2HPp6QXCmIWVzv81XMXlBZ2,,,,,,,,,,,,,,,,,,,1677.0,,,5ac3b688fa3b4e0001735a24,15:40:45,26/03/2024
html-keyboard-response,214,553402,0.0-89.0-0.0,1053.2999999523163,"<div style=""display: flex; flex-direction: column; align-items: center; margin-top: -40px;""><img src=""images/pattern_1.png"" style=""width: 234px; height: 230px; margin-top: -50px;""><div style=""display: flex; justify-content: space-between; margin-top: 33px;""><img src=""images/choice_trial_14.png"" style=""width: 408px; height: 417px; margin-right: 200px;""><img src=""images/choice_trial_8.png"" style=""width: 408px; height: 417px;""></div></div>",j,delaylearn,learning,trial,9gYBF2HPp6QXCmIWVzv81XMXlBZ2,9gYBF2HPp6QXCmIWVzv81XMXlBZ2,3.0,images/choice_trial_14.png,images/choice_trial_8.png,images/pattern_1.png,f,f,7000.0,14.0,8.0,1.0,0.0,39.0,0.0,0.0,8.0,260.0,,,,,,5ac3b688fa3b4e0001735a24,15:40:45,26/03/2024
html-keyboard-response,215,554409,0.0-89.0-1.0,,"<div style=""display: flex; flex-direction: column; align-items: center; margin-top: -40px;""><img src=""images/pattern_1.png"" style=""width: 234px; height: 230px; margin-top: -50px;""><div style=""display: flex; justify-content: space-between; margin-top: 33px;""><img src=""images/choice_trial_8.png"" style=""width: 408px; height: 417px; margin-left:608px;""></div></div>",,delaylearn,learning,display_response,9gYBF2HPp6QXCmIWVzv81XMXlBZ2,9gYBF2HPp6QXCmIWVzv81XMXlBZ2,,,,,,,,,,,,,,,,,chosen stimuli: images/choice_trial_8.png,,,,,5ac3b688fa3b4e0001735a24,15:40:45,26/03/2024
html-keyboard-response,216,561410,0.0-89.0-2.0,,,,delaylearn,learning,feedback_duration_window,9gYBF2HPp6QXCmIWVzv81XMXlBZ2,9gYBF2HPp6QXCmIWVzv81XMXlBZ2,,,,,,,,,,,,,,,,,,7000.0,,,,5ac3b688fa3b4e0001735a24,15:40:45,26/03/2024
html-keyboard-response,217,562918,0.0-89.0-3.0,,<div style='margin:auto;width: auto; font-size: 150%'><span style='font-weight: bold; font-size: 100px; color: red;'>0 points!</span><br><br></div>,,delaylearn,learning,feedback_image_window,9gYBF2HPp6QXCmIWVzv81XMXlBZ2,9gYBF2HPp6QXCmIWVzv81XMXlBZ2,,,,,,,,,,,,,,,,,,,,,,5ac3b688fa3b4e0001735a24,15:40:45,26/03/2024
html-keyboard-response,218,563429,0.0-90.0-0.0,,,,,,mood_trial_fixation,9gYBF2HPp6QXCmIWVzv81XMXlBZ2,,,,,,,,,,,,,,,,,,,,,,,5ac3b688fa3b4e0001735a24,15:40:45,26/03/2024
lmdlab-html-vas-response,219,568297,0.0-90.0-1.0,3852.0,How happy are you right now?,0.2638888888888889,delaylearn,learning,mood_trial,9gYBF2HPp6QXCmIWVzv81XMXlBZ2,9gYBF2HPp6QXCmIWVzv81XMXlBZ2,,,,,,,,,,,,,,,,,,,,"['Very unhappy', 'Very happy']",,5ac3b688fa3b4e0001735a24,15:40:45,26/03/2024
html-keyboard-response,220,570024,0.0-91.0,,"<div style=""font-size:100px;"">+</div>",,delaylearn,learning,ITI,9gYBF2HPp6QXCmIWVzv81XMXlBZ2,9gYBF2HPp6QXCmIWVzv81XMXlBZ2,,,,,,,,,,,,,,,,,,,1715.0,,,5ac3b688fa3b4e0001735a24,15:40:45,26/03/2024
html-keyboard-response,221,570965,0.0-92.0-0.0,939.2000000476837,"<div style=""display: flex; flex-direction: column; align-items: center; margin-top: -40px;""><img src=""images/pattern_3.png"" style=""width: 234px; height: 230px; margin-top: -50px;""><div style=""display: flex; justify-content: space-between; margin-top: 33px;""><img src=""images/choice_trial_13.png"" style=""width: 408px; height: 417px; margin-right: 200px;""><img src=""images/choice_trial_10.png"" style=""width: 408px; height: 417px;""></div></div>",f,delaylearn,learning,trial,9gYBF2HPp6QXCmIWVzv81XMXlBZ2,9gYBF2HPp6QXCmIWVzv81XMXlBZ2,3.0,images/choice_trial_13.png,images/choice_trial_10.png,images/pattern_3.png,j,f,7000.0,13.0,10.0,2.0,0.0,40.0,1.0,0.0,13.0,260.0,,,,,,5ac3b688fa3b4e0001735a24,15:40:45,26/03/2024
html-keyboard-response,222,571969,0.0-92.0-1.0,,"<div style=""display: flex; flex-direction: column; align-items: center; margin-top: -40px;""><img src=""images/pattern_3.png"" style=""width: 234px; height: 230px; margin-top: -50px;""><div style=""display: flex; justify-content: space-between; margin-top: 33px;""><img src=""images/choice_trial_13.png"" style=""width: 408px; height: 417px; margin-right: 608px;""></div></div>",,delaylearn,learning,display_response,9gYBF2HPp6QXCmIWVzv81XMXlBZ2,9gYBF2HPp6QXCmIWVzv81XMXlBZ2,,,,,,,,,,,,,,,,,chosen stimuli: images/choice_trial_13.png,,,,,5ac3b688fa3b4e0001735a24,15:40:45,26/03/2024
html-keyboard-response,223,578985,0.0-92.0-2.0,,,,delaylearn,learning,feedback_duration_window,9gYBF2HPp6QXCmIWVzv81XMXlBZ2,9gYBF2HPp6QXCmIWVzv81XMXlBZ2,,,,,,,,,,,,,,,,,,7000.0,,,,5ac3b688fa3b4e0001735a24,15:40:45,26/03/2024
html-keyboard-response,224,580492,0.0-92.0-3.0,,<div style='margin:auto;width: auto; font-size: 150%'><span style='font-weight: bold; font-size: 100px; color: red;'>0 points!</span><br><br></div>,,delaylearn,learning,feedback_image_window,9gYBF2HPp6QXCmIWVzv81XMXlBZ2,9gYBF2HPp6QXCmIWVzv81XMXlBZ2,,,,,,,,,,,,,,,,,,,,,,5ac3b688fa3b4e0001735a24,15:40:45,26/03/2024
html-keyboard-response,225,582709,0.0-93.0,,"<div style=""font-size:100px;"">+</div>",,delaylearn,learning,ITI,9gYBF2HPp6QXCmIWVzv81XMXlBZ2,9gYBF2HPp6QXCmIWVzv81XMXlBZ2,,,,,,,,,,,,,,,,,,,2214.0,,,5ac3b688fa3b4e0001735a24,15:40:45,26/03/2024
html-keyboard-response,226,583620,0.0-94.0-0.0,908.1999998092651,"<div style=""display: flex; flex-direction: column; align-items: center; margin-top: -40px;""><img src=""images/pattern_7.png"" style=""width: 234px; height: 230px; margin-top: -50px;""><div style=""display: flex; justify-content: space-between; margin-top: 33px;""><img src=""images/choice_trial_12.png"" style=""width: 408px; height: 417px; margin-right: 200px;""><img src=""images/choice_trial_6.png"" style=""width: 408px; height: 417px;""></div></div>",j,delaylearn,learning,trial,9gYBF2HPp6QXCmIWVzv81XMXlBZ2,9gYBF2HPp6QXCmIWVzv81XMXlBZ2,3.0,images/choice_trial_12.png,images/choice_trial_6.png,images/pattern_7.png,j,j,750.0,12.0,6.0,6.0,1.0,41.0,1.0,1.0,6.0,270.0,,,,,,5ac3b688fa3b4e0001735a24,15:40:45,26/03/2024
html-keyboard-response,227,584624,0.0-94.0-1.0,,"<div style=""display: flex; flex-direction: column; align-items: center; margin-top: -40px;""><img src=""images/pattern_7.png"" style=""width: 234px; height: 230px; margin-top: -50px;""><div style=""display: flex; justify-content: space-between; margin-top: 33px;""><img src=""images/choice_trial_6.png"" style=""width: 408px; height: 417px; margin-left:608px;""></div></div>",,delaylearn,learning,display_response,9gYBF2HPp6QXCmIWVzv81XMXlBZ2,9gYBF2HPp6QXCmIWVzv81XMXlBZ2,,,,,,,,,,,,,,,,,chosen stimuli: images/choice_trial_6.png,,,,,5ac3b688fa3b4e0001735a24,15:40:45,26/03/2024
html-keyboard-response,228,585385,0.0-94.0-2.0,,,,delaylearn,learning,feedback_duration_window,9gYBF2HPp6QXCmIWVzv81XMXlBZ2,9gYBF2HPp6QXCmIWVzv81XMXlBZ2,,,,,,,,,,,,,,,,,,750.0,,,,5ac3b688fa3b4e0001735a24,15:40:45,26/03/2024
html-keyboard-response,229,586892,0.0-94.0-3.0,,<div style='margin:auto;width: auto; font-size: 150%'><span style='font-weight: bold; font-size: 100px; color: green;'>+10 points!</span><br><br></div>,,delaylearn,learning,feedback_image_window,9gYBF2HPp6QXCmIWVzv81XMXlBZ2,9gYBF2HPp6QXCmIWVzv81XMXlBZ2,,,,,,,,,,,,,,,,,,,,,,5ac3b688fa3b4e0001735a24,15:40:45,26/03/2024
html-keyboard-response,230,588643,0.0-95.0,,"<div style=""font-size:100px;"">+</div>",,delaylearn,learning,ITI,9gYBF2HPp6QXCmIWVzv81XMXlBZ2,9gYBF2HPp6QXCmIWVzv81XMXlBZ2,,,,,,,,,,,,,,,,,,,1744.0,,,5ac3b688fa3b4e0001735a24,15:40:45,26/03/2024
