trial_type,trial_index,time_elapsed,internal_node_id,rt,stimulus,response,exp_name,exp_stage,test_part,subjectID,databaseID,counterbal,choice_stimuli_1,choice_stimuli_2,pattern_stimuli,rewarded_answer,correct_answer,feedback_duration_times,stim_left,stim_right,pair,leftright_counter,trial,response_correct,response_rewarded,chosen_stim,counter,displayed_choice,feedback_durations,ITI_duration,labels,rest_warning,prolificID,start_time,date
pavlovia,0,769,0.0-0.0,,,,,,,T0KQdBdDCIXxCUdRW0QyCVgalRn1,,,,,,,,,,,,,,,,,,,,,,,5ffaff9cd071dd4e7ce5e31a,16:54:29,27/03/2024
html-keyboard-response,1,3785,0.0-1.0,,"<div style=""font-size:100px;"">+</div>",,delaylearn,learning,pre_fixation,T0KQdBdDCIXxCUdRW0QyCVgalRn1,,,,,,,,,,,,,,,,,,,,,,,5ffaff9cd071dd4e7ce5e31a,16:54:29,27/03/2024
html-keyboard-response,2,6801,0.0-2.0-0.0,,"<div style=""display: flex; flex-direction: column; align-items: center; margin-top: -40px;""><img src=""images/demo_images/pattern_1.png"" style=""width: 234px; height: 230px; margin-top: -50px;""><div style=""display: flex; justify-content: space-between; margin-top: 33px;""><img src=""images/demo_images/choice_trial_2.png"" style=""width: 408px; height: 417px; margin-right: 200px;""><img src=""images/demo_images/choice_trial_1.png"" style=""width: 408px; height: 417px;""></div></div>",,delaylearn,learning,trial,T0KQdBdDCIXxCUdRW0QyCVgalRn1,T0KQdBdDCIXxCUdRW0QyCVgalRn1,3.0,images/demo_images/choice_trial_2.png,images/demo_images/choice_trial_1.png,images/demo_images/pattern_1.png,j,j,3000.0,2.0,1.0,20.0,1.0,1.0,0.0,0.0,0.0,0.0,,,,,,5ffaff9cd071dd4e7ce5e31a,16:54:29,27/03/2024
html-keyboard-response,3,7805,0.0-2.0-1.0,,<div style='font-weight: bold; font-size: 75px; color: red;'>Missed Trial <br><br><br><br> Please respond faster</div>,,delaylearn,learning,display_response,T0KQdBdDCIXxCUdRW0QyCVgalRn1,T0KQdBdDCIXxCUdRW0QyCVgalRn1,,,,,,,,,,,,,,,,,Missed trial,,,,,5ffaff9cd071dd4e7ce5e31a,16:54:29,27/03/2024
html-keyboard-response,4,7808,0.0-2.0-2.0,,,,delaylearn,learning,feedback_duration_window,T0KQdBdDCIXxCUdRW0QyCVgalRn1,T0KQdBdDCIXxCUdRW0QyCVgalRn1,,,,,,,,,,,,,,,,,,0.0,,,,5ffaff9cd071dd4e7ce5e31a,16:54:29,27/03/2024
html-keyboard-response,5,7814,0.0-2.0-3.0,,,,delaylearn,learning,feedback_image_window,T0KQdBdDCIXxCUdRW0QyCVgalRn1,T0KQdBdDCIXxCUdRW0QyCVgalRn1,,,,,,,,,,,,,,,,,,,,,,5ffaff9cd071dd4e7ce5e31a,16:54:29,27/03/2024
html-keyboard-response,6,9764,0.0-3.0,,"<div style=""font-size:100px;"">+</div>",,delaylearn,learning,ITI,T0KQdBdDCIXxCUdRW0QyCVgalRn1,T0KQdBdDCIXxCUdRW0QyCVgalRn1,,,,,,,,,,,,,,,,,,,1942.0,,,5ffaff9cd071dd4e7ce5e31a,16:54:29,27/03/2024
html-keyboard-response,7,10237,0.0-4.0-0.0,469.39999985694885,"<div style=""display: flex; flex-direction: column; align-items: center; margin-top: -40px;""><img src=""images/demo_images/pattern_1.png"" style=""width: 234px; height: 230px; margin-top: -50px;""><div style=""display: flex; justify-content: space-between; margin-top: 33px;""><img src=""images/demo_images/choice_trial_2.png"" style=""width: 408px; height: 417px; margin-right: 200px;""><img src=""images/demo_images/choice_trial_1.png"" style=""width: 408px; height: 417px;""></div></div>",j,delaylearn,learning,trial,T0KQdBdDCIXxCUdRW0QyCVgalRn1,T0KQdBdDCIXxCUdRW0QyCVgalRn1,3.0,images/demo_images/choice_trial_2.png,images/demo_images/choice_trial_1.png,images/demo_images/pattern_1.png,j,j,3000.0,2.0,1.0,20.0,1.0,2.0,1.0,1.0,1.0,10.0,,,,,,5ffaff9cd071dd4e7ce5e31a,16:54:29,27/03/2024
html-keyboard-response,8,11250,0.0-4.0-1.0,,"<div style=""display: flex; flex-direction: column; align-items: center; margin-top: -40px;""><img src=""images/demo_images/pattern_1.png"" style=""width: 234px; height: 230px; margin-top: -50px;""><div style=""display: flex; justify-content: space-between; margin-top: 33px;""><img src=""images/demo_images/choice_trial_1.png"" style=""width: 408px; height: 417px; margin-left:608px;""></div></div>",,delaylearn,learning,display_response,T0KQdBdDCIXxCUdRW0QyCVgalRn1,T0KQdBdDCIXxCUdRW0QyCVgalRn1,,,,,,,,,,,,,,,,,chosen stimuli: images/demo_images/choice_trial_1.png,,,,,5ffaff9cd071dd4e7ce5e31a,16:54:29,27/03/2024
html-keyboard-response,9,14254,0.0-4.0-2.0,,,,delaylearn,learning,feedback_duration_window,T0KQdBdDCIXxCUdRW0QyCVgalRn1,T0KQdBdDCIXxCUdRW0QyCVgalRn1,,,,,,,,,,,,,,,,,,3000.0,,,,5ffaff9cd071dd4e7ce5e31a,16:54:29,27/03/2024
html-keyboard-response,10,15761,0.0-4.0-3.0,,<div style='margin:auto;width: auto; font-size: 150%'><span style='font-weight: bold; font-size: 100px; color: green;'>+10 points!</span><br><br></div>,,delaylearn,learning,feedback_image_window,T0KQdBdDCIXxCUdRW0QyCVgalRn1,T0KQdBdDCIXxCUdRW0QyCVgalRn1,,,,,,,,,,,,,,,,,,,,,,5ffaff9cd071dd4e7ce5e31a,16:54:29,27/03/2024
html-keyboard-response,11,17508,0.0-5.0,,"<div style=""font-size:100px;"">+</div>",,delaylearn,learning,ITI,T0KQdBdDCIXxCUdRW0QyCVgalRn1,T0KQdBdDCIXxCUdRW0QyCVgalRn1,,,,,,,,,,,,,,,,,,,1740.0,,,5ffaff9cd071dd4e7ce5e31a,16:54:29,27/03/2024
html-keyboard-response,12,17973,0.0-6.0-0.0,461.89999985694885,"<div style=""display: flex; flex-direction: column; align-items: center; margin-top: -40px;""><img src=""images/demo_images/pattern_1.png"" style=""width: 234px; height: 230px; margin-top: -50px;""><div style=""display: flex; justify-content: space-between; margin-top: 33px;""><img src=""images/demo_images/choice_trial_1.png"" style=""width: 408px; height: 417px; margin-right: 200px;""><img src=""images/demo_images/choice_trial_2.png"" style=""width: 408px; height: 417px;""></div></div>",f,delaylearn,learning,trial,T0KQdBdDCIXxCUdRW0QyCVgalRn1,T0KQdBdDCIXxCUdRW0QyCVgalRn1,3.0,images/demo_images/choice_trial_1.png,images/demo_images/choice_trial_2.png,images/demo_images/pattern_1.png,j,f,3000.0,1.0,2.0,20.0,0.0,3.0,1.0,0.0,1.0,10.0,,,,,,5ffaff9cd071dd4e7ce5e31a,16:54:29,27/03/2024
html-keyboard-response,13,18981,0.0-6.0-1.0,,"<div style=""display: flex; flex-direction: column; align-items: center; margin-top: -40px;""><img src=""images/demo_images/pattern_1.png"" style=""width: 234px; height: 230px; margin-top: -50px;""><div style=""display: flex; justify-content: space-between; margin-top: 33px;""><img src=""images/demo_images/choice_trial_1.png"" style=""width: 408px; height: 417px; margin-right: 608px;""></div></div>",,delaylearn,learning,display_response,T0KQdBdDCIXxCUdRW0QyCVgalRn1,T0KQdBdDCIXxCUdRW0QyCVgalRn1,,,,,,,,,,,,,,,,,chosen stimuli: images/demo_images/choice_trial_1.png,,,,,5ffaff9cd071dd4e7ce5e31a,16:54:29,27/03/2024
html-keyboard-response,14,21996,0.0-6.0-2.0,,,,delaylearn,learning,feedback_duration_window,T0KQdBdDCIXxCUdRW0QyCVgalRn1,T0KQdBdDCIXxCUdRW0QyCVgalRn1,,,,,,,,,,,,,,,,,,3000.0,,,,5ffaff9cd071dd4e7ce5e31a,16:54:29,27/03/2024
html-keyboard-response,15,23504,0.0-6.0-3.0,,<div style='margin:auto;width: auto; font-size: 150%'><span style='font-weight: bold; font-size: 100px; color: red;'>0 points!</span><br><br></div>,,delaylearn,learning,feedback_image_window,T0KQdBdDCIXxCUdRW0QyCVgalRn1,T0KQdBdDCIXxCUdRW0QyCVgalRn1,,,,,,,,,,,,,,,,,,,,,,5ffaff9cd071dd4e7ce5e31a,16:54:29,27/03/2024
html-keyboard-response,16,25214,0.0-7.0,,"<div style=""font-size:100px;"">+</div>",,delaylearn,learning,ITI,T0KQdBdDCIXxCUdRW0QyCVgalRn1,T0KQdBdDCIXxCUdRW0QyCVgalRn1,,,,,,,,,,,,,,,,,,,1688.0,,,5ffaff9cd071dd4e7ce5e31a,16:54:29,27/03/2024
html-keyboard-response,17,26254,0.0-8.0-0.0,1037.2999999523163,"<div style=""display: flex; flex-direction: column; align-items: center; margin-top: -40px;""><img src=""images/demo_images/pattern_1.png"" style=""width: 234px; height: 230px; margin-top: -50px;""><div style=""display: flex; justify-content: space-between; margin-top: 33px;""><img src=""images/demo_images/choice_trial_1.png"" style=""width: 408px; height: 417px; margin-right: 200px;""><img src=""images/demo_images/choice_trial_2.png"" style=""width: 408px; height: 417px;""></div></div>",f,delaylearn,learning,trial,T0KQdBdDCIXxCUdRW0QyCVgalRn1,T0KQdBdDCIXxCUdRW0QyCVgalRn1,3.0,images/demo_images/choice_trial_1.png,images/demo_images/choice_trial_2.png,images/demo_images/pattern_1.png,f,f,3000.0,1.0,2.0,20.0,0.0,4.0,1.0,1.0,1.0,20.0,,,,,,5ffaff9cd071dd4e7ce5e31a,16:54:29,27/03/2024
html-keyboard-response,18,27260,0.0-8.0-1.0,,"<div style=""display: flex; flex-direction: column; align-items: center; margin-top: -40px;""><img src=""images/demo_images/pattern_1.png"" style=""width: 234px; height: 230px; margin-top: -50px;""><div style=""display: flex; justify-content: space-between; margin-top: 33px;""><img src=""images/demo_images/choice_trial_1.png"" style=""width: 408px; height: 417px; margin-right: 608px;""></div></div>",,delaylearn,learning,display_response,T0KQdBdDCIXxCUdRW0QyCVgalRn1,T0KQdBdDCIXxCUdRW0QyCVgalRn1,,,,,,,,,,,,,,,,,chosen stimuli: images/demo_images/choice_trial_1.png,,,,,5ffaff9cd071dd4e7ce5e31a,16:54:29,27/03/2024
html-keyboard-response,19,30278,0.0-8.0-2.0,,,,delaylearn,learning,feedback_duration_window,T0KQdBdDCIXxCUdRW0QyCVgalRn1,T0KQdBdDCIXxCUdRW0QyCVgalRn1,,,,,,,,,,,,,,,,,,3000.0,,,,5ffaff9cd071dd4e7ce5e31a,16:54:29,27/03/2024
html-keyboard-response,20,31788,0.0-8.0-3.0,,<div style='margin:auto;width: auto; font-size: 150%'><span style='font-weight: bold; font-size: 100px; color: green;'>+10 points!</span><br><br></div>,,delaylearn,learning,feedback_image_window,T0KQdBdDCIXxCUdRW0QyCVgalRn1,T0KQdBdDCIXxCUdRW0QyCVgalRn1,,,,,,,,,,,,,,,,,,,,,,5ffaff9cd071dd4e7ce5e31a,16:54:29,27/03/2024
html-keyboard-response,21,32301,0.0-9.0-0.0,,,,,,mood_trial_fixation,T0KQdBdDCIXxCUdRW0QyCVgalRn1,,,,,,,,,,,,,,,,,,,,,,,5ffaff9cd071dd4e7ce5e31a,16:54:29,27/03/2024
lmdlab-html-vas-response,22,38038,0.0-9.0-1.0,4708.0,How happy are you right now?,0.5115740740740741,delaylearn,learning,mood_trial,T0KQdBdDCIXxCUdRW0QyCVgalRn1,T0KQdBdDCIXxCUdRW0QyCVgalRn1,,,,,,,,,,,,,,,,,,,,"['Very unhappy', 'Very happy']",,5ffaff9cd071dd4e7ce5e31a,16:54:29,27/03/2024
html-keyboard-response,23,39625,0.0-10.0,,"<div style=""font-size:100px;"">+</div>",,delaylearn,learning,ITI,T0KQdBdDCIXxCUdRW0QyCVgalRn1,T0KQdBdDCIXxCUdRW0QyCVgalRn1,,,,,,,,,,,,,,,,,,,1571.0,,,5ffaff9cd071dd4e7ce5e31a,16:54:29,27/03/2024
html-keyboard-response,24,40496,0.0-11.0-0.0,868.4000000953674,"<div style=""display: flex; flex-direction: column; align-items: center; margin-top: -40px;""><img src=""images/demo_images/pattern_1.png"" style=""width: 234px; height: 230px; margin-top: -50px;""><div style=""display: flex; justify-content: space-between; margin-top: 33px;""><img src=""images/demo_images/choice_trial_2.png"" style=""width: 408px; height: 417px; margin-right: 200px;""><img src=""images/demo_images/choice_trial_1.png"" style=""width: 408px; height: 417px;""></div></div>",j,delaylearn,learning,trial,T0KQdBdDCIXxCUdRW0QyCVgalRn1,T0KQdBdDCIXxCUdRW0QyCVgalRn1,3.0,images/demo_images/choice_trial_2.png,images/demo_images/choice_trial_1.png,images/demo_images/pattern_1.png,j,j,3000.0,2.0,1.0,20.0,1.0,5.0,1.0,1.0,1.0,30.0,,,,,,5ffaff9cd071dd4e7ce5e31a,16:54:29,27/03/2024
html-keyboard-response,25,41510,0.0-11.0-1.0,,"<div style=""display: flex; flex-direction: column; align-items: center; margin-top: -40px;""><img src=""images/demo_images/pattern_1.png"" style=""width: 234px; height: 230px; margin-top: -50px;""><div style=""display: flex; justify-content: space-between; margin-top: 33px;""><img src=""images/demo_images/choice_trial_1.png"" style=""width: 408px; height: 417px; margin-left:608px;""></div></div>",,delaylearn,learning,display_response,T0KQdBdDCIXxCUdRW0QyCVgalRn1,T0KQdBdDCIXxCUdRW0QyCVgalRn1,,,,,,,,,,,,,,,,,chosen stimuli: images/demo_images/choice_trial_1.png,,,,,5ffaff9cd071dd4e7ce5e31a,16:54:29,27/03/2024
html-keyboard-response,26,44526,0.0-11.0-2.0,,,,delaylearn,learning,feedback_duration_window,T0KQdBdDCIXxCUdRW0QyCVgalRn1,T0KQdBdDCIXxCUdRW0QyCVgalRn1,,,,,,,,,,,,,,,,,,3000.0,,,,5ffaff9cd071dd4e7ce5e31a,16:54:29,27/03/2024
html-keyboard-response,27,46044,0.0-11.0-3.0,,<div style='margin:auto;width: auto; font-size: 150%'><span style='font-weight: bold; font-size: 100px; color: green;'>+10 points!</span><br><br></div>,,delaylearn,learning,feedback_image_window,T0KQdBdDCIXxCUdRW0QyCVgalRn1,T0KQdBdDCIXxCUdRW0QyCVgalRn1,,,,,,,,,,,,,,,,,,,,,,5ffaff9cd071dd4e7ce5e31a,16:54:29,27/03/2024
html-keyboard-response,28,48496,0.0-12.0,,"<div style=""font-size:100px;"">+</div>",,delaylearn,learning,ITI,T0KQdBdDCIXxCUdRW0QyCVgalRn1,T0KQdBdDCIXxCUdRW0QyCVgalRn1,,,,,,,,,,,,,,,,,,,2438.0,,,5ffaff9cd071dd4e7ce5e31a,16:54:29,27/03/2024
html-keyboard-response,29,48910,0.0-13.0-0.0,411.0,"<div style=""display: flex; flex-direction: column; align-items: center; margin-top: -40px;""><img src=""images/demo_images/pattern_1.png"" style=""width: 234px; height: 230px; margin-top: -50px;""><div style=""display: flex; justify-content: space-between; margin-top: 33px;""><img src=""images/demo_images/choice_trial_1.png"" style=""width: 408px; height: 417px; margin-right: 200px;""><img src=""images/demo_images/choice_trial_2.png"" style=""width: 408px; height: 417px;""></div></div>",f,delaylearn,learning,trial,T0KQdBdDCIXxCUdRW0QyCVgalRn1,T0KQdBdDCIXxCUdRW0QyCVgalRn1,3.0,images/demo_images/choice_trial_1.png,images/demo_images/choice_trial_2.png,images/demo_images/pattern_1.png,f,f,3000.0,1.0,2.0,20.0,0.0,6.0,1.0,1.0,1.0,40.0,,,,,,5ffaff9cd071dd4e7ce5e31a,16:54:29,27/03/2024
html-keyboard-response,30,49916,0.0-13.0-1.0,,"<div style=""display: flex; flex-direction: column; align-items: center; margin-top: -40px;""><img src=""images/demo_images/pattern_1.png"" style=""width: 234px; height: 230px; margin-top: -50px;""><div style=""display: flex; justify-content: space-between; margin-top: 33px;""><img src=""images/demo_images/choice_trial_1.png"" style=""width: 408px; height: 417px; margin-right: 608px;""></div></div>",,delaylearn,learning,display_response,T0KQdBdDCIXxCUdRW0QyCVgalRn1,T0KQdBdDCIXxCUdRW0QyCVgalRn1,,,,,,,,,,,,,,,,,chosen stimuli: images/demo_images/choice_trial_1.png,,,,,5ffaff9cd071dd4e7ce5e31a,16:54:29,27/03/2024
html-keyboard-response,31,52929,0.0-13.0-2.0,,,,delaylearn,learning,feedback_duration_window,T0KQdBdDCIXxCUdRW0QyCVgalRn1,T0KQdBdDCIXxCUdRW0QyCVgalRn1,,,,,,,,,,,,,,,,,,3000.0,,,,5ffaff9cd071dd4e7ce5e31a,16:54:29,27/03/2024
html-keyboard-response,32,54433,0.0-13.0-3.0,,<div style='margin:auto;width: auto; font-size: 150%'><span style='font-weight: bold; font-size: 100px; color: green;'>+10 points!</span><br><br></div>,,delaylearn,learning,feedback_image_window,T0KQdBdDCIXxCUdRW0QyCVgalRn1,T0KQdBdDCIXxCUdRW0QyCVgalRn1,,,,,,,,,,,,,,,,,,,,,,5ffaff9cd071dd4e7ce5e31a,16:54:29,27/03/2024
html-keyboard-response,33,56749,0.0-14.0,,"<div style=""font-size:100px;"">+</div>",,delaylearn,learning,ITI,T0KQdBdDCIXxCUdRW0QyCVgalRn1,T0KQdBdDCIXxCUdRW0QyCVgalRn1,,,,,,,,,,,,,,,,,,,2310.0,,,5ffaff9cd071dd4e7ce5e31a,16:54:29,27/03/2024
html-keyboard-response,34,57294,0.0-15.0-0.0,541.2000000476837,"<div style=""display: flex; flex-direction: column; align-items: center; margin-top: -40px;""><img src=""images/demo_images/pattern_1.png"" style=""width: 234px; height: 230px; margin-top: -50px;""><div style=""display: flex; justify-content: space-between; margin-top: 33px;""><img src=""images/demo_images/choice_trial_2.png"" style=""width: 408px; height: 417px; margin-right: 200px;""><img src=""images/demo_images/choice_trial_1.png"" style=""width: 408px; height: 417px;""></div></div>",j,delaylearn,learning,trial,T0KQdBdDCIXxCUdRW0QyCVgalRn1,T0KQdBdDCIXxCUdRW0QyCVgalRn1,3.0,images/demo_images/choice_trial_2.png,images/demo_images/choice_trial_1.png,images/demo_images/pattern_1.png,j,j,3000.0,2.0,1.0,20.0,1.0,7.0,1.0,1.0,1.0,50.0,,,,,,5ffaff9cd071dd4e7ce5e31a,16:54:29,27/03/2024
html-keyboard-response,35,58310,0.0-15.0-1.0,,"<div style=""display: flex; flex-direction: column; align-items: center; margin-top: -40px;""><img src=""images/demo_images/pattern_1.png"" style=""width: 234px; height: 230px; margin-top: -50px;""><div style=""display: flex; justify-content: space-between; margin-top: 33px;""><img src=""images/demo_images/choice_trial_1.png"" style=""width: 408px; height: 417px; margin-left:608px;""></div></div>",,delaylearn,learning,display_response,T0KQdBdDCIXxCUdRW0QyCVgalRn1,T0KQdBdDCIXxCUdRW0QyCVgalRn1,,,,,,,,,,,,,,,,,chosen stimuli: images/demo_images/choice_trial_1.png,,,,,5ffaff9cd071dd4e7ce5e31a,16:54:29,27/03/2024
html-keyboard-response,36,61326,0.0-15.0-2.0,,,,delaylearn,learning,feedback_duration_window,T0KQdBdDCIXxCUdRW0QyCVgalRn1,T0KQdBdDCIXxCUdRW0QyCVgalRn1,,,,,,,,,,,,,,,,,,3000.0,,,,5ffaff9cd071dd4e7ce5e31a,16:54:29,27/03/2024
html-keyboard-response,37,62855,0.0-15.0-3.0,,<div style='margin:auto;width: auto; font-size: 150%'><span style='font-weight: bold; font-size: 100px; color: green;'>+10 points!</span><br><br></div>,,delaylearn,learning,feedback_image_window,T0KQdBdDCIXxCUdRW0QyCVgalRn1,T0KQdBdDCIXxCUdRW0QyCVgalRn1,,,,,,,,,,,,,,,,,,,,,,5ffaff9cd071dd4e7ce5e31a,16:54:29,27/03/2024
html-keyboard-response,38,65190,0.0-16.0,,"<div style=""font-size:100px;"">+</div>",,delaylearn,learning,ITI,T0KQdBdDCIXxCUdRW0QyCVgalRn1,T0KQdBdDCIXxCUdRW0QyCVgalRn1,,,,,,,,,,,,,,,,,,,2334.0,,,5ffaff9cd071dd4e7ce5e31a,16:54:29,27/03/2024
html-keyboard-response,39,65633,0.0-17.0-0.0,439.7999999523163,"<div style=""display: flex; flex-direction: column; align-items: center; margin-top: -40px;""><img src=""images/demo_images/pattern_1.png"" style=""width: 234px; height: 230px; margin-top: -50px;""><div style=""display: flex; justify-content: space-between; margin-top: 33px;""><img src=""images/demo_images/choice_trial_1.png"" style=""width: 408px; height: 417px; margin-right: 200px;""><img src=""images/demo_images/choice_trial_2.png"" style=""width: 408px; height: 417px;""></div></div>",f,delaylearn,learning,trial,T0KQdBdDCIXxCUdRW0QyCVgalRn1,T0KQdBdDCIXxCUdRW0QyCVgalRn1,3.0,images/demo_images/choice_trial_1.png,images/demo_images/choice_trial_2.png,images/demo_images/pattern_1.png,f,f,3000.0,1.0,2.0,20.0,0.0,8.0,1.0,1.0,1.0,60.0,,,,,,5ffaff9cd071dd4e7ce5e31a,16:54:29,27/03/2024
html-keyboard-response,40,66640,0.0-17.0-1.0,,"<div style=""display: flex; flex-direction: column; align-items: center; margin-top: -40px;""><img src=""images/demo_images/pattern_1.png"" style=""width: 234px; height: 230px; margin-top: -50px;""><div style=""display: flex; justify-content: space-between; margin-top: 33px;""><img src=""images/demo_images/choice_trial_1.png"" style=""width: 408px; height: 417px; margin-right: 608px;""></div></div>",,delaylearn,learning,display_response,T0KQdBdDCIXxCUdRW0QyCVgalRn1,T0KQdBdDCIXxCUdRW0QyCVgalRn1,,,,,,,,,,,,,,,,,chosen stimuli: images/demo_images/choice_trial_1.png,,,,,5ffaff9cd071dd4e7ce5e31a,16:54:29,27/03/2024
html-keyboard-response,41,69651,0.0-17.0-2.0,,,,delaylearn,learning,feedback_duration_window,T0KQdBdDCIXxCUdRW0QyCVgalRn1,T0KQdBdDCIXxCUdRW0QyCVgalRn1,,,,,,,,,,,,,,,,,,3000.0,,,,5ffaff9cd071dd4e7ce5e31a,16:54:29,27/03/2024
html-keyboard-response,42,71160,0.0-17.0-3.0,,<div style='margin:auto;width: auto; font-size: 150%'><span style='font-weight: bold; font-size: 100px; color: green;'>+10 points!</span><br><br></div>,,delaylearn,learning,feedback_image_window,T0KQdBdDCIXxCUdRW0QyCVgalRn1,T0KQdBdDCIXxCUdRW0QyCVgalRn1,,,,,,,,,,,,,,,,,,,,,,5ffaff9cd071dd4e7ce5e31a,16:54:29,27/03/2024
html-button-response,43,74380,0.0-18.0,3218.0,"
  <div style=""display: flex; align-items: center; justify-content: center; height: 80vh;"">
  <div>
          <img src=""images/inst_demo_finish.png"" style=""width: 80vw; height:auto;"">
          <br><br>
      </div>
      <br><br>
  </div>",0,,,,T0KQdBdDCIXxCUdRW0QyCVgalRn1,,,,,,,,,,,,,,,,,,,,,,,5ffaff9cd071dd4e7ce5e31a,16:54:29,27/03/2024
html-keyboard-response,44,77763,0.0-19.0,3380.600000143051,"
  <div style=""display: flex; align-items: center; justify-content: center; height: 80vh;"">
  <div>
          <img src=""images/inst_6.png"" style=""width: 80vw; height:auto;"">
          <br><br>
      </div>
      <br><br>
  </div>",f,,,,T0KQdBdDCIXxCUdRW0QyCVgalRn1,,,,,,,,,,,,,,,,,,,,,,,5ffaff9cd071dd4e7ce5e31a,16:54:29,27/03/2024
html-keyboard-response,45,80770,0.0-20.0,,"<div style=""font-size:100px;"">+</div>",,delaylearn,learning,pre_fixation,T0KQdBdDCIXxCUdRW0QyCVgalRn1,,,,,,,,,,,,,,,,,,,,,,,5ffaff9cd071dd4e7ce5e31a,16:54:29,27/03/2024
html-keyboard-response,46,83181,0.0-21.0,,"<div style=""font-size:100px;"">+</div>",,delaylearn,learning,ITI,T0KQdBdDCIXxCUdRW0QyCVgalRn1,T0KQdBdDCIXxCUdRW0QyCVgalRn1,,,,,,,,,,,,,,,,,,,2407.0,,,5ffaff9cd071dd4e7ce5e31a,16:54:29,27/03/2024
html-keyboard-response,47,84038,0.0-22.0-0.0,853.7999999523163,"<div style=""display: flex; flex-direction: column; align-items: center; margin-top: -40px;""><img src=""images/pattern_3.png"" style=""width: 234px; height: 230px; margin-top: -50px;""><div style=""display: flex; justify-content: space-between; margin-top: 33px;""><img src=""images/choice_trial_13.png"" style=""width: 408px; height: 417px; margin-right: 200px;""><img src=""images/choice_trial_10.png"" style=""width: 408px; height: 417px;""></div></div>",j,delaylearn,learning,trial,T0KQdBdDCIXxCUdRW0QyCVgalRn1,T0KQdBdDCIXxCUdRW0QyCVgalRn1,3.0,images/choice_trial_13.png,images/choice_trial_10.png,images/pattern_3.png,f,f,7000.0,13.0,10.0,2.0,0.0,9.0,0.0,0.0,10.0,60.0,,,,,,5ffaff9cd071dd4e7ce5e31a,16:54:29,27/03/2024
html-keyboard-response,48,85043,0.0-22.0-1.0,,"<div style=""display: flex; flex-direction: column; align-items: center; margin-top: -40px;""><img src=""images/pattern_3.png"" style=""width: 234px; height: 230px; margin-top: -50px;""><div style=""display: flex; justify-content: space-between; margin-top: 33px;""><img src=""images/choice_trial_10.png"" style=""width: 408px; height: 417px; margin-left:608px;""></div></div>",,delaylearn,learning,display_response,T0KQdBdDCIXxCUdRW0QyCVgalRn1,T0KQdBdDCIXxCUdRW0QyCVgalRn1,,,,,,,,,,,,,,,,,chosen stimuli: images/choice_trial_10.png,,,,,5ffaff9cd071dd4e7ce5e31a,16:54:29,27/03/2024
html-keyboard-response,49,92050,0.0-22.0-2.0,,,,delaylearn,learning,feedback_duration_window,T0KQdBdDCIXxCUdRW0QyCVgalRn1,T0KQdBdDCIXxCUdRW0QyCVgalRn1,,,,,,,,,,,,,,,,,,7000.0,,,,5ffaff9cd071dd4e7ce5e31a,16:54:29,27/03/2024
html-keyboard-response,50,93557,0.0-22.0-3.0,,<div style='margin:auto;width: auto; font-size: 150%'><span style='font-weight: bold; font-size: 100px; color: red;'>0 points!</span><br><br></div>,,delaylearn,learning,feedback_image_window,T0KQdBdDCIXxCUdRW0QyCVgalRn1,T0KQdBdDCIXxCUdRW0QyCVgalRn1,,,,,,,,,,,,,,,,,,,,,,5ffaff9cd071dd4e7ce5e31a,16:54:29,27/03/2024
html-keyboard-response,51,95081,0.0-23.0,,"<div style=""font-size:100px;"">+</div>",,delaylearn,learning,ITI,T0KQdBdDCIXxCUdRW0QyCVgalRn1,T0KQdBdDCIXxCUdRW0QyCVgalRn1,,,,,,,,,,,,,,,,,,,1508.0,,,5ffaff9cd071dd4e7ce5e31a,16:54:29,27/03/2024
html-keyboard-response,52,97324,0.0-24.0-0.0,2240.2999999523163,"<div style=""display: flex; flex-direction: column; align-items: center; margin-top: -40px;""><img src=""images/pattern_7.png"" style=""width: 234px; height: 230px; margin-top: -50px;""><div style=""display: flex; justify-content: space-between; margin-top: 33px;""><img src=""images/choice_trial_12.png"" style=""width: 408px; height: 417px; margin-right: 200px;""><img src=""images/choice_trial_6.png"" style=""width: 408px; height: 417px;""></div></div>",j,delaylearn,learning,trial,T0KQdBdDCIXxCUdRW0QyCVgalRn1,T0KQdBdDCIXxCUdRW0QyCVgalRn1,3.0,images/choice_trial_12.png,images/choice_trial_6.png,images/pattern_7.png,j,j,750.0,12.0,6.0,6.0,1.0,10.0,1.0,1.0,6.0,70.0,,,,,,5ffaff9cd071dd4e7ce5e31a,16:54:29,27/03/2024
html-keyboard-response,53,98341,0.0-24.0-1.0,,"<div style=""display: flex; flex-direction: column; align-items: center; margin-top: -40px;""><img src=""images/pattern_7.png"" style=""width: 234px; height: 230px; margin-top: -50px;""><div style=""display: flex; justify-content: space-between; margin-top: 33px;""><img src=""images/choice_trial_6.png"" style=""width: 408px; height: 417px; margin-left:608px;""></div></div>",,delaylearn,learning,display_response,T0KQdBdDCIXxCUdRW0QyCVgalRn1,T0KQdBdDCIXxCUdRW0QyCVgalRn1,,,,,,,,,,,,,,,,,chosen stimuli: images/choice_trial_6.png,,,,,5ffaff9cd071dd4e7ce5e31a,16:54:29,27/03/2024
html-keyboard-response,54,99102,0.0-24.0-2.0,,,,delaylearn,learning,feedback_duration_window,T0KQdBdDCIXxCUdRW0QyCVgalRn1,T0KQdBdDCIXxCUdRW0QyCVgalRn1,,,,,,,,,,,,,,,,,,750.0,,,,5ffaff9cd071dd4e7ce5e31a,16:54:29,27/03/2024
html-keyboard-response,55,100609,0.0-24.0-3.0,,<div style='margin:auto;width: auto; font-size: 150%'><span style='font-weight: bold; font-size: 100px; color: green;'>+10 points!</span><br><br></div>,,delaylearn,learning,feedback_image_window,T0KQdBdDCIXxCUdRW0QyCVgalRn1,T0KQdBdDCIXxCUdRW0QyCVgalRn1,,,,,,,,,,,,,,,,,,,,,,5ffaff9cd071dd4e7ce5e31a,16:54:29,27/03/2024
html-keyboard-response,56,102356,0.0-25.0,,"<div style=""font-size:100px;"">+</div>",,delaylearn,learning,ITI,T0KQdBdDCIXxCUdRW0QyCVgalRn1,T0KQdBdDCIXxCUdRW0QyCVgalRn1,,,,,,,,,,,,,,,,,,,1741.0,,,5ffaff9cd071dd4e7ce5e31a,16:54:29,27/03/2024
html-keyboard-response,57,104373,0.0-26.0-0.0,2013.5999999046326,"<div style=""display: flex; flex-direction: column; align-items: center; margin-top: -40px;""><img src=""images/pattern_4.png"" style=""width: 234px; height: 230px; margin-top: -50px;""><div style=""display: flex; justify-content: space-between; margin-top: 33px;""><img src=""images/choice_trial_15.png"" style=""width: 408px; height: 417px; margin-right: 200px;""><img src=""images/choice_trial_9.png"" style=""width: 408px; height: 417px;""></div></div>",j,delaylearn,learning,trial,T0KQdBdDCIXxCUdRW0QyCVgalRn1,T0KQdBdDCIXxCUdRW0QyCVgalRn1,3.0,images/choice_trial_15.png,images/choice_trial_9.png,images/pattern_4.png,f,f,7000.0,15.0,9.0,3.0,0.0,11.0,0.0,0.0,9.0,70.0,,,,,,5ffaff9cd071dd4e7ce5e31a,16:54:29,27/03/2024
html-keyboard-response,58,105385,0.0-26.0-1.0,,"<div style=""display: flex; flex-direction: column; align-items: center; margin-top: -40px;""><img src=""images/pattern_4.png"" style=""width: 234px; height: 230px; margin-top: -50px;""><div style=""display: flex; justify-content: space-between; margin-top: 33px;""><img src=""images/choice_trial_9.png"" style=""width: 408px; height: 417px; margin-left:608px;""></div></div>",,delaylearn,learning,display_response,T0KQdBdDCIXxCUdRW0QyCVgalRn1,T0KQdBdDCIXxCUdRW0QyCVgalRn1,,,,,,,,,,,,,,,,,chosen stimuli: images/choice_trial_9.png,,,,,5ffaff9cd071dd4e7ce5e31a,16:54:29,27/03/2024
html-keyboard-response,59,112394,0.0-26.0-2.0,,,,delaylearn,learning,feedback_duration_window,T0KQdBdDCIXxCUdRW0QyCVgalRn1,T0KQdBdDCIXxCUdRW0QyCVgalRn1,,,,,,,,,,,,,,,,,,7000.0,,,,5ffaff9cd071dd4e7ce5e31a,16:54:29,27/03/2024
html-keyboard-response,60,113904,0.0-26.0-3.0,,<div style='margin:auto;width: auto; font-size: 150%'><span style='font-weight: bold; font-size: 100px; color: red;'>0 points!</span><br><br></div>,,delaylearn,learning,feedback_image_window,T0KQdBdDCIXxCUdRW0QyCVgalRn1,T0KQdBdDCIXxCUdRW0QyCVgalRn1,,,,,,,,,,,,,,,,,,,,,,5ffaff9cd071dd4e7ce5e31a,16:54:29,27/03/2024
html-keyboard-response,61,115582,0.0-27.0,,"<div style=""font-size:100px;"">+</div>",,delaylearn,learning,ITI,T0KQdBdDCIXxCUdRW0QyCVgalRn1,T0KQdBdDCIXxCUdRW0QyCVgalRn1,,,,,,,,,,,,,,,,,,,1663.0,,,5ffaff9cd071dd4e7ce5e31a,16:54:29,27/03/2024
html-keyboard-response,62,117928,0.0-28.0-0.0,2343.7999999523163,"<div style=""display: flex; flex-direction: column; align-items: center; margin-top: -40px;""><img src=""images/pattern_5.png"" style=""width: 234px; height: 230px; margin-top: -50px;""><div style=""display: flex; justify-content: space-between; margin-top: 33px;""><img src=""images/choice_trial_2.png"" style=""width: 408px; height: 417px; margin-right: 200px;""><img src=""images/choice_trial_11.png"" style=""width: 408px; height: 417px;""></div></div>",f,delaylearn,learning,trial,T0KQdBdDCIXxCUdRW0QyCVgalRn1,T0KQdBdDCIXxCUdRW0QyCVgalRn1,3.0,images/choice_trial_2.png,images/choice_trial_11.png,images/pattern_5.png,j,j,750.0,2.0,11.0,4.0,1.0,12.0,0.0,0.0,2.0,70.0,,,,,,5ffaff9cd071dd4e7ce5e31a,16:54:29,27/03/2024
html-keyboard-response,63,118945,0.0-28.0-1.0,,"<div style=""display: flex; flex-direction: column; align-items: center; margin-top: -40px;""><img src=""images/pattern_5.png"" style=""width: 234px; height: 230px; margin-top: -50px;""><div style=""display: flex; justify-content: space-between; margin-top: 33px;""><img src=""images/choice_trial_2.png"" style=""width: 408px; height: 417px; margin-right: 608px;""></div></div>",,delaylearn,learning,display_response,T0KQdBdDCIXxCUdRW0QyCVgalRn1,T0KQdBdDCIXxCUdRW0QyCVgalRn1,,,,,,,,,,,,,,,,,chosen stimuli: images/choice_trial_2.png,,,,,5ffaff9cd071dd4e7ce5e31a,16:54:29,27/03/2024
html-keyboard-response,64,119703,0.0-28.0-2.0,,,,delaylearn,learning,feedback_duration_window,T0KQdBdDCIXxCUdRW0QyCVgalRn1,T0KQdBdDCIXxCUdRW0QyCVgalRn1,,,,,,,,,,,,,,,,,,750.0,,,,5ffaff9cd071dd4e7ce5e31a,16:54:29,27/03/2024
html-keyboard-response,65,121214,0.0-28.0-3.0,,<div style='margin:auto;width: auto; font-size: 150%'><span style='font-weight: bold; font-size: 100px; color: red;'>0 points!</span><br><br></div>,,delaylearn,learning,feedback_image_window,T0KQdBdDCIXxCUdRW0QyCVgalRn1,T0KQdBdDCIXxCUdRW0QyCVgalRn1,,,,,,,,,,,,,,,,,,,,,,5ffaff9cd071dd4e7ce5e31a,16:54:29,27/03/2024
html-keyboard-response,66,123604,0.0-29.0,,"<div style=""font-size:100px;"">+</div>",,delaylearn,learning,ITI,T0KQdBdDCIXxCUdRW0QyCVgalRn1,T0KQdBdDCIXxCUdRW0QyCVgalRn1,,,,,,,,,,,,,,,,,,,2388.0,,,5ffaff9cd071dd4e7ce5e31a,16:54:29,27/03/2024
html-keyboard-response,67,125688,0.0-30.0-0.0,2080.0,"<div style=""display: flex; flex-direction: column; align-items: center; margin-top: -40px;""><img src=""images/pattern_6.png"" style=""width: 234px; height: 230px; margin-top: -50px;""><div style=""display: flex; justify-content: space-between; margin-top: 33px;""><img src=""images/choice_trial_16.png"" style=""width: 408px; height: 417px; margin-right: 200px;""><img src=""images/choice_trial_3.png"" style=""width: 408px; height: 417px;""></div></div>",f,delaylearn,learning,trial,T0KQdBdDCIXxCUdRW0QyCVgalRn1,T0KQdBdDCIXxCUdRW0QyCVgalRn1,3.0,images/choice_trial_16.png,images/choice_trial_3.png,images/pattern_6.png,j,f,750.0,16.0,3.0,5.0,0.0,13.0,1.0,0.0,16.0,70.0,,,,,,5ffaff9cd071dd4e7ce5e31a,16:54:29,27/03/2024
html-keyboard-response,68,126690,0.0-30.0-1.0,,"<div style=""display: flex; flex-direction: column; align-items: center; margin-top: -40px;""><img src=""images/pattern_6.png"" style=""width: 234px; height: 230px; margin-top: -50px;""><div style=""display: flex; justify-content: space-between; margin-top: 33px;""><img src=""images/choice_trial_16.png"" style=""width: 408px; height: 417px; margin-right: 608px;""></div></div>",,delaylearn,learning,display_response,T0KQdBdDCIXxCUdRW0QyCVgalRn1,T0KQdBdDCIXxCUdRW0QyCVgalRn1,,,,,,,,,,,,,,,,,chosen stimuli: images/choice_trial_16.png,,,,,5ffaff9cd071dd4e7ce5e31a,16:54:29,27/03/2024
html-keyboard-response,69,127446,0.0-30.0-2.0,,,,delaylearn,learning,feedback_duration_window,T0KQdBdDCIXxCUdRW0QyCVgalRn1,T0KQdBdDCIXxCUdRW0QyCVgalRn1,,,,,,,,,,,,,,,,,,750.0,,,,5ffaff9cd071dd4e7ce5e31a,16:54:29,27/03/2024
html-keyboard-response,70,128953,0.0-30.0-3.0,,<div style='margin:auto;width: auto; font-size: 150%'><span style='font-weight: bold; font-size: 100px; color: red;'>0 points!</span><br><br></div>,,delaylearn,learning,feedback_image_window,T0KQdBdDCIXxCUdRW0QyCVgalRn1,T0KQdBdDCIXxCUdRW0QyCVgalRn1,,,,,,,,,,,,,,,,,,,,,,5ffaff9cd071dd4e7ce5e31a,16:54:29,27/03/2024
html-keyboard-response,71,129454,0.0-31.0-0.0,,,,,,mood_trial_fixation,T0KQdBdDCIXxCUdRW0QyCVgalRn1,,,,,,,,,,,,,,,,,,,,,,,5ffaff9cd071dd4e7ce5e31a,16:54:29,27/03/2024
lmdlab-html-vas-response,72,136252,0.0-31.0-1.0,5791.0,How happy are you right now?,0.17824074074074073,delaylearn,learning,mood_trial,T0KQdBdDCIXxCUdRW0QyCVgalRn1,T0KQdBdDCIXxCUdRW0QyCVgalRn1,,,,,,,,,,,,,,,,,,,,"['Very unhappy', 'Very happy']",,5ffaff9cd071dd4e7ce5e31a,16:54:29,27/03/2024
html-keyboard-response,73,137896,0.0-32.0,,"<div style=""font-size:100px;"">+</div>",,delaylearn,learning,ITI,T0KQdBdDCIXxCUdRW0QyCVgalRn1,T0KQdBdDCIXxCUdRW0QyCVgalRn1,,,,,,,,,,,,,,,,,,,1634.0,,,5ffaff9cd071dd4e7ce5e31a,16:54:29,27/03/2024
html-keyboard-response,74,139915,0.0-33.0-0.0,2016.0999999046326,"<div style=""display: flex; flex-direction: column; align-items: center; margin-top: -40px;""><img src=""images/pattern_1.png"" style=""width: 234px; height: 230px; margin-top: -50px;""><div style=""display: flex; justify-content: space-between; margin-top: 33px;""><img src=""images/choice_trial_8.png"" style=""width: 408px; height: 417px; margin-right: 200px;""><img src=""images/choice_trial_14.png"" style=""width: 408px; height: 417px;""></div></div>",f,delaylearn,learning,trial,T0KQdBdDCIXxCUdRW0QyCVgalRn1,T0KQdBdDCIXxCUdRW0QyCVgalRn1,3.0,images/choice_trial_8.png,images/choice_trial_14.png,images/pattern_1.png,j,j,7000.0,8.0,14.0,1.0,1.0,14.0,0.0,0.0,8.0,70.0,,,,,,5ffaff9cd071dd4e7ce5e31a,16:54:29,27/03/2024
html-keyboard-response,75,140927,0.0-33.0-1.0,,"<div style=""display: flex; flex-direction: column; align-items: center; margin-top: -40px;""><img src=""images/pattern_1.png"" style=""width: 234px; height: 230px; margin-top: -50px;""><div style=""display: flex; justify-content: space-between; margin-top: 33px;""><img src=""images/choice_trial_8.png"" style=""width: 408px; height: 417px; margin-right: 608px;""></div></div>",,delaylearn,learning,display_response,T0KQdBdDCIXxCUdRW0QyCVgalRn1,T0KQdBdDCIXxCUdRW0QyCVgalRn1,,,,,,,,,,,,,,,,,chosen stimuli: images/choice_trial_8.png,,,,,5ffaff9cd071dd4e7ce5e31a,16:54:29,27/03/2024
html-keyboard-response,76,147942,0.0-33.0-2.0,,,,delaylearn,learning,feedback_duration_window,T0KQdBdDCIXxCUdRW0QyCVgalRn1,T0KQdBdDCIXxCUdRW0QyCVgalRn1,,,,,,,,,,,,,,,,,,7000.0,,,,5ffaff9cd071dd4e7ce5e31a,16:54:29,27/03/2024
html-keyboard-response,77,149451,0.0-33.0-3.0,,<div style='margin:auto;width: auto; font-size: 150%'><span style='font-weight: bold; font-size: 100px; color: red;'>0 points!</span><br><br></div>,,delaylearn,learning,feedback_image_window,T0KQdBdDCIXxCUdRW0QyCVgalRn1,T0KQdBdDCIXxCUdRW0QyCVgalRn1,,,,,,,,,,,,,,,,,,,,,,5ffaff9cd071dd4e7ce5e31a,16:54:29,27/03/2024
html-keyboard-response,78,151209,0.0-34.0,,"<div style=""font-size:100px;"">+</div>",,delaylearn,learning,ITI,T0KQdBdDCIXxCUdRW0QyCVgalRn1,T0KQdBdDCIXxCUdRW0QyCVgalRn1,,,,,,,,,,,,,,,,,,,1736.0,,,5ffaff9cd071dd4e7ce5e31a,16:54:29,27/03/2024
html-keyboard-response,79,153092,0.0-35.0-0.0,1880.7999999523163,"<div style=""display: flex; flex-direction: column; align-items: center; margin-top: -40px;""><img src=""images/pattern_3.png"" style=""width: 234px; height: 230px; margin-top: -50px;""><div style=""display: flex; justify-content: space-between; margin-top: 33px;""><img src=""images/choice_trial_10.png"" style=""width: 408px; height: 417px; margin-right: 200px;""><img src=""images/choice_trial_13.png"" style=""width: 408px; height: 417px;""></div></div>",j,delaylearn,learning,trial,T0KQdBdDCIXxCUdRW0QyCVgalRn1,T0KQdBdDCIXxCUdRW0QyCVgalRn1,3.0,images/choice_trial_10.png,images/choice_trial_13.png,images/pattern_3.png,f,j,7000.0,10.0,13.0,2.0,1.0,15.0,1.0,0.0,13.0,70.0,,,,,,5ffaff9cd071dd4e7ce5e31a,16:54:29,27/03/2024
html-keyboard-response,80,154111,0.0-35.0-1.0,,"<div style=""display: flex; flex-direction: column; align-items: center; margin-top: -40px;""><img src=""images/pattern_3.png"" style=""width: 234px; height: 230px; margin-top: -50px;""><div style=""display: flex; justify-content: space-between; margin-top: 33px;""><img src=""images/choice_trial_13.png"" style=""width: 408px; height: 417px; margin-left:608px;""></div></div>",,delaylearn,learning,display_response,T0KQdBdDCIXxCUdRW0QyCVgalRn1,T0KQdBdDCIXxCUdRW0QyCVgalRn1,,,,,,,,,,,,,,,,,chosen stimuli: images/choice_trial_13.png,,,,,5ffaff9cd071dd4e7ce5e31a,16:54:29,27/03/2024
html-keyboard-response,81,161115,0.0-35.0-2.0,,,,delaylearn,learning,feedback_duration_window,T0KQdBdDCIXxCUdRW0QyCVgalRn1,T0KQdBdDCIXxCUdRW0QyCVgalRn1,,,,,,,,,,,,,,,,,,7000.0,,,,5ffaff9cd071dd4e7ce5e31a,16:54:29,27/03/2024
html-keyboard-response,82,162623,0.0-35.0-3.0,,<div style='margin:auto;width: auto; font-size: 150%'><span style='font-weight: bold; font-size: 100px; color: red;'>0 points!</span><br><br></div>,,delaylearn,learning,feedback_image_window,T0KQdBdDCIXxCUdRW0QyCVgalRn1,T0KQdBdDCIXxCUdRW0QyCVgalRn1,,,,,,,,,,,,,,,,,,,,,,5ffaff9cd071dd4e7ce5e31a,16:54:29,27/03/2024
html-keyboard-response,83,164889,0.0-36.0,,"<div style=""font-size:100px;"">+</div>",,delaylearn,learning,ITI,T0KQdBdDCIXxCUdRW0QyCVgalRn1,T0KQdBdDCIXxCUdRW0QyCVgalRn1,,,,,,,,,,,,,,,,,,,2256.0,,,5ffaff9cd071dd4e7ce5e31a,16:54:29,27/03/2024
html-keyboard-response,84,167339,0.0-37.0-0.0,2448.5,"<div style=""display: flex; flex-direction: column; align-items: center; margin-top: -40px;""><img src=""images/pattern_5.png"" style=""width: 234px; height: 230px; margin-top: -50px;""><div style=""display: flex; justify-content: space-between; margin-top: 33px;""><img src=""images/choice_trial_11.png"" style=""width: 408px; height: 417px; margin-right: 200px;""><img src=""images/choice_trial_2.png"" style=""width: 408px; height: 417px;""></div></div>",f,delaylearn,learning,trial,T0KQdBdDCIXxCUdRW0QyCVgalRn1,T0KQdBdDCIXxCUdRW0QyCVgalRn1,3.0,images/choice_trial_11.png,images/choice_trial_2.png,images/pattern_5.png,f,f,750.0,11.0,2.0,4.0,0.0,16.0,1.0,1.0,11.0,80.0,,,,,,5ffaff9cd071dd4e7ce5e31a,16:54:29,27/03/2024
html-keyboard-response,85,168350,0.0-37.0-1.0,,"<div style=""display: flex; flex-direction: column; align-items: center; margin-top: -40px;""><img src=""images/pattern_5.png"" style=""width: 234px; height: 230px; margin-top: -50px;""><div style=""display: flex; justify-content: space-between; margin-top: 33px;""><img src=""images/choice_trial_11.png"" style=""width: 408px; height: 417px; margin-right: 608px;""></div></div>",,delaylearn,learning,display_response,T0KQdBdDCIXxCUdRW0QyCVgalRn1,T0KQdBdDCIXxCUdRW0QyCVgalRn1,,,,,,,,,,,,,,,,,chosen stimuli: images/choice_trial_11.png,,,,,5ffaff9cd071dd4e7ce5e31a,16:54:29,27/03/2024
html-keyboard-response,86,169104,0.0-37.0-2.0,,,,delaylearn,learning,feedback_duration_window,T0KQdBdDCIXxCUdRW0QyCVgalRn1,T0KQdBdDCIXxCUdRW0QyCVgalRn1,,,,,,,,,,,,,,,,,,750.0,,,,5ffaff9cd071dd4e7ce5e31a,16:54:29,27/03/2024
html-keyboard-response,87,170609,0.0-37.0-3.0,,<div style='margin:auto;width: auto; font-size: 150%'><span style='font-weight: bold; font-size: 100px; color: green;'>+10 points!</span><br><br></div>,,delaylearn,learning,feedback_image_window,T0KQdBdDCIXxCUdRW0QyCVgalRn1,T0KQdBdDCIXxCUdRW0QyCVgalRn1,,,,,,,,,,,,,,,,,,,,,,5ffaff9cd071dd4e7ce5e31a,16:54:29,27/03/2024
html-keyboard-response,88,171112,0.0-38.0-0.0,,,,,,mood_trial_fixation,T0KQdBdDCIXxCUdRW0QyCVgalRn1,,,,,,,,,,,,,,,,,,,,,,,5ffaff9cd071dd4e7ce5e31a,16:54:29,27/03/2024
lmdlab-html-vas-response,89,176037,0.0-38.0-1.0,3910.0,How happy are you right now?,0.38425925925925924,delaylearn,learning,mood_trial,T0KQdBdDCIXxCUdRW0QyCVgalRn1,T0KQdBdDCIXxCUdRW0QyCVgalRn1,,,,,,,,,,,,,,,,,,,,"['Very unhappy', 'Very happy']",,5ffaff9cd071dd4e7ce5e31a,16:54:29,27/03/2024
html-keyboard-response,90,177757,0.0-39.0,,"<div style=""font-size:100px;"">+</div>",,delaylearn,learning,ITI,T0KQdBdDCIXxCUdRW0QyCVgalRn1,T0KQdBdDCIXxCUdRW0QyCVgalRn1,,,,,,,,,,,,,,,,,,,1705.0,,,5ffaff9cd071dd4e7ce5e31a,16:54:29,27/03/2024
html-keyboard-response,91,180089,0.0-40.0-0.0,2329.0999999046326,"<div style=""display: flex; flex-direction: column; align-items: center; margin-top: -40px;""><img src=""images/pattern_6.png"" style=""width: 234px; height: 230px; margin-top: -50px;""><div style=""display: flex; justify-content: space-between; margin-top: 33px;""><img src=""images/choice_trial_16.png"" style=""width: 408px; height: 417px; margin-right: 200px;""><img src=""images/choice_trial_3.png"" style=""width: 408px; height: 417px;""></div></div>",j,delaylearn,learning,trial,T0KQdBdDCIXxCUdRW0QyCVgalRn1,T0KQdBdDCIXxCUdRW0QyCVgalRn1,3.0,images/choice_trial_16.png,images/choice_trial_3.png,images/pattern_6.png,f,f,750.0,16.0,3.0,5.0,0.0,17.0,0.0,0.0,3.0,80.0,,,,,,5ffaff9cd071dd4e7ce5e31a,16:54:29,27/03/2024
html-keyboard-response,92,181095,0.0-40.0-1.0,,"<div style=""display: flex; flex-direction: column; align-items: center; margin-top: -40px;""><img src=""images/pattern_6.png"" style=""width: 234px; height: 230px; margin-top: -50px;""><div style=""display: flex; justify-content: space-between; margin-top: 33px;""><img src=""images/choice_trial_3.png"" style=""width: 408px; height: 417px; margin-left:608px;""></div></div>",,delaylearn,learning,display_response,T0KQdBdDCIXxCUdRW0QyCVgalRn1,T0KQdBdDCIXxCUdRW0QyCVgalRn1,,,,,,,,,,,,,,,,,chosen stimuli: images/choice_trial_3.png,,,,,5ffaff9cd071dd4e7ce5e31a,16:54:29,27/03/2024
html-keyboard-response,93,181847,0.0-40.0-2.0,,,,delaylearn,learning,feedback_duration_window,T0KQdBdDCIXxCUdRW0QyCVgalRn1,T0KQdBdDCIXxCUdRW0QyCVgalRn1,,,,,,,,,,,,,,,,,,750.0,,,,5ffaff9cd071dd4e7ce5e31a,16:54:29,27/03/2024
html-keyboard-response,94,183353,0.0-40.0-3.0,,<div style='margin:auto;width: auto; font-size: 150%'><span style='font-weight: bold; font-size: 100px; color: red;'>0 points!</span><br><br></div>,,delaylearn,learning,feedback_image_window,T0KQdBdDCIXxCUdRW0QyCVgalRn1,T0KQdBdDCIXxCUdRW0QyCVgalRn1,,,,,,,,,,,,,,,,,,,,,,5ffaff9cd071dd4e7ce5e31a,16:54:29,27/03/2024
html-keyboard-response,95,185683,0.0-41.0,,"<div style=""font-size:100px;"">+</div>",,delaylearn,learning,ITI,T0KQdBdDCIXxCUdRW0QyCVgalRn1,T0KQdBdDCIXxCUdRW0QyCVgalRn1,,,,,,,,,,,,,,,,,,,2319.0,,,5ffaff9cd071dd4e7ce5e31a,16:54:29,27/03/2024
html-keyboard-response,96,187857,0.0-42.0-0.0,2170.2999999523163,"<div style=""display: flex; flex-direction: column; align-items: center; margin-top: -40px;""><img src=""images/pattern_4.png"" style=""width: 234px; height: 230px; margin-top: -50px;""><div style=""display: flex; justify-content: space-between; margin-top: 33px;""><img src=""images/choice_trial_9.png"" style=""width: 408px; height: 417px; margin-right: 200px;""><img src=""images/choice_trial_15.png"" style=""width: 408px; height: 417px;""></div></div>",j,delaylearn,learning,trial,T0KQdBdDCIXxCUdRW0QyCVgalRn1,T0KQdBdDCIXxCUdRW0QyCVgalRn1,3.0,images/choice_trial_9.png,images/choice_trial_15.png,images/pattern_4.png,j,j,7000.0,9.0,15.0,3.0,1.0,18.0,1.0,1.0,15.0,90.0,,,,,,5ffaff9cd071dd4e7ce5e31a,16:54:29,27/03/2024
html-keyboard-response,97,188869,0.0-42.0-1.0,,"<div style=""display: flex; flex-direction: column; align-items: center; margin-top: -40px;""><img src=""images/pattern_4.png"" style=""width: 234px; height: 230px; margin-top: -50px;""><div style=""display: flex; justify-content: space-between; margin-top: 33px;""><img src=""images/choice_trial_15.png"" style=""width: 408px; height: 417px; margin-left:608px;""></div></div>",,delaylearn,learning,display_response,T0KQdBdDCIXxCUdRW0QyCVgalRn1,T0KQdBdDCIXxCUdRW0QyCVgalRn1,,,,,,,,,,,,,,,,,chosen stimuli: images/choice_trial_15.png,,,,,5ffaff9cd071dd4e7ce5e31a,16:54:29,27/03/2024
html-keyboard-response,98,195893,0.0-42.0-2.0,,,,delaylearn,learning,feedback_duration_window,T0KQdBdDCIXxCUdRW0QyCVgalRn1,T0KQdBdDCIXxCUdRW0QyCVgalRn1,,,,,,,,,,,,,,,,,,7000.0,,,,5ffaff9cd071dd4e7ce5e31a,16:54:29,27/03/2024
html-keyboard-response,99,197401,0.0-42.0-3.0,,<div style='margin:auto;width: auto; font-size: 150%'><span style='font-weight: bold; font-size: 100px; color: green;'>+10 points!</span><br><br></div>,,delaylearn,learning,feedback_image_window,T0KQdBdDCIXxCUdRW0QyCVgalRn1,T0KQdBdDCIXxCUdRW0QyCVgalRn1,,,,,,,,,,,,,,,,,,,,,,5ffaff9cd071dd4e7ce5e31a,16:54:29,27/03/2024
html-keyboard-response,100,199698,0.0-43.0,,"<div style=""font-size:100px;"">+</div>",,delaylearn,learning,ITI,T0KQdBdDCIXxCUdRW0QyCVgalRn1,T0KQdBdDCIXxCUdRW0QyCVgalRn1,,,,,,,,,,,,,,,,,,,2283.0,,,5ffaff9cd071dd4e7ce5e31a,16:54:29,27/03/2024
html-keyboard-response,101,200870,0.0-44.0-0.0,1168.0,"<div style=""display: flex; flex-direction: column; align-items: center; margin-top: -40px;""><img src=""images/pattern_7.png"" style=""width: 234px; height: 230px; margin-top: -50px;""><div style=""display: flex; justify-content: space-between; margin-top: 33px;""><img src=""images/choice_trial_6.png"" style=""width: 408px; height: 417px; margin-right: 200px;""><img src=""images/choice_trial_12.png"" style=""width: 408px; height: 417px;""></div></div>",f,delaylearn,learning,trial,T0KQdBdDCIXxCUdRW0QyCVgalRn1,T0KQdBdDCIXxCUdRW0QyCVgalRn1,3.0,images/choice_trial_6.png,images/choice_trial_12.png,images/pattern_7.png,j,f,750.0,6.0,12.0,6.0,0.0,19.0,1.0,0.0,6.0,90.0,,,,,,5ffaff9cd071dd4e7ce5e31a,16:54:29,27/03/2024
html-keyboard-response,102,201877,0.0-44.0-1.0,,"<div style=""display: flex; flex-direction: column; align-items: center; margin-top: -40px;""><img src=""images/pattern_7.png"" style=""width: 234px; height: 230px; margin-top: -50px;""><div style=""display: flex; justify-content: space-between; margin-top: 33px;""><img src=""images/choice_trial_6.png"" style=""width: 408px; height: 417px; margin-right: 608px;""></div></div>",,delaylearn,learning,display_response,T0KQdBdDCIXxCUdRW0QyCVgalRn1,T0KQdBdDCIXxCUdRW0QyCVgalRn1,,,,,,,,,,,,,,,,,chosen stimuli: images/choice_trial_6.png,,,,,5ffaff9cd071dd4e7ce5e31a,16:54:29,27/03/2024
html-keyboard-response,103,202635,0.0-44.0-2.0,,,,delaylearn,learning,feedback_duration_window,T0KQdBdDCIXxCUdRW0QyCVgalRn1,T0KQdBdDCIXxCUdRW0QyCVgalRn1,,,,,,,,,,,,,,,,,,750.0,,,,5ffaff9cd071dd4e7ce5e31a,16:54:29,27/03/2024
html-keyboard-response,104,204143,0.0-44.0-3.0,,<div style='margin:auto;width: auto; font-size: 150%'><span style='font-weight: bold; font-size: 100px; color: red;'>0 points!</span><br><br></div>,,delaylearn,learning,feedback_image_window,T0KQdBdDCIXxCUdRW0QyCVgalRn1,T0KQdBdDCIXxCUdRW0QyCVgalRn1,,,,,,,,,,,,,,,,,,,,,,5ffaff9cd071dd4e7ce5e31a,16:54:29,27/03/2024
html-keyboard-response,105,205749,0.0-45.0,,"<div style=""font-size:100px;"">+</div>",,delaylearn,learning,ITI,T0KQdBdDCIXxCUdRW0QyCVgalRn1,T0KQdBdDCIXxCUdRW0QyCVgalRn1,,,,,,,,,,,,,,,,,,,1594.0,,,5ffaff9cd071dd4e7ce5e31a,16:54:29,27/03/2024
html-keyboard-response,106,207704,0.0-46.0-0.0,1951.0999999046326,"<div style=""display: flex; flex-direction: column; align-items: center; margin-top: -40px;""><img src=""images/pattern_1.png"" style=""width: 234px; height: 230px; margin-top: -50px;""><div style=""display: flex; justify-content: space-between; margin-top: 33px;""><img src=""images/choice_trial_14.png"" style=""width: 408px; height: 417px; margin-right: 200px;""><img src=""images/choice_trial_8.png"" style=""width: 408px; height: 417px;""></div></div>",f,delaylearn,learning,trial,T0KQdBdDCIXxCUdRW0QyCVgalRn1,T0KQdBdDCIXxCUdRW0QyCVgalRn1,3.0,images/choice_trial_14.png,images/choice_trial_8.png,images/pattern_1.png,f,f,7000.0,14.0,8.0,1.0,0.0,20.0,1.0,1.0,14.0,100.0,,,,,,5ffaff9cd071dd4e7ce5e31a,16:54:29,27/03/2024
html-keyboard-response,107,208707,0.0-46.0-1.0,,"<div style=""display: flex; flex-direction: column; align-items: center; margin-top: -40px;""><img src=""images/pattern_1.png"" style=""width: 234px; height: 230px; margin-top: -50px;""><div style=""display: flex; justify-content: space-between; margin-top: 33px;""><img src=""images/choice_trial_14.png"" style=""width: 408px; height: 417px; margin-right: 608px;""></div></div>",,delaylearn,learning,display_response,T0KQdBdDCIXxCUdRW0QyCVgalRn1,T0KQdBdDCIXxCUdRW0QyCVgalRn1,,,,,,,,,,,,,,,,,chosen stimuli: images/choice_trial_14.png,,,,,5ffaff9cd071dd4e7ce5e31a,16:54:29,27/03/2024
html-keyboard-response,108,215715,0.0-46.0-2.0,,,,delaylearn,learning,feedback_duration_window,T0KQdBdDCIXxCUdRW0QyCVgalRn1,T0KQdBdDCIXxCUdRW0QyCVgalRn1,,,,,,,,,,,,,,,,,,7000.0,,,,5ffaff9cd071dd4e7ce5e31a,16:54:29,27/03/2024
html-keyboard-response,109,217224,0.0-46.0-3.0,,<div style='margin:auto;width: auto; font-size: 150%'><span style='font-weight: bold; font-size: 100px; color: green;'>+10 points!</span><br><br></div>,,delaylearn,learning,feedback_image_window,T0KQdBdDCIXxCUdRW0QyCVgalRn1,T0KQdBdDCIXxCUdRW0QyCVgalRn1,,,,,,,,,,,,,,,,,,,,,,5ffaff9cd071dd4e7ce5e31a,16:54:29,27/03/2024
html-keyboard-response,110,219580,0.0-47.0,,"<div style=""font-size:100px;"">+</div>",,delaylearn,learning,ITI,T0KQdBdDCIXxCUdRW0QyCVgalRn1,T0KQdBdDCIXxCUdRW0QyCVgalRn1,,,,,,,,,,,,,,,,,,,2341.0,,,5ffaff9cd071dd4e7ce5e31a,16:54:29,27/03/2024
html-keyboard-response,111,221537,0.0-48.0-0.0,1953.5,"<div style=""display: flex; flex-direction: column; align-items: center; margin-top: -40px;""><img src=""images/pattern_6.png"" style=""width: 234px; height: 230px; margin-top: -50px;""><div style=""display: flex; justify-content: space-between; margin-top: 33px;""><img src=""images/choice_trial_3.png"" style=""width: 408px; height: 417px; margin-right: 200px;""><img src=""images/choice_trial_16.png"" style=""width: 408px; height: 417px;""></div></div>",j,delaylearn,learning,trial,T0KQdBdDCIXxCUdRW0QyCVgalRn1,T0KQdBdDCIXxCUdRW0QyCVgalRn1,3.0,images/choice_trial_3.png,images/choice_trial_16.png,images/pattern_6.png,j,j,750.0,3.0,16.0,5.0,1.0,21.0,1.0,1.0,16.0,110.0,,,,,,5ffaff9cd071dd4e7ce5e31a,16:54:29,27/03/2024
html-keyboard-response,112,222553,0.0-48.0-1.0,,"<div style=""display: flex; flex-direction: column; align-items: center; margin-top: -40px;""><img src=""images/pattern_6.png"" style=""width: 234px; height: 230px; margin-top: -50px;""><div style=""display: flex; justify-content: space-between; margin-top: 33px;""><img src=""images/choice_trial_16.png"" style=""width: 408px; height: 417px; margin-left:608px;""></div></div>",,delaylearn,learning,display_response,T0KQdBdDCIXxCUdRW0QyCVgalRn1,T0KQdBdDCIXxCUdRW0QyCVgalRn1,,,,,,,,,,,,,,,,,chosen stimuli: images/choice_trial_16.png,,,,,5ffaff9cd071dd4e7ce5e31a,16:54:29,27/03/2024
html-keyboard-response,113,223323,0.0-48.0-2.0,,,,delaylearn,learning,feedback_duration_window,T0KQdBdDCIXxCUdRW0QyCVgalRn1,T0KQdBdDCIXxCUdRW0QyCVgalRn1,,,,,,,,,,,,,,,,,,750.0,,,,5ffaff9cd071dd4e7ce5e31a,16:54:29,27/03/2024
html-keyboard-response,114,224832,0.0-48.0-3.0,,<div style='margin:auto;width: auto; font-size: 150%'><span style='font-weight: bold; font-size: 100px; color: green;'>+10 points!</span><br><br></div>,,delaylearn,learning,feedback_image_window,T0KQdBdDCIXxCUdRW0QyCVgalRn1,T0KQdBdDCIXxCUdRW0QyCVgalRn1,,,,,,,,,,,,,,,,,,,,,,5ffaff9cd071dd4e7ce5e31a,16:54:29,27/03/2024
html-keyboard-response,115,226861,0.0-49.0,,"<div style=""font-size:100px;"">+</div>",,delaylearn,learning,ITI,T0KQdBdDCIXxCUdRW0QyCVgalRn1,T0KQdBdDCIXxCUdRW0QyCVgalRn1,,,,,,,,,,,,,,,,,,,2021.0,,,5ffaff9cd071dd4e7ce5e31a,16:54:29,27/03/2024
html-keyboard-response,116,227892,0.0-50.0-0.0,1028.8999998569489,"<div style=""display: flex; flex-direction: column; align-items: center; margin-top: -40px;""><img src=""images/pattern_4.png"" style=""width: 234px; height: 230px; margin-top: -50px;""><div style=""display: flex; justify-content: space-between; margin-top: 33px;""><img src=""images/choice_trial_15.png"" style=""width: 408px; height: 417px; margin-right: 200px;""><img src=""images/choice_trial_9.png"" style=""width: 408px; height: 417px;""></div></div>",f,delaylearn,learning,trial,T0KQdBdDCIXxCUdRW0QyCVgalRn1,T0KQdBdDCIXxCUdRW0QyCVgalRn1,3.0,images/choice_trial_15.png,images/choice_trial_9.png,images/pattern_4.png,f,f,7000.0,15.0,9.0,3.0,0.0,22.0,1.0,1.0,15.0,120.0,,,,,,5ffaff9cd071dd4e7ce5e31a,16:54:29,27/03/2024
html-keyboard-response,117,228903,0.0-50.0-1.0,,"<div style=""display: flex; flex-direction: column; align-items: center; margin-top: -40px;""><img src=""images/pattern_4.png"" style=""width: 234px; height: 230px; margin-top: -50px;""><div style=""display: flex; justify-content: space-between; margin-top: 33px;""><img src=""images/choice_trial_15.png"" style=""width: 408px; height: 417px; margin-right: 608px;""></div></div>",,delaylearn,learning,display_response,T0KQdBdDCIXxCUdRW0QyCVgalRn1,T0KQdBdDCIXxCUdRW0QyCVgalRn1,,,,,,,,,,,,,,,,,chosen stimuli: images/choice_trial_15.png,,,,,5ffaff9cd071dd4e7ce5e31a,16:54:29,27/03/2024
html-keyboard-response,118,235907,0.0-50.0-2.0,,,,delaylearn,learning,feedback_duration_window,T0KQdBdDCIXxCUdRW0QyCVgalRn1,T0KQdBdDCIXxCUdRW0QyCVgalRn1,,,,,,,,,,,,,,,,,,7000.0,,,,5ffaff9cd071dd4e7ce5e31a,16:54:29,27/03/2024
html-keyboard-response,119,237410,0.0-50.0-3.0,,<div style='margin:auto;width: auto; font-size: 150%'><span style='font-weight: bold; font-size: 100px; color: green;'>+10 points!</span><br><br></div>,,delaylearn,learning,feedback_image_window,T0KQdBdDCIXxCUdRW0QyCVgalRn1,T0KQdBdDCIXxCUdRW0QyCVgalRn1,,,,,,,,,,,,,,,,,,,,,,5ffaff9cd071dd4e7ce5e31a,16:54:29,27/03/2024
html-keyboard-response,120,237927,0.0-51.0-0.0,,,,,,mood_trial_fixation,T0KQdBdDCIXxCUdRW0QyCVgalRn1,,,,,,,,,,,,,,,,,,,,,,,5ffaff9cd071dd4e7ce5e31a,16:54:29,27/03/2024
lmdlab-html-vas-response,121,245151,0.0-51.0-1.0,6208.0,How happy are you right now?,0.4930555555555556,delaylearn,learning,mood_trial,T0KQdBdDCIXxCUdRW0QyCVgalRn1,T0KQdBdDCIXxCUdRW0QyCVgalRn1,,,,,,,,,,,,,,,,,,,,"['Very unhappy', 'Very happy']",,5ffaff9cd071dd4e7ce5e31a,16:54:29,27/03/2024
html-keyboard-response,122,247522,0.0-52.0,,"<div style=""font-size:100px;"">+</div>",,delaylearn,learning,ITI,T0KQdBdDCIXxCUdRW0QyCVgalRn1,T0KQdBdDCIXxCUdRW0QyCVgalRn1,,,,,,,,,,,,,,,,,,,2357.0,,,5ffaff9cd071dd4e7ce5e31a,16:54:29,27/03/2024
html-keyboard-response,123,248449,0.0-53.0-0.0,923.7999999523163,"<div style=""display: flex; flex-direction: column; align-items: center; margin-top: -40px;""><img src=""images/pattern_7.png"" style=""width: 234px; height: 230px; margin-top: -50px;""><div style=""display: flex; justify-content: space-between; margin-top: 33px;""><img src=""images/choice_trial_12.png"" style=""width: 408px; height: 417px; margin-right: 200px;""><img src=""images/choice_trial_6.png"" style=""width: 408px; height: 417px;""></div></div>",j,delaylearn,learning,trial,T0KQdBdDCIXxCUdRW0QyCVgalRn1,T0KQdBdDCIXxCUdRW0QyCVgalRn1,3.0,images/choice_trial_12.png,images/choice_trial_6.png,images/pattern_7.png,j,j,750.0,12.0,6.0,6.0,1.0,23.0,1.0,1.0,6.0,130.0,,,,,,5ffaff9cd071dd4e7ce5e31a,16:54:29,27/03/2024
html-keyboard-response,124,249471,0.0-53.0-1.0,,"<div style=""display: flex; flex-direction: column; align-items: center; margin-top: -40px;""><img src=""images/pattern_7.png"" style=""width: 234px; height: 230px; margin-top: -50px;""><div style=""display: flex; justify-content: space-between; margin-top: 33px;""><img src=""images/choice_trial_6.png"" style=""width: 408px; height: 417px; margin-left:608px;""></div></div>",,delaylearn,learning,display_response,T0KQdBdDCIXxCUdRW0QyCVgalRn1,T0KQdBdDCIXxCUdRW0QyCVgalRn1,,,,,,,,,,,,,,,,,chosen stimuli: images/choice_trial_6.png,,,,,5ffaff9cd071dd4e7ce5e31a,16:54:29,27/03/2024
html-keyboard-response,125,250236,0.0-53.0-2.0,,,,delaylearn,learning,feedback_duration_window,T0KQdBdDCIXxCUdRW0QyCVgalRn1,T0KQdBdDCIXxCUdRW0QyCVgalRn1,,,,,,,,,,,,,,,,,,750.0,,,,5ffaff9cd071dd4e7ce5e31a,16:54:29,27/03/2024
html-keyboard-response,126,251749,0.0-53.0-3.0,,<div style='margin:auto;width: auto; font-size: 150%'><span style='font-weight: bold; font-size: 100px; color: green;'>+10 points!</span><br><br></div>,,delaylearn,learning,feedback_image_window,T0KQdBdDCIXxCUdRW0QyCVgalRn1,T0KQdBdDCIXxCUdRW0QyCVgalRn1,,,,,,,,,,,,,,,,,,,,,,5ffaff9cd071dd4e7ce5e31a,16:54:29,27/03/2024
html-keyboard-response,127,253384,0.0-54.0,,"<div style=""font-size:100px;"">+</div>",,delaylearn,learning,ITI,T0KQdBdDCIXxCUdRW0QyCVgalRn1,T0KQdBdDCIXxCUdRW0QyCVgalRn1,,,,,,,,,,,,,,,,,,,1625.0,,,5ffaff9cd071dd4e7ce5e31a,16:54:29,27/03/2024
html-keyboard-response,128,254489,0.0-55.0-0.0,1100.1000001430511,"<div style=""display: flex; flex-direction: column; align-items: center; margin-top: -40px;""><img src=""images/pattern_1.png"" style=""width: 234px; height: 230px; margin-top: -50px;""><div style=""display: flex; justify-content: space-between; margin-top: 33px;""><img src=""images/choice_trial_8.png"" style=""width: 408px; height: 417px; margin-right: 200px;""><img src=""images/choice_trial_14.png"" style=""width: 408px; height: 417px;""></div></div>",j,delaylearn,learning,trial,T0KQdBdDCIXxCUdRW0QyCVgalRn1,T0KQdBdDCIXxCUdRW0QyCVgalRn1,3.0,images/choice_trial_8.png,images/choice_trial_14.png,images/pattern_1.png,f,j,7000.0,8.0,14.0,1.0,1.0,24.0,1.0,0.0,14.0,130.0,,,,,,5ffaff9cd071dd4e7ce5e31a,16:54:29,27/03/2024
html-keyboard-response,129,255501,0.0-55.0-1.0,,"<div style=""display: flex; flex-direction: column; align-items: center; margin-top: -40px;""><img src=""images/pattern_1.png"" style=""width: 234px; height: 230px; margin-top: -50px;""><div style=""display: flex; justify-content: space-between; margin-top: 33px;""><img src=""images/choice_trial_14.png"" style=""width: 408px; height: 417px; margin-left:608px;""></div></div>",,delaylearn,learning,display_response,T0KQdBdDCIXxCUdRW0QyCVgalRn1,T0KQdBdDCIXxCUdRW0QyCVgalRn1,,,,,,,,,,,,,,,,,chosen stimuli: images/choice_trial_14.png,,,,,5ffaff9cd071dd4e7ce5e31a,16:54:29,27/03/2024
html-keyboard-response,130,262508,0.0-55.0-2.0,,,,delaylearn,learning,feedback_duration_window,T0KQdBdDCIXxCUdRW0QyCVgalRn1,T0KQdBdDCIXxCUdRW0QyCVgalRn1,,,,,,,,,,,,,,,,,,7000.0,,,,5ffaff9cd071dd4e7ce5e31a,16:54:29,27/03/2024
html-keyboard-response,131,264016,0.0-55.0-3.0,,<div style='margin:auto;width: auto; font-size: 150%'><span style='font-weight: bold; font-size: 100px; color: red;'>0 points!</span><br><br></div>,,delaylearn,learning,feedback_image_window,T0KQdBdDCIXxCUdRW0QyCVgalRn1,T0KQdBdDCIXxCUdRW0QyCVgalRn1,,,,,,,,,,,,,,,,,,,,,,5ffaff9cd071dd4e7ce5e31a,16:54:29,27/03/2024
html-keyboard-response,132,265895,0.0-56.0,,"<div style=""font-size:100px;"">+</div>",,delaylearn,learning,ITI,T0KQdBdDCIXxCUdRW0QyCVgalRn1,T0KQdBdDCIXxCUdRW0QyCVgalRn1,,,,,,,,,,,,,,,,,,,1861.0,,,5ffaff9cd071dd4e7ce5e31a,16:54:29,27/03/2024
html-keyboard-response,133,267792,0.0-57.0-0.0,1893.0,"<div style=""display: flex; flex-direction: column; align-items: center; margin-top: -40px;""><img src=""images/pattern_5.png"" style=""width: 234px; height: 230px; margin-top: -50px;""><div style=""display: flex; justify-content: space-between; margin-top: 33px;""><img src=""images/choice_trial_2.png"" style=""width: 408px; height: 417px; margin-right: 200px;""><img src=""images/choice_trial_11.png"" style=""width: 408px; height: 417px;""></div></div>",j,delaylearn,learning,trial,T0KQdBdDCIXxCUdRW0QyCVgalRn1,T0KQdBdDCIXxCUdRW0QyCVgalRn1,3.0,images/choice_trial_2.png,images/choice_trial_11.png,images/pattern_5.png,j,j,750.0,2.0,11.0,4.0,1.0,25.0,1.0,1.0,11.0,140.0,,,,,,5ffaff9cd071dd4e7ce5e31a,16:54:29,27/03/2024
html-keyboard-response,134,268794,0.0-57.0-1.0,,"<div style=""display: flex; flex-direction: column; align-items: center; margin-top: -40px;""><img src=""images/pattern_5.png"" style=""width: 234px; height: 230px; margin-top: -50px;""><div style=""display: flex; justify-content: space-between; margin-top: 33px;""><img src=""images/choice_trial_11.png"" style=""width: 408px; height: 417px; margin-left:608px;""></div></div>",,delaylearn,learning,display_response,T0KQdBdDCIXxCUdRW0QyCVgalRn1,T0KQdBdDCIXxCUdRW0QyCVgalRn1,,,,,,,,,,,,,,,,,chosen stimuli: images/choice_trial_11.png,,,,,5ffaff9cd071dd4e7ce5e31a,16:54:29,27/03/2024
html-keyboard-response,135,269561,0.0-57.0-2.0,,,,delaylearn,learning,feedback_duration_window,T0KQdBdDCIXxCUdRW0QyCVgalRn1,T0KQdBdDCIXxCUdRW0QyCVgalRn1,,,,,,,,,,,,,,,,,,750.0,,,,5ffaff9cd071dd4e7ce5e31a,16:54:29,27/03/2024
html-keyboard-response,136,271068,0.0-57.0-3.0,,<div style='margin:auto;width: auto; font-size: 150%'><span style='font-weight: bold; font-size: 100px; color: green;'>+10 points!</span><br><br></div>,,delaylearn,learning,feedback_image_window,T0KQdBdDCIXxCUdRW0QyCVgalRn1,T0KQdBdDCIXxCUdRW0QyCVgalRn1,,,,,,,,,,,,,,,,,,,,,,5ffaff9cd071dd4e7ce5e31a,16:54:29,27/03/2024
html-keyboard-response,137,272664,0.0-58.0,,"<div style=""font-size:100px;"">+</div>",,delaylearn,learning,ITI,T0KQdBdDCIXxCUdRW0QyCVgalRn1,T0KQdBdDCIXxCUdRW0QyCVgalRn1,,,,,,,,,,,,,,,,,,,1592.0,,,5ffaff9cd071dd4e7ce5e31a,16:54:29,27/03/2024
html-keyboard-response,138,274454,0.0-59.0-0.0,1786.1000001430511,"<div style=""display: flex; flex-direction: column; align-items: center; margin-top: -40px;""><img src=""images/pattern_3.png"" style=""width: 234px; height: 230px; margin-top: -50px;""><div style=""display: flex; justify-content: space-between; margin-top: 33px;""><img src=""images/choice_trial_10.png"" style=""width: 408px; height: 417px; margin-right: 200px;""><img src=""images/choice_trial_13.png"" style=""width: 408px; height: 417px;""></div></div>",f,delaylearn,learning,trial,T0KQdBdDCIXxCUdRW0QyCVgalRn1,T0KQdBdDCIXxCUdRW0QyCVgalRn1,3.0,images/choice_trial_10.png,images/choice_trial_13.png,images/pattern_3.png,j,j,7000.0,10.0,13.0,2.0,1.0,26.0,0.0,0.0,10.0,140.0,,,,,,5ffaff9cd071dd4e7ce5e31a,16:54:29,27/03/2024
html-keyboard-response,139,275460,0.0-59.0-1.0,,"<div style=""display: flex; flex-direction: column; align-items: center; margin-top: -40px;""><img src=""images/pattern_3.png"" style=""width: 234px; height: 230px; margin-top: -50px;""><div style=""display: flex; justify-content: space-between; margin-top: 33px;""><img src=""images/choice_trial_10.png"" style=""width: 408px; height: 417px; margin-right: 608px;""></div></div>",,delaylearn,learning,display_response,T0KQdBdDCIXxCUdRW0QyCVgalRn1,T0KQdBdDCIXxCUdRW0QyCVgalRn1,,,,,,,,,,,,,,,,,chosen stimuli: images/choice_trial_10.png,,,,,5ffaff9cd071dd4e7ce5e31a,16:54:29,27/03/2024
html-keyboard-response,140,282467,0.0-59.0-2.0,,,,delaylearn,learning,feedback_duration_window,T0KQdBdDCIXxCUdRW0QyCVgalRn1,T0KQdBdDCIXxCUdRW0QyCVgalRn1,,,,,,,,,,,,,,,,,,7000.0,,,,5ffaff9cd071dd4e7ce5e31a,16:54:29,27/03/2024
html-keyboard-response,141,283978,0.0-59.0-3.0,,<div style='margin:auto;width: auto; font-size: 150%'><span style='font-weight: bold; font-size: 100px; color: red;'>0 points!</span><br><br></div>,,delaylearn,learning,feedback_image_window,T0KQdBdDCIXxCUdRW0QyCVgalRn1,T0KQdBdDCIXxCUdRW0QyCVgalRn1,,,,,,,,,,,,,,,,,,,,,,5ffaff9cd071dd4e7ce5e31a,16:54:29,27/03/2024
lmdlab-html-vas-response,142,290533,0.0-60.0-0.0,5039.0,*How <b><u>confident</u></b> are you feeling about your answers at this moment?*,0.3425925925925926,rewlearn,rate_confidence,,T0KQdBdDCIXxCUdRW0QyCVgalRn1,T0KQdBdDCIXxCUdRW0QyCVgalRn1,,,,,,,,,,,,,,,,,,,,"['No confidence', 'Complete confidence']",,5ffaff9cd071dd4e7ce5e31a,16:54:29,27/03/2024
lmdlab-rest-trial-limit,143,296762,0.0-60.0-1.0,4720.700000047684,"<div style=""font-size:40px;""><b>Please take a break!</b><br><br><br><br><p>Great work: you earned 140 points.<br><br><br><p>You have completed part(s) 1 of 5.<br><br><br><br>When you are ready to continue<br><br><br>please click the button.</p><br><br>",0,delaylearn,learning,break,T0KQdBdDCIXxCUdRW0QyCVgalRn1,T0KQdBdDCIXxCUdRW0QyCVgalRn1,,,,,,,,,,,,,,,,,,,,,0.0,5ffaff9cd071dd4e7ce5e31a,16:54:29,27/03/2024
html-keyboard-response,144,299781,0.0-60.0-2.0,,"<div style=""font-size:100px;"">+</div>",,delaylearn,learning,pre_fixation,T0KQdBdDCIXxCUdRW0QyCVgalRn1,,,,,,,,,,,,,,,,,,,,,,,5ffaff9cd071dd4e7ce5e31a,16:54:29,27/03/2024
lmdlab-html-vas-response,145,304952,0.0-60.0-3.0-0.0,4163.0,How happy are you right now?,0.4861111111111111,delaylearn,learning,mood_baseline,T0KQdBdDCIXxCUdRW0QyCVgalRn1,T0KQdBdDCIXxCUdRW0QyCVgalRn1,,,,,,,,,,,,,,,,,,,,"['Very unhappy', 'Very happy']",,5ffaff9cd071dd4e7ce5e31a,16:54:29,27/03/2024
html-keyboard-response,146,306462,0.0-60.0-3.0-1.0,,,,,,mood_baseline_fixation,T0KQdBdDCIXxCUdRW0QyCVgalRn1,,,,,,,,,,,,,,,,,,,,,,,5ffaff9cd071dd4e7ce5e31a,16:54:29,27/03/2024
html-keyboard-response,147,308488,0.0-61.0,,"<div style=""font-size:100px;"">+</div>",,delaylearn,learning,ITI,T0KQdBdDCIXxCUdRW0QyCVgalRn1,T0KQdBdDCIXxCUdRW0QyCVgalRn1,,,,,,,,,,,,,,,,,,,2014.0,,,5ffaff9cd071dd4e7ce5e31a,16:54:29,27/03/2024
html-keyboard-response,148,309305,0.0-62.0-0.0,812.5,"<div style=""display: flex; flex-direction: column; align-items: center; margin-top: -40px;""><img src=""images/pattern_7.png"" style=""width: 234px; height: 230px; margin-top: -50px;""><div style=""display: flex; justify-content: space-between; margin-top: 33px;""><img src=""images/choice_trial_12.png"" style=""width: 408px; height: 417px; margin-right: 200px;""><img src=""images/choice_trial_6.png"" style=""width: 408px; height: 417px;""></div></div>",j,delaylearn,learning,trial,T0KQdBdDCIXxCUdRW0QyCVgalRn1,T0KQdBdDCIXxCUdRW0QyCVgalRn1,3.0,images/choice_trial_12.png,images/choice_trial_6.png,images/pattern_7.png,j,j,750.0,12.0,6.0,6.0,1.0,27.0,1.0,1.0,6.0,150.0,,,,,,5ffaff9cd071dd4e7ce5e31a,16:54:29,27/03/2024
html-keyboard-response,149,310314,0.0-62.0-1.0,,"<div style=""display: flex; flex-direction: column; align-items: center; margin-top: -40px;""><img src=""images/pattern_7.png"" style=""width: 234px; height: 230px; margin-top: -50px;""><div style=""display: flex; justify-content: space-between; margin-top: 33px;""><img src=""images/choice_trial_6.png"" style=""width: 408px; height: 417px; margin-left:608px;""></div></div>",,delaylearn,learning,display_response,T0KQdBdDCIXxCUdRW0QyCVgalRn1,T0KQdBdDCIXxCUdRW0QyCVgalRn1,,,,,,,,,,,,,,,,,chosen stimuli: images/choice_trial_6.png,,,,,5ffaff9cd071dd4e7ce5e31a,16:54:29,27/03/2024
html-keyboard-response,150,311067,0.0-62.0-2.0,,,,delaylearn,learning,feedback_duration_window,T0KQdBdDCIXxCUdRW0QyCVgalRn1,T0KQdBdDCIXxCUdRW0QyCVgalRn1,,,,,,,,,,,,,,,,,,750.0,,,,5ffaff9cd071dd4e7ce5e31a,16:54:29,27/03/2024
html-keyboard-response,151,312574,0.0-62.0-3.0,,<div style='margin:auto;width: auto; font-size: 150%'><span style='font-weight: bold; font-size: 100px; color: green;'>+10 points!</span><br><br></div>,,delaylearn,learning,feedback_image_window,T0KQdBdDCIXxCUdRW0QyCVgalRn1,T0KQdBdDCIXxCUdRW0QyCVgalRn1,,,,,,,,,,,,,,,,,,,,,,5ffaff9cd071dd4e7ce5e31a,16:54:29,27/03/2024
html-keyboard-response,152,313089,0.0-63.0-0.0,,,,,,mood_trial_fixation,T0KQdBdDCIXxCUdRW0QyCVgalRn1,,,,,,,,,,,,,,,,,,,,,,,5ffaff9cd071dd4e7ce5e31a,16:54:29,27/03/2024
lmdlab-html-vas-response,153,317481,0.0-63.0-1.0,3378.0,How happy are you right now?,0.5162037037037037,delaylearn,learning,mood_trial,T0KQdBdDCIXxCUdRW0QyCVgalRn1,T0KQdBdDCIXxCUdRW0QyCVgalRn1,,,,,,,,,,,,,,,,,,,,"['Very unhappy', 'Very happy']",,5ffaff9cd071dd4e7ce5e31a,16:54:29,27/03/2024
html-keyboard-response,154,319370,0.0-64.0,,"<div style=""font-size:100px;"">+</div>",,delaylearn,learning,ITI,T0KQdBdDCIXxCUdRW0QyCVgalRn1,T0KQdBdDCIXxCUdRW0QyCVgalRn1,,,,,,,,,,,,,,,,,,,1868.0,,,5ffaff9cd071dd4e7ce5e31a,16:54:29,27/03/2024
html-keyboard-response,155,320001,0.0-65.0-0.0,626.2000000476837,"<div style=""display: flex; flex-direction: column; align-items: center; margin-top: -40px;""><img src=""images/pattern_1.png"" style=""width: 234px; height: 230px; margin-top: -50px;""><div style=""display: flex; justify-content: space-between; margin-top: 33px;""><img src=""images/choice_trial_14.png"" style=""width: 408px; height: 417px; margin-right: 200px;""><img src=""images/choice_trial_8.png"" style=""width: 408px; height: 417px;""></div></div>",f,delaylearn,learning,trial,T0KQdBdDCIXxCUdRW0QyCVgalRn1,T0KQdBdDCIXxCUdRW0QyCVgalRn1,3.0,images/choice_trial_14.png,images/choice_trial_8.png,images/pattern_1.png,f,f,7000.0,14.0,8.0,1.0,0.0,28.0,1.0,1.0,14.0,160.0,,,,,,5ffaff9cd071dd4e7ce5e31a,16:54:29,27/03/2024
html-keyboard-response,156,321013,0.0-65.0-1.0,,"<div style=""display: flex; flex-direction: column; align-items: center; margin-top: -40px;""><img src=""images/pattern_1.png"" style=""width: 234px; height: 230px; margin-top: -50px;""><div style=""display: flex; justify-content: space-between; margin-top: 33px;""><img src=""images/choice_trial_14.png"" style=""width: 408px; height: 417px; margin-right: 608px;""></div></div>",,delaylearn,learning,display_response,T0KQdBdDCIXxCUdRW0QyCVgalRn1,T0KQdBdDCIXxCUdRW0QyCVgalRn1,,,,,,,,,,,,,,,,,chosen stimuli: images/choice_trial_14.png,,,,,5ffaff9cd071dd4e7ce5e31a,16:54:29,27/03/2024
html-keyboard-response,157,328018,0.0-65.0-2.0,,,,delaylearn,learning,feedback_duration_window,T0KQdBdDCIXxCUdRW0QyCVgalRn1,T0KQdBdDCIXxCUdRW0QyCVgalRn1,,,,,,,,,,,,,,,,,,7000.0,,,,5ffaff9cd071dd4e7ce5e31a,16:54:29,27/03/2024
html-keyboard-response,158,329527,0.0-65.0-3.0,,<div style='margin:auto;width: auto; font-size: 150%'><span style='font-weight: bold; font-size: 100px; color: green;'>+10 points!</span><br><br></div>,,delaylearn,learning,feedback_image_window,T0KQdBdDCIXxCUdRW0QyCVgalRn1,T0KQdBdDCIXxCUdRW0QyCVgalRn1,,,,,,,,,,,,,,,,,,,,,,5ffaff9cd071dd4e7ce5e31a,16:54:29,27/03/2024
html-keyboard-response,159,331354,0.0-66.0,,"<div style=""font-size:100px;"">+</div>",,delaylearn,learning,ITI,T0KQdBdDCIXxCUdRW0QyCVgalRn1,T0KQdBdDCIXxCUdRW0QyCVgalRn1,,,,,,,,,,,,,,,,,,,1820.0,,,5ffaff9cd071dd4e7ce5e31a,16:54:29,27/03/2024
html-keyboard-response,160,332440,0.0-67.0-0.0,1081.4000000953674,"<div style=""display: flex; flex-direction: column; align-items: center; margin-top: -40px;""><img src=""images/pattern_5.png"" style=""width: 234px; height: 230px; margin-top: -50px;""><div style=""display: flex; justify-content: space-between; margin-top: 33px;""><img src=""images/choice_trial_11.png"" style=""width: 408px; height: 417px; margin-right: 200px;""><img src=""images/choice_trial_2.png"" style=""width: 408px; height: 417px;""></div></div>",f,delaylearn,learning,trial,T0KQdBdDCIXxCUdRW0QyCVgalRn1,T0KQdBdDCIXxCUdRW0QyCVgalRn1,3.0,images/choice_trial_11.png,images/choice_trial_2.png,images/pattern_5.png,f,f,750.0,11.0,2.0,4.0,0.0,29.0,1.0,1.0,11.0,170.0,,,,,,5ffaff9cd071dd4e7ce5e31a,16:54:29,27/03/2024
html-keyboard-response,161,333451,0.0-67.0-1.0,,"<div style=""display: flex; flex-direction: column; align-items: center; margin-top: -40px;""><img src=""images/pattern_5.png"" style=""width: 234px; height: 230px; margin-top: -50px;""><div style=""display: flex; justify-content: space-between; margin-top: 33px;""><img src=""images/choice_trial_11.png"" style=""width: 408px; height: 417px; margin-right: 608px;""></div></div>",,delaylearn,learning,display_response,T0KQdBdDCIXxCUdRW0QyCVgalRn1,T0KQdBdDCIXxCUdRW0QyCVgalRn1,,,,,,,,,,,,,,,,,chosen stimuli: images/choice_trial_11.png,,,,,5ffaff9cd071dd4e7ce5e31a,16:54:29,27/03/2024
html-keyboard-response,162,334218,0.0-67.0-2.0,,,,delaylearn,learning,feedback_duration_window,T0KQdBdDCIXxCUdRW0QyCVgalRn1,T0KQdBdDCIXxCUdRW0QyCVgalRn1,,,,,,,,,,,,,,,,,,750.0,,,,5ffaff9cd071dd4e7ce5e31a,16:54:29,27/03/2024
html-keyboard-response,163,335721,0.0-67.0-3.0,,<div style='margin:auto;width: auto; font-size: 150%'><span style='font-weight: bold; font-size: 100px; color: green;'>+10 points!</span><br><br></div>,,delaylearn,learning,feedback_image_window,T0KQdBdDCIXxCUdRW0QyCVgalRn1,T0KQdBdDCIXxCUdRW0QyCVgalRn1,,,,,,,,,,,,,,,,,,,,,,5ffaff9cd071dd4e7ce5e31a,16:54:29,27/03/2024
html-keyboard-response,164,337749,0.0-68.0,,"<div style=""font-size:100px;"">+</div>",,delaylearn,learning,ITI,T0KQdBdDCIXxCUdRW0QyCVgalRn1,T0KQdBdDCIXxCUdRW0QyCVgalRn1,,,,,,,,,,,,,,,,,,,2017.0,,,5ffaff9cd071dd4e7ce5e31a,16:54:29,27/03/2024
html-keyboard-response,165,339224,0.0-69.0-0.0,1470.2999999523163,"<div style=""display: flex; flex-direction: column; align-items: center; margin-top: -40px;""><img src=""images/pattern_6.png"" style=""width: 234px; height: 230px; margin-top: -50px;""><div style=""display: flex; justify-content: space-between; margin-top: 33px;""><img src=""images/choice_trial_3.png"" style=""width: 408px; height: 417px; margin-right: 200px;""><img src=""images/choice_trial_16.png"" style=""width: 408px; height: 417px;""></div></div>",j,delaylearn,learning,trial,T0KQdBdDCIXxCUdRW0QyCVgalRn1,T0KQdBdDCIXxCUdRW0QyCVgalRn1,3.0,images/choice_trial_3.png,images/choice_trial_16.png,images/pattern_6.png,j,j,750.0,3.0,16.0,5.0,1.0,30.0,1.0,1.0,16.0,180.0,,,,,,5ffaff9cd071dd4e7ce5e31a,16:54:29,27/03/2024
html-keyboard-response,166,340234,0.0-69.0-1.0,,"<div style=""display: flex; flex-direction: column; align-items: center; margin-top: -40px;""><img src=""images/pattern_6.png"" style=""width: 234px; height: 230px; margin-top: -50px;""><div style=""display: flex; justify-content: space-between; margin-top: 33px;""><img src=""images/choice_trial_16.png"" style=""width: 408px; height: 417px; margin-left:608px;""></div></div>",,delaylearn,learning,display_response,T0KQdBdDCIXxCUdRW0QyCVgalRn1,T0KQdBdDCIXxCUdRW0QyCVgalRn1,,,,,,,,,,,,,,,,,chosen stimuli: images/choice_trial_16.png,,,,,5ffaff9cd071dd4e7ce5e31a,16:54:29,27/03/2024
html-keyboard-response,167,340988,0.0-69.0-2.0,,,,delaylearn,learning,feedback_duration_window,T0KQdBdDCIXxCUdRW0QyCVgalRn1,T0KQdBdDCIXxCUdRW0QyCVgalRn1,,,,,,,,,,,,,,,,,,750.0,,,,5ffaff9cd071dd4e7ce5e31a,16:54:29,27/03/2024
html-keyboard-response,168,342496,0.0-69.0-3.0,,<div style='margin:auto;width: auto; font-size: 150%'><span style='font-weight: bold; font-size: 100px; color: green;'>+10 points!</span><br><br></div>,,delaylearn,learning,feedback_image_window,T0KQdBdDCIXxCUdRW0QyCVgalRn1,T0KQdBdDCIXxCUdRW0QyCVgalRn1,,,,,,,,,,,,,,,,,,,,,,5ffaff9cd071dd4e7ce5e31a,16:54:29,27/03/2024
html-keyboard-response,169,342998,0.0-70.0-0.0,,,,,,mood_trial_fixation,T0KQdBdDCIXxCUdRW0QyCVgalRn1,,,,,,,,,,,,,,,,,,,,,,,5ffaff9cd071dd4e7ce5e31a,16:54:29,27/03/2024
lmdlab-html-vas-response,170,348556,0.0-70.0-1.0,4549.0,How happy are you right now?,0.5625,delaylearn,learning,mood_trial,T0KQdBdDCIXxCUdRW0QyCVgalRn1,T0KQdBdDCIXxCUdRW0QyCVgalRn1,,,,,,,,,,,,,,,,,,,,"['Very unhappy', 'Very happy']",,5ffaff9cd071dd4e7ce5e31a,16:54:29,27/03/2024
html-keyboard-response,171,350900,0.0-71.0,,"<div style=""font-size:100px;"">+</div>",,delaylearn,learning,ITI,T0KQdBdDCIXxCUdRW0QyCVgalRn1,T0KQdBdDCIXxCUdRW0QyCVgalRn1,,,,,,,,,,,,,,,,,,,2332.0,,,5ffaff9cd071dd4e7ce5e31a,16:54:29,27/03/2024
html-keyboard-response,172,352080,0.0-72.0-0.0,1175.7000000476837,"<div style=""display: flex; flex-direction: column; align-items: center; margin-top: -40px;""><img src=""images/pattern_4.png"" style=""width: 234px; height: 230px; margin-top: -50px;""><div style=""display: flex; justify-content: space-between; margin-top: 33px;""><img src=""images/choice_trial_9.png"" style=""width: 408px; height: 417px; margin-right: 200px;""><img src=""images/choice_trial_15.png"" style=""width: 408px; height: 417px;""></div></div>",j,delaylearn,learning,trial,T0KQdBdDCIXxCUdRW0QyCVgalRn1,T0KQdBdDCIXxCUdRW0QyCVgalRn1,3.0,images/choice_trial_9.png,images/choice_trial_15.png,images/pattern_4.png,j,j,7000.0,9.0,15.0,3.0,1.0,31.0,1.0,1.0,15.0,190.0,,,,,,5ffaff9cd071dd4e7ce5e31a,16:54:29,27/03/2024
html-keyboard-response,173,353094,0.0-72.0-1.0,,"<div style=""display: flex; flex-direction: column; align-items: center; margin-top: -40px;""><img src=""images/pattern_4.png"" style=""width: 234px; height: 230px; margin-top: -50px;""><div style=""display: flex; justify-content: space-between; margin-top: 33px;""><img src=""images/choice_trial_15.png"" style=""width: 408px; height: 417px; margin-left:608px;""></div></div>",,delaylearn,learning,display_response,T0KQdBdDCIXxCUdRW0QyCVgalRn1,T0KQdBdDCIXxCUdRW0QyCVgalRn1,,,,,,,,,,,,,,,,,chosen stimuli: images/choice_trial_15.png,,,,,5ffaff9cd071dd4e7ce5e31a,16:54:29,27/03/2024
html-keyboard-response,174,360102,0.0-72.0-2.0,,,,delaylearn,learning,feedback_duration_window,T0KQdBdDCIXxCUdRW0QyCVgalRn1,T0KQdBdDCIXxCUdRW0QyCVgalRn1,,,,,,,,,,,,,,,,,,7000.0,,,,5ffaff9cd071dd4e7ce5e31a,16:54:29,27/03/2024
html-keyboard-response,175,361611,0.0-72.0-3.0,,<div style='margin:auto;width: auto; font-size: 150%'><span style='font-weight: bold; font-size: 100px; color: green;'>+10 points!</span><br><br></div>,,delaylearn,learning,feedback_image_window,T0KQdBdDCIXxCUdRW0QyCVgalRn1,T0KQdBdDCIXxCUdRW0QyCVgalRn1,,,,,,,,,,,,,,,,,,,,,,5ffaff9cd071dd4e7ce5e31a,16:54:29,27/03/2024
html-keyboard-response,176,363838,0.0-73.0,,"<div style=""font-size:100px;"">+</div>",,delaylearn,learning,ITI,T0KQdBdDCIXxCUdRW0QyCVgalRn1,T0KQdBdDCIXxCUdRW0QyCVgalRn1,,,,,,,,,,,,,,,,,,,2215.0,,,5ffaff9cd071dd4e7ce5e31a,16:54:29,27/03/2024
html-keyboard-response,177,365198,0.0-74.0-0.0,1355.7000000476837,"<div style=""display: flex; flex-direction: column; align-items: center; margin-top: -40px;""><img src=""images/pattern_3.png"" style=""width: 234px; height: 230px; margin-top: -50px;""><div style=""display: flex; justify-content: space-between; margin-top: 33px;""><img src=""images/choice_trial_10.png"" style=""width: 408px; height: 417px; margin-right: 200px;""><img src=""images/choice_trial_13.png"" style=""width: 408px; height: 417px;""></div></div>",j,delaylearn,learning,trial,T0KQdBdDCIXxCUdRW0QyCVgalRn1,T0KQdBdDCIXxCUdRW0QyCVgalRn1,3.0,images/choice_trial_10.png,images/choice_trial_13.png,images/pattern_3.png,j,j,7000.0,10.0,13.0,2.0,1.0,32.0,1.0,1.0,13.0,200.0,,,,,,5ffaff9cd071dd4e7ce5e31a,16:54:29,27/03/2024
html-keyboard-response,178,366217,0.0-74.0-1.0,,"<div style=""display: flex; flex-direction: column; align-items: center; margin-top: -40px;""><img src=""images/pattern_3.png"" style=""width: 234px; height: 230px; margin-top: -50px;""><div style=""display: flex; justify-content: space-between; margin-top: 33px;""><img src=""images/choice_trial_13.png"" style=""width: 408px; height: 417px; margin-left:608px;""></div></div>",,delaylearn,learning,display_response,T0KQdBdDCIXxCUdRW0QyCVgalRn1,T0KQdBdDCIXxCUdRW0QyCVgalRn1,,,,,,,,,,,,,,,,,chosen stimuli: images/choice_trial_13.png,,,,,5ffaff9cd071dd4e7ce5e31a,16:54:29,27/03/2024
html-keyboard-response,179,373233,0.0-74.0-2.0,,,,delaylearn,learning,feedback_duration_window,T0KQdBdDCIXxCUdRW0QyCVgalRn1,T0KQdBdDCIXxCUdRW0QyCVgalRn1,,,,,,,,,,,,,,,,,,7000.0,,,,5ffaff9cd071dd4e7ce5e31a,16:54:29,27/03/2024
html-keyboard-response,180,374741,0.0-74.0-3.0,,<div style='margin:auto;width: auto; font-size: 150%'><span style='font-weight: bold; font-size: 100px; color: green;'>+10 points!</span><br><br></div>,,delaylearn,learning,feedback_image_window,T0KQdBdDCIXxCUdRW0QyCVgalRn1,T0KQdBdDCIXxCUdRW0QyCVgalRn1,,,,,,,,,,,,,,,,,,,,,,5ffaff9cd071dd4e7ce5e31a,16:54:29,27/03/2024
html-keyboard-response,181,376419,0.0-75.0,,"<div style=""font-size:100px;"">+</div>",,delaylearn,learning,ITI,T0KQdBdDCIXxCUdRW0QyCVgalRn1,T0KQdBdDCIXxCUdRW0QyCVgalRn1,,,,,,,,,,,,,,,,,,,1669.0,,,5ffaff9cd071dd4e7ce5e31a,16:54:29,27/03/2024
html-keyboard-response,182,377741,0.0-76.0-0.0,1318.0,"<div style=""display: flex; flex-direction: column; align-items: center; margin-top: -40px;""><img src=""images/pattern_5.png"" style=""width: 234px; height: 230px; margin-top: -50px;""><div style=""display: flex; justify-content: space-between; margin-top: 33px;""><img src=""images/choice_trial_11.png"" style=""width: 408px; height: 417px; margin-right: 200px;""><img src=""images/choice_trial_2.png"" style=""width: 408px; height: 417px;""></div></div>",f,delaylearn,learning,trial,T0KQdBdDCIXxCUdRW0QyCVgalRn1,T0KQdBdDCIXxCUdRW0QyCVgalRn1,3.0,images/choice_trial_11.png,images/choice_trial_2.png,images/pattern_5.png,j,f,750.0,11.0,2.0,4.0,0.0,33.0,1.0,0.0,11.0,200.0,,,,,,5ffaff9cd071dd4e7ce5e31a,16:54:29,27/03/2024
html-keyboard-response,183,378757,0.0-76.0-1.0,,"<div style=""display: flex; flex-direction: column; align-items: center; margin-top: -40px;""><img src=""images/pattern_5.png"" style=""width: 234px; height: 230px; margin-top: -50px;""><div style=""display: flex; justify-content: space-between; margin-top: 33px;""><img src=""images/choice_trial_11.png"" style=""width: 408px; height: 417px; margin-right: 608px;""></div></div>",,delaylearn,learning,display_response,T0KQdBdDCIXxCUdRW0QyCVgalRn1,T0KQdBdDCIXxCUdRW0QyCVgalRn1,,,,,,,,,,,,,,,,,chosen stimuli: images/choice_trial_11.png,,,,,5ffaff9cd071dd4e7ce5e31a,16:54:29,27/03/2024
html-keyboard-response,184,379520,0.0-76.0-2.0,,,,delaylearn,learning,feedback_duration_window,T0KQdBdDCIXxCUdRW0QyCVgalRn1,T0KQdBdDCIXxCUdRW0QyCVgalRn1,,,,,,,,,,,,,,,,,,750.0,,,,5ffaff9cd071dd4e7ce5e31a,16:54:29,27/03/2024
html-keyboard-response,185,381035,0.0-76.0-3.0,,<div style='margin:auto;width: auto; font-size: 150%'><span style='font-weight: bold; font-size: 100px; color: red;'>0 points!</span><br><br></div>,,delaylearn,learning,feedback_image_window,T0KQdBdDCIXxCUdRW0QyCVgalRn1,T0KQdBdDCIXxCUdRW0QyCVgalRn1,,,,,,,,,,,,,,,,,,,,,,5ffaff9cd071dd4e7ce5e31a,16:54:29,27/03/2024
html-keyboard-response,186,382946,0.0-77.0,,"<div style=""font-size:100px;"">+</div>",,delaylearn,learning,ITI,T0KQdBdDCIXxCUdRW0QyCVgalRn1,T0KQdBdDCIXxCUdRW0QyCVgalRn1,,,,,,,,,,,,,,,,,,,1903.0,,,5ffaff9cd071dd4e7ce5e31a,16:54:29,27/03/2024
html-keyboard-response,187,384023,0.0-78.0-0.0,1075.2000000476837,"<div style=""display: flex; flex-direction: column; align-items: center; margin-top: -40px;""><img src=""images/pattern_1.png"" style=""width: 234px; height: 230px; margin-top: -50px;""><div style=""display: flex; justify-content: space-between; margin-top: 33px;""><img src=""images/choice_trial_14.png"" style=""width: 408px; height: 417px; margin-right: 200px;""><img src=""images/choice_trial_8.png"" style=""width: 408px; height: 417px;""></div></div>",f,delaylearn,learning,trial,T0KQdBdDCIXxCUdRW0QyCVgalRn1,T0KQdBdDCIXxCUdRW0QyCVgalRn1,3.0,images/choice_trial_14.png,images/choice_trial_8.png,images/pattern_1.png,f,f,7000.0,14.0,8.0,1.0,0.0,34.0,1.0,1.0,14.0,210.0,,,,,,5ffaff9cd071dd4e7ce5e31a,16:54:29,27/03/2024
html-keyboard-response,188,385042,0.0-78.0-1.0,,"<div style=""display: flex; flex-direction: column; align-items: center; margin-top: -40px;""><img src=""images/pattern_1.png"" style=""width: 234px; height: 230px; margin-top: -50px;""><div style=""display: flex; justify-content: space-between; margin-top: 33px;""><img src=""images/choice_trial_14.png"" style=""width: 408px; height: 417px; margin-right: 608px;""></div></div>",,delaylearn,learning,display_response,T0KQdBdDCIXxCUdRW0QyCVgalRn1,T0KQdBdDCIXxCUdRW0QyCVgalRn1,,,,,,,,,,,,,,,,,chosen stimuli: images/choice_trial_14.png,,,,,5ffaff9cd071dd4e7ce5e31a,16:54:29,27/03/2024
html-keyboard-response,189,392053,0.0-78.0-2.0,,,,delaylearn,learning,feedback_duration_window,T0KQdBdDCIXxCUdRW0QyCVgalRn1,T0KQdBdDCIXxCUdRW0QyCVgalRn1,,,,,,,,,,,,,,,,,,7000.0,,,,5ffaff9cd071dd4e7ce5e31a,16:54:29,27/03/2024
html-keyboard-response,190,393561,0.0-78.0-3.0,,<div style='margin:auto;width: auto; font-size: 150%'><span style='font-weight: bold; font-size: 100px; color: green;'>+10 points!</span><br><br></div>,,delaylearn,learning,feedback_image_window,T0KQdBdDCIXxCUdRW0QyCVgalRn1,T0KQdBdDCIXxCUdRW0QyCVgalRn1,,,,,,,,,,,,,,,,,,,,,,5ffaff9cd071dd4e7ce5e31a,16:54:29,27/03/2024
html-keyboard-response,191,394064,0.0-79.0-0.0,,,,,,mood_trial_fixation,T0KQdBdDCIXxCUdRW0QyCVgalRn1,,,,,,,,,,,,,,,,,,,,,,,5ffaff9cd071dd4e7ce5e31a,16:54:29,27/03/2024
lmdlab-html-vas-response,192,398828,0.0-79.0-1.0,3754.0,How happy are you right now?,0.6087962962962963,delaylearn,learning,mood_trial,T0KQdBdDCIXxCUdRW0QyCVgalRn1,T0KQdBdDCIXxCUdRW0QyCVgalRn1,,,,,,,,,,,,,,,,,,,,"['Very unhappy', 'Very happy']",,5ffaff9cd071dd4e7ce5e31a,16:54:29,27/03/2024
html-keyboard-response,193,400651,0.0-80.0,,"<div style=""font-size:100px;"">+</div>",,delaylearn,learning,ITI,T0KQdBdDCIXxCUdRW0QyCVgalRn1,T0KQdBdDCIXxCUdRW0QyCVgalRn1,,,,,,,,,,,,,,,,,,,1821.0,,,5ffaff9cd071dd4e7ce5e31a,16:54:29,27/03/2024
html-keyboard-response,194,401764,0.0-81.0-0.0,1108.5,"<div style=""display: flex; flex-direction: column; align-items: center; margin-top: -40px;""><img src=""images/pattern_6.png"" style=""width: 234px; height: 230px; margin-top: -50px;""><div style=""display: flex; justify-content: space-between; margin-top: 33px;""><img src=""images/choice_trial_16.png"" style=""width: 408px; height: 417px; margin-right: 200px;""><img src=""images/choice_trial_3.png"" style=""width: 408px; height: 417px;""></div></div>",f,delaylearn,learning,trial,T0KQdBdDCIXxCUdRW0QyCVgalRn1,T0KQdBdDCIXxCUdRW0QyCVgalRn1,3.0,images/choice_trial_16.png,images/choice_trial_3.png,images/pattern_6.png,j,f,750.0,16.0,3.0,5.0,0.0,35.0,1.0,0.0,16.0,210.0,,,,,,5ffaff9cd071dd4e7ce5e31a,16:54:29,27/03/2024
html-keyboard-response,195,402783,0.0-81.0-1.0,,"<div style=""display: flex; flex-direction: column; align-items: center; margin-top: -40px;""><img src=""images/pattern_6.png"" style=""width: 234px; height: 230px; margin-top: -50px;""><div style=""display: flex; justify-content: space-between; margin-top: 33px;""><img src=""images/choice_trial_16.png"" style=""width: 408px; height: 417px; margin-right: 608px;""></div></div>",,delaylearn,learning,display_response,T0KQdBdDCIXxCUdRW0QyCVgalRn1,T0KQdBdDCIXxCUdRW0QyCVgalRn1,,,,,,,,,,,,,,,,,chosen stimuli: images/choice_trial_16.png,,,,,5ffaff9cd071dd4e7ce5e31a,16:54:29,27/03/2024
html-keyboard-response,196,403549,0.0-81.0-2.0,,,,delaylearn,learning,feedback_duration_window,T0KQdBdDCIXxCUdRW0QyCVgalRn1,T0KQdBdDCIXxCUdRW0QyCVgalRn1,,,,,,,,,,,,,,,,,,750.0,,,,5ffaff9cd071dd4e7ce5e31a,16:54:29,27/03/2024
html-keyboard-response,197,405063,0.0-81.0-3.0,,<div style='margin:auto;width: auto; font-size: 150%'><span style='font-weight: bold; font-size: 100px; color: red;'>0 points!</span><br><br></div>,,delaylearn,learning,feedback_image_window,T0KQdBdDCIXxCUdRW0QyCVgalRn1,T0KQdBdDCIXxCUdRW0QyCVgalRn1,,,,,,,,,,,,,,,,,,,,,,5ffaff9cd071dd4e7ce5e31a,16:54:29,27/03/2024
html-keyboard-response,198,406857,0.0-82.0,,"<div style=""font-size:100px;"">+</div>",,delaylearn,learning,ITI,T0KQdBdDCIXxCUdRW0QyCVgalRn1,T0KQdBdDCIXxCUdRW0QyCVgalRn1,,,,,,,,,,,,,,,,,,,1776.0,,,5ffaff9cd071dd4e7ce5e31a,16:54:29,27/03/2024
html-keyboard-response,199,407767,0.0-83.0-0.0,906.0,"<div style=""display: flex; flex-direction: column; align-items: center; margin-top: -40px;""><img src=""images/pattern_3.png"" style=""width: 234px; height: 230px; margin-top: -50px;""><div style=""display: flex; justify-content: space-between; margin-top: 33px;""><img src=""images/choice_trial_10.png"" style=""width: 408px; height: 417px; margin-right: 200px;""><img src=""images/choice_trial_13.png"" style=""width: 408px; height: 417px;""></div></div>",j,delaylearn,learning,trial,T0KQdBdDCIXxCUdRW0QyCVgalRn1,T0KQdBdDCIXxCUdRW0QyCVgalRn1,3.0,images/choice_trial_10.png,images/choice_trial_13.png,images/pattern_3.png,j,j,7000.0,10.0,13.0,2.0,1.0,36.0,1.0,1.0,13.0,220.0,,,,,,5ffaff9cd071dd4e7ce5e31a,16:54:29,27/03/2024
html-keyboard-response,200,408781,0.0-83.0-1.0,,"<div style=""display: flex; flex-direction: column; align-items: center; margin-top: -40px;""><img src=""images/pattern_3.png"" style=""width: 234px; height: 230px; margin-top: -50px;""><div style=""display: flex; justify-content: space-between; margin-top: 33px;""><img src=""images/choice_trial_13.png"" style=""width: 408px; height: 417px; margin-left:608px;""></div></div>",,delaylearn,learning,display_response,T0KQdBdDCIXxCUdRW0QyCVgalRn1,T0KQdBdDCIXxCUdRW0QyCVgalRn1,,,,,,,,,,,,,,,,,chosen stimuli: images/choice_trial_13.png,,,,,5ffaff9cd071dd4e7ce5e31a,16:54:29,27/03/2024
html-keyboard-response,201,415789,0.0-83.0-2.0,,,,delaylearn,learning,feedback_duration_window,T0KQdBdDCIXxCUdRW0QyCVgalRn1,T0KQdBdDCIXxCUdRW0QyCVgalRn1,,,,,,,,,,,,,,,,,,7000.0,,,,5ffaff9cd071dd4e7ce5e31a,16:54:29,27/03/2024
html-keyboard-response,202,417296,0.0-83.0-3.0,,<div style='margin:auto;width: auto; font-size: 150%'><span style='font-weight: bold; font-size: 100px; color: green;'>+10 points!</span><br><br></div>,,delaylearn,learning,feedback_image_window,T0KQdBdDCIXxCUdRW0QyCVgalRn1,T0KQdBdDCIXxCUdRW0QyCVgalRn1,,,,,,,,,,,,,,,,,,,,,,5ffaff9cd071dd4e7ce5e31a,16:54:29,27/03/2024
html-keyboard-response,203,419475,0.0-84.0,,"<div style=""font-size:100px;"">+</div>",,delaylearn,learning,ITI,T0KQdBdDCIXxCUdRW0QyCVgalRn1,T0KQdBdDCIXxCUdRW0QyCVgalRn1,,,,,,,,,,,,,,,,,,,2168.0,,,5ffaff9cd071dd4e7ce5e31a,16:54:29,27/03/2024
html-keyboard-response,204,420382,0.0-85.0-0.0,903.2000000476837,"<div style=""display: flex; flex-direction: column; align-items: center; margin-top: -40px;""><img src=""images/pattern_4.png"" style=""width: 234px; height: 230px; margin-top: -50px;""><div style=""display: flex; justify-content: space-between; margin-top: 33px;""><img src=""images/choice_trial_9.png"" style=""width: 408px; height: 417px; margin-right: 200px;""><img src=""images/choice_trial_15.png"" style=""width: 408px; height: 417px;""></div></div>",j,delaylearn,learning,trial,T0KQdBdDCIXxCUdRW0QyCVgalRn1,T0KQdBdDCIXxCUdRW0QyCVgalRn1,3.0,images/choice_trial_9.png,images/choice_trial_15.png,images/pattern_4.png,f,j,7000.0,9.0,15.0,3.0,1.0,37.0,1.0,0.0,15.0,220.0,,,,,,5ffaff9cd071dd4e7ce5e31a,16:54:29,27/03/2024
html-keyboard-response,205,421386,0.0-85.0-1.0,,"<div style=""display: flex; flex-direction: column; align-items: center; margin-top: -40px;""><img src=""images/pattern_4.png"" style=""width: 234px; height: 230px; margin-top: -50px;""><div style=""display: flex; justify-content: space-between; margin-top: 33px;""><img src=""images/choice_trial_15.png"" style=""width: 408px; height: 417px; margin-left:608px;""></div></div>",,delaylearn,learning,display_response,T0KQdBdDCIXxCUdRW0QyCVgalRn1,T0KQdBdDCIXxCUdRW0QyCVgalRn1,,,,,,,,,,,,,,,,,chosen stimuli: images/choice_trial_15.png,,,,,5ffaff9cd071dd4e7ce5e31a,16:54:29,27/03/2024
html-keyboard-response,206,428401,0.0-85.0-2.0,,,,delaylearn,learning,feedback_duration_window,T0KQdBdDCIXxCUdRW0QyCVgalRn1,T0KQdBdDCIXxCUdRW0QyCVgalRn1,,,,,,,,,,,,,,,,,,7000.0,,,,5ffaff9cd071dd4e7ce5e31a,16:54:29,27/03/2024
html-keyboard-response,207,429909,0.0-85.0-3.0,,<div style='margin:auto;width: auto; font-size: 150%'><span style='font-weight: bold; font-size: 100px; color: red;'>0 points!</span><br><br></div>,,delaylearn,learning,feedback_image_window,T0KQdBdDCIXxCUdRW0QyCVgalRn1,T0KQdBdDCIXxCUdRW0QyCVgalRn1,,,,,,,,,,,,,,,,,,,,,,5ffaff9cd071dd4e7ce5e31a,16:54:29,27/03/2024
html-keyboard-response,208,431991,0.0-86.0,,"<div style=""font-size:100px;"">+</div>",,delaylearn,learning,ITI,T0KQdBdDCIXxCUdRW0QyCVgalRn1,T0KQdBdDCIXxCUdRW0QyCVgalRn1,,,,,,,,,,,,,,,,,,,2068.0,,,5ffaff9cd071dd4e7ce5e31a,16:54:29,27/03/2024
html-keyboard-response,209,433005,0.0-87.0-0.0,1010.7999999523163,"<div style=""display: flex; flex-direction: column; align-items: center; margin-top: -40px;""><img src=""images/pattern_7.png"" style=""width: 234px; height: 230px; margin-top: -50px;""><div style=""display: flex; justify-content: space-between; margin-top: 33px;""><img src=""images/choice_trial_6.png"" style=""width: 408px; height: 417px; margin-right: 200px;""><img src=""images/choice_trial_12.png"" style=""width: 408px; height: 417px;""></div></div>",f,delaylearn,learning,trial,T0KQdBdDCIXxCUdRW0QyCVgalRn1,T0KQdBdDCIXxCUdRW0QyCVgalRn1,3.0,images/choice_trial_6.png,images/choice_trial_12.png,images/pattern_7.png,f,f,750.0,6.0,12.0,6.0,0.0,38.0,1.0,1.0,6.0,230.0,,,,,,5ffaff9cd071dd4e7ce5e31a,16:54:29,27/03/2024
html-keyboard-response,210,434030,0.0-87.0-1.0,,"<div style=""display: flex; flex-direction: column; align-items: center; margin-top: -40px;""><img src=""images/pattern_7.png"" style=""width: 234px; height: 230px; margin-top: -50px;""><div style=""display: flex; justify-content: space-between; margin-top: 33px;""><img src=""images/choice_trial_6.png"" style=""width: 408px; height: 417px; margin-right: 608px;""></div></div>",,delaylearn,learning,display_response,T0KQdBdDCIXxCUdRW0QyCVgalRn1,T0KQdBdDCIXxCUdRW0QyCVgalRn1,,,,,,,,,,,,,,,,,chosen stimuli: images/choice_trial_6.png,,,,,5ffaff9cd071dd4e7ce5e31a,16:54:29,27/03/2024
html-keyboard-response,211,434789,0.0-87.0-2.0,,,,delaylearn,learning,feedback_duration_window,T0KQdBdDCIXxCUdRW0QyCVgalRn1,T0KQdBdDCIXxCUdRW0QyCVgalRn1,,,,,,,,,,,,,,,,,,750.0,,,,5ffaff9cd071dd4e7ce5e31a,16:54:29,27/03/2024
html-keyboard-response,212,436298,0.0-87.0-3.0,,<div style='margin:auto;width: auto; font-size: 150%'><span style='font-weight: bold; font-size: 100px; color: green;'>+10 points!</span><br><br></div>,,delaylearn,learning,feedback_image_window,T0KQdBdDCIXxCUdRW0QyCVgalRn1,T0KQdBdDCIXxCUdRW0QyCVgalRn1,,,,,,,,,,,,,,,,,,,,,,5ffaff9cd071dd4e7ce5e31a,16:54:29,27/03/2024
html-keyboard-response,213,438477,0.0-88.0,,"<div style=""font-size:100px;"">+</div>",,delaylearn,learning,ITI,T0KQdBdDCIXxCUdRW0QyCVgalRn1,T0KQdBdDCIXxCUdRW0QyCVgalRn1,,,,,,,,,,,,,,,,,,,2163.0,,,5ffaff9cd071dd4e7ce5e31a,16:54:29,27/03/2024
html-keyboard-response,214,439604,0.0-89.0-0.0,1122.5,"<div style=""display: flex; flex-direction: column; align-items: center; margin-top: -40px;""><img src=""images/pattern_1.png"" style=""width: 234px; height: 230px; margin-top: -50px;""><div style=""display: flex; justify-content: space-between; margin-top: 33px;""><img src=""images/choice_trial_14.png"" style=""width: 408px; height: 417px; margin-right: 200px;""><img src=""images/choice_trial_8.png"" style=""width: 408px; height: 417px;""></div></div>",f,delaylearn,learning,trial,T0KQdBdDCIXxCUdRW0QyCVgalRn1,T0KQdBdDCIXxCUdRW0QyCVgalRn1,3.0,images/choice_trial_14.png,images/choice_trial_8.png,images/pattern_1.png,f,f,7000.0,14.0,8.0,1.0,0.0,39.0,1.0,1.0,14.0,240.0,,,,,,5ffaff9cd071dd4e7ce5e31a,16:54:29,27/03/2024
html-keyboard-response,215,440626,0.0-89.0-1.0,,"<div style=""display: flex; flex-direction: column; align-items: center; margin-top: -40px;""><img src=""images/pattern_1.png"" style=""width: 234px; height: 230px; margin-top: -50px;""><div style=""display: flex; justify-content: space-between; margin-top: 33px;""><img src=""images/choice_trial_14.png"" style=""width: 408px; height: 417px; margin-right: 608px;""></div></div>",,delaylearn,learning,display_response,T0KQdBdDCIXxCUdRW0QyCVgalRn1,T0KQdBdDCIXxCUdRW0QyCVgalRn1,,,,,,,,,,,,,,,,,chosen stimuli: images/choice_trial_14.png,,,,,5ffaff9cd071dd4e7ce5e31a,16:54:29,27/03/2024
html-keyboard-response,216,447631,0.0-89.0-2.0,,,,delaylearn,learning,feedback_duration_window,T0KQdBdDCIXxCUdRW0QyCVgalRn1,T0KQdBdDCIXxCUdRW0QyCVgalRn1,,,,,,,,,,,,,,,,,,7000.0,,,,5ffaff9cd071dd4e7ce5e31a,16:54:29,27/03/2024
html-keyboard-response,217,449135,0.0-89.0-3.0,,<div style='margin:auto;width: auto; font-size: 150%'><span style='font-weight: bold; font-size: 100px; color: green;'>+10 points!</span><br><br></div>,,delaylearn,learning,feedback_image_window,T0KQdBdDCIXxCUdRW0QyCVgalRn1,T0KQdBdDCIXxCUdRW0QyCVgalRn1,,,,,,,,,,,,,,,,,,,,,,5ffaff9cd071dd4e7ce5e31a,16:54:29,27/03/2024
html-keyboard-response,218,449637,0.0-90.0-0.0,,,,,,mood_trial_fixation,T0KQdBdDCIXxCUdRW0QyCVgalRn1,,,,,,,,,,,,,,,,,,,,,,,5ffaff9cd071dd4e7ce5e31a,16:54:29,27/03/2024
lmdlab-html-vas-response,219,455291,0.0-90.0-1.0,4643.0,How happy are you right now?,0.6087962962962963,delaylearn,learning,mood_trial,T0KQdBdDCIXxCUdRW0QyCVgalRn1,T0KQdBdDCIXxCUdRW0QyCVgalRn1,,,,,,,,,,,,,,,,,,,,"['Very unhappy', 'Very happy']",,5ffaff9cd071dd4e7ce5e31a,16:54:29,27/03/2024
html-keyboard-response,220,457196,0.0-91.0,,"<div style=""font-size:100px;"">+</div>",,delaylearn,learning,ITI,T0KQdBdDCIXxCUdRW0QyCVgalRn1,T0KQdBdDCIXxCUdRW0QyCVgalRn1,,,,,,,,,,,,,,,,,,,1898.0,,,5ffaff9cd071dd4e7ce5e31a,16:54:29,27/03/2024
html-keyboard-response,221,458233,0.0-92.0-0.0,1033.0,"<div style=""display: flex; flex-direction: column; align-items: center; margin-top: -40px;""><img src=""images/pattern_3.png"" style=""width: 234px; height: 230px; margin-top: -50px;""><div style=""display: flex; justify-content: space-between; margin-top: 33px;""><img src=""images/choice_trial_13.png"" style=""width: 408px; height: 417px; margin-right: 200px;""><img src=""images/choice_trial_10.png"" style=""width: 408px; height: 417px;""></div></div>",f,delaylearn,learning,trial,T0KQdBdDCIXxCUdRW0QyCVgalRn1,T0KQdBdDCIXxCUdRW0QyCVgalRn1,3.0,images/choice_trial_13.png,images/choice_trial_10.png,images/pattern_3.png,j,f,7000.0,13.0,10.0,2.0,0.0,40.0,1.0,0.0,13.0,240.0,,,,,,5ffaff9cd071dd4e7ce5e31a,16:54:29,27/03/2024
html-keyboard-response,222,459244,0.0-92.0-1.0,,"<div style=""display: flex; flex-direction: column; align-items: center; margin-top: -40px;""><img src=""images/pattern_3.png"" style=""width: 234px; height: 230px; margin-top: -50px;""><div style=""display: flex; justify-content: space-between; margin-top: 33px;""><img src=""images/choice_trial_13.png"" style=""width: 408px; height: 417px; margin-right: 608px;""></div></div>",,delaylearn,learning,display_response,T0KQdBdDCIXxCUdRW0QyCVgalRn1,T0KQdBdDCIXxCUdRW0QyCVgalRn1,,,,,,,,,,,,,,,,,chosen stimuli: images/choice_trial_13.png,,,,,5ffaff9cd071dd4e7ce5e31a,16:54:29,27/03/2024
html-keyboard-response,223,466259,0.0-92.0-2.0,,,,delaylearn,learning,feedback_duration_window,T0KQdBdDCIXxCUdRW0QyCVgalRn1,T0KQdBdDCIXxCUdRW0QyCVgalRn1,,,,,,,,,,,,,,,,,,7000.0,,,,5ffaff9cd071dd4e7ce5e31a,16:54:29,27/03/2024
html-keyboard-response,224,467767,0.0-92.0-3.0,,<div style='margin:auto;width: auto; font-size: 150%'><span style='font-weight: bold; font-size: 100px; color: red;'>0 points!</span><br><br></div>,,delaylearn,learning,feedback_image_window,T0KQdBdDCIXxCUdRW0QyCVgalRn1,T0KQdBdDCIXxCUdRW0QyCVgalRn1,,,,,,,,,,,,,,,,,,,,,,5ffaff9cd071dd4e7ce5e31a,16:54:29,27/03/2024
html-keyboard-response,225,469778,0.0-93.0,,"<div style=""font-size:100px;"">+</div>",,delaylearn,learning,ITI,T0KQdBdDCIXxCUdRW0QyCVgalRn1,T0KQdBdDCIXxCUdRW0QyCVgalRn1,,,,,,,,,,,,,,,,,,,2000.0,,,5ffaff9cd071dd4e7ce5e31a,16:54:29,27/03/2024
html-keyboard-response,226,470849,0.0-94.0-0.0,1068.3999998569489,"<div style=""display: flex; flex-direction: column; align-items: center; margin-top: -40px;""><img src=""images/pattern_7.png"" style=""width: 234px; height: 230px; margin-top: -50px;""><div style=""display: flex; justify-content: space-between; margin-top: 33px;""><img src=""images/choice_trial_12.png"" style=""width: 408px; height: 417px; margin-right: 200px;""><img src=""images/choice_trial_6.png"" style=""width: 408px; height: 417px;""></div></div>",j,delaylearn,learning,trial,T0KQdBdDCIXxCUdRW0QyCVgalRn1,T0KQdBdDCIXxCUdRW0QyCVgalRn1,3.0,images/choice_trial_12.png,images/choice_trial_6.png,images/pattern_7.png,j,j,750.0,12.0,6.0,6.0,1.0,41.0,1.0,1.0,6.0,250.0,,,,,,5ffaff9cd071dd4e7ce5e31a,16:54:29,27/03/2024
html-keyboard-response,227,471857,0.0-94.0-1.0,,"<div style=""display: flex; flex-direction: column; align-items: center; margin-top: -40px;""><img src=""images/pattern_7.png"" style=""width: 234px; height: 230px; margin-top: -50px;""><div style=""display: flex; justify-content: space-between; margin-top: 33px;""><img src=""images/choice_trial_6.png"" style=""width: 408px; height: 417px; margin-left:608px;""></div></div>",,delaylearn,learning,display_response,T0KQdBdDCIXxCUdRW0QyCVgalRn1,T0KQdBdDCIXxCUdRW0QyCVgalRn1,,,,,,,,,,,,,,,,,chosen stimuli: images/choice_trial_6.png,,,,,5ffaff9cd071dd4e7ce5e31a,16:54:29,27/03/2024
html-keyboard-response,228,472615,0.0-94.0-2.0,,,,delaylearn,learning,feedback_duration_window,T0KQdBdDCIXxCUdRW0QyCVgalRn1,T0KQdBdDCIXxCUdRW0QyCVgalRn1,,,,,,,,,,,,,,,,,,750.0,,,,5ffaff9cd071dd4e7ce5e31a,16:54:29,27/03/2024
html-keyboard-response,229,474122,0.0-94.0-3.0,,<div style='margin:auto;width: auto; font-size: 150%'><span style='font-weight: bold; font-size: 100px; color: green;'>+10 points!</span><br><br></div>,,delaylearn,learning,feedback_image_window,T0KQdBdDCIXxCUdRW0QyCVgalRn1,T0KQdBdDCIXxCUdRW0QyCVgalRn1,,,,,,,,,,,,,,,,,,,,,,5ffaff9cd071dd4e7ce5e31a,16:54:29,27/03/2024
html-keyboard-response,230,476248,0.0-95.0,,"<div style=""font-size:100px;"">+</div>",,delaylearn,learning,ITI,T0KQdBdDCIXxCUdRW0QyCVgalRn1,T0KQdBdDCIXxCUdRW0QyCVgalRn1,,,,,,,,,,,,,,,,,,,2119.0,,,5ffaff9cd071dd4e7ce5e31a,16:54:29,27/03/2024
