trial_type,trial_index,time_elapsed,internal_node_id,rt,stimulus,response,exp_name,exp_stage,test_part,subjectID,databaseID,counterbal,choice_stimuli_1,choice_stimuli_2,pattern_stimuli,rewarded_answer,correct_answer,feedback_duration_times,stim_left,stim_right,pair,trial,response_correct,response_rewarded,chosen_stim,counter,displayed_choice,feedback_durations,ITI_duration,labels,rest_warning,prolificID,start_time,date
pavlovia,0,475,0.0-0.0,,,,,,,53xkCfSbMjZm2NGFmclMRIda0R42,,,,,,,,,,,,,,,,,,,,,,5e85f667db8aa41f74436a9f,09:17:41,26/02/2024
html-keyboard-response,1,3479,0.0-1.0,,"<div style=""font-size:100px;"">+</div>",,delaylearn,learning,pre_fixation,53xkCfSbMjZm2NGFmclMRIda0R42,,,,,,,,,,,,,,,,,,,,,,5e85f667db8aa41f74436a9f,09:17:41,26/02/2024
html-keyboard-response,2,5325,0.0-2.0-0.0,1843.3999999985099,"<div style=""display: flex; flex-direction: column; align-items: center; margin-top: -40px;""><img src=""images/demo_images/pattern_1.png"" style=""width: 234px; height: 230px; margin-top: -50px;""><div style=""display: flex; justify-content: space-between; margin-top: 33px;""><img src=""images/demo_images/choice_trial_2.png"" style=""width: 408px; height: 417px; margin-right: 200px;""><img src=""images/demo_images/choice_trial_1.png"" style=""width: 408px; height: 417px;""></div></div>",f,delaylearn,learning,trial,53xkCfSbMjZm2NGFmclMRIda0R42,53xkCfSbMjZm2NGFmclMRIda0R42,3.0,images/demo_images/choice_trial_2.png,images/demo_images/choice_trial_1.png,images/demo_images/pattern_1.png,j,j,3000.0,2.0,1.0,20.0,1.0,0.0,0.0,2.0,0.0,,,,,,5e85f667db8aa41f74436a9f,09:17:41,26/02/2024
html-keyboard-response,3,6328,0.0-2.0-1.0,,"<div style=""display: flex; flex-direction: column; align-items: center; margin-top: -40px;""><img src=""images/demo_images/pattern_1.png"" style=""width: 234px; height: 230px; margin-top: -50px;""><div style=""display: flex; justify-content: space-between; margin-top: 33px;""><img src=""images/demo_images/choice_trial_2.png"" style=""width: 408px; height: 417px; margin-right: 608px;""></div></div>",,delaylearn,learning,display_response,53xkCfSbMjZm2NGFmclMRIda0R42,53xkCfSbMjZm2NGFmclMRIda0R42,,,,,,,,,,,,,,,,chosen stimuli: images/demo_images/choice_trial_2.png,,,,,5e85f667db8aa41f74436a9f,09:17:41,26/02/2024
html-keyboard-response,4,9330,0.0-2.0-2.0,,,,delaylearn,learning,feedback_duration_window,53xkCfSbMjZm2NGFmclMRIda0R42,53xkCfSbMjZm2NGFmclMRIda0R42,,,,,,,,,,,,,,,,,3000.0,,,,5e85f667db8aa41f74436a9f,09:17:41,26/02/2024
html-keyboard-response,5,10837,0.0-2.0-3.0,,<div style='margin:auto;width: auto; font-size: 150%'><span style='font-weight: bold; font-size: 100px; color: red;'>0 points!</span><br><br></div>,,delaylearn,learning,feedback_image_window,53xkCfSbMjZm2NGFmclMRIda0R42,53xkCfSbMjZm2NGFmclMRIda0R42,,,,,,,,,,,,,,,,,,,,,5e85f667db8aa41f74436a9f,09:17:41,26/02/2024
html-keyboard-response,6,12806,0.0-3.0,,"<div style=""font-size:100px;"">+</div>",,delaylearn,learning,ITI,53xkCfSbMjZm2NGFmclMRIda0R42,53xkCfSbMjZm2NGFmclMRIda0R42,,,,,,,,,,,,,,,,,,1963.0,,,5e85f667db8aa41f74436a9f,09:17:41,26/02/2024
html-keyboard-response,7,15734,0.0-4.0-0.0,2925.0,"<div style=""display: flex; flex-direction: column; align-items: center; margin-top: -40px;""><img src=""images/demo_images/pattern_1.png"" style=""width: 234px; height: 230px; margin-top: -50px;""><div style=""display: flex; justify-content: space-between; margin-top: 33px;""><img src=""images/demo_images/choice_trial_2.png"" style=""width: 408px; height: 417px; margin-right: 200px;""><img src=""images/demo_images/choice_trial_1.png"" style=""width: 408px; height: 417px;""></div></div>",f,delaylearn,learning,trial,53xkCfSbMjZm2NGFmclMRIda0R42,53xkCfSbMjZm2NGFmclMRIda0R42,3.0,images/demo_images/choice_trial_2.png,images/demo_images/choice_trial_1.png,images/demo_images/pattern_1.png,j,j,3000.0,2.0,1.0,20.0,2.0,0.0,0.0,2.0,0.0,,,,,,5e85f667db8aa41f74436a9f,09:17:41,26/02/2024
html-keyboard-response,8,16736,0.0-4.0-1.0,,"<div style=""display: flex; flex-direction: column; align-items: center; margin-top: -40px;""><img src=""images/demo_images/pattern_1.png"" style=""width: 234px; height: 230px; margin-top: -50px;""><div style=""display: flex; justify-content: space-between; margin-top: 33px;""><img src=""images/demo_images/choice_trial_2.png"" style=""width: 408px; height: 417px; margin-right: 608px;""></div></div>",,delaylearn,learning,display_response,53xkCfSbMjZm2NGFmclMRIda0R42,53xkCfSbMjZm2NGFmclMRIda0R42,,,,,,,,,,,,,,,,chosen stimuli: images/demo_images/choice_trial_2.png,,,,,5e85f667db8aa41f74436a9f,09:17:41,26/02/2024
html-keyboard-response,9,19740,0.0-4.0-2.0,,,,delaylearn,learning,feedback_duration_window,53xkCfSbMjZm2NGFmclMRIda0R42,53xkCfSbMjZm2NGFmclMRIda0R42,,,,,,,,,,,,,,,,,3000.0,,,,5e85f667db8aa41f74436a9f,09:17:41,26/02/2024
html-keyboard-response,10,21242,0.0-4.0-3.0,,<div style='margin:auto;width: auto; font-size: 150%'><span style='font-weight: bold; font-size: 100px; color: red;'>0 points!</span><br><br></div>,,delaylearn,learning,feedback_image_window,53xkCfSbMjZm2NGFmclMRIda0R42,53xkCfSbMjZm2NGFmclMRIda0R42,,,,,,,,,,,,,,,,,,,,,5e85f667db8aa41f74436a9f,09:17:41,26/02/2024
html-keyboard-response,11,22854,0.0-5.0,,"<div style=""font-size:100px;"">+</div>",,delaylearn,learning,ITI,53xkCfSbMjZm2NGFmclMRIda0R42,53xkCfSbMjZm2NGFmclMRIda0R42,,,,,,,,,,,,,,,,,,1610.0,,,5e85f667db8aa41f74436a9f,09:17:41,26/02/2024
html-keyboard-response,12,24339,0.0-6.0-0.0,1482.8999999985099,"<div style=""display: flex; flex-direction: column; align-items: center; margin-top: -40px;""><img src=""images/demo_images/pattern_1.png"" style=""width: 234px; height: 230px; margin-top: -50px;""><div style=""display: flex; justify-content: space-between; margin-top: 33px;""><img src=""images/demo_images/choice_trial_1.png"" style=""width: 408px; height: 417px; margin-right: 200px;""><img src=""images/demo_images/choice_trial_2.png"" style=""width: 408px; height: 417px;""></div></div>",f,delaylearn,learning,trial,53xkCfSbMjZm2NGFmclMRIda0R42,53xkCfSbMjZm2NGFmclMRIda0R42,3.0,images/demo_images/choice_trial_1.png,images/demo_images/choice_trial_2.png,images/demo_images/pattern_1.png,j,f,3000.0,1.0,2.0,20.0,3.0,1.0,0.0,1.0,0.0,,,,,,5e85f667db8aa41f74436a9f,09:17:41,26/02/2024
html-keyboard-response,13,25346,0.0-6.0-1.0,,"<div style=""display: flex; flex-direction: column; align-items: center; margin-top: -40px;""><img src=""images/demo_images/pattern_1.png"" style=""width: 234px; height: 230px; margin-top: -50px;""><div style=""display: flex; justify-content: space-between; margin-top: 33px;""><img src=""images/demo_images/choice_trial_1.png"" style=""width: 408px; height: 417px; margin-right: 608px;""></div></div>",,delaylearn,learning,display_response,53xkCfSbMjZm2NGFmclMRIda0R42,53xkCfSbMjZm2NGFmclMRIda0R42,,,,,,,,,,,,,,,,chosen stimuli: images/demo_images/choice_trial_1.png,,,,,5e85f667db8aa41f74436a9f,09:17:41,26/02/2024
html-keyboard-response,14,28352,0.0-6.0-2.0,,,,delaylearn,learning,feedback_duration_window,53xkCfSbMjZm2NGFmclMRIda0R42,53xkCfSbMjZm2NGFmclMRIda0R42,,,,,,,,,,,,,,,,,3000.0,,,,5e85f667db8aa41f74436a9f,09:17:41,26/02/2024
html-keyboard-response,15,29859,0.0-6.0-3.0,,<div style='margin:auto;width: auto; font-size: 150%'><span style='font-weight: bold; font-size: 100px; color: red;'>0 points!</span><br><br></div>,,delaylearn,learning,feedback_image_window,53xkCfSbMjZm2NGFmclMRIda0R42,53xkCfSbMjZm2NGFmclMRIda0R42,,,,,,,,,,,,,,,,,,,,,5e85f667db8aa41f74436a9f,09:17:41,26/02/2024
html-keyboard-response,16,32337,0.0-7.0,,"<div style=""font-size:100px;"">+</div>",,delaylearn,learning,ITI,53xkCfSbMjZm2NGFmclMRIda0R42,53xkCfSbMjZm2NGFmclMRIda0R42,,,,,,,,,,,,,,,,,,2471.0,,,5e85f667db8aa41f74436a9f,09:17:41,26/02/2024
html-keyboard-response,17,33680,0.0-8.0-0.0,1341.3999999985099,"<div style=""display: flex; flex-direction: column; align-items: center; margin-top: -40px;""><img src=""images/demo_images/pattern_1.png"" style=""width: 234px; height: 230px; margin-top: -50px;""><div style=""display: flex; justify-content: space-between; margin-top: 33px;""><img src=""images/demo_images/choice_trial_1.png"" style=""width: 408px; height: 417px; margin-right: 200px;""><img src=""images/demo_images/choice_trial_2.png"" style=""width: 408px; height: 417px;""></div></div>",j,delaylearn,learning,trial,53xkCfSbMjZm2NGFmclMRIda0R42,53xkCfSbMjZm2NGFmclMRIda0R42,3.0,images/demo_images/choice_trial_1.png,images/demo_images/choice_trial_2.png,images/demo_images/pattern_1.png,f,f,3000.0,1.0,2.0,20.0,4.0,0.0,0.0,2.0,0.0,,,,,,5e85f667db8aa41f74436a9f,09:17:41,26/02/2024
html-keyboard-response,18,34688,0.0-8.0-1.0,,"<div style=""display: flex; flex-direction: column; align-items: center; margin-top: -40px;""><img src=""images/demo_images/pattern_1.png"" style=""width: 234px; height: 230px; margin-top: -50px;""><div style=""display: flex; justify-content: space-between; margin-top: 33px;""><img src=""images/demo_images/choice_trial_2.png"" style=""width: 408px; height: 417px; margin-left:608px;""></div></div>",,delaylearn,learning,display_response,53xkCfSbMjZm2NGFmclMRIda0R42,53xkCfSbMjZm2NGFmclMRIda0R42,,,,,,,,,,,,,,,,chosen stimuli: images/demo_images/choice_trial_2.png,,,,,5e85f667db8aa41f74436a9f,09:17:41,26/02/2024
html-keyboard-response,19,37695,0.0-8.0-2.0,,,,delaylearn,learning,feedback_duration_window,53xkCfSbMjZm2NGFmclMRIda0R42,53xkCfSbMjZm2NGFmclMRIda0R42,,,,,,,,,,,,,,,,,3000.0,,,,5e85f667db8aa41f74436a9f,09:17:41,26/02/2024
html-keyboard-response,20,39201,0.0-8.0-3.0,,<div style='margin:auto;width: auto; font-size: 150%'><span style='font-weight: bold; font-size: 100px; color: red;'>0 points!</span><br><br></div>,,delaylearn,learning,feedback_image_window,53xkCfSbMjZm2NGFmclMRIda0R42,53xkCfSbMjZm2NGFmclMRIda0R42,,,,,,,,,,,,,,,,,,,,,5e85f667db8aa41f74436a9f,09:17:41,26/02/2024
html-keyboard-response,21,39708,0.0-9.0-0.0,,,,,,mood_trial_fixation,53xkCfSbMjZm2NGFmclMRIda0R42,,,,,,,,,,,,,,,,,,,,,,5e85f667db8aa41f74436a9f,09:17:41,26/02/2024
lmdlab-html-vas-response,22,44428,0.0-9.0-1.0,3707.0,How happy are you right now?,0.3148148148148148,delaylearn,learning,mood_trial,53xkCfSbMjZm2NGFmclMRIda0R42,53xkCfSbMjZm2NGFmclMRIda0R42,,,,,,,,,,,,,,,,,,,"['Very unhappy', 'Very happy']",,5e85f667db8aa41f74436a9f,09:17:41,26/02/2024
html-keyboard-response,23,46717,0.0-10.0,,"<div style=""font-size:100px;"">+</div>",,delaylearn,learning,ITI,53xkCfSbMjZm2NGFmclMRIda0R42,53xkCfSbMjZm2NGFmclMRIda0R42,,,,,,,,,,,,,,,,,,2282.0,,,5e85f667db8aa41f74436a9f,09:17:41,26/02/2024
html-keyboard-response,24,48249,0.0-11.0-0.0,1529.3999999985099,"<div style=""display: flex; flex-direction: column; align-items: center; margin-top: -40px;""><img src=""images/demo_images/pattern_1.png"" style=""width: 234px; height: 230px; margin-top: -50px;""><div style=""display: flex; justify-content: space-between; margin-top: 33px;""><img src=""images/demo_images/choice_trial_2.png"" style=""width: 408px; height: 417px; margin-right: 200px;""><img src=""images/demo_images/choice_trial_1.png"" style=""width: 408px; height: 417px;""></div></div>",j,delaylearn,learning,trial,53xkCfSbMjZm2NGFmclMRIda0R42,53xkCfSbMjZm2NGFmclMRIda0R42,3.0,images/demo_images/choice_trial_2.png,images/demo_images/choice_trial_1.png,images/demo_images/pattern_1.png,j,j,3000.0,2.0,1.0,20.0,5.0,1.0,1.0,1.0,10.0,,,,,,5e85f667db8aa41f74436a9f,09:17:41,26/02/2024
html-keyboard-response,25,49255,0.0-11.0-1.0,,"<div style=""display: flex; flex-direction: column; align-items: center; margin-top: -40px;""><img src=""images/demo_images/pattern_1.png"" style=""width: 234px; height: 230px; margin-top: -50px;""><div style=""display: flex; justify-content: space-between; margin-top: 33px;""><img src=""images/demo_images/choice_trial_1.png"" style=""width: 408px; height: 417px; margin-left:608px;""></div></div>",,delaylearn,learning,display_response,53xkCfSbMjZm2NGFmclMRIda0R42,53xkCfSbMjZm2NGFmclMRIda0R42,,,,,,,,,,,,,,,,chosen stimuli: images/demo_images/choice_trial_1.png,,,,,5e85f667db8aa41f74436a9f,09:17:41,26/02/2024
html-keyboard-response,26,52262,0.0-11.0-2.0,,,,delaylearn,learning,feedback_duration_window,53xkCfSbMjZm2NGFmclMRIda0R42,53xkCfSbMjZm2NGFmclMRIda0R42,,,,,,,,,,,,,,,,,3000.0,,,,5e85f667db8aa41f74436a9f,09:17:41,26/02/2024
html-keyboard-response,27,53770,0.0-11.0-3.0,,<div style='margin:auto;width: auto; font-size: 150%'><span style='font-weight: bold; font-size: 100px; color: green;'>+10 points!</span><br><br></div>,,delaylearn,learning,feedback_image_window,53xkCfSbMjZm2NGFmclMRIda0R42,53xkCfSbMjZm2NGFmclMRIda0R42,,,,,,,,,,,,,,,,,,,,,5e85f667db8aa41f74436a9f,09:17:41,26/02/2024
html-keyboard-response,28,55740,0.0-12.0,,"<div style=""font-size:100px;"">+</div>",,delaylearn,learning,ITI,53xkCfSbMjZm2NGFmclMRIda0R42,53xkCfSbMjZm2NGFmclMRIda0R42,,,,,,,,,,,,,,,,,,1967.0,,,5e85f667db8aa41f74436a9f,09:17:41,26/02/2024
html-keyboard-response,29,56706,0.0-13.0-0.0,963.7999999970198,"<div style=""display: flex; flex-direction: column; align-items: center; margin-top: -40px;""><img src=""images/demo_images/pattern_1.png"" style=""width: 234px; height: 230px; margin-top: -50px;""><div style=""display: flex; justify-content: space-between; margin-top: 33px;""><img src=""images/demo_images/choice_trial_1.png"" style=""width: 408px; height: 417px; margin-right: 200px;""><img src=""images/demo_images/choice_trial_2.png"" style=""width: 408px; height: 417px;""></div></div>",f,delaylearn,learning,trial,53xkCfSbMjZm2NGFmclMRIda0R42,53xkCfSbMjZm2NGFmclMRIda0R42,3.0,images/demo_images/choice_trial_1.png,images/demo_images/choice_trial_2.png,images/demo_images/pattern_1.png,f,f,3000.0,1.0,2.0,20.0,6.0,1.0,1.0,1.0,20.0,,,,,,5e85f667db8aa41f74436a9f,09:17:41,26/02/2024
html-keyboard-response,30,57711,0.0-13.0-1.0,,"<div style=""display: flex; flex-direction: column; align-items: center; margin-top: -40px;""><img src=""images/demo_images/pattern_1.png"" style=""width: 234px; height: 230px; margin-top: -50px;""><div style=""display: flex; justify-content: space-between; margin-top: 33px;""><img src=""images/demo_images/choice_trial_1.png"" style=""width: 408px; height: 417px; margin-right: 608px;""></div></div>",,delaylearn,learning,display_response,53xkCfSbMjZm2NGFmclMRIda0R42,53xkCfSbMjZm2NGFmclMRIda0R42,,,,,,,,,,,,,,,,chosen stimuli: images/demo_images/choice_trial_1.png,,,,,5e85f667db8aa41f74436a9f,09:17:41,26/02/2024
html-keyboard-response,31,60714,0.0-13.0-2.0,,,,delaylearn,learning,feedback_duration_window,53xkCfSbMjZm2NGFmclMRIda0R42,53xkCfSbMjZm2NGFmclMRIda0R42,,,,,,,,,,,,,,,,,3000.0,,,,5e85f667db8aa41f74436a9f,09:17:41,26/02/2024
html-keyboard-response,32,62219,0.0-13.0-3.0,,<div style='margin:auto;width: auto; font-size: 150%'><span style='font-weight: bold; font-size: 100px; color: green;'>+10 points!</span><br><br></div>,,delaylearn,learning,feedback_image_window,53xkCfSbMjZm2NGFmclMRIda0R42,53xkCfSbMjZm2NGFmclMRIda0R42,,,,,,,,,,,,,,,,,,,,,5e85f667db8aa41f74436a9f,09:17:41,26/02/2024
html-button-response,33,64538,0.0-14.0,2316.7000000029802,"
  <div style=""display: flex; align-items: center; justify-content: center; height: 80vh;"">
  <div>
          <img src=""images/inst_demo_finish.png"" style=""width: 80vw; height:auto;"">
          <br><br>
      </div>
      <br><br>
  </div>",0,,,,53xkCfSbMjZm2NGFmclMRIda0R42,,,,,,,,,,,,,,,,,,,,,,5e85f667db8aa41f74436a9f,09:17:41,26/02/2024
html-keyboard-response,34,68283,0.0-15.0,3744.0,"
  <div style=""display: flex; align-items: center; justify-content: center; height: 80vh;"">
  <div>
          <img src=""images/inst_6.png"" style=""width: 80vw; height:auto;"">
          <br><br>
      </div>
      <br><br>
  </div>",j,,,,53xkCfSbMjZm2NGFmclMRIda0R42,,,,,,,,,,,,,,,,,,,,,,5e85f667db8aa41f74436a9f,09:17:41,26/02/2024
html-keyboard-response,35,71285,0.0-16.0,,"<div style=""font-size:100px;"">+</div>",,delaylearn,learning,pre_fixation,53xkCfSbMjZm2NGFmclMRIda0R42,,,,,,,,,,,,,,,,,,,,,,5e85f667db8aa41f74436a9f,09:17:41,26/02/2024
html-keyboard-response,36,72961,0.0-17.0,,"<div style=""font-size:100px;"">+</div>",,delaylearn,learning,ITI,53xkCfSbMjZm2NGFmclMRIda0R42,53xkCfSbMjZm2NGFmclMRIda0R42,,,,,,,,,,,,,,,,,,1669.0,,,5e85f667db8aa41f74436a9f,09:17:41,26/02/2024
html-keyboard-response,37,75352,0.0-18.0-0.0,2389.2000000029802,"<div style=""display: flex; flex-direction: column; align-items: center; margin-top: -40px;""><img src=""images/pattern_3.png"" style=""width: 234px; height: 230px; margin-top: -50px;""><div style=""display: flex; justify-content: space-between; margin-top: 33px;""><img src=""images/choice_trial_14.png"" style=""width: 408px; height: 417px; margin-right: 200px;""><img src=""images/choice_trial_8.png"" style=""width: 408px; height: 417px;""></div></div>",f,delaylearn,learning,trial,53xkCfSbMjZm2NGFmclMRIda0R42,53xkCfSbMjZm2NGFmclMRIda0R42,3.0,images/choice_trial_14.png,images/choice_trial_8.png,images/pattern_3.png,f,f,7000.0,14.0,8.0,2.0,7.0,1.0,1.0,14.0,30.0,,,,,,5e85f667db8aa41f74436a9f,09:17:41,26/02/2024
html-keyboard-response,38,76359,0.0-18.0-1.0,,"<div style=""display: flex; flex-direction: column; align-items: center; margin-top: -40px;""><img src=""images/pattern_3.png"" style=""width: 234px; height: 230px; margin-top: -50px;""><div style=""display: flex; justify-content: space-between; margin-top: 33px;""><img src=""images/choice_trial_14.png"" style=""width: 408px; height: 417px; margin-right: 608px;""></div></div>",,delaylearn,learning,display_response,53xkCfSbMjZm2NGFmclMRIda0R42,53xkCfSbMjZm2NGFmclMRIda0R42,,,,,,,,,,,,,,,,chosen stimuli: images/choice_trial_14.png,,,,,5e85f667db8aa41f74436a9f,09:17:41,26/02/2024
html-keyboard-response,39,83361,0.0-18.0-2.0,,,,delaylearn,learning,feedback_duration_window,53xkCfSbMjZm2NGFmclMRIda0R42,53xkCfSbMjZm2NGFmclMRIda0R42,,,,,,,,,,,,,,,,,7000.0,,,,5e85f667db8aa41f74436a9f,09:17:41,26/02/2024
html-keyboard-response,40,84868,0.0-18.0-3.0,,<div style='margin:auto;width: auto; font-size: 150%'><span style='font-weight: bold; font-size: 100px; color: green;'>+10 points!</span><br><br></div>,,delaylearn,learning,feedback_image_window,53xkCfSbMjZm2NGFmclMRIda0R42,53xkCfSbMjZm2NGFmclMRIda0R42,,,,,,,,,,,,,,,,,,,,,5e85f667db8aa41f74436a9f,09:17:41,26/02/2024
html-keyboard-response,41,86999,0.0-19.0,,"<div style=""font-size:100px;"">+</div>",,delaylearn,learning,ITI,53xkCfSbMjZm2NGFmclMRIda0R42,53xkCfSbMjZm2NGFmclMRIda0R42,,,,,,,,,,,,,,,,,,2128.0,,,5e85f667db8aa41f74436a9f,09:17:41,26/02/2024
html-keyboard-response,42,88213,0.0-20.0-0.0,1212.2999999970198,"<div style=""display: flex; flex-direction: column; align-items: center; margin-top: -40px;""><img src=""images/pattern_7.png"" style=""width: 234px; height: 230px; margin-top: -50px;""><div style=""display: flex; justify-content: space-between; margin-top: 33px;""><img src=""images/choice_trial_8.png"" style=""width: 408px; height: 417px; margin-right: 200px;""><img src=""images/choice_trial_14.png"" style=""width: 408px; height: 417px;""></div></div>",j,delaylearn,learning,trial,53xkCfSbMjZm2NGFmclMRIda0R42,53xkCfSbMjZm2NGFmclMRIda0R42,3.0,images/choice_trial_8.png,images/choice_trial_14.png,images/pattern_7.png,j,j,750.0,8.0,14.0,6.0,8.0,1.0,1.0,14.0,40.0,,,,,,5e85f667db8aa41f74436a9f,09:17:41,26/02/2024
html-keyboard-response,43,89217,0.0-20.0-1.0,,"<div style=""display: flex; flex-direction: column; align-items: center; margin-top: -40px;""><img src=""images/pattern_7.png"" style=""width: 234px; height: 230px; margin-top: -50px;""><div style=""display: flex; justify-content: space-between; margin-top: 33px;""><img src=""images/choice_trial_14.png"" style=""width: 408px; height: 417px; margin-left:608px;""></div></div>",,delaylearn,learning,display_response,53xkCfSbMjZm2NGFmclMRIda0R42,53xkCfSbMjZm2NGFmclMRIda0R42,,,,,,,,,,,,,,,,chosen stimuli: images/choice_trial_14.png,,,,,5e85f667db8aa41f74436a9f,09:17:41,26/02/2024
html-keyboard-response,44,89974,0.0-20.0-2.0,,,,delaylearn,learning,feedback_duration_window,53xkCfSbMjZm2NGFmclMRIda0R42,53xkCfSbMjZm2NGFmclMRIda0R42,,,,,,,,,,,,,,,,,750.0,,,,5e85f667db8aa41f74436a9f,09:17:41,26/02/2024
html-keyboard-response,45,91480,0.0-20.0-3.0,,<div style='margin:auto;width: auto; font-size: 150%'><span style='font-weight: bold; font-size: 100px; color: green;'>+10 points!</span><br><br></div>,,delaylearn,learning,feedback_image_window,53xkCfSbMjZm2NGFmclMRIda0R42,53xkCfSbMjZm2NGFmclMRIda0R42,,,,,,,,,,,,,,,,,,,,,5e85f667db8aa41f74436a9f,09:17:41,26/02/2024
html-keyboard-response,46,93257,0.0-21.0,,"<div style=""font-size:100px;"">+</div>",,delaylearn,learning,ITI,53xkCfSbMjZm2NGFmclMRIda0R42,53xkCfSbMjZm2NGFmclMRIda0R42,,,,,,,,,,,,,,,,,,1771.0,,,5e85f667db8aa41f74436a9f,09:17:41,26/02/2024
html-keyboard-response,47,94663,0.0-22.0-0.0,1403.6999999955297,"<div style=""display: flex; flex-direction: column; align-items: center; margin-top: -40px;""><img src=""images/pattern_4.png"" style=""width: 234px; height: 230px; margin-top: -50px;""><div style=""display: flex; justify-content: space-between; margin-top: 33px;""><img src=""images/choice_trial_14.png"" style=""width: 408px; height: 417px; margin-right: 200px;""><img src=""images/choice_trial_8.png"" style=""width: 408px; height: 417px;""></div></div>",f,delaylearn,learning,trial,53xkCfSbMjZm2NGFmclMRIda0R42,53xkCfSbMjZm2NGFmclMRIda0R42,3.0,images/choice_trial_14.png,images/choice_trial_8.png,images/pattern_4.png,f,f,7000.0,14.0,8.0,3.0,9.0,1.0,1.0,14.0,50.0,,,,,,5e85f667db8aa41f74436a9f,09:17:41,26/02/2024
html-keyboard-response,48,95666,0.0-22.0-1.0,,"<div style=""display: flex; flex-direction: column; align-items: center; margin-top: -40px;""><img src=""images/pattern_4.png"" style=""width: 234px; height: 230px; margin-top: -50px;""><div style=""display: flex; justify-content: space-between; margin-top: 33px;""><img src=""images/choice_trial_14.png"" style=""width: 408px; height: 417px; margin-right: 608px;""></div></div>",,delaylearn,learning,display_response,53xkCfSbMjZm2NGFmclMRIda0R42,53xkCfSbMjZm2NGFmclMRIda0R42,,,,,,,,,,,,,,,,chosen stimuli: images/choice_trial_14.png,,,,,5e85f667db8aa41f74436a9f,09:17:41,26/02/2024
html-keyboard-response,49,102673,0.0-22.0-2.0,,,,delaylearn,learning,feedback_duration_window,53xkCfSbMjZm2NGFmclMRIda0R42,53xkCfSbMjZm2NGFmclMRIda0R42,,,,,,,,,,,,,,,,,7000.0,,,,5e85f667db8aa41f74436a9f,09:17:41,26/02/2024
html-keyboard-response,50,104180,0.0-22.0-3.0,,<div style='margin:auto;width: auto; font-size: 150%'><span style='font-weight: bold; font-size: 100px; color: green;'>+10 points!</span><br><br></div>,,delaylearn,learning,feedback_image_window,53xkCfSbMjZm2NGFmclMRIda0R42,53xkCfSbMjZm2NGFmclMRIda0R42,,,,,,,,,,,,,,,,,,,,,5e85f667db8aa41f74436a9f,09:17:41,26/02/2024
html-keyboard-response,51,106033,0.0-23.0,,"<div style=""font-size:100px;"">+</div>",,delaylearn,learning,ITI,53xkCfSbMjZm2NGFmclMRIda0R42,53xkCfSbMjZm2NGFmclMRIda0R42,,,,,,,,,,,,,,,,,,1847.0,,,5e85f667db8aa41f74436a9f,09:17:41,26/02/2024
html-keyboard-response,52,106836,0.0-24.0-0.0,801.0,"<div style=""display: flex; flex-direction: column; align-items: center; margin-top: -40px;""><img src=""images/pattern_5.png"" style=""width: 234px; height: 230px; margin-top: -50px;""><div style=""display: flex; justify-content: space-between; margin-top: 33px;""><img src=""images/choice_trial_8.png"" style=""width: 408px; height: 417px; margin-right: 200px;""><img src=""images/choice_trial_14.png"" style=""width: 408px; height: 417px;""></div></div>",j,delaylearn,learning,trial,53xkCfSbMjZm2NGFmclMRIda0R42,53xkCfSbMjZm2NGFmclMRIda0R42,3.0,images/choice_trial_8.png,images/choice_trial_14.png,images/pattern_5.png,j,j,750.0,8.0,14.0,4.0,10.0,1.0,1.0,14.0,60.0,,,,,,5e85f667db8aa41f74436a9f,09:17:41,26/02/2024
html-keyboard-response,53,107843,0.0-24.0-1.0,,"<div style=""display: flex; flex-direction: column; align-items: center; margin-top: -40px;""><img src=""images/pattern_5.png"" style=""width: 234px; height: 230px; margin-top: -50px;""><div style=""display: flex; justify-content: space-between; margin-top: 33px;""><img src=""images/choice_trial_14.png"" style=""width: 408px; height: 417px; margin-left:608px;""></div></div>",,delaylearn,learning,display_response,53xkCfSbMjZm2NGFmclMRIda0R42,53xkCfSbMjZm2NGFmclMRIda0R42,,,,,,,,,,,,,,,,chosen stimuli: images/choice_trial_14.png,,,,,5e85f667db8aa41f74436a9f,09:17:41,26/02/2024
html-keyboard-response,54,108597,0.0-24.0-2.0,,,,delaylearn,learning,feedback_duration_window,53xkCfSbMjZm2NGFmclMRIda0R42,53xkCfSbMjZm2NGFmclMRIda0R42,,,,,,,,,,,,,,,,,750.0,,,,5e85f667db8aa41f74436a9f,09:17:41,26/02/2024
html-keyboard-response,55,110105,0.0-24.0-3.0,,<div style='margin:auto;width: auto; font-size: 150%'><span style='font-weight: bold; font-size: 100px; color: green;'>+10 points!</span><br><br></div>,,delaylearn,learning,feedback_image_window,53xkCfSbMjZm2NGFmclMRIda0R42,53xkCfSbMjZm2NGFmclMRIda0R42,,,,,,,,,,,,,,,,,,,,,5e85f667db8aa41f74436a9f,09:17:41,26/02/2024
html-keyboard-response,56,112581,0.0-25.0,,"<div style=""font-size:100px;"">+</div>",,delaylearn,learning,ITI,53xkCfSbMjZm2NGFmclMRIda0R42,53xkCfSbMjZm2NGFmclMRIda0R42,,,,,,,,,,,,,,,,,,2474.0,,,5e85f667db8aa41f74436a9f,09:17:41,26/02/2024
html-keyboard-response,57,114576,0.0-26.0-0.0,1992.5,"<div style=""display: flex; flex-direction: column; align-items: center; margin-top: -40px;""><img src=""images/pattern_6.png"" style=""width: 234px; height: 230px; margin-top: -50px;""><div style=""display: flex; justify-content: space-between; margin-top: 33px;""><img src=""images/choice_trial_13.png"" style=""width: 408px; height: 417px; margin-right: 200px;""><img src=""images/choice_trial_10.png"" style=""width: 408px; height: 417px;""></div></div>",f,delaylearn,learning,trial,53xkCfSbMjZm2NGFmclMRIda0R42,53xkCfSbMjZm2NGFmclMRIda0R42,3.0,images/choice_trial_13.png,images/choice_trial_10.png,images/pattern_6.png,j,f,750.0,13.0,10.0,5.0,11.0,1.0,0.0,13.0,60.0,,,,,,5e85f667db8aa41f74436a9f,09:17:41,26/02/2024
html-keyboard-response,58,115580,0.0-26.0-1.0,,"<div style=""display: flex; flex-direction: column; align-items: center; margin-top: -40px;""><img src=""images/pattern_6.png"" style=""width: 234px; height: 230px; margin-top: -50px;""><div style=""display: flex; justify-content: space-between; margin-top: 33px;""><img src=""images/choice_trial_13.png"" style=""width: 408px; height: 417px; margin-right: 608px;""></div></div>",,delaylearn,learning,display_response,53xkCfSbMjZm2NGFmclMRIda0R42,53xkCfSbMjZm2NGFmclMRIda0R42,,,,,,,,,,,,,,,,chosen stimuli: images/choice_trial_13.png,,,,,5e85f667db8aa41f74436a9f,09:17:41,26/02/2024
html-keyboard-response,59,116336,0.0-26.0-2.0,,,,delaylearn,learning,feedback_duration_window,53xkCfSbMjZm2NGFmclMRIda0R42,53xkCfSbMjZm2NGFmclMRIda0R42,,,,,,,,,,,,,,,,,750.0,,,,5e85f667db8aa41f74436a9f,09:17:41,26/02/2024
html-keyboard-response,60,117841,0.0-26.0-3.0,,<div style='margin:auto;width: auto; font-size: 150%'><span style='font-weight: bold; font-size: 100px; color: red;'>0 points!</span><br><br></div>,,delaylearn,learning,feedback_image_window,53xkCfSbMjZm2NGFmclMRIda0R42,53xkCfSbMjZm2NGFmclMRIda0R42,,,,,,,,,,,,,,,,,,,,,5e85f667db8aa41f74436a9f,09:17:41,26/02/2024
html-keyboard-response,61,119349,0.0-27.0,,"<div style=""font-size:100px;"">+</div>",,delaylearn,learning,ITI,53xkCfSbMjZm2NGFmclMRIda0R42,53xkCfSbMjZm2NGFmclMRIda0R42,,,,,,,,,,,,,,,,,,1503.0,,,5e85f667db8aa41f74436a9f,09:17:41,26/02/2024
html-keyboard-response,62,120029,0.0-28.0-0.0,677.2999999970198,"<div style=""display: flex; flex-direction: column; align-items: center; margin-top: -40px;""><img src=""images/pattern_1.png"" style=""width: 234px; height: 230px; margin-top: -50px;""><div style=""display: flex; justify-content: space-between; margin-top: 33px;""><img src=""images/choice_trial_8.png"" style=""width: 408px; height: 417px; margin-right: 200px;""><img src=""images/choice_trial_14.png"" style=""width: 408px; height: 417px;""></div></div>",j,delaylearn,learning,trial,53xkCfSbMjZm2NGFmclMRIda0R42,53xkCfSbMjZm2NGFmclMRIda0R42,3.0,images/choice_trial_8.png,images/choice_trial_14.png,images/pattern_1.png,j,j,7000.0,8.0,14.0,1.0,12.0,1.0,1.0,14.0,70.0,,,,,,5e85f667db8aa41f74436a9f,09:17:41,26/02/2024
html-keyboard-response,63,121036,0.0-28.0-1.0,,"<div style=""display: flex; flex-direction: column; align-items: center; margin-top: -40px;""><img src=""images/pattern_1.png"" style=""width: 234px; height: 230px; margin-top: -50px;""><div style=""display: flex; justify-content: space-between; margin-top: 33px;""><img src=""images/choice_trial_14.png"" style=""width: 408px; height: 417px; margin-left:608px;""></div></div>",,delaylearn,learning,display_response,53xkCfSbMjZm2NGFmclMRIda0R42,53xkCfSbMjZm2NGFmclMRIda0R42,,,,,,,,,,,,,,,,chosen stimuli: images/choice_trial_14.png,,,,,5e85f667db8aa41f74436a9f,09:17:41,26/02/2024
html-keyboard-response,64,128042,0.0-28.0-2.0,,,,delaylearn,learning,feedback_duration_window,53xkCfSbMjZm2NGFmclMRIda0R42,53xkCfSbMjZm2NGFmclMRIda0R42,,,,,,,,,,,,,,,,,7000.0,,,,5e85f667db8aa41f74436a9f,09:17:41,26/02/2024
html-keyboard-response,65,129550,0.0-28.0-3.0,,<div style='margin:auto;width: auto; font-size: 150%'><span style='font-weight: bold; font-size: 100px; color: green;'>+10 points!</span><br><br></div>,,delaylearn,learning,feedback_image_window,53xkCfSbMjZm2NGFmclMRIda0R42,53xkCfSbMjZm2NGFmclMRIda0R42,,,,,,,,,,,,,,,,,,,,,5e85f667db8aa41f74436a9f,09:17:41,26/02/2024
html-keyboard-response,66,131889,0.0-29.0,,"<div style=""font-size:100px;"">+</div>",,delaylearn,learning,ITI,53xkCfSbMjZm2NGFmclMRIda0R42,53xkCfSbMjZm2NGFmclMRIda0R42,,,,,,,,,,,,,,,,,,2335.0,,,5e85f667db8aa41f74436a9f,09:17:41,26/02/2024
html-keyboard-response,67,133070,0.0-30.0-0.0,1179.0999999940395,"<div style=""display: flex; flex-direction: column; align-items: center; margin-top: -40px;""><img src=""images/pattern_3.png"" style=""width: 234px; height: 230px; margin-top: -50px;""><div style=""display: flex; justify-content: space-between; margin-top: 33px;""><img src=""images/choice_trial_10.png"" style=""width: 408px; height: 417px; margin-right: 200px;""><img src=""images/choice_trial_13.png"" style=""width: 408px; height: 417px;""></div></div>",f,delaylearn,learning,trial,53xkCfSbMjZm2NGFmclMRIda0R42,53xkCfSbMjZm2NGFmclMRIda0R42,3.0,images/choice_trial_10.png,images/choice_trial_13.png,images/pattern_3.png,f,j,7000.0,10.0,13.0,2.0,13.0,0.0,1.0,10.0,80.0,,,,,,5e85f667db8aa41f74436a9f,09:17:41,26/02/2024
html-keyboard-response,68,134077,0.0-30.0-1.0,,"<div style=""display: flex; flex-direction: column; align-items: center; margin-top: -40px;""><img src=""images/pattern_3.png"" style=""width: 234px; height: 230px; margin-top: -50px;""><div style=""display: flex; justify-content: space-between; margin-top: 33px;""><img src=""images/choice_trial_10.png"" style=""width: 408px; height: 417px; margin-right: 608px;""></div></div>",,delaylearn,learning,display_response,53xkCfSbMjZm2NGFmclMRIda0R42,53xkCfSbMjZm2NGFmclMRIda0R42,,,,,,,,,,,,,,,,chosen stimuli: images/choice_trial_10.png,,,,,5e85f667db8aa41f74436a9f,09:17:41,26/02/2024
html-keyboard-response,69,141084,0.0-30.0-2.0,,,,delaylearn,learning,feedback_duration_window,53xkCfSbMjZm2NGFmclMRIda0R42,53xkCfSbMjZm2NGFmclMRIda0R42,,,,,,,,,,,,,,,,,7000.0,,,,5e85f667db8aa41f74436a9f,09:17:41,26/02/2024
html-keyboard-response,70,142591,0.0-30.0-3.0,,<div style='margin:auto;width: auto; font-size: 150%'><span style='font-weight: bold; font-size: 100px; color: green;'>+10 points!</span><br><br></div>,,delaylearn,learning,feedback_image_window,53xkCfSbMjZm2NGFmclMRIda0R42,53xkCfSbMjZm2NGFmclMRIda0R42,,,,,,,,,,,,,,,,,,,,,5e85f667db8aa41f74436a9f,09:17:41,26/02/2024
html-keyboard-response,71,144308,0.0-31.0,,"<div style=""font-size:100px;"">+</div>",,delaylearn,learning,ITI,53xkCfSbMjZm2NGFmclMRIda0R42,53xkCfSbMjZm2NGFmclMRIda0R42,,,,,,,,,,,,,,,,,,1711.0,,,5e85f667db8aa41f74436a9f,09:17:41,26/02/2024
html-keyboard-response,72,145793,0.0-32.0-0.0,1482.1999999955297,"<div style=""display: flex; flex-direction: column; align-items: center; margin-top: -40px;""><img src=""images/pattern_5.png"" style=""width: 234px; height: 230px; margin-top: -50px;""><div style=""display: flex; justify-content: space-between; margin-top: 33px;""><img src=""images/choice_trial_13.png"" style=""width: 408px; height: 417px; margin-right: 200px;""><img src=""images/choice_trial_10.png"" style=""width: 408px; height: 417px;""></div></div>",j,delaylearn,learning,trial,53xkCfSbMjZm2NGFmclMRIda0R42,53xkCfSbMjZm2NGFmclMRIda0R42,3.0,images/choice_trial_13.png,images/choice_trial_10.png,images/pattern_5.png,f,f,750.0,13.0,10.0,4.0,14.0,0.0,0.0,10.0,80.0,,,,,,5e85f667db8aa41f74436a9f,09:17:41,26/02/2024
html-keyboard-response,73,146800,0.0-32.0-1.0,,"<div style=""display: flex; flex-direction: column; align-items: center; margin-top: -40px;""><img src=""images/pattern_5.png"" style=""width: 234px; height: 230px; margin-top: -50px;""><div style=""display: flex; justify-content: space-between; margin-top: 33px;""><img src=""images/choice_trial_10.png"" style=""width: 408px; height: 417px; margin-left:608px;""></div></div>",,delaylearn,learning,display_response,53xkCfSbMjZm2NGFmclMRIda0R42,53xkCfSbMjZm2NGFmclMRIda0R42,,,,,,,,,,,,,,,,chosen stimuli: images/choice_trial_10.png,,,,,5e85f667db8aa41f74436a9f,09:17:41,26/02/2024
html-keyboard-response,74,147556,0.0-32.0-2.0,,,,delaylearn,learning,feedback_duration_window,53xkCfSbMjZm2NGFmclMRIda0R42,53xkCfSbMjZm2NGFmclMRIda0R42,,,,,,,,,,,,,,,,,750.0,,,,5e85f667db8aa41f74436a9f,09:17:41,26/02/2024
html-keyboard-response,75,149063,0.0-32.0-3.0,,<div style='margin:auto;width: auto; font-size: 150%'><span style='font-weight: bold; font-size: 100px; color: red;'>0 points!</span><br><br></div>,,delaylearn,learning,feedback_image_window,53xkCfSbMjZm2NGFmclMRIda0R42,53xkCfSbMjZm2NGFmclMRIda0R42,,,,,,,,,,,,,,,,,,,,,5e85f667db8aa41f74436a9f,09:17:41,26/02/2024
html-keyboard-response,76,149565,0.0-33.0-0.0,,,,,,mood_trial_fixation,53xkCfSbMjZm2NGFmclMRIda0R42,,,,,,,,,,,,,,,,,,,,,,5e85f667db8aa41f74436a9f,09:17:41,26/02/2024
lmdlab-html-vas-response,77,153111,0.0-33.0-1.0,2537.0,How happy are you right now?,0.6851851851851852,delaylearn,learning,mood_trial,53xkCfSbMjZm2NGFmclMRIda0R42,53xkCfSbMjZm2NGFmclMRIda0R42,,,,,,,,,,,,,,,,,,,"['Very unhappy', 'Very happy']",,5e85f667db8aa41f74436a9f,09:17:41,26/02/2024
html-keyboard-response,78,154805,0.0-34.0,,"<div style=""font-size:100px;"">+</div>",,delaylearn,learning,ITI,53xkCfSbMjZm2NGFmclMRIda0R42,53xkCfSbMjZm2NGFmclMRIda0R42,,,,,,,,,,,,,,,,,,1691.0,,,5e85f667db8aa41f74436a9f,09:17:41,26/02/2024
html-keyboard-response,79,156567,0.0-35.0-0.0,1759.2999999970198,"<div style=""display: flex; flex-direction: column; align-items: center; margin-top: -40px;""><img src=""images/pattern_6.png"" style=""width: 234px; height: 230px; margin-top: -50px;""><div style=""display: flex; justify-content: space-between; margin-top: 33px;""><img src=""images/choice_trial_14.png"" style=""width: 408px; height: 417px; margin-right: 200px;""><img src=""images/choice_trial_8.png"" style=""width: 408px; height: 417px;""></div></div>",f,delaylearn,learning,trial,53xkCfSbMjZm2NGFmclMRIda0R42,53xkCfSbMjZm2NGFmclMRIda0R42,3.0,images/choice_trial_14.png,images/choice_trial_8.png,images/pattern_6.png,j,f,750.0,14.0,8.0,5.0,15.0,1.0,0.0,14.0,80.0,,,,,,5e85f667db8aa41f74436a9f,09:17:41,26/02/2024
html-keyboard-response,80,157569,0.0-35.0-1.0,,"<div style=""display: flex; flex-direction: column; align-items: center; margin-top: -40px;""><img src=""images/pattern_6.png"" style=""width: 234px; height: 230px; margin-top: -50px;""><div style=""display: flex; justify-content: space-between; margin-top: 33px;""><img src=""images/choice_trial_14.png"" style=""width: 408px; height: 417px; margin-right: 608px;""></div></div>",,delaylearn,learning,display_response,53xkCfSbMjZm2NGFmclMRIda0R42,53xkCfSbMjZm2NGFmclMRIda0R42,,,,,,,,,,,,,,,,chosen stimuli: images/choice_trial_14.png,,,,,5e85f667db8aa41f74436a9f,09:17:41,26/02/2024
html-keyboard-response,81,158326,0.0-35.0-2.0,,,,delaylearn,learning,feedback_duration_window,53xkCfSbMjZm2NGFmclMRIda0R42,53xkCfSbMjZm2NGFmclMRIda0R42,,,,,,,,,,,,,,,,,750.0,,,,5e85f667db8aa41f74436a9f,09:17:41,26/02/2024
html-keyboard-response,82,159830,0.0-35.0-3.0,,<div style='margin:auto;width: auto; font-size: 150%'><span style='font-weight: bold; font-size: 100px; color: red;'>0 points!</span><br><br></div>,,delaylearn,learning,feedback_image_window,53xkCfSbMjZm2NGFmclMRIda0R42,53xkCfSbMjZm2NGFmclMRIda0R42,,,,,,,,,,,,,,,,,,,,,5e85f667db8aa41f74436a9f,09:17:41,26/02/2024
html-keyboard-response,83,160337,0.0-36.0-0.0,,,,,,mood_trial_fixation,53xkCfSbMjZm2NGFmclMRIda0R42,,,,,,,,,,,,,,,,,,,,,,5e85f667db8aa41f74436a9f,09:17:41,26/02/2024
lmdlab-html-vas-response,84,166933,0.0-36.0-1.0,5591.0,How happy are you right now?,0.45740740740740743,delaylearn,learning,mood_trial,53xkCfSbMjZm2NGFmclMRIda0R42,53xkCfSbMjZm2NGFmclMRIda0R42,,,,,,,,,,,,,,,,,,,"['Very unhappy', 'Very happy']",,5e85f667db8aa41f74436a9f,09:17:41,26/02/2024
html-keyboard-response,85,168518,0.0-37.0,,"<div style=""font-size:100px;"">+</div>",,delaylearn,learning,ITI,53xkCfSbMjZm2NGFmclMRIda0R42,53xkCfSbMjZm2NGFmclMRIda0R42,,,,,,,,,,,,,,,,,,1583.0,,,5e85f667db8aa41f74436a9f,09:17:41,26/02/2024
html-keyboard-response,86,169918,0.0-38.0-0.0,1398.7000000029802,"<div style=""display: flex; flex-direction: column; align-items: center; margin-top: -40px;""><img src=""images/pattern_4.png"" style=""width: 234px; height: 230px; margin-top: -50px;""><div style=""display: flex; justify-content: space-between; margin-top: 33px;""><img src=""images/choice_trial_10.png"" style=""width: 408px; height: 417px; margin-right: 200px;""><img src=""images/choice_trial_13.png"" style=""width: 408px; height: 417px;""></div></div>",f,delaylearn,learning,trial,53xkCfSbMjZm2NGFmclMRIda0R42,53xkCfSbMjZm2NGFmclMRIda0R42,3.0,images/choice_trial_10.png,images/choice_trial_13.png,images/pattern_4.png,j,j,7000.0,10.0,13.0,3.0,16.0,0.0,0.0,10.0,80.0,,,,,,5e85f667db8aa41f74436a9f,09:17:41,26/02/2024
html-keyboard-response,87,170922,0.0-38.0-1.0,,"<div style=""display: flex; flex-direction: column; align-items: center; margin-top: -40px;""><img src=""images/pattern_4.png"" style=""width: 234px; height: 230px; margin-top: -50px;""><div style=""display: flex; justify-content: space-between; margin-top: 33px;""><img src=""images/choice_trial_10.png"" style=""width: 408px; height: 417px; margin-right: 608px;""></div></div>",,delaylearn,learning,display_response,53xkCfSbMjZm2NGFmclMRIda0R42,53xkCfSbMjZm2NGFmclMRIda0R42,,,,,,,,,,,,,,,,chosen stimuli: images/choice_trial_10.png,,,,,5e85f667db8aa41f74436a9f,09:17:41,26/02/2024
html-keyboard-response,88,177927,0.0-38.0-2.0,,,,delaylearn,learning,feedback_duration_window,53xkCfSbMjZm2NGFmclMRIda0R42,53xkCfSbMjZm2NGFmclMRIda0R42,,,,,,,,,,,,,,,,,7000.0,,,,5e85f667db8aa41f74436a9f,09:17:41,26/02/2024
html-keyboard-response,89,179430,0.0-38.0-3.0,,<div style='margin:auto;width: auto; font-size: 150%'><span style='font-weight: bold; font-size: 100px; color: red;'>0 points!</span><br><br></div>,,delaylearn,learning,feedback_image_window,53xkCfSbMjZm2NGFmclMRIda0R42,53xkCfSbMjZm2NGFmclMRIda0R42,,,,,,,,,,,,,,,,,,,,,5e85f667db8aa41f74436a9f,09:17:41,26/02/2024
html-keyboard-response,90,181596,0.0-39.0,,"<div style=""font-size:100px;"">+</div>",,delaylearn,learning,ITI,53xkCfSbMjZm2NGFmclMRIda0R42,53xkCfSbMjZm2NGFmclMRIda0R42,,,,,,,,,,,,,,,,,,2159.0,,,5e85f667db8aa41f74436a9f,09:17:41,26/02/2024
html-keyboard-response,91,182623,0.0-40.0-0.0,1024.8999999985099,"<div style=""display: flex; flex-direction: column; align-items: center; margin-top: -40px;""><img src=""images/pattern_7.png"" style=""width: 234px; height: 230px; margin-top: -50px;""><div style=""display: flex; justify-content: space-between; margin-top: 33px;""><img src=""images/choice_trial_13.png"" style=""width: 408px; height: 417px; margin-right: 200px;""><img src=""images/choice_trial_10.png"" style=""width: 408px; height: 417px;""></div></div>",f,delaylearn,learning,trial,53xkCfSbMjZm2NGFmclMRIda0R42,53xkCfSbMjZm2NGFmclMRIda0R42,3.0,images/choice_trial_13.png,images/choice_trial_10.png,images/pattern_7.png,f,f,750.0,13.0,10.0,6.0,17.0,1.0,1.0,13.0,90.0,,,,,,5e85f667db8aa41f74436a9f,09:17:41,26/02/2024
html-keyboard-response,92,183629,0.0-40.0-1.0,,"<div style=""display: flex; flex-direction: column; align-items: center; margin-top: -40px;""><img src=""images/pattern_7.png"" style=""width: 234px; height: 230px; margin-top: -50px;""><div style=""display: flex; justify-content: space-between; margin-top: 33px;""><img src=""images/choice_trial_13.png"" style=""width: 408px; height: 417px; margin-right: 608px;""></div></div>",,delaylearn,learning,display_response,53xkCfSbMjZm2NGFmclMRIda0R42,53xkCfSbMjZm2NGFmclMRIda0R42,,,,,,,,,,,,,,,,chosen stimuli: images/choice_trial_13.png,,,,,5e85f667db8aa41f74436a9f,09:17:41,26/02/2024
html-keyboard-response,93,184386,0.0-40.0-2.0,,,,delaylearn,learning,feedback_duration_window,53xkCfSbMjZm2NGFmclMRIda0R42,53xkCfSbMjZm2NGFmclMRIda0R42,,,,,,,,,,,,,,,,,750.0,,,,5e85f667db8aa41f74436a9f,09:17:41,26/02/2024
html-keyboard-response,94,185893,0.0-40.0-3.0,,<div style='margin:auto;width: auto; font-size: 150%'><span style='font-weight: bold; font-size: 100px; color: green;'>+10 points!</span><br><br></div>,,delaylearn,learning,feedback_image_window,53xkCfSbMjZm2NGFmclMRIda0R42,53xkCfSbMjZm2NGFmclMRIda0R42,,,,,,,,,,,,,,,,,,,,,5e85f667db8aa41f74436a9f,09:17:41,26/02/2024
html-keyboard-response,95,187999,0.0-41.0,,"<div style=""font-size:100px;"">+</div>",,delaylearn,learning,ITI,53xkCfSbMjZm2NGFmclMRIda0R42,53xkCfSbMjZm2NGFmclMRIda0R42,,,,,,,,,,,,,,,,,,2102.0,,,5e85f667db8aa41f74436a9f,09:17:41,26/02/2024
html-keyboard-response,96,188988,0.0-42.0-0.0,986.7999999970198,"<div style=""display: flex; flex-direction: column; align-items: center; margin-top: -40px;""><img src=""images/pattern_1.png"" style=""width: 234px; height: 230px; margin-top: -50px;""><div style=""display: flex; justify-content: space-between; margin-top: 33px;""><img src=""images/choice_trial_13.png"" style=""width: 408px; height: 417px; margin-right: 200px;""><img src=""images/choice_trial_10.png"" style=""width: 408px; height: 417px;""></div></div>",f,delaylearn,learning,trial,53xkCfSbMjZm2NGFmclMRIda0R42,53xkCfSbMjZm2NGFmclMRIda0R42,3.0,images/choice_trial_13.png,images/choice_trial_10.png,images/pattern_1.png,f,f,7000.0,13.0,10.0,1.0,18.0,1.0,1.0,13.0,100.0,,,,,,5e85f667db8aa41f74436a9f,09:17:41,26/02/2024
html-keyboard-response,97,189993,0.0-42.0-1.0,,"<div style=""display: flex; flex-direction: column; align-items: center; margin-top: -40px;""><img src=""images/pattern_1.png"" style=""width: 234px; height: 230px; margin-top: -50px;""><div style=""display: flex; justify-content: space-between; margin-top: 33px;""><img src=""images/choice_trial_13.png"" style=""width: 408px; height: 417px; margin-right: 608px;""></div></div>",,delaylearn,learning,display_response,53xkCfSbMjZm2NGFmclMRIda0R42,53xkCfSbMjZm2NGFmclMRIda0R42,,,,,,,,,,,,,,,,chosen stimuli: images/choice_trial_13.png,,,,,5e85f667db8aa41f74436a9f,09:17:41,26/02/2024
html-keyboard-response,98,196996,0.0-42.0-2.0,,,,delaylearn,learning,feedback_duration_window,53xkCfSbMjZm2NGFmclMRIda0R42,53xkCfSbMjZm2NGFmclMRIda0R42,,,,,,,,,,,,,,,,,7000.0,,,,5e85f667db8aa41f74436a9f,09:17:41,26/02/2024
html-keyboard-response,99,198499,0.0-42.0-3.0,,<div style='margin:auto;width: auto; font-size: 150%'><span style='font-weight: bold; font-size: 100px; color: green;'>+10 points!</span><br><br></div>,,delaylearn,learning,feedback_image_window,53xkCfSbMjZm2NGFmclMRIda0R42,53xkCfSbMjZm2NGFmclMRIda0R42,,,,,,,,,,,,,,,,,,,,,5e85f667db8aa41f74436a9f,09:17:41,26/02/2024
html-keyboard-response,100,200566,0.0-43.0,,"<div style=""font-size:100px;"">+</div>",,delaylearn,learning,ITI,53xkCfSbMjZm2NGFmclMRIda0R42,53xkCfSbMjZm2NGFmclMRIda0R42,,,,,,,,,,,,,,,,,,2061.0,,,5e85f667db8aa41f74436a9f,09:17:41,26/02/2024
html-keyboard-response,101,203426,0.0-44.0-0.0,2857.60000000149,"<div style=""display: flex; flex-direction: column; align-items: center; margin-top: -40px;""><img src=""images/pattern_6.png"" style=""width: 234px; height: 230px; margin-top: -50px;""><div style=""display: flex; justify-content: space-between; margin-top: 33px;""><img src=""images/choice_trial_9.png"" style=""width: 408px; height: 417px; margin-right: 200px;""><img src=""images/choice_trial_15.png"" style=""width: 408px; height: 417px;""></div></div>",f,delaylearn,learning,trial,53xkCfSbMjZm2NGFmclMRIda0R42,53xkCfSbMjZm2NGFmclMRIda0R42,3.0,images/choice_trial_9.png,images/choice_trial_15.png,images/pattern_6.png,j,j,750.0,9.0,15.0,5.0,19.0,0.0,0.0,9.0,100.0,,,,,,5e85f667db8aa41f74436a9f,09:17:41,26/02/2024
html-keyboard-response,102,204432,0.0-44.0-1.0,,"<div style=""display: flex; flex-direction: column; align-items: center; margin-top: -40px;""><img src=""images/pattern_6.png"" style=""width: 234px; height: 230px; margin-top: -50px;""><div style=""display: flex; justify-content: space-between; margin-top: 33px;""><img src=""images/choice_trial_9.png"" style=""width: 408px; height: 417px; margin-right: 608px;""></div></div>",,delaylearn,learning,display_response,53xkCfSbMjZm2NGFmclMRIda0R42,53xkCfSbMjZm2NGFmclMRIda0R42,,,,,,,,,,,,,,,,chosen stimuli: images/choice_trial_9.png,,,,,5e85f667db8aa41f74436a9f,09:17:41,26/02/2024
html-keyboard-response,103,205188,0.0-44.0-2.0,,,,delaylearn,learning,feedback_duration_window,53xkCfSbMjZm2NGFmclMRIda0R42,53xkCfSbMjZm2NGFmclMRIda0R42,,,,,,,,,,,,,,,,,750.0,,,,5e85f667db8aa41f74436a9f,09:17:41,26/02/2024
html-keyboard-response,104,206691,0.0-44.0-3.0,,<div style='margin:auto;width: auto; font-size: 150%'><span style='font-weight: bold; font-size: 100px; color: red;'>0 points!</span><br><br></div>,,delaylearn,learning,feedback_image_window,53xkCfSbMjZm2NGFmclMRIda0R42,53xkCfSbMjZm2NGFmclMRIda0R42,,,,,,,,,,,,,,,,,,,,,5e85f667db8aa41f74436a9f,09:17:41,26/02/2024
html-keyboard-response,105,208646,0.0-45.0,,"<div style=""font-size:100px;"">+</div>",,delaylearn,learning,ITI,53xkCfSbMjZm2NGFmclMRIda0R42,53xkCfSbMjZm2NGFmclMRIda0R42,,,,,,,,,,,,,,,,,,1950.0,,,5e85f667db8aa41f74436a9f,09:17:41,26/02/2024
html-keyboard-response,106,210005,0.0-46.0-0.0,1355.7000000029802,"<div style=""display: flex; flex-direction: column; align-items: center; margin-top: -40px;""><img src=""images/pattern_4.png"" style=""width: 234px; height: 230px; margin-top: -50px;""><div style=""display: flex; justify-content: space-between; margin-top: 33px;""><img src=""images/choice_trial_15.png"" style=""width: 408px; height: 417px; margin-right: 200px;""><img src=""images/choice_trial_9.png"" style=""width: 408px; height: 417px;""></div></div>",f,delaylearn,learning,trial,53xkCfSbMjZm2NGFmclMRIda0R42,53xkCfSbMjZm2NGFmclMRIda0R42,3.0,images/choice_trial_15.png,images/choice_trial_9.png,images/pattern_4.png,f,f,7000.0,15.0,9.0,3.0,20.0,1.0,1.0,15.0,110.0,,,,,,5e85f667db8aa41f74436a9f,09:17:41,26/02/2024
html-keyboard-response,107,211012,0.0-46.0-1.0,,"<div style=""display: flex; flex-direction: column; align-items: center; margin-top: -40px;""><img src=""images/pattern_4.png"" style=""width: 234px; height: 230px; margin-top: -50px;""><div style=""display: flex; justify-content: space-between; margin-top: 33px;""><img src=""images/choice_trial_15.png"" style=""width: 408px; height: 417px; margin-right: 608px;""></div></div>",,delaylearn,learning,display_response,53xkCfSbMjZm2NGFmclMRIda0R42,53xkCfSbMjZm2NGFmclMRIda0R42,,,,,,,,,,,,,,,,chosen stimuli: images/choice_trial_15.png,,,,,5e85f667db8aa41f74436a9f,09:17:41,26/02/2024
html-keyboard-response,108,218016,0.0-46.0-2.0,,,,delaylearn,learning,feedback_duration_window,53xkCfSbMjZm2NGFmclMRIda0R42,53xkCfSbMjZm2NGFmclMRIda0R42,,,,,,,,,,,,,,,,,7000.0,,,,5e85f667db8aa41f74436a9f,09:17:41,26/02/2024
html-keyboard-response,109,219523,0.0-46.0-3.0,,<div style='margin:auto;width: auto; font-size: 150%'><span style='font-weight: bold; font-size: 100px; color: green;'>+10 points!</span><br><br></div>,,delaylearn,learning,feedback_image_window,53xkCfSbMjZm2NGFmclMRIda0R42,53xkCfSbMjZm2NGFmclMRIda0R42,,,,,,,,,,,,,,,,,,,,,5e85f667db8aa41f74436a9f,09:17:41,26/02/2024
html-keyboard-response,110,220024,0.0-47.0-0.0,,,,,,mood_trial_fixation,53xkCfSbMjZm2NGFmclMRIda0R42,,,,,,,,,,,,,,,,,,,,,,5e85f667db8aa41f74436a9f,09:17:41,26/02/2024
lmdlab-html-vas-response,111,223632,0.0-47.0-1.0,2599.0,How happy are you right now?,0.6277777777777778,delaylearn,learning,mood_trial,53xkCfSbMjZm2NGFmclMRIda0R42,53xkCfSbMjZm2NGFmclMRIda0R42,,,,,,,,,,,,,,,,,,,"['Very unhappy', 'Very happy']",,5e85f667db8aa41f74436a9f,09:17:41,26/02/2024
html-keyboard-response,112,226034,0.0-48.0,,"<div style=""font-size:100px;"">+</div>",,delaylearn,learning,ITI,53xkCfSbMjZm2NGFmclMRIda0R42,53xkCfSbMjZm2NGFmclMRIda0R42,,,,,,,,,,,,,,,,,,2399.0,,,5e85f667db8aa41f74436a9f,09:17:41,26/02/2024
html-keyboard-response,113,228124,0.0-49.0-0.0,2087.60000000149,"<div style=""display: flex; flex-direction: column; align-items: center; margin-top: -40px;""><img src=""images/pattern_7.png"" style=""width: 234px; height: 230px; margin-top: -50px;""><div style=""display: flex; justify-content: space-between; margin-top: 33px;""><img src=""images/choice_trial_9.png"" style=""width: 408px; height: 417px; margin-right: 200px;""><img src=""images/choice_trial_15.png"" style=""width: 408px; height: 417px;""></div></div>",j,delaylearn,learning,trial,53xkCfSbMjZm2NGFmclMRIda0R42,53xkCfSbMjZm2NGFmclMRIda0R42,3.0,images/choice_trial_9.png,images/choice_trial_15.png,images/pattern_7.png,j,j,750.0,9.0,15.0,6.0,21.0,1.0,1.0,15.0,120.0,,,,,,5e85f667db8aa41f74436a9f,09:17:41,26/02/2024
html-keyboard-response,114,229131,0.0-49.0-1.0,,"<div style=""display: flex; flex-direction: column; align-items: center; margin-top: -40px;""><img src=""images/pattern_7.png"" style=""width: 234px; height: 230px; margin-top: -50px;""><div style=""display: flex; justify-content: space-between; margin-top: 33px;""><img src=""images/choice_trial_15.png"" style=""width: 408px; height: 417px; margin-left:608px;""></div></div>",,delaylearn,learning,display_response,53xkCfSbMjZm2NGFmclMRIda0R42,53xkCfSbMjZm2NGFmclMRIda0R42,,,,,,,,,,,,,,,,chosen stimuli: images/choice_trial_15.png,,,,,5e85f667db8aa41f74436a9f,09:17:41,26/02/2024
html-keyboard-response,115,229883,0.0-49.0-2.0,,,,delaylearn,learning,feedback_duration_window,53xkCfSbMjZm2NGFmclMRIda0R42,53xkCfSbMjZm2NGFmclMRIda0R42,,,,,,,,,,,,,,,,,750.0,,,,5e85f667db8aa41f74436a9f,09:17:41,26/02/2024
html-keyboard-response,116,231390,0.0-49.0-3.0,,<div style='margin:auto;width: auto; font-size: 150%'><span style='font-weight: bold; font-size: 100px; color: green;'>+10 points!</span><br><br></div>,,delaylearn,learning,feedback_image_window,53xkCfSbMjZm2NGFmclMRIda0R42,53xkCfSbMjZm2NGFmclMRIda0R42,,,,,,,,,,,,,,,,,,,,,5e85f667db8aa41f74436a9f,09:17:41,26/02/2024
html-keyboard-response,117,233010,0.0-50.0,,"<div style=""font-size:100px;"">+</div>",,delaylearn,learning,ITI,53xkCfSbMjZm2NGFmclMRIda0R42,53xkCfSbMjZm2NGFmclMRIda0R42,,,,,,,,,,,,,,,,,,1617.0,,,5e85f667db8aa41f74436a9f,09:17:41,26/02/2024
html-keyboard-response,118,235787,0.0-51.0-0.0,2775.60000000149,"<div style=""display: flex; flex-direction: column; align-items: center; margin-top: -40px;""><img src=""images/pattern_1.png"" style=""width: 234px; height: 230px; margin-top: -50px;""><div style=""display: flex; justify-content: space-between; margin-top: 33px;""><img src=""images/choice_trial_9.png"" style=""width: 408px; height: 417px; margin-right: 200px;""><img src=""images/choice_trial_15.png"" style=""width: 408px; height: 417px;""></div></div>",j,delaylearn,learning,trial,53xkCfSbMjZm2NGFmclMRIda0R42,53xkCfSbMjZm2NGFmclMRIda0R42,3.0,images/choice_trial_9.png,images/choice_trial_15.png,images/pattern_1.png,j,j,7000.0,9.0,15.0,1.0,22.0,1.0,1.0,15.0,130.0,,,,,,5e85f667db8aa41f74436a9f,09:17:41,26/02/2024
html-keyboard-response,119,236788,0.0-51.0-1.0,,"<div style=""display: flex; flex-direction: column; align-items: center; margin-top: -40px;""><img src=""images/pattern_1.png"" style=""width: 234px; height: 230px; margin-top: -50px;""><div style=""display: flex; justify-content: space-between; margin-top: 33px;""><img src=""images/choice_trial_15.png"" style=""width: 408px; height: 417px; margin-left:608px;""></div></div>",,delaylearn,learning,display_response,53xkCfSbMjZm2NGFmclMRIda0R42,53xkCfSbMjZm2NGFmclMRIda0R42,,,,,,,,,,,,,,,,chosen stimuli: images/choice_trial_15.png,,,,,5e85f667db8aa41f74436a9f,09:17:41,26/02/2024
html-keyboard-response,120,243795,0.0-51.0-2.0,,,,delaylearn,learning,feedback_duration_window,53xkCfSbMjZm2NGFmclMRIda0R42,53xkCfSbMjZm2NGFmclMRIda0R42,,,,,,,,,,,,,,,,,7000.0,,,,5e85f667db8aa41f74436a9f,09:17:41,26/02/2024
html-keyboard-response,121,245302,0.0-51.0-3.0,,<div style='margin:auto;width: auto; font-size: 150%'><span style='font-weight: bold; font-size: 100px; color: green;'>+10 points!</span><br><br></div>,,delaylearn,learning,feedback_image_window,53xkCfSbMjZm2NGFmclMRIda0R42,53xkCfSbMjZm2NGFmclMRIda0R42,,,,,,,,,,,,,,,,,,,,,5e85f667db8aa41f74436a9f,09:17:41,26/02/2024
html-keyboard-response,122,247391,0.0-52.0,,"<div style=""font-size:100px;"">+</div>",,delaylearn,learning,ITI,53xkCfSbMjZm2NGFmclMRIda0R42,53xkCfSbMjZm2NGFmclMRIda0R42,,,,,,,,,,,,,,,,,,2082.0,,,5e85f667db8aa41f74436a9f,09:17:41,26/02/2024
html-keyboard-response,123,248461,0.0-53.0-0.0,1067.2999999970198,"<div style=""display: flex; flex-direction: column; align-items: center; margin-top: -40px;""><img src=""images/pattern_3.png"" style=""width: 234px; height: 230px; margin-top: -50px;""><div style=""display: flex; justify-content: space-between; margin-top: 33px;""><img src=""images/choice_trial_9.png"" style=""width: 408px; height: 417px; margin-right: 200px;""><img src=""images/choice_trial_15.png"" style=""width: 408px; height: 417px;""></div></div>",j,delaylearn,learning,trial,53xkCfSbMjZm2NGFmclMRIda0R42,53xkCfSbMjZm2NGFmclMRIda0R42,3.0,images/choice_trial_9.png,images/choice_trial_15.png,images/pattern_3.png,f,j,7000.0,9.0,15.0,2.0,23.0,1.0,0.0,15.0,130.0,,,,,,5e85f667db8aa41f74436a9f,09:17:41,26/02/2024
html-keyboard-response,124,249466,0.0-53.0-1.0,,"<div style=""display: flex; flex-direction: column; align-items: center; margin-top: -40px;""><img src=""images/pattern_3.png"" style=""width: 234px; height: 230px; margin-top: -50px;""><div style=""display: flex; justify-content: space-between; margin-top: 33px;""><img src=""images/choice_trial_15.png"" style=""width: 408px; height: 417px; margin-left:608px;""></div></div>",,delaylearn,learning,display_response,53xkCfSbMjZm2NGFmclMRIda0R42,53xkCfSbMjZm2NGFmclMRIda0R42,,,,,,,,,,,,,,,,chosen stimuli: images/choice_trial_15.png,,,,,5e85f667db8aa41f74436a9f,09:17:41,26/02/2024
html-keyboard-response,125,256472,0.0-53.0-2.0,,,,delaylearn,learning,feedback_duration_window,53xkCfSbMjZm2NGFmclMRIda0R42,53xkCfSbMjZm2NGFmclMRIda0R42,,,,,,,,,,,,,,,,,7000.0,,,,5e85f667db8aa41f74436a9f,09:17:41,26/02/2024
html-keyboard-response,126,257976,0.0-53.0-3.0,,<div style='margin:auto;width: auto; font-size: 150%'><span style='font-weight: bold; font-size: 100px; color: red;'>0 points!</span><br><br></div>,,delaylearn,learning,feedback_image_window,53xkCfSbMjZm2NGFmclMRIda0R42,53xkCfSbMjZm2NGFmclMRIda0R42,,,,,,,,,,,,,,,,,,,,,5e85f667db8aa41f74436a9f,09:17:41,26/02/2024
lmdlab-html-vas-response,127,264764,0.0-54.0-0.0,5280.0,*How <b><u>confident</u></b> are you feeling about your answers at this moment?*,0.7666666666666667,rewlearn,rate_confidence,,53xkCfSbMjZm2NGFmclMRIda0R42,53xkCfSbMjZm2NGFmclMRIda0R42,,,,,,,,,,,,,,,,,,,"['No confidence', 'Complete confidence']",,5e85f667db8aa41f74436a9f,09:17:41,26/02/2024
lmdlab-rest-trial-limit,128,272442,0.0-54.0-1.0,6173.0,"<div style=""font-size:40px;""><b>Please take a break!</b><br><br><br><br><p>Great work: you earned undefined points.<br><br><br><p>You have completed part(s) 1 of 6.<br><br><br><br>When you are ready to continue<br><br><br>please click the button.</p><br><br>",0,delaylearn,learning,break,53xkCfSbMjZm2NGFmclMRIda0R42,53xkCfSbMjZm2NGFmclMRIda0R42,,,,,,,,,,,,,,,,,,,,0.0,5e85f667db8aa41f74436a9f,09:17:41,26/02/2024
html-keyboard-response,129,275448,0.0-54.0-2.0,,"<div style=""font-size:100px;"">+</div>",,delaylearn,learning,pre_fixation,53xkCfSbMjZm2NGFmclMRIda0R42,,,,,,,,,,,,,,,,,,,,,,5e85f667db8aa41f74436a9f,09:17:41,26/02/2024
lmdlab-html-vas-response,130,278860,0.0-54.0-3.0-0.0,2403.0,How happy are you right now?,0.725925925925926,delaylearn,learning,mood_baseline,53xkCfSbMjZm2NGFmclMRIda0R42,53xkCfSbMjZm2NGFmclMRIda0R42,,,,,,,,,,,,,,,,,,,"['Very unhappy', 'Very happy']",,5e85f667db8aa41f74436a9f,09:17:41,26/02/2024
html-keyboard-response,131,280365,0.0-54.0-3.0-1.0,,,,,,mood_baseline_fixation,53xkCfSbMjZm2NGFmclMRIda0R42,,,,,,,,,,,,,,,,,,,,,,5e85f667db8aa41f74436a9f,09:17:41,26/02/2024
html-keyboard-response,132,282070,0.0-55.0,,"<div style=""font-size:100px;"">+</div>",,delaylearn,learning,ITI,53xkCfSbMjZm2NGFmclMRIda0R42,53xkCfSbMjZm2NGFmclMRIda0R42,,,,,,,,,,,,,,,,,,1699.0,,,5e85f667db8aa41f74436a9f,09:17:41,26/02/2024
html-keyboard-response,133,283858,0.0-56.0-0.0,1785.3999999985099,"<div style=""display: flex; flex-direction: column; align-items: center; margin-top: -40px;""><img src=""images/pattern_5.png"" style=""width: 234px; height: 230px; margin-top: -50px;""><div style=""display: flex; justify-content: space-between; margin-top: 33px;""><img src=""images/choice_trial_9.png"" style=""width: 408px; height: 417px; margin-right: 200px;""><img src=""images/choice_trial_15.png"" style=""width: 408px; height: 417px;""></div></div>",f,delaylearn,learning,trial,53xkCfSbMjZm2NGFmclMRIda0R42,53xkCfSbMjZm2NGFmclMRIda0R42,3.0,images/choice_trial_9.png,images/choice_trial_15.png,images/pattern_5.png,j,j,750.0,9.0,15.0,4.0,24.0,0.0,0.0,9.0,130.0,,,,,,5e85f667db8aa41f74436a9f,09:17:41,26/02/2024
html-keyboard-response,134,284866,0.0-56.0-1.0,,"<div style=""display: flex; flex-direction: column; align-items: center; margin-top: -40px;""><img src=""images/pattern_5.png"" style=""width: 234px; height: 230px; margin-top: -50px;""><div style=""display: flex; justify-content: space-between; margin-top: 33px;""><img src=""images/choice_trial_9.png"" style=""width: 408px; height: 417px; margin-right: 608px;""></div></div>",,delaylearn,learning,display_response,53xkCfSbMjZm2NGFmclMRIda0R42,53xkCfSbMjZm2NGFmclMRIda0R42,,,,,,,,,,,,,,,,chosen stimuli: images/choice_trial_9.png,,,,,5e85f667db8aa41f74436a9f,09:17:41,26/02/2024
html-keyboard-response,135,285622,0.0-56.0-2.0,,,,delaylearn,learning,feedback_duration_window,53xkCfSbMjZm2NGFmclMRIda0R42,53xkCfSbMjZm2NGFmclMRIda0R42,,,,,,,,,,,,,,,,,750.0,,,,5e85f667db8aa41f74436a9f,09:17:41,26/02/2024
html-keyboard-response,136,287124,0.0-56.0-3.0,,<div style='margin:auto;width: auto; font-size: 150%'><span style='font-weight: bold; font-size: 100px; color: red;'>0 points!</span><br><br></div>,,delaylearn,learning,feedback_image_window,53xkCfSbMjZm2NGFmclMRIda0R42,53xkCfSbMjZm2NGFmclMRIda0R42,,,,,,,,,,,,,,,,,,,,,5e85f667db8aa41f74436a9f,09:17:41,26/02/2024
html-keyboard-response,137,288633,0.0-57.0,,"<div style=""font-size:100px;"">+</div>",,delaylearn,learning,ITI,53xkCfSbMjZm2NGFmclMRIda0R42,53xkCfSbMjZm2NGFmclMRIda0R42,,,,,,,,,,,,,,,,,,1502.0,,,5e85f667db8aa41f74436a9f,09:17:41,26/02/2024
html-keyboard-response,138,290694,0.0-58.0-0.0,2058.6999999955297,"<div style=""display: flex; flex-direction: column; align-items: center; margin-top: -40px;""><img src=""images/pattern_7.png"" style=""width: 234px; height: 230px; margin-top: -50px;""><div style=""display: flex; justify-content: space-between; margin-top: 33px;""><img src=""images/choice_trial_2.png"" style=""width: 408px; height: 417px; margin-right: 200px;""><img src=""images/choice_trial_11.png"" style=""width: 408px; height: 417px;""></div></div>",j,delaylearn,learning,trial,53xkCfSbMjZm2NGFmclMRIda0R42,53xkCfSbMjZm2NGFmclMRIda0R42,3.0,images/choice_trial_2.png,images/choice_trial_11.png,images/pattern_7.png,j,j,750.0,2.0,11.0,6.0,25.0,1.0,1.0,11.0,140.0,,,,,,5e85f667db8aa41f74436a9f,09:17:41,26/02/2024
html-keyboard-response,139,291696,0.0-58.0-1.0,,"<div style=""display: flex; flex-direction: column; align-items: center; margin-top: -40px;""><img src=""images/pattern_7.png"" style=""width: 234px; height: 230px; margin-top: -50px;""><div style=""display: flex; justify-content: space-between; margin-top: 33px;""><img src=""images/choice_trial_11.png"" style=""width: 408px; height: 417px; margin-left:608px;""></div></div>",,delaylearn,learning,display_response,53xkCfSbMjZm2NGFmclMRIda0R42,53xkCfSbMjZm2NGFmclMRIda0R42,,,,,,,,,,,,,,,,chosen stimuli: images/choice_trial_11.png,,,,,5e85f667db8aa41f74436a9f,09:17:41,26/02/2024
html-keyboard-response,140,292448,0.0-58.0-2.0,,,,delaylearn,learning,feedback_duration_window,53xkCfSbMjZm2NGFmclMRIda0R42,53xkCfSbMjZm2NGFmclMRIda0R42,,,,,,,,,,,,,,,,,750.0,,,,5e85f667db8aa41f74436a9f,09:17:41,26/02/2024
html-keyboard-response,141,293955,0.0-58.0-3.0,,<div style='margin:auto;width: auto; font-size: 150%'><span style='font-weight: bold; font-size: 100px; color: green;'>+10 points!</span><br><br></div>,,delaylearn,learning,feedback_image_window,53xkCfSbMjZm2NGFmclMRIda0R42,53xkCfSbMjZm2NGFmclMRIda0R42,,,,,,,,,,,,,,,,,,,,,5e85f667db8aa41f74436a9f,09:17:41,26/02/2024
html-keyboard-response,142,294458,0.0-59.0-0.0,,,,,,mood_trial_fixation,53xkCfSbMjZm2NGFmclMRIda0R42,,,,,,,,,,,,,,,,,,,,,,5e85f667db8aa41f74436a9f,09:17:41,26/02/2024
lmdlab-html-vas-response,143,297758,0.0-59.0-1.0,2292.0,How happy are you right now?,0.6685185185185185,delaylearn,learning,mood_trial,53xkCfSbMjZm2NGFmclMRIda0R42,53xkCfSbMjZm2NGFmclMRIda0R42,,,,,,,,,,,,,,,,,,,"['Very unhappy', 'Very happy']",,5e85f667db8aa41f74436a9f,09:17:41,26/02/2024
html-keyboard-response,144,299381,0.0-60.0,,"<div style=""font-size:100px;"">+</div>",,delaylearn,learning,ITI,53xkCfSbMjZm2NGFmclMRIda0R42,53xkCfSbMjZm2NGFmclMRIda0R42,,,,,,,,,,,,,,,,,,1616.0,,,5e85f667db8aa41f74436a9f,09:17:41,26/02/2024
html-keyboard-response,145,301041,0.0-61.0-0.0,1657.8999999985099,"<div style=""display: flex; flex-direction: column; align-items: center; margin-top: -40px;""><img src=""images/pattern_1.png"" style=""width: 234px; height: 230px; margin-top: -50px;""><div style=""display: flex; justify-content: space-between; margin-top: 33px;""><img src=""images/choice_trial_11.png"" style=""width: 408px; height: 417px; margin-right: 200px;""><img src=""images/choice_trial_2.png"" style=""width: 408px; height: 417px;""></div></div>",f,delaylearn,learning,trial,53xkCfSbMjZm2NGFmclMRIda0R42,53xkCfSbMjZm2NGFmclMRIda0R42,3.0,images/choice_trial_11.png,images/choice_trial_2.png,images/pattern_1.png,f,f,7000.0,11.0,2.0,1.0,26.0,1.0,1.0,11.0,150.0,,,,,,5e85f667db8aa41f74436a9f,09:17:41,26/02/2024
html-keyboard-response,146,302044,0.0-61.0-1.0,,"<div style=""display: flex; flex-direction: column; align-items: center; margin-top: -40px;""><img src=""images/pattern_1.png"" style=""width: 234px; height: 230px; margin-top: -50px;""><div style=""display: flex; justify-content: space-between; margin-top: 33px;""><img src=""images/choice_trial_11.png"" style=""width: 408px; height: 417px; margin-right: 608px;""></div></div>",,delaylearn,learning,display_response,53xkCfSbMjZm2NGFmclMRIda0R42,53xkCfSbMjZm2NGFmclMRIda0R42,,,,,,,,,,,,,,,,chosen stimuli: images/choice_trial_11.png,,,,,5e85f667db8aa41f74436a9f,09:17:41,26/02/2024
html-keyboard-response,147,309045,0.0-61.0-2.0,,,,delaylearn,learning,feedback_duration_window,53xkCfSbMjZm2NGFmclMRIda0R42,53xkCfSbMjZm2NGFmclMRIda0R42,,,,,,,,,,,,,,,,,7000.0,,,,5e85f667db8aa41f74436a9f,09:17:41,26/02/2024
html-keyboard-response,148,310552,0.0-61.0-3.0,,<div style='margin:auto;width: auto; font-size: 150%'><span style='font-weight: bold; font-size: 100px; color: green;'>+10 points!</span><br><br></div>,,delaylearn,learning,feedback_image_window,53xkCfSbMjZm2NGFmclMRIda0R42,53xkCfSbMjZm2NGFmclMRIda0R42,,,,,,,,,,,,,,,,,,,,,5e85f667db8aa41f74436a9f,09:17:41,26/02/2024
html-keyboard-response,149,312896,0.0-62.0,,"<div style=""font-size:100px;"">+</div>",,delaylearn,learning,ITI,53xkCfSbMjZm2NGFmclMRIda0R42,53xkCfSbMjZm2NGFmclMRIda0R42,,,,,,,,,,,,,,,,,,2339.0,,,5e85f667db8aa41f74436a9f,09:17:41,26/02/2024
html-keyboard-response,150,315904,0.0-63.0-0.0,,"<div style=""display: flex; flex-direction: column; align-items: center; margin-top: -40px;""><img src=""images/pattern_6.png"" style=""width: 234px; height: 230px; margin-top: -50px;""><div style=""display: flex; justify-content: space-between; margin-top: 33px;""><img src=""images/choice_trial_2.png"" style=""width: 408px; height: 417px; margin-right: 200px;""><img src=""images/choice_trial_11.png"" style=""width: 408px; height: 417px;""></div></div>",,delaylearn,learning,trial,53xkCfSbMjZm2NGFmclMRIda0R42,53xkCfSbMjZm2NGFmclMRIda0R42,3.0,images/choice_trial_2.png,images/choice_trial_11.png,images/pattern_6.png,j,j,750.0,2.0,11.0,5.0,27.0,0.0,0.0,0.0,150.0,,,,,,5e85f667db8aa41f74436a9f,09:17:41,26/02/2024
html-keyboard-response,151,316911,0.0-63.0-1.0,,<div style='font-weight: bold; font-size: 75px; color: red;'>Missed Trial <br><br><br><br> Please respond faster</div>,,delaylearn,learning,display_response,53xkCfSbMjZm2NGFmclMRIda0R42,53xkCfSbMjZm2NGFmclMRIda0R42,,,,,,,,,,,,,,,,Missed trial,,,,,5e85f667db8aa41f74436a9f,09:17:41,26/02/2024
html-keyboard-response,152,316917,0.0-63.0-2.0,,,,delaylearn,learning,feedback_duration_window,53xkCfSbMjZm2NGFmclMRIda0R42,53xkCfSbMjZm2NGFmclMRIda0R42,,,,,,,,,,,,,,,,,0.0,,,,5e85f667db8aa41f74436a9f,09:17:41,26/02/2024
html-keyboard-response,153,316923,0.0-63.0-3.0,,,,delaylearn,learning,feedback_image_window,53xkCfSbMjZm2NGFmclMRIda0R42,53xkCfSbMjZm2NGFmclMRIda0R42,,,,,,,,,,,,,,,,,,,,,5e85f667db8aa41f74436a9f,09:17:41,26/02/2024
html-keyboard-response,154,317428,0.0-64.0-0.0,,,,,,mood_trial_fixation,53xkCfSbMjZm2NGFmclMRIda0R42,,,,,,,,,,,,,,,,,,,,,,5e85f667db8aa41f74436a9f,09:17:41,26/02/2024
lmdlab-html-vas-response,155,320654,0.0-64.0-1.0,2221.0,How happy are you right now?,0.42777777777777776,delaylearn,learning,mood_trial,53xkCfSbMjZm2NGFmclMRIda0R42,53xkCfSbMjZm2NGFmclMRIda0R42,,,,,,,,,,,,,,,,,,,"['Very unhappy', 'Very happy']",,5e85f667db8aa41f74436a9f,09:17:41,26/02/2024
html-keyboard-response,156,323031,0.0-65.0,,"<div style=""font-size:100px;"">+</div>",,delaylearn,learning,ITI,53xkCfSbMjZm2NGFmclMRIda0R42,53xkCfSbMjZm2NGFmclMRIda0R42,,,,,,,,,,,,,,,,,,2371.0,,,5e85f667db8aa41f74436a9f,09:17:41,26/02/2024
html-keyboard-response,157,324263,0.0-66.0-0.0,1230.0,"<div style=""display: flex; flex-direction: column; align-items: center; margin-top: -40px;""><img src=""images/pattern_5.png"" style=""width: 234px; height: 230px; margin-top: -50px;""><div style=""display: flex; justify-content: space-between; margin-top: 33px;""><img src=""images/choice_trial_11.png"" style=""width: 408px; height: 417px; margin-right: 200px;""><img src=""images/choice_trial_2.png"" style=""width: 408px; height: 417px;""></div></div>",f,delaylearn,learning,trial,53xkCfSbMjZm2NGFmclMRIda0R42,53xkCfSbMjZm2NGFmclMRIda0R42,3.0,images/choice_trial_11.png,images/choice_trial_2.png,images/pattern_5.png,f,f,750.0,11.0,2.0,4.0,28.0,1.0,1.0,11.0,160.0,,,,,,5e85f667db8aa41f74436a9f,09:17:41,26/02/2024
html-keyboard-response,158,325271,0.0-66.0-1.0,,"<div style=""display: flex; flex-direction: column; align-items: center; margin-top: -40px;""><img src=""images/pattern_5.png"" style=""width: 234px; height: 230px; margin-top: -50px;""><div style=""display: flex; justify-content: space-between; margin-top: 33px;""><img src=""images/choice_trial_11.png"" style=""width: 408px; height: 417px; margin-right: 608px;""></div></div>",,delaylearn,learning,display_response,53xkCfSbMjZm2NGFmclMRIda0R42,53xkCfSbMjZm2NGFmclMRIda0R42,,,,,,,,,,,,,,,,chosen stimuli: images/choice_trial_11.png,,,,,5e85f667db8aa41f74436a9f,09:17:41,26/02/2024
html-keyboard-response,159,326023,0.0-66.0-2.0,,,,delaylearn,learning,feedback_duration_window,53xkCfSbMjZm2NGFmclMRIda0R42,53xkCfSbMjZm2NGFmclMRIda0R42,,,,,,,,,,,,,,,,,750.0,,,,5e85f667db8aa41f74436a9f,09:17:41,26/02/2024
html-keyboard-response,160,327527,0.0-66.0-3.0,,<div style='margin:auto;width: auto; font-size: 150%'><span style='font-weight: bold; font-size: 100px; color: green;'>+10 points!</span><br><br></div>,,delaylearn,learning,feedback_image_window,53xkCfSbMjZm2NGFmclMRIda0R42,53xkCfSbMjZm2NGFmclMRIda0R42,,,,,,,,,,,,,,,,,,,,,5e85f667db8aa41f74436a9f,09:17:41,26/02/2024
html-keyboard-response,161,329642,0.0-67.0,,"<div style=""font-size:100px;"">+</div>",,delaylearn,learning,ITI,53xkCfSbMjZm2NGFmclMRIda0R42,53xkCfSbMjZm2NGFmclMRIda0R42,,,,,,,,,,,,,,,,,,2113.0,,,5e85f667db8aa41f74436a9f,09:17:41,26/02/2024
html-keyboard-response,162,330776,0.0-68.0-0.0,1132.6000000014901,"<div style=""display: flex; flex-direction: column; align-items: center; margin-top: -40px;""><img src=""images/pattern_4.png"" style=""width: 234px; height: 230px; margin-top: -50px;""><div style=""display: flex; justify-content: space-between; margin-top: 33px;""><img src=""images/choice_trial_2.png"" style=""width: 408px; height: 417px; margin-right: 200px;""><img src=""images/choice_trial_11.png"" style=""width: 408px; height: 417px;""></div></div>",j,delaylearn,learning,trial,53xkCfSbMjZm2NGFmclMRIda0R42,53xkCfSbMjZm2NGFmclMRIda0R42,3.0,images/choice_trial_2.png,images/choice_trial_11.png,images/pattern_4.png,j,j,7000.0,2.0,11.0,3.0,29.0,1.0,1.0,11.0,170.0,,,,,,5e85f667db8aa41f74436a9f,09:17:41,26/02/2024
html-keyboard-response,163,331780,0.0-68.0-1.0,,"<div style=""display: flex; flex-direction: column; align-items: center; margin-top: -40px;""><img src=""images/pattern_4.png"" style=""width: 234px; height: 230px; margin-top: -50px;""><div style=""display: flex; justify-content: space-between; margin-top: 33px;""><img src=""images/choice_trial_11.png"" style=""width: 408px; height: 417px; margin-left:608px;""></div></div>",,delaylearn,learning,display_response,53xkCfSbMjZm2NGFmclMRIda0R42,53xkCfSbMjZm2NGFmclMRIda0R42,,,,,,,,,,,,,,,,chosen stimuli: images/choice_trial_11.png,,,,,5e85f667db8aa41f74436a9f,09:17:41,26/02/2024
html-keyboard-response,164,338787,0.0-68.0-2.0,,,,delaylearn,learning,feedback_duration_window,53xkCfSbMjZm2NGFmclMRIda0R42,53xkCfSbMjZm2NGFmclMRIda0R42,,,,,,,,,,,,,,,,,7000.0,,,,5e85f667db8aa41f74436a9f,09:17:41,26/02/2024
html-keyboard-response,165,340290,0.0-68.0-3.0,,<div style='margin:auto;width: auto; font-size: 150%'><span style='font-weight: bold; font-size: 100px; color: green;'>+10 points!</span><br><br></div>,,delaylearn,learning,feedback_image_window,53xkCfSbMjZm2NGFmclMRIda0R42,53xkCfSbMjZm2NGFmclMRIda0R42,,,,,,,,,,,,,,,,,,,,,5e85f667db8aa41f74436a9f,09:17:41,26/02/2024
html-keyboard-response,166,342691,0.0-69.0,,"<div style=""font-size:100px;"">+</div>",,delaylearn,learning,ITI,53xkCfSbMjZm2NGFmclMRIda0R42,53xkCfSbMjZm2NGFmclMRIda0R42,,,,,,,,,,,,,,,,,,2399.0,,,5e85f667db8aa41f74436a9f,09:17:41,26/02/2024
html-keyboard-response,167,343992,0.0-70.0-0.0,1298.6000000014901,"<div style=""display: flex; flex-direction: column; align-items: center; margin-top: -40px;""><img src=""images/pattern_3.png"" style=""width: 234px; height: 230px; margin-top: -50px;""><div style=""display: flex; justify-content: space-between; margin-top: 33px;""><img src=""images/choice_trial_2.png"" style=""width: 408px; height: 417px; margin-right: 200px;""><img src=""images/choice_trial_11.png"" style=""width: 408px; height: 417px;""></div></div>",j,delaylearn,learning,trial,53xkCfSbMjZm2NGFmclMRIda0R42,53xkCfSbMjZm2NGFmclMRIda0R42,3.0,images/choice_trial_2.png,images/choice_trial_11.png,images/pattern_3.png,j,j,7000.0,2.0,11.0,2.0,30.0,1.0,1.0,11.0,180.0,,,,,,5e85f667db8aa41f74436a9f,09:17:41,26/02/2024
html-keyboard-response,168,344997,0.0-70.0-1.0,,"<div style=""display: flex; flex-direction: column; align-items: center; margin-top: -40px;""><img src=""images/pattern_3.png"" style=""width: 234px; height: 230px; margin-top: -50px;""><div style=""display: flex; justify-content: space-between; margin-top: 33px;""><img src=""images/choice_trial_11.png"" style=""width: 408px; height: 417px; margin-left:608px;""></div></div>",,delaylearn,learning,display_response,53xkCfSbMjZm2NGFmclMRIda0R42,53xkCfSbMjZm2NGFmclMRIda0R42,,,,,,,,,,,,,,,,chosen stimuli: images/choice_trial_11.png,,,,,5e85f667db8aa41f74436a9f,09:17:41,26/02/2024
html-keyboard-response,169,351999,0.0-70.0-2.0,,,,delaylearn,learning,feedback_duration_window,53xkCfSbMjZm2NGFmclMRIda0R42,53xkCfSbMjZm2NGFmclMRIda0R42,,,,,,,,,,,,,,,,,7000.0,,,,5e85f667db8aa41f74436a9f,09:17:41,26/02/2024
html-keyboard-response,170,353507,0.0-70.0-3.0,,<div style='margin:auto;width: auto; font-size: 150%'><span style='font-weight: bold; font-size: 100px; color: green;'>+10 points!</span><br><br></div>,,delaylearn,learning,feedback_image_window,53xkCfSbMjZm2NGFmclMRIda0R42,53xkCfSbMjZm2NGFmclMRIda0R42,,,,,,,,,,,,,,,,,,,,,5e85f667db8aa41f74436a9f,09:17:41,26/02/2024
html-keyboard-response,171,355901,0.0-71.0,,"<div style=""font-size:100px;"">+</div>",,delaylearn,learning,ITI,53xkCfSbMjZm2NGFmclMRIda0R42,53xkCfSbMjZm2NGFmclMRIda0R42,,,,,,,,,,,,,,,,,,2388.0,,,5e85f667db8aa41f74436a9f,09:17:41,26/02/2024
html-keyboard-response,172,357337,0.0-72.0-0.0,1432.8999999985099,"<div style=""display: flex; flex-direction: column; align-items: center; margin-top: -40px;""><img src=""images/pattern_1.png"" style=""width: 234px; height: 230px; margin-top: -50px;""><div style=""display: flex; justify-content: space-between; margin-top: 33px;""><img src=""images/choice_trial_16.png"" style=""width: 408px; height: 417px; margin-right: 200px;""><img src=""images/choice_trial_3.png"" style=""width: 408px; height: 417px;""></div></div>",f,delaylearn,learning,trial,53xkCfSbMjZm2NGFmclMRIda0R42,53xkCfSbMjZm2NGFmclMRIda0R42,3.0,images/choice_trial_16.png,images/choice_trial_3.png,images/pattern_1.png,f,f,7000.0,16.0,3.0,1.0,31.0,1.0,1.0,16.0,190.0,,,,,,5e85f667db8aa41f74436a9f,09:17:41,26/02/2024
html-keyboard-response,173,358344,0.0-72.0-1.0,,"<div style=""display: flex; flex-direction: column; align-items: center; margin-top: -40px;""><img src=""images/pattern_1.png"" style=""width: 234px; height: 230px; margin-top: -50px;""><div style=""display: flex; justify-content: space-between; margin-top: 33px;""><img src=""images/choice_trial_16.png"" style=""width: 408px; height: 417px; margin-right: 608px;""></div></div>",,delaylearn,learning,display_response,53xkCfSbMjZm2NGFmclMRIda0R42,53xkCfSbMjZm2NGFmclMRIda0R42,,,,,,,,,,,,,,,,chosen stimuli: images/choice_trial_16.png,,,,,5e85f667db8aa41f74436a9f,09:17:41,26/02/2024
html-keyboard-response,174,365350,0.0-72.0-2.0,,,,delaylearn,learning,feedback_duration_window,53xkCfSbMjZm2NGFmclMRIda0R42,53xkCfSbMjZm2NGFmclMRIda0R42,,,,,,,,,,,,,,,,,7000.0,,,,5e85f667db8aa41f74436a9f,09:17:41,26/02/2024
html-keyboard-response,175,366857,0.0-72.0-3.0,,<div style='margin:auto;width: auto; font-size: 150%'><span style='font-weight: bold; font-size: 100px; color: green;'>+10 points!</span><br><br></div>,,delaylearn,learning,feedback_image_window,53xkCfSbMjZm2NGFmclMRIda0R42,53xkCfSbMjZm2NGFmclMRIda0R42,,,,,,,,,,,,,,,,,,,,,5e85f667db8aa41f74436a9f,09:17:41,26/02/2024
html-keyboard-response,176,367364,0.0-73.0-0.0,,,,,,mood_trial_fixation,53xkCfSbMjZm2NGFmclMRIda0R42,,,,,,,,,,,,,,,,,,,,,,5e85f667db8aa41f74436a9f,09:17:41,26/02/2024
lmdlab-html-vas-response,177,370588,0.0-73.0-1.0,2215.0,How happy are you right now?,0.75,delaylearn,learning,mood_trial,53xkCfSbMjZm2NGFmclMRIda0R42,53xkCfSbMjZm2NGFmclMRIda0R42,,,,,,,,,,,,,,,,,,,"['Very unhappy', 'Very happy']",,5e85f667db8aa41f74436a9f,09:17:41,26/02/2024
html-keyboard-response,178,372890,0.0-74.0,,"<div style=""font-size:100px;"">+</div>",,delaylearn,learning,ITI,53xkCfSbMjZm2NGFmclMRIda0R42,53xkCfSbMjZm2NGFmclMRIda0R42,,,,,,,,,,,,,,,,,,2298.0,,,5e85f667db8aa41f74436a9f,09:17:41,26/02/2024
html-keyboard-response,179,374608,0.0-75.0-0.0,1715.5,"<div style=""display: flex; flex-direction: column; align-items: center; margin-top: -40px;""><img src=""images/pattern_6.png"" style=""width: 234px; height: 230px; margin-top: -50px;""><div style=""display: flex; justify-content: space-between; margin-top: 33px;""><img src=""images/choice_trial_16.png"" style=""width: 408px; height: 417px; margin-right: 200px;""><img src=""images/choice_trial_3.png"" style=""width: 408px; height: 417px;""></div></div>",f,delaylearn,learning,trial,53xkCfSbMjZm2NGFmclMRIda0R42,53xkCfSbMjZm2NGFmclMRIda0R42,3.0,images/choice_trial_16.png,images/choice_trial_3.png,images/pattern_6.png,f,f,750.0,16.0,3.0,5.0,32.0,1.0,1.0,16.0,200.0,,,,,,5e85f667db8aa41f74436a9f,09:17:41,26/02/2024
html-keyboard-response,180,375615,0.0-75.0-1.0,,"<div style=""display: flex; flex-direction: column; align-items: center; margin-top: -40px;""><img src=""images/pattern_6.png"" style=""width: 234px; height: 230px; margin-top: -50px;""><div style=""display: flex; justify-content: space-between; margin-top: 33px;""><img src=""images/choice_trial_16.png"" style=""width: 408px; height: 417px; margin-right: 608px;""></div></div>",,delaylearn,learning,display_response,53xkCfSbMjZm2NGFmclMRIda0R42,53xkCfSbMjZm2NGFmclMRIda0R42,,,,,,,,,,,,,,,,chosen stimuli: images/choice_trial_16.png,,,,,5e85f667db8aa41f74436a9f,09:17:41,26/02/2024
html-keyboard-response,181,376371,0.0-75.0-2.0,,,,delaylearn,learning,feedback_duration_window,53xkCfSbMjZm2NGFmclMRIda0R42,53xkCfSbMjZm2NGFmclMRIda0R42,,,,,,,,,,,,,,,,,750.0,,,,5e85f667db8aa41f74436a9f,09:17:41,26/02/2024
html-keyboard-response,182,377878,0.0-75.0-3.0,,<div style='margin:auto;width: auto; font-size: 150%'><span style='font-weight: bold; font-size: 100px; color: green;'>+10 points!</span><br><br></div>,,delaylearn,learning,feedback_image_window,53xkCfSbMjZm2NGFmclMRIda0R42,53xkCfSbMjZm2NGFmclMRIda0R42,,,,,,,,,,,,,,,,,,,,,5e85f667db8aa41f74436a9f,09:17:41,26/02/2024
html-keyboard-response,183,379791,0.0-76.0,,"<div style=""font-size:100px;"">+</div>",,delaylearn,learning,ITI,53xkCfSbMjZm2NGFmclMRIda0R42,53xkCfSbMjZm2NGFmclMRIda0R42,,,,,,,,,,,,,,,,,,1906.0,,,5e85f667db8aa41f74436a9f,09:17:41,26/02/2024
html-keyboard-response,184,381025,0.0-77.0-0.0,1231.5,"<div style=""display: flex; flex-direction: column; align-items: center; margin-top: -40px;""><img src=""images/pattern_5.png"" style=""width: 234px; height: 230px; margin-top: -50px;""><div style=""display: flex; justify-content: space-between; margin-top: 33px;""><img src=""images/choice_trial_16.png"" style=""width: 408px; height: 417px; margin-right: 200px;""><img src=""images/choice_trial_3.png"" style=""width: 408px; height: 417px;""></div></div>",f,delaylearn,learning,trial,53xkCfSbMjZm2NGFmclMRIda0R42,53xkCfSbMjZm2NGFmclMRIda0R42,3.0,images/choice_trial_16.png,images/choice_trial_3.png,images/pattern_5.png,j,f,750.0,16.0,3.0,4.0,33.0,1.0,0.0,16.0,200.0,,,,,,5e85f667db8aa41f74436a9f,09:17:41,26/02/2024
html-keyboard-response,185,382028,0.0-77.0-1.0,,"<div style=""display: flex; flex-direction: column; align-items: center; margin-top: -40px;""><img src=""images/pattern_5.png"" style=""width: 234px; height: 230px; margin-top: -50px;""><div style=""display: flex; justify-content: space-between; margin-top: 33px;""><img src=""images/choice_trial_16.png"" style=""width: 408px; height: 417px; margin-right: 608px;""></div></div>",,delaylearn,learning,display_response,53xkCfSbMjZm2NGFmclMRIda0R42,53xkCfSbMjZm2NGFmclMRIda0R42,,,,,,,,,,,,,,,,chosen stimuli: images/choice_trial_16.png,,,,,5e85f667db8aa41f74436a9f,09:17:41,26/02/2024
html-keyboard-response,186,382785,0.0-77.0-2.0,,,,delaylearn,learning,feedback_duration_window,53xkCfSbMjZm2NGFmclMRIda0R42,53xkCfSbMjZm2NGFmclMRIda0R42,,,,,,,,,,,,,,,,,750.0,,,,5e85f667db8aa41f74436a9f,09:17:41,26/02/2024
html-keyboard-response,187,384292,0.0-77.0-3.0,,<div style='margin:auto;width: auto; font-size: 150%'><span style='font-weight: bold; font-size: 100px; color: red;'>0 points!</span><br><br></div>,,delaylearn,learning,feedback_image_window,53xkCfSbMjZm2NGFmclMRIda0R42,53xkCfSbMjZm2NGFmclMRIda0R42,,,,,,,,,,,,,,,,,,,,,5e85f667db8aa41f74436a9f,09:17:41,26/02/2024
html-keyboard-response,188,386260,0.0-78.0,,"<div style=""font-size:100px;"">+</div>",,delaylearn,learning,ITI,53xkCfSbMjZm2NGFmclMRIda0R42,53xkCfSbMjZm2NGFmclMRIda0R42,,,,,,,,,,,,,,,,,,1962.0,,,5e85f667db8aa41f74436a9f,09:17:41,26/02/2024
html-keyboard-response,189,388530,0.0-79.0-0.0,2267.10000000149,"<div style=""display: flex; flex-direction: column; align-items: center; margin-top: -40px;""><img src=""images/pattern_3.png"" style=""width: 234px; height: 230px; margin-top: -50px;""><div style=""display: flex; justify-content: space-between; margin-top: 33px;""><img src=""images/choice_trial_3.png"" style=""width: 408px; height: 417px; margin-right: 200px;""><img src=""images/choice_trial_16.png"" style=""width: 408px; height: 417px;""></div></div>",f,delaylearn,learning,trial,53xkCfSbMjZm2NGFmclMRIda0R42,53xkCfSbMjZm2NGFmclMRIda0R42,3.0,images/choice_trial_3.png,images/choice_trial_16.png,images/pattern_3.png,j,j,7000.0,3.0,16.0,2.0,34.0,0.0,0.0,3.0,200.0,,,,,,5e85f667db8aa41f74436a9f,09:17:41,26/02/2024
html-keyboard-response,190,389536,0.0-79.0-1.0,,"<div style=""display: flex; flex-direction: column; align-items: center; margin-top: -40px;""><img src=""images/pattern_3.png"" style=""width: 234px; height: 230px; margin-top: -50px;""><div style=""display: flex; justify-content: space-between; margin-top: 33px;""><img src=""images/choice_trial_3.png"" style=""width: 408px; height: 417px; margin-right: 608px;""></div></div>",,delaylearn,learning,display_response,53xkCfSbMjZm2NGFmclMRIda0R42,53xkCfSbMjZm2NGFmclMRIda0R42,,,,,,,,,,,,,,,,chosen stimuli: images/choice_trial_3.png,,,,,5e85f667db8aa41f74436a9f,09:17:41,26/02/2024
html-keyboard-response,191,396542,0.0-79.0-2.0,,,,delaylearn,learning,feedback_duration_window,53xkCfSbMjZm2NGFmclMRIda0R42,53xkCfSbMjZm2NGFmclMRIda0R42,,,,,,,,,,,,,,,,,7000.0,,,,5e85f667db8aa41f74436a9f,09:17:41,26/02/2024
html-keyboard-response,192,398050,0.0-79.0-3.0,,<div style='margin:auto;width: auto; font-size: 150%'><span style='font-weight: bold; font-size: 100px; color: red;'>0 points!</span><br><br></div>,,delaylearn,learning,feedback_image_window,53xkCfSbMjZm2NGFmclMRIda0R42,53xkCfSbMjZm2NGFmclMRIda0R42,,,,,,,,,,,,,,,,,,,,,5e85f667db8aa41f74436a9f,09:17:41,26/02/2024
html-keyboard-response,193,400044,0.0-80.0,,"<div style=""font-size:100px;"">+</div>",,delaylearn,learning,ITI,53xkCfSbMjZm2NGFmclMRIda0R42,53xkCfSbMjZm2NGFmclMRIda0R42,,,,,,,,,,,,,,,,,,1993.0,,,5e85f667db8aa41f74436a9f,09:17:41,26/02/2024
html-keyboard-response,194,401089,0.0-81.0-0.0,1041.6999999955297,"<div style=""display: flex; flex-direction: column; align-items: center; margin-top: -40px;""><img src=""images/pattern_4.png"" style=""width: 234px; height: 230px; margin-top: -50px;""><div style=""display: flex; justify-content: space-between; margin-top: 33px;""><img src=""images/choice_trial_3.png"" style=""width: 408px; height: 417px; margin-right: 200px;""><img src=""images/choice_trial_16.png"" style=""width: 408px; height: 417px;""></div></div>",j,delaylearn,learning,trial,53xkCfSbMjZm2NGFmclMRIda0R42,53xkCfSbMjZm2NGFmclMRIda0R42,3.0,images/choice_trial_3.png,images/choice_trial_16.png,images/pattern_4.png,f,j,7000.0,3.0,16.0,3.0,35.0,1.0,0.0,16.0,200.0,,,,,,5e85f667db8aa41f74436a9f,09:17:41,26/02/2024
html-keyboard-response,195,402095,0.0-81.0-1.0,,"<div style=""display: flex; flex-direction: column; align-items: center; margin-top: -40px;""><img src=""images/pattern_4.png"" style=""width: 234px; height: 230px; margin-top: -50px;""><div style=""display: flex; justify-content: space-between; margin-top: 33px;""><img src=""images/choice_trial_16.png"" style=""width: 408px; height: 417px; margin-left:608px;""></div></div>",,delaylearn,learning,display_response,53xkCfSbMjZm2NGFmclMRIda0R42,53xkCfSbMjZm2NGFmclMRIda0R42,,,,,,,,,,,,,,,,chosen stimuli: images/choice_trial_16.png,,,,,5e85f667db8aa41f74436a9f,09:17:41,26/02/2024
html-keyboard-response,196,409099,0.0-81.0-2.0,,,,delaylearn,learning,feedback_duration_window,53xkCfSbMjZm2NGFmclMRIda0R42,53xkCfSbMjZm2NGFmclMRIda0R42,,,,,,,,,,,,,,,,,7000.0,,,,5e85f667db8aa41f74436a9f,09:17:41,26/02/2024
html-keyboard-response,197,410606,0.0-81.0-3.0,,<div style='margin:auto;width: auto; font-size: 150%'><span style='font-weight: bold; font-size: 100px; color: red;'>0 points!</span><br><br></div>,,delaylearn,learning,feedback_image_window,53xkCfSbMjZm2NGFmclMRIda0R42,53xkCfSbMjZm2NGFmclMRIda0R42,,,,,,,,,,,,,,,,,,,,,5e85f667db8aa41f74436a9f,09:17:41,26/02/2024
html-keyboard-response,198,412631,0.0-82.0,,"<div style=""font-size:100px;"">+</div>",,delaylearn,learning,ITI,53xkCfSbMjZm2NGFmclMRIda0R42,53xkCfSbMjZm2NGFmclMRIda0R42,,,,,,,,,,,,,,,,,,2019.0,,,5e85f667db8aa41f74436a9f,09:17:41,26/02/2024
html-keyboard-response,199,413325,0.0-83.0-0.0,691.2000000029802,"<div style=""display: flex; flex-direction: column; align-items: center; margin-top: -40px;""><img src=""images/pattern_7.png"" style=""width: 234px; height: 230px; margin-top: -50px;""><div style=""display: flex; justify-content: space-between; margin-top: 33px;""><img src=""images/choice_trial_16.png"" style=""width: 408px; height: 417px; margin-right: 200px;""><img src=""images/choice_trial_3.png"" style=""width: 408px; height: 417px;""></div></div>",f,delaylearn,learning,trial,53xkCfSbMjZm2NGFmclMRIda0R42,53xkCfSbMjZm2NGFmclMRIda0R42,3.0,images/choice_trial_16.png,images/choice_trial_3.png,images/pattern_7.png,j,f,750.0,16.0,3.0,6.0,36.0,1.0,0.0,16.0,200.0,,,,,,5e85f667db8aa41f74436a9f,09:17:41,26/02/2024
html-keyboard-response,200,414332,0.0-83.0-1.0,,"<div style=""display: flex; flex-direction: column; align-items: center; margin-top: -40px;""><img src=""images/pattern_7.png"" style=""width: 234px; height: 230px; margin-top: -50px;""><div style=""display: flex; justify-content: space-between; margin-top: 33px;""><img src=""images/choice_trial_16.png"" style=""width: 408px; height: 417px; margin-right: 608px;""></div></div>",,delaylearn,learning,display_response,53xkCfSbMjZm2NGFmclMRIda0R42,53xkCfSbMjZm2NGFmclMRIda0R42,,,,,,,,,,,,,,,,chosen stimuli: images/choice_trial_16.png,,,,,5e85f667db8aa41f74436a9f,09:17:41,26/02/2024
html-keyboard-response,201,415089,0.0-83.0-2.0,,,,delaylearn,learning,feedback_duration_window,53xkCfSbMjZm2NGFmclMRIda0R42,53xkCfSbMjZm2NGFmclMRIda0R42,,,,,,,,,,,,,,,,,750.0,,,,5e85f667db8aa41f74436a9f,09:17:41,26/02/2024
html-keyboard-response,202,416596,0.0-83.0-3.0,,<div style='margin:auto;width: auto; font-size: 150%'><span style='font-weight: bold; font-size: 100px; color: red;'>0 points!</span><br><br></div>,,delaylearn,learning,feedback_image_window,53xkCfSbMjZm2NGFmclMRIda0R42,53xkCfSbMjZm2NGFmclMRIda0R42,,,,,,,,,,,,,,,,,,,,,5e85f667db8aa41f74436a9f,09:17:41,26/02/2024
html-keyboard-response,203,418927,0.0-84.0,,"<div style=""font-size:100px;"">+</div>",,delaylearn,learning,ITI,53xkCfSbMjZm2NGFmclMRIda0R42,53xkCfSbMjZm2NGFmclMRIda0R42,,,,,,,,,,,,,,,,,,2325.0,,,5e85f667db8aa41f74436a9f,09:17:41,26/02/2024
html-keyboard-response,204,420535,0.0-85.0-0.0,1604.5999999940395,"<div style=""display: flex; flex-direction: column; align-items: center; margin-top: -40px;""><img src=""images/pattern_1.png"" style=""width: 234px; height: 230px; margin-top: -50px;""><div style=""display: flex; justify-content: space-between; margin-top: 33px;""><img src=""images/choice_trial_6.png"" style=""width: 408px; height: 417px; margin-right: 200px;""><img src=""images/choice_trial_12.png"" style=""width: 408px; height: 417px;""></div></div>",j,delaylearn,learning,trial,53xkCfSbMjZm2NGFmclMRIda0R42,53xkCfSbMjZm2NGFmclMRIda0R42,3.0,images/choice_trial_6.png,images/choice_trial_12.png,images/pattern_1.png,j,f,7000.0,6.0,12.0,1.0,37.0,0.0,1.0,12.0,210.0,,,,,,5e85f667db8aa41f74436a9f,09:17:41,26/02/2024
html-keyboard-response,205,421541,0.0-85.0-1.0,,"<div style=""display: flex; flex-direction: column; align-items: center; margin-top: -40px;""><img src=""images/pattern_1.png"" style=""width: 234px; height: 230px; margin-top: -50px;""><div style=""display: flex; justify-content: space-between; margin-top: 33px;""><img src=""images/choice_trial_12.png"" style=""width: 408px; height: 417px; margin-left:608px;""></div></div>",,delaylearn,learning,display_response,53xkCfSbMjZm2NGFmclMRIda0R42,53xkCfSbMjZm2NGFmclMRIda0R42,,,,,,,,,,,,,,,,chosen stimuli: images/choice_trial_12.png,,,,,5e85f667db8aa41f74436a9f,09:17:41,26/02/2024
html-keyboard-response,206,428544,0.0-85.0-2.0,,,,delaylearn,learning,feedback_duration_window,53xkCfSbMjZm2NGFmclMRIda0R42,53xkCfSbMjZm2NGFmclMRIda0R42,,,,,,,,,,,,,,,,,7000.0,,,,5e85f667db8aa41f74436a9f,09:17:41,26/02/2024
html-keyboard-response,207,430051,0.0-85.0-3.0,,<div style='margin:auto;width: auto; font-size: 150%'><span style='font-weight: bold; font-size: 100px; color: green;'>+10 points!</span><br><br></div>,,delaylearn,learning,feedback_image_window,53xkCfSbMjZm2NGFmclMRIda0R42,53xkCfSbMjZm2NGFmclMRIda0R42,,,,,,,,,,,,,,,,,,,,,5e85f667db8aa41f74436a9f,09:17:41,26/02/2024
html-keyboard-response,208,430558,0.0-86.0-0.0,,,,,,mood_trial_fixation,53xkCfSbMjZm2NGFmclMRIda0R42,,,,,,,,,,,,,,,,,,,,,,5e85f667db8aa41f74436a9f,09:17:41,26/02/2024
lmdlab-html-vas-response,209,434248,0.0-86.0-1.0,2680.0,How happy are you right now?,0.6240740740740741,delaylearn,learning,mood_trial,53xkCfSbMjZm2NGFmclMRIda0R42,53xkCfSbMjZm2NGFmclMRIda0R42,,,,,,,,,,,,,,,,,,,"['Very unhappy', 'Very happy']",,5e85f667db8aa41f74436a9f,09:17:41,26/02/2024
html-keyboard-response,210,436043,0.0-87.0,,"<div style=""font-size:100px;"">+</div>",,delaylearn,learning,ITI,53xkCfSbMjZm2NGFmclMRIda0R42,53xkCfSbMjZm2NGFmclMRIda0R42,,,,,,,,,,,,,,,,,,1788.0,,,5e85f667db8aa41f74436a9f,09:17:41,26/02/2024
html-keyboard-response,211,438424,0.0-88.0-0.0,2378.6999999955297,"<div style=""display: flex; flex-direction: column; align-items: center; margin-top: -40px;""><img src=""images/pattern_3.png"" style=""width: 234px; height: 230px; margin-top: -50px;""><div style=""display: flex; justify-content: space-between; margin-top: 33px;""><img src=""images/choice_trial_6.png"" style=""width: 408px; height: 417px; margin-right: 200px;""><img src=""images/choice_trial_12.png"" style=""width: 408px; height: 417px;""></div></div>",j,delaylearn,learning,trial,53xkCfSbMjZm2NGFmclMRIda0R42,53xkCfSbMjZm2NGFmclMRIda0R42,3.0,images/choice_trial_6.png,images/choice_trial_12.png,images/pattern_3.png,f,f,7000.0,6.0,12.0,2.0,38.0,0.0,0.0,12.0,210.0,,,,,,5e85f667db8aa41f74436a9f,09:17:41,26/02/2024
html-keyboard-response,212,439427,0.0-88.0-1.0,,"<div style=""display: flex; flex-direction: column; align-items: center; margin-top: -40px;""><img src=""images/pattern_3.png"" style=""width: 234px; height: 230px; margin-top: -50px;""><div style=""display: flex; justify-content: space-between; margin-top: 33px;""><img src=""images/choice_trial_12.png"" style=""width: 408px; height: 417px; margin-left:608px;""></div></div>",,delaylearn,learning,display_response,53xkCfSbMjZm2NGFmclMRIda0R42,53xkCfSbMjZm2NGFmclMRIda0R42,,,,,,,,,,,,,,,,chosen stimuli: images/choice_trial_12.png,,,,,5e85f667db8aa41f74436a9f,09:17:41,26/02/2024
html-keyboard-response,213,446429,0.0-88.0-2.0,,,,delaylearn,learning,feedback_duration_window,53xkCfSbMjZm2NGFmclMRIda0R42,53xkCfSbMjZm2NGFmclMRIda0R42,,,,,,,,,,,,,,,,,7000.0,,,,5e85f667db8aa41f74436a9f,09:17:41,26/02/2024
html-keyboard-response,214,447937,0.0-88.0-3.0,,<div style='margin:auto;width: auto; font-size: 150%'><span style='font-weight: bold; font-size: 100px; color: red;'>0 points!</span><br><br></div>,,delaylearn,learning,feedback_image_window,53xkCfSbMjZm2NGFmclMRIda0R42,53xkCfSbMjZm2NGFmclMRIda0R42,,,,,,,,,,,,,,,,,,,,,5e85f667db8aa41f74436a9f,09:17:41,26/02/2024
html-keyboard-response,215,449829,0.0-89.0,,"<div style=""font-size:100px;"">+</div>",,delaylearn,learning,ITI,53xkCfSbMjZm2NGFmclMRIda0R42,53xkCfSbMjZm2NGFmclMRIda0R42,,,,,,,,,,,,,,,,,,1889.0,,,5e85f667db8aa41f74436a9f,09:17:41,26/02/2024
html-keyboard-response,216,451105,0.0-90.0-0.0,1273.2000000029802,"<div style=""display: flex; flex-direction: column; align-items: center; margin-top: -40px;""><img src=""images/pattern_7.png"" style=""width: 234px; height: 230px; margin-top: -50px;""><div style=""display: flex; justify-content: space-between; margin-top: 33px;""><img src=""images/choice_trial_12.png"" style=""width: 408px; height: 417px; margin-right: 200px;""><img src=""images/choice_trial_6.png"" style=""width: 408px; height: 417px;""></div></div>",f,delaylearn,learning,trial,53xkCfSbMjZm2NGFmclMRIda0R42,53xkCfSbMjZm2NGFmclMRIda0R42,3.0,images/choice_trial_12.png,images/choice_trial_6.png,images/pattern_7.png,j,j,750.0,12.0,6.0,6.0,39.0,0.0,0.0,12.0,210.0,,,,,,5e85f667db8aa41f74436a9f,09:17:41,26/02/2024
html-keyboard-response,217,452112,0.0-90.0-1.0,,"<div style=""display: flex; flex-direction: column; align-items: center; margin-top: -40px;""><img src=""images/pattern_7.png"" style=""width: 234px; height: 230px; margin-top: -50px;""><div style=""display: flex; justify-content: space-between; margin-top: 33px;""><img src=""images/choice_trial_12.png"" style=""width: 408px; height: 417px; margin-right: 608px;""></div></div>",,delaylearn,learning,display_response,53xkCfSbMjZm2NGFmclMRIda0R42,53xkCfSbMjZm2NGFmclMRIda0R42,,,,,,,,,,,,,,,,chosen stimuli: images/choice_trial_12.png,,,,,5e85f667db8aa41f74436a9f,09:17:41,26/02/2024
html-keyboard-response,218,452868,0.0-90.0-2.0,,,,delaylearn,learning,feedback_duration_window,53xkCfSbMjZm2NGFmclMRIda0R42,53xkCfSbMjZm2NGFmclMRIda0R42,,,,,,,,,,,,,,,,,750.0,,,,5e85f667db8aa41f74436a9f,09:17:41,26/02/2024
html-keyboard-response,219,454373,0.0-90.0-3.0,,<div style='margin:auto;width: auto; font-size: 150%'><span style='font-weight: bold; font-size: 100px; color: red;'>0 points!</span><br><br></div>,,delaylearn,learning,feedback_image_window,53xkCfSbMjZm2NGFmclMRIda0R42,53xkCfSbMjZm2NGFmclMRIda0R42,,,,,,,,,,,,,,,,,,,,,5e85f667db8aa41f74436a9f,09:17:41,26/02/2024
html-keyboard-response,220,456114,0.0-91.0,,"<div style=""font-size:100px;"">+</div>",,delaylearn,learning,ITI,53xkCfSbMjZm2NGFmclMRIda0R42,53xkCfSbMjZm2NGFmclMRIda0R42,,,,,,,,,,,,,,,,,,1734.0,,,5e85f667db8aa41f74436a9f,09:17:41,26/02/2024
html-keyboard-response,221,457067,0.0-92.0-0.0,950.6000000014901,"<div style=""display: flex; flex-direction: column; align-items: center; margin-top: -40px;""><img src=""images/pattern_5.png"" style=""width: 234px; height: 230px; margin-top: -50px;""><div style=""display: flex; justify-content: space-between; margin-top: 33px;""><img src=""images/choice_trial_12.png"" style=""width: 408px; height: 417px; margin-right: 200px;""><img src=""images/choice_trial_6.png"" style=""width: 408px; height: 417px;""></div></div>",j,delaylearn,learning,trial,53xkCfSbMjZm2NGFmclMRIda0R42,53xkCfSbMjZm2NGFmclMRIda0R42,3.0,images/choice_trial_12.png,images/choice_trial_6.png,images/pattern_5.png,j,j,750.0,12.0,6.0,4.0,40.0,1.0,1.0,6.0,220.0,,,,,,5e85f667db8aa41f74436a9f,09:17:41,26/02/2024
html-keyboard-response,222,458073,0.0-92.0-1.0,,"<div style=""display: flex; flex-direction: column; align-items: center; margin-top: -40px;""><img src=""images/pattern_5.png"" style=""width: 234px; height: 230px; margin-top: -50px;""><div style=""display: flex; justify-content: space-between; margin-top: 33px;""><img src=""images/choice_trial_6.png"" style=""width: 408px; height: 417px; margin-left:608px;""></div></div>",,delaylearn,learning,display_response,53xkCfSbMjZm2NGFmclMRIda0R42,53xkCfSbMjZm2NGFmclMRIda0R42,,,,,,,,,,,,,,,,chosen stimuli: images/choice_trial_6.png,,,,,5e85f667db8aa41f74436a9f,09:17:41,26/02/2024
html-keyboard-response,223,458829,0.0-92.0-2.0,,,,delaylearn,learning,feedback_duration_window,53xkCfSbMjZm2NGFmclMRIda0R42,53xkCfSbMjZm2NGFmclMRIda0R42,,,,,,,,,,,,,,,,,750.0,,,,5e85f667db8aa41f74436a9f,09:17:41,26/02/2024
html-keyboard-response,224,460334,0.0-92.0-3.0,,<div style='margin:auto;width: auto; font-size: 150%'><span style='font-weight: bold; font-size: 100px; color: green;'>+10 points!</span><br><br></div>,,delaylearn,learning,feedback_image_window,53xkCfSbMjZm2NGFmclMRIda0R42,53xkCfSbMjZm2NGFmclMRIda0R42,,,,,,,,,,,,,,,,,,,,,5e85f667db8aa41f74436a9f,09:17:41,26/02/2024
html-keyboard-response,225,460838,0.0-93.0-0.0,,,,,,mood_trial_fixation,53xkCfSbMjZm2NGFmclMRIda0R42,,,,,,,,,,,,,,,,,,,,,,5e85f667db8aa41f74436a9f,09:17:41,26/02/2024
lmdlab-html-vas-response,226,465295,0.0-93.0-1.0,3448.0,How happy are you right now?,0.6962962962962963,delaylearn,learning,mood_trial,53xkCfSbMjZm2NGFmclMRIda0R42,53xkCfSbMjZm2NGFmclMRIda0R42,,,,,,,,,,,,,,,,,,,"['Very unhappy', 'Very happy']",,5e85f667db8aa41f74436a9f,09:17:41,26/02/2024
html-keyboard-response,227,467765,0.0-94.0,,"<div style=""font-size:100px;"">+</div>",,delaylearn,learning,ITI,53xkCfSbMjZm2NGFmclMRIda0R42,53xkCfSbMjZm2NGFmclMRIda0R42,,,,,,,,,,,,,,,,,,2466.0,,,5e85f667db8aa41f74436a9f,09:17:41,26/02/2024
html-keyboard-response,228,469062,0.0-95.0-0.0,1294.0,"<div style=""display: flex; flex-direction: column; align-items: center; margin-top: -40px;""><img src=""images/pattern_4.png"" style=""width: 234px; height: 230px; margin-top: -50px;""><div style=""display: flex; justify-content: space-between; margin-top: 33px;""><img src=""images/choice_trial_6.png"" style=""width: 408px; height: 417px; margin-right: 200px;""><img src=""images/choice_trial_12.png"" style=""width: 408px; height: 417px;""></div></div>",f,delaylearn,learning,trial,53xkCfSbMjZm2NGFmclMRIda0R42,53xkCfSbMjZm2NGFmclMRIda0R42,3.0,images/choice_trial_6.png,images/choice_trial_12.png,images/pattern_4.png,f,f,7000.0,6.0,12.0,3.0,41.0,1.0,1.0,6.0,230.0,,,,,,5e85f667db8aa41f74436a9f,09:17:41,26/02/2024
html-keyboard-response,229,470066,0.0-95.0-1.0,,"<div style=""display: flex; flex-direction: column; align-items: center; margin-top: -40px;""><img src=""images/pattern_4.png"" style=""width: 234px; height: 230px; margin-top: -50px;""><div style=""display: flex; justify-content: space-between; margin-top: 33px;""><img src=""images/choice_trial_6.png"" style=""width: 408px; height: 417px; margin-right: 608px;""></div></div>",,delaylearn,learning,display_response,53xkCfSbMjZm2NGFmclMRIda0R42,53xkCfSbMjZm2NGFmclMRIda0R42,,,,,,,,,,,,,,,,chosen stimuli: images/choice_trial_6.png,,,,,5e85f667db8aa41f74436a9f,09:17:41,26/02/2024
html-keyboard-response,230,477070,0.0-95.0-2.0,,,,delaylearn,learning,feedback_duration_window,53xkCfSbMjZm2NGFmclMRIda0R42,53xkCfSbMjZm2NGFmclMRIda0R42,,,,,,,,,,,,,,,,,7000.0,,,,5e85f667db8aa41f74436a9f,09:17:41,26/02/2024
html-keyboard-response,231,478577,0.0-95.0-3.0,,<div style='margin:auto;width: auto; font-size: 150%'><span style='font-weight: bold; font-size: 100px; color: green;'>+10 points!</span><br><br></div>,,delaylearn,learning,feedback_image_window,53xkCfSbMjZm2NGFmclMRIda0R42,53xkCfSbMjZm2NGFmclMRIda0R42,,,,,,,,,,,,,,,,,,,,,5e85f667db8aa41f74436a9f,09:17:41,26/02/2024
html-keyboard-response,232,480844,0.0-96.0,,"<div style=""font-size:100px;"">+</div>",,delaylearn,learning,ITI,53xkCfSbMjZm2NGFmclMRIda0R42,53xkCfSbMjZm2NGFmclMRIda0R42,,,,,,,,,,,,,,,,,,2265.0,,,5e85f667db8aa41f74436a9f,09:17:41,26/02/2024
