trial_type,trial_index,time_elapsed,internal_node_id,rt,stimulus,response,exp_name,exp_stage,test_part,subjectID,databaseID,counterbal,choice_stimuli_1,choice_stimuli_2,pattern_stimuli,rewarded_answer,correct_answer,feedback_duration_times,stim_left,stim_right,pair,leftright_counter,trial,response_correct,response_rewarded,chosen_stim,counter,displayed_choice,feedback_durations,ITI_duration,labels,rest_warning,prolificID,start_time,date
pavlovia,0,661,0.0-0.0,,,,,,,exB9lm4JDiU6vEG8nNRSXaowpVI2,,,,,,,,,,,,,,,,,,,,,,,63d8267294c685a091016df0,09:11:34,27/02/2024
html-keyboard-response,1,3667,0.0-1.0,,"<div style=""font-size:100px;"">+</div>",,delaylearn,learning,pre_fixation,exB9lm4JDiU6vEG8nNRSXaowpVI2,,,,,,,,,,,,,,,,,,,,,,,63d8267294c685a091016df0,09:11:34,27/02/2024
html-keyboard-response,2,4991,0.0-2.0-0.0,1321.0999999940395,"<div style=""display: flex; flex-direction: column; align-items: center; margin-top: -40px;""><img src=""images/demo_images/pattern_1.png"" style=""width: 234px; height: 230px; margin-top: -50px;""><div style=""display: flex; justify-content: space-between; margin-top: 33px;""><img src=""images/demo_images/choice_trial_2.png"" style=""width: 408px; height: 417px; margin-right: 200px;""><img src=""images/demo_images/choice_trial_1.png"" style=""width: 408px; height: 417px;""></div></div>",f,delaylearn,learning,trial,exB9lm4JDiU6vEG8nNRSXaowpVI2,exB9lm4JDiU6vEG8nNRSXaowpVI2,4.0,images/demo_images/choice_trial_2.png,images/demo_images/choice_trial_1.png,images/demo_images/pattern_1.png,j,j,3000.0,2.0,1.0,20.0,1.0,1.0,0.0,0.0,2.0,0.0,,,,,,63d8267294c685a091016df0,09:11:34,27/02/2024
html-keyboard-response,3,6007,0.0-2.0-1.0,,"<div style=""display: flex; flex-direction: column; align-items: center; margin-top: -40px;""><img src=""images/demo_images/pattern_1.png"" style=""width: 234px; height: 230px; margin-top: -50px;""><div style=""display: flex; justify-content: space-between; margin-top: 33px;""><img src=""images/demo_images/choice_trial_2.png"" style=""width: 408px; height: 417px; margin-right: 608px;""></div></div>",,delaylearn,learning,display_response,exB9lm4JDiU6vEG8nNRSXaowpVI2,exB9lm4JDiU6vEG8nNRSXaowpVI2,,,,,,,,,,,,,,,,,chosen stimuli: images/demo_images/choice_trial_2.png,,,,,63d8267294c685a091016df0,09:11:34,27/02/2024
html-keyboard-response,4,9020,0.0-2.0-2.0,,,,delaylearn,learning,feedback_duration_window,exB9lm4JDiU6vEG8nNRSXaowpVI2,exB9lm4JDiU6vEG8nNRSXaowpVI2,,,,,,,,,,,,,,,,,,3000.0,,,,63d8267294c685a091016df0,09:11:34,27/02/2024
html-keyboard-response,5,10534,0.0-2.0-3.0,,<div style='margin:auto;width: auto; font-size: 150%'><span style='font-weight: bold; font-size: 100px; color: red;'>0 points!</span><br><br></div>,,delaylearn,learning,feedback_image_window,exB9lm4JDiU6vEG8nNRSXaowpVI2,exB9lm4JDiU6vEG8nNRSXaowpVI2,,,,,,,,,,,,,,,,,,,,,,63d8267294c685a091016df0,09:11:34,27/02/2024
html-keyboard-response,6,12733,0.0-3.0,,"<div style=""font-size:100px;"">+</div>",,delaylearn,learning,ITI,exB9lm4JDiU6vEG8nNRSXaowpVI2,exB9lm4JDiU6vEG8nNRSXaowpVI2,,,,,,,,,,,,,,,,,,,2194.0,,,63d8267294c685a091016df0,09:11:34,27/02/2024
html-keyboard-response,7,14140,0.0-4.0-0.0,1404.2000000029802,"<div style=""display: flex; flex-direction: column; align-items: center; margin-top: -40px;""><img src=""images/demo_images/pattern_1.png"" style=""width: 234px; height: 230px; margin-top: -50px;""><div style=""display: flex; justify-content: space-between; margin-top: 33px;""><img src=""images/demo_images/choice_trial_2.png"" style=""width: 408px; height: 417px; margin-right: 200px;""><img src=""images/demo_images/choice_trial_1.png"" style=""width: 408px; height: 417px;""></div></div>",f,delaylearn,learning,trial,exB9lm4JDiU6vEG8nNRSXaowpVI2,exB9lm4JDiU6vEG8nNRSXaowpVI2,4.0,images/demo_images/choice_trial_2.png,images/demo_images/choice_trial_1.png,images/demo_images/pattern_1.png,j,j,3000.0,2.0,1.0,20.0,1.0,2.0,0.0,0.0,2.0,0.0,,,,,,63d8267294c685a091016df0,09:11:34,27/02/2024
html-keyboard-response,8,15142,0.0-4.0-1.0,,"<div style=""display: flex; flex-direction: column; align-items: center; margin-top: -40px;""><img src=""images/demo_images/pattern_1.png"" style=""width: 234px; height: 230px; margin-top: -50px;""><div style=""display: flex; justify-content: space-between; margin-top: 33px;""><img src=""images/demo_images/choice_trial_2.png"" style=""width: 408px; height: 417px; margin-right: 608px;""></div></div>",,delaylearn,learning,display_response,exB9lm4JDiU6vEG8nNRSXaowpVI2,exB9lm4JDiU6vEG8nNRSXaowpVI2,,,,,,,,,,,,,,,,,chosen stimuli: images/demo_images/choice_trial_2.png,,,,,63d8267294c685a091016df0,09:11:34,27/02/2024
html-keyboard-response,9,18151,0.0-4.0-2.0,,,,delaylearn,learning,feedback_duration_window,exB9lm4JDiU6vEG8nNRSXaowpVI2,exB9lm4JDiU6vEG8nNRSXaowpVI2,,,,,,,,,,,,,,,,,,3000.0,,,,63d8267294c685a091016df0,09:11:34,27/02/2024
html-keyboard-response,10,19667,0.0-4.0-3.0,,<div style='margin:auto;width: auto; font-size: 150%'><span style='font-weight: bold; font-size: 100px; color: red;'>0 points!</span><br><br></div>,,delaylearn,learning,feedback_image_window,exB9lm4JDiU6vEG8nNRSXaowpVI2,exB9lm4JDiU6vEG8nNRSXaowpVI2,,,,,,,,,,,,,,,,,,,,,,63d8267294c685a091016df0,09:11:34,27/02/2024
html-keyboard-response,11,21587,0.0-5.0,,"<div style=""font-size:100px;"">+</div>",,delaylearn,learning,ITI,exB9lm4JDiU6vEG8nNRSXaowpVI2,exB9lm4JDiU6vEG8nNRSXaowpVI2,,,,,,,,,,,,,,,,,,,1913.0,,,63d8267294c685a091016df0,09:11:34,27/02/2024
html-keyboard-response,12,22223,0.0-6.0-0.0,633.1999999880791,"<div style=""display: flex; flex-direction: column; align-items: center; margin-top: -40px;""><img src=""images/demo_images/pattern_1.png"" style=""width: 234px; height: 230px; margin-top: -50px;""><div style=""display: flex; justify-content: space-between; margin-top: 33px;""><img src=""images/demo_images/choice_trial_1.png"" style=""width: 408px; height: 417px; margin-right: 200px;""><img src=""images/demo_images/choice_trial_2.png"" style=""width: 408px; height: 417px;""></div></div>",j,delaylearn,learning,trial,exB9lm4JDiU6vEG8nNRSXaowpVI2,exB9lm4JDiU6vEG8nNRSXaowpVI2,4.0,images/demo_images/choice_trial_1.png,images/demo_images/choice_trial_2.png,images/demo_images/pattern_1.png,j,f,3000.0,1.0,2.0,20.0,0.0,3.0,0.0,1.0,2.0,10.0,,,,,,63d8267294c685a091016df0,09:11:34,27/02/2024
html-keyboard-response,13,23234,0.0-6.0-1.0,,"<div style=""display: flex; flex-direction: column; align-items: center; margin-top: -40px;""><img src=""images/demo_images/pattern_1.png"" style=""width: 234px; height: 230px; margin-top: -50px;""><div style=""display: flex; justify-content: space-between; margin-top: 33px;""><img src=""images/demo_images/choice_trial_2.png"" style=""width: 408px; height: 417px; margin-left:608px;""></div></div>",,delaylearn,learning,display_response,exB9lm4JDiU6vEG8nNRSXaowpVI2,exB9lm4JDiU6vEG8nNRSXaowpVI2,,,,,,,,,,,,,,,,,chosen stimuli: images/demo_images/choice_trial_2.png,,,,,63d8267294c685a091016df0,09:11:34,27/02/2024
html-keyboard-response,14,26247,0.0-6.0-2.0,,,,delaylearn,learning,feedback_duration_window,exB9lm4JDiU6vEG8nNRSXaowpVI2,exB9lm4JDiU6vEG8nNRSXaowpVI2,,,,,,,,,,,,,,,,,,3000.0,,,,63d8267294c685a091016df0,09:11:34,27/02/2024
html-keyboard-response,15,27761,0.0-6.0-3.0,,<div style='margin:auto;width: auto; font-size: 150%'><span style='font-weight: bold; font-size: 100px; color: green;'>+10 points!</span><br><br></div>,,delaylearn,learning,feedback_image_window,exB9lm4JDiU6vEG8nNRSXaowpVI2,exB9lm4JDiU6vEG8nNRSXaowpVI2,,,,,,,,,,,,,,,,,,,,,,63d8267294c685a091016df0,09:11:34,27/02/2024
html-keyboard-response,16,29848,0.0-7.0,,"<div style=""font-size:100px;"">+</div>",,delaylearn,learning,ITI,exB9lm4JDiU6vEG8nNRSXaowpVI2,exB9lm4JDiU6vEG8nNRSXaowpVI2,,,,,,,,,,,,,,,,,,,2071.0,,,63d8267294c685a091016df0,09:11:34,27/02/2024
html-keyboard-response,17,31435,0.0-8.0-0.0,1585.4000000059605,"<div style=""display: flex; flex-direction: column; align-items: center; margin-top: -40px;""><img src=""images/demo_images/pattern_1.png"" style=""width: 234px; height: 230px; margin-top: -50px;""><div style=""display: flex; justify-content: space-between; margin-top: 33px;""><img src=""images/demo_images/choice_trial_1.png"" style=""width: 408px; height: 417px; margin-right: 200px;""><img src=""images/demo_images/choice_trial_2.png"" style=""width: 408px; height: 417px;""></div></div>",j,delaylearn,learning,trial,exB9lm4JDiU6vEG8nNRSXaowpVI2,exB9lm4JDiU6vEG8nNRSXaowpVI2,4.0,images/demo_images/choice_trial_1.png,images/demo_images/choice_trial_2.png,images/demo_images/pattern_1.png,f,f,3000.0,1.0,2.0,20.0,0.0,4.0,0.0,0.0,2.0,10.0,,,,,,63d8267294c685a091016df0,09:11:34,27/02/2024
html-keyboard-response,18,32441,0.0-8.0-1.0,,"<div style=""display: flex; flex-direction: column; align-items: center; margin-top: -40px;""><img src=""images/demo_images/pattern_1.png"" style=""width: 234px; height: 230px; margin-top: -50px;""><div style=""display: flex; justify-content: space-between; margin-top: 33px;""><img src=""images/demo_images/choice_trial_2.png"" style=""width: 408px; height: 417px; margin-left:608px;""></div></div>",,delaylearn,learning,display_response,exB9lm4JDiU6vEG8nNRSXaowpVI2,exB9lm4JDiU6vEG8nNRSXaowpVI2,,,,,,,,,,,,,,,,,chosen stimuli: images/demo_images/choice_trial_2.png,,,,,63d8267294c685a091016df0,09:11:34,27/02/2024
html-keyboard-response,19,35455,0.0-8.0-2.0,,,,delaylearn,learning,feedback_duration_window,exB9lm4JDiU6vEG8nNRSXaowpVI2,exB9lm4JDiU6vEG8nNRSXaowpVI2,,,,,,,,,,,,,,,,,,3000.0,,,,63d8267294c685a091016df0,09:11:34,27/02/2024
html-keyboard-response,20,36971,0.0-8.0-3.0,,<div style='margin:auto;width: auto; font-size: 150%'><span style='font-weight: bold; font-size: 100px; color: red;'>0 points!</span><br><br></div>,,delaylearn,learning,feedback_image_window,exB9lm4JDiU6vEG8nNRSXaowpVI2,exB9lm4JDiU6vEG8nNRSXaowpVI2,,,,,,,,,,,,,,,,,,,,,,63d8267294c685a091016df0,09:11:34,27/02/2024
html-keyboard-response,21,37484,0.0-9.0-0.0,,,,,,mood_trial_fixation,exB9lm4JDiU6vEG8nNRSXaowpVI2,,,,,,,,,,,,,,,,,,,,,,,63d8267294c685a091016df0,09:11:34,27/02/2024
lmdlab-html-vas-response,22,42345,0.0-9.0-1.0,3839.0,How happy are you right now?,0.654320987654321,delaylearn,learning,mood_trial,exB9lm4JDiU6vEG8nNRSXaowpVI2,exB9lm4JDiU6vEG8nNRSXaowpVI2,,,,,,,,,,,,,,,,,,,,"['Very unhappy', 'Very happy']",,63d8267294c685a091016df0,09:11:34,27/02/2024
html-keyboard-response,23,44439,0.0-10.0,,"<div style=""font-size:100px;"">+</div>",,delaylearn,learning,ITI,exB9lm4JDiU6vEG8nNRSXaowpVI2,exB9lm4JDiU6vEG8nNRSXaowpVI2,,,,,,,,,,,,,,,,,,,2082.0,,,63d8267294c685a091016df0,09:11:34,27/02/2024
html-keyboard-response,24,46174,0.0-11.0-0.0,1732.5999999940395,"<div style=""display: flex; flex-direction: column; align-items: center; margin-top: -40px;""><img src=""images/demo_images/pattern_1.png"" style=""width: 234px; height: 230px; margin-top: -50px;""><div style=""display: flex; justify-content: space-between; margin-top: 33px;""><img src=""images/demo_images/choice_trial_2.png"" style=""width: 408px; height: 417px; margin-right: 200px;""><img src=""images/demo_images/choice_trial_1.png"" style=""width: 408px; height: 417px;""></div></div>",j,delaylearn,learning,trial,exB9lm4JDiU6vEG8nNRSXaowpVI2,exB9lm4JDiU6vEG8nNRSXaowpVI2,4.0,images/demo_images/choice_trial_2.png,images/demo_images/choice_trial_1.png,images/demo_images/pattern_1.png,j,j,3000.0,2.0,1.0,20.0,1.0,5.0,1.0,1.0,1.0,20.0,,,,,,63d8267294c685a091016df0,09:11:34,27/02/2024
html-keyboard-response,25,47181,0.0-11.0-1.0,,"<div style=""display: flex; flex-direction: column; align-items: center; margin-top: -40px;""><img src=""images/demo_images/pattern_1.png"" style=""width: 234px; height: 230px; margin-top: -50px;""><div style=""display: flex; justify-content: space-between; margin-top: 33px;""><img src=""images/demo_images/choice_trial_1.png"" style=""width: 408px; height: 417px; margin-left:608px;""></div></div>",,delaylearn,learning,display_response,exB9lm4JDiU6vEG8nNRSXaowpVI2,exB9lm4JDiU6vEG8nNRSXaowpVI2,,,,,,,,,,,,,,,,,chosen stimuli: images/demo_images/choice_trial_1.png,,,,,63d8267294c685a091016df0,09:11:34,27/02/2024
html-keyboard-response,26,50194,0.0-11.0-2.0,,,,delaylearn,learning,feedback_duration_window,exB9lm4JDiU6vEG8nNRSXaowpVI2,exB9lm4JDiU6vEG8nNRSXaowpVI2,,,,,,,,,,,,,,,,,,3000.0,,,,63d8267294c685a091016df0,09:11:34,27/02/2024
html-keyboard-response,27,51709,0.0-11.0-3.0,,<div style='margin:auto;width: auto; font-size: 150%'><span style='font-weight: bold; font-size: 100px; color: green;'>+10 points!</span><br><br></div>,,delaylearn,learning,feedback_image_window,exB9lm4JDiU6vEG8nNRSXaowpVI2,exB9lm4JDiU6vEG8nNRSXaowpVI2,,,,,,,,,,,,,,,,,,,,,,63d8267294c685a091016df0,09:11:34,27/02/2024
html-keyboard-response,28,53398,0.0-12.0,,"<div style=""font-size:100px;"">+</div>",,delaylearn,learning,ITI,exB9lm4JDiU6vEG8nNRSXaowpVI2,exB9lm4JDiU6vEG8nNRSXaowpVI2,,,,,,,,,,,,,,,,,,,1686.0,,,63d8267294c685a091016df0,09:11:34,27/02/2024
html-keyboard-response,29,54527,0.0-13.0-0.0,1126.7000000029802,"<div style=""display: flex; flex-direction: column; align-items: center; margin-top: -40px;""><img src=""images/demo_images/pattern_1.png"" style=""width: 234px; height: 230px; margin-top: -50px;""><div style=""display: flex; justify-content: space-between; margin-top: 33px;""><img src=""images/demo_images/choice_trial_1.png"" style=""width: 408px; height: 417px; margin-right: 200px;""><img src=""images/demo_images/choice_trial_2.png"" style=""width: 408px; height: 417px;""></div></div>",f,delaylearn,learning,trial,exB9lm4JDiU6vEG8nNRSXaowpVI2,exB9lm4JDiU6vEG8nNRSXaowpVI2,4.0,images/demo_images/choice_trial_1.png,images/demo_images/choice_trial_2.png,images/demo_images/pattern_1.png,f,f,3000.0,1.0,2.0,20.0,0.0,6.0,1.0,1.0,1.0,30.0,,,,,,63d8267294c685a091016df0,09:11:34,27/02/2024
html-keyboard-response,30,55541,0.0-13.0-1.0,,"<div style=""display: flex; flex-direction: column; align-items: center; margin-top: -40px;""><img src=""images/demo_images/pattern_1.png"" style=""width: 234px; height: 230px; margin-top: -50px;""><div style=""display: flex; justify-content: space-between; margin-top: 33px;""><img src=""images/demo_images/choice_trial_1.png"" style=""width: 408px; height: 417px; margin-right: 608px;""></div></div>",,delaylearn,learning,display_response,exB9lm4JDiU6vEG8nNRSXaowpVI2,exB9lm4JDiU6vEG8nNRSXaowpVI2,,,,,,,,,,,,,,,,,chosen stimuli: images/demo_images/choice_trial_1.png,,,,,63d8267294c685a091016df0,09:11:34,27/02/2024
html-keyboard-response,31,58551,0.0-13.0-2.0,,,,delaylearn,learning,feedback_duration_window,exB9lm4JDiU6vEG8nNRSXaowpVI2,exB9lm4JDiU6vEG8nNRSXaowpVI2,,,,,,,,,,,,,,,,,,3000.0,,,,63d8267294c685a091016df0,09:11:34,27/02/2024
html-keyboard-response,32,60066,0.0-13.0-3.0,,<div style='margin:auto;width: auto; font-size: 150%'><span style='font-weight: bold; font-size: 100px; color: green;'>+10 points!</span><br><br></div>,,delaylearn,learning,feedback_image_window,exB9lm4JDiU6vEG8nNRSXaowpVI2,exB9lm4JDiU6vEG8nNRSXaowpVI2,,,,,,,,,,,,,,,,,,,,,,63d8267294c685a091016df0,09:11:34,27/02/2024
html-button-response,33,65552,0.0-14.0,5484.600000008941,"
  <div style=""display: flex; align-items: center; justify-content: center; height: 80vh;"">
  <div>
          <img src=""images/inst_demo_finish.png"" style=""width: 80vw; height:auto;"">
          <br><br>
      </div>
      <br><br>
  </div>",0,,,,exB9lm4JDiU6vEG8nNRSXaowpVI2,,,,,,,,,,,,,,,,,,,,,,,63d8267294c685a091016df0,09:11:34,27/02/2024
html-keyboard-response,34,79952,0.0-15.0,14399.20000000298,"
  <div style=""display: flex; align-items: center; justify-content: center; height: 80vh;"">
  <div>
          <img src=""images/inst_6.png"" style=""width: 80vw; height:auto;"">
          <br><br>
      </div>
      <br><br>
  </div>",j,,,,exB9lm4JDiU6vEG8nNRSXaowpVI2,,,,,,,,,,,,,,,,,,,,,,,63d8267294c685a091016df0,09:11:34,27/02/2024
html-keyboard-response,35,82954,0.0-16.0,,"<div style=""font-size:100px;"">+</div>",,delaylearn,learning,pre_fixation,exB9lm4JDiU6vEG8nNRSXaowpVI2,,,,,,,,,,,,,,,,,,,,,,,63d8267294c685a091016df0,09:11:34,27/02/2024
html-keyboard-response,36,84907,0.0-17.0,,"<div style=""font-size:100px;"">+</div>",,delaylearn,learning,ITI,exB9lm4JDiU6vEG8nNRSXaowpVI2,exB9lm4JDiU6vEG8nNRSXaowpVI2,,,,,,,,,,,,,,,,,,,1946.0,,,63d8267294c685a091016df0,09:11:34,27/02/2024
html-keyboard-response,37,85864,0.0-18.0-0.0,954.9000000059605,"<div style=""display: flex; flex-direction: column; align-items: center; margin-top: -40px;""><img src=""images/pattern_3.png"" style=""width: 234px; height: 230px; margin-top: -50px;""><div style=""display: flex; justify-content: space-between; margin-top: 33px;""><img src=""images/choice_trial_16.png"" style=""width: 408px; height: 417px; margin-right: 200px;""><img src=""images/choice_trial_6.png"" style=""width: 408px; height: 417px;""></div></div>",j,delaylearn,learning,trial,exB9lm4JDiU6vEG8nNRSXaowpVI2,exB9lm4JDiU6vEG8nNRSXaowpVI2,4.0,images/choice_trial_16.png,images/choice_trial_6.png,images/pattern_3.png,f,f,7000.0,16.0,6.0,2.0,0.0,7.0,0.0,0.0,6.0,30.0,,,,,,63d8267294c685a091016df0,09:11:34,27/02/2024
html-keyboard-response,38,86874,0.0-18.0-1.0,,"<div style=""display: flex; flex-direction: column; align-items: center; margin-top: -40px;""><img src=""images/pattern_3.png"" style=""width: 234px; height: 230px; margin-top: -50px;""><div style=""display: flex; justify-content: space-between; margin-top: 33px;""><img src=""images/choice_trial_6.png"" style=""width: 408px; height: 417px; margin-left:608px;""></div></div>",,delaylearn,learning,display_response,exB9lm4JDiU6vEG8nNRSXaowpVI2,exB9lm4JDiU6vEG8nNRSXaowpVI2,,,,,,,,,,,,,,,,,chosen stimuli: images/choice_trial_6.png,,,,,63d8267294c685a091016df0,09:11:34,27/02/2024
html-keyboard-response,39,93879,0.0-18.0-2.0,,,,delaylearn,learning,feedback_duration_window,exB9lm4JDiU6vEG8nNRSXaowpVI2,exB9lm4JDiU6vEG8nNRSXaowpVI2,,,,,,,,,,,,,,,,,,7000.0,,,,63d8267294c685a091016df0,09:11:34,27/02/2024
html-keyboard-response,40,95389,0.0-18.0-3.0,,<div style='margin:auto;width: auto; font-size: 150%'><span style='font-weight: bold; font-size: 100px; color: red;'>0 points!</span><br><br></div>,,delaylearn,learning,feedback_image_window,exB9lm4JDiU6vEG8nNRSXaowpVI2,exB9lm4JDiU6vEG8nNRSXaowpVI2,,,,,,,,,,,,,,,,,,,,,,63d8267294c685a091016df0,09:11:34,27/02/2024
html-keyboard-response,41,97605,0.0-19.0,,"<div style=""font-size:100px;"">+</div>",,delaylearn,learning,ITI,exB9lm4JDiU6vEG8nNRSXaowpVI2,exB9lm4JDiU6vEG8nNRSXaowpVI2,,,,,,,,,,,,,,,,,,,2202.0,,,63d8267294c685a091016df0,09:11:34,27/02/2024
html-keyboard-response,42,98854,0.0-20.0-0.0,1246.3999999910593,"<div style=""display: flex; flex-direction: column; align-items: center; margin-top: -40px;""><img src=""images/pattern_7.png"" style=""width: 234px; height: 230px; margin-top: -50px;""><div style=""display: flex; justify-content: space-between; margin-top: 33px;""><img src=""images/choice_trial_4.png"" style=""width: 408px; height: 417px; margin-right: 200px;""><img src=""images/choice_trial_13.png"" style=""width: 408px; height: 417px;""></div></div>",f,delaylearn,learning,trial,exB9lm4JDiU6vEG8nNRSXaowpVI2,exB9lm4JDiU6vEG8nNRSXaowpVI2,4.0,images/choice_trial_4.png,images/choice_trial_13.png,images/pattern_7.png,j,j,750.0,4.0,13.0,6.0,1.0,8.0,0.0,0.0,4.0,30.0,,,,,,63d8267294c685a091016df0,09:11:34,27/02/2024
html-keyboard-response,43,99866,0.0-20.0-1.0,,"<div style=""display: flex; flex-direction: column; align-items: center; margin-top: -40px;""><img src=""images/pattern_7.png"" style=""width: 234px; height: 230px; margin-top: -50px;""><div style=""display: flex; justify-content: space-between; margin-top: 33px;""><img src=""images/choice_trial_4.png"" style=""width: 408px; height: 417px; margin-right: 608px;""></div></div>",,delaylearn,learning,display_response,exB9lm4JDiU6vEG8nNRSXaowpVI2,exB9lm4JDiU6vEG8nNRSXaowpVI2,,,,,,,,,,,,,,,,,chosen stimuli: images/choice_trial_4.png,,,,,63d8267294c685a091016df0,09:11:34,27/02/2024
html-keyboard-response,44,100627,0.0-20.0-2.0,,,,delaylearn,learning,feedback_duration_window,exB9lm4JDiU6vEG8nNRSXaowpVI2,exB9lm4JDiU6vEG8nNRSXaowpVI2,,,,,,,,,,,,,,,,,,750.0,,,,63d8267294c685a091016df0,09:11:34,27/02/2024
html-keyboard-response,45,102136,0.0-20.0-3.0,,<div style='margin:auto;width: auto; font-size: 150%'><span style='font-weight: bold; font-size: 100px; color: red;'>0 points!</span><br><br></div>,,delaylearn,learning,feedback_image_window,exB9lm4JDiU6vEG8nNRSXaowpVI2,exB9lm4JDiU6vEG8nNRSXaowpVI2,,,,,,,,,,,,,,,,,,,,,,63d8267294c685a091016df0,09:11:34,27/02/2024
html-keyboard-response,46,104118,0.0-21.0,,"<div style=""font-size:100px;"">+</div>",,delaylearn,learning,ITI,exB9lm4JDiU6vEG8nNRSXaowpVI2,exB9lm4JDiU6vEG8nNRSXaowpVI2,,,,,,,,,,,,,,,,,,,1980.0,,,63d8267294c685a091016df0,09:11:34,27/02/2024
html-keyboard-response,47,105305,0.0-22.0-0.0,1184.300000011921,"<div style=""display: flex; flex-direction: column; align-items: center; margin-top: -40px;""><img src=""images/pattern_4.png"" style=""width: 234px; height: 230px; margin-top: -50px;""><div style=""display: flex; justify-content: space-between; margin-top: 33px;""><img src=""images/choice_trial_8.png"" style=""width: 408px; height: 417px; margin-right: 200px;""><img src=""images/choice_trial_7.png"" style=""width: 408px; height: 417px;""></div></div>",j,delaylearn,learning,trial,exB9lm4JDiU6vEG8nNRSXaowpVI2,exB9lm4JDiU6vEG8nNRSXaowpVI2,4.0,images/choice_trial_8.png,images/choice_trial_7.png,images/pattern_4.png,f,f,7000.0,8.0,7.0,3.0,0.0,9.0,0.0,0.0,7.0,30.0,,,,,,63d8267294c685a091016df0,09:11:34,27/02/2024
html-keyboard-response,48,106317,0.0-22.0-1.0,,"<div style=""display: flex; flex-direction: column; align-items: center; margin-top: -40px;""><img src=""images/pattern_4.png"" style=""width: 234px; height: 230px; margin-top: -50px;""><div style=""display: flex; justify-content: space-between; margin-top: 33px;""><img src=""images/choice_trial_7.png"" style=""width: 408px; height: 417px; margin-left:608px;""></div></div>",,delaylearn,learning,display_response,exB9lm4JDiU6vEG8nNRSXaowpVI2,exB9lm4JDiU6vEG8nNRSXaowpVI2,,,,,,,,,,,,,,,,,chosen stimuli: images/choice_trial_7.png,,,,,63d8267294c685a091016df0,09:11:34,27/02/2024
html-keyboard-response,49,113319,0.0-22.0-2.0,,,,delaylearn,learning,feedback_duration_window,exB9lm4JDiU6vEG8nNRSXaowpVI2,exB9lm4JDiU6vEG8nNRSXaowpVI2,,,,,,,,,,,,,,,,,,7000.0,,,,63d8267294c685a091016df0,09:11:34,27/02/2024
html-keyboard-response,50,114834,0.0-22.0-3.0,,<div style='margin:auto;width: auto; font-size: 150%'><span style='font-weight: bold; font-size: 100px; color: red;'>0 points!</span><br><br></div>,,delaylearn,learning,feedback_image_window,exB9lm4JDiU6vEG8nNRSXaowpVI2,exB9lm4JDiU6vEG8nNRSXaowpVI2,,,,,,,,,,,,,,,,,,,,,,63d8267294c685a091016df0,09:11:34,27/02/2024
html-keyboard-response,51,117018,0.0-23.0,,"<div style=""font-size:100px;"">+</div>",,delaylearn,learning,ITI,exB9lm4JDiU6vEG8nNRSXaowpVI2,exB9lm4JDiU6vEG8nNRSXaowpVI2,,,,,,,,,,,,,,,,,,,2182.0,,,63d8267294c685a091016df0,09:11:34,27/02/2024
html-keyboard-response,52,118854,0.0-24.0-0.0,1833.7999999970198,"<div style=""display: flex; flex-direction: column; align-items: center; margin-top: -40px;""><img src=""images/pattern_5.png"" style=""width: 234px; height: 230px; margin-top: -50px;""><div style=""display: flex; justify-content: space-between; margin-top: 33px;""><img src=""images/choice_trial_15.png"" style=""width: 408px; height: 417px; margin-right: 200px;""><img src=""images/choice_trial_5.png"" style=""width: 408px; height: 417px;""></div></div>",j,delaylearn,learning,trial,exB9lm4JDiU6vEG8nNRSXaowpVI2,exB9lm4JDiU6vEG8nNRSXaowpVI2,4.0,images/choice_trial_15.png,images/choice_trial_5.png,images/pattern_5.png,j,j,750.0,15.0,5.0,4.0,1.0,10.0,1.0,1.0,5.0,40.0,,,,,,63d8267294c685a091016df0,09:11:34,27/02/2024
html-keyboard-response,53,119862,0.0-24.0-1.0,,"<div style=""display: flex; flex-direction: column; align-items: center; margin-top: -40px;""><img src=""images/pattern_5.png"" style=""width: 234px; height: 230px; margin-top: -50px;""><div style=""display: flex; justify-content: space-between; margin-top: 33px;""><img src=""images/choice_trial_5.png"" style=""width: 408px; height: 417px; margin-left:608px;""></div></div>",,delaylearn,learning,display_response,exB9lm4JDiU6vEG8nNRSXaowpVI2,exB9lm4JDiU6vEG8nNRSXaowpVI2,,,,,,,,,,,,,,,,,chosen stimuli: images/choice_trial_5.png,,,,,63d8267294c685a091016df0,09:11:34,27/02/2024
html-keyboard-response,54,120628,0.0-24.0-2.0,,,,delaylearn,learning,feedback_duration_window,exB9lm4JDiU6vEG8nNRSXaowpVI2,exB9lm4JDiU6vEG8nNRSXaowpVI2,,,,,,,,,,,,,,,,,,750.0,,,,63d8267294c685a091016df0,09:11:34,27/02/2024
html-keyboard-response,55,122141,0.0-24.0-3.0,,<div style='margin:auto;width: auto; font-size: 150%'><span style='font-weight: bold; font-size: 100px; color: green;'>+10 points!</span><br><br></div>,,delaylearn,learning,feedback_image_window,exB9lm4JDiU6vEG8nNRSXaowpVI2,exB9lm4JDiU6vEG8nNRSXaowpVI2,,,,,,,,,,,,,,,,,,,,,,63d8267294c685a091016df0,09:11:34,27/02/2024
html-keyboard-response,56,124229,0.0-25.0,,"<div style=""font-size:100px;"">+</div>",,delaylearn,learning,ITI,exB9lm4JDiU6vEG8nNRSXaowpVI2,exB9lm4JDiU6vEG8nNRSXaowpVI2,,,,,,,,,,,,,,,,,,,2074.0,,,63d8267294c685a091016df0,09:11:34,27/02/2024
html-keyboard-response,57,125575,0.0-26.0-0.0,1343.7999999970198,"<div style=""display: flex; flex-direction: column; align-items: center; margin-top: -40px;""><img src=""images/pattern_6.png"" style=""width: 234px; height: 230px; margin-top: -50px;""><div style=""display: flex; justify-content: space-between; margin-top: 33px;""><img src=""images/choice_trial_10.png"" style=""width: 408px; height: 417px; margin-right: 200px;""><img src=""images/choice_trial_3.png"" style=""width: 408px; height: 417px;""></div></div>",f,delaylearn,learning,trial,exB9lm4JDiU6vEG8nNRSXaowpVI2,exB9lm4JDiU6vEG8nNRSXaowpVI2,4.0,images/choice_trial_10.png,images/choice_trial_3.png,images/pattern_6.png,j,f,750.0,10.0,3.0,5.0,0.0,11.0,1.0,0.0,10.0,40.0,,,,,,63d8267294c685a091016df0,09:11:34,27/02/2024
html-keyboard-response,58,126584,0.0-26.0-1.0,,"<div style=""display: flex; flex-direction: column; align-items: center; margin-top: -40px;""><img src=""images/pattern_6.png"" style=""width: 234px; height: 230px; margin-top: -50px;""><div style=""display: flex; justify-content: space-between; margin-top: 33px;""><img src=""images/choice_trial_10.png"" style=""width: 408px; height: 417px; margin-right: 608px;""></div></div>",,delaylearn,learning,display_response,exB9lm4JDiU6vEG8nNRSXaowpVI2,exB9lm4JDiU6vEG8nNRSXaowpVI2,,,,,,,,,,,,,,,,,chosen stimuli: images/choice_trial_10.png,,,,,63d8267294c685a091016df0,09:11:34,27/02/2024
html-keyboard-response,59,127336,0.0-26.0-2.0,,,,delaylearn,learning,feedback_duration_window,exB9lm4JDiU6vEG8nNRSXaowpVI2,exB9lm4JDiU6vEG8nNRSXaowpVI2,,,,,,,,,,,,,,,,,,750.0,,,,63d8267294c685a091016df0,09:11:34,27/02/2024
html-keyboard-response,60,128851,0.0-26.0-3.0,,<div style='margin:auto;width: auto; font-size: 150%'><span style='font-weight: bold; font-size: 100px; color: red;'>0 points!</span><br><br></div>,,delaylearn,learning,feedback_image_window,exB9lm4JDiU6vEG8nNRSXaowpVI2,exB9lm4JDiU6vEG8nNRSXaowpVI2,,,,,,,,,,,,,,,,,,,,,,63d8267294c685a091016df0,09:11:34,27/02/2024
html-keyboard-response,61,129365,0.0-27.0-0.0,,,,,,mood_trial_fixation,exB9lm4JDiU6vEG8nNRSXaowpVI2,,,,,,,,,,,,,,,,,,,,,,,63d8267294c685a091016df0,09:11:34,27/02/2024
lmdlab-html-vas-response,62,134836,0.0-27.0-1.0,4457.0,How happy are you right now?,0.6373456790123457,delaylearn,learning,mood_trial,exB9lm4JDiU6vEG8nNRSXaowpVI2,exB9lm4JDiU6vEG8nNRSXaowpVI2,,,,,,,,,,,,,,,,,,,,"['Very unhappy', 'Very happy']",,63d8267294c685a091016df0,09:11:34,27/02/2024
html-keyboard-response,63,136595,0.0-28.0,,"<div style=""font-size:100px;"">+</div>",,delaylearn,learning,ITI,exB9lm4JDiU6vEG8nNRSXaowpVI2,exB9lm4JDiU6vEG8nNRSXaowpVI2,,,,,,,,,,,,,,,,,,,1746.0,,,63d8267294c685a091016df0,09:11:34,27/02/2024
html-keyboard-response,64,138033,0.0-29.0-0.0,1436.6000000089407,"<div style=""display: flex; flex-direction: column; align-items: center; margin-top: -40px;""><img src=""images/pattern_1.png"" style=""width: 234px; height: 230px; margin-top: -50px;""><div style=""display: flex; justify-content: space-between; margin-top: 33px;""><img src=""images/choice_trial_9.png"" style=""width: 408px; height: 417px; margin-right: 200px;""><img src=""images/choice_trial_1.png"" style=""width: 408px; height: 417px;""></div></div>",j,delaylearn,learning,trial,exB9lm4JDiU6vEG8nNRSXaowpVI2,exB9lm4JDiU6vEG8nNRSXaowpVI2,4.0,images/choice_trial_9.png,images/choice_trial_1.png,images/pattern_1.png,j,j,7000.0,9.0,1.0,1.0,1.0,12.0,1.0,1.0,1.0,50.0,,,,,,63d8267294c685a091016df0,09:11:34,27/02/2024
html-keyboard-response,65,139044,0.0-29.0-1.0,,"<div style=""display: flex; flex-direction: column; align-items: center; margin-top: -40px;""><img src=""images/pattern_1.png"" style=""width: 234px; height: 230px; margin-top: -50px;""><div style=""display: flex; justify-content: space-between; margin-top: 33px;""><img src=""images/choice_trial_1.png"" style=""width: 408px; height: 417px; margin-left:608px;""></div></div>",,delaylearn,learning,display_response,exB9lm4JDiU6vEG8nNRSXaowpVI2,exB9lm4JDiU6vEG8nNRSXaowpVI2,,,,,,,,,,,,,,,,,chosen stimuli: images/choice_trial_1.png,,,,,63d8267294c685a091016df0,09:11:34,27/02/2024
html-keyboard-response,66,146057,0.0-29.0-2.0,,,,delaylearn,learning,feedback_duration_window,exB9lm4JDiU6vEG8nNRSXaowpVI2,exB9lm4JDiU6vEG8nNRSXaowpVI2,,,,,,,,,,,,,,,,,,7000.0,,,,63d8267294c685a091016df0,09:11:34,27/02/2024
html-keyboard-response,67,147567,0.0-29.0-3.0,,<div style='margin:auto;width: auto; font-size: 150%'><span style='font-weight: bold; font-size: 100px; color: green;'>+10 points!</span><br><br></div>,,delaylearn,learning,feedback_image_window,exB9lm4JDiU6vEG8nNRSXaowpVI2,exB9lm4JDiU6vEG8nNRSXaowpVI2,,,,,,,,,,,,,,,,,,,,,,63d8267294c685a091016df0,09:11:34,27/02/2024
html-keyboard-response,68,149911,0.0-30.0,,"<div style=""font-size:100px;"">+</div>",,delaylearn,learning,ITI,exB9lm4JDiU6vEG8nNRSXaowpVI2,exB9lm4JDiU6vEG8nNRSXaowpVI2,,,,,,,,,,,,,,,,,,,2339.0,,,63d8267294c685a091016df0,09:11:34,27/02/2024
html-keyboard-response,69,151054,0.0-31.0-0.0,1140.1000000089407,"<div style=""display: flex; flex-direction: column; align-items: center; margin-top: -40px;""><img src=""images/pattern_3.png"" style=""width: 234px; height: 230px; margin-top: -50px;""><div style=""display: flex; justify-content: space-between; margin-top: 33px;""><img src=""images/choice_trial_6.png"" style=""width: 408px; height: 417px; margin-right: 200px;""><img src=""images/choice_trial_16.png"" style=""width: 408px; height: 417px;""></div></div>",f,delaylearn,learning,trial,exB9lm4JDiU6vEG8nNRSXaowpVI2,exB9lm4JDiU6vEG8nNRSXaowpVI2,4.0,images/choice_trial_6.png,images/choice_trial_16.png,images/pattern_3.png,f,j,7000.0,6.0,16.0,2.0,1.0,13.0,0.0,1.0,6.0,60.0,,,,,,63d8267294c685a091016df0,09:11:34,27/02/2024
html-keyboard-response,70,152066,0.0-31.0-1.0,,"<div style=""display: flex; flex-direction: column; align-items: center; margin-top: -40px;""><img src=""images/pattern_3.png"" style=""width: 234px; height: 230px; margin-top: -50px;""><div style=""display: flex; justify-content: space-between; margin-top: 33px;""><img src=""images/choice_trial_6.png"" style=""width: 408px; height: 417px; margin-right: 608px;""></div></div>",,delaylearn,learning,display_response,exB9lm4JDiU6vEG8nNRSXaowpVI2,exB9lm4JDiU6vEG8nNRSXaowpVI2,,,,,,,,,,,,,,,,,chosen stimuli: images/choice_trial_6.png,,,,,63d8267294c685a091016df0,09:11:34,27/02/2024
html-keyboard-response,71,159071,0.0-31.0-2.0,,,,delaylearn,learning,feedback_duration_window,exB9lm4JDiU6vEG8nNRSXaowpVI2,exB9lm4JDiU6vEG8nNRSXaowpVI2,,,,,,,,,,,,,,,,,,7000.0,,,,63d8267294c685a091016df0,09:11:34,27/02/2024
html-keyboard-response,72,160588,0.0-31.0-3.0,,<div style='margin:auto;width: auto; font-size: 150%'><span style='font-weight: bold; font-size: 100px; color: green;'>+10 points!</span><br><br></div>,,delaylearn,learning,feedback_image_window,exB9lm4JDiU6vEG8nNRSXaowpVI2,exB9lm4JDiU6vEG8nNRSXaowpVI2,,,,,,,,,,,,,,,,,,,,,,63d8267294c685a091016df0,09:11:34,27/02/2024
html-keyboard-response,73,162954,0.0-32.0,,"<div style=""font-size:100px;"">+</div>",,delaylearn,learning,ITI,exB9lm4JDiU6vEG8nNRSXaowpVI2,exB9lm4JDiU6vEG8nNRSXaowpVI2,,,,,,,,,,,,,,,,,,,2357.0,,,63d8267294c685a091016df0,09:11:34,27/02/2024
html-keyboard-response,74,164227,0.0-33.0-0.0,1271.0,"<div style=""display: flex; flex-direction: column; align-items: center; margin-top: -40px;""><img src=""images/pattern_5.png"" style=""width: 234px; height: 230px; margin-top: -50px;""><div style=""display: flex; justify-content: space-between; margin-top: 33px;""><img src=""images/choice_trial_5.png"" style=""width: 408px; height: 417px; margin-right: 200px;""><img src=""images/choice_trial_15.png"" style=""width: 408px; height: 417px;""></div></div>",f,delaylearn,learning,trial,exB9lm4JDiU6vEG8nNRSXaowpVI2,exB9lm4JDiU6vEG8nNRSXaowpVI2,4.0,images/choice_trial_5.png,images/choice_trial_15.png,images/pattern_5.png,f,f,750.0,5.0,15.0,4.0,0.0,14.0,1.0,1.0,5.0,70.0,,,,,,63d8267294c685a091016df0,09:11:34,27/02/2024
html-keyboard-response,75,165230,0.0-33.0-1.0,,"<div style=""display: flex; flex-direction: column; align-items: center; margin-top: -40px;""><img src=""images/pattern_5.png"" style=""width: 234px; height: 230px; margin-top: -50px;""><div style=""display: flex; justify-content: space-between; margin-top: 33px;""><img src=""images/choice_trial_5.png"" style=""width: 408px; height: 417px; margin-right: 608px;""></div></div>",,delaylearn,learning,display_response,exB9lm4JDiU6vEG8nNRSXaowpVI2,exB9lm4JDiU6vEG8nNRSXaowpVI2,,,,,,,,,,,,,,,,,chosen stimuli: images/choice_trial_5.png,,,,,63d8267294c685a091016df0,09:11:34,27/02/2024
html-keyboard-response,76,165995,0.0-33.0-2.0,,,,delaylearn,learning,feedback_duration_window,exB9lm4JDiU6vEG8nNRSXaowpVI2,exB9lm4JDiU6vEG8nNRSXaowpVI2,,,,,,,,,,,,,,,,,,750.0,,,,63d8267294c685a091016df0,09:11:34,27/02/2024
html-keyboard-response,77,167508,0.0-33.0-3.0,,<div style='margin:auto;width: auto; font-size: 150%'><span style='font-weight: bold; font-size: 100px; color: green;'>+10 points!</span><br><br></div>,,delaylearn,learning,feedback_image_window,exB9lm4JDiU6vEG8nNRSXaowpVI2,exB9lm4JDiU6vEG8nNRSXaowpVI2,,,,,,,,,,,,,,,,,,,,,,63d8267294c685a091016df0,09:11:34,27/02/2024
html-keyboard-response,78,168024,0.0-34.0-0.0,,,,,,mood_trial_fixation,exB9lm4JDiU6vEG8nNRSXaowpVI2,,,,,,,,,,,,,,,,,,,,,,,63d8267294c685a091016df0,09:11:34,27/02/2024
lmdlab-html-vas-response,79,172284,0.0-34.0-1.0,3244.0,How happy are you right now?,0.6095679012345679,delaylearn,learning,mood_trial,exB9lm4JDiU6vEG8nNRSXaowpVI2,exB9lm4JDiU6vEG8nNRSXaowpVI2,,,,,,,,,,,,,,,,,,,,"['Very unhappy', 'Very happy']",,63d8267294c685a091016df0,09:11:34,27/02/2024
html-keyboard-response,80,174191,0.0-35.0,,"<div style=""font-size:100px;"">+</div>",,delaylearn,learning,ITI,exB9lm4JDiU6vEG8nNRSXaowpVI2,exB9lm4JDiU6vEG8nNRSXaowpVI2,,,,,,,,,,,,,,,,,,,1889.0,,,63d8267294c685a091016df0,09:11:34,27/02/2024
html-keyboard-response,81,176081,0.0-36.0-0.0,1887.8999999910593,"<div style=""display: flex; flex-direction: column; align-items: center; margin-top: -40px;""><img src=""images/pattern_6.png"" style=""width: 234px; height: 230px; margin-top: -50px;""><div style=""display: flex; justify-content: space-between; margin-top: 33px;""><img src=""images/choice_trial_10.png"" style=""width: 408px; height: 417px; margin-right: 200px;""><img src=""images/choice_trial_3.png"" style=""width: 408px; height: 417px;""></div></div>",f,delaylearn,learning,trial,exB9lm4JDiU6vEG8nNRSXaowpVI2,exB9lm4JDiU6vEG8nNRSXaowpVI2,4.0,images/choice_trial_10.png,images/choice_trial_3.png,images/pattern_6.png,f,f,750.0,10.0,3.0,5.0,0.0,15.0,1.0,1.0,10.0,80.0,,,,,,63d8267294c685a091016df0,09:11:34,27/02/2024
html-keyboard-response,82,177095,0.0-36.0-1.0,,"<div style=""display: flex; flex-direction: column; align-items: center; margin-top: -40px;""><img src=""images/pattern_6.png"" style=""width: 234px; height: 230px; margin-top: -50px;""><div style=""display: flex; justify-content: space-between; margin-top: 33px;""><img src=""images/choice_trial_10.png"" style=""width: 408px; height: 417px; margin-right: 608px;""></div></div>",,delaylearn,learning,display_response,exB9lm4JDiU6vEG8nNRSXaowpVI2,exB9lm4JDiU6vEG8nNRSXaowpVI2,,,,,,,,,,,,,,,,,chosen stimuli: images/choice_trial_10.png,,,,,63d8267294c685a091016df0,09:11:34,27/02/2024
html-keyboard-response,83,177850,0.0-36.0-2.0,,,,delaylearn,learning,feedback_duration_window,exB9lm4JDiU6vEG8nNRSXaowpVI2,exB9lm4JDiU6vEG8nNRSXaowpVI2,,,,,,,,,,,,,,,,,,750.0,,,,63d8267294c685a091016df0,09:11:34,27/02/2024
html-keyboard-response,84,179363,0.0-36.0-3.0,,<div style='margin:auto;width: auto; font-size: 150%'><span style='font-weight: bold; font-size: 100px; color: green;'>+10 points!</span><br><br></div>,,delaylearn,learning,feedback_image_window,exB9lm4JDiU6vEG8nNRSXaowpVI2,exB9lm4JDiU6vEG8nNRSXaowpVI2,,,,,,,,,,,,,,,,,,,,,,63d8267294c685a091016df0,09:11:34,27/02/2024
html-keyboard-response,85,181175,0.0-37.0,,"<div style=""font-size:100px;"">+</div>",,delaylearn,learning,ITI,exB9lm4JDiU6vEG8nNRSXaowpVI2,exB9lm4JDiU6vEG8nNRSXaowpVI2,,,,,,,,,,,,,,,,,,,1801.0,,,63d8267294c685a091016df0,09:11:34,27/02/2024
html-keyboard-response,86,182393,0.0-38.0-0.0,1215.5999999940395,"<div style=""display: flex; flex-direction: column; align-items: center; margin-top: -40px;""><img src=""images/pattern_4.png"" style=""width: 234px; height: 230px; margin-top: -50px;""><div style=""display: flex; justify-content: space-between; margin-top: 33px;""><img src=""images/choice_trial_7.png"" style=""width: 408px; height: 417px; margin-right: 200px;""><img src=""images/choice_trial_8.png"" style=""width: 408px; height: 417px;""></div></div>",f,delaylearn,learning,trial,exB9lm4JDiU6vEG8nNRSXaowpVI2,exB9lm4JDiU6vEG8nNRSXaowpVI2,4.0,images/choice_trial_7.png,images/choice_trial_8.png,images/pattern_4.png,j,j,7000.0,7.0,8.0,3.0,1.0,16.0,0.0,0.0,7.0,80.0,,,,,,63d8267294c685a091016df0,09:11:34,27/02/2024
html-keyboard-response,87,183404,0.0-38.0-1.0,,"<div style=""display: flex; flex-direction: column; align-items: center; margin-top: -40px;""><img src=""images/pattern_4.png"" style=""width: 234px; height: 230px; margin-top: -50px;""><div style=""display: flex; justify-content: space-between; margin-top: 33px;""><img src=""images/choice_trial_7.png"" style=""width: 408px; height: 417px; margin-right: 608px;""></div></div>",,delaylearn,learning,display_response,exB9lm4JDiU6vEG8nNRSXaowpVI2,exB9lm4JDiU6vEG8nNRSXaowpVI2,,,,,,,,,,,,,,,,,chosen stimuli: images/choice_trial_7.png,,,,,63d8267294c685a091016df0,09:11:34,27/02/2024
html-keyboard-response,88,190409,0.0-38.0-2.0,,,,delaylearn,learning,feedback_duration_window,exB9lm4JDiU6vEG8nNRSXaowpVI2,exB9lm4JDiU6vEG8nNRSXaowpVI2,,,,,,,,,,,,,,,,,,7000.0,,,,63d8267294c685a091016df0,09:11:34,27/02/2024
html-keyboard-response,89,191925,0.0-38.0-3.0,,<div style='margin:auto;width: auto; font-size: 150%'><span style='font-weight: bold; font-size: 100px; color: red;'>0 points!</span><br><br></div>,,delaylearn,learning,feedback_image_window,exB9lm4JDiU6vEG8nNRSXaowpVI2,exB9lm4JDiU6vEG8nNRSXaowpVI2,,,,,,,,,,,,,,,,,,,,,,63d8267294c685a091016df0,09:11:34,27/02/2024
html-keyboard-response,90,194396,0.0-39.0,,"<div style=""font-size:100px;"">+</div>",,delaylearn,learning,ITI,exB9lm4JDiU6vEG8nNRSXaowpVI2,exB9lm4JDiU6vEG8nNRSXaowpVI2,,,,,,,,,,,,,,,,,,,2466.0,,,63d8267294c685a091016df0,09:11:34,27/02/2024
html-keyboard-response,91,195381,0.0-40.0-0.0,983.7000000029802,"<div style=""display: flex; flex-direction: column; align-items: center; margin-top: -40px;""><img src=""images/pattern_7.png"" style=""width: 234px; height: 230px; margin-top: -50px;""><div style=""display: flex; justify-content: space-between; margin-top: 33px;""><img src=""images/choice_trial_13.png"" style=""width: 408px; height: 417px; margin-right: 200px;""><img src=""images/choice_trial_4.png"" style=""width: 408px; height: 417px;""></div></div>",j,delaylearn,learning,trial,exB9lm4JDiU6vEG8nNRSXaowpVI2,exB9lm4JDiU6vEG8nNRSXaowpVI2,4.0,images/choice_trial_13.png,images/choice_trial_4.png,images/pattern_7.png,j,f,750.0,13.0,4.0,6.0,0.0,17.0,0.0,1.0,4.0,90.0,,,,,,63d8267294c685a091016df0,09:11:34,27/02/2024
html-keyboard-response,92,196391,0.0-40.0-1.0,,"<div style=""display: flex; flex-direction: column; align-items: center; margin-top: -40px;""><img src=""images/pattern_7.png"" style=""width: 234px; height: 230px; margin-top: -50px;""><div style=""display: flex; justify-content: space-between; margin-top: 33px;""><img src=""images/choice_trial_4.png"" style=""width: 408px; height: 417px; margin-left:608px;""></div></div>",,delaylearn,learning,display_response,exB9lm4JDiU6vEG8nNRSXaowpVI2,exB9lm4JDiU6vEG8nNRSXaowpVI2,,,,,,,,,,,,,,,,,chosen stimuli: images/choice_trial_4.png,,,,,63d8267294c685a091016df0,09:11:34,27/02/2024
html-keyboard-response,93,197157,0.0-40.0-2.0,,,,delaylearn,learning,feedback_duration_window,exB9lm4JDiU6vEG8nNRSXaowpVI2,exB9lm4JDiU6vEG8nNRSXaowpVI2,,,,,,,,,,,,,,,,,,750.0,,,,63d8267294c685a091016df0,09:11:34,27/02/2024
html-keyboard-response,94,198675,0.0-40.0-3.0,,<div style='margin:auto;width: auto; font-size: 150%'><span style='font-weight: bold; font-size: 100px; color: green;'>+10 points!</span><br><br></div>,,delaylearn,learning,feedback_image_window,exB9lm4JDiU6vEG8nNRSXaowpVI2,exB9lm4JDiU6vEG8nNRSXaowpVI2,,,,,,,,,,,,,,,,,,,,,,63d8267294c685a091016df0,09:11:34,27/02/2024
html-keyboard-response,95,200203,0.0-41.0,,"<div style=""font-size:100px;"">+</div>",,delaylearn,learning,ITI,exB9lm4JDiU6vEG8nNRSXaowpVI2,exB9lm4JDiU6vEG8nNRSXaowpVI2,,,,,,,,,,,,,,,,,,,1516.0,,,63d8267294c685a091016df0,09:11:34,27/02/2024
html-keyboard-response,96,203216,0.0-42.0-0.0,,"<div style=""display: flex; flex-direction: column; align-items: center; margin-top: -40px;""><img src=""images/pattern_1.png"" style=""width: 234px; height: 230px; margin-top: -50px;""><div style=""display: flex; justify-content: space-between; margin-top: 33px;""><img src=""images/choice_trial_1.png"" style=""width: 408px; height: 417px; margin-right: 200px;""><img src=""images/choice_trial_9.png"" style=""width: 408px; height: 417px;""></div></div>",,delaylearn,learning,trial,exB9lm4JDiU6vEG8nNRSXaowpVI2,exB9lm4JDiU6vEG8nNRSXaowpVI2,4.0,images/choice_trial_1.png,images/choice_trial_9.png,images/pattern_1.png,f,f,7000.0,1.0,9.0,1.0,0.0,18.0,0.0,0.0,0.0,90.0,,,,,,63d8267294c685a091016df0,09:11:34,27/02/2024
html-keyboard-response,97,204230,0.0-42.0-1.0,,<div style='font-weight: bold; font-size: 75px; color: red;'>Missed Trial <br><br><br><br> Please respond faster</div>,,delaylearn,learning,display_response,exB9lm4JDiU6vEG8nNRSXaowpVI2,exB9lm4JDiU6vEG8nNRSXaowpVI2,,,,,,,,,,,,,,,,,Missed trial,,,,,63d8267294c685a091016df0,09:11:34,27/02/2024
html-keyboard-response,98,204236,0.0-42.0-2.0,,,,delaylearn,learning,feedback_duration_window,exB9lm4JDiU6vEG8nNRSXaowpVI2,exB9lm4JDiU6vEG8nNRSXaowpVI2,,,,,,,,,,,,,,,,,,0.0,,,,63d8267294c685a091016df0,09:11:34,27/02/2024
html-keyboard-response,99,204241,0.0-42.0-3.0,,,,delaylearn,learning,feedback_image_window,exB9lm4JDiU6vEG8nNRSXaowpVI2,exB9lm4JDiU6vEG8nNRSXaowpVI2,,,,,,,,,,,,,,,,,,,,,,63d8267294c685a091016df0,09:11:34,27/02/2024
html-keyboard-response,100,206041,0.0-43.0,,"<div style=""font-size:100px;"">+</div>",,delaylearn,learning,ITI,exB9lm4JDiU6vEG8nNRSXaowpVI2,exB9lm4JDiU6vEG8nNRSXaowpVI2,,,,,,,,,,,,,,,,,,,1798.0,,,63d8267294c685a091016df0,09:11:34,27/02/2024
html-keyboard-response,101,206660,0.0-44.0-0.0,616.9000000059605,"<div style=""display: flex; flex-direction: column; align-items: center; margin-top: -40px;""><img src=""images/pattern_6.png"" style=""width: 234px; height: 230px; margin-top: -50px;""><div style=""display: flex; justify-content: space-between; margin-top: 33px;""><img src=""images/choice_trial_3.png"" style=""width: 408px; height: 417px; margin-right: 200px;""><img src=""images/choice_trial_10.png"" style=""width: 408px; height: 417px;""></div></div>",j,delaylearn,learning,trial,exB9lm4JDiU6vEG8nNRSXaowpVI2,exB9lm4JDiU6vEG8nNRSXaowpVI2,4.0,images/choice_trial_3.png,images/choice_trial_10.png,images/pattern_6.png,j,j,750.0,3.0,10.0,5.0,1.0,19.0,1.0,1.0,10.0,100.0,,,,,,63d8267294c685a091016df0,09:11:34,27/02/2024
html-keyboard-response,102,207666,0.0-44.0-1.0,,"<div style=""display: flex; flex-direction: column; align-items: center; margin-top: -40px;""><img src=""images/pattern_6.png"" style=""width: 234px; height: 230px; margin-top: -50px;""><div style=""display: flex; justify-content: space-between; margin-top: 33px;""><img src=""images/choice_trial_10.png"" style=""width: 408px; height: 417px; margin-left:608px;""></div></div>",,delaylearn,learning,display_response,exB9lm4JDiU6vEG8nNRSXaowpVI2,exB9lm4JDiU6vEG8nNRSXaowpVI2,,,,,,,,,,,,,,,,,chosen stimuli: images/choice_trial_10.png,,,,,63d8267294c685a091016df0,09:11:34,27/02/2024
html-keyboard-response,103,208431,0.0-44.0-2.0,,,,delaylearn,learning,feedback_duration_window,exB9lm4JDiU6vEG8nNRSXaowpVI2,exB9lm4JDiU6vEG8nNRSXaowpVI2,,,,,,,,,,,,,,,,,,750.0,,,,63d8267294c685a091016df0,09:11:34,27/02/2024
html-keyboard-response,104,209942,0.0-44.0-3.0,,<div style='margin:auto;width: auto; font-size: 150%'><span style='font-weight: bold; font-size: 100px; color: green;'>+10 points!</span><br><br></div>,,delaylearn,learning,feedback_image_window,exB9lm4JDiU6vEG8nNRSXaowpVI2,exB9lm4JDiU6vEG8nNRSXaowpVI2,,,,,,,,,,,,,,,,,,,,,,63d8267294c685a091016df0,09:11:34,27/02/2024
html-keyboard-response,105,212332,0.0-45.0,,"<div style=""font-size:100px;"">+</div>",,delaylearn,learning,ITI,exB9lm4JDiU6vEG8nNRSXaowpVI2,exB9lm4JDiU6vEG8nNRSXaowpVI2,,,,,,,,,,,,,,,,,,,2388.0,,,63d8267294c685a091016df0,09:11:34,27/02/2024
html-keyboard-response,106,213026,0.0-46.0-0.0,691.3000000119209,"<div style=""display: flex; flex-direction: column; align-items: center; margin-top: -40px;""><img src=""images/pattern_4.png"" style=""width: 234px; height: 230px; margin-top: -50px;""><div style=""display: flex; justify-content: space-between; margin-top: 33px;""><img src=""images/choice_trial_8.png"" style=""width: 408px; height: 417px; margin-right: 200px;""><img src=""images/choice_trial_7.png"" style=""width: 408px; height: 417px;""></div></div>",f,delaylearn,learning,trial,exB9lm4JDiU6vEG8nNRSXaowpVI2,exB9lm4JDiU6vEG8nNRSXaowpVI2,4.0,images/choice_trial_8.png,images/choice_trial_7.png,images/pattern_4.png,f,f,7000.0,8.0,7.0,3.0,0.0,20.0,1.0,1.0,8.0,110.0,,,,,,63d8267294c685a091016df0,09:11:34,27/02/2024
html-keyboard-response,107,214036,0.0-46.0-1.0,,"<div style=""display: flex; flex-direction: column; align-items: center; margin-top: -40px;""><img src=""images/pattern_4.png"" style=""width: 234px; height: 230px; margin-top: -50px;""><div style=""display: flex; justify-content: space-between; margin-top: 33px;""><img src=""images/choice_trial_8.png"" style=""width: 408px; height: 417px; margin-right: 608px;""></div></div>",,delaylearn,learning,display_response,exB9lm4JDiU6vEG8nNRSXaowpVI2,exB9lm4JDiU6vEG8nNRSXaowpVI2,,,,,,,,,,,,,,,,,chosen stimuli: images/choice_trial_8.png,,,,,63d8267294c685a091016df0,09:11:34,27/02/2024
html-keyboard-response,108,221050,0.0-46.0-2.0,,,,delaylearn,learning,feedback_duration_window,exB9lm4JDiU6vEG8nNRSXaowpVI2,exB9lm4JDiU6vEG8nNRSXaowpVI2,,,,,,,,,,,,,,,,,,7000.0,,,,63d8267294c685a091016df0,09:11:34,27/02/2024
html-keyboard-response,109,222551,0.0-46.0-3.0,,<div style='margin:auto;width: auto; font-size: 150%'><span style='font-weight: bold; font-size: 100px; color: green;'>+10 points!</span><br><br></div>,,delaylearn,learning,feedback_image_window,exB9lm4JDiU6vEG8nNRSXaowpVI2,exB9lm4JDiU6vEG8nNRSXaowpVI2,,,,,,,,,,,,,,,,,,,,,,63d8267294c685a091016df0,09:11:34,27/02/2024
html-keyboard-response,110,223067,0.0-47.0-0.0,,,,,,mood_trial_fixation,exB9lm4JDiU6vEG8nNRSXaowpVI2,,,,,,,,,,,,,,,,,,,,,,,63d8267294c685a091016df0,09:11:34,27/02/2024
lmdlab-html-vas-response,111,226956,0.0-47.0-1.0,2872.0,How happy are you right now?,0.6496913580246914,delaylearn,learning,mood_trial,exB9lm4JDiU6vEG8nNRSXaowpVI2,exB9lm4JDiU6vEG8nNRSXaowpVI2,,,,,,,,,,,,,,,,,,,,"['Very unhappy', 'Very happy']",,63d8267294c685a091016df0,09:11:34,27/02/2024
html-keyboard-response,112,228979,0.0-48.0,,"<div style=""font-size:100px;"">+</div>",,delaylearn,learning,ITI,exB9lm4JDiU6vEG8nNRSXaowpVI2,exB9lm4JDiU6vEG8nNRSXaowpVI2,,,,,,,,,,,,,,,,,,,2015.0,,,63d8267294c685a091016df0,09:11:34,27/02/2024
html-keyboard-response,113,229941,0.0-49.0-0.0,960.7000000029802,"<div style=""display: flex; flex-direction: column; align-items: center; margin-top: -40px;""><img src=""images/pattern_7.png"" style=""width: 234px; height: 230px; margin-top: -50px;""><div style=""display: flex; justify-content: space-between; margin-top: 33px;""><img src=""images/choice_trial_4.png"" style=""width: 408px; height: 417px; margin-right: 200px;""><img src=""images/choice_trial_13.png"" style=""width: 408px; height: 417px;""></div></div>",j,delaylearn,learning,trial,exB9lm4JDiU6vEG8nNRSXaowpVI2,exB9lm4JDiU6vEG8nNRSXaowpVI2,4.0,images/choice_trial_4.png,images/choice_trial_13.png,images/pattern_7.png,j,j,750.0,4.0,13.0,6.0,1.0,21.0,1.0,1.0,13.0,120.0,,,,,,63d8267294c685a091016df0,09:11:34,27/02/2024
html-keyboard-response,114,230949,0.0-49.0-1.0,,"<div style=""display: flex; flex-direction: column; align-items: center; margin-top: -40px;""><img src=""images/pattern_7.png"" style=""width: 234px; height: 230px; margin-top: -50px;""><div style=""display: flex; justify-content: space-between; margin-top: 33px;""><img src=""images/choice_trial_13.png"" style=""width: 408px; height: 417px; margin-left:608px;""></div></div>",,delaylearn,learning,display_response,exB9lm4JDiU6vEG8nNRSXaowpVI2,exB9lm4JDiU6vEG8nNRSXaowpVI2,,,,,,,,,,,,,,,,,chosen stimuli: images/choice_trial_13.png,,,,,63d8267294c685a091016df0,09:11:34,27/02/2024
html-keyboard-response,115,231716,0.0-49.0-2.0,,,,delaylearn,learning,feedback_duration_window,exB9lm4JDiU6vEG8nNRSXaowpVI2,exB9lm4JDiU6vEG8nNRSXaowpVI2,,,,,,,,,,,,,,,,,,750.0,,,,63d8267294c685a091016df0,09:11:34,27/02/2024
html-keyboard-response,116,233230,0.0-49.0-3.0,,<div style='margin:auto;width: auto; font-size: 150%'><span style='font-weight: bold; font-size: 100px; color: green;'>+10 points!</span><br><br></div>,,delaylearn,learning,feedback_image_window,exB9lm4JDiU6vEG8nNRSXaowpVI2,exB9lm4JDiU6vEG8nNRSXaowpVI2,,,,,,,,,,,,,,,,,,,,,,63d8267294c685a091016df0,09:11:34,27/02/2024
html-keyboard-response,117,235025,0.0-50.0,,"<div style=""font-size:100px;"">+</div>",,delaylearn,learning,ITI,exB9lm4JDiU6vEG8nNRSXaowpVI2,exB9lm4JDiU6vEG8nNRSXaowpVI2,,,,,,,,,,,,,,,,,,,1779.0,,,63d8267294c685a091016df0,09:11:34,27/02/2024
html-keyboard-response,118,236053,0.0-51.0-0.0,1025.800000011921,"<div style=""display: flex; flex-direction: column; align-items: center; margin-top: -40px;""><img src=""images/pattern_1.png"" style=""width: 234px; height: 230px; margin-top: -50px;""><div style=""display: flex; justify-content: space-between; margin-top: 33px;""><img src=""images/choice_trial_9.png"" style=""width: 408px; height: 417px; margin-right: 200px;""><img src=""images/choice_trial_1.png"" style=""width: 408px; height: 417px;""></div></div>",j,delaylearn,learning,trial,exB9lm4JDiU6vEG8nNRSXaowpVI2,exB9lm4JDiU6vEG8nNRSXaowpVI2,4.0,images/choice_trial_9.png,images/choice_trial_1.png,images/pattern_1.png,f,j,7000.0,9.0,1.0,1.0,1.0,22.0,1.0,0.0,1.0,120.0,,,,,,63d8267294c685a091016df0,09:11:34,27/02/2024
html-keyboard-response,119,237055,0.0-51.0-1.0,,"<div style=""display: flex; flex-direction: column; align-items: center; margin-top: -40px;""><img src=""images/pattern_1.png"" style=""width: 234px; height: 230px; margin-top: -50px;""><div style=""display: flex; justify-content: space-between; margin-top: 33px;""><img src=""images/choice_trial_1.png"" style=""width: 408px; height: 417px; margin-left:608px;""></div></div>",,delaylearn,learning,display_response,exB9lm4JDiU6vEG8nNRSXaowpVI2,exB9lm4JDiU6vEG8nNRSXaowpVI2,,,,,,,,,,,,,,,,,chosen stimuli: images/choice_trial_1.png,,,,,63d8267294c685a091016df0,09:11:34,27/02/2024
html-keyboard-response,120,244064,0.0-51.0-2.0,,,,delaylearn,learning,feedback_duration_window,exB9lm4JDiU6vEG8nNRSXaowpVI2,exB9lm4JDiU6vEG8nNRSXaowpVI2,,,,,,,,,,,,,,,,,,7000.0,,,,63d8267294c685a091016df0,09:11:34,27/02/2024
html-keyboard-response,121,245578,0.0-51.0-3.0,,<div style='margin:auto;width: auto; font-size: 150%'><span style='font-weight: bold; font-size: 100px; color: red;'>0 points!</span><br><br></div>,,delaylearn,learning,feedback_image_window,exB9lm4JDiU6vEG8nNRSXaowpVI2,exB9lm4JDiU6vEG8nNRSXaowpVI2,,,,,,,,,,,,,,,,,,,,,,63d8267294c685a091016df0,09:11:34,27/02/2024
html-keyboard-response,122,247918,0.0-52.0,,"<div style=""font-size:100px;"">+</div>",,delaylearn,learning,ITI,exB9lm4JDiU6vEG8nNRSXaowpVI2,exB9lm4JDiU6vEG8nNRSXaowpVI2,,,,,,,,,,,,,,,,,,,2337.0,,,63d8267294c685a091016df0,09:11:34,27/02/2024
html-keyboard-response,123,248771,0.0-53.0-0.0,850.7999999970198,"<div style=""display: flex; flex-direction: column; align-items: center; margin-top: -40px;""><img src=""images/pattern_5.png"" style=""width: 234px; height: 230px; margin-top: -50px;""><div style=""display: flex; justify-content: space-between; margin-top: 33px;""><img src=""images/choice_trial_15.png"" style=""width: 408px; height: 417px; margin-right: 200px;""><img src=""images/choice_trial_5.png"" style=""width: 408px; height: 417px;""></div></div>",j,delaylearn,learning,trial,exB9lm4JDiU6vEG8nNRSXaowpVI2,exB9lm4JDiU6vEG8nNRSXaowpVI2,4.0,images/choice_trial_15.png,images/choice_trial_5.png,images/pattern_5.png,j,j,750.0,15.0,5.0,4.0,1.0,23.0,1.0,1.0,5.0,130.0,,,,,,63d8267294c685a091016df0,09:11:34,27/02/2024
html-keyboard-response,124,249787,0.0-53.0-1.0,,"<div style=""display: flex; flex-direction: column; align-items: center; margin-top: -40px;""><img src=""images/pattern_5.png"" style=""width: 234px; height: 230px; margin-top: -50px;""><div style=""display: flex; justify-content: space-between; margin-top: 33px;""><img src=""images/choice_trial_5.png"" style=""width: 408px; height: 417px; margin-left:608px;""></div></div>",,delaylearn,learning,display_response,exB9lm4JDiU6vEG8nNRSXaowpVI2,exB9lm4JDiU6vEG8nNRSXaowpVI2,,,,,,,,,,,,,,,,,chosen stimuli: images/choice_trial_5.png,,,,,63d8267294c685a091016df0,09:11:34,27/02/2024
html-keyboard-response,125,250545,0.0-53.0-2.0,,,,delaylearn,learning,feedback_duration_window,exB9lm4JDiU6vEG8nNRSXaowpVI2,exB9lm4JDiU6vEG8nNRSXaowpVI2,,,,,,,,,,,,,,,,,,750.0,,,,63d8267294c685a091016df0,09:11:34,27/02/2024
html-keyboard-response,126,252060,0.0-53.0-3.0,,<div style='margin:auto;width: auto; font-size: 150%'><span style='font-weight: bold; font-size: 100px; color: green;'>+10 points!</span><br><br></div>,,delaylearn,learning,feedback_image_window,exB9lm4JDiU6vEG8nNRSXaowpVI2,exB9lm4JDiU6vEG8nNRSXaowpVI2,,,,,,,,,,,,,,,,,,,,,,63d8267294c685a091016df0,09:11:34,27/02/2024
html-keyboard-response,127,254558,0.0-54.0,,"<div style=""font-size:100px;"">+</div>",,delaylearn,learning,ITI,exB9lm4JDiU6vEG8nNRSXaowpVI2,exB9lm4JDiU6vEG8nNRSXaowpVI2,,,,,,,,,,,,,,,,,,,2490.0,,,63d8267294c685a091016df0,09:11:34,27/02/2024
html-keyboard-response,128,255648,0.0-55.0-0.0,1086.0999999940395,"<div style=""display: flex; flex-direction: column; align-items: center; margin-top: -40px;""><img src=""images/pattern_3.png"" style=""width: 234px; height: 230px; margin-top: -50px;""><div style=""display: flex; justify-content: space-between; margin-top: 33px;""><img src=""images/choice_trial_6.png"" style=""width: 408px; height: 417px; margin-right: 200px;""><img src=""images/choice_trial_16.png"" style=""width: 408px; height: 417px;""></div></div>",f,delaylearn,learning,trial,exB9lm4JDiU6vEG8nNRSXaowpVI2,exB9lm4JDiU6vEG8nNRSXaowpVI2,4.0,images/choice_trial_6.png,images/choice_trial_16.png,images/pattern_3.png,j,j,7000.0,6.0,16.0,2.0,1.0,24.0,0.0,0.0,6.0,130.0,,,,,,63d8267294c685a091016df0,09:11:34,27/02/2024
html-keyboard-response,129,256657,0.0-55.0-1.0,,"<div style=""display: flex; flex-direction: column; align-items: center; margin-top: -40px;""><img src=""images/pattern_3.png"" style=""width: 234px; height: 230px; margin-top: -50px;""><div style=""display: flex; justify-content: space-between; margin-top: 33px;""><img src=""images/choice_trial_6.png"" style=""width: 408px; height: 417px; margin-right: 608px;""></div></div>",,delaylearn,learning,display_response,exB9lm4JDiU6vEG8nNRSXaowpVI2,exB9lm4JDiU6vEG8nNRSXaowpVI2,,,,,,,,,,,,,,,,,chosen stimuli: images/choice_trial_6.png,,,,,63d8267294c685a091016df0,09:11:34,27/02/2024
html-keyboard-response,130,263665,0.0-55.0-2.0,,,,delaylearn,learning,feedback_duration_window,exB9lm4JDiU6vEG8nNRSXaowpVI2,exB9lm4JDiU6vEG8nNRSXaowpVI2,,,,,,,,,,,,,,,,,,7000.0,,,,63d8267294c685a091016df0,09:11:34,27/02/2024
html-keyboard-response,131,265179,0.0-55.0-3.0,,<div style='margin:auto;width: auto; font-size: 150%'><span style='font-weight: bold; font-size: 100px; color: red;'>0 points!</span><br><br></div>,,delaylearn,learning,feedback_image_window,exB9lm4JDiU6vEG8nNRSXaowpVI2,exB9lm4JDiU6vEG8nNRSXaowpVI2,,,,,,,,,,,,,,,,,,,,,,63d8267294c685a091016df0,09:11:34,27/02/2024
lmdlab-html-vas-response,132,271280,0.0-56.0-0.0,4584.0,*How <b><u>confident</u></b> are you feeling about your answers at this moment?*,0.470679012345679,rewlearn,rate_confidence,,exB9lm4JDiU6vEG8nNRSXaowpVI2,exB9lm4JDiU6vEG8nNRSXaowpVI2,,,,,,,,,,,,,,,,,,,,"['No confidence', 'Complete confidence']",,63d8267294c685a091016df0,09:11:34,27/02/2024
lmdlab-rest-trial-limit,133,290328,0.0-56.0-1.0,17545.09999999404,"<div style=""font-size:40px;""><b>Please take a break!</b><br><br><br><br><p>Great work: you earned undefined points.<br><br><br><p>You have completed part(s) 1 of 6.<br><br><br><br>When you are ready to continue<br><br><br>please click the button.</p><br><br>",0,delaylearn,learning,break,exB9lm4JDiU6vEG8nNRSXaowpVI2,exB9lm4JDiU6vEG8nNRSXaowpVI2,,,,,,,,,,,,,,,,,,,,,0.0,63d8267294c685a091016df0,09:11:34,27/02/2024
html-keyboard-response,134,293343,0.0-56.0-2.0,,"<div style=""font-size:100px;"">+</div>",,delaylearn,learning,pre_fixation,exB9lm4JDiU6vEG8nNRSXaowpVI2,,,,,,,,,,,,,,,,,,,,,,,63d8267294c685a091016df0,09:11:34,27/02/2024
lmdlab-html-vas-response,135,297033,0.0-56.0-3.0-0.0,2672.0,How happy are you right now?,0.5493827160493827,delaylearn,learning,mood_baseline,exB9lm4JDiU6vEG8nNRSXaowpVI2,exB9lm4JDiU6vEG8nNRSXaowpVI2,,,,,,,,,,,,,,,,,,,,"['Very unhappy', 'Very happy']",,63d8267294c685a091016df0,09:11:34,27/02/2024
html-keyboard-response,136,298549,0.0-56.0-3.0-1.0,,,,,,mood_baseline_fixation,exB9lm4JDiU6vEG8nNRSXaowpVI2,,,,,,,,,,,,,,,,,,,,,,,63d8267294c685a091016df0,09:11:34,27/02/2024
html-keyboard-response,137,300894,0.0-57.0,,"<div style=""font-size:100px;"">+</div>",,delaylearn,learning,ITI,exB9lm4JDiU6vEG8nNRSXaowpVI2,exB9lm4JDiU6vEG8nNRSXaowpVI2,,,,,,,,,,,,,,,,,,,2332.0,,,63d8267294c685a091016df0,09:11:34,27/02/2024
html-keyboard-response,138,301880,0.0-58.0-0.0,984.0999999940395,"<div style=""display: flex; flex-direction: column; align-items: center; margin-top: -40px;""><img src=""images/pattern_7.png"" style=""width: 234px; height: 230px; margin-top: -50px;""><div style=""display: flex; justify-content: space-between; margin-top: 33px;""><img src=""images/choice_trial_4.png"" style=""width: 408px; height: 417px; margin-right: 200px;""><img src=""images/choice_trial_13.png"" style=""width: 408px; height: 417px;""></div></div>",j,delaylearn,learning,trial,exB9lm4JDiU6vEG8nNRSXaowpVI2,exB9lm4JDiU6vEG8nNRSXaowpVI2,4.0,images/choice_trial_4.png,images/choice_trial_13.png,images/pattern_7.png,j,j,750.0,4.0,13.0,6.0,1.0,25.0,1.0,1.0,13.0,140.0,,,,,,63d8267294c685a091016df0,09:11:34,27/02/2024
html-keyboard-response,139,302888,0.0-58.0-1.0,,"<div style=""display: flex; flex-direction: column; align-items: center; margin-top: -40px;""><img src=""images/pattern_7.png"" style=""width: 234px; height: 230px; margin-top: -50px;""><div style=""display: flex; justify-content: space-between; margin-top: 33px;""><img src=""images/choice_trial_13.png"" style=""width: 408px; height: 417px; margin-left:608px;""></div></div>",,delaylearn,learning,display_response,exB9lm4JDiU6vEG8nNRSXaowpVI2,exB9lm4JDiU6vEG8nNRSXaowpVI2,,,,,,,,,,,,,,,,,chosen stimuli: images/choice_trial_13.png,,,,,63d8267294c685a091016df0,09:11:34,27/02/2024
html-keyboard-response,140,303653,0.0-58.0-2.0,,,,delaylearn,learning,feedback_duration_window,exB9lm4JDiU6vEG8nNRSXaowpVI2,exB9lm4JDiU6vEG8nNRSXaowpVI2,,,,,,,,,,,,,,,,,,750.0,,,,63d8267294c685a091016df0,09:11:34,27/02/2024
html-keyboard-response,141,305165,0.0-58.0-3.0,,<div style='margin:auto;width: auto; font-size: 150%'><span style='font-weight: bold; font-size: 100px; color: green;'>+10 points!</span><br><br></div>,,delaylearn,learning,feedback_image_window,exB9lm4JDiU6vEG8nNRSXaowpVI2,exB9lm4JDiU6vEG8nNRSXaowpVI2,,,,,,,,,,,,,,,,,,,,,,63d8267294c685a091016df0,09:11:34,27/02/2024
html-keyboard-response,142,305680,0.0-59.0-0.0,,,,,,mood_trial_fixation,exB9lm4JDiU6vEG8nNRSXaowpVI2,,,,,,,,,,,,,,,,,,,,,,,63d8267294c685a091016df0,09:11:34,27/02/2024
lmdlab-html-vas-response,143,309929,0.0-59.0-1.0,3231.0,How happy are you right now?,0.5895061728395061,delaylearn,learning,mood_trial,exB9lm4JDiU6vEG8nNRSXaowpVI2,exB9lm4JDiU6vEG8nNRSXaowpVI2,,,,,,,,,,,,,,,,,,,,"['Very unhappy', 'Very happy']",,63d8267294c685a091016df0,09:11:34,27/02/2024
html-keyboard-response,144,311610,0.0-60.0,,"<div style=""font-size:100px;"">+</div>",,delaylearn,learning,ITI,exB9lm4JDiU6vEG8nNRSXaowpVI2,exB9lm4JDiU6vEG8nNRSXaowpVI2,,,,,,,,,,,,,,,,,,,1666.0,,,63d8267294c685a091016df0,09:11:34,27/02/2024
html-keyboard-response,145,313961,0.0-61.0-0.0,2348.800000011921,"<div style=""display: flex; flex-direction: column; align-items: center; margin-top: -40px;""><img src=""images/pattern_1.png"" style=""width: 234px; height: 230px; margin-top: -50px;""><div style=""display: flex; justify-content: space-between; margin-top: 33px;""><img src=""images/choice_trial_1.png"" style=""width: 408px; height: 417px; margin-right: 200px;""><img src=""images/choice_trial_9.png"" style=""width: 408px; height: 417px;""></div></div>",j,delaylearn,learning,trial,exB9lm4JDiU6vEG8nNRSXaowpVI2,exB9lm4JDiU6vEG8nNRSXaowpVI2,4.0,images/choice_trial_1.png,images/choice_trial_9.png,images/pattern_1.png,f,f,7000.0,1.0,9.0,1.0,0.0,26.0,0.0,0.0,9.0,140.0,,,,,,63d8267294c685a091016df0,09:11:34,27/02/2024
html-keyboard-response,146,314979,0.0-61.0-1.0,,"<div style=""display: flex; flex-direction: column; align-items: center; margin-top: -40px;""><img src=""images/pattern_1.png"" style=""width: 234px; height: 230px; margin-top: -50px;""><div style=""display: flex; justify-content: space-between; margin-top: 33px;""><img src=""images/choice_trial_9.png"" style=""width: 408px; height: 417px; margin-left:608px;""></div></div>",,delaylearn,learning,display_response,exB9lm4JDiU6vEG8nNRSXaowpVI2,exB9lm4JDiU6vEG8nNRSXaowpVI2,,,,,,,,,,,,,,,,,chosen stimuli: images/choice_trial_9.png,,,,,63d8267294c685a091016df0,09:11:34,27/02/2024
html-keyboard-response,147,321986,0.0-61.0-2.0,,,,delaylearn,learning,feedback_duration_window,exB9lm4JDiU6vEG8nNRSXaowpVI2,exB9lm4JDiU6vEG8nNRSXaowpVI2,,,,,,,,,,,,,,,,,,7000.0,,,,63d8267294c685a091016df0,09:11:34,27/02/2024
html-keyboard-response,148,323487,0.0-61.0-3.0,,<div style='margin:auto;width: auto; font-size: 150%'><span style='font-weight: bold; font-size: 100px; color: red;'>0 points!</span><br><br></div>,,delaylearn,learning,feedback_image_window,exB9lm4JDiU6vEG8nNRSXaowpVI2,exB9lm4JDiU6vEG8nNRSXaowpVI2,,,,,,,,,,,,,,,,,,,,,,63d8267294c685a091016df0,09:11:34,27/02/2024
html-keyboard-response,149,325432,0.0-62.0,,"<div style=""font-size:100px;"">+</div>",,delaylearn,learning,ITI,exB9lm4JDiU6vEG8nNRSXaowpVI2,exB9lm4JDiU6vEG8nNRSXaowpVI2,,,,,,,,,,,,,,,,,,,1934.0,,,63d8267294c685a091016df0,09:11:34,27/02/2024
html-keyboard-response,150,326304,0.0-63.0-0.0,870.0,"<div style=""display: flex; flex-direction: column; align-items: center; margin-top: -40px;""><img src=""images/pattern_5.png"" style=""width: 234px; height: 230px; margin-top: -50px;""><div style=""display: flex; justify-content: space-between; margin-top: 33px;""><img src=""images/choice_trial_5.png"" style=""width: 408px; height: 417px; margin-right: 200px;""><img src=""images/choice_trial_15.png"" style=""width: 408px; height: 417px;""></div></div>",f,delaylearn,learning,trial,exB9lm4JDiU6vEG8nNRSXaowpVI2,exB9lm4JDiU6vEG8nNRSXaowpVI2,4.0,images/choice_trial_5.png,images/choice_trial_15.png,images/pattern_5.png,f,f,750.0,5.0,15.0,4.0,0.0,27.0,1.0,1.0,5.0,150.0,,,,,,63d8267294c685a091016df0,09:11:34,27/02/2024
html-keyboard-response,151,327308,0.0-63.0-1.0,,"<div style=""display: flex; flex-direction: column; align-items: center; margin-top: -40px;""><img src=""images/pattern_5.png"" style=""width: 234px; height: 230px; margin-top: -50px;""><div style=""display: flex; justify-content: space-between; margin-top: 33px;""><img src=""images/choice_trial_5.png"" style=""width: 408px; height: 417px; margin-right: 608px;""></div></div>",,delaylearn,learning,display_response,exB9lm4JDiU6vEG8nNRSXaowpVI2,exB9lm4JDiU6vEG8nNRSXaowpVI2,,,,,,,,,,,,,,,,,chosen stimuli: images/choice_trial_5.png,,,,,63d8267294c685a091016df0,09:11:34,27/02/2024
html-keyboard-response,152,328069,0.0-63.0-2.0,,,,delaylearn,learning,feedback_duration_window,exB9lm4JDiU6vEG8nNRSXaowpVI2,exB9lm4JDiU6vEG8nNRSXaowpVI2,,,,,,,,,,,,,,,,,,750.0,,,,63d8267294c685a091016df0,09:11:34,27/02/2024
html-keyboard-response,153,329582,0.0-63.0-3.0,,<div style='margin:auto;width: auto; font-size: 150%'><span style='font-weight: bold; font-size: 100px; color: green;'>+10 points!</span><br><br></div>,,delaylearn,learning,feedback_image_window,exB9lm4JDiU6vEG8nNRSXaowpVI2,exB9lm4JDiU6vEG8nNRSXaowpVI2,,,,,,,,,,,,,,,,,,,,,,63d8267294c685a091016df0,09:11:34,27/02/2024
html-keyboard-response,154,331677,0.0-64.0,,"<div style=""font-size:100px;"">+</div>",,delaylearn,learning,ITI,exB9lm4JDiU6vEG8nNRSXaowpVI2,exB9lm4JDiU6vEG8nNRSXaowpVI2,,,,,,,,,,,,,,,,,,,2094.0,,,63d8267294c685a091016df0,09:11:34,27/02/2024
html-keyboard-response,155,332484,0.0-65.0-0.0,804.2000000029802,"<div style=""display: flex; flex-direction: column; align-items: center; margin-top: -40px;""><img src=""images/pattern_6.png"" style=""width: 234px; height: 230px; margin-top: -50px;""><div style=""display: flex; justify-content: space-between; margin-top: 33px;""><img src=""images/choice_trial_3.png"" style=""width: 408px; height: 417px; margin-right: 200px;""><img src=""images/choice_trial_10.png"" style=""width: 408px; height: 417px;""></div></div>",j,delaylearn,learning,trial,exB9lm4JDiU6vEG8nNRSXaowpVI2,exB9lm4JDiU6vEG8nNRSXaowpVI2,4.0,images/choice_trial_3.png,images/choice_trial_10.png,images/pattern_6.png,j,j,750.0,3.0,10.0,5.0,1.0,28.0,1.0,1.0,10.0,160.0,,,,,,63d8267294c685a091016df0,09:11:34,27/02/2024
html-keyboard-response,156,333498,0.0-65.0-1.0,,"<div style=""display: flex; flex-direction: column; align-items: center; margin-top: -40px;""><img src=""images/pattern_6.png"" style=""width: 234px; height: 230px; margin-top: -50px;""><div style=""display: flex; justify-content: space-between; margin-top: 33px;""><img src=""images/choice_trial_10.png"" style=""width: 408px; height: 417px; margin-left:608px;""></div></div>",,delaylearn,learning,display_response,exB9lm4JDiU6vEG8nNRSXaowpVI2,exB9lm4JDiU6vEG8nNRSXaowpVI2,,,,,,,,,,,,,,,,,chosen stimuli: images/choice_trial_10.png,,,,,63d8267294c685a091016df0,09:11:34,27/02/2024
html-keyboard-response,157,334258,0.0-65.0-2.0,,,,delaylearn,learning,feedback_duration_window,exB9lm4JDiU6vEG8nNRSXaowpVI2,exB9lm4JDiU6vEG8nNRSXaowpVI2,,,,,,,,,,,,,,,,,,750.0,,,,63d8267294c685a091016df0,09:11:34,27/02/2024
html-keyboard-response,158,335769,0.0-65.0-3.0,,<div style='margin:auto;width: auto; font-size: 150%'><span style='font-weight: bold; font-size: 100px; color: green;'>+10 points!</span><br><br></div>,,delaylearn,learning,feedback_image_window,exB9lm4JDiU6vEG8nNRSXaowpVI2,exB9lm4JDiU6vEG8nNRSXaowpVI2,,,,,,,,,,,,,,,,,,,,,,63d8267294c685a091016df0,09:11:34,27/02/2024
html-keyboard-response,159,336285,0.0-66.0-0.0,,,,,,mood_trial_fixation,exB9lm4JDiU6vEG8nNRSXaowpVI2,,,,,,,,,,,,,,,,,,,,,,,63d8267294c685a091016df0,09:11:34,27/02/2024
lmdlab-html-vas-response,160,340546,0.0-66.0-1.0,3256.0,How happy are you right now?,0.5679012345679012,delaylearn,learning,mood_trial,exB9lm4JDiU6vEG8nNRSXaowpVI2,exB9lm4JDiU6vEG8nNRSXaowpVI2,,,,,,,,,,,,,,,,,,,,"['Very unhappy', 'Very happy']",,63d8267294c685a091016df0,09:11:34,27/02/2024
html-keyboard-response,161,342218,0.0-67.0,,"<div style=""font-size:100px;"">+</div>",,delaylearn,learning,ITI,exB9lm4JDiU6vEG8nNRSXaowpVI2,exB9lm4JDiU6vEG8nNRSXaowpVI2,,,,,,,,,,,,,,,,,,,1661.0,,,63d8267294c685a091016df0,09:11:34,27/02/2024
html-keyboard-response,162,343653,0.0-68.0-0.0,1431.5,"<div style=""display: flex; flex-direction: column; align-items: center; margin-top: -40px;""><img src=""images/pattern_4.png"" style=""width: 234px; height: 230px; margin-top: -50px;""><div style=""display: flex; justify-content: space-between; margin-top: 33px;""><img src=""images/choice_trial_7.png"" style=""width: 408px; height: 417px; margin-right: 200px;""><img src=""images/choice_trial_8.png"" style=""width: 408px; height: 417px;""></div></div>",j,delaylearn,learning,trial,exB9lm4JDiU6vEG8nNRSXaowpVI2,exB9lm4JDiU6vEG8nNRSXaowpVI2,4.0,images/choice_trial_7.png,images/choice_trial_8.png,images/pattern_4.png,j,j,7000.0,7.0,8.0,3.0,1.0,29.0,1.0,1.0,8.0,170.0,,,,,,63d8267294c685a091016df0,09:11:34,27/02/2024
html-keyboard-response,163,344667,0.0-68.0-1.0,,"<div style=""display: flex; flex-direction: column; align-items: center; margin-top: -40px;""><img src=""images/pattern_4.png"" style=""width: 234px; height: 230px; margin-top: -50px;""><div style=""display: flex; justify-content: space-between; margin-top: 33px;""><img src=""images/choice_trial_8.png"" style=""width: 408px; height: 417px; margin-left:608px;""></div></div>",,delaylearn,learning,display_response,exB9lm4JDiU6vEG8nNRSXaowpVI2,exB9lm4JDiU6vEG8nNRSXaowpVI2,,,,,,,,,,,,,,,,,chosen stimuli: images/choice_trial_8.png,,,,,63d8267294c685a091016df0,09:11:34,27/02/2024
html-keyboard-response,164,351682,0.0-68.0-2.0,,,,delaylearn,learning,feedback_duration_window,exB9lm4JDiU6vEG8nNRSXaowpVI2,exB9lm4JDiU6vEG8nNRSXaowpVI2,,,,,,,,,,,,,,,,,,7000.0,,,,63d8267294c685a091016df0,09:11:34,27/02/2024
html-keyboard-response,165,353195,0.0-68.0-3.0,,<div style='margin:auto;width: auto; font-size: 150%'><span style='font-weight: bold; font-size: 100px; color: green;'>+10 points!</span><br><br></div>,,delaylearn,learning,feedback_image_window,exB9lm4JDiU6vEG8nNRSXaowpVI2,exB9lm4JDiU6vEG8nNRSXaowpVI2,,,,,,,,,,,,,,,,,,,,,,63d8267294c685a091016df0,09:11:34,27/02/2024
html-keyboard-response,166,355660,0.0-69.0,,"<div style=""font-size:100px;"">+</div>",,delaylearn,learning,ITI,exB9lm4JDiU6vEG8nNRSXaowpVI2,exB9lm4JDiU6vEG8nNRSXaowpVI2,,,,,,,,,,,,,,,,,,,2452.0,,,63d8267294c685a091016df0,09:11:34,27/02/2024
html-keyboard-response,167,356818,0.0-70.0-0.0,1152.7000000029802,"<div style=""display: flex; flex-direction: column; align-items: center; margin-top: -40px;""><img src=""images/pattern_3.png"" style=""width: 234px; height: 230px; margin-top: -50px;""><div style=""display: flex; justify-content: space-between; margin-top: 33px;""><img src=""images/choice_trial_6.png"" style=""width: 408px; height: 417px; margin-right: 200px;""><img src=""images/choice_trial_16.png"" style=""width: 408px; height: 417px;""></div></div>",f,delaylearn,learning,trial,exB9lm4JDiU6vEG8nNRSXaowpVI2,exB9lm4JDiU6vEG8nNRSXaowpVI2,4.0,images/choice_trial_6.png,images/choice_trial_16.png,images/pattern_3.png,j,j,7000.0,6.0,16.0,2.0,1.0,30.0,0.0,0.0,6.0,170.0,,,,,,63d8267294c685a091016df0,09:11:34,27/02/2024
html-keyboard-response,168,357832,0.0-70.0-1.0,,"<div style=""display: flex; flex-direction: column; align-items: center; margin-top: -40px;""><img src=""images/pattern_3.png"" style=""width: 234px; height: 230px; margin-top: -50px;""><div style=""display: flex; justify-content: space-between; margin-top: 33px;""><img src=""images/choice_trial_6.png"" style=""width: 408px; height: 417px; margin-right: 608px;""></div></div>",,delaylearn,learning,display_response,exB9lm4JDiU6vEG8nNRSXaowpVI2,exB9lm4JDiU6vEG8nNRSXaowpVI2,,,,,,,,,,,,,,,,,chosen stimuli: images/choice_trial_6.png,,,,,63d8267294c685a091016df0,09:11:34,27/02/2024
html-keyboard-response,169,364834,0.0-70.0-2.0,,,,delaylearn,learning,feedback_duration_window,exB9lm4JDiU6vEG8nNRSXaowpVI2,exB9lm4JDiU6vEG8nNRSXaowpVI2,,,,,,,,,,,,,,,,,,7000.0,,,,63d8267294c685a091016df0,09:11:34,27/02/2024
html-keyboard-response,170,366350,0.0-70.0-3.0,,<div style='margin:auto;width: auto; font-size: 150%'><span style='font-weight: bold; font-size: 100px; color: red;'>0 points!</span><br><br></div>,,delaylearn,learning,feedback_image_window,exB9lm4JDiU6vEG8nNRSXaowpVI2,exB9lm4JDiU6vEG8nNRSXaowpVI2,,,,,,,,,,,,,,,,,,,,,,63d8267294c685a091016df0,09:11:34,27/02/2024
html-keyboard-response,171,368739,0.0-71.0,,"<div style=""font-size:100px;"">+</div>",,delaylearn,learning,ITI,exB9lm4JDiU6vEG8nNRSXaowpVI2,exB9lm4JDiU6vEG8nNRSXaowpVI2,,,,,,,,,,,,,,,,,,,2386.0,,,63d8267294c685a091016df0,09:11:34,27/02/2024
html-keyboard-response,172,369582,0.0-72.0-0.0,840.5,"<div style=""display: flex; flex-direction: column; align-items: center; margin-top: -40px;""><img src=""images/pattern_5.png"" style=""width: 234px; height: 230px; margin-top: -50px;""><div style=""display: flex; justify-content: space-between; margin-top: 33px;""><img src=""images/choice_trial_5.png"" style=""width: 408px; height: 417px; margin-right: 200px;""><img src=""images/choice_trial_15.png"" style=""width: 408px; height: 417px;""></div></div>",f,delaylearn,learning,trial,exB9lm4JDiU6vEG8nNRSXaowpVI2,exB9lm4JDiU6vEG8nNRSXaowpVI2,4.0,images/choice_trial_5.png,images/choice_trial_15.png,images/pattern_5.png,j,f,750.0,5.0,15.0,4.0,0.0,31.0,1.0,0.0,5.0,170.0,,,,,,63d8267294c685a091016df0,09:11:34,27/02/2024
html-keyboard-response,173,370591,0.0-72.0-1.0,,"<div style=""display: flex; flex-direction: column; align-items: center; margin-top: -40px;""><img src=""images/pattern_5.png"" style=""width: 234px; height: 230px; margin-top: -50px;""><div style=""display: flex; justify-content: space-between; margin-top: 33px;""><img src=""images/choice_trial_5.png"" style=""width: 408px; height: 417px; margin-right: 608px;""></div></div>",,delaylearn,learning,display_response,exB9lm4JDiU6vEG8nNRSXaowpVI2,exB9lm4JDiU6vEG8nNRSXaowpVI2,,,,,,,,,,,,,,,,,chosen stimuli: images/choice_trial_5.png,,,,,63d8267294c685a091016df0,09:11:34,27/02/2024
html-keyboard-response,174,371358,0.0-72.0-2.0,,,,delaylearn,learning,feedback_duration_window,exB9lm4JDiU6vEG8nNRSXaowpVI2,exB9lm4JDiU6vEG8nNRSXaowpVI2,,,,,,,,,,,,,,,,,,750.0,,,,63d8267294c685a091016df0,09:11:34,27/02/2024
html-keyboard-response,175,372871,0.0-72.0-3.0,,<div style='margin:auto;width: auto; font-size: 150%'><span style='font-weight: bold; font-size: 100px; color: red;'>0 points!</span><br><br></div>,,delaylearn,learning,feedback_image_window,exB9lm4JDiU6vEG8nNRSXaowpVI2,exB9lm4JDiU6vEG8nNRSXaowpVI2,,,,,,,,,,,,,,,,,,,,,,63d8267294c685a091016df0,09:11:34,27/02/2024
html-keyboard-response,176,375074,0.0-73.0,,"<div style=""font-size:100px;"">+</div>",,delaylearn,learning,ITI,exB9lm4JDiU6vEG8nNRSXaowpVI2,exB9lm4JDiU6vEG8nNRSXaowpVI2,,,,,,,,,,,,,,,,,,,2195.0,,,63d8267294c685a091016df0,09:11:34,27/02/2024
html-keyboard-response,177,376177,0.0-74.0-0.0,1099.7000000029802,"<div style=""display: flex; flex-direction: column; align-items: center; margin-top: -40px;""><img src=""images/pattern_1.png"" style=""width: 234px; height: 230px; margin-top: -50px;""><div style=""display: flex; justify-content: space-between; margin-top: 33px;""><img src=""images/choice_trial_1.png"" style=""width: 408px; height: 417px; margin-right: 200px;""><img src=""images/choice_trial_9.png"" style=""width: 408px; height: 417px;""></div></div>",f,delaylearn,learning,trial,exB9lm4JDiU6vEG8nNRSXaowpVI2,exB9lm4JDiU6vEG8nNRSXaowpVI2,4.0,images/choice_trial_1.png,images/choice_trial_9.png,images/pattern_1.png,f,f,7000.0,1.0,9.0,1.0,0.0,32.0,1.0,1.0,1.0,180.0,,,,,,63d8267294c685a091016df0,09:11:34,27/02/2024
html-keyboard-response,178,377183,0.0-74.0-1.0,,"<div style=""display: flex; flex-direction: column; align-items: center; margin-top: -40px;""><img src=""images/pattern_1.png"" style=""width: 234px; height: 230px; margin-top: -50px;""><div style=""display: flex; justify-content: space-between; margin-top: 33px;""><img src=""images/choice_trial_1.png"" style=""width: 408px; height: 417px; margin-right: 608px;""></div></div>",,delaylearn,learning,display_response,exB9lm4JDiU6vEG8nNRSXaowpVI2,exB9lm4JDiU6vEG8nNRSXaowpVI2,,,,,,,,,,,,,,,,,chosen stimuli: images/choice_trial_1.png,,,,,63d8267294c685a091016df0,09:11:34,27/02/2024
html-keyboard-response,179,384197,0.0-74.0-2.0,,,,delaylearn,learning,feedback_duration_window,exB9lm4JDiU6vEG8nNRSXaowpVI2,exB9lm4JDiU6vEG8nNRSXaowpVI2,,,,,,,,,,,,,,,,,,7000.0,,,,63d8267294c685a091016df0,09:11:34,27/02/2024
html-keyboard-response,180,385705,0.0-74.0-3.0,,<div style='margin:auto;width: auto; font-size: 150%'><span style='font-weight: bold; font-size: 100px; color: green;'>+10 points!</span><br><br></div>,,delaylearn,learning,feedback_image_window,exB9lm4JDiU6vEG8nNRSXaowpVI2,exB9lm4JDiU6vEG8nNRSXaowpVI2,,,,,,,,,,,,,,,,,,,,,,63d8267294c685a091016df0,09:11:34,27/02/2024
html-keyboard-response,181,386219,0.0-75.0-0.0,,,,,,mood_trial_fixation,exB9lm4JDiU6vEG8nNRSXaowpVI2,,,,,,,,,,,,,,,,,,,,,,,63d8267294c685a091016df0,09:11:34,27/02/2024
lmdlab-html-vas-response,182,390231,0.0-75.0-1.0,2995.0,How happy are you right now?,0.5478395061728395,delaylearn,learning,mood_trial,exB9lm4JDiU6vEG8nNRSXaowpVI2,exB9lm4JDiU6vEG8nNRSXaowpVI2,,,,,,,,,,,,,,,,,,,,"['Very unhappy', 'Very happy']",,63d8267294c685a091016df0,09:11:34,27/02/2024
html-keyboard-response,183,391897,0.0-76.0,,"<div style=""font-size:100px;"">+</div>",,delaylearn,learning,ITI,exB9lm4JDiU6vEG8nNRSXaowpVI2,exB9lm4JDiU6vEG8nNRSXaowpVI2,,,,,,,,,,,,,,,,,,,1651.0,,,63d8267294c685a091016df0,09:11:34,27/02/2024
html-keyboard-response,184,393606,0.0-77.0-0.0,1706.2000000029802,"<div style=""display: flex; flex-direction: column; align-items: center; margin-top: -40px;""><img src=""images/pattern_6.png"" style=""width: 234px; height: 230px; margin-top: -50px;""><div style=""display: flex; justify-content: space-between; margin-top: 33px;""><img src=""images/choice_trial_10.png"" style=""width: 408px; height: 417px; margin-right: 200px;""><img src=""images/choice_trial_3.png"" style=""width: 408px; height: 417px;""></div></div>",f,delaylearn,learning,trial,exB9lm4JDiU6vEG8nNRSXaowpVI2,exB9lm4JDiU6vEG8nNRSXaowpVI2,4.0,images/choice_trial_10.png,images/choice_trial_3.png,images/pattern_6.png,j,f,750.0,10.0,3.0,5.0,0.0,33.0,1.0,0.0,10.0,180.0,,,,,,63d8267294c685a091016df0,09:11:34,27/02/2024
html-keyboard-response,185,394624,0.0-77.0-1.0,,"<div style=""display: flex; flex-direction: column; align-items: center; margin-top: -40px;""><img src=""images/pattern_6.png"" style=""width: 234px; height: 230px; margin-top: -50px;""><div style=""display: flex; justify-content: space-between; margin-top: 33px;""><img src=""images/choice_trial_10.png"" style=""width: 408px; height: 417px; margin-right: 608px;""></div></div>",,delaylearn,learning,display_response,exB9lm4JDiU6vEG8nNRSXaowpVI2,exB9lm4JDiU6vEG8nNRSXaowpVI2,,,,,,,,,,,,,,,,,chosen stimuli: images/choice_trial_10.png,,,,,63d8267294c685a091016df0,09:11:34,27/02/2024
html-keyboard-response,186,395387,0.0-77.0-2.0,,,,delaylearn,learning,feedback_duration_window,exB9lm4JDiU6vEG8nNRSXaowpVI2,exB9lm4JDiU6vEG8nNRSXaowpVI2,,,,,,,,,,,,,,,,,,750.0,,,,63d8267294c685a091016df0,09:11:34,27/02/2024
html-keyboard-response,187,396899,0.0-77.0-3.0,,<div style='margin:auto;width: auto; font-size: 150%'><span style='font-weight: bold; font-size: 100px; color: red;'>0 points!</span><br><br></div>,,delaylearn,learning,feedback_image_window,exB9lm4JDiU6vEG8nNRSXaowpVI2,exB9lm4JDiU6vEG8nNRSXaowpVI2,,,,,,,,,,,,,,,,,,,,,,63d8267294c685a091016df0,09:11:34,27/02/2024
html-keyboard-response,188,399397,0.0-78.0,,"<div style=""font-size:100px;"">+</div>",,delaylearn,learning,ITI,exB9lm4JDiU6vEG8nNRSXaowpVI2,exB9lm4JDiU6vEG8nNRSXaowpVI2,,,,,,,,,,,,,,,,,,,2486.0,,,63d8267294c685a091016df0,09:11:34,27/02/2024
html-keyboard-response,189,400323,0.0-79.0-0.0,924.5999999940395,"<div style=""display: flex; flex-direction: column; align-items: center; margin-top: -40px;""><img src=""images/pattern_3.png"" style=""width: 234px; height: 230px; margin-top: -50px;""><div style=""display: flex; justify-content: space-between; margin-top: 33px;""><img src=""images/choice_trial_6.png"" style=""width: 408px; height: 417px; margin-right: 200px;""><img src=""images/choice_trial_16.png"" style=""width: 408px; height: 417px;""></div></div>",f,delaylearn,learning,trial,exB9lm4JDiU6vEG8nNRSXaowpVI2,exB9lm4JDiU6vEG8nNRSXaowpVI2,4.0,images/choice_trial_6.png,images/choice_trial_16.png,images/pattern_3.png,j,j,7000.0,6.0,16.0,2.0,1.0,34.0,0.0,0.0,6.0,180.0,,,,,,63d8267294c685a091016df0,09:11:34,27/02/2024
html-keyboard-response,190,401326,0.0-79.0-1.0,,"<div style=""display: flex; flex-direction: column; align-items: center; margin-top: -40px;""><img src=""images/pattern_3.png"" style=""width: 234px; height: 230px; margin-top: -50px;""><div style=""display: flex; justify-content: space-between; margin-top: 33px;""><img src=""images/choice_trial_6.png"" style=""width: 408px; height: 417px; margin-right: 608px;""></div></div>",,delaylearn,learning,display_response,exB9lm4JDiU6vEG8nNRSXaowpVI2,exB9lm4JDiU6vEG8nNRSXaowpVI2,,,,,,,,,,,,,,,,,chosen stimuli: images/choice_trial_6.png,,,,,63d8267294c685a091016df0,09:11:34,27/02/2024
html-keyboard-response,191,408339,0.0-79.0-2.0,,,,delaylearn,learning,feedback_duration_window,exB9lm4JDiU6vEG8nNRSXaowpVI2,exB9lm4JDiU6vEG8nNRSXaowpVI2,,,,,,,,,,,,,,,,,,7000.0,,,,63d8267294c685a091016df0,09:11:34,27/02/2024
html-keyboard-response,192,409854,0.0-79.0-3.0,,<div style='margin:auto;width: auto; font-size: 150%'><span style='font-weight: bold; font-size: 100px; color: red;'>0 points!</span><br><br></div>,,delaylearn,learning,feedback_image_window,exB9lm4JDiU6vEG8nNRSXaowpVI2,exB9lm4JDiU6vEG8nNRSXaowpVI2,,,,,,,,,,,,,,,,,,,,,,63d8267294c685a091016df0,09:11:34,27/02/2024
html-keyboard-response,193,412109,0.0-80.0,,"<div style=""font-size:100px;"">+</div>",,delaylearn,learning,ITI,exB9lm4JDiU6vEG8nNRSXaowpVI2,exB9lm4JDiU6vEG8nNRSXaowpVI2,,,,,,,,,,,,,,,,,,,2245.0,,,63d8267294c685a091016df0,09:11:34,27/02/2024
html-keyboard-response,194,413496,0.0-81.0-0.0,1384.0999999940395,"<div style=""display: flex; flex-direction: column; align-items: center; margin-top: -40px;""><img src=""images/pattern_4.png"" style=""width: 234px; height: 230px; margin-top: -50px;""><div style=""display: flex; justify-content: space-between; margin-top: 33px;""><img src=""images/choice_trial_7.png"" style=""width: 408px; height: 417px; margin-right: 200px;""><img src=""images/choice_trial_8.png"" style=""width: 408px; height: 417px;""></div></div>",j,delaylearn,learning,trial,exB9lm4JDiU6vEG8nNRSXaowpVI2,exB9lm4JDiU6vEG8nNRSXaowpVI2,4.0,images/choice_trial_7.png,images/choice_trial_8.png,images/pattern_4.png,f,j,7000.0,7.0,8.0,3.0,1.0,35.0,1.0,0.0,8.0,180.0,,,,,,63d8267294c685a091016df0,09:11:34,27/02/2024
html-keyboard-response,195,414505,0.0-81.0-1.0,,"<div style=""display: flex; flex-direction: column; align-items: center; margin-top: -40px;""><img src=""images/pattern_4.png"" style=""width: 234px; height: 230px; margin-top: -50px;""><div style=""display: flex; justify-content: space-between; margin-top: 33px;""><img src=""images/choice_trial_8.png"" style=""width: 408px; height: 417px; margin-left:608px;""></div></div>",,delaylearn,learning,display_response,exB9lm4JDiU6vEG8nNRSXaowpVI2,exB9lm4JDiU6vEG8nNRSXaowpVI2,,,,,,,,,,,,,,,,,chosen stimuli: images/choice_trial_8.png,,,,,63d8267294c685a091016df0,09:11:34,27/02/2024
html-keyboard-response,196,421518,0.0-81.0-2.0,,,,delaylearn,learning,feedback_duration_window,exB9lm4JDiU6vEG8nNRSXaowpVI2,exB9lm4JDiU6vEG8nNRSXaowpVI2,,,,,,,,,,,,,,,,,,7000.0,,,,63d8267294c685a091016df0,09:11:34,27/02/2024
html-keyboard-response,197,423032,0.0-81.0-3.0,,<div style='margin:auto;width: auto; font-size: 150%'><span style='font-weight: bold; font-size: 100px; color: red;'>0 points!</span><br><br></div>,,delaylearn,learning,feedback_image_window,exB9lm4JDiU6vEG8nNRSXaowpVI2,exB9lm4JDiU6vEG8nNRSXaowpVI2,,,,,,,,,,,,,,,,,,,,,,63d8267294c685a091016df0,09:11:34,27/02/2024
html-keyboard-response,198,425096,0.0-82.0,,"<div style=""font-size:100px;"">+</div>",,delaylearn,learning,ITI,exB9lm4JDiU6vEG8nNRSXaowpVI2,exB9lm4JDiU6vEG8nNRSXaowpVI2,,,,,,,,,,,,,,,,,,,2056.0,,,63d8267294c685a091016df0,09:11:34,27/02/2024
html-keyboard-response,199,425949,0.0-83.0-0.0,850.9000000059605,"<div style=""display: flex; flex-direction: column; align-items: center; margin-top: -40px;""><img src=""images/pattern_7.png"" style=""width: 234px; height: 230px; margin-top: -50px;""><div style=""display: flex; justify-content: space-between; margin-top: 33px;""><img src=""images/choice_trial_13.png"" style=""width: 408px; height: 417px; margin-right: 200px;""><img src=""images/choice_trial_4.png"" style=""width: 408px; height: 417px;""></div></div>",f,delaylearn,learning,trial,exB9lm4JDiU6vEG8nNRSXaowpVI2,exB9lm4JDiU6vEG8nNRSXaowpVI2,4.0,images/choice_trial_13.png,images/choice_trial_4.png,images/pattern_7.png,f,f,750.0,13.0,4.0,6.0,0.0,36.0,1.0,1.0,13.0,190.0,,,,,,63d8267294c685a091016df0,09:11:34,27/02/2024
html-keyboard-response,200,426966,0.0-83.0-1.0,,"<div style=""display: flex; flex-direction: column; align-items: center; margin-top: -40px;""><img src=""images/pattern_7.png"" style=""width: 234px; height: 230px; margin-top: -50px;""><div style=""display: flex; justify-content: space-between; margin-top: 33px;""><img src=""images/choice_trial_13.png"" style=""width: 408px; height: 417px; margin-right: 608px;""></div></div>",,delaylearn,learning,display_response,exB9lm4JDiU6vEG8nNRSXaowpVI2,exB9lm4JDiU6vEG8nNRSXaowpVI2,,,,,,,,,,,,,,,,,chosen stimuli: images/choice_trial_13.png,,,,,63d8267294c685a091016df0,09:11:34,27/02/2024
html-keyboard-response,201,427728,0.0-83.0-2.0,,,,delaylearn,learning,feedback_duration_window,exB9lm4JDiU6vEG8nNRSXaowpVI2,exB9lm4JDiU6vEG8nNRSXaowpVI2,,,,,,,,,,,,,,,,,,750.0,,,,63d8267294c685a091016df0,09:11:34,27/02/2024
html-keyboard-response,202,429240,0.0-83.0-3.0,,<div style='margin:auto;width: auto; font-size: 150%'><span style='font-weight: bold; font-size: 100px; color: green;'>+10 points!</span><br><br></div>,,delaylearn,learning,feedback_image_window,exB9lm4JDiU6vEG8nNRSXaowpVI2,exB9lm4JDiU6vEG8nNRSXaowpVI2,,,,,,,,,,,,,,,,,,,,,,63d8267294c685a091016df0,09:11:34,27/02/2024
html-keyboard-response,203,431703,0.0-84.0,,"<div style=""font-size:100px;"">+</div>",,delaylearn,learning,ITI,exB9lm4JDiU6vEG8nNRSXaowpVI2,exB9lm4JDiU6vEG8nNRSXaowpVI2,,,,,,,,,,,,,,,,,,,2458.0,,,63d8267294c685a091016df0,09:11:34,27/02/2024
html-keyboard-response,204,432731,0.0-85.0-0.0,1024.7000000029802,"<div style=""display: flex; flex-direction: column; align-items: center; margin-top: -40px;""><img src=""images/pattern_1.png"" style=""width: 234px; height: 230px; margin-top: -50px;""><div style=""display: flex; justify-content: space-between; margin-top: 33px;""><img src=""images/choice_trial_1.png"" style=""width: 408px; height: 417px; margin-right: 200px;""><img src=""images/choice_trial_9.png"" style=""width: 408px; height: 417px;""></div></div>",f,delaylearn,learning,trial,exB9lm4JDiU6vEG8nNRSXaowpVI2,exB9lm4JDiU6vEG8nNRSXaowpVI2,4.0,images/choice_trial_1.png,images/choice_trial_9.png,images/pattern_1.png,f,f,7000.0,1.0,9.0,1.0,0.0,37.0,1.0,1.0,1.0,200.0,,,,,,63d8267294c685a091016df0,09:11:34,27/02/2024
html-keyboard-response,205,433741,0.0-85.0-1.0,,"<div style=""display: flex; flex-direction: column; align-items: center; margin-top: -40px;""><img src=""images/pattern_1.png"" style=""width: 234px; height: 230px; margin-top: -50px;""><div style=""display: flex; justify-content: space-between; margin-top: 33px;""><img src=""images/choice_trial_1.png"" style=""width: 408px; height: 417px; margin-right: 608px;""></div></div>",,delaylearn,learning,display_response,exB9lm4JDiU6vEG8nNRSXaowpVI2,exB9lm4JDiU6vEG8nNRSXaowpVI2,,,,,,,,,,,,,,,,,chosen stimuli: images/choice_trial_1.png,,,,,63d8267294c685a091016df0,09:11:34,27/02/2024
html-keyboard-response,206,440757,0.0-85.0-2.0,,,,delaylearn,learning,feedback_duration_window,exB9lm4JDiU6vEG8nNRSXaowpVI2,exB9lm4JDiU6vEG8nNRSXaowpVI2,,,,,,,,,,,,,,,,,,7000.0,,,,63d8267294c685a091016df0,09:11:34,27/02/2024
html-keyboard-response,207,442274,0.0-85.0-3.0,,<div style='margin:auto;width: auto; font-size: 150%'><span style='font-weight: bold; font-size: 100px; color: green;'>+10 points!</span><br><br></div>,,delaylearn,learning,feedback_image_window,exB9lm4JDiU6vEG8nNRSXaowpVI2,exB9lm4JDiU6vEG8nNRSXaowpVI2,,,,,,,,,,,,,,,,,,,,,,63d8267294c685a091016df0,09:11:34,27/02/2024
html-keyboard-response,208,442774,0.0-86.0-0.0,,,,,,mood_trial_fixation,exB9lm4JDiU6vEG8nNRSXaowpVI2,,,,,,,,,,,,,,,,,,,,,,,63d8267294c685a091016df0,09:11:34,27/02/2024
lmdlab-html-vas-response,209,446624,0.0-86.0-1.0,2833.0,How happy are you right now?,0.5478395061728395,delaylearn,learning,mood_trial,exB9lm4JDiU6vEG8nNRSXaowpVI2,exB9lm4JDiU6vEG8nNRSXaowpVI2,,,,,,,,,,,,,,,,,,,,"['Very unhappy', 'Very happy']",,63d8267294c685a091016df0,09:11:34,27/02/2024
html-keyboard-response,210,448827,0.0-87.0,,"<div style=""font-size:100px;"">+</div>",,delaylearn,learning,ITI,exB9lm4JDiU6vEG8nNRSXaowpVI2,exB9lm4JDiU6vEG8nNRSXaowpVI2,,,,,,,,,,,,,,,,,,,2186.0,,,63d8267294c685a091016df0,09:11:34,27/02/2024
html-keyboard-response,211,449704,0.0-88.0-0.0,874.2999999970198,"<div style=""display: flex; flex-direction: column; align-items: center; margin-top: -40px;""><img src=""images/pattern_3.png"" style=""width: 234px; height: 230px; margin-top: -50px;""><div style=""display: flex; justify-content: space-between; margin-top: 33px;""><img src=""images/choice_trial_16.png"" style=""width: 408px; height: 417px; margin-right: 200px;""><img src=""images/choice_trial_6.png"" style=""width: 408px; height: 417px;""></div></div>",j,delaylearn,learning,trial,exB9lm4JDiU6vEG8nNRSXaowpVI2,exB9lm4JDiU6vEG8nNRSXaowpVI2,4.0,images/choice_trial_16.png,images/choice_trial_6.png,images/pattern_3.png,j,f,7000.0,16.0,6.0,2.0,0.0,38.0,0.0,1.0,6.0,210.0,,,,,,63d8267294c685a091016df0,09:11:34,27/02/2024
html-keyboard-response,212,450712,0.0-88.0-1.0,,"<div style=""display: flex; flex-direction: column; align-items: center; margin-top: -40px;""><img src=""images/pattern_3.png"" style=""width: 234px; height: 230px; margin-top: -50px;""><div style=""display: flex; justify-content: space-between; margin-top: 33px;""><img src=""images/choice_trial_6.png"" style=""width: 408px; height: 417px; margin-left:608px;""></div></div>",,delaylearn,learning,display_response,exB9lm4JDiU6vEG8nNRSXaowpVI2,exB9lm4JDiU6vEG8nNRSXaowpVI2,,,,,,,,,,,,,,,,,chosen stimuli: images/choice_trial_6.png,,,,,63d8267294c685a091016df0,09:11:34,27/02/2024
html-keyboard-response,213,457714,0.0-88.0-2.0,,,,delaylearn,learning,feedback_duration_window,exB9lm4JDiU6vEG8nNRSXaowpVI2,exB9lm4JDiU6vEG8nNRSXaowpVI2,,,,,,,,,,,,,,,,,,7000.0,,,,63d8267294c685a091016df0,09:11:34,27/02/2024
html-keyboard-response,214,459230,0.0-88.0-3.0,,<div style='margin:auto;width: auto; font-size: 150%'><span style='font-weight: bold; font-size: 100px; color: green;'>+10 points!</span><br><br></div>,,delaylearn,learning,feedback_image_window,exB9lm4JDiU6vEG8nNRSXaowpVI2,exB9lm4JDiU6vEG8nNRSXaowpVI2,,,,,,,,,,,,,,,,,,,,,,63d8267294c685a091016df0,09:11:34,27/02/2024
html-keyboard-response,215,461488,0.0-89.0,,"<div style=""font-size:100px;"">+</div>",,delaylearn,learning,ITI,exB9lm4JDiU6vEG8nNRSXaowpVI2,exB9lm4JDiU6vEG8nNRSXaowpVI2,,,,,,,,,,,,,,,,,,,2247.0,,,63d8267294c685a091016df0,09:11:34,27/02/2024
html-keyboard-response,216,462771,0.0-90.0-0.0,1277.6000000089407,"<div style=""display: flex; flex-direction: column; align-items: center; margin-top: -40px;""><img src=""images/pattern_7.png"" style=""width: 234px; height: 230px; margin-top: -50px;""><div style=""display: flex; justify-content: space-between; margin-top: 33px;""><img src=""images/choice_trial_4.png"" style=""width: 408px; height: 417px; margin-right: 200px;""><img src=""images/choice_trial_13.png"" style=""width: 408px; height: 417px;""></div></div>",j,delaylearn,learning,trial,exB9lm4JDiU6vEG8nNRSXaowpVI2,exB9lm4JDiU6vEG8nNRSXaowpVI2,4.0,images/choice_trial_4.png,images/choice_trial_13.png,images/pattern_7.png,j,j,750.0,4.0,13.0,6.0,1.0,39.0,1.0,1.0,13.0,220.0,,,,,,63d8267294c685a091016df0,09:11:34,27/02/2024
html-keyboard-response,217,463776,0.0-90.0-1.0,,"<div style=""display: flex; flex-direction: column; align-items: center; margin-top: -40px;""><img src=""images/pattern_7.png"" style=""width: 234px; height: 230px; margin-top: -50px;""><div style=""display: flex; justify-content: space-between; margin-top: 33px;""><img src=""images/choice_trial_13.png"" style=""width: 408px; height: 417px; margin-left:608px;""></div></div>",,delaylearn,learning,display_response,exB9lm4JDiU6vEG8nNRSXaowpVI2,exB9lm4JDiU6vEG8nNRSXaowpVI2,,,,,,,,,,,,,,,,,chosen stimuli: images/choice_trial_13.png,,,,,63d8267294c685a091016df0,09:11:34,27/02/2024
html-keyboard-response,218,464540,0.0-90.0-2.0,,,,delaylearn,learning,feedback_duration_window,exB9lm4JDiU6vEG8nNRSXaowpVI2,exB9lm4JDiU6vEG8nNRSXaowpVI2,,,,,,,,,,,,,,,,,,750.0,,,,63d8267294c685a091016df0,09:11:34,27/02/2024
html-keyboard-response,219,466055,0.0-90.0-3.0,,<div style='margin:auto;width: auto; font-size: 150%'><span style='font-weight: bold; font-size: 100px; color: green;'>+10 points!</span><br><br></div>,,delaylearn,learning,feedback_image_window,exB9lm4JDiU6vEG8nNRSXaowpVI2,exB9lm4JDiU6vEG8nNRSXaowpVI2,,,,,,,,,,,,,,,,,,,,,,63d8267294c685a091016df0,09:11:34,27/02/2024
html-keyboard-response,220,468461,0.0-91.0,,"<div style=""font-size:100px;"">+</div>",,delaylearn,learning,ITI,exB9lm4JDiU6vEG8nNRSXaowpVI2,exB9lm4JDiU6vEG8nNRSXaowpVI2,,,,,,,,,,,,,,,,,,,2405.0,,,63d8267294c685a091016df0,09:11:34,27/02/2024
html-keyboard-response,221,469303,0.0-92.0-0.0,839.1000000089407,"<div style=""display: flex; flex-direction: column; align-items: center; margin-top: -40px;""><img src=""images/pattern_5.png"" style=""width: 234px; height: 230px; margin-top: -50px;""><div style=""display: flex; justify-content: space-between; margin-top: 33px;""><img src=""images/choice_trial_15.png"" style=""width: 408px; height: 417px; margin-right: 200px;""><img src=""images/choice_trial_5.png"" style=""width: 408px; height: 417px;""></div></div>",j,delaylearn,learning,trial,exB9lm4JDiU6vEG8nNRSXaowpVI2,exB9lm4JDiU6vEG8nNRSXaowpVI2,4.0,images/choice_trial_15.png,images/choice_trial_5.png,images/pattern_5.png,j,j,750.0,15.0,5.0,4.0,1.0,40.0,1.0,1.0,5.0,230.0,,,,,,63d8267294c685a091016df0,09:11:34,27/02/2024
html-keyboard-response,222,470309,0.0-92.0-1.0,,"<div style=""display: flex; flex-direction: column; align-items: center; margin-top: -40px;""><img src=""images/pattern_5.png"" style=""width: 234px; height: 230px; margin-top: -50px;""><div style=""display: flex; justify-content: space-between; margin-top: 33px;""><img src=""images/choice_trial_5.png"" style=""width: 408px; height: 417px; margin-left:608px;""></div></div>",,delaylearn,learning,display_response,exB9lm4JDiU6vEG8nNRSXaowpVI2,exB9lm4JDiU6vEG8nNRSXaowpVI2,,,,,,,,,,,,,,,,,chosen stimuli: images/choice_trial_5.png,,,,,63d8267294c685a091016df0,09:11:34,27/02/2024
html-keyboard-response,223,471074,0.0-92.0-2.0,,,,delaylearn,learning,feedback_duration_window,exB9lm4JDiU6vEG8nNRSXaowpVI2,exB9lm4JDiU6vEG8nNRSXaowpVI2,,,,,,,,,,,,,,,,,,750.0,,,,63d8267294c685a091016df0,09:11:34,27/02/2024
html-keyboard-response,224,472589,0.0-92.0-3.0,,<div style='margin:auto;width: auto; font-size: 150%'><span style='font-weight: bold; font-size: 100px; color: green;'>+10 points!</span><br><br></div>,,delaylearn,learning,feedback_image_window,exB9lm4JDiU6vEG8nNRSXaowpVI2,exB9lm4JDiU6vEG8nNRSXaowpVI2,,,,,,,,,,,,,,,,,,,,,,63d8267294c685a091016df0,09:11:34,27/02/2024
html-keyboard-response,225,473094,0.0-93.0-0.0,,,,,,mood_trial_fixation,exB9lm4JDiU6vEG8nNRSXaowpVI2,,,,,,,,,,,,,,,,,,,,,,,63d8267294c685a091016df0,09:11:34,27/02/2024
lmdlab-html-vas-response,226,477080,0.0-93.0-1.0,2970.0,How happy are you right now?,0.5802469135802469,delaylearn,learning,mood_trial,exB9lm4JDiU6vEG8nNRSXaowpVI2,exB9lm4JDiU6vEG8nNRSXaowpVI2,,,,,,,,,,,,,,,,,,,,"['Very unhappy', 'Very happy']",,63d8267294c685a091016df0,09:11:34,27/02/2024
html-keyboard-response,227,479229,0.0-94.0,,"<div style=""font-size:100px;"">+</div>",,delaylearn,learning,ITI,exB9lm4JDiU6vEG8nNRSXaowpVI2,exB9lm4JDiU6vEG8nNRSXaowpVI2,,,,,,,,,,,,,,,,,,,2134.0,,,63d8267294c685a091016df0,09:11:34,27/02/2024
html-keyboard-response,228,480890,0.0-95.0-0.0,1657.4000000059605,"<div style=""display: flex; flex-direction: column; align-items: center; margin-top: -40px;""><img src=""images/pattern_4.png"" style=""width: 234px; height: 230px; margin-top: -50px;""><div style=""display: flex; justify-content: space-between; margin-top: 33px;""><img src=""images/choice_trial_8.png"" style=""width: 408px; height: 417px; margin-right: 200px;""><img src=""images/choice_trial_7.png"" style=""width: 408px; height: 417px;""></div></div>",j,delaylearn,learning,trial,exB9lm4JDiU6vEG8nNRSXaowpVI2,exB9lm4JDiU6vEG8nNRSXaowpVI2,4.0,images/choice_trial_8.png,images/choice_trial_7.png,images/pattern_4.png,f,f,7000.0,8.0,7.0,3.0,0.0,41.0,0.0,0.0,7.0,230.0,,,,,,63d8267294c685a091016df0,09:11:34,27/02/2024
html-keyboard-response,229,481902,0.0-95.0-1.0,,"<div style=""display: flex; flex-direction: column; align-items: center; margin-top: -40px;""><img src=""images/pattern_4.png"" style=""width: 234px; height: 230px; margin-top: -50px;""><div style=""display: flex; justify-content: space-between; margin-top: 33px;""><img src=""images/choice_trial_7.png"" style=""width: 408px; height: 417px; margin-left:608px;""></div></div>",,delaylearn,learning,display_response,exB9lm4JDiU6vEG8nNRSXaowpVI2,exB9lm4JDiU6vEG8nNRSXaowpVI2,,,,,,,,,,,,,,,,,chosen stimuli: images/choice_trial_7.png,,,,,63d8267294c685a091016df0,09:11:34,27/02/2024
html-keyboard-response,230,488916,0.0-95.0-2.0,,,,delaylearn,learning,feedback_duration_window,exB9lm4JDiU6vEG8nNRSXaowpVI2,exB9lm4JDiU6vEG8nNRSXaowpVI2,,,,,,,,,,,,,,,,,,7000.0,,,,63d8267294c685a091016df0,09:11:34,27/02/2024
html-keyboard-response,231,490434,0.0-95.0-3.0,,<div style='margin:auto;width: auto; font-size: 150%'><span style='font-weight: bold; font-size: 100px; color: red;'>0 points!</span><br><br></div>,,delaylearn,learning,feedback_image_window,exB9lm4JDiU6vEG8nNRSXaowpVI2,exB9lm4JDiU6vEG8nNRSXaowpVI2,,,,,,,,,,,,,,,,,,,,,,63d8267294c685a091016df0,09:11:34,27/02/2024
html-keyboard-response,232,492591,0.0-96.0,,"<div style=""font-size:100px;"">+</div>",,delaylearn,learning,ITI,exB9lm4JDiU6vEG8nNRSXaowpVI2,exB9lm4JDiU6vEG8nNRSXaowpVI2,,,,,,,,,,,,,,,,,,,2145.0,,,63d8267294c685a091016df0,09:11:34,27/02/2024
