trial_type,trial_index,time_elapsed,internal_node_id,rt,stimulus,response,exp_name,exp_stage,test_part,subjectID,databaseID,counterbal,choice_stimuli_1,choice_stimuli_2,pattern_stimuli,rewarded_answer,correct_answer,feedback_duration_times,stim_left,stim_right,pair,leftright_counter,trial,response_correct,response_rewarded,chosen_stim,counter,displayed_choice,feedback_durations,ITI_duration,labels,rest_warning,prolificID,start_time,date
pavlovia,0,524,0.0-0.0,,,,,,,PSeQ9YUg4SeKbRSkDk74IrBEEM23,,,,,,,,,,,,,,,,,,,,,,,62e023ae6d022e4d7bfc5db1,09:05:42,27/02/2024
html-keyboard-response,1,3531,0.0-1.0,,"<div style=""font-size:100px;"">+</div>",,delaylearn,learning,pre_fixation,PSeQ9YUg4SeKbRSkDk74IrBEEM23,,,,,,,,,,,,,,,,,,,,,,,62e023ae6d022e4d7bfc5db1,09:05:42,27/02/2024
html-keyboard-response,2,6535,0.0-2.0-0.0,,"<div style=""display: flex; flex-direction: column; align-items: center; margin-top: -40px;""><img src=""images/demo_images/pattern_1.png"" style=""width: 234px; height: 230px; margin-top: -50px;""><div style=""display: flex; justify-content: space-between; margin-top: 33px;""><img src=""images/demo_images/choice_trial_2.png"" style=""width: 408px; height: 417px; margin-right: 200px;""><img src=""images/demo_images/choice_trial_1.png"" style=""width: 408px; height: 417px;""></div></div>",,delaylearn,learning,trial,PSeQ9YUg4SeKbRSkDk74IrBEEM23,PSeQ9YUg4SeKbRSkDk74IrBEEM23,5.0,images/demo_images/choice_trial_2.png,images/demo_images/choice_trial_1.png,images/demo_images/pattern_1.png,j,j,3000.0,2.0,1.0,20.0,1.0,1.0,0.0,0.0,0.0,0.0,,,,,,62e023ae6d022e4d7bfc5db1,09:05:42,27/02/2024
html-keyboard-response,3,7539,0.0-2.0-1.0,,<div style='font-weight: bold; font-size: 75px; color: red;'>Missed Trial <br><br><br><br> Please respond faster</div>,,delaylearn,learning,display_response,PSeQ9YUg4SeKbRSkDk74IrBEEM23,PSeQ9YUg4SeKbRSkDk74IrBEEM23,,,,,,,,,,,,,,,,,Missed trial,,,,,62e023ae6d022e4d7bfc5db1,09:05:42,27/02/2024
html-keyboard-response,4,7542,0.0-2.0-2.0,,,,delaylearn,learning,feedback_duration_window,PSeQ9YUg4SeKbRSkDk74IrBEEM23,PSeQ9YUg4SeKbRSkDk74IrBEEM23,,,,,,,,,,,,,,,,,,0.0,,,,62e023ae6d022e4d7bfc5db1,09:05:42,27/02/2024
html-keyboard-response,5,7549,0.0-2.0-3.0,,,,delaylearn,learning,feedback_image_window,PSeQ9YUg4SeKbRSkDk74IrBEEM23,PSeQ9YUg4SeKbRSkDk74IrBEEM23,,,,,,,,,,,,,,,,,,,,,,62e023ae6d022e4d7bfc5db1,09:05:42,27/02/2024
html-keyboard-response,6,9138,0.0-3.0,,"<div style=""font-size:100px;"">+</div>",,delaylearn,learning,ITI,PSeQ9YUg4SeKbRSkDk74IrBEEM23,PSeQ9YUg4SeKbRSkDk74IrBEEM23,,,,,,,,,,,,,,,,,,,1583.0,,,62e023ae6d022e4d7bfc5db1,09:05:42,27/02/2024
html-keyboard-response,7,12145,0.0-4.0-0.0,,"<div style=""display: flex; flex-direction: column; align-items: center; margin-top: -40px;""><img src=""images/demo_images/pattern_1.png"" style=""width: 234px; height: 230px; margin-top: -50px;""><div style=""display: flex; justify-content: space-between; margin-top: 33px;""><img src=""images/demo_images/choice_trial_2.png"" style=""width: 408px; height: 417px; margin-right: 200px;""><img src=""images/demo_images/choice_trial_1.png"" style=""width: 408px; height: 417px;""></div></div>",,delaylearn,learning,trial,PSeQ9YUg4SeKbRSkDk74IrBEEM23,PSeQ9YUg4SeKbRSkDk74IrBEEM23,5.0,images/demo_images/choice_trial_2.png,images/demo_images/choice_trial_1.png,images/demo_images/pattern_1.png,j,j,3000.0,2.0,1.0,20.0,1.0,2.0,0.0,0.0,0.0,0.0,,,,,,62e023ae6d022e4d7bfc5db1,09:05:42,27/02/2024
html-keyboard-response,8,13148,0.0-4.0-1.0,,<div style='font-weight: bold; font-size: 75px; color: red;'>Missed Trial <br><br><br><br> Please respond faster</div>,,delaylearn,learning,display_response,PSeQ9YUg4SeKbRSkDk74IrBEEM23,PSeQ9YUg4SeKbRSkDk74IrBEEM23,,,,,,,,,,,,,,,,,Missed trial,,,,,62e023ae6d022e4d7bfc5db1,09:05:42,27/02/2024
html-keyboard-response,9,13154,0.0-4.0-2.0,,,,delaylearn,learning,feedback_duration_window,PSeQ9YUg4SeKbRSkDk74IrBEEM23,PSeQ9YUg4SeKbRSkDk74IrBEEM23,,,,,,,,,,,,,,,,,,0.0,,,,62e023ae6d022e4d7bfc5db1,09:05:42,27/02/2024
html-keyboard-response,10,13160,0.0-4.0-3.0,,,,delaylearn,learning,feedback_image_window,PSeQ9YUg4SeKbRSkDk74IrBEEM23,PSeQ9YUg4SeKbRSkDk74IrBEEM23,,,,,,,,,,,,,,,,,,,,,,62e023ae6d022e4d7bfc5db1,09:05:42,27/02/2024
html-keyboard-response,11,14788,0.0-5.0,,"<div style=""font-size:100px;"">+</div>",,delaylearn,learning,ITI,PSeQ9YUg4SeKbRSkDk74IrBEEM23,PSeQ9YUg4SeKbRSkDk74IrBEEM23,,,,,,,,,,,,,,,,,,,1622.0,,,62e023ae6d022e4d7bfc5db1,09:05:42,27/02/2024
html-keyboard-response,12,16307,0.0-6.0-0.0,1516.5,"<div style=""display: flex; flex-direction: column; align-items: center; margin-top: -40px;""><img src=""images/demo_images/pattern_1.png"" style=""width: 234px; height: 230px; margin-top: -50px;""><div style=""display: flex; justify-content: space-between; margin-top: 33px;""><img src=""images/demo_images/choice_trial_1.png"" style=""width: 408px; height: 417px; margin-right: 200px;""><img src=""images/demo_images/choice_trial_2.png"" style=""width: 408px; height: 417px;""></div></div>",f,delaylearn,learning,trial,PSeQ9YUg4SeKbRSkDk74IrBEEM23,PSeQ9YUg4SeKbRSkDk74IrBEEM23,5.0,images/demo_images/choice_trial_1.png,images/demo_images/choice_trial_2.png,images/demo_images/pattern_1.png,j,f,3000.0,1.0,2.0,20.0,0.0,3.0,1.0,0.0,1.0,0.0,,,,,,62e023ae6d022e4d7bfc5db1,09:05:42,27/02/2024
html-keyboard-response,13,17311,0.0-6.0-1.0,,"<div style=""display: flex; flex-direction: column; align-items: center; margin-top: -40px;""><img src=""images/demo_images/pattern_1.png"" style=""width: 234px; height: 230px; margin-top: -50px;""><div style=""display: flex; justify-content: space-between; margin-top: 33px;""><img src=""images/demo_images/choice_trial_1.png"" style=""width: 408px; height: 417px; margin-right: 608px;""></div></div>",,delaylearn,learning,display_response,PSeQ9YUg4SeKbRSkDk74IrBEEM23,PSeQ9YUg4SeKbRSkDk74IrBEEM23,,,,,,,,,,,,,,,,,chosen stimuli: images/demo_images/choice_trial_1.png,,,,,62e023ae6d022e4d7bfc5db1,09:05:42,27/02/2024
html-keyboard-response,14,20313,0.0-6.0-2.0,,,,delaylearn,learning,feedback_duration_window,PSeQ9YUg4SeKbRSkDk74IrBEEM23,PSeQ9YUg4SeKbRSkDk74IrBEEM23,,,,,,,,,,,,,,,,,,3000.0,,,,62e023ae6d022e4d7bfc5db1,09:05:42,27/02/2024
html-keyboard-response,15,21820,0.0-6.0-3.0,,<div style='margin:auto;width: auto; font-size: 150%'><span style='font-weight: bold; font-size: 100px; color: red;'>0 points!</span><br><br></div>,,delaylearn,learning,feedback_image_window,PSeQ9YUg4SeKbRSkDk74IrBEEM23,PSeQ9YUg4SeKbRSkDk74IrBEEM23,,,,,,,,,,,,,,,,,,,,,,62e023ae6d022e4d7bfc5db1,09:05:42,27/02/2024
html-keyboard-response,16,23588,0.0-7.0,,"<div style=""font-size:100px;"">+</div>",,delaylearn,learning,ITI,PSeQ9YUg4SeKbRSkDk74IrBEEM23,PSeQ9YUg4SeKbRSkDk74IrBEEM23,,,,,,,,,,,,,,,,,,,1764.0,,,62e023ae6d022e4d7bfc5db1,09:05:42,27/02/2024
html-keyboard-response,17,25314,0.0-8.0-0.0,1723.6000000238419,"<div style=""display: flex; flex-direction: column; align-items: center; margin-top: -40px;""><img src=""images/demo_images/pattern_1.png"" style=""width: 234px; height: 230px; margin-top: -50px;""><div style=""display: flex; justify-content: space-between; margin-top: 33px;""><img src=""images/demo_images/choice_trial_1.png"" style=""width: 408px; height: 417px; margin-right: 200px;""><img src=""images/demo_images/choice_trial_2.png"" style=""width: 408px; height: 417px;""></div></div>",j,delaylearn,learning,trial,PSeQ9YUg4SeKbRSkDk74IrBEEM23,PSeQ9YUg4SeKbRSkDk74IrBEEM23,5.0,images/demo_images/choice_trial_1.png,images/demo_images/choice_trial_2.png,images/demo_images/pattern_1.png,f,f,3000.0,1.0,2.0,20.0,0.0,4.0,0.0,0.0,2.0,0.0,,,,,,62e023ae6d022e4d7bfc5db1,09:05:42,27/02/2024
html-keyboard-response,18,26322,0.0-8.0-1.0,,"<div style=""display: flex; flex-direction: column; align-items: center; margin-top: -40px;""><img src=""images/demo_images/pattern_1.png"" style=""width: 234px; height: 230px; margin-top: -50px;""><div style=""display: flex; justify-content: space-between; margin-top: 33px;""><img src=""images/demo_images/choice_trial_2.png"" style=""width: 408px; height: 417px; margin-left:608px;""></div></div>",,delaylearn,learning,display_response,PSeQ9YUg4SeKbRSkDk74IrBEEM23,PSeQ9YUg4SeKbRSkDk74IrBEEM23,,,,,,,,,,,,,,,,,chosen stimuli: images/demo_images/choice_trial_2.png,,,,,62e023ae6d022e4d7bfc5db1,09:05:42,27/02/2024
html-keyboard-response,19,29329,0.0-8.0-2.0,,,,delaylearn,learning,feedback_duration_window,PSeQ9YUg4SeKbRSkDk74IrBEEM23,PSeQ9YUg4SeKbRSkDk74IrBEEM23,,,,,,,,,,,,,,,,,,3000.0,,,,62e023ae6d022e4d7bfc5db1,09:05:42,27/02/2024
html-keyboard-response,20,30830,0.0-8.0-3.0,,<div style='margin:auto;width: auto; font-size: 150%'><span style='font-weight: bold; font-size: 100px; color: red;'>0 points!</span><br><br></div>,,delaylearn,learning,feedback_image_window,PSeQ9YUg4SeKbRSkDk74IrBEEM23,PSeQ9YUg4SeKbRSkDk74IrBEEM23,,,,,,,,,,,,,,,,,,,,,,62e023ae6d022e4d7bfc5db1,09:05:42,27/02/2024
html-keyboard-response,21,31332,0.0-9.0-0.0,,,,,,mood_trial_fixation,PSeQ9YUg4SeKbRSkDk74IrBEEM23,,,,,,,,,,,,,,,,,,,,,,,62e023ae6d022e4d7bfc5db1,09:05:42,27/02/2024
lmdlab-html-vas-response,22,34858,0.0-9.0-1.0,2516.0,How happy are you right now?,0.48302469135802467,delaylearn,learning,mood_trial,PSeQ9YUg4SeKbRSkDk74IrBEEM23,PSeQ9YUg4SeKbRSkDk74IrBEEM23,,,,,,,,,,,,,,,,,,,,"['Very unhappy', 'Very happy']",,62e023ae6d022e4d7bfc5db1,09:05:42,27/02/2024
html-keyboard-response,23,36508,0.0-10.0,,"<div style=""font-size:100px;"">+</div>",,delaylearn,learning,ITI,PSeQ9YUg4SeKbRSkDk74IrBEEM23,PSeQ9YUg4SeKbRSkDk74IrBEEM23,,,,,,,,,,,,,,,,,,,1647.0,,,62e023ae6d022e4d7bfc5db1,09:05:42,27/02/2024
html-keyboard-response,24,38140,0.0-11.0-0.0,1628.3999999761581,"<div style=""display: flex; flex-direction: column; align-items: center; margin-top: -40px;""><img src=""images/demo_images/pattern_1.png"" style=""width: 234px; height: 230px; margin-top: -50px;""><div style=""display: flex; justify-content: space-between; margin-top: 33px;""><img src=""images/demo_images/choice_trial_2.png"" style=""width: 408px; height: 417px; margin-right: 200px;""><img src=""images/demo_images/choice_trial_1.png"" style=""width: 408px; height: 417px;""></div></div>",j,delaylearn,learning,trial,PSeQ9YUg4SeKbRSkDk74IrBEEM23,PSeQ9YUg4SeKbRSkDk74IrBEEM23,5.0,images/demo_images/choice_trial_2.png,images/demo_images/choice_trial_1.png,images/demo_images/pattern_1.png,j,j,3000.0,2.0,1.0,20.0,1.0,5.0,1.0,1.0,1.0,10.0,,,,,,62e023ae6d022e4d7bfc5db1,09:05:42,27/02/2024
html-keyboard-response,25,39146,0.0-11.0-1.0,,"<div style=""display: flex; flex-direction: column; align-items: center; margin-top: -40px;""><img src=""images/demo_images/pattern_1.png"" style=""width: 234px; height: 230px; margin-top: -50px;""><div style=""display: flex; justify-content: space-between; margin-top: 33px;""><img src=""images/demo_images/choice_trial_1.png"" style=""width: 408px; height: 417px; margin-left:608px;""></div></div>",,delaylearn,learning,display_response,PSeQ9YUg4SeKbRSkDk74IrBEEM23,PSeQ9YUg4SeKbRSkDk74IrBEEM23,,,,,,,,,,,,,,,,,chosen stimuli: images/demo_images/choice_trial_1.png,,,,,62e023ae6d022e4d7bfc5db1,09:05:42,27/02/2024
html-keyboard-response,26,42151,0.0-11.0-2.0,,,,delaylearn,learning,feedback_duration_window,PSeQ9YUg4SeKbRSkDk74IrBEEM23,PSeQ9YUg4SeKbRSkDk74IrBEEM23,,,,,,,,,,,,,,,,,,3000.0,,,,62e023ae6d022e4d7bfc5db1,09:05:42,27/02/2024
html-keyboard-response,27,43653,0.0-11.0-3.0,,<div style='margin:auto;width: auto; font-size: 150%'><span style='font-weight: bold; font-size: 100px; color: green;'>+10 points!</span><br><br></div>,,delaylearn,learning,feedback_image_window,PSeQ9YUg4SeKbRSkDk74IrBEEM23,PSeQ9YUg4SeKbRSkDk74IrBEEM23,,,,,,,,,,,,,,,,,,,,,,62e023ae6d022e4d7bfc5db1,09:05:42,27/02/2024
html-keyboard-response,28,46158,0.0-12.0,,"<div style=""font-size:100px;"">+</div>",,delaylearn,learning,ITI,PSeQ9YUg4SeKbRSkDk74IrBEEM23,PSeQ9YUg4SeKbRSkDk74IrBEEM23,,,,,,,,,,,,,,,,,,,2471.0,,,62e023ae6d022e4d7bfc5db1,09:05:42,27/02/2024
html-keyboard-response,29,47427,0.0-13.0-0.0,1265.800000011921,"<div style=""display: flex; flex-direction: column; align-items: center; margin-top: -40px;""><img src=""images/demo_images/pattern_1.png"" style=""width: 234px; height: 230px; margin-top: -50px;""><div style=""display: flex; justify-content: space-between; margin-top: 33px;""><img src=""images/demo_images/choice_trial_1.png"" style=""width: 408px; height: 417px; margin-right: 200px;""><img src=""images/demo_images/choice_trial_2.png"" style=""width: 408px; height: 417px;""></div></div>",f,delaylearn,learning,trial,PSeQ9YUg4SeKbRSkDk74IrBEEM23,PSeQ9YUg4SeKbRSkDk74IrBEEM23,5.0,images/demo_images/choice_trial_1.png,images/demo_images/choice_trial_2.png,images/demo_images/pattern_1.png,f,f,3000.0,1.0,2.0,20.0,0.0,6.0,1.0,1.0,1.0,20.0,,,,,,62e023ae6d022e4d7bfc5db1,09:05:42,27/02/2024
html-keyboard-response,30,48432,0.0-13.0-1.0,,"<div style=""display: flex; flex-direction: column; align-items: center; margin-top: -40px;""><img src=""images/demo_images/pattern_1.png"" style=""width: 234px; height: 230px; margin-top: -50px;""><div style=""display: flex; justify-content: space-between; margin-top: 33px;""><img src=""images/demo_images/choice_trial_1.png"" style=""width: 408px; height: 417px; margin-right: 608px;""></div></div>",,delaylearn,learning,display_response,PSeQ9YUg4SeKbRSkDk74IrBEEM23,PSeQ9YUg4SeKbRSkDk74IrBEEM23,,,,,,,,,,,,,,,,,chosen stimuli: images/demo_images/choice_trial_1.png,,,,,62e023ae6d022e4d7bfc5db1,09:05:42,27/02/2024
html-keyboard-response,31,51434,0.0-13.0-2.0,,,,delaylearn,learning,feedback_duration_window,PSeQ9YUg4SeKbRSkDk74IrBEEM23,PSeQ9YUg4SeKbRSkDk74IrBEEM23,,,,,,,,,,,,,,,,,,3000.0,,,,62e023ae6d022e4d7bfc5db1,09:05:42,27/02/2024
html-keyboard-response,32,52939,0.0-13.0-3.0,,<div style='margin:auto;width: auto; font-size: 150%'><span style='font-weight: bold; font-size: 100px; color: green;'>+10 points!</span><br><br></div>,,delaylearn,learning,feedback_image_window,PSeQ9YUg4SeKbRSkDk74IrBEEM23,PSeQ9YUg4SeKbRSkDk74IrBEEM23,,,,,,,,,,,,,,,,,,,,,,62e023ae6d022e4d7bfc5db1,09:05:42,27/02/2024
html-button-response,33,54558,0.0-14.0,1617.6000000238419,"
  <div style=""display: flex; align-items: center; justify-content: center; height: 80vh;"">
  <div>
          <img src=""images/inst_demo_finish.png"" style=""width: 80vw; height:auto;"">
          <br><br>
      </div>
      <br><br>
  </div>",0,,,,PSeQ9YUg4SeKbRSkDk74IrBEEM23,,,,,,,,,,,,,,,,,,,,,,,62e023ae6d022e4d7bfc5db1,09:05:42,27/02/2024
html-keyboard-response,34,59288,0.0-15.0,4728.300000011921,"
  <div style=""display: flex; align-items: center; justify-content: center; height: 80vh;"">
  <div>
          <img src=""images/inst_6.png"" style=""width: 80vw; height:auto;"">
          <br><br>
      </div>
      <br><br>
  </div>",f,,,,PSeQ9YUg4SeKbRSkDk74IrBEEM23,,,,,,,,,,,,,,,,,,,,,,,62e023ae6d022e4d7bfc5db1,09:05:42,27/02/2024
html-keyboard-response,35,62291,0.0-16.0,,"<div style=""font-size:100px;"">+</div>",,delaylearn,learning,pre_fixation,PSeQ9YUg4SeKbRSkDk74IrBEEM23,,,,,,,,,,,,,,,,,,,,,,,62e023ae6d022e4d7bfc5db1,09:05:42,27/02/2024
html-keyboard-response,36,63905,0.0-17.0,,"<div style=""font-size:100px;"">+</div>",,delaylearn,learning,ITI,PSeQ9YUg4SeKbRSkDk74IrBEEM23,PSeQ9YUg4SeKbRSkDk74IrBEEM23,,,,,,,,,,,,,,,,,,,1611.0,,,62e023ae6d022e4d7bfc5db1,09:05:42,27/02/2024
html-keyboard-response,37,65073,0.0-18.0-0.0,1166.199999988079,"<div style=""display: flex; flex-direction: column; align-items: center; margin-top: -40px;""><img src=""images/pattern_3.png"" style=""width: 234px; height: 230px; margin-top: -50px;""><div style=""display: flex; justify-content: space-between; margin-top: 33px;""><img src=""images/choice_trial_16.png"" style=""width: 408px; height: 417px; margin-right: 200px;""><img src=""images/choice_trial_2.png"" style=""width: 408px; height: 417px;""></div></div>",j,delaylearn,learning,trial,PSeQ9YUg4SeKbRSkDk74IrBEEM23,PSeQ9YUg4SeKbRSkDk74IrBEEM23,5.0,images/choice_trial_16.png,images/choice_trial_2.png,images/pattern_3.png,f,f,7000.0,16.0,2.0,2.0,0.0,7.0,0.0,0.0,2.0,20.0,,,,,,62e023ae6d022e4d7bfc5db1,09:05:42,27/02/2024
html-keyboard-response,38,66076,0.0-18.0-1.0,,"<div style=""display: flex; flex-direction: column; align-items: center; margin-top: -40px;""><img src=""images/pattern_3.png"" style=""width: 234px; height: 230px; margin-top: -50px;""><div style=""display: flex; justify-content: space-between; margin-top: 33px;""><img src=""images/choice_trial_2.png"" style=""width: 408px; height: 417px; margin-left:608px;""></div></div>",,delaylearn,learning,display_response,PSeQ9YUg4SeKbRSkDk74IrBEEM23,PSeQ9YUg4SeKbRSkDk74IrBEEM23,,,,,,,,,,,,,,,,,chosen stimuli: images/choice_trial_2.png,,,,,62e023ae6d022e4d7bfc5db1,09:05:42,27/02/2024
html-keyboard-response,39,73078,0.0-18.0-2.0,,,,delaylearn,learning,feedback_duration_window,PSeQ9YUg4SeKbRSkDk74IrBEEM23,PSeQ9YUg4SeKbRSkDk74IrBEEM23,,,,,,,,,,,,,,,,,,7000.0,,,,62e023ae6d022e4d7bfc5db1,09:05:42,27/02/2024
html-keyboard-response,40,74584,0.0-18.0-3.0,,<div style='margin:auto;width: auto; font-size: 150%'><span style='font-weight: bold; font-size: 100px; color: red;'>0 points!</span><br><br></div>,,delaylearn,learning,feedback_image_window,PSeQ9YUg4SeKbRSkDk74IrBEEM23,PSeQ9YUg4SeKbRSkDk74IrBEEM23,,,,,,,,,,,,,,,,,,,,,,62e023ae6d022e4d7bfc5db1,09:05:42,27/02/2024
html-keyboard-response,41,76228,0.0-19.0,,"<div style=""font-size:100px;"">+</div>",,delaylearn,learning,ITI,PSeQ9YUg4SeKbRSkDk74IrBEEM23,PSeQ9YUg4SeKbRSkDk74IrBEEM23,,,,,,,,,,,,,,,,,,,1639.0,,,62e023ae6d022e4d7bfc5db1,09:05:42,27/02/2024
html-keyboard-response,42,77052,0.0-20.0-0.0,822.3000000119209,"<div style=""display: flex; flex-direction: column; align-items: center; margin-top: -40px;""><img src=""images/pattern_7.png"" style=""width: 234px; height: 230px; margin-top: -50px;""><div style=""display: flex; justify-content: space-between; margin-top: 33px;""><img src=""images/choice_trial_10.png"" style=""width: 408px; height: 417px; margin-right: 200px;""><img src=""images/choice_trial_8.png"" style=""width: 408px; height: 417px;""></div></div>",f,delaylearn,learning,trial,PSeQ9YUg4SeKbRSkDk74IrBEEM23,PSeQ9YUg4SeKbRSkDk74IrBEEM23,5.0,images/choice_trial_10.png,images/choice_trial_8.png,images/pattern_7.png,j,j,750.0,10.0,8.0,6.0,1.0,8.0,0.0,0.0,10.0,20.0,,,,,,62e023ae6d022e4d7bfc5db1,09:05:42,27/02/2024
html-keyboard-response,43,78056,0.0-20.0-1.0,,"<div style=""display: flex; flex-direction: column; align-items: center; margin-top: -40px;""><img src=""images/pattern_7.png"" style=""width: 234px; height: 230px; margin-top: -50px;""><div style=""display: flex; justify-content: space-between; margin-top: 33px;""><img src=""images/choice_trial_10.png"" style=""width: 408px; height: 417px; margin-right: 608px;""></div></div>",,delaylearn,learning,display_response,PSeQ9YUg4SeKbRSkDk74IrBEEM23,PSeQ9YUg4SeKbRSkDk74IrBEEM23,,,,,,,,,,,,,,,,,chosen stimuli: images/choice_trial_10.png,,,,,62e023ae6d022e4d7bfc5db1,09:05:42,27/02/2024
html-keyboard-response,44,78810,0.0-20.0-2.0,,,,delaylearn,learning,feedback_duration_window,PSeQ9YUg4SeKbRSkDk74IrBEEM23,PSeQ9YUg4SeKbRSkDk74IrBEEM23,,,,,,,,,,,,,,,,,,750.0,,,,62e023ae6d022e4d7bfc5db1,09:05:42,27/02/2024
html-keyboard-response,45,80312,0.0-20.0-3.0,,<div style='margin:auto;width: auto; font-size: 150%'><span style='font-weight: bold; font-size: 100px; color: red;'>0 points!</span><br><br></div>,,delaylearn,learning,feedback_image_window,PSeQ9YUg4SeKbRSkDk74IrBEEM23,PSeQ9YUg4SeKbRSkDk74IrBEEM23,,,,,,,,,,,,,,,,,,,,,,62e023ae6d022e4d7bfc5db1,09:05:42,27/02/2024
html-keyboard-response,46,82561,0.0-21.0,,"<div style=""font-size:100px;"">+</div>",,delaylearn,learning,ITI,PSeQ9YUg4SeKbRSkDk74IrBEEM23,PSeQ9YUg4SeKbRSkDk74IrBEEM23,,,,,,,,,,,,,,,,,,,2245.0,,,62e023ae6d022e4d7bfc5db1,09:05:42,27/02/2024
html-keyboard-response,47,83223,0.0-22.0-0.0,659.3000000119209,"<div style=""display: flex; flex-direction: column; align-items: center; margin-top: -40px;""><img src=""images/pattern_4.png"" style=""width: 234px; height: 230px; margin-top: -50px;""><div style=""display: flex; justify-content: space-between; margin-top: 33px;""><img src=""images/choice_trial_11.png"" style=""width: 408px; height: 417px; margin-right: 200px;""><img src=""images/choice_trial_4.png"" style=""width: 408px; height: 417px;""></div></div>",j,delaylearn,learning,trial,PSeQ9YUg4SeKbRSkDk74IrBEEM23,PSeQ9YUg4SeKbRSkDk74IrBEEM23,5.0,images/choice_trial_11.png,images/choice_trial_4.png,images/pattern_4.png,f,f,7000.0,11.0,4.0,3.0,0.0,9.0,0.0,0.0,4.0,20.0,,,,,,62e023ae6d022e4d7bfc5db1,09:05:42,27/02/2024
html-keyboard-response,48,84229,0.0-22.0-1.0,,"<div style=""display: flex; flex-direction: column; align-items: center; margin-top: -40px;""><img src=""images/pattern_4.png"" style=""width: 234px; height: 230px; margin-top: -50px;""><div style=""display: flex; justify-content: space-between; margin-top: 33px;""><img src=""images/choice_trial_4.png"" style=""width: 408px; height: 417px; margin-left:608px;""></div></div>",,delaylearn,learning,display_response,PSeQ9YUg4SeKbRSkDk74IrBEEM23,PSeQ9YUg4SeKbRSkDk74IrBEEM23,,,,,,,,,,,,,,,,,chosen stimuli: images/choice_trial_4.png,,,,,62e023ae6d022e4d7bfc5db1,09:05:42,27/02/2024
html-keyboard-response,49,91240,0.0-22.0-2.0,,,,delaylearn,learning,feedback_duration_window,PSeQ9YUg4SeKbRSkDk74IrBEEM23,PSeQ9YUg4SeKbRSkDk74IrBEEM23,,,,,,,,,,,,,,,,,,7000.0,,,,62e023ae6d022e4d7bfc5db1,09:05:42,27/02/2024
html-keyboard-response,50,92745,0.0-22.0-3.0,,<div style='margin:auto;width: auto; font-size: 150%'><span style='font-weight: bold; font-size: 100px; color: red;'>0 points!</span><br><br></div>,,delaylearn,learning,feedback_image_window,PSeQ9YUg4SeKbRSkDk74IrBEEM23,PSeQ9YUg4SeKbRSkDk74IrBEEM23,,,,,,,,,,,,,,,,,,,,,,62e023ae6d022e4d7bfc5db1,09:05:42,27/02/2024
html-keyboard-response,51,94565,0.0-23.0,,"<div style=""font-size:100px;"">+</div>",,delaylearn,learning,ITI,PSeQ9YUg4SeKbRSkDk74IrBEEM23,PSeQ9YUg4SeKbRSkDk74IrBEEM23,,,,,,,,,,,,,,,,,,,1818.0,,,62e023ae6d022e4d7bfc5db1,09:05:42,27/02/2024
html-keyboard-response,52,96719,0.0-24.0-0.0,2151.5,"<div style=""display: flex; flex-direction: column; align-items: center; margin-top: -40px;""><img src=""images/pattern_5.png"" style=""width: 234px; height: 230px; margin-top: -50px;""><div style=""display: flex; justify-content: space-between; margin-top: 33px;""><img src=""images/choice_trial_13.png"" style=""width: 408px; height: 417px; margin-right: 200px;""><img src=""images/choice_trial_7.png"" style=""width: 408px; height: 417px;""></div></div>",j,delaylearn,learning,trial,PSeQ9YUg4SeKbRSkDk74IrBEEM23,PSeQ9YUg4SeKbRSkDk74IrBEEM23,5.0,images/choice_trial_13.png,images/choice_trial_7.png,images/pattern_5.png,j,j,750.0,13.0,7.0,4.0,1.0,10.0,1.0,1.0,7.0,30.0,,,,,,62e023ae6d022e4d7bfc5db1,09:05:42,27/02/2024
html-keyboard-response,53,97721,0.0-24.0-1.0,,"<div style=""display: flex; flex-direction: column; align-items: center; margin-top: -40px;""><img src=""images/pattern_5.png"" style=""width: 234px; height: 230px; margin-top: -50px;""><div style=""display: flex; justify-content: space-between; margin-top: 33px;""><img src=""images/choice_trial_7.png"" style=""width: 408px; height: 417px; margin-left:608px;""></div></div>",,delaylearn,learning,display_response,PSeQ9YUg4SeKbRSkDk74IrBEEM23,PSeQ9YUg4SeKbRSkDk74IrBEEM23,,,,,,,,,,,,,,,,,chosen stimuli: images/choice_trial_7.png,,,,,62e023ae6d022e4d7bfc5db1,09:05:42,27/02/2024
html-keyboard-response,54,98473,0.0-24.0-2.0,,,,delaylearn,learning,feedback_duration_window,PSeQ9YUg4SeKbRSkDk74IrBEEM23,PSeQ9YUg4SeKbRSkDk74IrBEEM23,,,,,,,,,,,,,,,,,,750.0,,,,62e023ae6d022e4d7bfc5db1,09:05:42,27/02/2024
html-keyboard-response,55,99979,0.0-24.0-3.0,,<div style='margin:auto;width: auto; font-size: 150%'><span style='font-weight: bold; font-size: 100px; color: green;'>+10 points!</span><br><br></div>,,delaylearn,learning,feedback_image_window,PSeQ9YUg4SeKbRSkDk74IrBEEM23,PSeQ9YUg4SeKbRSkDk74IrBEEM23,,,,,,,,,,,,,,,,,,,,,,62e023ae6d022e4d7bfc5db1,09:05:42,27/02/2024
html-keyboard-response,56,101523,0.0-25.0,,"<div style=""font-size:100px;"">+</div>",,delaylearn,learning,ITI,PSeQ9YUg4SeKbRSkDk74IrBEEM23,PSeQ9YUg4SeKbRSkDk74IrBEEM23,,,,,,,,,,,,,,,,,,,1538.0,,,62e023ae6d022e4d7bfc5db1,09:05:42,27/02/2024
html-keyboard-response,57,104324,0.0-26.0-0.0,2797.900000035763,"<div style=""display: flex; flex-direction: column; align-items: center; margin-top: -40px;""><img src=""images/pattern_6.png"" style=""width: 234px; height: 230px; margin-top: -50px;""><div style=""display: flex; justify-content: space-between; margin-top: 33px;""><img src=""images/choice_trial_14.png"" style=""width: 408px; height: 417px; margin-right: 200px;""><img src=""images/choice_trial_9.png"" style=""width: 408px; height: 417px;""></div></div>",j,delaylearn,learning,trial,PSeQ9YUg4SeKbRSkDk74IrBEEM23,PSeQ9YUg4SeKbRSkDk74IrBEEM23,5.0,images/choice_trial_14.png,images/choice_trial_9.png,images/pattern_6.png,j,f,750.0,14.0,9.0,5.0,0.0,11.0,0.0,1.0,9.0,40.0,,,,,,62e023ae6d022e4d7bfc5db1,09:05:42,27/02/2024
html-keyboard-response,58,105327,0.0-26.0-1.0,,"<div style=""display: flex; flex-direction: column; align-items: center; margin-top: -40px;""><img src=""images/pattern_6.png"" style=""width: 234px; height: 230px; margin-top: -50px;""><div style=""display: flex; justify-content: space-between; margin-top: 33px;""><img src=""images/choice_trial_9.png"" style=""width: 408px; height: 417px; margin-left:608px;""></div></div>",,delaylearn,learning,display_response,PSeQ9YUg4SeKbRSkDk74IrBEEM23,PSeQ9YUg4SeKbRSkDk74IrBEEM23,,,,,,,,,,,,,,,,,chosen stimuli: images/choice_trial_9.png,,,,,62e023ae6d022e4d7bfc5db1,09:05:42,27/02/2024
html-keyboard-response,59,106084,0.0-26.0-2.0,,,,delaylearn,learning,feedback_duration_window,PSeQ9YUg4SeKbRSkDk74IrBEEM23,PSeQ9YUg4SeKbRSkDk74IrBEEM23,,,,,,,,,,,,,,,,,,750.0,,,,62e023ae6d022e4d7bfc5db1,09:05:42,27/02/2024
html-keyboard-response,60,107590,0.0-26.0-3.0,,<div style='margin:auto;width: auto; font-size: 150%'><span style='font-weight: bold; font-size: 100px; color: green;'>+10 points!</span><br><br></div>,,delaylearn,learning,feedback_image_window,PSeQ9YUg4SeKbRSkDk74IrBEEM23,PSeQ9YUg4SeKbRSkDk74IrBEEM23,,,,,,,,,,,,,,,,,,,,,,62e023ae6d022e4d7bfc5db1,09:05:42,27/02/2024
html-keyboard-response,61,108091,0.0-27.0-0.0,,,,,,mood_trial_fixation,PSeQ9YUg4SeKbRSkDk74IrBEEM23,,,,,,,,,,,,,,,,,,,,,,,62e023ae6d022e4d7bfc5db1,09:05:42,27/02/2024
lmdlab-html-vas-response,62,111275,0.0-27.0-1.0,2178.0,How happy are you right now?,0.5709876543209876,delaylearn,learning,mood_trial,PSeQ9YUg4SeKbRSkDk74IrBEEM23,PSeQ9YUg4SeKbRSkDk74IrBEEM23,,,,,,,,,,,,,,,,,,,,"['Very unhappy', 'Very happy']",,62e023ae6d022e4d7bfc5db1,09:05:42,27/02/2024
html-keyboard-response,63,113764,0.0-28.0,,"<div style=""font-size:100px;"">+</div>",,delaylearn,learning,ITI,PSeQ9YUg4SeKbRSkDk74IrBEEM23,PSeQ9YUg4SeKbRSkDk74IrBEEM23,,,,,,,,,,,,,,,,,,,2484.0,,,62e023ae6d022e4d7bfc5db1,09:05:42,27/02/2024
html-keyboard-response,64,115360,0.0-29.0-0.0,1592.8999999761581,"<div style=""display: flex; flex-direction: column; align-items: center; margin-top: -40px;""><img src=""images/pattern_1.png"" style=""width: 234px; height: 230px; margin-top: -50px;""><div style=""display: flex; justify-content: space-between; margin-top: 33px;""><img src=""images/choice_trial_15.png"" style=""width: 408px; height: 417px; margin-right: 200px;""><img src=""images/choice_trial_6.png"" style=""width: 408px; height: 417px;""></div></div>",f,delaylearn,learning,trial,PSeQ9YUg4SeKbRSkDk74IrBEEM23,PSeQ9YUg4SeKbRSkDk74IrBEEM23,5.0,images/choice_trial_15.png,images/choice_trial_6.png,images/pattern_1.png,j,j,7000.0,15.0,6.0,1.0,1.0,12.0,0.0,0.0,15.0,40.0,,,,,,62e023ae6d022e4d7bfc5db1,09:05:42,27/02/2024
html-keyboard-response,65,116367,0.0-29.0-1.0,,"<div style=""display: flex; flex-direction: column; align-items: center; margin-top: -40px;""><img src=""images/pattern_1.png"" style=""width: 234px; height: 230px; margin-top: -50px;""><div style=""display: flex; justify-content: space-between; margin-top: 33px;""><img src=""images/choice_trial_15.png"" style=""width: 408px; height: 417px; margin-right: 608px;""></div></div>",,delaylearn,learning,display_response,PSeQ9YUg4SeKbRSkDk74IrBEEM23,PSeQ9YUg4SeKbRSkDk74IrBEEM23,,,,,,,,,,,,,,,,,chosen stimuli: images/choice_trial_15.png,,,,,62e023ae6d022e4d7bfc5db1,09:05:42,27/02/2024
html-keyboard-response,66,123373,0.0-29.0-2.0,,,,delaylearn,learning,feedback_duration_window,PSeQ9YUg4SeKbRSkDk74IrBEEM23,PSeQ9YUg4SeKbRSkDk74IrBEEM23,,,,,,,,,,,,,,,,,,7000.0,,,,62e023ae6d022e4d7bfc5db1,09:05:42,27/02/2024
html-keyboard-response,67,124879,0.0-29.0-3.0,,<div style='margin:auto;width: auto; font-size: 150%'><span style='font-weight: bold; font-size: 100px; color: red;'>0 points!</span><br><br></div>,,delaylearn,learning,feedback_image_window,PSeQ9YUg4SeKbRSkDk74IrBEEM23,PSeQ9YUg4SeKbRSkDk74IrBEEM23,,,,,,,,,,,,,,,,,,,,,,62e023ae6d022e4d7bfc5db1,09:05:42,27/02/2024
html-keyboard-response,68,127361,0.0-30.0,,"<div style=""font-size:100px;"">+</div>",,delaylearn,learning,ITI,PSeQ9YUg4SeKbRSkDk74IrBEEM23,PSeQ9YUg4SeKbRSkDk74IrBEEM23,,,,,,,,,,,,,,,,,,,2480.0,,,62e023ae6d022e4d7bfc5db1,09:05:42,27/02/2024
html-keyboard-response,69,128407,0.0-31.0-0.0,1040.5999999642372,"<div style=""display: flex; flex-direction: column; align-items: center; margin-top: -40px;""><img src=""images/pattern_3.png"" style=""width: 234px; height: 230px; margin-top: -50px;""><div style=""display: flex; justify-content: space-between; margin-top: 33px;""><img src=""images/choice_trial_2.png"" style=""width: 408px; height: 417px; margin-right: 200px;""><img src=""images/choice_trial_16.png"" style=""width: 408px; height: 417px;""></div></div>",j,delaylearn,learning,trial,PSeQ9YUg4SeKbRSkDk74IrBEEM23,PSeQ9YUg4SeKbRSkDk74IrBEEM23,5.0,images/choice_trial_2.png,images/choice_trial_16.png,images/pattern_3.png,f,j,7000.0,2.0,16.0,2.0,1.0,13.0,1.0,0.0,16.0,40.0,,,,,,62e023ae6d022e4d7bfc5db1,09:05:42,27/02/2024
html-keyboard-response,70,129414,0.0-31.0-1.0,,"<div style=""display: flex; flex-direction: column; align-items: center; margin-top: -40px;""><img src=""images/pattern_3.png"" style=""width: 234px; height: 230px; margin-top: -50px;""><div style=""display: flex; justify-content: space-between; margin-top: 33px;""><img src=""images/choice_trial_16.png"" style=""width: 408px; height: 417px; margin-left:608px;""></div></div>",,delaylearn,learning,display_response,PSeQ9YUg4SeKbRSkDk74IrBEEM23,PSeQ9YUg4SeKbRSkDk74IrBEEM23,,,,,,,,,,,,,,,,,chosen stimuli: images/choice_trial_16.png,,,,,62e023ae6d022e4d7bfc5db1,09:05:42,27/02/2024
html-keyboard-response,71,136419,0.0-31.0-2.0,,,,delaylearn,learning,feedback_duration_window,PSeQ9YUg4SeKbRSkDk74IrBEEM23,PSeQ9YUg4SeKbRSkDk74IrBEEM23,,,,,,,,,,,,,,,,,,7000.0,,,,62e023ae6d022e4d7bfc5db1,09:05:42,27/02/2024
html-keyboard-response,72,137922,0.0-31.0-3.0,,<div style='margin:auto;width: auto; font-size: 150%'><span style='font-weight: bold; font-size: 100px; color: red;'>0 points!</span><br><br></div>,,delaylearn,learning,feedback_image_window,PSeQ9YUg4SeKbRSkDk74IrBEEM23,PSeQ9YUg4SeKbRSkDk74IrBEEM23,,,,,,,,,,,,,,,,,,,,,,62e023ae6d022e4d7bfc5db1,09:05:42,27/02/2024
html-keyboard-response,73,140162,0.0-32.0,,"<div style=""font-size:100px;"">+</div>",,delaylearn,learning,ITI,PSeQ9YUg4SeKbRSkDk74IrBEEM23,PSeQ9YUg4SeKbRSkDk74IrBEEM23,,,,,,,,,,,,,,,,,,,2237.0,,,62e023ae6d022e4d7bfc5db1,09:05:42,27/02/2024
html-keyboard-response,74,141584,0.0-33.0-0.0,1420.3999999761581,"<div style=""display: flex; flex-direction: column; align-items: center; margin-top: -40px;""><img src=""images/pattern_5.png"" style=""width: 234px; height: 230px; margin-top: -50px;""><div style=""display: flex; justify-content: space-between; margin-top: 33px;""><img src=""images/choice_trial_7.png"" style=""width: 408px; height: 417px; margin-right: 200px;""><img src=""images/choice_trial_13.png"" style=""width: 408px; height: 417px;""></div></div>",j,delaylearn,learning,trial,PSeQ9YUg4SeKbRSkDk74IrBEEM23,PSeQ9YUg4SeKbRSkDk74IrBEEM23,5.0,images/choice_trial_7.png,images/choice_trial_13.png,images/pattern_5.png,f,f,750.0,7.0,13.0,4.0,0.0,14.0,0.0,0.0,13.0,40.0,,,,,,62e023ae6d022e4d7bfc5db1,09:05:42,27/02/2024
html-keyboard-response,75,142587,0.0-33.0-1.0,,"<div style=""display: flex; flex-direction: column; align-items: center; margin-top: -40px;""><img src=""images/pattern_5.png"" style=""width: 234px; height: 230px; margin-top: -50px;""><div style=""display: flex; justify-content: space-between; margin-top: 33px;""><img src=""images/choice_trial_13.png"" style=""width: 408px; height: 417px; margin-left:608px;""></div></div>",,delaylearn,learning,display_response,PSeQ9YUg4SeKbRSkDk74IrBEEM23,PSeQ9YUg4SeKbRSkDk74IrBEEM23,,,,,,,,,,,,,,,,,chosen stimuli: images/choice_trial_13.png,,,,,62e023ae6d022e4d7bfc5db1,09:05:42,27/02/2024
html-keyboard-response,76,143343,0.0-33.0-2.0,,,,delaylearn,learning,feedback_duration_window,PSeQ9YUg4SeKbRSkDk74IrBEEM23,PSeQ9YUg4SeKbRSkDk74IrBEEM23,,,,,,,,,,,,,,,,,,750.0,,,,62e023ae6d022e4d7bfc5db1,09:05:42,27/02/2024
html-keyboard-response,77,144846,0.0-33.0-3.0,,<div style='margin:auto;width: auto; font-size: 150%'><span style='font-weight: bold; font-size: 100px; color: red;'>0 points!</span><br><br></div>,,delaylearn,learning,feedback_image_window,PSeQ9YUg4SeKbRSkDk74IrBEEM23,PSeQ9YUg4SeKbRSkDk74IrBEEM23,,,,,,,,,,,,,,,,,,,,,,62e023ae6d022e4d7bfc5db1,09:05:42,27/02/2024
html-keyboard-response,78,145350,0.0-34.0-0.0,,,,,,mood_trial_fixation,PSeQ9YUg4SeKbRSkDk74IrBEEM23,,,,,,,,,,,,,,,,,,,,,,,62e023ae6d022e4d7bfc5db1,09:05:42,27/02/2024
lmdlab-html-vas-response,79,149969,0.0-34.0-1.0,3612.0,How happy are you right now?,0.6373456790123457,delaylearn,learning,mood_trial,PSeQ9YUg4SeKbRSkDk74IrBEEM23,PSeQ9YUg4SeKbRSkDk74IrBEEM23,,,,,,,,,,,,,,,,,,,,"['Very unhappy', 'Very happy']",,62e023ae6d022e4d7bfc5db1,09:05:42,27/02/2024
html-keyboard-response,80,151726,0.0-35.0,,"<div style=""font-size:100px;"">+</div>",,delaylearn,learning,ITI,PSeQ9YUg4SeKbRSkDk74IrBEEM23,PSeQ9YUg4SeKbRSkDk74IrBEEM23,,,,,,,,,,,,,,,,,,,1755.0,,,62e023ae6d022e4d7bfc5db1,09:05:42,27/02/2024
html-keyboard-response,81,153409,0.0-36.0-0.0,1678.800000011921,"<div style=""display: flex; flex-direction: column; align-items: center; margin-top: -40px;""><img src=""images/pattern_6.png"" style=""width: 234px; height: 230px; margin-top: -50px;""><div style=""display: flex; justify-content: space-between; margin-top: 33px;""><img src=""images/choice_trial_14.png"" style=""width: 408px; height: 417px; margin-right: 200px;""><img src=""images/choice_trial_9.png"" style=""width: 408px; height: 417px;""></div></div>",f,delaylearn,learning,trial,PSeQ9YUg4SeKbRSkDk74IrBEEM23,PSeQ9YUg4SeKbRSkDk74IrBEEM23,5.0,images/choice_trial_14.png,images/choice_trial_9.png,images/pattern_6.png,f,f,750.0,14.0,9.0,5.0,0.0,15.0,1.0,1.0,14.0,50.0,,,,,,62e023ae6d022e4d7bfc5db1,09:05:42,27/02/2024
html-keyboard-response,82,154412,0.0-36.0-1.0,,"<div style=""display: flex; flex-direction: column; align-items: center; margin-top: -40px;""><img src=""images/pattern_6.png"" style=""width: 234px; height: 230px; margin-top: -50px;""><div style=""display: flex; justify-content: space-between; margin-top: 33px;""><img src=""images/choice_trial_14.png"" style=""width: 408px; height: 417px; margin-right: 608px;""></div></div>",,delaylearn,learning,display_response,PSeQ9YUg4SeKbRSkDk74IrBEEM23,PSeQ9YUg4SeKbRSkDk74IrBEEM23,,,,,,,,,,,,,,,,,chosen stimuli: images/choice_trial_14.png,,,,,62e023ae6d022e4d7bfc5db1,09:05:42,27/02/2024
html-keyboard-response,83,155169,0.0-36.0-2.0,,,,delaylearn,learning,feedback_duration_window,PSeQ9YUg4SeKbRSkDk74IrBEEM23,PSeQ9YUg4SeKbRSkDk74IrBEEM23,,,,,,,,,,,,,,,,,,750.0,,,,62e023ae6d022e4d7bfc5db1,09:05:42,27/02/2024
html-keyboard-response,84,156672,0.0-36.0-3.0,,<div style='margin:auto;width: auto; font-size: 150%'><span style='font-weight: bold; font-size: 100px; color: green;'>+10 points!</span><br><br></div>,,delaylearn,learning,feedback_image_window,PSeQ9YUg4SeKbRSkDk74IrBEEM23,PSeQ9YUg4SeKbRSkDk74IrBEEM23,,,,,,,,,,,,,,,,,,,,,,62e023ae6d022e4d7bfc5db1,09:05:42,27/02/2024
html-keyboard-response,85,158393,0.0-37.0,,"<div style=""font-size:100px;"">+</div>",,delaylearn,learning,ITI,PSeQ9YUg4SeKbRSkDk74IrBEEM23,PSeQ9YUg4SeKbRSkDk74IrBEEM23,,,,,,,,,,,,,,,,,,,1717.0,,,62e023ae6d022e4d7bfc5db1,09:05:42,27/02/2024
html-keyboard-response,86,159743,0.0-38.0-0.0,1347.300000011921,"<div style=""display: flex; flex-direction: column; align-items: center; margin-top: -40px;""><img src=""images/pattern_4.png"" style=""width: 234px; height: 230px; margin-top: -50px;""><div style=""display: flex; justify-content: space-between; margin-top: 33px;""><img src=""images/choice_trial_4.png"" style=""width: 408px; height: 417px; margin-right: 200px;""><img src=""images/choice_trial_11.png"" style=""width: 408px; height: 417px;""></div></div>",j,delaylearn,learning,trial,PSeQ9YUg4SeKbRSkDk74IrBEEM23,PSeQ9YUg4SeKbRSkDk74IrBEEM23,5.0,images/choice_trial_4.png,images/choice_trial_11.png,images/pattern_4.png,j,j,7000.0,4.0,11.0,3.0,1.0,16.0,1.0,1.0,11.0,60.0,,,,,,62e023ae6d022e4d7bfc5db1,09:05:42,27/02/2024
html-keyboard-response,87,160747,0.0-38.0-1.0,,"<div style=""display: flex; flex-direction: column; align-items: center; margin-top: -40px;""><img src=""images/pattern_4.png"" style=""width: 234px; height: 230px; margin-top: -50px;""><div style=""display: flex; justify-content: space-between; margin-top: 33px;""><img src=""images/choice_trial_11.png"" style=""width: 408px; height: 417px; margin-left:608px;""></div></div>",,delaylearn,learning,display_response,PSeQ9YUg4SeKbRSkDk74IrBEEM23,PSeQ9YUg4SeKbRSkDk74IrBEEM23,,,,,,,,,,,,,,,,,chosen stimuli: images/choice_trial_11.png,,,,,62e023ae6d022e4d7bfc5db1,09:05:42,27/02/2024
html-keyboard-response,88,167749,0.0-38.0-2.0,,,,delaylearn,learning,feedback_duration_window,PSeQ9YUg4SeKbRSkDk74IrBEEM23,PSeQ9YUg4SeKbRSkDk74IrBEEM23,,,,,,,,,,,,,,,,,,7000.0,,,,62e023ae6d022e4d7bfc5db1,09:05:42,27/02/2024
html-keyboard-response,89,169252,0.0-38.0-3.0,,<div style='margin:auto;width: auto; font-size: 150%'><span style='font-weight: bold; font-size: 100px; color: green;'>+10 points!</span><br><br></div>,,delaylearn,learning,feedback_image_window,PSeQ9YUg4SeKbRSkDk74IrBEEM23,PSeQ9YUg4SeKbRSkDk74IrBEEM23,,,,,,,,,,,,,,,,,,,,,,62e023ae6d022e4d7bfc5db1,09:05:42,27/02/2024
html-keyboard-response,90,170932,0.0-39.0,,"<div style=""font-size:100px;"">+</div>",,delaylearn,learning,ITI,PSeQ9YUg4SeKbRSkDk74IrBEEM23,PSeQ9YUg4SeKbRSkDk74IrBEEM23,,,,,,,,,,,,,,,,,,,1676.0,,,62e023ae6d022e4d7bfc5db1,09:05:42,27/02/2024
html-keyboard-response,91,173372,0.0-40.0-0.0,2435.0,"<div style=""display: flex; flex-direction: column; align-items: center; margin-top: -40px;""><img src=""images/pattern_7.png"" style=""width: 234px; height: 230px; margin-top: -50px;""><div style=""display: flex; justify-content: space-between; margin-top: 33px;""><img src=""images/choice_trial_8.png"" style=""width: 408px; height: 417px; margin-right: 200px;""><img src=""images/choice_trial_10.png"" style=""width: 408px; height: 417px;""></div></div>",j,delaylearn,learning,trial,PSeQ9YUg4SeKbRSkDk74IrBEEM23,PSeQ9YUg4SeKbRSkDk74IrBEEM23,5.0,images/choice_trial_8.png,images/choice_trial_10.png,images/pattern_7.png,j,f,750.0,8.0,10.0,6.0,0.0,17.0,0.0,1.0,10.0,70.0,,,,,,62e023ae6d022e4d7bfc5db1,09:05:42,27/02/2024
html-keyboard-response,92,174375,0.0-40.0-1.0,,"<div style=""display: flex; flex-direction: column; align-items: center; margin-top: -40px;""><img src=""images/pattern_7.png"" style=""width: 234px; height: 230px; margin-top: -50px;""><div style=""display: flex; justify-content: space-between; margin-top: 33px;""><img src=""images/choice_trial_10.png"" style=""width: 408px; height: 417px; margin-left:608px;""></div></div>",,delaylearn,learning,display_response,PSeQ9YUg4SeKbRSkDk74IrBEEM23,PSeQ9YUg4SeKbRSkDk74IrBEEM23,,,,,,,,,,,,,,,,,chosen stimuli: images/choice_trial_10.png,,,,,62e023ae6d022e4d7bfc5db1,09:05:42,27/02/2024
html-keyboard-response,93,175127,0.0-40.0-2.0,,,,delaylearn,learning,feedback_duration_window,PSeQ9YUg4SeKbRSkDk74IrBEEM23,PSeQ9YUg4SeKbRSkDk74IrBEEM23,,,,,,,,,,,,,,,,,,750.0,,,,62e023ae6d022e4d7bfc5db1,09:05:42,27/02/2024
html-keyboard-response,94,176630,0.0-40.0-3.0,,<div style='margin:auto;width: auto; font-size: 150%'><span style='font-weight: bold; font-size: 100px; color: green;'>+10 points!</span><br><br></div>,,delaylearn,learning,feedback_image_window,PSeQ9YUg4SeKbRSkDk74IrBEEM23,PSeQ9YUg4SeKbRSkDk74IrBEEM23,,,,,,,,,,,,,,,,,,,,,,62e023ae6d022e4d7bfc5db1,09:05:42,27/02/2024
html-keyboard-response,95,178959,0.0-41.0,,"<div style=""font-size:100px;"">+</div>",,delaylearn,learning,ITI,PSeQ9YUg4SeKbRSkDk74IrBEEM23,PSeQ9YUg4SeKbRSkDk74IrBEEM23,,,,,,,,,,,,,,,,,,,2324.0,,,62e023ae6d022e4d7bfc5db1,09:05:42,27/02/2024
html-keyboard-response,96,180997,0.0-42.0-0.0,2034.6000000238419,"<div style=""display: flex; flex-direction: column; align-items: center; margin-top: -40px;""><img src=""images/pattern_1.png"" style=""width: 234px; height: 230px; margin-top: -50px;""><div style=""display: flex; justify-content: space-between; margin-top: 33px;""><img src=""images/choice_trial_6.png"" style=""width: 408px; height: 417px; margin-right: 200px;""><img src=""images/choice_trial_15.png"" style=""width: 408px; height: 417px;""></div></div>",j,delaylearn,learning,trial,PSeQ9YUg4SeKbRSkDk74IrBEEM23,PSeQ9YUg4SeKbRSkDk74IrBEEM23,5.0,images/choice_trial_6.png,images/choice_trial_15.png,images/pattern_1.png,f,f,7000.0,6.0,15.0,1.0,0.0,18.0,0.0,0.0,15.0,70.0,,,,,,62e023ae6d022e4d7bfc5db1,09:05:42,27/02/2024
html-keyboard-response,97,182002,0.0-42.0-1.0,,"<div style=""display: flex; flex-direction: column; align-items: center; margin-top: -40px;""><img src=""images/pattern_1.png"" style=""width: 234px; height: 230px; margin-top: -50px;""><div style=""display: flex; justify-content: space-between; margin-top: 33px;""><img src=""images/choice_trial_15.png"" style=""width: 408px; height: 417px; margin-left:608px;""></div></div>",,delaylearn,learning,display_response,PSeQ9YUg4SeKbRSkDk74IrBEEM23,PSeQ9YUg4SeKbRSkDk74IrBEEM23,,,,,,,,,,,,,,,,,chosen stimuli: images/choice_trial_15.png,,,,,62e023ae6d022e4d7bfc5db1,09:05:42,27/02/2024
html-keyboard-response,98,189009,0.0-42.0-2.0,,,,delaylearn,learning,feedback_duration_window,PSeQ9YUg4SeKbRSkDk74IrBEEM23,PSeQ9YUg4SeKbRSkDk74IrBEEM23,,,,,,,,,,,,,,,,,,7000.0,,,,62e023ae6d022e4d7bfc5db1,09:05:42,27/02/2024
html-keyboard-response,99,190514,0.0-42.0-3.0,,<div style='margin:auto;width: auto; font-size: 150%'><span style='font-weight: bold; font-size: 100px; color: red;'>0 points!</span><br><br></div>,,delaylearn,learning,feedback_image_window,PSeQ9YUg4SeKbRSkDk74IrBEEM23,PSeQ9YUg4SeKbRSkDk74IrBEEM23,,,,,,,,,,,,,,,,,,,,,,62e023ae6d022e4d7bfc5db1,09:05:42,27/02/2024
html-keyboard-response,100,192552,0.0-43.0,,"<div style=""font-size:100px;"">+</div>",,delaylearn,learning,ITI,PSeQ9YUg4SeKbRSkDk74IrBEEM23,PSeQ9YUg4SeKbRSkDk74IrBEEM23,,,,,,,,,,,,,,,,,,,2033.0,,,62e023ae6d022e4d7bfc5db1,09:05:42,27/02/2024
html-keyboard-response,101,194082,0.0-44.0-0.0,1526.5,"<div style=""display: flex; flex-direction: column; align-items: center; margin-top: -40px;""><img src=""images/pattern_6.png"" style=""width: 234px; height: 230px; margin-top: -50px;""><div style=""display: flex; justify-content: space-between; margin-top: 33px;""><img src=""images/choice_trial_9.png"" style=""width: 408px; height: 417px; margin-right: 200px;""><img src=""images/choice_trial_14.png"" style=""width: 408px; height: 417px;""></div></div>",f,delaylearn,learning,trial,PSeQ9YUg4SeKbRSkDk74IrBEEM23,PSeQ9YUg4SeKbRSkDk74IrBEEM23,5.0,images/choice_trial_9.png,images/choice_trial_14.png,images/pattern_6.png,j,j,750.0,9.0,14.0,5.0,1.0,19.0,0.0,0.0,9.0,70.0,,,,,,62e023ae6d022e4d7bfc5db1,09:05:42,27/02/2024
html-keyboard-response,102,195087,0.0-44.0-1.0,,"<div style=""display: flex; flex-direction: column; align-items: center; margin-top: -40px;""><img src=""images/pattern_6.png"" style=""width: 234px; height: 230px; margin-top: -50px;""><div style=""display: flex; justify-content: space-between; margin-top: 33px;""><img src=""images/choice_trial_9.png"" style=""width: 408px; height: 417px; margin-right: 608px;""></div></div>",,delaylearn,learning,display_response,PSeQ9YUg4SeKbRSkDk74IrBEEM23,PSeQ9YUg4SeKbRSkDk74IrBEEM23,,,,,,,,,,,,,,,,,chosen stimuli: images/choice_trial_9.png,,,,,62e023ae6d022e4d7bfc5db1,09:05:42,27/02/2024
html-keyboard-response,103,195842,0.0-44.0-2.0,,,,delaylearn,learning,feedback_duration_window,PSeQ9YUg4SeKbRSkDk74IrBEEM23,PSeQ9YUg4SeKbRSkDk74IrBEEM23,,,,,,,,,,,,,,,,,,750.0,,,,62e023ae6d022e4d7bfc5db1,09:05:42,27/02/2024
html-keyboard-response,104,197345,0.0-44.0-3.0,,<div style='margin:auto;width: auto; font-size: 150%'><span style='font-weight: bold; font-size: 100px; color: red;'>0 points!</span><br><br></div>,,delaylearn,learning,feedback_image_window,PSeQ9YUg4SeKbRSkDk74IrBEEM23,PSeQ9YUg4SeKbRSkDk74IrBEEM23,,,,,,,,,,,,,,,,,,,,,,62e023ae6d022e4d7bfc5db1,09:05:42,27/02/2024
html-keyboard-response,105,199311,0.0-45.0,,"<div style=""font-size:100px;"">+</div>",,delaylearn,learning,ITI,PSeQ9YUg4SeKbRSkDk74IrBEEM23,PSeQ9YUg4SeKbRSkDk74IrBEEM23,,,,,,,,,,,,,,,,,,,1961.0,,,62e023ae6d022e4d7bfc5db1,09:05:42,27/02/2024
html-keyboard-response,106,201832,0.0-46.0-0.0,2516.800000011921,"<div style=""display: flex; flex-direction: column; align-items: center; margin-top: -40px;""><img src=""images/pattern_4.png"" style=""width: 234px; height: 230px; margin-top: -50px;""><div style=""display: flex; justify-content: space-between; margin-top: 33px;""><img src=""images/choice_trial_11.png"" style=""width: 408px; height: 417px; margin-right: 200px;""><img src=""images/choice_trial_4.png"" style=""width: 408px; height: 417px;""></div></div>",j,delaylearn,learning,trial,PSeQ9YUg4SeKbRSkDk74IrBEEM23,PSeQ9YUg4SeKbRSkDk74IrBEEM23,5.0,images/choice_trial_11.png,images/choice_trial_4.png,images/pattern_4.png,f,f,7000.0,11.0,4.0,3.0,0.0,20.0,0.0,0.0,4.0,70.0,,,,,,62e023ae6d022e4d7bfc5db1,09:05:42,27/02/2024
html-keyboard-response,107,202841,0.0-46.0-1.0,,"<div style=""display: flex; flex-direction: column; align-items: center; margin-top: -40px;""><img src=""images/pattern_4.png"" style=""width: 234px; height: 230px; margin-top: -50px;""><div style=""display: flex; justify-content: space-between; margin-top: 33px;""><img src=""images/choice_trial_4.png"" style=""width: 408px; height: 417px; margin-left:608px;""></div></div>",,delaylearn,learning,display_response,PSeQ9YUg4SeKbRSkDk74IrBEEM23,PSeQ9YUg4SeKbRSkDk74IrBEEM23,,,,,,,,,,,,,,,,,chosen stimuli: images/choice_trial_4.png,,,,,62e023ae6d022e4d7bfc5db1,09:05:42,27/02/2024
html-keyboard-response,108,209843,0.0-46.0-2.0,,,,delaylearn,learning,feedback_duration_window,PSeQ9YUg4SeKbRSkDk74IrBEEM23,PSeQ9YUg4SeKbRSkDk74IrBEEM23,,,,,,,,,,,,,,,,,,7000.0,,,,62e023ae6d022e4d7bfc5db1,09:05:42,27/02/2024
html-keyboard-response,109,211348,0.0-46.0-3.0,,<div style='margin:auto;width: auto; font-size: 150%'><span style='font-weight: bold; font-size: 100px; color: red;'>0 points!</span><br><br></div>,,delaylearn,learning,feedback_image_window,PSeQ9YUg4SeKbRSkDk74IrBEEM23,PSeQ9YUg4SeKbRSkDk74IrBEEM23,,,,,,,,,,,,,,,,,,,,,,62e023ae6d022e4d7bfc5db1,09:05:42,27/02/2024
html-keyboard-response,110,211850,0.0-47.0-0.0,,,,,,mood_trial_fixation,PSeQ9YUg4SeKbRSkDk74IrBEEM23,,,,,,,,,,,,,,,,,,,,,,,62e023ae6d022e4d7bfc5db1,09:05:42,27/02/2024
lmdlab-html-vas-response,111,215767,0.0-47.0-1.0,2910.0,How happy are you right now?,0.595679012345679,delaylearn,learning,mood_trial,PSeQ9YUg4SeKbRSkDk74IrBEEM23,PSeQ9YUg4SeKbRSkDk74IrBEEM23,,,,,,,,,,,,,,,,,,,,"['Very unhappy', 'Very happy']",,62e023ae6d022e4d7bfc5db1,09:05:42,27/02/2024
html-keyboard-response,112,217801,0.0-48.0,,"<div style=""font-size:100px;"">+</div>",,delaylearn,learning,ITI,PSeQ9YUg4SeKbRSkDk74IrBEEM23,PSeQ9YUg4SeKbRSkDk74IrBEEM23,,,,,,,,,,,,,,,,,,,2032.0,,,62e023ae6d022e4d7bfc5db1,09:05:42,27/02/2024
html-keyboard-response,113,220027,0.0-49.0-0.0,2222.699999988079,"<div style=""display: flex; flex-direction: column; align-items: center; margin-top: -40px;""><img src=""images/pattern_7.png"" style=""width: 234px; height: 230px; margin-top: -50px;""><div style=""display: flex; justify-content: space-between; margin-top: 33px;""><img src=""images/choice_trial_10.png"" style=""width: 408px; height: 417px; margin-right: 200px;""><img src=""images/choice_trial_8.png"" style=""width: 408px; height: 417px;""></div></div>",f,delaylearn,learning,trial,PSeQ9YUg4SeKbRSkDk74IrBEEM23,PSeQ9YUg4SeKbRSkDk74IrBEEM23,5.0,images/choice_trial_10.png,images/choice_trial_8.png,images/pattern_7.png,j,j,750.0,10.0,8.0,6.0,1.0,21.0,0.0,0.0,10.0,70.0,,,,,,62e023ae6d022e4d7bfc5db1,09:05:42,27/02/2024
html-keyboard-response,114,221034,0.0-49.0-1.0,,"<div style=""display: flex; flex-direction: column; align-items: center; margin-top: -40px;""><img src=""images/pattern_7.png"" style=""width: 234px; height: 230px; margin-top: -50px;""><div style=""display: flex; justify-content: space-between; margin-top: 33px;""><img src=""images/choice_trial_10.png"" style=""width: 408px; height: 417px; margin-right: 608px;""></div></div>",,delaylearn,learning,display_response,PSeQ9YUg4SeKbRSkDk74IrBEEM23,PSeQ9YUg4SeKbRSkDk74IrBEEM23,,,,,,,,,,,,,,,,,chosen stimuli: images/choice_trial_10.png,,,,,62e023ae6d022e4d7bfc5db1,09:05:42,27/02/2024
html-keyboard-response,115,221790,0.0-49.0-2.0,,,,delaylearn,learning,feedback_duration_window,PSeQ9YUg4SeKbRSkDk74IrBEEM23,PSeQ9YUg4SeKbRSkDk74IrBEEM23,,,,,,,,,,,,,,,,,,750.0,,,,62e023ae6d022e4d7bfc5db1,09:05:42,27/02/2024
html-keyboard-response,116,223295,0.0-49.0-3.0,,<div style='margin:auto;width: auto; font-size: 150%'><span style='font-weight: bold; font-size: 100px; color: red;'>0 points!</span><br><br></div>,,delaylearn,learning,feedback_image_window,PSeQ9YUg4SeKbRSkDk74IrBEEM23,PSeQ9YUg4SeKbRSkDk74IrBEEM23,,,,,,,,,,,,,,,,,,,,,,62e023ae6d022e4d7bfc5db1,09:05:42,27/02/2024
html-keyboard-response,117,225197,0.0-50.0,,"<div style=""font-size:100px;"">+</div>",,delaylearn,learning,ITI,PSeQ9YUg4SeKbRSkDk74IrBEEM23,PSeQ9YUg4SeKbRSkDk74IrBEEM23,,,,,,,,,,,,,,,,,,,1897.0,,,62e023ae6d022e4d7bfc5db1,09:05:42,27/02/2024
html-keyboard-response,118,227788,0.0-51.0-0.0,2586.599999964237,"<div style=""display: flex; flex-direction: column; align-items: center; margin-top: -40px;""><img src=""images/pattern_1.png"" style=""width: 234px; height: 230px; margin-top: -50px;""><div style=""display: flex; justify-content: space-between; margin-top: 33px;""><img src=""images/choice_trial_15.png"" style=""width: 408px; height: 417px; margin-right: 200px;""><img src=""images/choice_trial_6.png"" style=""width: 408px; height: 417px;""></div></div>",j,delaylearn,learning,trial,PSeQ9YUg4SeKbRSkDk74IrBEEM23,PSeQ9YUg4SeKbRSkDk74IrBEEM23,5.0,images/choice_trial_15.png,images/choice_trial_6.png,images/pattern_1.png,f,j,7000.0,15.0,6.0,1.0,1.0,22.0,1.0,0.0,6.0,70.0,,,,,,62e023ae6d022e4d7bfc5db1,09:05:42,27/02/2024
html-keyboard-response,119,228790,0.0-51.0-1.0,,"<div style=""display: flex; flex-direction: column; align-items: center; margin-top: -40px;""><img src=""images/pattern_1.png"" style=""width: 234px; height: 230px; margin-top: -50px;""><div style=""display: flex; justify-content: space-between; margin-top: 33px;""><img src=""images/choice_trial_6.png"" style=""width: 408px; height: 417px; margin-left:608px;""></div></div>",,delaylearn,learning,display_response,PSeQ9YUg4SeKbRSkDk74IrBEEM23,PSeQ9YUg4SeKbRSkDk74IrBEEM23,,,,,,,,,,,,,,,,,chosen stimuli: images/choice_trial_6.png,,,,,62e023ae6d022e4d7bfc5db1,09:05:42,27/02/2024
html-keyboard-response,120,235794,0.0-51.0-2.0,,,,delaylearn,learning,feedback_duration_window,PSeQ9YUg4SeKbRSkDk74IrBEEM23,PSeQ9YUg4SeKbRSkDk74IrBEEM23,,,,,,,,,,,,,,,,,,7000.0,,,,62e023ae6d022e4d7bfc5db1,09:05:42,27/02/2024
html-keyboard-response,121,237302,0.0-51.0-3.0,,<div style='margin:auto;width: auto; font-size: 150%'><span style='font-weight: bold; font-size: 100px; color: red;'>0 points!</span><br><br></div>,,delaylearn,learning,feedback_image_window,PSeQ9YUg4SeKbRSkDk74IrBEEM23,PSeQ9YUg4SeKbRSkDk74IrBEEM23,,,,,,,,,,,,,,,,,,,,,,62e023ae6d022e4d7bfc5db1,09:05:42,27/02/2024
html-keyboard-response,122,239448,0.0-52.0,,"<div style=""font-size:100px;"">+</div>",,delaylearn,learning,ITI,PSeQ9YUg4SeKbRSkDk74IrBEEM23,PSeQ9YUg4SeKbRSkDk74IrBEEM23,,,,,,,,,,,,,,,,,,,2137.0,,,62e023ae6d022e4d7bfc5db1,09:05:42,27/02/2024
html-keyboard-response,123,241215,0.0-53.0-0.0,1764.5,"<div style=""display: flex; flex-direction: column; align-items: center; margin-top: -40px;""><img src=""images/pattern_5.png"" style=""width: 234px; height: 230px; margin-top: -50px;""><div style=""display: flex; justify-content: space-between; margin-top: 33px;""><img src=""images/choice_trial_13.png"" style=""width: 408px; height: 417px; margin-right: 200px;""><img src=""images/choice_trial_7.png"" style=""width: 408px; height: 417px;""></div></div>",j,delaylearn,learning,trial,PSeQ9YUg4SeKbRSkDk74IrBEEM23,PSeQ9YUg4SeKbRSkDk74IrBEEM23,5.0,images/choice_trial_13.png,images/choice_trial_7.png,images/pattern_5.png,j,j,750.0,13.0,7.0,4.0,1.0,23.0,1.0,1.0,7.0,80.0,,,,,,62e023ae6d022e4d7bfc5db1,09:05:42,27/02/2024
html-keyboard-response,124,242219,0.0-53.0-1.0,,"<div style=""display: flex; flex-direction: column; align-items: center; margin-top: -40px;""><img src=""images/pattern_5.png"" style=""width: 234px; height: 230px; margin-top: -50px;""><div style=""display: flex; justify-content: space-between; margin-top: 33px;""><img src=""images/choice_trial_7.png"" style=""width: 408px; height: 417px; margin-left:608px;""></div></div>",,delaylearn,learning,display_response,PSeQ9YUg4SeKbRSkDk74IrBEEM23,PSeQ9YUg4SeKbRSkDk74IrBEEM23,,,,,,,,,,,,,,,,,chosen stimuli: images/choice_trial_7.png,,,,,62e023ae6d022e4d7bfc5db1,09:05:42,27/02/2024
html-keyboard-response,125,242973,0.0-53.0-2.0,,,,delaylearn,learning,feedback_duration_window,PSeQ9YUg4SeKbRSkDk74IrBEEM23,PSeQ9YUg4SeKbRSkDk74IrBEEM23,,,,,,,,,,,,,,,,,,750.0,,,,62e023ae6d022e4d7bfc5db1,09:05:42,27/02/2024
html-keyboard-response,126,244476,0.0-53.0-3.0,,<div style='margin:auto;width: auto; font-size: 150%'><span style='font-weight: bold; font-size: 100px; color: green;'>+10 points!</span><br><br></div>,,delaylearn,learning,feedback_image_window,PSeQ9YUg4SeKbRSkDk74IrBEEM23,PSeQ9YUg4SeKbRSkDk74IrBEEM23,,,,,,,,,,,,,,,,,,,,,,62e023ae6d022e4d7bfc5db1,09:05:42,27/02/2024
html-keyboard-response,127,246925,0.0-54.0,,"<div style=""font-size:100px;"">+</div>",,delaylearn,learning,ITI,PSeQ9YUg4SeKbRSkDk74IrBEEM23,PSeQ9YUg4SeKbRSkDk74IrBEEM23,,,,,,,,,,,,,,,,,,,2447.0,,,62e023ae6d022e4d7bfc5db1,09:05:42,27/02/2024
html-keyboard-response,128,248805,0.0-55.0-0.0,1875.800000011921,"<div style=""display: flex; flex-direction: column; align-items: center; margin-top: -40px;""><img src=""images/pattern_3.png"" style=""width: 234px; height: 230px; margin-top: -50px;""><div style=""display: flex; justify-content: space-between; margin-top: 33px;""><img src=""images/choice_trial_2.png"" style=""width: 408px; height: 417px; margin-right: 200px;""><img src=""images/choice_trial_16.png"" style=""width: 408px; height: 417px;""></div></div>",f,delaylearn,learning,trial,PSeQ9YUg4SeKbRSkDk74IrBEEM23,PSeQ9YUg4SeKbRSkDk74IrBEEM23,5.0,images/choice_trial_2.png,images/choice_trial_16.png,images/pattern_3.png,j,j,7000.0,2.0,16.0,2.0,1.0,24.0,0.0,0.0,2.0,80.0,,,,,,62e023ae6d022e4d7bfc5db1,09:05:42,27/02/2024
html-keyboard-response,129,249810,0.0-55.0-1.0,,"<div style=""display: flex; flex-direction: column; align-items: center; margin-top: -40px;""><img src=""images/pattern_3.png"" style=""width: 234px; height: 230px; margin-top: -50px;""><div style=""display: flex; justify-content: space-between; margin-top: 33px;""><img src=""images/choice_trial_2.png"" style=""width: 408px; height: 417px; margin-right: 608px;""></div></div>",,delaylearn,learning,display_response,PSeQ9YUg4SeKbRSkDk74IrBEEM23,PSeQ9YUg4SeKbRSkDk74IrBEEM23,,,,,,,,,,,,,,,,,chosen stimuli: images/choice_trial_2.png,,,,,62e023ae6d022e4d7bfc5db1,09:05:42,27/02/2024
html-keyboard-response,130,256818,0.0-55.0-2.0,,,,delaylearn,learning,feedback_duration_window,PSeQ9YUg4SeKbRSkDk74IrBEEM23,PSeQ9YUg4SeKbRSkDk74IrBEEM23,,,,,,,,,,,,,,,,,,7000.0,,,,62e023ae6d022e4d7bfc5db1,09:05:42,27/02/2024
html-keyboard-response,131,258325,0.0-55.0-3.0,,<div style='margin:auto;width: auto; font-size: 150%'><span style='font-weight: bold; font-size: 100px; color: red;'>0 points!</span><br><br></div>,,delaylearn,learning,feedback_image_window,PSeQ9YUg4SeKbRSkDk74IrBEEM23,PSeQ9YUg4SeKbRSkDk74IrBEEM23,,,,,,,,,,,,,,,,,,,,,,62e023ae6d022e4d7bfc5db1,09:05:42,27/02/2024
lmdlab-html-vas-response,132,264098,0.0-56.0-0.0,4263.0,*How <b><u>confident</u></b> are you feeling about your answers at this moment?*,0.25,rewlearn,rate_confidence,,PSeQ9YUg4SeKbRSkDk74IrBEEM23,PSeQ9YUg4SeKbRSkDk74IrBEEM23,,,,,,,,,,,,,,,,,,,,"['No confidence', 'Complete confidence']",,62e023ae6d022e4d7bfc5db1,09:05:42,27/02/2024
lmdlab-rest-trial-limit,133,270755,0.0-56.0-1.0,5152.099999964237,"<div style=""font-size:40px;""><b>Please take a break!</b><br><br><br><br><p>Great work: you earned undefined points.<br><br><br><p>You have completed part(s) 1 of 6.<br><br><br><br>When you are ready to continue<br><br><br>please click the button.</p><br><br>",0,delaylearn,learning,break,PSeQ9YUg4SeKbRSkDk74IrBEEM23,PSeQ9YUg4SeKbRSkDk74IrBEEM23,,,,,,,,,,,,,,,,,,,,,0.0,62e023ae6d022e4d7bfc5db1,09:05:42,27/02/2024
html-keyboard-response,134,273760,0.0-56.0-2.0,,"<div style=""font-size:100px;"">+</div>",,delaylearn,learning,pre_fixation,PSeQ9YUg4SeKbRSkDk74IrBEEM23,,,,,,,,,,,,,,,,,,,,,,,62e023ae6d022e4d7bfc5db1,09:05:42,27/02/2024
lmdlab-html-vas-response,135,277190,0.0-56.0-3.0-0.0,2424.0,How happy are you right now?,0.5432098765432098,delaylearn,learning,mood_baseline,PSeQ9YUg4SeKbRSkDk74IrBEEM23,PSeQ9YUg4SeKbRSkDk74IrBEEM23,,,,,,,,,,,,,,,,,,,,"['Very unhappy', 'Very happy']",,62e023ae6d022e4d7bfc5db1,09:05:42,27/02/2024
html-keyboard-response,136,278696,0.0-56.0-3.0-1.0,,,,,,mood_baseline_fixation,PSeQ9YUg4SeKbRSkDk74IrBEEM23,,,,,,,,,,,,,,,,,,,,,,,62e023ae6d022e4d7bfc5db1,09:05:42,27/02/2024
html-keyboard-response,137,281131,0.0-57.0,,"<div style=""font-size:100px;"">+</div>",,delaylearn,learning,ITI,PSeQ9YUg4SeKbRSkDk74IrBEEM23,PSeQ9YUg4SeKbRSkDk74IrBEEM23,,,,,,,,,,,,,,,,,,,2433.0,,,62e023ae6d022e4d7bfc5db1,09:05:42,27/02/2024
html-keyboard-response,138,283799,0.0-58.0-0.0,2666.0,"<div style=""display: flex; flex-direction: column; align-items: center; margin-top: -40px;""><img src=""images/pattern_7.png"" style=""width: 234px; height: 230px; margin-top: -50px;""><div style=""display: flex; justify-content: space-between; margin-top: 33px;""><img src=""images/choice_trial_10.png"" style=""width: 408px; height: 417px; margin-right: 200px;""><img src=""images/choice_trial_8.png"" style=""width: 408px; height: 417px;""></div></div>",f,delaylearn,learning,trial,PSeQ9YUg4SeKbRSkDk74IrBEEM23,PSeQ9YUg4SeKbRSkDk74IrBEEM23,5.0,images/choice_trial_10.png,images/choice_trial_8.png,images/pattern_7.png,j,j,750.0,10.0,8.0,6.0,1.0,25.0,0.0,0.0,10.0,80.0,,,,,,62e023ae6d022e4d7bfc5db1,09:05:42,27/02/2024
html-keyboard-response,139,284802,0.0-58.0-1.0,,"<div style=""display: flex; flex-direction: column; align-items: center; margin-top: -40px;""><img src=""images/pattern_7.png"" style=""width: 234px; height: 230px; margin-top: -50px;""><div style=""display: flex; justify-content: space-between; margin-top: 33px;""><img src=""images/choice_trial_10.png"" style=""width: 408px; height: 417px; margin-right: 608px;""></div></div>",,delaylearn,learning,display_response,PSeQ9YUg4SeKbRSkDk74IrBEEM23,PSeQ9YUg4SeKbRSkDk74IrBEEM23,,,,,,,,,,,,,,,,,chosen stimuli: images/choice_trial_10.png,,,,,62e023ae6d022e4d7bfc5db1,09:05:42,27/02/2024
html-keyboard-response,140,285557,0.0-58.0-2.0,,,,delaylearn,learning,feedback_duration_window,PSeQ9YUg4SeKbRSkDk74IrBEEM23,PSeQ9YUg4SeKbRSkDk74IrBEEM23,,,,,,,,,,,,,,,,,,750.0,,,,62e023ae6d022e4d7bfc5db1,09:05:42,27/02/2024
html-keyboard-response,141,287061,0.0-58.0-3.0,,<div style='margin:auto;width: auto; font-size: 150%'><span style='font-weight: bold; font-size: 100px; color: red;'>0 points!</span><br><br></div>,,delaylearn,learning,feedback_image_window,PSeQ9YUg4SeKbRSkDk74IrBEEM23,PSeQ9YUg4SeKbRSkDk74IrBEEM23,,,,,,,,,,,,,,,,,,,,,,62e023ae6d022e4d7bfc5db1,09:05:42,27/02/2024
html-keyboard-response,142,287563,0.0-59.0-0.0,,,,,,mood_trial_fixation,PSeQ9YUg4SeKbRSkDk74IrBEEM23,,,,,,,,,,,,,,,,,,,,,,,62e023ae6d022e4d7bfc5db1,09:05:42,27/02/2024
lmdlab-html-vas-response,143,290568,0.0-59.0-1.0,1999.0,How happy are you right now?,0.44907407407407407,delaylearn,learning,mood_trial,PSeQ9YUg4SeKbRSkDk74IrBEEM23,PSeQ9YUg4SeKbRSkDk74IrBEEM23,,,,,,,,,,,,,,,,,,,,"['Very unhappy', 'Very happy']",,62e023ae6d022e4d7bfc5db1,09:05:42,27/02/2024
html-keyboard-response,144,292124,0.0-60.0,,"<div style=""font-size:100px;"">+</div>",,delaylearn,learning,ITI,PSeQ9YUg4SeKbRSkDk74IrBEEM23,PSeQ9YUg4SeKbRSkDk74IrBEEM23,,,,,,,,,,,,,,,,,,,1554.0,,,62e023ae6d022e4d7bfc5db1,09:05:42,27/02/2024
html-keyboard-response,145,293679,0.0-61.0-0.0,1551.8999999761581,"<div style=""display: flex; flex-direction: column; align-items: center; margin-top: -40px;""><img src=""images/pattern_1.png"" style=""width: 234px; height: 230px; margin-top: -50px;""><div style=""display: flex; justify-content: space-between; margin-top: 33px;""><img src=""images/choice_trial_6.png"" style=""width: 408px; height: 417px; margin-right: 200px;""><img src=""images/choice_trial_15.png"" style=""width: 408px; height: 417px;""></div></div>",j,delaylearn,learning,trial,PSeQ9YUg4SeKbRSkDk74IrBEEM23,PSeQ9YUg4SeKbRSkDk74IrBEEM23,5.0,images/choice_trial_6.png,images/choice_trial_15.png,images/pattern_1.png,f,f,7000.0,6.0,15.0,1.0,0.0,26.0,0.0,0.0,15.0,80.0,,,,,,62e023ae6d022e4d7bfc5db1,09:05:42,27/02/2024
html-keyboard-response,146,294685,0.0-61.0-1.0,,"<div style=""display: flex; flex-direction: column; align-items: center; margin-top: -40px;""><img src=""images/pattern_1.png"" style=""width: 234px; height: 230px; margin-top: -50px;""><div style=""display: flex; justify-content: space-between; margin-top: 33px;""><img src=""images/choice_trial_15.png"" style=""width: 408px; height: 417px; margin-left:608px;""></div></div>",,delaylearn,learning,display_response,PSeQ9YUg4SeKbRSkDk74IrBEEM23,PSeQ9YUg4SeKbRSkDk74IrBEEM23,,,,,,,,,,,,,,,,,chosen stimuli: images/choice_trial_15.png,,,,,62e023ae6d022e4d7bfc5db1,09:05:42,27/02/2024
html-keyboard-response,147,301689,0.0-61.0-2.0,,,,delaylearn,learning,feedback_duration_window,PSeQ9YUg4SeKbRSkDk74IrBEEM23,PSeQ9YUg4SeKbRSkDk74IrBEEM23,,,,,,,,,,,,,,,,,,7000.0,,,,62e023ae6d022e4d7bfc5db1,09:05:42,27/02/2024
html-keyboard-response,148,303193,0.0-61.0-3.0,,<div style='margin:auto;width: auto; font-size: 150%'><span style='font-weight: bold; font-size: 100px; color: red;'>0 points!</span><br><br></div>,,delaylearn,learning,feedback_image_window,PSeQ9YUg4SeKbRSkDk74IrBEEM23,PSeQ9YUg4SeKbRSkDk74IrBEEM23,,,,,,,,,,,,,,,,,,,,,,62e023ae6d022e4d7bfc5db1,09:05:42,27/02/2024
html-keyboard-response,149,305440,0.0-62.0,,"<div style=""font-size:100px;"">+</div>",,delaylearn,learning,ITI,PSeQ9YUg4SeKbRSkDk74IrBEEM23,PSeQ9YUg4SeKbRSkDk74IrBEEM23,,,,,,,,,,,,,,,,,,,2242.0,,,62e023ae6d022e4d7bfc5db1,09:05:42,27/02/2024
html-keyboard-response,150,307122,0.0-63.0-0.0,1677.2999999523163,"<div style=""display: flex; flex-direction: column; align-items: center; margin-top: -40px;""><img src=""images/pattern_5.png"" style=""width: 234px; height: 230px; margin-top: -50px;""><div style=""display: flex; justify-content: space-between; margin-top: 33px;""><img src=""images/choice_trial_7.png"" style=""width: 408px; height: 417px; margin-right: 200px;""><img src=""images/choice_trial_13.png"" style=""width: 408px; height: 417px;""></div></div>",f,delaylearn,learning,trial,PSeQ9YUg4SeKbRSkDk74IrBEEM23,PSeQ9YUg4SeKbRSkDk74IrBEEM23,5.0,images/choice_trial_7.png,images/choice_trial_13.png,images/pattern_5.png,f,f,750.0,7.0,13.0,4.0,0.0,27.0,1.0,1.0,7.0,90.0,,,,,,62e023ae6d022e4d7bfc5db1,09:05:42,27/02/2024
html-keyboard-response,151,308125,0.0-63.0-1.0,,"<div style=""display: flex; flex-direction: column; align-items: center; margin-top: -40px;""><img src=""images/pattern_5.png"" style=""width: 234px; height: 230px; margin-top: -50px;""><div style=""display: flex; justify-content: space-between; margin-top: 33px;""><img src=""images/choice_trial_7.png"" style=""width: 408px; height: 417px; margin-right: 608px;""></div></div>",,delaylearn,learning,display_response,PSeQ9YUg4SeKbRSkDk74IrBEEM23,PSeQ9YUg4SeKbRSkDk74IrBEEM23,,,,,,,,,,,,,,,,,chosen stimuli: images/choice_trial_7.png,,,,,62e023ae6d022e4d7bfc5db1,09:05:42,27/02/2024
html-keyboard-response,152,308882,0.0-63.0-2.0,,,,delaylearn,learning,feedback_duration_window,PSeQ9YUg4SeKbRSkDk74IrBEEM23,PSeQ9YUg4SeKbRSkDk74IrBEEM23,,,,,,,,,,,,,,,,,,750.0,,,,62e023ae6d022e4d7bfc5db1,09:05:42,27/02/2024
html-keyboard-response,153,310386,0.0-63.0-3.0,,<div style='margin:auto;width: auto; font-size: 150%'><span style='font-weight: bold; font-size: 100px; color: green;'>+10 points!</span><br><br></div>,,delaylearn,learning,feedback_image_window,PSeQ9YUg4SeKbRSkDk74IrBEEM23,PSeQ9YUg4SeKbRSkDk74IrBEEM23,,,,,,,,,,,,,,,,,,,,,,62e023ae6d022e4d7bfc5db1,09:05:42,27/02/2024
html-keyboard-response,154,312062,0.0-64.0,,"<div style=""font-size:100px;"">+</div>",,delaylearn,learning,ITI,PSeQ9YUg4SeKbRSkDk74IrBEEM23,PSeQ9YUg4SeKbRSkDk74IrBEEM23,,,,,,,,,,,,,,,,,,,1674.0,,,62e023ae6d022e4d7bfc5db1,09:05:42,27/02/2024
html-keyboard-response,155,313981,0.0-65.0-0.0,1916.300000011921,"<div style=""display: flex; flex-direction: column; align-items: center; margin-top: -40px;""><img src=""images/pattern_6.png"" style=""width: 234px; height: 230px; margin-top: -50px;""><div style=""display: flex; justify-content: space-between; margin-top: 33px;""><img src=""images/choice_trial_9.png"" style=""width: 408px; height: 417px; margin-right: 200px;""><img src=""images/choice_trial_14.png"" style=""width: 408px; height: 417px;""></div></div>",f,delaylearn,learning,trial,PSeQ9YUg4SeKbRSkDk74IrBEEM23,PSeQ9YUg4SeKbRSkDk74IrBEEM23,5.0,images/choice_trial_9.png,images/choice_trial_14.png,images/pattern_6.png,j,j,750.0,9.0,14.0,5.0,1.0,28.0,0.0,0.0,9.0,90.0,,,,,,62e023ae6d022e4d7bfc5db1,09:05:42,27/02/2024
html-keyboard-response,156,314985,0.0-65.0-1.0,,"<div style=""display: flex; flex-direction: column; align-items: center; margin-top: -40px;""><img src=""images/pattern_6.png"" style=""width: 234px; height: 230px; margin-top: -50px;""><div style=""display: flex; justify-content: space-between; margin-top: 33px;""><img src=""images/choice_trial_9.png"" style=""width: 408px; height: 417px; margin-right: 608px;""></div></div>",,delaylearn,learning,display_response,PSeQ9YUg4SeKbRSkDk74IrBEEM23,PSeQ9YUg4SeKbRSkDk74IrBEEM23,,,,,,,,,,,,,,,,,chosen stimuli: images/choice_trial_9.png,,,,,62e023ae6d022e4d7bfc5db1,09:05:42,27/02/2024
html-keyboard-response,157,315741,0.0-65.0-2.0,,,,delaylearn,learning,feedback_duration_window,PSeQ9YUg4SeKbRSkDk74IrBEEM23,PSeQ9YUg4SeKbRSkDk74IrBEEM23,,,,,,,,,,,,,,,,,,750.0,,,,62e023ae6d022e4d7bfc5db1,09:05:42,27/02/2024
html-keyboard-response,158,317245,0.0-65.0-3.0,,<div style='margin:auto;width: auto; font-size: 150%'><span style='font-weight: bold; font-size: 100px; color: red;'>0 points!</span><br><br></div>,,delaylearn,learning,feedback_image_window,PSeQ9YUg4SeKbRSkDk74IrBEEM23,PSeQ9YUg4SeKbRSkDk74IrBEEM23,,,,,,,,,,,,,,,,,,,,,,62e023ae6d022e4d7bfc5db1,09:05:42,27/02/2024
html-keyboard-response,159,317748,0.0-66.0-0.0,,,,,,mood_trial_fixation,PSeQ9YUg4SeKbRSkDk74IrBEEM23,,,,,,,,,,,,,,,,,,,,,,,62e023ae6d022e4d7bfc5db1,09:05:42,27/02/2024
lmdlab-html-vas-response,160,321981,0.0-66.0-1.0,3226.0,How happy are you right now?,0.5694444444444444,delaylearn,learning,mood_trial,PSeQ9YUg4SeKbRSkDk74IrBEEM23,PSeQ9YUg4SeKbRSkDk74IrBEEM23,,,,,,,,,,,,,,,,,,,,"['Very unhappy', 'Very happy']",,62e023ae6d022e4d7bfc5db1,09:05:42,27/02/2024
html-keyboard-response,161,323611,0.0-67.0,,"<div style=""font-size:100px;"">+</div>",,delaylearn,learning,ITI,PSeQ9YUg4SeKbRSkDk74IrBEEM23,PSeQ9YUg4SeKbRSkDk74IrBEEM23,,,,,,,,,,,,,,,,,,,1628.0,,,62e023ae6d022e4d7bfc5db1,09:05:42,27/02/2024
html-keyboard-response,162,325429,0.0-68.0-0.0,1813.199999988079,"<div style=""display: flex; flex-direction: column; align-items: center; margin-top: -40px;""><img src=""images/pattern_4.png"" style=""width: 234px; height: 230px; margin-top: -50px;""><div style=""display: flex; justify-content: space-between; margin-top: 33px;""><img src=""images/choice_trial_4.png"" style=""width: 408px; height: 417px; margin-right: 200px;""><img src=""images/choice_trial_11.png"" style=""width: 408px; height: 417px;""></div></div>",f,delaylearn,learning,trial,PSeQ9YUg4SeKbRSkDk74IrBEEM23,PSeQ9YUg4SeKbRSkDk74IrBEEM23,5.0,images/choice_trial_4.png,images/choice_trial_11.png,images/pattern_4.png,j,j,7000.0,4.0,11.0,3.0,1.0,29.0,0.0,0.0,4.0,90.0,,,,,,62e023ae6d022e4d7bfc5db1,09:05:42,27/02/2024
html-keyboard-response,163,326432,0.0-68.0-1.0,,"<div style=""display: flex; flex-direction: column; align-items: center; margin-top: -40px;""><img src=""images/pattern_4.png"" style=""width: 234px; height: 230px; margin-top: -50px;""><div style=""display: flex; justify-content: space-between; margin-top: 33px;""><img src=""images/choice_trial_4.png"" style=""width: 408px; height: 417px; margin-right: 608px;""></div></div>",,delaylearn,learning,display_response,PSeQ9YUg4SeKbRSkDk74IrBEEM23,PSeQ9YUg4SeKbRSkDk74IrBEEM23,,,,,,,,,,,,,,,,,chosen stimuli: images/choice_trial_4.png,,,,,62e023ae6d022e4d7bfc5db1,09:05:42,27/02/2024
html-keyboard-response,164,333436,0.0-68.0-2.0,,,,delaylearn,learning,feedback_duration_window,PSeQ9YUg4SeKbRSkDk74IrBEEM23,PSeQ9YUg4SeKbRSkDk74IrBEEM23,,,,,,,,,,,,,,,,,,7000.0,,,,62e023ae6d022e4d7bfc5db1,09:05:42,27/02/2024
html-keyboard-response,165,334942,0.0-68.0-3.0,,<div style='margin:auto;width: auto; font-size: 150%'><span style='font-weight: bold; font-size: 100px; color: red;'>0 points!</span><br><br></div>,,delaylearn,learning,feedback_image_window,PSeQ9YUg4SeKbRSkDk74IrBEEM23,PSeQ9YUg4SeKbRSkDk74IrBEEM23,,,,,,,,,,,,,,,,,,,,,,62e023ae6d022e4d7bfc5db1,09:05:42,27/02/2024
html-keyboard-response,166,337147,0.0-69.0,,"<div style=""font-size:100px;"">+</div>",,delaylearn,learning,ITI,PSeQ9YUg4SeKbRSkDk74IrBEEM23,PSeQ9YUg4SeKbRSkDk74IrBEEM23,,,,,,,,,,,,,,,,,,,2202.0,,,62e023ae6d022e4d7bfc5db1,09:05:42,27/02/2024
html-keyboard-response,167,338156,0.0-70.0-0.0,1003.0,"<div style=""display: flex; flex-direction: column; align-items: center; margin-top: -40px;""><img src=""images/pattern_3.png"" style=""width: 234px; height: 230px; margin-top: -50px;""><div style=""display: flex; justify-content: space-between; margin-top: 33px;""><img src=""images/choice_trial_2.png"" style=""width: 408px; height: 417px; margin-right: 200px;""><img src=""images/choice_trial_16.png"" style=""width: 408px; height: 417px;""></div></div>",j,delaylearn,learning,trial,PSeQ9YUg4SeKbRSkDk74IrBEEM23,PSeQ9YUg4SeKbRSkDk74IrBEEM23,5.0,images/choice_trial_2.png,images/choice_trial_16.png,images/pattern_3.png,j,j,7000.0,2.0,16.0,2.0,1.0,30.0,1.0,1.0,16.0,100.0,,,,,,62e023ae6d022e4d7bfc5db1,09:05:42,27/02/2024
html-keyboard-response,168,339161,0.0-70.0-1.0,,"<div style=""display: flex; flex-direction: column; align-items: center; margin-top: -40px;""><img src=""images/pattern_3.png"" style=""width: 234px; height: 230px; margin-top: -50px;""><div style=""display: flex; justify-content: space-between; margin-top: 33px;""><img src=""images/choice_trial_16.png"" style=""width: 408px; height: 417px; margin-left:608px;""></div></div>",,delaylearn,learning,display_response,PSeQ9YUg4SeKbRSkDk74IrBEEM23,PSeQ9YUg4SeKbRSkDk74IrBEEM23,,,,,,,,,,,,,,,,,chosen stimuli: images/choice_trial_16.png,,,,,62e023ae6d022e4d7bfc5db1,09:05:42,27/02/2024
html-keyboard-response,169,346164,0.0-70.0-2.0,,,,delaylearn,learning,feedback_duration_window,PSeQ9YUg4SeKbRSkDk74IrBEEM23,PSeQ9YUg4SeKbRSkDk74IrBEEM23,,,,,,,,,,,,,,,,,,7000.0,,,,62e023ae6d022e4d7bfc5db1,09:05:42,27/02/2024
html-keyboard-response,170,347668,0.0-70.0-3.0,,<div style='margin:auto;width: auto; font-size: 150%'><span style='font-weight: bold; font-size: 100px; color: green;'>+10 points!</span><br><br></div>,,delaylearn,learning,feedback_image_window,PSeQ9YUg4SeKbRSkDk74IrBEEM23,PSeQ9YUg4SeKbRSkDk74IrBEEM23,,,,,,,,,,,,,,,,,,,,,,62e023ae6d022e4d7bfc5db1,09:05:42,27/02/2024
html-keyboard-response,171,349578,0.0-71.0,,"<div style=""font-size:100px;"">+</div>",,delaylearn,learning,ITI,PSeQ9YUg4SeKbRSkDk74IrBEEM23,PSeQ9YUg4SeKbRSkDk74IrBEEM23,,,,,,,,,,,,,,,,,,,1903.0,,,62e023ae6d022e4d7bfc5db1,09:05:42,27/02/2024
html-keyboard-response,172,350114,0.0-72.0-0.0,532.0999999642372,"<div style=""display: flex; flex-direction: column; align-items: center; margin-top: -40px;""><img src=""images/pattern_5.png"" style=""width: 234px; height: 230px; margin-top: -50px;""><div style=""display: flex; justify-content: space-between; margin-top: 33px;""><img src=""images/choice_trial_7.png"" style=""width: 408px; height: 417px; margin-right: 200px;""><img src=""images/choice_trial_13.png"" style=""width: 408px; height: 417px;""></div></div>",j,delaylearn,learning,trial,PSeQ9YUg4SeKbRSkDk74IrBEEM23,PSeQ9YUg4SeKbRSkDk74IrBEEM23,5.0,images/choice_trial_7.png,images/choice_trial_13.png,images/pattern_5.png,j,f,750.0,7.0,13.0,4.0,0.0,31.0,0.0,1.0,13.0,110.0,,,,,,62e023ae6d022e4d7bfc5db1,09:05:42,27/02/2024
html-keyboard-response,173,351119,0.0-72.0-1.0,,"<div style=""display: flex; flex-direction: column; align-items: center; margin-top: -40px;""><img src=""images/pattern_5.png"" style=""width: 234px; height: 230px; margin-top: -50px;""><div style=""display: flex; justify-content: space-between; margin-top: 33px;""><img src=""images/choice_trial_13.png"" style=""width: 408px; height: 417px; margin-left:608px;""></div></div>",,delaylearn,learning,display_response,PSeQ9YUg4SeKbRSkDk74IrBEEM23,PSeQ9YUg4SeKbRSkDk74IrBEEM23,,,,,,,,,,,,,,,,,chosen stimuli: images/choice_trial_13.png,,,,,62e023ae6d022e4d7bfc5db1,09:05:42,27/02/2024
html-keyboard-response,174,351874,0.0-72.0-2.0,,,,delaylearn,learning,feedback_duration_window,PSeQ9YUg4SeKbRSkDk74IrBEEM23,PSeQ9YUg4SeKbRSkDk74IrBEEM23,,,,,,,,,,,,,,,,,,750.0,,,,62e023ae6d022e4d7bfc5db1,09:05:42,27/02/2024
html-keyboard-response,175,353379,0.0-72.0-3.0,,<div style='margin:auto;width: auto; font-size: 150%'><span style='font-weight: bold; font-size: 100px; color: green;'>+10 points!</span><br><br></div>,,delaylearn,learning,feedback_image_window,PSeQ9YUg4SeKbRSkDk74IrBEEM23,PSeQ9YUg4SeKbRSkDk74IrBEEM23,,,,,,,,,,,,,,,,,,,,,,62e023ae6d022e4d7bfc5db1,09:05:42,27/02/2024
html-keyboard-response,176,355281,0.0-73.0,,"<div style=""font-size:100px;"">+</div>",,delaylearn,learning,ITI,PSeQ9YUg4SeKbRSkDk74IrBEEM23,PSeQ9YUg4SeKbRSkDk74IrBEEM23,,,,,,,,,,,,,,,,,,,1898.0,,,62e023ae6d022e4d7bfc5db1,09:05:42,27/02/2024
html-keyboard-response,177,357263,0.0-74.0-0.0,1978.199999988079,"<div style=""display: flex; flex-direction: column; align-items: center; margin-top: -40px;""><img src=""images/pattern_1.png"" style=""width: 234px; height: 230px; margin-top: -50px;""><div style=""display: flex; justify-content: space-between; margin-top: 33px;""><img src=""images/choice_trial_6.png"" style=""width: 408px; height: 417px; margin-right: 200px;""><img src=""images/choice_trial_15.png"" style=""width: 408px; height: 417px;""></div></div>",j,delaylearn,learning,trial,PSeQ9YUg4SeKbRSkDk74IrBEEM23,PSeQ9YUg4SeKbRSkDk74IrBEEM23,5.0,images/choice_trial_6.png,images/choice_trial_15.png,images/pattern_1.png,f,f,7000.0,6.0,15.0,1.0,0.0,32.0,0.0,0.0,15.0,110.0,,,,,,62e023ae6d022e4d7bfc5db1,09:05:42,27/02/2024
html-keyboard-response,178,358270,0.0-74.0-1.0,,"<div style=""display: flex; flex-direction: column; align-items: center; margin-top: -40px;""><img src=""images/pattern_1.png"" style=""width: 234px; height: 230px; margin-top: -50px;""><div style=""display: flex; justify-content: space-between; margin-top: 33px;""><img src=""images/choice_trial_15.png"" style=""width: 408px; height: 417px; margin-left:608px;""></div></div>",,delaylearn,learning,display_response,PSeQ9YUg4SeKbRSkDk74IrBEEM23,PSeQ9YUg4SeKbRSkDk74IrBEEM23,,,,,,,,,,,,,,,,,chosen stimuli: images/choice_trial_15.png,,,,,62e023ae6d022e4d7bfc5db1,09:05:42,27/02/2024
html-keyboard-response,179,365275,0.0-74.0-2.0,,,,delaylearn,learning,feedback_duration_window,PSeQ9YUg4SeKbRSkDk74IrBEEM23,PSeQ9YUg4SeKbRSkDk74IrBEEM23,,,,,,,,,,,,,,,,,,7000.0,,,,62e023ae6d022e4d7bfc5db1,09:05:42,27/02/2024
html-keyboard-response,180,366781,0.0-74.0-3.0,,<div style='margin:auto;width: auto; font-size: 150%'><span style='font-weight: bold; font-size: 100px; color: red;'>0 points!</span><br><br></div>,,delaylearn,learning,feedback_image_window,PSeQ9YUg4SeKbRSkDk74IrBEEM23,PSeQ9YUg4SeKbRSkDk74IrBEEM23,,,,,,,,,,,,,,,,,,,,,,62e023ae6d022e4d7bfc5db1,09:05:42,27/02/2024
html-keyboard-response,181,367284,0.0-75.0-0.0,,,,,,mood_trial_fixation,PSeQ9YUg4SeKbRSkDk74IrBEEM23,,,,,,,,,,,,,,,,,,,,,,,62e023ae6d022e4d7bfc5db1,09:05:42,27/02/2024
lmdlab-html-vas-response,182,371145,0.0-75.0-1.0,2855.0,How happy are you right now?,0.5725308641975309,delaylearn,learning,mood_trial,PSeQ9YUg4SeKbRSkDk74IrBEEM23,PSeQ9YUg4SeKbRSkDk74IrBEEM23,,,,,,,,,,,,,,,,,,,,"['Very unhappy', 'Very happy']",,62e023ae6d022e4d7bfc5db1,09:05:42,27/02/2024
html-keyboard-response,183,373377,0.0-76.0,,"<div style=""font-size:100px;"">+</div>",,delaylearn,learning,ITI,PSeQ9YUg4SeKbRSkDk74IrBEEM23,PSeQ9YUg4SeKbRSkDk74IrBEEM23,,,,,,,,,,,,,,,,,,,2226.0,,,62e023ae6d022e4d7bfc5db1,09:05:42,27/02/2024
html-keyboard-response,184,376258,0.0-77.0-0.0,2877.399999976158,"<div style=""display: flex; flex-direction: column; align-items: center; margin-top: -40px;""><img src=""images/pattern_6.png"" style=""width: 234px; height: 230px; margin-top: -50px;""><div style=""display: flex; justify-content: space-between; margin-top: 33px;""><img src=""images/choice_trial_14.png"" style=""width: 408px; height: 417px; margin-right: 200px;""><img src=""images/choice_trial_9.png"" style=""width: 408px; height: 417px;""></div></div>",j,delaylearn,learning,trial,PSeQ9YUg4SeKbRSkDk74IrBEEM23,PSeQ9YUg4SeKbRSkDk74IrBEEM23,5.0,images/choice_trial_14.png,images/choice_trial_9.png,images/pattern_6.png,j,f,750.0,14.0,9.0,5.0,0.0,33.0,0.0,1.0,9.0,120.0,,,,,,62e023ae6d022e4d7bfc5db1,09:05:42,27/02/2024
html-keyboard-response,185,377262,0.0-77.0-1.0,,"<div style=""display: flex; flex-direction: column; align-items: center; margin-top: -40px;""><img src=""images/pattern_6.png"" style=""width: 234px; height: 230px; margin-top: -50px;""><div style=""display: flex; justify-content: space-between; margin-top: 33px;""><img src=""images/choice_trial_9.png"" style=""width: 408px; height: 417px; margin-left:608px;""></div></div>",,delaylearn,learning,display_response,PSeQ9YUg4SeKbRSkDk74IrBEEM23,PSeQ9YUg4SeKbRSkDk74IrBEEM23,,,,,,,,,,,,,,,,,chosen stimuli: images/choice_trial_9.png,,,,,62e023ae6d022e4d7bfc5db1,09:05:42,27/02/2024
html-keyboard-response,186,378019,0.0-77.0-2.0,,,,delaylearn,learning,feedback_duration_window,PSeQ9YUg4SeKbRSkDk74IrBEEM23,PSeQ9YUg4SeKbRSkDk74IrBEEM23,,,,,,,,,,,,,,,,,,750.0,,,,62e023ae6d022e4d7bfc5db1,09:05:42,27/02/2024
html-keyboard-response,187,379523,0.0-77.0-3.0,,<div style='margin:auto;width: auto; font-size: 150%'><span style='font-weight: bold; font-size: 100px; color: green;'>+10 points!</span><br><br></div>,,delaylearn,learning,feedback_image_window,PSeQ9YUg4SeKbRSkDk74IrBEEM23,PSeQ9YUg4SeKbRSkDk74IrBEEM23,,,,,,,,,,,,,,,,,,,,,,62e023ae6d022e4d7bfc5db1,09:05:42,27/02/2024
html-keyboard-response,188,381622,0.0-78.0,,"<div style=""font-size:100px;"">+</div>",,delaylearn,learning,ITI,PSeQ9YUg4SeKbRSkDk74IrBEEM23,PSeQ9YUg4SeKbRSkDk74IrBEEM23,,,,,,,,,,,,,,,,,,,2097.0,,,62e023ae6d022e4d7bfc5db1,09:05:42,27/02/2024
html-keyboard-response,189,384572,0.0-79.0-0.0,2947.5,"<div style=""display: flex; flex-direction: column; align-items: center; margin-top: -40px;""><img src=""images/pattern_3.png"" style=""width: 234px; height: 230px; margin-top: -50px;""><div style=""display: flex; justify-content: space-between; margin-top: 33px;""><img src=""images/choice_trial_2.png"" style=""width: 408px; height: 417px; margin-right: 200px;""><img src=""images/choice_trial_16.png"" style=""width: 408px; height: 417px;""></div></div>",f,delaylearn,learning,trial,PSeQ9YUg4SeKbRSkDk74IrBEEM23,PSeQ9YUg4SeKbRSkDk74IrBEEM23,5.0,images/choice_trial_2.png,images/choice_trial_16.png,images/pattern_3.png,j,j,7000.0,2.0,16.0,2.0,1.0,34.0,0.0,0.0,2.0,120.0,,,,,,62e023ae6d022e4d7bfc5db1,09:05:42,27/02/2024
html-keyboard-response,190,385576,0.0-79.0-1.0,,"<div style=""display: flex; flex-direction: column; align-items: center; margin-top: -40px;""><img src=""images/pattern_3.png"" style=""width: 234px; height: 230px; margin-top: -50px;""><div style=""display: flex; justify-content: space-between; margin-top: 33px;""><img src=""images/choice_trial_2.png"" style=""width: 408px; height: 417px; margin-right: 608px;""></div></div>",,delaylearn,learning,display_response,PSeQ9YUg4SeKbRSkDk74IrBEEM23,PSeQ9YUg4SeKbRSkDk74IrBEEM23,,,,,,,,,,,,,,,,,chosen stimuli: images/choice_trial_2.png,,,,,62e023ae6d022e4d7bfc5db1,09:05:42,27/02/2024
html-keyboard-response,191,392581,0.0-79.0-2.0,,,,delaylearn,learning,feedback_duration_window,PSeQ9YUg4SeKbRSkDk74IrBEEM23,PSeQ9YUg4SeKbRSkDk74IrBEEM23,,,,,,,,,,,,,,,,,,7000.0,,,,62e023ae6d022e4d7bfc5db1,09:05:42,27/02/2024
html-keyboard-response,192,394102,0.0-79.0-3.0,,<div style='margin:auto;width: auto; font-size: 150%'><span style='font-weight: bold; font-size: 100px; color: red;'>0 points!</span><br><br></div>,,delaylearn,learning,feedback_image_window,PSeQ9YUg4SeKbRSkDk74IrBEEM23,PSeQ9YUg4SeKbRSkDk74IrBEEM23,,,,,,,,,,,,,,,,,,,,,,62e023ae6d022e4d7bfc5db1,09:05:42,27/02/2024
html-keyboard-response,193,395653,0.0-80.0,,"<div style=""font-size:100px;"">+</div>",,delaylearn,learning,ITI,PSeQ9YUg4SeKbRSkDk74IrBEEM23,PSeQ9YUg4SeKbRSkDk74IrBEEM23,,,,,,,,,,,,,,,,,,,1547.0,,,62e023ae6d022e4d7bfc5db1,09:05:42,27/02/2024
html-keyboard-response,194,396030,0.0-81.0-0.0,372.19999998807907,"<div style=""display: flex; flex-direction: column; align-items: center; margin-top: -40px;""><img src=""images/pattern_4.png"" style=""width: 234px; height: 230px; margin-top: -50px;""><div style=""display: flex; justify-content: space-between; margin-top: 33px;""><img src=""images/choice_trial_4.png"" style=""width: 408px; height: 417px; margin-right: 200px;""><img src=""images/choice_trial_11.png"" style=""width: 408px; height: 417px;""></div></div>",j,delaylearn,learning,trial,PSeQ9YUg4SeKbRSkDk74IrBEEM23,PSeQ9YUg4SeKbRSkDk74IrBEEM23,5.0,images/choice_trial_4.png,images/choice_trial_11.png,images/pattern_4.png,f,j,7000.0,4.0,11.0,3.0,1.0,35.0,1.0,0.0,11.0,120.0,,,,,,62e023ae6d022e4d7bfc5db1,09:05:42,27/02/2024
html-keyboard-response,195,397032,0.0-81.0-1.0,,"<div style=""display: flex; flex-direction: column; align-items: center; margin-top: -40px;""><img src=""images/pattern_4.png"" style=""width: 234px; height: 230px; margin-top: -50px;""><div style=""display: flex; justify-content: space-between; margin-top: 33px;""><img src=""images/choice_trial_11.png"" style=""width: 408px; height: 417px; margin-left:608px;""></div></div>",,delaylearn,learning,display_response,PSeQ9YUg4SeKbRSkDk74IrBEEM23,PSeQ9YUg4SeKbRSkDk74IrBEEM23,,,,,,,,,,,,,,,,,chosen stimuli: images/choice_trial_11.png,,,,,62e023ae6d022e4d7bfc5db1,09:05:42,27/02/2024
html-keyboard-response,196,404036,0.0-81.0-2.0,,,,delaylearn,learning,feedback_duration_window,PSeQ9YUg4SeKbRSkDk74IrBEEM23,PSeQ9YUg4SeKbRSkDk74IrBEEM23,,,,,,,,,,,,,,,,,,7000.0,,,,62e023ae6d022e4d7bfc5db1,09:05:42,27/02/2024
html-keyboard-response,197,405539,0.0-81.0-3.0,,<div style='margin:auto;width: auto; font-size: 150%'><span style='font-weight: bold; font-size: 100px; color: red;'>0 points!</span><br><br></div>,,delaylearn,learning,feedback_image_window,PSeQ9YUg4SeKbRSkDk74IrBEEM23,PSeQ9YUg4SeKbRSkDk74IrBEEM23,,,,,,,,,,,,,,,,,,,,,,62e023ae6d022e4d7bfc5db1,09:05:42,27/02/2024
html-keyboard-response,198,407448,0.0-82.0,,"<div style=""font-size:100px;"">+</div>",,delaylearn,learning,ITI,PSeQ9YUg4SeKbRSkDk74IrBEEM23,PSeQ9YUg4SeKbRSkDk74IrBEEM23,,,,,,,,,,,,,,,,,,,1907.0,,,62e023ae6d022e4d7bfc5db1,09:05:42,27/02/2024
html-keyboard-response,199,407911,0.0-83.0-0.0,459.30000001192093,"<div style=""display: flex; flex-direction: column; align-items: center; margin-top: -40px;""><img src=""images/pattern_7.png"" style=""width: 234px; height: 230px; margin-top: -50px;""><div style=""display: flex; justify-content: space-between; margin-top: 33px;""><img src=""images/choice_trial_8.png"" style=""width: 408px; height: 417px; margin-right: 200px;""><img src=""images/choice_trial_10.png"" style=""width: 408px; height: 417px;""></div></div>",j,delaylearn,learning,trial,PSeQ9YUg4SeKbRSkDk74IrBEEM23,PSeQ9YUg4SeKbRSkDk74IrBEEM23,5.0,images/choice_trial_8.png,images/choice_trial_10.png,images/pattern_7.png,f,f,750.0,8.0,10.0,6.0,0.0,36.0,0.0,0.0,10.0,120.0,,,,,,62e023ae6d022e4d7bfc5db1,09:05:42,27/02/2024
html-keyboard-response,200,408915,0.0-83.0-1.0,,"<div style=""display: flex; flex-direction: column; align-items: center; margin-top: -40px;""><img src=""images/pattern_7.png"" style=""width: 234px; height: 230px; margin-top: -50px;""><div style=""display: flex; justify-content: space-between; margin-top: 33px;""><img src=""images/choice_trial_10.png"" style=""width: 408px; height: 417px; margin-left:608px;""></div></div>",,delaylearn,learning,display_response,PSeQ9YUg4SeKbRSkDk74IrBEEM23,PSeQ9YUg4SeKbRSkDk74IrBEEM23,,,,,,,,,,,,,,,,,chosen stimuli: images/choice_trial_10.png,,,,,62e023ae6d022e4d7bfc5db1,09:05:42,27/02/2024
html-keyboard-response,201,409668,0.0-83.0-2.0,,,,delaylearn,learning,feedback_duration_window,PSeQ9YUg4SeKbRSkDk74IrBEEM23,PSeQ9YUg4SeKbRSkDk74IrBEEM23,,,,,,,,,,,,,,,,,,750.0,,,,62e023ae6d022e4d7bfc5db1,09:05:42,27/02/2024
html-keyboard-response,202,411175,0.0-83.0-3.0,,<div style='margin:auto;width: auto; font-size: 150%'><span style='font-weight: bold; font-size: 100px; color: red;'>0 points!</span><br><br></div>,,delaylearn,learning,feedback_image_window,PSeQ9YUg4SeKbRSkDk74IrBEEM23,PSeQ9YUg4SeKbRSkDk74IrBEEM23,,,,,,,,,,,,,,,,,,,,,,62e023ae6d022e4d7bfc5db1,09:05:42,27/02/2024
html-keyboard-response,203,412827,0.0-84.0,,"<div style=""font-size:100px;"">+</div>",,delaylearn,learning,ITI,PSeQ9YUg4SeKbRSkDk74IrBEEM23,PSeQ9YUg4SeKbRSkDk74IrBEEM23,,,,,,,,,,,,,,,,,,,1648.0,,,62e023ae6d022e4d7bfc5db1,09:05:42,27/02/2024
html-keyboard-response,204,414657,0.0-85.0-0.0,1825.0,"<div style=""display: flex; flex-direction: column; align-items: center; margin-top: -40px;""><img src=""images/pattern_1.png"" style=""width: 234px; height: 230px; margin-top: -50px;""><div style=""display: flex; justify-content: space-between; margin-top: 33px;""><img src=""images/choice_trial_6.png"" style=""width: 408px; height: 417px; margin-right: 200px;""><img src=""images/choice_trial_15.png"" style=""width: 408px; height: 417px;""></div></div>",j,delaylearn,learning,trial,PSeQ9YUg4SeKbRSkDk74IrBEEM23,PSeQ9YUg4SeKbRSkDk74IrBEEM23,5.0,images/choice_trial_6.png,images/choice_trial_15.png,images/pattern_1.png,f,f,7000.0,6.0,15.0,1.0,0.0,37.0,0.0,0.0,15.0,120.0,,,,,,62e023ae6d022e4d7bfc5db1,09:05:42,27/02/2024
html-keyboard-response,205,415663,0.0-85.0-1.0,,"<div style=""display: flex; flex-direction: column; align-items: center; margin-top: -40px;""><img src=""images/pattern_1.png"" style=""width: 234px; height: 230px; margin-top: -50px;""><div style=""display: flex; justify-content: space-between; margin-top: 33px;""><img src=""images/choice_trial_15.png"" style=""width: 408px; height: 417px; margin-left:608px;""></div></div>",,delaylearn,learning,display_response,PSeQ9YUg4SeKbRSkDk74IrBEEM23,PSeQ9YUg4SeKbRSkDk74IrBEEM23,,,,,,,,,,,,,,,,,chosen stimuli: images/choice_trial_15.png,,,,,62e023ae6d022e4d7bfc5db1,09:05:42,27/02/2024
html-keyboard-response,206,422666,0.0-85.0-2.0,,,,delaylearn,learning,feedback_duration_window,PSeQ9YUg4SeKbRSkDk74IrBEEM23,PSeQ9YUg4SeKbRSkDk74IrBEEM23,,,,,,,,,,,,,,,,,,7000.0,,,,62e023ae6d022e4d7bfc5db1,09:05:42,27/02/2024
html-keyboard-response,207,424175,0.0-85.0-3.0,,<div style='margin:auto;width: auto; font-size: 150%'><span style='font-weight: bold; font-size: 100px; color: red;'>0 points!</span><br><br></div>,,delaylearn,learning,feedback_image_window,PSeQ9YUg4SeKbRSkDk74IrBEEM23,PSeQ9YUg4SeKbRSkDk74IrBEEM23,,,,,,,,,,,,,,,,,,,,,,62e023ae6d022e4d7bfc5db1,09:05:42,27/02/2024
html-keyboard-response,208,424677,0.0-86.0-0.0,,,,,,mood_trial_fixation,PSeQ9YUg4SeKbRSkDk74IrBEEM23,,,,,,,,,,,,,,,,,,,,,,,62e023ae6d022e4d7bfc5db1,09:05:42,27/02/2024
lmdlab-html-vas-response,209,428872,0.0-86.0-1.0,3187.0,How happy are you right now?,0.5493827160493827,delaylearn,learning,mood_trial,PSeQ9YUg4SeKbRSkDk74IrBEEM23,PSeQ9YUg4SeKbRSkDk74IrBEEM23,,,,,,,,,,,,,,,,,,,,"['Very unhappy', 'Very happy']",,62e023ae6d022e4d7bfc5db1,09:05:42,27/02/2024
html-keyboard-response,210,431319,0.0-87.0,,"<div style=""font-size:100px;"">+</div>",,delaylearn,learning,ITI,PSeQ9YUg4SeKbRSkDk74IrBEEM23,PSeQ9YUg4SeKbRSkDk74IrBEEM23,,,,,,,,,,,,,,,,,,,2445.0,,,62e023ae6d022e4d7bfc5db1,09:05:42,27/02/2024
html-keyboard-response,211,433060,0.0-88.0-0.0,1736.699999988079,"<div style=""display: flex; flex-direction: column; align-items: center; margin-top: -40px;""><img src=""images/pattern_3.png"" style=""width: 234px; height: 230px; margin-top: -50px;""><div style=""display: flex; justify-content: space-between; margin-top: 33px;""><img src=""images/choice_trial_16.png"" style=""width: 408px; height: 417px; margin-right: 200px;""><img src=""images/choice_trial_2.png"" style=""width: 408px; height: 417px;""></div></div>",f,delaylearn,learning,trial,PSeQ9YUg4SeKbRSkDk74IrBEEM23,PSeQ9YUg4SeKbRSkDk74IrBEEM23,5.0,images/choice_trial_16.png,images/choice_trial_2.png,images/pattern_3.png,j,f,7000.0,16.0,2.0,2.0,0.0,38.0,1.0,0.0,16.0,120.0,,,,,,62e023ae6d022e4d7bfc5db1,09:05:42,27/02/2024
html-keyboard-response,212,434063,0.0-88.0-1.0,,"<div style=""display: flex; flex-direction: column; align-items: center; margin-top: -40px;""><img src=""images/pattern_3.png"" style=""width: 234px; height: 230px; margin-top: -50px;""><div style=""display: flex; justify-content: space-between; margin-top: 33px;""><img src=""images/choice_trial_16.png"" style=""width: 408px; height: 417px; margin-right: 608px;""></div></div>",,delaylearn,learning,display_response,PSeQ9YUg4SeKbRSkDk74IrBEEM23,PSeQ9YUg4SeKbRSkDk74IrBEEM23,,,,,,,,,,,,,,,,,chosen stimuli: images/choice_trial_16.png,,,,,62e023ae6d022e4d7bfc5db1,09:05:42,27/02/2024
html-keyboard-response,213,441065,0.0-88.0-2.0,,,,delaylearn,learning,feedback_duration_window,PSeQ9YUg4SeKbRSkDk74IrBEEM23,PSeQ9YUg4SeKbRSkDk74IrBEEM23,,,,,,,,,,,,,,,,,,7000.0,,,,62e023ae6d022e4d7bfc5db1,09:05:42,27/02/2024
html-keyboard-response,214,442568,0.0-88.0-3.0,,<div style='margin:auto;width: auto; font-size: 150%'><span style='font-weight: bold; font-size: 100px; color: red;'>0 points!</span><br><br></div>,,delaylearn,learning,feedback_image_window,PSeQ9YUg4SeKbRSkDk74IrBEEM23,PSeQ9YUg4SeKbRSkDk74IrBEEM23,,,,,,,,,,,,,,,,,,,,,,62e023ae6d022e4d7bfc5db1,09:05:42,27/02/2024
html-keyboard-response,215,444413,0.0-89.0,,"<div style=""font-size:100px;"">+</div>",,delaylearn,learning,ITI,PSeQ9YUg4SeKbRSkDk74IrBEEM23,PSeQ9YUg4SeKbRSkDk74IrBEEM23,,,,,,,,,,,,,,,,,,,1838.0,,,62e023ae6d022e4d7bfc5db1,09:05:42,27/02/2024
html-keyboard-response,216,446153,0.0-90.0-0.0,1737.300000011921,"<div style=""display: flex; flex-direction: column; align-items: center; margin-top: -40px;""><img src=""images/pattern_7.png"" style=""width: 234px; height: 230px; margin-top: -50px;""><div style=""display: flex; justify-content: space-between; margin-top: 33px;""><img src=""images/choice_trial_10.png"" style=""width: 408px; height: 417px; margin-right: 200px;""><img src=""images/choice_trial_8.png"" style=""width: 408px; height: 417px;""></div></div>",f,delaylearn,learning,trial,PSeQ9YUg4SeKbRSkDk74IrBEEM23,PSeQ9YUg4SeKbRSkDk74IrBEEM23,5.0,images/choice_trial_10.png,images/choice_trial_8.png,images/pattern_7.png,j,j,750.0,10.0,8.0,6.0,1.0,39.0,0.0,0.0,10.0,120.0,,,,,,62e023ae6d022e4d7bfc5db1,09:05:42,27/02/2024
html-keyboard-response,217,447158,0.0-90.0-1.0,,"<div style=""display: flex; flex-direction: column; align-items: center; margin-top: -40px;""><img src=""images/pattern_7.png"" style=""width: 234px; height: 230px; margin-top: -50px;""><div style=""display: flex; justify-content: space-between; margin-top: 33px;""><img src=""images/choice_trial_10.png"" style=""width: 408px; height: 417px; margin-right: 608px;""></div></div>",,delaylearn,learning,display_response,PSeQ9YUg4SeKbRSkDk74IrBEEM23,PSeQ9YUg4SeKbRSkDk74IrBEEM23,,,,,,,,,,,,,,,,,chosen stimuli: images/choice_trial_10.png,,,,,62e023ae6d022e4d7bfc5db1,09:05:42,27/02/2024
html-keyboard-response,218,447914,0.0-90.0-2.0,,,,delaylearn,learning,feedback_duration_window,PSeQ9YUg4SeKbRSkDk74IrBEEM23,PSeQ9YUg4SeKbRSkDk74IrBEEM23,,,,,,,,,,,,,,,,,,750.0,,,,62e023ae6d022e4d7bfc5db1,09:05:42,27/02/2024
html-keyboard-response,219,449417,0.0-90.0-3.0,,<div style='margin:auto;width: auto; font-size: 150%'><span style='font-weight: bold; font-size: 100px; color: red;'>0 points!</span><br><br></div>,,delaylearn,learning,feedback_image_window,PSeQ9YUg4SeKbRSkDk74IrBEEM23,PSeQ9YUg4SeKbRSkDk74IrBEEM23,,,,,,,,,,,,,,,,,,,,,,62e023ae6d022e4d7bfc5db1,09:05:42,27/02/2024
html-keyboard-response,220,451641,0.0-91.0,,"<div style=""font-size:100px;"">+</div>",,delaylearn,learning,ITI,PSeQ9YUg4SeKbRSkDk74IrBEEM23,PSeQ9YUg4SeKbRSkDk74IrBEEM23,,,,,,,,,,,,,,,,,,,2219.0,,,62e023ae6d022e4d7bfc5db1,09:05:42,27/02/2024
html-keyboard-response,221,454188,0.0-92.0-0.0,2543.7000000476837,"<div style=""display: flex; flex-direction: column; align-items: center; margin-top: -40px;""><img src=""images/pattern_5.png"" style=""width: 234px; height: 230px; margin-top: -50px;""><div style=""display: flex; justify-content: space-between; margin-top: 33px;""><img src=""images/choice_trial_13.png"" style=""width: 408px; height: 417px; margin-right: 200px;""><img src=""images/choice_trial_7.png"" style=""width: 408px; height: 417px;""></div></div>",f,delaylearn,learning,trial,PSeQ9YUg4SeKbRSkDk74IrBEEM23,PSeQ9YUg4SeKbRSkDk74IrBEEM23,5.0,images/choice_trial_13.png,images/choice_trial_7.png,images/pattern_5.png,j,j,750.0,13.0,7.0,4.0,1.0,40.0,0.0,0.0,13.0,120.0,,,,,,62e023ae6d022e4d7bfc5db1,09:05:42,27/02/2024
html-keyboard-response,222,455191,0.0-92.0-1.0,,"<div style=""display: flex; flex-direction: column; align-items: center; margin-top: -40px;""><img src=""images/pattern_5.png"" style=""width: 234px; height: 230px; margin-top: -50px;""><div style=""display: flex; justify-content: space-between; margin-top: 33px;""><img src=""images/choice_trial_13.png"" style=""width: 408px; height: 417px; margin-right: 608px;""></div></div>",,delaylearn,learning,display_response,PSeQ9YUg4SeKbRSkDk74IrBEEM23,PSeQ9YUg4SeKbRSkDk74IrBEEM23,,,,,,,,,,,,,,,,,chosen stimuli: images/choice_trial_13.png,,,,,62e023ae6d022e4d7bfc5db1,09:05:42,27/02/2024
html-keyboard-response,223,455945,0.0-92.0-2.0,,,,delaylearn,learning,feedback_duration_window,PSeQ9YUg4SeKbRSkDk74IrBEEM23,PSeQ9YUg4SeKbRSkDk74IrBEEM23,,,,,,,,,,,,,,,,,,750.0,,,,62e023ae6d022e4d7bfc5db1,09:05:42,27/02/2024
html-keyboard-response,224,457448,0.0-92.0-3.0,,<div style='margin:auto;width: auto; font-size: 150%'><span style='font-weight: bold; font-size: 100px; color: red;'>0 points!</span><br><br></div>,,delaylearn,learning,feedback_image_window,PSeQ9YUg4SeKbRSkDk74IrBEEM23,PSeQ9YUg4SeKbRSkDk74IrBEEM23,,,,,,,,,,,,,,,,,,,,,,62e023ae6d022e4d7bfc5db1,09:05:42,27/02/2024
html-keyboard-response,225,457950,0.0-93.0-0.0,,,,,,mood_trial_fixation,PSeQ9YUg4SeKbRSkDk74IrBEEM23,,,,,,,,,,,,,,,,,,,,,,,62e023ae6d022e4d7bfc5db1,09:05:42,27/02/2024
lmdlab-html-vas-response,226,461644,0.0-93.0-1.0,2689.0,How happy are you right now?,0.5447530864197531,delaylearn,learning,mood_trial,PSeQ9YUg4SeKbRSkDk74IrBEEM23,PSeQ9YUg4SeKbRSkDk74IrBEEM23,,,,,,,,,,,,,,,,,,,,"['Very unhappy', 'Very happy']",,62e023ae6d022e4d7bfc5db1,09:05:42,27/02/2024
html-keyboard-response,227,463255,0.0-94.0,,"<div style=""font-size:100px;"">+</div>",,delaylearn,learning,ITI,PSeQ9YUg4SeKbRSkDk74IrBEEM23,PSeQ9YUg4SeKbRSkDk74IrBEEM23,,,,,,,,,,,,,,,,,,,1608.0,,,62e023ae6d022e4d7bfc5db1,09:05:42,27/02/2024
html-keyboard-response,228,465313,0.0-95.0-0.0,2046.9000000357628,"<div style=""display: flex; flex-direction: column; align-items: center; margin-top: -40px;""><img src=""images/pattern_4.png"" style=""width: 234px; height: 230px; margin-top: -50px;""><div style=""display: flex; justify-content: space-between; margin-top: 33px;""><img src=""images/choice_trial_11.png"" style=""width: 408px; height: 417px; margin-right: 200px;""><img src=""images/choice_trial_4.png"" style=""width: 408px; height: 417px;""></div></div>",f,delaylearn,learning,trial,PSeQ9YUg4SeKbRSkDk74IrBEEM23,PSeQ9YUg4SeKbRSkDk74IrBEEM23,5.0,images/choice_trial_11.png,images/choice_trial_4.png,images/pattern_4.png,f,f,7000.0,11.0,4.0,3.0,0.0,41.0,1.0,1.0,11.0,130.0,,,,,,62e023ae6d022e4d7bfc5db1,09:05:42,27/02/2024
html-keyboard-response,229,466318,0.0-95.0-1.0,,"<div style=""display: flex; flex-direction: column; align-items: center; margin-top: -40px;""><img src=""images/pattern_4.png"" style=""width: 234px; height: 230px; margin-top: -50px;""><div style=""display: flex; justify-content: space-between; margin-top: 33px;""><img src=""images/choice_trial_11.png"" style=""width: 408px; height: 417px; margin-right: 608px;""></div></div>",,delaylearn,learning,display_response,PSeQ9YUg4SeKbRSkDk74IrBEEM23,PSeQ9YUg4SeKbRSkDk74IrBEEM23,,,,,,,,,,,,,,,,,chosen stimuli: images/choice_trial_11.png,,,,,62e023ae6d022e4d7bfc5db1,09:05:42,27/02/2024
html-keyboard-response,230,473340,0.0-95.0-2.0,,,,delaylearn,learning,feedback_duration_window,PSeQ9YUg4SeKbRSkDk74IrBEEM23,PSeQ9YUg4SeKbRSkDk74IrBEEM23,,,,,,,,,,,,,,,,,,7000.0,,,,62e023ae6d022e4d7bfc5db1,09:05:42,27/02/2024
html-keyboard-response,231,474846,0.0-95.0-3.0,,<div style='margin:auto;width: auto; font-size: 150%'><span style='font-weight: bold; font-size: 100px; color: green;'>+10 points!</span><br><br></div>,,delaylearn,learning,feedback_image_window,PSeQ9YUg4SeKbRSkDk74IrBEEM23,PSeQ9YUg4SeKbRSkDk74IrBEEM23,,,,,,,,,,,,,,,,,,,,,,62e023ae6d022e4d7bfc5db1,09:05:42,27/02/2024
html-keyboard-response,232,476912,0.0-96.0,,"<div style=""font-size:100px;"">+</div>",,delaylearn,learning,ITI,PSeQ9YUg4SeKbRSkDk74IrBEEM23,PSeQ9YUg4SeKbRSkDk74IrBEEM23,,,,,,,,,,,,,,,,,,,2062.0,,,62e023ae6d022e4d7bfc5db1,09:05:42,27/02/2024
html-keyboard-response,233,479920,0.0-97.0-0.0,,"<div style=""display: flex; flex-direction: column; align-items: center; margin-top: -40px;""><img src=""images/pattern_6.png"" style=""width: 234px; height: 230px; margin-top: -50px;""><div style=""display: flex; justify-content: space-between; margin-top: 33px;""><img src=""images/choice_trial_9.png"" style=""width: 408px; height: 417px; margin-right: 200px;""><img src=""images/choice_trial_14.png"" style=""width: 408px; height: 417px;""></div></div>",,delaylearn,learning,trial,PSeQ9YUg4SeKbRSkDk74IrBEEM23,PSeQ9YUg4SeKbRSkDk74IrBEEM23,5.0,images/choice_trial_9.png,images/choice_trial_14.png,images/pattern_6.png,j,j,750.0,9.0,14.0,5.0,1.0,42.0,0.0,0.0,0.0,130.0,,,,,,62e023ae6d022e4d7bfc5db1,09:05:42,27/02/2024
