trial_type,trial_index,time_elapsed,internal_node_id,rt,stimulus,response,exp_name,exp_stage,test_part,subjectID,databaseID,counterbal,choice_stimuli_1,choice_stimuli_2,pattern_stimuli,rewarded_answer,correct_answer,feedback_duration_times,stim_left,stim_right,pair,leftright_counter,trial,response_correct,response_rewarded,chosen_stim,counter,displayed_choice,feedback_durations,ITI_duration,labels,rest_warning,prolificID,start_time,date
pavlovia,0,560,0.0-0.0,,,,,,,OLgTOfduCbeQBT1tohG62B5PW872,,,,,,,,,,,,,,,,,,,,,,,5f69c62d0bda08020d07c27e,09:06:02,27/02/2024
html-keyboard-response,1,3566,0.0-1.0,,"<div style=""font-size:100px;"">+</div>",,delaylearn,learning,pre_fixation,OLgTOfduCbeQBT1tohG62B5PW872,,,,,,,,,,,,,,,,,,,,,,,5f69c62d0bda08020d07c27e,09:06:02,27/02/2024
html-keyboard-response,2,4377,0.0-2.0-0.0,808.4000000059605,"<div style=""display: flex; flex-direction: column; align-items: center; margin-top: -40px;""><img src=""images/demo_images/pattern_1.png"" style=""width: 234px; height: 230px; margin-top: -50px;""><div style=""display: flex; justify-content: space-between; margin-top: 33px;""><img src=""images/demo_images/choice_trial_2.png"" style=""width: 408px; height: 417px; margin-right: 200px;""><img src=""images/demo_images/choice_trial_1.png"" style=""width: 408px; height: 417px;""></div></div>",f,delaylearn,learning,trial,OLgTOfduCbeQBT1tohG62B5PW872,OLgTOfduCbeQBT1tohG62B5PW872,2.0,images/demo_images/choice_trial_2.png,images/demo_images/choice_trial_1.png,images/demo_images/pattern_1.png,j,j,3000.0,2.0,1.0,20.0,1.0,1.0,0.0,0.0,2.0,0.0,,,,,,5f69c62d0bda08020d07c27e,09:06:02,27/02/2024
html-keyboard-response,3,5383,0.0-2.0-1.0,,"<div style=""display: flex; flex-direction: column; align-items: center; margin-top: -40px;""><img src=""images/demo_images/pattern_1.png"" style=""width: 234px; height: 230px; margin-top: -50px;""><div style=""display: flex; justify-content: space-between; margin-top: 33px;""><img src=""images/demo_images/choice_trial_2.png"" style=""width: 408px; height: 417px; margin-right: 608px;""></div></div>",,delaylearn,learning,display_response,OLgTOfduCbeQBT1tohG62B5PW872,OLgTOfduCbeQBT1tohG62B5PW872,,,,,,,,,,,,,,,,,chosen stimuli: images/demo_images/choice_trial_2.png,,,,,5f69c62d0bda08020d07c27e,09:06:02,27/02/2024
html-keyboard-response,4,8390,0.0-2.0-2.0,,,,delaylearn,learning,feedback_duration_window,OLgTOfduCbeQBT1tohG62B5PW872,OLgTOfduCbeQBT1tohG62B5PW872,,,,,,,,,,,,,,,,,,3000.0,,,,5f69c62d0bda08020d07c27e,09:06:02,27/02/2024
html-keyboard-response,5,9895,0.0-2.0-3.0,,<div style='margin:auto;width: auto; font-size: 150%'><span style='font-weight: bold; font-size: 100px; color: red;'>0 points!</span><br><br></div>,,delaylearn,learning,feedback_image_window,OLgTOfduCbeQBT1tohG62B5PW872,OLgTOfduCbeQBT1tohG62B5PW872,,,,,,,,,,,,,,,,,,,,,,5f69c62d0bda08020d07c27e,09:06:02,27/02/2024
html-keyboard-response,6,12112,0.0-3.0,,"<div style=""font-size:100px;"">+</div>",,delaylearn,learning,ITI,OLgTOfduCbeQBT1tohG62B5PW872,OLgTOfduCbeQBT1tohG62B5PW872,,,,,,,,,,,,,,,,,,,2213.0,,,5f69c62d0bda08020d07c27e,09:06:02,27/02/2024
html-keyboard-response,7,12549,0.0-4.0-0.0,432.40000000596046,"<div style=""display: flex; flex-direction: column; align-items: center; margin-top: -40px;""><img src=""images/demo_images/pattern_1.png"" style=""width: 234px; height: 230px; margin-top: -50px;""><div style=""display: flex; justify-content: space-between; margin-top: 33px;""><img src=""images/demo_images/choice_trial_2.png"" style=""width: 408px; height: 417px; margin-right: 200px;""><img src=""images/demo_images/choice_trial_1.png"" style=""width: 408px; height: 417px;""></div></div>",j,delaylearn,learning,trial,OLgTOfduCbeQBT1tohG62B5PW872,OLgTOfduCbeQBT1tohG62B5PW872,2.0,images/demo_images/choice_trial_2.png,images/demo_images/choice_trial_1.png,images/demo_images/pattern_1.png,j,j,3000.0,2.0,1.0,20.0,1.0,2.0,1.0,1.0,1.0,10.0,,,,,,5f69c62d0bda08020d07c27e,09:06:02,27/02/2024
html-keyboard-response,8,13554,0.0-4.0-1.0,,"<div style=""display: flex; flex-direction: column; align-items: center; margin-top: -40px;""><img src=""images/demo_images/pattern_1.png"" style=""width: 234px; height: 230px; margin-top: -50px;""><div style=""display: flex; justify-content: space-between; margin-top: 33px;""><img src=""images/demo_images/choice_trial_1.png"" style=""width: 408px; height: 417px; margin-left:608px;""></div></div>",,delaylearn,learning,display_response,OLgTOfduCbeQBT1tohG62B5PW872,OLgTOfduCbeQBT1tohG62B5PW872,,,,,,,,,,,,,,,,,chosen stimuli: images/demo_images/choice_trial_1.png,,,,,5f69c62d0bda08020d07c27e,09:06:02,27/02/2024
html-keyboard-response,9,16559,0.0-4.0-2.0,,,,delaylearn,learning,feedback_duration_window,OLgTOfduCbeQBT1tohG62B5PW872,OLgTOfduCbeQBT1tohG62B5PW872,,,,,,,,,,,,,,,,,,3000.0,,,,5f69c62d0bda08020d07c27e,09:06:02,27/02/2024
html-keyboard-response,10,18064,0.0-4.0-3.0,,<div style='margin:auto;width: auto; font-size: 150%'><span style='font-weight: bold; font-size: 100px; color: green;'>+10 points!</span><br><br></div>,,delaylearn,learning,feedback_image_window,OLgTOfduCbeQBT1tohG62B5PW872,OLgTOfduCbeQBT1tohG62B5PW872,,,,,,,,,,,,,,,,,,,,,,5f69c62d0bda08020d07c27e,09:06:02,27/02/2024
html-keyboard-response,11,19625,0.0-5.0,,"<div style=""font-size:100px;"">+</div>",,delaylearn,learning,ITI,OLgTOfduCbeQBT1tohG62B5PW872,OLgTOfduCbeQBT1tohG62B5PW872,,,,,,,,,,,,,,,,,,,1555.0,,,5f69c62d0bda08020d07c27e,09:06:02,27/02/2024
html-keyboard-response,12,20359,0.0-6.0-0.0,730.5999999940395,"<div style=""display: flex; flex-direction: column; align-items: center; margin-top: -40px;""><img src=""images/demo_images/pattern_1.png"" style=""width: 234px; height: 230px; margin-top: -50px;""><div style=""display: flex; justify-content: space-between; margin-top: 33px;""><img src=""images/demo_images/choice_trial_1.png"" style=""width: 408px; height: 417px; margin-right: 200px;""><img src=""images/demo_images/choice_trial_2.png"" style=""width: 408px; height: 417px;""></div></div>",f,delaylearn,learning,trial,OLgTOfduCbeQBT1tohG62B5PW872,OLgTOfduCbeQBT1tohG62B5PW872,2.0,images/demo_images/choice_trial_1.png,images/demo_images/choice_trial_2.png,images/demo_images/pattern_1.png,j,f,3000.0,1.0,2.0,20.0,0.0,3.0,1.0,0.0,1.0,10.0,,,,,,5f69c62d0bda08020d07c27e,09:06:02,27/02/2024
html-keyboard-response,13,21366,0.0-6.0-1.0,,"<div style=""display: flex; flex-direction: column; align-items: center; margin-top: -40px;""><img src=""images/demo_images/pattern_1.png"" style=""width: 234px; height: 230px; margin-top: -50px;""><div style=""display: flex; justify-content: space-between; margin-top: 33px;""><img src=""images/demo_images/choice_trial_1.png"" style=""width: 408px; height: 417px; margin-right: 608px;""></div></div>",,delaylearn,learning,display_response,OLgTOfduCbeQBT1tohG62B5PW872,OLgTOfduCbeQBT1tohG62B5PW872,,,,,,,,,,,,,,,,,chosen stimuli: images/demo_images/choice_trial_1.png,,,,,5f69c62d0bda08020d07c27e,09:06:02,27/02/2024
html-keyboard-response,14,24373,0.0-6.0-2.0,,,,delaylearn,learning,feedback_duration_window,OLgTOfduCbeQBT1tohG62B5PW872,OLgTOfduCbeQBT1tohG62B5PW872,,,,,,,,,,,,,,,,,,3000.0,,,,5f69c62d0bda08020d07c27e,09:06:02,27/02/2024
html-keyboard-response,15,25880,0.0-6.0-3.0,,<div style='margin:auto;width: auto; font-size: 150%'><span style='font-weight: bold; font-size: 100px; color: red;'>0 points!</span><br><br></div>,,delaylearn,learning,feedback_image_window,OLgTOfduCbeQBT1tohG62B5PW872,OLgTOfduCbeQBT1tohG62B5PW872,,,,,,,,,,,,,,,,,,,,,,5f69c62d0bda08020d07c27e,09:06:02,27/02/2024
html-keyboard-response,16,28304,0.0-7.0,,"<div style=""font-size:100px;"">+</div>",,delaylearn,learning,ITI,OLgTOfduCbeQBT1tohG62B5PW872,OLgTOfduCbeQBT1tohG62B5PW872,,,,,,,,,,,,,,,,,,,2418.0,,,5f69c62d0bda08020d07c27e,09:06:02,27/02/2024
html-keyboard-response,17,29608,0.0-8.0-0.0,1301.7999999970198,"<div style=""display: flex; flex-direction: column; align-items: center; margin-top: -40px;""><img src=""images/demo_images/pattern_1.png"" style=""width: 234px; height: 230px; margin-top: -50px;""><div style=""display: flex; justify-content: space-between; margin-top: 33px;""><img src=""images/demo_images/choice_trial_1.png"" style=""width: 408px; height: 417px; margin-right: 200px;""><img src=""images/demo_images/choice_trial_2.png"" style=""width: 408px; height: 417px;""></div></div>",f,delaylearn,learning,trial,OLgTOfduCbeQBT1tohG62B5PW872,OLgTOfduCbeQBT1tohG62B5PW872,2.0,images/demo_images/choice_trial_1.png,images/demo_images/choice_trial_2.png,images/demo_images/pattern_1.png,f,f,3000.0,1.0,2.0,20.0,0.0,4.0,1.0,1.0,1.0,20.0,,,,,,5f69c62d0bda08020d07c27e,09:06:02,27/02/2024
html-keyboard-response,18,30615,0.0-8.0-1.0,,"<div style=""display: flex; flex-direction: column; align-items: center; margin-top: -40px;""><img src=""images/demo_images/pattern_1.png"" style=""width: 234px; height: 230px; margin-top: -50px;""><div style=""display: flex; justify-content: space-between; margin-top: 33px;""><img src=""images/demo_images/choice_trial_1.png"" style=""width: 408px; height: 417px; margin-right: 608px;""></div></div>",,delaylearn,learning,display_response,OLgTOfduCbeQBT1tohG62B5PW872,OLgTOfduCbeQBT1tohG62B5PW872,,,,,,,,,,,,,,,,,chosen stimuli: images/demo_images/choice_trial_1.png,,,,,5f69c62d0bda08020d07c27e,09:06:02,27/02/2024
html-keyboard-response,19,33622,0.0-8.0-2.0,,,,delaylearn,learning,feedback_duration_window,OLgTOfduCbeQBT1tohG62B5PW872,OLgTOfduCbeQBT1tohG62B5PW872,,,,,,,,,,,,,,,,,,3000.0,,,,5f69c62d0bda08020d07c27e,09:06:02,27/02/2024
html-keyboard-response,20,35129,0.0-8.0-3.0,,<div style='margin:auto;width: auto; font-size: 150%'><span style='font-weight: bold; font-size: 100px; color: green;'>+10 points!</span><br><br></div>,,delaylearn,learning,feedback_image_window,OLgTOfduCbeQBT1tohG62B5PW872,OLgTOfduCbeQBT1tohG62B5PW872,,,,,,,,,,,,,,,,,,,,,,5f69c62d0bda08020d07c27e,09:06:02,27/02/2024
html-keyboard-response,21,35635,0.0-9.0-0.0,,,,,,mood_trial_fixation,OLgTOfduCbeQBT1tohG62B5PW872,,,,,,,,,,,,,,,,,,,,,,,5f69c62d0bda08020d07c27e,09:06:02,27/02/2024
lmdlab-html-vas-response,22,39372,0.0-9.0-1.0,2723.0,How happy are you right now?,0.5370370370370371,delaylearn,learning,mood_trial,OLgTOfduCbeQBT1tohG62B5PW872,OLgTOfduCbeQBT1tohG62B5PW872,,,,,,,,,,,,,,,,,,,,"['Very unhappy', 'Very happy']",,5f69c62d0bda08020d07c27e,09:06:02,27/02/2024
html-keyboard-response,23,41104,0.0-10.0,,"<div style=""font-size:100px;"">+</div>",,delaylearn,learning,ITI,OLgTOfduCbeQBT1tohG62B5PW872,OLgTOfduCbeQBT1tohG62B5PW872,,,,,,,,,,,,,,,,,,,1729.0,,,5f69c62d0bda08020d07c27e,09:06:02,27/02/2024
html-keyboard-response,24,42301,0.0-11.0-0.0,1193.5,"<div style=""display: flex; flex-direction: column; align-items: center; margin-top: -40px;""><img src=""images/demo_images/pattern_1.png"" style=""width: 234px; height: 230px; margin-top: -50px;""><div style=""display: flex; justify-content: space-between; margin-top: 33px;""><img src=""images/demo_images/choice_trial_2.png"" style=""width: 408px; height: 417px; margin-right: 200px;""><img src=""images/demo_images/choice_trial_1.png"" style=""width: 408px; height: 417px;""></div></div>",j,delaylearn,learning,trial,OLgTOfduCbeQBT1tohG62B5PW872,OLgTOfduCbeQBT1tohG62B5PW872,2.0,images/demo_images/choice_trial_2.png,images/demo_images/choice_trial_1.png,images/demo_images/pattern_1.png,j,j,3000.0,2.0,1.0,20.0,1.0,5.0,1.0,1.0,1.0,30.0,,,,,,5f69c62d0bda08020d07c27e,09:06:02,27/02/2024
html-keyboard-response,25,43309,0.0-11.0-1.0,,"<div style=""display: flex; flex-direction: column; align-items: center; margin-top: -40px;""><img src=""images/demo_images/pattern_1.png"" style=""width: 234px; height: 230px; margin-top: -50px;""><div style=""display: flex; justify-content: space-between; margin-top: 33px;""><img src=""images/demo_images/choice_trial_1.png"" style=""width: 408px; height: 417px; margin-left:608px;""></div></div>",,delaylearn,learning,display_response,OLgTOfduCbeQBT1tohG62B5PW872,OLgTOfduCbeQBT1tohG62B5PW872,,,,,,,,,,,,,,,,,chosen stimuli: images/demo_images/choice_trial_1.png,,,,,5f69c62d0bda08020d07c27e,09:06:02,27/02/2024
html-keyboard-response,26,46317,0.0-11.0-2.0,,,,delaylearn,learning,feedback_duration_window,OLgTOfduCbeQBT1tohG62B5PW872,OLgTOfduCbeQBT1tohG62B5PW872,,,,,,,,,,,,,,,,,,3000.0,,,,5f69c62d0bda08020d07c27e,09:06:02,27/02/2024
html-keyboard-response,27,47821,0.0-11.0-3.0,,<div style='margin:auto;width: auto; font-size: 150%'><span style='font-weight: bold; font-size: 100px; color: green;'>+10 points!</span><br><br></div>,,delaylearn,learning,feedback_image_window,OLgTOfduCbeQBT1tohG62B5PW872,OLgTOfduCbeQBT1tohG62B5PW872,,,,,,,,,,,,,,,,,,,,,,5f69c62d0bda08020d07c27e,09:06:02,27/02/2024
html-keyboard-response,28,50141,0.0-12.0,,"<div style=""font-size:100px;"">+</div>",,delaylearn,learning,ITI,OLgTOfduCbeQBT1tohG62B5PW872,OLgTOfduCbeQBT1tohG62B5PW872,,,,,,,,,,,,,,,,,,,2317.0,,,5f69c62d0bda08020d07c27e,09:06:02,27/02/2024
html-keyboard-response,29,50667,0.0-13.0-0.0,521.6000000089407,"<div style=""display: flex; flex-direction: column; align-items: center; margin-top: -40px;""><img src=""images/demo_images/pattern_1.png"" style=""width: 234px; height: 230px; margin-top: -50px;""><div style=""display: flex; justify-content: space-between; margin-top: 33px;""><img src=""images/demo_images/choice_trial_1.png"" style=""width: 408px; height: 417px; margin-right: 200px;""><img src=""images/demo_images/choice_trial_2.png"" style=""width: 408px; height: 417px;""></div></div>",f,delaylearn,learning,trial,OLgTOfduCbeQBT1tohG62B5PW872,OLgTOfduCbeQBT1tohG62B5PW872,2.0,images/demo_images/choice_trial_1.png,images/demo_images/choice_trial_2.png,images/demo_images/pattern_1.png,f,f,3000.0,1.0,2.0,20.0,0.0,6.0,1.0,1.0,1.0,40.0,,,,,,5f69c62d0bda08020d07c27e,09:06:02,27/02/2024
html-keyboard-response,30,51671,0.0-13.0-1.0,,"<div style=""display: flex; flex-direction: column; align-items: center; margin-top: -40px;""><img src=""images/demo_images/pattern_1.png"" style=""width: 234px; height: 230px; margin-top: -50px;""><div style=""display: flex; justify-content: space-between; margin-top: 33px;""><img src=""images/demo_images/choice_trial_1.png"" style=""width: 408px; height: 417px; margin-right: 608px;""></div></div>",,delaylearn,learning,display_response,OLgTOfduCbeQBT1tohG62B5PW872,OLgTOfduCbeQBT1tohG62B5PW872,,,,,,,,,,,,,,,,,chosen stimuli: images/demo_images/choice_trial_1.png,,,,,5f69c62d0bda08020d07c27e,09:06:02,27/02/2024
html-keyboard-response,31,54676,0.0-13.0-2.0,,,,delaylearn,learning,feedback_duration_window,OLgTOfduCbeQBT1tohG62B5PW872,OLgTOfduCbeQBT1tohG62B5PW872,,,,,,,,,,,,,,,,,,3000.0,,,,5f69c62d0bda08020d07c27e,09:06:02,27/02/2024
html-keyboard-response,32,56180,0.0-13.0-3.0,,<div style='margin:auto;width: auto; font-size: 150%'><span style='font-weight: bold; font-size: 100px; color: green;'>+10 points!</span><br><br></div>,,delaylearn,learning,feedback_image_window,OLgTOfduCbeQBT1tohG62B5PW872,OLgTOfduCbeQBT1tohG62B5PW872,,,,,,,,,,,,,,,,,,,,,,5f69c62d0bda08020d07c27e,09:06:02,27/02/2024
html-button-response,33,58255,0.0-14.0,2072.0,"
  <div style=""display: flex; align-items: center; justify-content: center; height: 80vh;"">
  <div>
          <img src=""images/inst_demo_finish.png"" style=""width: 80vw; height:auto;"">
          <br><br>
      </div>
      <br><br>
  </div>",0,,,,OLgTOfduCbeQBT1tohG62B5PW872,,,,,,,,,,,,,,,,,,,,,,,5f69c62d0bda08020d07c27e,09:06:02,27/02/2024
html-keyboard-response,34,61018,0.0-15.0,2761.0,"
  <div style=""display: flex; align-items: center; justify-content: center; height: 80vh;"">
  <div>
          <img src=""images/inst_6.png"" style=""width: 80vw; height:auto;"">
          <br><br>
      </div>
      <br><br>
  </div>",f,,,,OLgTOfduCbeQBT1tohG62B5PW872,,,,,,,,,,,,,,,,,,,,,,,5f69c62d0bda08020d07c27e,09:06:02,27/02/2024
html-keyboard-response,35,64025,0.0-16.0,,"<div style=""font-size:100px;"">+</div>",,delaylearn,learning,pre_fixation,OLgTOfduCbeQBT1tohG62B5PW872,,,,,,,,,,,,,,,,,,,,,,,5f69c62d0bda08020d07c27e,09:06:02,27/02/2024
html-keyboard-response,36,65883,0.0-17.0,,"<div style=""font-size:100px;"">+</div>",,delaylearn,learning,ITI,OLgTOfduCbeQBT1tohG62B5PW872,OLgTOfduCbeQBT1tohG62B5PW872,,,,,,,,,,,,,,,,,,,1851.0,,,5f69c62d0bda08020d07c27e,09:06:02,27/02/2024
html-keyboard-response,37,66602,0.0-18.0-0.0,716.3999999910593,"<div style=""display: flex; flex-direction: column; align-items: center; margin-top: -40px;""><img src=""images/pattern_3.png"" style=""width: 234px; height: 230px; margin-top: -50px;""><div style=""display: flex; justify-content: space-between; margin-top: 33px;""><img src=""images/choice_trial_12.png"" style=""width: 408px; height: 417px; margin-right: 200px;""><img src=""images/choice_trial_14.png"" style=""width: 408px; height: 417px;""></div></div>",f,delaylearn,learning,trial,OLgTOfduCbeQBT1tohG62B5PW872,OLgTOfduCbeQBT1tohG62B5PW872,2.0,images/choice_trial_12.png,images/choice_trial_14.png,images/pattern_3.png,f,f,7000.0,12.0,14.0,2.0,0.0,7.0,1.0,1.0,12.0,50.0,,,,,,5f69c62d0bda08020d07c27e,09:06:02,27/02/2024
html-keyboard-response,38,67607,0.0-18.0-1.0,,"<div style=""display: flex; flex-direction: column; align-items: center; margin-top: -40px;""><img src=""images/pattern_3.png"" style=""width: 234px; height: 230px; margin-top: -50px;""><div style=""display: flex; justify-content: space-between; margin-top: 33px;""><img src=""images/choice_trial_12.png"" style=""width: 408px; height: 417px; margin-right: 608px;""></div></div>",,delaylearn,learning,display_response,OLgTOfduCbeQBT1tohG62B5PW872,OLgTOfduCbeQBT1tohG62B5PW872,,,,,,,,,,,,,,,,,chosen stimuli: images/choice_trial_12.png,,,,,5f69c62d0bda08020d07c27e,09:06:02,27/02/2024
html-keyboard-response,39,74614,0.0-18.0-2.0,,,,delaylearn,learning,feedback_duration_window,OLgTOfduCbeQBT1tohG62B5PW872,OLgTOfduCbeQBT1tohG62B5PW872,,,,,,,,,,,,,,,,,,7000.0,,,,5f69c62d0bda08020d07c27e,09:06:02,27/02/2024
html-keyboard-response,40,76118,0.0-18.0-3.0,,<div style='margin:auto;width: auto; font-size: 150%'><span style='font-weight: bold; font-size: 100px; color: green;'>+10 points!</span><br><br></div>,,delaylearn,learning,feedback_image_window,OLgTOfduCbeQBT1tohG62B5PW872,OLgTOfduCbeQBT1tohG62B5PW872,,,,,,,,,,,,,,,,,,,,,,5f69c62d0bda08020d07c27e,09:06:02,27/02/2024
html-keyboard-response,41,78369,0.0-19.0,,"<div style=""font-size:100px;"">+</div>",,delaylearn,learning,ITI,OLgTOfduCbeQBT1tohG62B5PW872,OLgTOfduCbeQBT1tohG62B5PW872,,,,,,,,,,,,,,,,,,,2245.0,,,5f69c62d0bda08020d07c27e,09:06:02,27/02/2024
html-keyboard-response,42,79354,0.0-20.0-0.0,981.5999999940395,"<div style=""display: flex; flex-direction: column; align-items: center; margin-top: -40px;""><img src=""images/pattern_7.png"" style=""width: 234px; height: 230px; margin-top: -50px;""><div style=""display: flex; justify-content: space-between; margin-top: 33px;""><img src=""images/choice_trial_15.png"" style=""width: 408px; height: 417px; margin-right: 200px;""><img src=""images/choice_trial_8.png"" style=""width: 408px; height: 417px;""></div></div>",j,delaylearn,learning,trial,OLgTOfduCbeQBT1tohG62B5PW872,OLgTOfduCbeQBT1tohG62B5PW872,2.0,images/choice_trial_15.png,images/choice_trial_8.png,images/pattern_7.png,j,j,750.0,15.0,8.0,6.0,1.0,8.0,1.0,1.0,8.0,60.0,,,,,,5f69c62d0bda08020d07c27e,09:06:02,27/02/2024
html-keyboard-response,43,80360,0.0-20.0-1.0,,"<div style=""display: flex; flex-direction: column; align-items: center; margin-top: -40px;""><img src=""images/pattern_7.png"" style=""width: 234px; height: 230px; margin-top: -50px;""><div style=""display: flex; justify-content: space-between; margin-top: 33px;""><img src=""images/choice_trial_8.png"" style=""width: 408px; height: 417px; margin-left:608px;""></div></div>",,delaylearn,learning,display_response,OLgTOfduCbeQBT1tohG62B5PW872,OLgTOfduCbeQBT1tohG62B5PW872,,,,,,,,,,,,,,,,,chosen stimuli: images/choice_trial_8.png,,,,,5f69c62d0bda08020d07c27e,09:06:02,27/02/2024
html-keyboard-response,44,81118,0.0-20.0-2.0,,,,delaylearn,learning,feedback_duration_window,OLgTOfduCbeQBT1tohG62B5PW872,OLgTOfduCbeQBT1tohG62B5PW872,,,,,,,,,,,,,,,,,,750.0,,,,5f69c62d0bda08020d07c27e,09:06:02,27/02/2024
html-keyboard-response,45,82625,0.0-20.0-3.0,,<div style='margin:auto;width: auto; font-size: 150%'><span style='font-weight: bold; font-size: 100px; color: green;'>+10 points!</span><br><br></div>,,delaylearn,learning,feedback_image_window,OLgTOfduCbeQBT1tohG62B5PW872,OLgTOfduCbeQBT1tohG62B5PW872,,,,,,,,,,,,,,,,,,,,,,5f69c62d0bda08020d07c27e,09:06:02,27/02/2024
html-keyboard-response,46,84238,0.0-21.0,,"<div style=""font-size:100px;"">+</div>",,delaylearn,learning,ITI,OLgTOfduCbeQBT1tohG62B5PW872,OLgTOfduCbeQBT1tohG62B5PW872,,,,,,,,,,,,,,,,,,,1605.0,,,5f69c62d0bda08020d07c27e,09:06:02,27/02/2024
html-keyboard-response,47,85129,0.0-22.0-0.0,888.3999999910593,"<div style=""display: flex; flex-direction: column; align-items: center; margin-top: -40px;""><img src=""images/pattern_4.png"" style=""width: 234px; height: 230px; margin-top: -50px;""><div style=""display: flex; justify-content: space-between; margin-top: 33px;""><img src=""images/choice_trial_4.png"" style=""width: 408px; height: 417px; margin-right: 200px;""><img src=""images/choice_trial_16.png"" style=""width: 408px; height: 417px;""></div></div>",f,delaylearn,learning,trial,OLgTOfduCbeQBT1tohG62B5PW872,OLgTOfduCbeQBT1tohG62B5PW872,2.0,images/choice_trial_4.png,images/choice_trial_16.png,images/pattern_4.png,f,f,7000.0,4.0,16.0,3.0,0.0,9.0,1.0,1.0,4.0,70.0,,,,,,5f69c62d0bda08020d07c27e,09:06:02,27/02/2024
html-keyboard-response,48,86138,0.0-22.0-1.0,,"<div style=""display: flex; flex-direction: column; align-items: center; margin-top: -40px;""><img src=""images/pattern_4.png"" style=""width: 234px; height: 230px; margin-top: -50px;""><div style=""display: flex; justify-content: space-between; margin-top: 33px;""><img src=""images/choice_trial_4.png"" style=""width: 408px; height: 417px; margin-right: 608px;""></div></div>",,delaylearn,learning,display_response,OLgTOfduCbeQBT1tohG62B5PW872,OLgTOfduCbeQBT1tohG62B5PW872,,,,,,,,,,,,,,,,,chosen stimuli: images/choice_trial_4.png,,,,,5f69c62d0bda08020d07c27e,09:06:02,27/02/2024
html-keyboard-response,49,93140,0.0-22.0-2.0,,,,delaylearn,learning,feedback_duration_window,OLgTOfduCbeQBT1tohG62B5PW872,OLgTOfduCbeQBT1tohG62B5PW872,,,,,,,,,,,,,,,,,,7000.0,,,,5f69c62d0bda08020d07c27e,09:06:02,27/02/2024
html-keyboard-response,50,94648,0.0-22.0-3.0,,<div style='margin:auto;width: auto; font-size: 150%'><span style='font-weight: bold; font-size: 100px; color: green;'>+10 points!</span><br><br></div>,,delaylearn,learning,feedback_image_window,OLgTOfduCbeQBT1tohG62B5PW872,OLgTOfduCbeQBT1tohG62B5PW872,,,,,,,,,,,,,,,,,,,,,,5f69c62d0bda08020d07c27e,09:06:02,27/02/2024
html-keyboard-response,51,96970,0.0-23.0,,"<div style=""font-size:100px;"">+</div>",,delaylearn,learning,ITI,OLgTOfduCbeQBT1tohG62B5PW872,OLgTOfduCbeQBT1tohG62B5PW872,,,,,,,,,,,,,,,,,,,2314.0,,,5f69c62d0bda08020d07c27e,09:06:02,27/02/2024
html-keyboard-response,52,97379,0.0-24.0-0.0,406.5,"<div style=""display: flex; flex-direction: column; align-items: center; margin-top: -40px;""><img src=""images/pattern_5.png"" style=""width: 234px; height: 230px; margin-top: -50px;""><div style=""display: flex; justify-content: space-between; margin-top: 33px;""><img src=""images/choice_trial_9.png"" style=""width: 408px; height: 417px; margin-right: 200px;""><img src=""images/choice_trial_2.png"" style=""width: 408px; height: 417px;""></div></div>",j,delaylearn,learning,trial,OLgTOfduCbeQBT1tohG62B5PW872,OLgTOfduCbeQBT1tohG62B5PW872,2.0,images/choice_trial_9.png,images/choice_trial_2.png,images/pattern_5.png,j,j,750.0,9.0,2.0,4.0,1.0,10.0,1.0,1.0,2.0,80.0,,,,,,5f69c62d0bda08020d07c27e,09:06:02,27/02/2024
html-keyboard-response,53,98386,0.0-24.0-1.0,,"<div style=""display: flex; flex-direction: column; align-items: center; margin-top: -40px;""><img src=""images/pattern_5.png"" style=""width: 234px; height: 230px; margin-top: -50px;""><div style=""display: flex; justify-content: space-between; margin-top: 33px;""><img src=""images/choice_trial_2.png"" style=""width: 408px; height: 417px; margin-left:608px;""></div></div>",,delaylearn,learning,display_response,OLgTOfduCbeQBT1tohG62B5PW872,OLgTOfduCbeQBT1tohG62B5PW872,,,,,,,,,,,,,,,,,chosen stimuli: images/choice_trial_2.png,,,,,5f69c62d0bda08020d07c27e,09:06:02,27/02/2024
html-keyboard-response,54,99141,0.0-24.0-2.0,,,,delaylearn,learning,feedback_duration_window,OLgTOfduCbeQBT1tohG62B5PW872,OLgTOfduCbeQBT1tohG62B5PW872,,,,,,,,,,,,,,,,,,750.0,,,,5f69c62d0bda08020d07c27e,09:06:02,27/02/2024
html-keyboard-response,55,100644,0.0-24.0-3.0,,<div style='margin:auto;width: auto; font-size: 150%'><span style='font-weight: bold; font-size: 100px; color: green;'>+10 points!</span><br><br></div>,,delaylearn,learning,feedback_image_window,OLgTOfduCbeQBT1tohG62B5PW872,OLgTOfduCbeQBT1tohG62B5PW872,,,,,,,,,,,,,,,,,,,,,,5f69c62d0bda08020d07c27e,09:06:02,27/02/2024
html-keyboard-response,56,103073,0.0-25.0,,"<div style=""font-size:100px;"">+</div>",,delaylearn,learning,ITI,OLgTOfduCbeQBT1tohG62B5PW872,OLgTOfduCbeQBT1tohG62B5PW872,,,,,,,,,,,,,,,,,,,2422.0,,,5f69c62d0bda08020d07c27e,09:06:02,27/02/2024
html-keyboard-response,57,104178,0.0-26.0-0.0,1101.5,"<div style=""display: flex; flex-direction: column; align-items: center; margin-top: -40px;""><img src=""images/pattern_6.png"" style=""width: 234px; height: 230px; margin-top: -50px;""><div style=""display: flex; justify-content: space-between; margin-top: 33px;""><img src=""images/choice_trial_11.png"" style=""width: 408px; height: 417px; margin-right: 200px;""><img src=""images/choice_trial_5.png"" style=""width: 408px; height: 417px;""></div></div>",j,delaylearn,learning,trial,OLgTOfduCbeQBT1tohG62B5PW872,OLgTOfduCbeQBT1tohG62B5PW872,2.0,images/choice_trial_11.png,images/choice_trial_5.png,images/pattern_6.png,j,f,750.0,11.0,5.0,5.0,0.0,11.0,0.0,1.0,5.0,90.0,,,,,,5f69c62d0bda08020d07c27e,09:06:02,27/02/2024
html-keyboard-response,58,105186,0.0-26.0-1.0,,"<div style=""display: flex; flex-direction: column; align-items: center; margin-top: -40px;""><img src=""images/pattern_6.png"" style=""width: 234px; height: 230px; margin-top: -50px;""><div style=""display: flex; justify-content: space-between; margin-top: 33px;""><img src=""images/choice_trial_5.png"" style=""width: 408px; height: 417px; margin-left:608px;""></div></div>",,delaylearn,learning,display_response,OLgTOfduCbeQBT1tohG62B5PW872,OLgTOfduCbeQBT1tohG62B5PW872,,,,,,,,,,,,,,,,,chosen stimuli: images/choice_trial_5.png,,,,,5f69c62d0bda08020d07c27e,09:06:02,27/02/2024
html-keyboard-response,59,105942,0.0-26.0-2.0,,,,delaylearn,learning,feedback_duration_window,OLgTOfduCbeQBT1tohG62B5PW872,OLgTOfduCbeQBT1tohG62B5PW872,,,,,,,,,,,,,,,,,,750.0,,,,5f69c62d0bda08020d07c27e,09:06:02,27/02/2024
html-keyboard-response,60,107449,0.0-26.0-3.0,,<div style='margin:auto;width: auto; font-size: 150%'><span style='font-weight: bold; font-size: 100px; color: green;'>+10 points!</span><br><br></div>,,delaylearn,learning,feedback_image_window,OLgTOfduCbeQBT1tohG62B5PW872,OLgTOfduCbeQBT1tohG62B5PW872,,,,,,,,,,,,,,,,,,,,,,5f69c62d0bda08020d07c27e,09:06:02,27/02/2024
html-keyboard-response,61,107956,0.0-27.0-0.0,,,,,,mood_trial_fixation,OLgTOfduCbeQBT1tohG62B5PW872,,,,,,,,,,,,,,,,,,,,,,,5f69c62d0bda08020d07c27e,09:06:02,27/02/2024
lmdlab-html-vas-response,62,112022,0.0-27.0-1.0,3059.0,How happy are you right now?,0.6388888888888888,delaylearn,learning,mood_trial,OLgTOfduCbeQBT1tohG62B5PW872,OLgTOfduCbeQBT1tohG62B5PW872,,,,,,,,,,,,,,,,,,,,"['Very unhappy', 'Very happy']",,5f69c62d0bda08020d07c27e,09:06:02,27/02/2024
html-keyboard-response,63,113848,0.0-28.0,,"<div style=""font-size:100px;"">+</div>",,delaylearn,learning,ITI,OLgTOfduCbeQBT1tohG62B5PW872,OLgTOfduCbeQBT1tohG62B5PW872,,,,,,,,,,,,,,,,,,,1819.0,,,5f69c62d0bda08020d07c27e,09:06:02,27/02/2024
html-keyboard-response,64,114514,0.0-29.0-0.0,662.0,"<div style=""display: flex; flex-direction: column; align-items: center; margin-top: -40px;""><img src=""images/pattern_1.png"" style=""width: 234px; height: 230px; margin-top: -50px;""><div style=""display: flex; justify-content: space-between; margin-top: 33px;""><img src=""images/choice_trial_10.png"" style=""width: 408px; height: 417px; margin-right: 200px;""><img src=""images/choice_trial_3.png"" style=""width: 408px; height: 417px;""></div></div>",f,delaylearn,learning,trial,OLgTOfduCbeQBT1tohG62B5PW872,OLgTOfduCbeQBT1tohG62B5PW872,2.0,images/choice_trial_10.png,images/choice_trial_3.png,images/pattern_1.png,j,j,7000.0,10.0,3.0,1.0,1.0,12.0,0.0,0.0,10.0,90.0,,,,,,5f69c62d0bda08020d07c27e,09:06:02,27/02/2024
html-keyboard-response,65,115521,0.0-29.0-1.0,,"<div style=""display: flex; flex-direction: column; align-items: center; margin-top: -40px;""><img src=""images/pattern_1.png"" style=""width: 234px; height: 230px; margin-top: -50px;""><div style=""display: flex; justify-content: space-between; margin-top: 33px;""><img src=""images/choice_trial_10.png"" style=""width: 408px; height: 417px; margin-right: 608px;""></div></div>",,delaylearn,learning,display_response,OLgTOfduCbeQBT1tohG62B5PW872,OLgTOfduCbeQBT1tohG62B5PW872,,,,,,,,,,,,,,,,,chosen stimuli: images/choice_trial_10.png,,,,,5f69c62d0bda08020d07c27e,09:06:02,27/02/2024
html-keyboard-response,66,122525,0.0-29.0-2.0,,,,delaylearn,learning,feedback_duration_window,OLgTOfduCbeQBT1tohG62B5PW872,OLgTOfduCbeQBT1tohG62B5PW872,,,,,,,,,,,,,,,,,,7000.0,,,,5f69c62d0bda08020d07c27e,09:06:02,27/02/2024
html-keyboard-response,67,124031,0.0-29.0-3.0,,<div style='margin:auto;width: auto; font-size: 150%'><span style='font-weight: bold; font-size: 100px; color: red;'>0 points!</span><br><br></div>,,delaylearn,learning,feedback_image_window,OLgTOfduCbeQBT1tohG62B5PW872,OLgTOfduCbeQBT1tohG62B5PW872,,,,,,,,,,,,,,,,,,,,,,5f69c62d0bda08020d07c27e,09:06:02,27/02/2024
html-keyboard-response,68,125845,0.0-30.0,,"<div style=""font-size:100px;"">+</div>",,delaylearn,learning,ITI,OLgTOfduCbeQBT1tohG62B5PW872,OLgTOfduCbeQBT1tohG62B5PW872,,,,,,,,,,,,,,,,,,,1807.0,,,5f69c62d0bda08020d07c27e,09:06:02,27/02/2024
html-keyboard-response,69,126358,0.0-31.0-0.0,509.29999999701977,"<div style=""display: flex; flex-direction: column; align-items: center; margin-top: -40px;""><img src=""images/pattern_3.png"" style=""width: 234px; height: 230px; margin-top: -50px;""><div style=""display: flex; justify-content: space-between; margin-top: 33px;""><img src=""images/choice_trial_14.png"" style=""width: 408px; height: 417px; margin-right: 200px;""><img src=""images/choice_trial_12.png"" style=""width: 408px; height: 417px;""></div></div>",j,delaylearn,learning,trial,OLgTOfduCbeQBT1tohG62B5PW872,OLgTOfduCbeQBT1tohG62B5PW872,2.0,images/choice_trial_14.png,images/choice_trial_12.png,images/pattern_3.png,f,j,7000.0,14.0,12.0,2.0,1.0,13.0,1.0,0.0,12.0,90.0,,,,,,5f69c62d0bda08020d07c27e,09:06:02,27/02/2024
html-keyboard-response,70,127364,0.0-31.0-1.0,,"<div style=""display: flex; flex-direction: column; align-items: center; margin-top: -40px;""><img src=""images/pattern_3.png"" style=""width: 234px; height: 230px; margin-top: -50px;""><div style=""display: flex; justify-content: space-between; margin-top: 33px;""><img src=""images/choice_trial_12.png"" style=""width: 408px; height: 417px; margin-left:608px;""></div></div>",,delaylearn,learning,display_response,OLgTOfduCbeQBT1tohG62B5PW872,OLgTOfduCbeQBT1tohG62B5PW872,,,,,,,,,,,,,,,,,chosen stimuli: images/choice_trial_12.png,,,,,5f69c62d0bda08020d07c27e,09:06:02,27/02/2024
html-keyboard-response,71,134371,0.0-31.0-2.0,,,,delaylearn,learning,feedback_duration_window,OLgTOfduCbeQBT1tohG62B5PW872,OLgTOfduCbeQBT1tohG62B5PW872,,,,,,,,,,,,,,,,,,7000.0,,,,5f69c62d0bda08020d07c27e,09:06:02,27/02/2024
html-keyboard-response,72,135878,0.0-31.0-3.0,,<div style='margin:auto;width: auto; font-size: 150%'><span style='font-weight: bold; font-size: 100px; color: red;'>0 points!</span><br><br></div>,,delaylearn,learning,feedback_image_window,OLgTOfduCbeQBT1tohG62B5PW872,OLgTOfduCbeQBT1tohG62B5PW872,,,,,,,,,,,,,,,,,,,,,,5f69c62d0bda08020d07c27e,09:06:02,27/02/2024
html-keyboard-response,73,137950,0.0-32.0,,"<div style=""font-size:100px;"">+</div>",,delaylearn,learning,ITI,OLgTOfduCbeQBT1tohG62B5PW872,OLgTOfduCbeQBT1tohG62B5PW872,,,,,,,,,,,,,,,,,,,2065.0,,,5f69c62d0bda08020d07c27e,09:06:02,27/02/2024
html-keyboard-response,74,138329,0.0-33.0-0.0,374.59999999403954,"<div style=""display: flex; flex-direction: column; align-items: center; margin-top: -40px;""><img src=""images/pattern_5.png"" style=""width: 234px; height: 230px; margin-top: -50px;""><div style=""display: flex; justify-content: space-between; margin-top: 33px;""><img src=""images/choice_trial_2.png"" style=""width: 408px; height: 417px; margin-right: 200px;""><img src=""images/choice_trial_9.png"" style=""width: 408px; height: 417px;""></div></div>",f,delaylearn,learning,trial,OLgTOfduCbeQBT1tohG62B5PW872,OLgTOfduCbeQBT1tohG62B5PW872,2.0,images/choice_trial_2.png,images/choice_trial_9.png,images/pattern_5.png,f,f,750.0,2.0,9.0,4.0,0.0,14.0,1.0,1.0,2.0,100.0,,,,,,5f69c62d0bda08020d07c27e,09:06:02,27/02/2024
html-keyboard-response,75,139334,0.0-33.0-1.0,,"<div style=""display: flex; flex-direction: column; align-items: center; margin-top: -40px;""><img src=""images/pattern_5.png"" style=""width: 234px; height: 230px; margin-top: -50px;""><div style=""display: flex; justify-content: space-between; margin-top: 33px;""><img src=""images/choice_trial_2.png"" style=""width: 408px; height: 417px; margin-right: 608px;""></div></div>",,delaylearn,learning,display_response,OLgTOfduCbeQBT1tohG62B5PW872,OLgTOfduCbeQBT1tohG62B5PW872,,,,,,,,,,,,,,,,,chosen stimuli: images/choice_trial_2.png,,,,,5f69c62d0bda08020d07c27e,09:06:02,27/02/2024
html-keyboard-response,76,140090,0.0-33.0-2.0,,,,delaylearn,learning,feedback_duration_window,OLgTOfduCbeQBT1tohG62B5PW872,OLgTOfduCbeQBT1tohG62B5PW872,,,,,,,,,,,,,,,,,,750.0,,,,5f69c62d0bda08020d07c27e,09:06:02,27/02/2024
html-keyboard-response,77,141598,0.0-33.0-3.0,,<div style='margin:auto;width: auto; font-size: 150%'><span style='font-weight: bold; font-size: 100px; color: green;'>+10 points!</span><br><br></div>,,delaylearn,learning,feedback_image_window,OLgTOfduCbeQBT1tohG62B5PW872,OLgTOfduCbeQBT1tohG62B5PW872,,,,,,,,,,,,,,,,,,,,,,5f69c62d0bda08020d07c27e,09:06:02,27/02/2024
html-keyboard-response,78,142103,0.0-34.0-0.0,,,,,,mood_trial_fixation,OLgTOfduCbeQBT1tohG62B5PW872,,,,,,,,,,,,,,,,,,,,,,,5f69c62d0bda08020d07c27e,09:06:02,27/02/2024
lmdlab-html-vas-response,79,145389,0.0-34.0-1.0,2275.0,How happy are you right now?,0.5814814814814815,delaylearn,learning,mood_trial,OLgTOfduCbeQBT1tohG62B5PW872,OLgTOfduCbeQBT1tohG62B5PW872,,,,,,,,,,,,,,,,,,,,"['Very unhappy', 'Very happy']",,5f69c62d0bda08020d07c27e,09:06:02,27/02/2024
html-keyboard-response,80,147325,0.0-35.0,,"<div style=""font-size:100px;"">+</div>",,delaylearn,learning,ITI,OLgTOfduCbeQBT1tohG62B5PW872,OLgTOfduCbeQBT1tohG62B5PW872,,,,,,,,,,,,,,,,,,,1931.0,,,5f69c62d0bda08020d07c27e,09:06:02,27/02/2024
html-keyboard-response,81,147723,0.0-36.0-0.0,394.6000000089407,"<div style=""display: flex; flex-direction: column; align-items: center; margin-top: -40px;""><img src=""images/pattern_6.png"" style=""width: 234px; height: 230px; margin-top: -50px;""><div style=""display: flex; justify-content: space-between; margin-top: 33px;""><img src=""images/choice_trial_11.png"" style=""width: 408px; height: 417px; margin-right: 200px;""><img src=""images/choice_trial_5.png"" style=""width: 408px; height: 417px;""></div></div>",j,delaylearn,learning,trial,OLgTOfduCbeQBT1tohG62B5PW872,OLgTOfduCbeQBT1tohG62B5PW872,2.0,images/choice_trial_11.png,images/choice_trial_5.png,images/pattern_6.png,f,f,750.0,11.0,5.0,5.0,0.0,15.0,0.0,0.0,5.0,100.0,,,,,,5f69c62d0bda08020d07c27e,09:06:02,27/02/2024
html-keyboard-response,82,148731,0.0-36.0-1.0,,"<div style=""display: flex; flex-direction: column; align-items: center; margin-top: -40px;""><img src=""images/pattern_6.png"" style=""width: 234px; height: 230px; margin-top: -50px;""><div style=""display: flex; justify-content: space-between; margin-top: 33px;""><img src=""images/choice_trial_5.png"" style=""width: 408px; height: 417px; margin-left:608px;""></div></div>",,delaylearn,learning,display_response,OLgTOfduCbeQBT1tohG62B5PW872,OLgTOfduCbeQBT1tohG62B5PW872,,,,,,,,,,,,,,,,,chosen stimuli: images/choice_trial_5.png,,,,,5f69c62d0bda08020d07c27e,09:06:02,27/02/2024
html-keyboard-response,83,149486,0.0-36.0-2.0,,,,delaylearn,learning,feedback_duration_window,OLgTOfduCbeQBT1tohG62B5PW872,OLgTOfduCbeQBT1tohG62B5PW872,,,,,,,,,,,,,,,,,,750.0,,,,5f69c62d0bda08020d07c27e,09:06:02,27/02/2024
html-keyboard-response,84,150994,0.0-36.0-3.0,,<div style='margin:auto;width: auto; font-size: 150%'><span style='font-weight: bold; font-size: 100px; color: red;'>0 points!</span><br><br></div>,,delaylearn,learning,feedback_image_window,OLgTOfduCbeQBT1tohG62B5PW872,OLgTOfduCbeQBT1tohG62B5PW872,,,,,,,,,,,,,,,,,,,,,,5f69c62d0bda08020d07c27e,09:06:02,27/02/2024
html-keyboard-response,85,153486,0.0-37.0,,"<div style=""font-size:100px;"">+</div>",,delaylearn,learning,ITI,OLgTOfduCbeQBT1tohG62B5PW872,OLgTOfduCbeQBT1tohG62B5PW872,,,,,,,,,,,,,,,,,,,2488.0,,,5f69c62d0bda08020d07c27e,09:06:02,27/02/2024
html-keyboard-response,86,154435,0.0-38.0-0.0,944.7999999970198,"<div style=""display: flex; flex-direction: column; align-items: center; margin-top: -40px;""><img src=""images/pattern_4.png"" style=""width: 234px; height: 230px; margin-top: -50px;""><div style=""display: flex; justify-content: space-between; margin-top: 33px;""><img src=""images/choice_trial_16.png"" style=""width: 408px; height: 417px; margin-right: 200px;""><img src=""images/choice_trial_4.png"" style=""width: 408px; height: 417px;""></div></div>",f,delaylearn,learning,trial,OLgTOfduCbeQBT1tohG62B5PW872,OLgTOfduCbeQBT1tohG62B5PW872,2.0,images/choice_trial_16.png,images/choice_trial_4.png,images/pattern_4.png,j,j,7000.0,16.0,4.0,3.0,1.0,16.0,0.0,0.0,16.0,100.0,,,,,,5f69c62d0bda08020d07c27e,09:06:02,27/02/2024
html-keyboard-response,87,155443,0.0-38.0-1.0,,"<div style=""display: flex; flex-direction: column; align-items: center; margin-top: -40px;""><img src=""images/pattern_4.png"" style=""width: 234px; height: 230px; margin-top: -50px;""><div style=""display: flex; justify-content: space-between; margin-top: 33px;""><img src=""images/choice_trial_16.png"" style=""width: 408px; height: 417px; margin-right: 608px;""></div></div>",,delaylearn,learning,display_response,OLgTOfduCbeQBT1tohG62B5PW872,OLgTOfduCbeQBT1tohG62B5PW872,,,,,,,,,,,,,,,,,chosen stimuli: images/choice_trial_16.png,,,,,5f69c62d0bda08020d07c27e,09:06:02,27/02/2024
html-keyboard-response,88,162446,0.0-38.0-2.0,,,,delaylearn,learning,feedback_duration_window,OLgTOfduCbeQBT1tohG62B5PW872,OLgTOfduCbeQBT1tohG62B5PW872,,,,,,,,,,,,,,,,,,7000.0,,,,5f69c62d0bda08020d07c27e,09:06:02,27/02/2024
html-keyboard-response,89,163954,0.0-38.0-3.0,,<div style='margin:auto;width: auto; font-size: 150%'><span style='font-weight: bold; font-size: 100px; color: red;'>0 points!</span><br><br></div>,,delaylearn,learning,feedback_image_window,OLgTOfduCbeQBT1tohG62B5PW872,OLgTOfduCbeQBT1tohG62B5PW872,,,,,,,,,,,,,,,,,,,,,,5f69c62d0bda08020d07c27e,09:06:02,27/02/2024
html-keyboard-response,90,165608,0.0-39.0,,"<div style=""font-size:100px;"">+</div>",,delaylearn,learning,ITI,OLgTOfduCbeQBT1tohG62B5PW872,OLgTOfduCbeQBT1tohG62B5PW872,,,,,,,,,,,,,,,,,,,1646.0,,,5f69c62d0bda08020d07c27e,09:06:02,27/02/2024
html-keyboard-response,91,167018,0.0-40.0-0.0,1406.699999988079,"<div style=""display: flex; flex-direction: column; align-items: center; margin-top: -40px;""><img src=""images/pattern_7.png"" style=""width: 234px; height: 230px; margin-top: -50px;""><div style=""display: flex; justify-content: space-between; margin-top: 33px;""><img src=""images/choice_trial_8.png"" style=""width: 408px; height: 417px; margin-right: 200px;""><img src=""images/choice_trial_15.png"" style=""width: 408px; height: 417px;""></div></div>",j,delaylearn,learning,trial,OLgTOfduCbeQBT1tohG62B5PW872,OLgTOfduCbeQBT1tohG62B5PW872,2.0,images/choice_trial_8.png,images/choice_trial_15.png,images/pattern_7.png,j,f,750.0,8.0,15.0,6.0,0.0,17.0,0.0,1.0,15.0,110.0,,,,,,5f69c62d0bda08020d07c27e,09:06:02,27/02/2024
html-keyboard-response,92,168025,0.0-40.0-1.0,,"<div style=""display: flex; flex-direction: column; align-items: center; margin-top: -40px;""><img src=""images/pattern_7.png"" style=""width: 234px; height: 230px; margin-top: -50px;""><div style=""display: flex; justify-content: space-between; margin-top: 33px;""><img src=""images/choice_trial_15.png"" style=""width: 408px; height: 417px; margin-left:608px;""></div></div>",,delaylearn,learning,display_response,OLgTOfduCbeQBT1tohG62B5PW872,OLgTOfduCbeQBT1tohG62B5PW872,,,,,,,,,,,,,,,,,chosen stimuli: images/choice_trial_15.png,,,,,5f69c62d0bda08020d07c27e,09:06:02,27/02/2024
html-keyboard-response,93,168779,0.0-40.0-2.0,,,,delaylearn,learning,feedback_duration_window,OLgTOfduCbeQBT1tohG62B5PW872,OLgTOfduCbeQBT1tohG62B5PW872,,,,,,,,,,,,,,,,,,750.0,,,,5f69c62d0bda08020d07c27e,09:06:02,27/02/2024
html-keyboard-response,94,170286,0.0-40.0-3.0,,<div style='margin:auto;width: auto; font-size: 150%'><span style='font-weight: bold; font-size: 100px; color: green;'>+10 points!</span><br><br></div>,,delaylearn,learning,feedback_image_window,OLgTOfduCbeQBT1tohG62B5PW872,OLgTOfduCbeQBT1tohG62B5PW872,,,,,,,,,,,,,,,,,,,,,,5f69c62d0bda08020d07c27e,09:06:02,27/02/2024
html-keyboard-response,95,172640,0.0-41.0,,"<div style=""font-size:100px;"">+</div>",,delaylearn,learning,ITI,OLgTOfduCbeQBT1tohG62B5PW872,OLgTOfduCbeQBT1tohG62B5PW872,,,,,,,,,,,,,,,,,,,2347.0,,,5f69c62d0bda08020d07c27e,09:06:02,27/02/2024
html-keyboard-response,96,173173,0.0-42.0-0.0,528.5999999940395,"<div style=""display: flex; flex-direction: column; align-items: center; margin-top: -40px;""><img src=""images/pattern_1.png"" style=""width: 234px; height: 230px; margin-top: -50px;""><div style=""display: flex; justify-content: space-between; margin-top: 33px;""><img src=""images/choice_trial_3.png"" style=""width: 408px; height: 417px; margin-right: 200px;""><img src=""images/choice_trial_10.png"" style=""width: 408px; height: 417px;""></div></div>",f,delaylearn,learning,trial,OLgTOfduCbeQBT1tohG62B5PW872,OLgTOfduCbeQBT1tohG62B5PW872,2.0,images/choice_trial_3.png,images/choice_trial_10.png,images/pattern_1.png,f,f,7000.0,3.0,10.0,1.0,0.0,18.0,1.0,1.0,3.0,120.0,,,,,,5f69c62d0bda08020d07c27e,09:06:02,27/02/2024
html-keyboard-response,97,174177,0.0-42.0-1.0,,"<div style=""display: flex; flex-direction: column; align-items: center; margin-top: -40px;""><img src=""images/pattern_1.png"" style=""width: 234px; height: 230px; margin-top: -50px;""><div style=""display: flex; justify-content: space-between; margin-top: 33px;""><img src=""images/choice_trial_3.png"" style=""width: 408px; height: 417px; margin-right: 608px;""></div></div>",,delaylearn,learning,display_response,OLgTOfduCbeQBT1tohG62B5PW872,OLgTOfduCbeQBT1tohG62B5PW872,,,,,,,,,,,,,,,,,chosen stimuli: images/choice_trial_3.png,,,,,5f69c62d0bda08020d07c27e,09:06:02,27/02/2024
html-keyboard-response,98,181184,0.0-42.0-2.0,,,,delaylearn,learning,feedback_duration_window,OLgTOfduCbeQBT1tohG62B5PW872,OLgTOfduCbeQBT1tohG62B5PW872,,,,,,,,,,,,,,,,,,7000.0,,,,5f69c62d0bda08020d07c27e,09:06:02,27/02/2024
html-keyboard-response,99,182692,0.0-42.0-3.0,,<div style='margin:auto;width: auto; font-size: 150%'><span style='font-weight: bold; font-size: 100px; color: green;'>+10 points!</span><br><br></div>,,delaylearn,learning,feedback_image_window,OLgTOfduCbeQBT1tohG62B5PW872,OLgTOfduCbeQBT1tohG62B5PW872,,,,,,,,,,,,,,,,,,,,,,5f69c62d0bda08020d07c27e,09:06:02,27/02/2024
html-keyboard-response,100,184604,0.0-43.0,,"<div style=""font-size:100px;"">+</div>",,delaylearn,learning,ITI,OLgTOfduCbeQBT1tohG62B5PW872,OLgTOfduCbeQBT1tohG62B5PW872,,,,,,,,,,,,,,,,,,,1910.0,,,5f69c62d0bda08020d07c27e,09:06:02,27/02/2024
html-keyboard-response,101,185158,0.0-44.0-0.0,549.7999999970198,"<div style=""display: flex; flex-direction: column; align-items: center; margin-top: -40px;""><img src=""images/pattern_6.png"" style=""width: 234px; height: 230px; margin-top: -50px;""><div style=""display: flex; justify-content: space-between; margin-top: 33px;""><img src=""images/choice_trial_5.png"" style=""width: 408px; height: 417px; margin-right: 200px;""><img src=""images/choice_trial_11.png"" style=""width: 408px; height: 417px;""></div></div>",f,delaylearn,learning,trial,OLgTOfduCbeQBT1tohG62B5PW872,OLgTOfduCbeQBT1tohG62B5PW872,2.0,images/choice_trial_5.png,images/choice_trial_11.png,images/pattern_6.png,j,j,750.0,5.0,11.0,5.0,1.0,19.0,0.0,0.0,5.0,120.0,,,,,,5f69c62d0bda08020d07c27e,09:06:02,27/02/2024
html-keyboard-response,102,186162,0.0-44.0-1.0,,"<div style=""display: flex; flex-direction: column; align-items: center; margin-top: -40px;""><img src=""images/pattern_6.png"" style=""width: 234px; height: 230px; margin-top: -50px;""><div style=""display: flex; justify-content: space-between; margin-top: 33px;""><img src=""images/choice_trial_5.png"" style=""width: 408px; height: 417px; margin-right: 608px;""></div></div>",,delaylearn,learning,display_response,OLgTOfduCbeQBT1tohG62B5PW872,OLgTOfduCbeQBT1tohG62B5PW872,,,,,,,,,,,,,,,,,chosen stimuli: images/choice_trial_5.png,,,,,5f69c62d0bda08020d07c27e,09:06:02,27/02/2024
html-keyboard-response,103,186915,0.0-44.0-2.0,,,,delaylearn,learning,feedback_duration_window,OLgTOfduCbeQBT1tohG62B5PW872,OLgTOfduCbeQBT1tohG62B5PW872,,,,,,,,,,,,,,,,,,750.0,,,,5f69c62d0bda08020d07c27e,09:06:02,27/02/2024
html-keyboard-response,104,188423,0.0-44.0-3.0,,<div style='margin:auto;width: auto; font-size: 150%'><span style='font-weight: bold; font-size: 100px; color: red;'>0 points!</span><br><br></div>,,delaylearn,learning,feedback_image_window,OLgTOfduCbeQBT1tohG62B5PW872,OLgTOfduCbeQBT1tohG62B5PW872,,,,,,,,,,,,,,,,,,,,,,5f69c62d0bda08020d07c27e,09:06:02,27/02/2024
html-keyboard-response,105,190516,0.0-45.0,,"<div style=""font-size:100px;"">+</div>",,delaylearn,learning,ITI,OLgTOfduCbeQBT1tohG62B5PW872,OLgTOfduCbeQBT1tohG62B5PW872,,,,,,,,,,,,,,,,,,,2089.0,,,5f69c62d0bda08020d07c27e,09:06:02,27/02/2024
html-keyboard-response,106,190884,0.0-46.0-0.0,363.80000001192093,"<div style=""display: flex; flex-direction: column; align-items: center; margin-top: -40px;""><img src=""images/pattern_4.png"" style=""width: 234px; height: 230px; margin-top: -50px;""><div style=""display: flex; justify-content: space-between; margin-top: 33px;""><img src=""images/choice_trial_4.png"" style=""width: 408px; height: 417px; margin-right: 200px;""><img src=""images/choice_trial_16.png"" style=""width: 408px; height: 417px;""></div></div>",j,delaylearn,learning,trial,OLgTOfduCbeQBT1tohG62B5PW872,OLgTOfduCbeQBT1tohG62B5PW872,2.0,images/choice_trial_4.png,images/choice_trial_16.png,images/pattern_4.png,f,f,7000.0,4.0,16.0,3.0,0.0,20.0,0.0,0.0,16.0,120.0,,,,,,5f69c62d0bda08020d07c27e,09:06:02,27/02/2024
html-keyboard-response,107,191892,0.0-46.0-1.0,,"<div style=""display: flex; flex-direction: column; align-items: center; margin-top: -40px;""><img src=""images/pattern_4.png"" style=""width: 234px; height: 230px; margin-top: -50px;""><div style=""display: flex; justify-content: space-between; margin-top: 33px;""><img src=""images/choice_trial_16.png"" style=""width: 408px; height: 417px; margin-left:608px;""></div></div>",,delaylearn,learning,display_response,OLgTOfduCbeQBT1tohG62B5PW872,OLgTOfduCbeQBT1tohG62B5PW872,,,,,,,,,,,,,,,,,chosen stimuli: images/choice_trial_16.png,,,,,5f69c62d0bda08020d07c27e,09:06:02,27/02/2024
html-keyboard-response,108,198894,0.0-46.0-2.0,,,,delaylearn,learning,feedback_duration_window,OLgTOfduCbeQBT1tohG62B5PW872,OLgTOfduCbeQBT1tohG62B5PW872,,,,,,,,,,,,,,,,,,7000.0,,,,5f69c62d0bda08020d07c27e,09:06:02,27/02/2024
html-keyboard-response,109,200398,0.0-46.0-3.0,,<div style='margin:auto;width: auto; font-size: 150%'><span style='font-weight: bold; font-size: 100px; color: red;'>0 points!</span><br><br></div>,,delaylearn,learning,feedback_image_window,OLgTOfduCbeQBT1tohG62B5PW872,OLgTOfduCbeQBT1tohG62B5PW872,,,,,,,,,,,,,,,,,,,,,,5f69c62d0bda08020d07c27e,09:06:02,27/02/2024
html-keyboard-response,110,200902,0.0-47.0-0.0,,,,,,mood_trial_fixation,OLgTOfduCbeQBT1tohG62B5PW872,,,,,,,,,,,,,,,,,,,,,,,5f69c62d0bda08020d07c27e,09:06:02,27/02/2024
lmdlab-html-vas-response,111,205937,0.0-47.0-1.0,4024.0,How happy are you right now?,0.6222222222222222,delaylearn,learning,mood_trial,OLgTOfduCbeQBT1tohG62B5PW872,OLgTOfduCbeQBT1tohG62B5PW872,,,,,,,,,,,,,,,,,,,,"['Very unhappy', 'Very happy']",,5f69c62d0bda08020d07c27e,09:06:02,27/02/2024
html-keyboard-response,112,207959,0.0-48.0,,"<div style=""font-size:100px;"">+</div>",,delaylearn,learning,ITI,OLgTOfduCbeQBT1tohG62B5PW872,OLgTOfduCbeQBT1tohG62B5PW872,,,,,,,,,,,,,,,,,,,2017.0,,,5f69c62d0bda08020d07c27e,09:06:02,27/02/2024
html-keyboard-response,113,209443,0.0-49.0-0.0,1479.2000000029802,"<div style=""display: flex; flex-direction: column; align-items: center; margin-top: -40px;""><img src=""images/pattern_7.png"" style=""width: 234px; height: 230px; margin-top: -50px;""><div style=""display: flex; justify-content: space-between; margin-top: 33px;""><img src=""images/choice_trial_15.png"" style=""width: 408px; height: 417px; margin-right: 200px;""><img src=""images/choice_trial_8.png"" style=""width: 408px; height: 417px;""></div></div>",j,delaylearn,learning,trial,OLgTOfduCbeQBT1tohG62B5PW872,OLgTOfduCbeQBT1tohG62B5PW872,2.0,images/choice_trial_15.png,images/choice_trial_8.png,images/pattern_7.png,j,j,750.0,15.0,8.0,6.0,1.0,21.0,1.0,1.0,8.0,130.0,,,,,,5f69c62d0bda08020d07c27e,09:06:02,27/02/2024
html-keyboard-response,114,210451,0.0-49.0-1.0,,"<div style=""display: flex; flex-direction: column; align-items: center; margin-top: -40px;""><img src=""images/pattern_7.png"" style=""width: 234px; height: 230px; margin-top: -50px;""><div style=""display: flex; justify-content: space-between; margin-top: 33px;""><img src=""images/choice_trial_8.png"" style=""width: 408px; height: 417px; margin-left:608px;""></div></div>",,delaylearn,learning,display_response,OLgTOfduCbeQBT1tohG62B5PW872,OLgTOfduCbeQBT1tohG62B5PW872,,,,,,,,,,,,,,,,,chosen stimuli: images/choice_trial_8.png,,,,,5f69c62d0bda08020d07c27e,09:06:02,27/02/2024
html-keyboard-response,115,211208,0.0-49.0-2.0,,,,delaylearn,learning,feedback_duration_window,OLgTOfduCbeQBT1tohG62B5PW872,OLgTOfduCbeQBT1tohG62B5PW872,,,,,,,,,,,,,,,,,,750.0,,,,5f69c62d0bda08020d07c27e,09:06:02,27/02/2024
html-keyboard-response,116,212714,0.0-49.0-3.0,,<div style='margin:auto;width: auto; font-size: 150%'><span style='font-weight: bold; font-size: 100px; color: green;'>+10 points!</span><br><br></div>,,delaylearn,learning,feedback_image_window,OLgTOfduCbeQBT1tohG62B5PW872,OLgTOfduCbeQBT1tohG62B5PW872,,,,,,,,,,,,,,,,,,,,,,5f69c62d0bda08020d07c27e,09:06:02,27/02/2024
html-keyboard-response,117,215139,0.0-50.0,,"<div style=""font-size:100px;"">+</div>",,delaylearn,learning,ITI,OLgTOfduCbeQBT1tohG62B5PW872,OLgTOfduCbeQBT1tohG62B5PW872,,,,,,,,,,,,,,,,,,,2418.0,,,5f69c62d0bda08020d07c27e,09:06:02,27/02/2024
html-keyboard-response,118,216699,0.0-51.0-0.0,1555.9000000059605,"<div style=""display: flex; flex-direction: column; align-items: center; margin-top: -40px;""><img src=""images/pattern_1.png"" style=""width: 234px; height: 230px; margin-top: -50px;""><div style=""display: flex; justify-content: space-between; margin-top: 33px;""><img src=""images/choice_trial_10.png"" style=""width: 408px; height: 417px; margin-right: 200px;""><img src=""images/choice_trial_3.png"" style=""width: 408px; height: 417px;""></div></div>",f,delaylearn,learning,trial,OLgTOfduCbeQBT1tohG62B5PW872,OLgTOfduCbeQBT1tohG62B5PW872,2.0,images/choice_trial_10.png,images/choice_trial_3.png,images/pattern_1.png,f,j,7000.0,10.0,3.0,1.0,1.0,22.0,0.0,1.0,10.0,140.0,,,,,,5f69c62d0bda08020d07c27e,09:06:02,27/02/2024
html-keyboard-response,119,217707,0.0-51.0-1.0,,"<div style=""display: flex; flex-direction: column; align-items: center; margin-top: -40px;""><img src=""images/pattern_1.png"" style=""width: 234px; height: 230px; margin-top: -50px;""><div style=""display: flex; justify-content: space-between; margin-top: 33px;""><img src=""images/choice_trial_10.png"" style=""width: 408px; height: 417px; margin-right: 608px;""></div></div>",,delaylearn,learning,display_response,OLgTOfduCbeQBT1tohG62B5PW872,OLgTOfduCbeQBT1tohG62B5PW872,,,,,,,,,,,,,,,,,chosen stimuli: images/choice_trial_10.png,,,,,5f69c62d0bda08020d07c27e,09:06:02,27/02/2024
html-keyboard-response,120,224711,0.0-51.0-2.0,,,,delaylearn,learning,feedback_duration_window,OLgTOfduCbeQBT1tohG62B5PW872,OLgTOfduCbeQBT1tohG62B5PW872,,,,,,,,,,,,,,,,,,7000.0,,,,5f69c62d0bda08020d07c27e,09:06:02,27/02/2024
html-keyboard-response,121,226219,0.0-51.0-3.0,,<div style='margin:auto;width: auto; font-size: 150%'><span style='font-weight: bold; font-size: 100px; color: green;'>+10 points!</span><br><br></div>,,delaylearn,learning,feedback_image_window,OLgTOfduCbeQBT1tohG62B5PW872,OLgTOfduCbeQBT1tohG62B5PW872,,,,,,,,,,,,,,,,,,,,,,5f69c62d0bda08020d07c27e,09:06:02,27/02/2024
html-keyboard-response,122,227989,0.0-52.0,,"<div style=""font-size:100px;"">+</div>",,delaylearn,learning,ITI,OLgTOfduCbeQBT1tohG62B5PW872,OLgTOfduCbeQBT1tohG62B5PW872,,,,,,,,,,,,,,,,,,,1763.0,,,5f69c62d0bda08020d07c27e,09:06:02,27/02/2024
html-keyboard-response,123,228589,0.0-53.0-0.0,595.2999999970198,"<div style=""display: flex; flex-direction: column; align-items: center; margin-top: -40px;""><img src=""images/pattern_5.png"" style=""width: 234px; height: 230px; margin-top: -50px;""><div style=""display: flex; justify-content: space-between; margin-top: 33px;""><img src=""images/choice_trial_9.png"" style=""width: 408px; height: 417px; margin-right: 200px;""><img src=""images/choice_trial_2.png"" style=""width: 408px; height: 417px;""></div></div>",f,delaylearn,learning,trial,OLgTOfduCbeQBT1tohG62B5PW872,OLgTOfduCbeQBT1tohG62B5PW872,2.0,images/choice_trial_9.png,images/choice_trial_2.png,images/pattern_5.png,j,j,750.0,9.0,2.0,4.0,1.0,23.0,0.0,0.0,9.0,140.0,,,,,,5f69c62d0bda08020d07c27e,09:06:02,27/02/2024
html-keyboard-response,124,229597,0.0-53.0-1.0,,"<div style=""display: flex; flex-direction: column; align-items: center; margin-top: -40px;""><img src=""images/pattern_5.png"" style=""width: 234px; height: 230px; margin-top: -50px;""><div style=""display: flex; justify-content: space-between; margin-top: 33px;""><img src=""images/choice_trial_9.png"" style=""width: 408px; height: 417px; margin-right: 608px;""></div></div>",,delaylearn,learning,display_response,OLgTOfduCbeQBT1tohG62B5PW872,OLgTOfduCbeQBT1tohG62B5PW872,,,,,,,,,,,,,,,,,chosen stimuli: images/choice_trial_9.png,,,,,5f69c62d0bda08020d07c27e,09:06:02,27/02/2024
html-keyboard-response,125,230354,0.0-53.0-2.0,,,,delaylearn,learning,feedback_duration_window,OLgTOfduCbeQBT1tohG62B5PW872,OLgTOfduCbeQBT1tohG62B5PW872,,,,,,,,,,,,,,,,,,750.0,,,,5f69c62d0bda08020d07c27e,09:06:02,27/02/2024
html-keyboard-response,126,231862,0.0-53.0-3.0,,<div style='margin:auto;width: auto; font-size: 150%'><span style='font-weight: bold; font-size: 100px; color: red;'>0 points!</span><br><br></div>,,delaylearn,learning,feedback_image_window,OLgTOfduCbeQBT1tohG62B5PW872,OLgTOfduCbeQBT1tohG62B5PW872,,,,,,,,,,,,,,,,,,,,,,5f69c62d0bda08020d07c27e,09:06:02,27/02/2024
html-keyboard-response,127,234027,0.0-54.0,,"<div style=""font-size:100px;"">+</div>",,delaylearn,learning,ITI,OLgTOfduCbeQBT1tohG62B5PW872,OLgTOfduCbeQBT1tohG62B5PW872,,,,,,,,,,,,,,,,,,,2161.0,,,5f69c62d0bda08020d07c27e,09:06:02,27/02/2024
html-keyboard-response,128,234807,0.0-55.0-0.0,776.3999999910593,"<div style=""display: flex; flex-direction: column; align-items: center; margin-top: -40px;""><img src=""images/pattern_3.png"" style=""width: 234px; height: 230px; margin-top: -50px;""><div style=""display: flex; justify-content: space-between; margin-top: 33px;""><img src=""images/choice_trial_14.png"" style=""width: 408px; height: 417px; margin-right: 200px;""><img src=""images/choice_trial_12.png"" style=""width: 408px; height: 417px;""></div></div>",j,delaylearn,learning,trial,OLgTOfduCbeQBT1tohG62B5PW872,OLgTOfduCbeQBT1tohG62B5PW872,2.0,images/choice_trial_14.png,images/choice_trial_12.png,images/pattern_3.png,j,j,7000.0,14.0,12.0,2.0,1.0,24.0,1.0,1.0,12.0,150.0,,,,,,5f69c62d0bda08020d07c27e,09:06:02,27/02/2024
html-keyboard-response,129,235815,0.0-55.0-1.0,,"<div style=""display: flex; flex-direction: column; align-items: center; margin-top: -40px;""><img src=""images/pattern_3.png"" style=""width: 234px; height: 230px; margin-top: -50px;""><div style=""display: flex; justify-content: space-between; margin-top: 33px;""><img src=""images/choice_trial_12.png"" style=""width: 408px; height: 417px; margin-left:608px;""></div></div>",,delaylearn,learning,display_response,OLgTOfduCbeQBT1tohG62B5PW872,OLgTOfduCbeQBT1tohG62B5PW872,,,,,,,,,,,,,,,,,chosen stimuli: images/choice_trial_12.png,,,,,5f69c62d0bda08020d07c27e,09:06:02,27/02/2024
html-keyboard-response,130,242822,0.0-55.0-2.0,,,,delaylearn,learning,feedback_duration_window,OLgTOfduCbeQBT1tohG62B5PW872,OLgTOfduCbeQBT1tohG62B5PW872,,,,,,,,,,,,,,,,,,7000.0,,,,5f69c62d0bda08020d07c27e,09:06:02,27/02/2024
html-keyboard-response,131,244330,0.0-55.0-3.0,,<div style='margin:auto;width: auto; font-size: 150%'><span style='font-weight: bold; font-size: 100px; color: green;'>+10 points!</span><br><br></div>,,delaylearn,learning,feedback_image_window,OLgTOfduCbeQBT1tohG62B5PW872,OLgTOfduCbeQBT1tohG62B5PW872,,,,,,,,,,,,,,,,,,,,,,5f69c62d0bda08020d07c27e,09:06:02,27/02/2024
lmdlab-html-vas-response,132,250391,0.0-56.0-0.0,4546.0,*How <b><u>confident</u></b> are you feeling about your answers at this moment?*,0.3592592592592593,rewlearn,rate_confidence,,OLgTOfduCbeQBT1tohG62B5PW872,OLgTOfduCbeQBT1tohG62B5PW872,,,,,,,,,,,,,,,,,,,,"['No confidence', 'Complete confidence']",,5f69c62d0bda08020d07c27e,09:06:02,27/02/2024
lmdlab-rest-trial-limit,133,266090,0.0-56.0-1.0,14191.10000000894,"<div style=""font-size:40px;""><b>Please take a break!</b><br><br><br><br><p>Great work: you earned undefined points.<br><br><br><p>You have completed part(s) 1 of 6.<br><br><br><br>When you are ready to continue<br><br><br>please click the button.</p><br><br>",0,delaylearn,learning,break,OLgTOfduCbeQBT1tohG62B5PW872,OLgTOfduCbeQBT1tohG62B5PW872,,,,,,,,,,,,,,,,,,,,,0.0,5f69c62d0bda08020d07c27e,09:06:02,27/02/2024
html-keyboard-response,134,269098,0.0-56.0-2.0,,"<div style=""font-size:100px;"">+</div>",,delaylearn,learning,pre_fixation,OLgTOfduCbeQBT1tohG62B5PW872,,,,,,,,,,,,,,,,,,,,,,,5f69c62d0bda08020d07c27e,09:06:02,27/02/2024
lmdlab-html-vas-response,135,272636,0.0-56.0-3.0-0.0,2531.0,How happy are you right now?,0.5777777777777777,delaylearn,learning,mood_baseline,OLgTOfduCbeQBT1tohG62B5PW872,OLgTOfduCbeQBT1tohG62B5PW872,,,,,,,,,,,,,,,,,,,,"['Very unhappy', 'Very happy']",,5f69c62d0bda08020d07c27e,09:06:02,27/02/2024
html-keyboard-response,136,274139,0.0-56.0-3.0-1.0,,,,,,mood_baseline_fixation,OLgTOfduCbeQBT1tohG62B5PW872,,,,,,,,,,,,,,,,,,,,,,,5f69c62d0bda08020d07c27e,09:06:02,27/02/2024
html-keyboard-response,137,276046,0.0-57.0,,"<div style=""font-size:100px;"">+</div>",,delaylearn,learning,ITI,OLgTOfduCbeQBT1tohG62B5PW872,OLgTOfduCbeQBT1tohG62B5PW872,,,,,,,,,,,,,,,,,,,1901.0,,,5f69c62d0bda08020d07c27e,09:06:02,27/02/2024
html-keyboard-response,138,277012,0.0-58.0-0.0,962.5999999940395,"<div style=""display: flex; flex-direction: column; align-items: center; margin-top: -40px;""><img src=""images/pattern_7.png"" style=""width: 234px; height: 230px; margin-top: -50px;""><div style=""display: flex; justify-content: space-between; margin-top: 33px;""><img src=""images/choice_trial_15.png"" style=""width: 408px; height: 417px; margin-right: 200px;""><img src=""images/choice_trial_8.png"" style=""width: 408px; height: 417px;""></div></div>",j,delaylearn,learning,trial,OLgTOfduCbeQBT1tohG62B5PW872,OLgTOfduCbeQBT1tohG62B5PW872,2.0,images/choice_trial_15.png,images/choice_trial_8.png,images/pattern_7.png,j,j,750.0,15.0,8.0,6.0,1.0,25.0,1.0,1.0,8.0,160.0,,,,,,5f69c62d0bda08020d07c27e,09:06:02,27/02/2024
html-keyboard-response,139,278018,0.0-58.0-1.0,,"<div style=""display: flex; flex-direction: column; align-items: center; margin-top: -40px;""><img src=""images/pattern_7.png"" style=""width: 234px; height: 230px; margin-top: -50px;""><div style=""display: flex; justify-content: space-between; margin-top: 33px;""><img src=""images/choice_trial_8.png"" style=""width: 408px; height: 417px; margin-left:608px;""></div></div>",,delaylearn,learning,display_response,OLgTOfduCbeQBT1tohG62B5PW872,OLgTOfduCbeQBT1tohG62B5PW872,,,,,,,,,,,,,,,,,chosen stimuli: images/choice_trial_8.png,,,,,5f69c62d0bda08020d07c27e,09:06:02,27/02/2024
html-keyboard-response,140,278775,0.0-58.0-2.0,,,,delaylearn,learning,feedback_duration_window,OLgTOfduCbeQBT1tohG62B5PW872,OLgTOfduCbeQBT1tohG62B5PW872,,,,,,,,,,,,,,,,,,750.0,,,,5f69c62d0bda08020d07c27e,09:06:02,27/02/2024
html-keyboard-response,141,280282,0.0-58.0-3.0,,<div style='margin:auto;width: auto; font-size: 150%'><span style='font-weight: bold; font-size: 100px; color: green;'>+10 points!</span><br><br></div>,,delaylearn,learning,feedback_image_window,OLgTOfduCbeQBT1tohG62B5PW872,OLgTOfduCbeQBT1tohG62B5PW872,,,,,,,,,,,,,,,,,,,,,,5f69c62d0bda08020d07c27e,09:06:02,27/02/2024
html-keyboard-response,142,280788,0.0-59.0-0.0,,,,,,mood_trial_fixation,OLgTOfduCbeQBT1tohG62B5PW872,,,,,,,,,,,,,,,,,,,,,,,5f69c62d0bda08020d07c27e,09:06:02,27/02/2024
lmdlab-html-vas-response,143,283937,0.0-59.0-1.0,2138.0,How happy are you right now?,0.5592592592592592,delaylearn,learning,mood_trial,OLgTOfduCbeQBT1tohG62B5PW872,OLgTOfduCbeQBT1tohG62B5PW872,,,,,,,,,,,,,,,,,,,,"['Very unhappy', 'Very happy']",,5f69c62d0bda08020d07c27e,09:06:02,27/02/2024
html-keyboard-response,144,286417,0.0-60.0,,"<div style=""font-size:100px;"">+</div>",,delaylearn,learning,ITI,OLgTOfduCbeQBT1tohG62B5PW872,OLgTOfduCbeQBT1tohG62B5PW872,,,,,,,,,,,,,,,,,,,2474.0,,,5f69c62d0bda08020d07c27e,09:06:02,27/02/2024
html-keyboard-response,145,287507,0.0-61.0-0.0,1086.0999999940395,"<div style=""display: flex; flex-direction: column; align-items: center; margin-top: -40px;""><img src=""images/pattern_1.png"" style=""width: 234px; height: 230px; margin-top: -50px;""><div style=""display: flex; justify-content: space-between; margin-top: 33px;""><img src=""images/choice_trial_3.png"" style=""width: 408px; height: 417px; margin-right: 200px;""><img src=""images/choice_trial_10.png"" style=""width: 408px; height: 417px;""></div></div>",f,delaylearn,learning,trial,OLgTOfduCbeQBT1tohG62B5PW872,OLgTOfduCbeQBT1tohG62B5PW872,2.0,images/choice_trial_3.png,images/choice_trial_10.png,images/pattern_1.png,f,f,7000.0,3.0,10.0,1.0,0.0,26.0,1.0,1.0,3.0,170.0,,,,,,5f69c62d0bda08020d07c27e,09:06:02,27/02/2024
html-keyboard-response,146,288510,0.0-61.0-1.0,,"<div style=""display: flex; flex-direction: column; align-items: center; margin-top: -40px;""><img src=""images/pattern_1.png"" style=""width: 234px; height: 230px; margin-top: -50px;""><div style=""display: flex; justify-content: space-between; margin-top: 33px;""><img src=""images/choice_trial_3.png"" style=""width: 408px; height: 417px; margin-right: 608px;""></div></div>",,delaylearn,learning,display_response,OLgTOfduCbeQBT1tohG62B5PW872,OLgTOfduCbeQBT1tohG62B5PW872,,,,,,,,,,,,,,,,,chosen stimuli: images/choice_trial_3.png,,,,,5f69c62d0bda08020d07c27e,09:06:02,27/02/2024
html-keyboard-response,147,295514,0.0-61.0-2.0,,,,delaylearn,learning,feedback_duration_window,OLgTOfduCbeQBT1tohG62B5PW872,OLgTOfduCbeQBT1tohG62B5PW872,,,,,,,,,,,,,,,,,,7000.0,,,,5f69c62d0bda08020d07c27e,09:06:02,27/02/2024
html-keyboard-response,148,297022,0.0-61.0-3.0,,<div style='margin:auto;width: auto; font-size: 150%'><span style='font-weight: bold; font-size: 100px; color: green;'>+10 points!</span><br><br></div>,,delaylearn,learning,feedback_image_window,OLgTOfduCbeQBT1tohG62B5PW872,OLgTOfduCbeQBT1tohG62B5PW872,,,,,,,,,,,,,,,,,,,,,,5f69c62d0bda08020d07c27e,09:06:02,27/02/2024
html-keyboard-response,149,299262,0.0-62.0,,"<div style=""font-size:100px;"">+</div>",,delaylearn,learning,ITI,OLgTOfduCbeQBT1tohG62B5PW872,OLgTOfduCbeQBT1tohG62B5PW872,,,,,,,,,,,,,,,,,,,2234.0,,,5f69c62d0bda08020d07c27e,09:06:02,27/02/2024
html-keyboard-response,150,300462,0.0-63.0-0.0,1195.3999999910593,"<div style=""display: flex; flex-direction: column; align-items: center; margin-top: -40px;""><img src=""images/pattern_5.png"" style=""width: 234px; height: 230px; margin-top: -50px;""><div style=""display: flex; justify-content: space-between; margin-top: 33px;""><img src=""images/choice_trial_2.png"" style=""width: 408px; height: 417px; margin-right: 200px;""><img src=""images/choice_trial_9.png"" style=""width: 408px; height: 417px;""></div></div>",j,delaylearn,learning,trial,OLgTOfduCbeQBT1tohG62B5PW872,OLgTOfduCbeQBT1tohG62B5PW872,2.0,images/choice_trial_2.png,images/choice_trial_9.png,images/pattern_5.png,f,f,750.0,2.0,9.0,4.0,0.0,27.0,0.0,0.0,9.0,170.0,,,,,,5f69c62d0bda08020d07c27e,09:06:02,27/02/2024
html-keyboard-response,151,301470,0.0-63.0-1.0,,"<div style=""display: flex; flex-direction: column; align-items: center; margin-top: -40px;""><img src=""images/pattern_5.png"" style=""width: 234px; height: 230px; margin-top: -50px;""><div style=""display: flex; justify-content: space-between; margin-top: 33px;""><img src=""images/choice_trial_9.png"" style=""width: 408px; height: 417px; margin-left:608px;""></div></div>",,delaylearn,learning,display_response,OLgTOfduCbeQBT1tohG62B5PW872,OLgTOfduCbeQBT1tohG62B5PW872,,,,,,,,,,,,,,,,,chosen stimuli: images/choice_trial_9.png,,,,,5f69c62d0bda08020d07c27e,09:06:02,27/02/2024
html-keyboard-response,152,302226,0.0-63.0-2.0,,,,delaylearn,learning,feedback_duration_window,OLgTOfduCbeQBT1tohG62B5PW872,OLgTOfduCbeQBT1tohG62B5PW872,,,,,,,,,,,,,,,,,,750.0,,,,5f69c62d0bda08020d07c27e,09:06:02,27/02/2024
html-keyboard-response,153,303731,0.0-63.0-3.0,,<div style='margin:auto;width: auto; font-size: 150%'><span style='font-weight: bold; font-size: 100px; color: red;'>0 points!</span><br><br></div>,,delaylearn,learning,feedback_image_window,OLgTOfduCbeQBT1tohG62B5PW872,OLgTOfduCbeQBT1tohG62B5PW872,,,,,,,,,,,,,,,,,,,,,,5f69c62d0bda08020d07c27e,09:06:02,27/02/2024
html-keyboard-response,154,305965,0.0-64.0,,"<div style=""font-size:100px;"">+</div>",,delaylearn,learning,ITI,OLgTOfduCbeQBT1tohG62B5PW872,OLgTOfduCbeQBT1tohG62B5PW872,,,,,,,,,,,,,,,,,,,2226.0,,,5f69c62d0bda08020d07c27e,09:06:02,27/02/2024
html-keyboard-response,155,307151,0.0-65.0-0.0,1182.3999999910593,"<div style=""display: flex; flex-direction: column; align-items: center; margin-top: -40px;""><img src=""images/pattern_6.png"" style=""width: 234px; height: 230px; margin-top: -50px;""><div style=""display: flex; justify-content: space-between; margin-top: 33px;""><img src=""images/choice_trial_5.png"" style=""width: 408px; height: 417px; margin-right: 200px;""><img src=""images/choice_trial_11.png"" style=""width: 408px; height: 417px;""></div></div>",f,delaylearn,learning,trial,OLgTOfduCbeQBT1tohG62B5PW872,OLgTOfduCbeQBT1tohG62B5PW872,2.0,images/choice_trial_5.png,images/choice_trial_11.png,images/pattern_6.png,j,j,750.0,5.0,11.0,5.0,1.0,28.0,0.0,0.0,5.0,170.0,,,,,,5f69c62d0bda08020d07c27e,09:06:02,27/02/2024
html-keyboard-response,156,308158,0.0-65.0-1.0,,"<div style=""display: flex; flex-direction: column; align-items: center; margin-top: -40px;""><img src=""images/pattern_6.png"" style=""width: 234px; height: 230px; margin-top: -50px;""><div style=""display: flex; justify-content: space-between; margin-top: 33px;""><img src=""images/choice_trial_5.png"" style=""width: 408px; height: 417px; margin-right: 608px;""></div></div>",,delaylearn,learning,display_response,OLgTOfduCbeQBT1tohG62B5PW872,OLgTOfduCbeQBT1tohG62B5PW872,,,,,,,,,,,,,,,,,chosen stimuli: images/choice_trial_5.png,,,,,5f69c62d0bda08020d07c27e,09:06:02,27/02/2024
html-keyboard-response,157,308910,0.0-65.0-2.0,,,,delaylearn,learning,feedback_duration_window,OLgTOfduCbeQBT1tohG62B5PW872,OLgTOfduCbeQBT1tohG62B5PW872,,,,,,,,,,,,,,,,,,750.0,,,,5f69c62d0bda08020d07c27e,09:06:02,27/02/2024
html-keyboard-response,158,310418,0.0-65.0-3.0,,<div style='margin:auto;width: auto; font-size: 150%'><span style='font-weight: bold; font-size: 100px; color: red;'>0 points!</span><br><br></div>,,delaylearn,learning,feedback_image_window,OLgTOfduCbeQBT1tohG62B5PW872,OLgTOfduCbeQBT1tohG62B5PW872,,,,,,,,,,,,,,,,,,,,,,5f69c62d0bda08020d07c27e,09:06:02,27/02/2024
html-keyboard-response,159,310923,0.0-66.0-0.0,,,,,,mood_trial_fixation,OLgTOfduCbeQBT1tohG62B5PW872,,,,,,,,,,,,,,,,,,,,,,,5f69c62d0bda08020d07c27e,09:06:02,27/02/2024
lmdlab-html-vas-response,160,313935,0.0-66.0-1.0,2003.0,How happy are you right now?,0.6777777777777778,delaylearn,learning,mood_trial,OLgTOfduCbeQBT1tohG62B5PW872,OLgTOfduCbeQBT1tohG62B5PW872,,,,,,,,,,,,,,,,,,,,"['Very unhappy', 'Very happy']",,5f69c62d0bda08020d07c27e,09:06:02,27/02/2024
html-keyboard-response,161,315562,0.0-67.0,,"<div style=""font-size:100px;"">+</div>",,delaylearn,learning,ITI,OLgTOfduCbeQBT1tohG62B5PW872,OLgTOfduCbeQBT1tohG62B5PW872,,,,,,,,,,,,,,,,,,,1620.0,,,5f69c62d0bda08020d07c27e,09:06:02,27/02/2024
html-keyboard-response,162,317344,0.0-68.0-0.0,1777.4000000059605,"<div style=""display: flex; flex-direction: column; align-items: center; margin-top: -40px;""><img src=""images/pattern_4.png"" style=""width: 234px; height: 230px; margin-top: -50px;""><div style=""display: flex; justify-content: space-between; margin-top: 33px;""><img src=""images/choice_trial_16.png"" style=""width: 408px; height: 417px; margin-right: 200px;""><img src=""images/choice_trial_4.png"" style=""width: 408px; height: 417px;""></div></div>",j,delaylearn,learning,trial,OLgTOfduCbeQBT1tohG62B5PW872,OLgTOfduCbeQBT1tohG62B5PW872,2.0,images/choice_trial_16.png,images/choice_trial_4.png,images/pattern_4.png,j,j,7000.0,16.0,4.0,3.0,1.0,29.0,1.0,1.0,4.0,180.0,,,,,,5f69c62d0bda08020d07c27e,09:06:02,27/02/2024
html-keyboard-response,163,318349,0.0-68.0-1.0,,"<div style=""display: flex; flex-direction: column; align-items: center; margin-top: -40px;""><img src=""images/pattern_4.png"" style=""width: 234px; height: 230px; margin-top: -50px;""><div style=""display: flex; justify-content: space-between; margin-top: 33px;""><img src=""images/choice_trial_4.png"" style=""width: 408px; height: 417px; margin-left:608px;""></div></div>",,delaylearn,learning,display_response,OLgTOfduCbeQBT1tohG62B5PW872,OLgTOfduCbeQBT1tohG62B5PW872,,,,,,,,,,,,,,,,,chosen stimuli: images/choice_trial_4.png,,,,,5f69c62d0bda08020d07c27e,09:06:02,27/02/2024
html-keyboard-response,164,325355,0.0-68.0-2.0,,,,delaylearn,learning,feedback_duration_window,OLgTOfduCbeQBT1tohG62B5PW872,OLgTOfduCbeQBT1tohG62B5PW872,,,,,,,,,,,,,,,,,,7000.0,,,,5f69c62d0bda08020d07c27e,09:06:02,27/02/2024
html-keyboard-response,165,326862,0.0-68.0-3.0,,<div style='margin:auto;width: auto; font-size: 150%'><span style='font-weight: bold; font-size: 100px; color: green;'>+10 points!</span><br><br></div>,,delaylearn,learning,feedback_image_window,OLgTOfduCbeQBT1tohG62B5PW872,OLgTOfduCbeQBT1tohG62B5PW872,,,,,,,,,,,,,,,,,,,,,,5f69c62d0bda08020d07c27e,09:06:02,27/02/2024
html-keyboard-response,166,329068,0.0-69.0,,"<div style=""font-size:100px;"">+</div>",,delaylearn,learning,ITI,OLgTOfduCbeQBT1tohG62B5PW872,OLgTOfduCbeQBT1tohG62B5PW872,,,,,,,,,,,,,,,,,,,2203.0,,,5f69c62d0bda08020d07c27e,09:06:02,27/02/2024
html-keyboard-response,167,331430,0.0-70.0-0.0,2357.8999999910593,"<div style=""display: flex; flex-direction: column; align-items: center; margin-top: -40px;""><img src=""images/pattern_3.png"" style=""width: 234px; height: 230px; margin-top: -50px;""><div style=""display: flex; justify-content: space-between; margin-top: 33px;""><img src=""images/choice_trial_14.png"" style=""width: 408px; height: 417px; margin-right: 200px;""><img src=""images/choice_trial_12.png"" style=""width: 408px; height: 417px;""></div></div>",f,delaylearn,learning,trial,OLgTOfduCbeQBT1tohG62B5PW872,OLgTOfduCbeQBT1tohG62B5PW872,2.0,images/choice_trial_14.png,images/choice_trial_12.png,images/pattern_3.png,j,j,7000.0,14.0,12.0,2.0,1.0,30.0,0.0,0.0,14.0,180.0,,,,,,5f69c62d0bda08020d07c27e,09:06:02,27/02/2024
html-keyboard-response,168,332436,0.0-70.0-1.0,,"<div style=""display: flex; flex-direction: column; align-items: center; margin-top: -40px;""><img src=""images/pattern_3.png"" style=""width: 234px; height: 230px; margin-top: -50px;""><div style=""display: flex; justify-content: space-between; margin-top: 33px;""><img src=""images/choice_trial_14.png"" style=""width: 408px; height: 417px; margin-right: 608px;""></div></div>",,delaylearn,learning,display_response,OLgTOfduCbeQBT1tohG62B5PW872,OLgTOfduCbeQBT1tohG62B5PW872,,,,,,,,,,,,,,,,,chosen stimuli: images/choice_trial_14.png,,,,,5f69c62d0bda08020d07c27e,09:06:02,27/02/2024
html-keyboard-response,169,339442,0.0-70.0-2.0,,,,delaylearn,learning,feedback_duration_window,OLgTOfduCbeQBT1tohG62B5PW872,OLgTOfduCbeQBT1tohG62B5PW872,,,,,,,,,,,,,,,,,,7000.0,,,,5f69c62d0bda08020d07c27e,09:06:02,27/02/2024
html-keyboard-response,170,340948,0.0-70.0-3.0,,<div style='margin:auto;width: auto; font-size: 150%'><span style='font-weight: bold; font-size: 100px; color: red;'>0 points!</span><br><br></div>,,delaylearn,learning,feedback_image_window,OLgTOfduCbeQBT1tohG62B5PW872,OLgTOfduCbeQBT1tohG62B5PW872,,,,,,,,,,,,,,,,,,,,,,5f69c62d0bda08020d07c27e,09:06:02,27/02/2024
html-keyboard-response,171,342552,0.0-71.0,,"<div style=""font-size:100px;"">+</div>",,delaylearn,learning,ITI,OLgTOfduCbeQBT1tohG62B5PW872,OLgTOfduCbeQBT1tohG62B5PW872,,,,,,,,,,,,,,,,,,,1599.0,,,5f69c62d0bda08020d07c27e,09:06:02,27/02/2024
html-keyboard-response,172,343976,0.0-72.0-0.0,1419.7000000029802,"<div style=""display: flex; flex-direction: column; align-items: center; margin-top: -40px;""><img src=""images/pattern_5.png"" style=""width: 234px; height: 230px; margin-top: -50px;""><div style=""display: flex; justify-content: space-between; margin-top: 33px;""><img src=""images/choice_trial_2.png"" style=""width: 408px; height: 417px; margin-right: 200px;""><img src=""images/choice_trial_9.png"" style=""width: 408px; height: 417px;""></div></div>",f,delaylearn,learning,trial,OLgTOfduCbeQBT1tohG62B5PW872,OLgTOfduCbeQBT1tohG62B5PW872,2.0,images/choice_trial_2.png,images/choice_trial_9.png,images/pattern_5.png,j,f,750.0,2.0,9.0,4.0,0.0,31.0,1.0,0.0,2.0,180.0,,,,,,5f69c62d0bda08020d07c27e,09:06:02,27/02/2024
html-keyboard-response,173,344983,0.0-72.0-1.0,,"<div style=""display: flex; flex-direction: column; align-items: center; margin-top: -40px;""><img src=""images/pattern_5.png"" style=""width: 234px; height: 230px; margin-top: -50px;""><div style=""display: flex; justify-content: space-between; margin-top: 33px;""><img src=""images/choice_trial_2.png"" style=""width: 408px; height: 417px; margin-right: 608px;""></div></div>",,delaylearn,learning,display_response,OLgTOfduCbeQBT1tohG62B5PW872,OLgTOfduCbeQBT1tohG62B5PW872,,,,,,,,,,,,,,,,,chosen stimuli: images/choice_trial_2.png,,,,,5f69c62d0bda08020d07c27e,09:06:02,27/02/2024
html-keyboard-response,174,345738,0.0-72.0-2.0,,,,delaylearn,learning,feedback_duration_window,OLgTOfduCbeQBT1tohG62B5PW872,OLgTOfduCbeQBT1tohG62B5PW872,,,,,,,,,,,,,,,,,,750.0,,,,5f69c62d0bda08020d07c27e,09:06:02,27/02/2024
html-keyboard-response,175,347244,0.0-72.0-3.0,,<div style='margin:auto;width: auto; font-size: 150%'><span style='font-weight: bold; font-size: 100px; color: red;'>0 points!</span><br><br></div>,,delaylearn,learning,feedback_image_window,OLgTOfduCbeQBT1tohG62B5PW872,OLgTOfduCbeQBT1tohG62B5PW872,,,,,,,,,,,,,,,,,,,,,,5f69c62d0bda08020d07c27e,09:06:02,27/02/2024
html-keyboard-response,176,349355,0.0-73.0,,"<div style=""font-size:100px;"">+</div>",,delaylearn,learning,ITI,OLgTOfduCbeQBT1tohG62B5PW872,OLgTOfduCbeQBT1tohG62B5PW872,,,,,,,,,,,,,,,,,,,2104.0,,,5f69c62d0bda08020d07c27e,09:06:02,27/02/2024
html-keyboard-response,177,349920,0.0-74.0-0.0,560.7000000029802,"<div style=""display: flex; flex-direction: column; align-items: center; margin-top: -40px;""><img src=""images/pattern_1.png"" style=""width: 234px; height: 230px; margin-top: -50px;""><div style=""display: flex; justify-content: space-between; margin-top: 33px;""><img src=""images/choice_trial_3.png"" style=""width: 408px; height: 417px; margin-right: 200px;""><img src=""images/choice_trial_10.png"" style=""width: 408px; height: 417px;""></div></div>",j,delaylearn,learning,trial,OLgTOfduCbeQBT1tohG62B5PW872,OLgTOfduCbeQBT1tohG62B5PW872,2.0,images/choice_trial_3.png,images/choice_trial_10.png,images/pattern_1.png,f,f,7000.0,3.0,10.0,1.0,0.0,32.0,0.0,0.0,10.0,180.0,,,,,,5f69c62d0bda08020d07c27e,09:06:02,27/02/2024
html-keyboard-response,178,350923,0.0-74.0-1.0,,"<div style=""display: flex; flex-direction: column; align-items: center; margin-top: -40px;""><img src=""images/pattern_1.png"" style=""width: 234px; height: 230px; margin-top: -50px;""><div style=""display: flex; justify-content: space-between; margin-top: 33px;""><img src=""images/choice_trial_10.png"" style=""width: 408px; height: 417px; margin-left:608px;""></div></div>",,delaylearn,learning,display_response,OLgTOfduCbeQBT1tohG62B5PW872,OLgTOfduCbeQBT1tohG62B5PW872,,,,,,,,,,,,,,,,,chosen stimuli: images/choice_trial_10.png,,,,,5f69c62d0bda08020d07c27e,09:06:02,27/02/2024
html-keyboard-response,179,357930,0.0-74.0-2.0,,,,delaylearn,learning,feedback_duration_window,OLgTOfduCbeQBT1tohG62B5PW872,OLgTOfduCbeQBT1tohG62B5PW872,,,,,,,,,,,,,,,,,,7000.0,,,,5f69c62d0bda08020d07c27e,09:06:02,27/02/2024
html-keyboard-response,180,359435,0.0-74.0-3.0,,<div style='margin:auto;width: auto; font-size: 150%'><span style='font-weight: bold; font-size: 100px; color: red;'>0 points!</span><br><br></div>,,delaylearn,learning,feedback_image_window,OLgTOfduCbeQBT1tohG62B5PW872,OLgTOfduCbeQBT1tohG62B5PW872,,,,,,,,,,,,,,,,,,,,,,5f69c62d0bda08020d07c27e,09:06:02,27/02/2024
html-keyboard-response,181,359939,0.0-75.0-0.0,,,,,,mood_trial_fixation,OLgTOfduCbeQBT1tohG62B5PW872,,,,,,,,,,,,,,,,,,,,,,,5f69c62d0bda08020d07c27e,09:06:02,27/02/2024
lmdlab-html-vas-response,182,363331,0.0-75.0-1.0,2383.0,How happy are you right now?,0.6259259259259259,delaylearn,learning,mood_trial,OLgTOfduCbeQBT1tohG62B5PW872,OLgTOfduCbeQBT1tohG62B5PW872,,,,,,,,,,,,,,,,,,,,"['Very unhappy', 'Very happy']",,5f69c62d0bda08020d07c27e,09:06:02,27/02/2024
html-keyboard-response,183,365090,0.0-76.0,,"<div style=""font-size:100px;"">+</div>",,delaylearn,learning,ITI,OLgTOfduCbeQBT1tohG62B5PW872,OLgTOfduCbeQBT1tohG62B5PW872,,,,,,,,,,,,,,,,,,,1752.0,,,5f69c62d0bda08020d07c27e,09:06:02,27/02/2024
html-keyboard-response,184,365757,0.0-77.0-0.0,663.3999999910593,"<div style=""display: flex; flex-direction: column; align-items: center; margin-top: -40px;""><img src=""images/pattern_6.png"" style=""width: 234px; height: 230px; margin-top: -50px;""><div style=""display: flex; justify-content: space-between; margin-top: 33px;""><img src=""images/choice_trial_11.png"" style=""width: 408px; height: 417px; margin-right: 200px;""><img src=""images/choice_trial_5.png"" style=""width: 408px; height: 417px;""></div></div>",f,delaylearn,learning,trial,OLgTOfduCbeQBT1tohG62B5PW872,OLgTOfduCbeQBT1tohG62B5PW872,2.0,images/choice_trial_11.png,images/choice_trial_5.png,images/pattern_6.png,j,f,750.0,11.0,5.0,5.0,0.0,33.0,1.0,0.0,11.0,180.0,,,,,,5f69c62d0bda08020d07c27e,09:06:02,27/02/2024
html-keyboard-response,185,366762,0.0-77.0-1.0,,"<div style=""display: flex; flex-direction: column; align-items: center; margin-top: -40px;""><img src=""images/pattern_6.png"" style=""width: 234px; height: 230px; margin-top: -50px;""><div style=""display: flex; justify-content: space-between; margin-top: 33px;""><img src=""images/choice_trial_11.png"" style=""width: 408px; height: 417px; margin-right: 608px;""></div></div>",,delaylearn,learning,display_response,OLgTOfduCbeQBT1tohG62B5PW872,OLgTOfduCbeQBT1tohG62B5PW872,,,,,,,,,,,,,,,,,chosen stimuli: images/choice_trial_11.png,,,,,5f69c62d0bda08020d07c27e,09:06:02,27/02/2024
html-keyboard-response,186,367520,0.0-77.0-2.0,,,,delaylearn,learning,feedback_duration_window,OLgTOfduCbeQBT1tohG62B5PW872,OLgTOfduCbeQBT1tohG62B5PW872,,,,,,,,,,,,,,,,,,750.0,,,,5f69c62d0bda08020d07c27e,09:06:02,27/02/2024
html-keyboard-response,187,369024,0.0-77.0-3.0,,<div style='margin:auto;width: auto; font-size: 150%'><span style='font-weight: bold; font-size: 100px; color: red;'>0 points!</span><br><br></div>,,delaylearn,learning,feedback_image_window,OLgTOfduCbeQBT1tohG62B5PW872,OLgTOfduCbeQBT1tohG62B5PW872,,,,,,,,,,,,,,,,,,,,,,5f69c62d0bda08020d07c27e,09:06:02,27/02/2024
html-keyboard-response,188,371453,0.0-78.0,,"<div style=""font-size:100px;"">+</div>",,delaylearn,learning,ITI,OLgTOfduCbeQBT1tohG62B5PW872,OLgTOfduCbeQBT1tohG62B5PW872,,,,,,,,,,,,,,,,,,,2426.0,,,5f69c62d0bda08020d07c27e,09:06:02,27/02/2024
html-keyboard-response,189,373323,0.0-79.0-0.0,1866.7000000029802,"<div style=""display: flex; flex-direction: column; align-items: center; margin-top: -40px;""><img src=""images/pattern_3.png"" style=""width: 234px; height: 230px; margin-top: -50px;""><div style=""display: flex; justify-content: space-between; margin-top: 33px;""><img src=""images/choice_trial_14.png"" style=""width: 408px; height: 417px; margin-right: 200px;""><img src=""images/choice_trial_12.png"" style=""width: 408px; height: 417px;""></div></div>",f,delaylearn,learning,trial,OLgTOfduCbeQBT1tohG62B5PW872,OLgTOfduCbeQBT1tohG62B5PW872,2.0,images/choice_trial_14.png,images/choice_trial_12.png,images/pattern_3.png,j,j,7000.0,14.0,12.0,2.0,1.0,34.0,0.0,0.0,14.0,180.0,,,,,,5f69c62d0bda08020d07c27e,09:06:02,27/02/2024
html-keyboard-response,190,374331,0.0-79.0-1.0,,"<div style=""display: flex; flex-direction: column; align-items: center; margin-top: -40px;""><img src=""images/pattern_3.png"" style=""width: 234px; height: 230px; margin-top: -50px;""><div style=""display: flex; justify-content: space-between; margin-top: 33px;""><img src=""images/choice_trial_14.png"" style=""width: 408px; height: 417px; margin-right: 608px;""></div></div>",,delaylearn,learning,display_response,OLgTOfduCbeQBT1tohG62B5PW872,OLgTOfduCbeQBT1tohG62B5PW872,,,,,,,,,,,,,,,,,chosen stimuli: images/choice_trial_14.png,,,,,5f69c62d0bda08020d07c27e,09:06:02,27/02/2024
html-keyboard-response,191,381338,0.0-79.0-2.0,,,,delaylearn,learning,feedback_duration_window,OLgTOfduCbeQBT1tohG62B5PW872,OLgTOfduCbeQBT1tohG62B5PW872,,,,,,,,,,,,,,,,,,7000.0,,,,5f69c62d0bda08020d07c27e,09:06:02,27/02/2024
html-keyboard-response,192,382846,0.0-79.0-3.0,,<div style='margin:auto;width: auto; font-size: 150%'><span style='font-weight: bold; font-size: 100px; color: red;'>0 points!</span><br><br></div>,,delaylearn,learning,feedback_image_window,OLgTOfduCbeQBT1tohG62B5PW872,OLgTOfduCbeQBT1tohG62B5PW872,,,,,,,,,,,,,,,,,,,,,,5f69c62d0bda08020d07c27e,09:06:02,27/02/2024
html-keyboard-response,193,385176,0.0-80.0,,"<div style=""font-size:100px;"">+</div>",,delaylearn,learning,ITI,OLgTOfduCbeQBT1tohG62B5PW872,OLgTOfduCbeQBT1tohG62B5PW872,,,,,,,,,,,,,,,,,,,2322.0,,,5f69c62d0bda08020d07c27e,09:06:02,27/02/2024
html-keyboard-response,194,387839,0.0-81.0-0.0,2659.0999999940395,"<div style=""display: flex; flex-direction: column; align-items: center; margin-top: -40px;""><img src=""images/pattern_4.png"" style=""width: 234px; height: 230px; margin-top: -50px;""><div style=""display: flex; justify-content: space-between; margin-top: 33px;""><img src=""images/choice_trial_16.png"" style=""width: 408px; height: 417px; margin-right: 200px;""><img src=""images/choice_trial_4.png"" style=""width: 408px; height: 417px;""></div></div>",f,delaylearn,learning,trial,OLgTOfduCbeQBT1tohG62B5PW872,OLgTOfduCbeQBT1tohG62B5PW872,2.0,images/choice_trial_16.png,images/choice_trial_4.png,images/pattern_4.png,f,j,7000.0,16.0,4.0,3.0,1.0,35.0,0.0,1.0,16.0,190.0,,,,,,5f69c62d0bda08020d07c27e,09:06:02,27/02/2024
html-keyboard-response,195,388846,0.0-81.0-1.0,,"<div style=""display: flex; flex-direction: column; align-items: center; margin-top: -40px;""><img src=""images/pattern_4.png"" style=""width: 234px; height: 230px; margin-top: -50px;""><div style=""display: flex; justify-content: space-between; margin-top: 33px;""><img src=""images/choice_trial_16.png"" style=""width: 408px; height: 417px; margin-right: 608px;""></div></div>",,delaylearn,learning,display_response,OLgTOfduCbeQBT1tohG62B5PW872,OLgTOfduCbeQBT1tohG62B5PW872,,,,,,,,,,,,,,,,,chosen stimuli: images/choice_trial_16.png,,,,,5f69c62d0bda08020d07c27e,09:06:02,27/02/2024
html-keyboard-response,196,395854,0.0-81.0-2.0,,,,delaylearn,learning,feedback_duration_window,OLgTOfduCbeQBT1tohG62B5PW872,OLgTOfduCbeQBT1tohG62B5PW872,,,,,,,,,,,,,,,,,,7000.0,,,,5f69c62d0bda08020d07c27e,09:06:02,27/02/2024
html-keyboard-response,197,397362,0.0-81.0-3.0,,<div style='margin:auto;width: auto; font-size: 150%'><span style='font-weight: bold; font-size: 100px; color: green;'>+10 points!</span><br><br></div>,,delaylearn,learning,feedback_image_window,OLgTOfduCbeQBT1tohG62B5PW872,OLgTOfduCbeQBT1tohG62B5PW872,,,,,,,,,,,,,,,,,,,,,,5f69c62d0bda08020d07c27e,09:06:02,27/02/2024
html-keyboard-response,198,399454,0.0-82.0,,"<div style=""font-size:100px;"">+</div>",,delaylearn,learning,ITI,OLgTOfduCbeQBT1tohG62B5PW872,OLgTOfduCbeQBT1tohG62B5PW872,,,,,,,,,,,,,,,,,,,2089.0,,,5f69c62d0bda08020d07c27e,09:06:02,27/02/2024
html-keyboard-response,199,401600,0.0-83.0-0.0,2142.1000000089407,"<div style=""display: flex; flex-direction: column; align-items: center; margin-top: -40px;""><img src=""images/pattern_7.png"" style=""width: 234px; height: 230px; margin-top: -50px;""><div style=""display: flex; justify-content: space-between; margin-top: 33px;""><img src=""images/choice_trial_8.png"" style=""width: 408px; height: 417px; margin-right: 200px;""><img src=""images/choice_trial_15.png"" style=""width: 408px; height: 417px;""></div></div>",f,delaylearn,learning,trial,OLgTOfduCbeQBT1tohG62B5PW872,OLgTOfduCbeQBT1tohG62B5PW872,2.0,images/choice_trial_8.png,images/choice_trial_15.png,images/pattern_7.png,f,f,750.0,8.0,15.0,6.0,0.0,36.0,1.0,1.0,8.0,200.0,,,,,,5f69c62d0bda08020d07c27e,09:06:02,27/02/2024
html-keyboard-response,200,402605,0.0-83.0-1.0,,"<div style=""display: flex; flex-direction: column; align-items: center; margin-top: -40px;""><img src=""images/pattern_7.png"" style=""width: 234px; height: 230px; margin-top: -50px;""><div style=""display: flex; justify-content: space-between; margin-top: 33px;""><img src=""images/choice_trial_8.png"" style=""width: 408px; height: 417px; margin-right: 608px;""></div></div>",,delaylearn,learning,display_response,OLgTOfduCbeQBT1tohG62B5PW872,OLgTOfduCbeQBT1tohG62B5PW872,,,,,,,,,,,,,,,,,chosen stimuli: images/choice_trial_8.png,,,,,5f69c62d0bda08020d07c27e,09:06:02,27/02/2024
html-keyboard-response,201,403358,0.0-83.0-2.0,,,,delaylearn,learning,feedback_duration_window,OLgTOfduCbeQBT1tohG62B5PW872,OLgTOfduCbeQBT1tohG62B5PW872,,,,,,,,,,,,,,,,,,750.0,,,,5f69c62d0bda08020d07c27e,09:06:02,27/02/2024
html-keyboard-response,202,404866,0.0-83.0-3.0,,<div style='margin:auto;width: auto; font-size: 150%'><span style='font-weight: bold; font-size: 100px; color: green;'>+10 points!</span><br><br></div>,,delaylearn,learning,feedback_image_window,OLgTOfduCbeQBT1tohG62B5PW872,OLgTOfduCbeQBT1tohG62B5PW872,,,,,,,,,,,,,,,,,,,,,,5f69c62d0bda08020d07c27e,09:06:02,27/02/2024
html-keyboard-response,203,406674,0.0-84.0,,"<div style=""font-size:100px;"">+</div>",,delaylearn,learning,ITI,OLgTOfduCbeQBT1tohG62B5PW872,OLgTOfduCbeQBT1tohG62B5PW872,,,,,,,,,,,,,,,,,,,1801.0,,,5f69c62d0bda08020d07c27e,09:06:02,27/02/2024
html-keyboard-response,204,409683,0.0-85.0-0.0,,"<div style=""display: flex; flex-direction: column; align-items: center; margin-top: -40px;""><img src=""images/pattern_1.png"" style=""width: 234px; height: 230px; margin-top: -50px;""><div style=""display: flex; justify-content: space-between; margin-top: 33px;""><img src=""images/choice_trial_3.png"" style=""width: 408px; height: 417px; margin-right: 200px;""><img src=""images/choice_trial_10.png"" style=""width: 408px; height: 417px;""></div></div>",,delaylearn,learning,trial,OLgTOfduCbeQBT1tohG62B5PW872,OLgTOfduCbeQBT1tohG62B5PW872,2.0,images/choice_trial_3.png,images/choice_trial_10.png,images/pattern_1.png,f,f,7000.0,3.0,10.0,1.0,0.0,37.0,0.0,0.0,0.0,200.0,,,,,,5f69c62d0bda08020d07c27e,09:06:02,27/02/2024
html-keyboard-response,205,410691,0.0-85.0-1.0,,<div style='font-weight: bold; font-size: 75px; color: red;'>Missed Trial <br><br><br><br> Please respond faster</div>,,delaylearn,learning,display_response,OLgTOfduCbeQBT1tohG62B5PW872,OLgTOfduCbeQBT1tohG62B5PW872,,,,,,,,,,,,,,,,,Missed trial,,,,,5f69c62d0bda08020d07c27e,09:06:02,27/02/2024
html-keyboard-response,206,410697,0.0-85.0-2.0,,,,delaylearn,learning,feedback_duration_window,OLgTOfduCbeQBT1tohG62B5PW872,OLgTOfduCbeQBT1tohG62B5PW872,,,,,,,,,,,,,,,,,,0.0,,,,5f69c62d0bda08020d07c27e,09:06:02,27/02/2024
html-keyboard-response,207,410703,0.0-85.0-3.0,,,,delaylearn,learning,feedback_image_window,OLgTOfduCbeQBT1tohG62B5PW872,OLgTOfduCbeQBT1tohG62B5PW872,,,,,,,,,,,,,,,,,,,,,,5f69c62d0bda08020d07c27e,09:06:02,27/02/2024
html-keyboard-response,208,411206,0.0-86.0-0.0,,,,,,mood_trial_fixation,OLgTOfduCbeQBT1tohG62B5PW872,,,,,,,,,,,,,,,,,,,,,,,5f69c62d0bda08020d07c27e,09:06:02,27/02/2024
lmdlab-html-vas-response,209,414217,0.0-86.0-1.0,2000.0,How happy are you right now?,0.412962962962963,delaylearn,learning,mood_trial,OLgTOfduCbeQBT1tohG62B5PW872,OLgTOfduCbeQBT1tohG62B5PW872,,,,,,,,,,,,,,,,,,,,"['Very unhappy', 'Very happy']",,5f69c62d0bda08020d07c27e,09:06:02,27/02/2024
html-keyboard-response,210,416722,0.0-87.0,,"<div style=""font-size:100px;"">+</div>",,delaylearn,learning,ITI,OLgTOfduCbeQBT1tohG62B5PW872,OLgTOfduCbeQBT1tohG62B5PW872,,,,,,,,,,,,,,,,,,,2497.0,,,5f69c62d0bda08020d07c27e,09:06:02,27/02/2024
html-keyboard-response,211,418204,0.0-88.0-0.0,1477.0999999940395,"<div style=""display: flex; flex-direction: column; align-items: center; margin-top: -40px;""><img src=""images/pattern_3.png"" style=""width: 234px; height: 230px; margin-top: -50px;""><div style=""display: flex; justify-content: space-between; margin-top: 33px;""><img src=""images/choice_trial_12.png"" style=""width: 408px; height: 417px; margin-right: 200px;""><img src=""images/choice_trial_14.png"" style=""width: 408px; height: 417px;""></div></div>",f,delaylearn,learning,trial,OLgTOfduCbeQBT1tohG62B5PW872,OLgTOfduCbeQBT1tohG62B5PW872,2.0,images/choice_trial_12.png,images/choice_trial_14.png,images/pattern_3.png,j,f,7000.0,12.0,14.0,2.0,0.0,38.0,1.0,0.0,12.0,200.0,,,,,,5f69c62d0bda08020d07c27e,09:06:02,27/02/2024
html-keyboard-response,212,419207,0.0-88.0-1.0,,"<div style=""display: flex; flex-direction: column; align-items: center; margin-top: -40px;""><img src=""images/pattern_3.png"" style=""width: 234px; height: 230px; margin-top: -50px;""><div style=""display: flex; justify-content: space-between; margin-top: 33px;""><img src=""images/choice_trial_12.png"" style=""width: 408px; height: 417px; margin-right: 608px;""></div></div>",,delaylearn,learning,display_response,OLgTOfduCbeQBT1tohG62B5PW872,OLgTOfduCbeQBT1tohG62B5PW872,,,,,,,,,,,,,,,,,chosen stimuli: images/choice_trial_12.png,,,,,5f69c62d0bda08020d07c27e,09:06:02,27/02/2024
html-keyboard-response,213,426214,0.0-88.0-2.0,,,,delaylearn,learning,feedback_duration_window,OLgTOfduCbeQBT1tohG62B5PW872,OLgTOfduCbeQBT1tohG62B5PW872,,,,,,,,,,,,,,,,,,7000.0,,,,5f69c62d0bda08020d07c27e,09:06:02,27/02/2024
html-keyboard-response,214,427719,0.0-88.0-3.0,,<div style='margin:auto;width: auto; font-size: 150%'><span style='font-weight: bold; font-size: 100px; color: red;'>0 points!</span><br><br></div>,,delaylearn,learning,feedback_image_window,OLgTOfduCbeQBT1tohG62B5PW872,OLgTOfduCbeQBT1tohG62B5PW872,,,,,,,,,,,,,,,,,,,,,,5f69c62d0bda08020d07c27e,09:06:02,27/02/2024
html-keyboard-response,215,429425,0.0-89.0,,"<div style=""font-size:100px;"">+</div>",,delaylearn,learning,ITI,OLgTOfduCbeQBT1tohG62B5PW872,OLgTOfduCbeQBT1tohG62B5PW872,,,,,,,,,,,,,,,,,,,1702.0,,,5f69c62d0bda08020d07c27e,09:06:02,27/02/2024
html-keyboard-response,216,432184,0.0-90.0-0.0,2755.0,"<div style=""display: flex; flex-direction: column; align-items: center; margin-top: -40px;""><img src=""images/pattern_7.png"" style=""width: 234px; height: 230px; margin-top: -50px;""><div style=""display: flex; justify-content: space-between; margin-top: 33px;""><img src=""images/choice_trial_15.png"" style=""width: 408px; height: 417px; margin-right: 200px;""><img src=""images/choice_trial_8.png"" style=""width: 408px; height: 417px;""></div></div>",j,delaylearn,learning,trial,OLgTOfduCbeQBT1tohG62B5PW872,OLgTOfduCbeQBT1tohG62B5PW872,2.0,images/choice_trial_15.png,images/choice_trial_8.png,images/pattern_7.png,j,j,750.0,15.0,8.0,6.0,1.0,39.0,1.0,1.0,8.0,210.0,,,,,,5f69c62d0bda08020d07c27e,09:06:02,27/02/2024
html-keyboard-response,217,433190,0.0-90.0-1.0,,"<div style=""display: flex; flex-direction: column; align-items: center; margin-top: -40px;""><img src=""images/pattern_7.png"" style=""width: 234px; height: 230px; margin-top: -50px;""><div style=""display: flex; justify-content: space-between; margin-top: 33px;""><img src=""images/choice_trial_8.png"" style=""width: 408px; height: 417px; margin-left:608px;""></div></div>",,delaylearn,learning,display_response,OLgTOfduCbeQBT1tohG62B5PW872,OLgTOfduCbeQBT1tohG62B5PW872,,,,,,,,,,,,,,,,,chosen stimuli: images/choice_trial_8.png,,,,,5f69c62d0bda08020d07c27e,09:06:02,27/02/2024
html-keyboard-response,218,433947,0.0-90.0-2.0,,,,delaylearn,learning,feedback_duration_window,OLgTOfduCbeQBT1tohG62B5PW872,OLgTOfduCbeQBT1tohG62B5PW872,,,,,,,,,,,,,,,,,,750.0,,,,5f69c62d0bda08020d07c27e,09:06:02,27/02/2024
html-keyboard-response,219,435452,0.0-90.0-3.0,,<div style='margin:auto;width: auto; font-size: 150%'><span style='font-weight: bold; font-size: 100px; color: green;'>+10 points!</span><br><br></div>,,delaylearn,learning,feedback_image_window,OLgTOfduCbeQBT1tohG62B5PW872,OLgTOfduCbeQBT1tohG62B5PW872,,,,,,,,,,,,,,,,,,,,,,5f69c62d0bda08020d07c27e,09:06:02,27/02/2024
html-keyboard-response,220,437217,0.0-91.0,,"<div style=""font-size:100px;"">+</div>",,delaylearn,learning,ITI,OLgTOfduCbeQBT1tohG62B5PW872,OLgTOfduCbeQBT1tohG62B5PW872,,,,,,,,,,,,,,,,,,,1759.0,,,5f69c62d0bda08020d07c27e,09:06:02,27/02/2024
html-keyboard-response,221,440226,0.0-92.0-0.0,,"<div style=""display: flex; flex-direction: column; align-items: center; margin-top: -40px;""><img src=""images/pattern_5.png"" style=""width: 234px; height: 230px; margin-top: -50px;""><div style=""display: flex; justify-content: space-between; margin-top: 33px;""><img src=""images/choice_trial_9.png"" style=""width: 408px; height: 417px; margin-right: 200px;""><img src=""images/choice_trial_2.png"" style=""width: 408px; height: 417px;""></div></div>",,delaylearn,learning,trial,OLgTOfduCbeQBT1tohG62B5PW872,OLgTOfduCbeQBT1tohG62B5PW872,2.0,images/choice_trial_9.png,images/choice_trial_2.png,images/pattern_5.png,j,j,750.0,9.0,2.0,4.0,1.0,40.0,0.0,0.0,0.0,210.0,,,,,,5f69c62d0bda08020d07c27e,09:06:02,27/02/2024
html-keyboard-response,222,441230,0.0-92.0-1.0,,<div style='font-weight: bold; font-size: 75px; color: red;'>Missed Trial <br><br><br><br> Please respond faster</div>,,delaylearn,learning,display_response,OLgTOfduCbeQBT1tohG62B5PW872,OLgTOfduCbeQBT1tohG62B5PW872,,,,,,,,,,,,,,,,,Missed trial,,,,,5f69c62d0bda08020d07c27e,09:06:02,27/02/2024
html-keyboard-response,223,441237,0.0-92.0-2.0,,,,delaylearn,learning,feedback_duration_window,OLgTOfduCbeQBT1tohG62B5PW872,OLgTOfduCbeQBT1tohG62B5PW872,,,,,,,,,,,,,,,,,,0.0,,,,5f69c62d0bda08020d07c27e,09:06:02,27/02/2024
html-keyboard-response,224,441243,0.0-92.0-3.0,,,,delaylearn,learning,feedback_image_window,OLgTOfduCbeQBT1tohG62B5PW872,OLgTOfduCbeQBT1tohG62B5PW872,,,,,,,,,,,,,,,,,,,,,,5f69c62d0bda08020d07c27e,09:06:02,27/02/2024
html-keyboard-response,225,441747,0.0-93.0-0.0,,,,,,mood_trial_fixation,OLgTOfduCbeQBT1tohG62B5PW872,,,,,,,,,,,,,,,,,,,,,,,5f69c62d0bda08020d07c27e,09:06:02,27/02/2024
lmdlab-html-vas-response,226,444633,0.0-93.0-1.0,1874.0,How happy are you right now?,0.5648148148148148,delaylearn,learning,mood_trial,OLgTOfduCbeQBT1tohG62B5PW872,OLgTOfduCbeQBT1tohG62B5PW872,,,,,,,,,,,,,,,,,,,,"['Very unhappy', 'Very happy']",,5f69c62d0bda08020d07c27e,09:06:02,27/02/2024
html-keyboard-response,227,446326,0.0-94.0,,"<div style=""font-size:100px;"">+</div>",,delaylearn,learning,ITI,OLgTOfduCbeQBT1tohG62B5PW872,OLgTOfduCbeQBT1tohG62B5PW872,,,,,,,,,,,,,,,,,,,1686.0,,,5f69c62d0bda08020d07c27e,09:06:02,27/02/2024
html-keyboard-response,228,447345,0.0-95.0-0.0,1014.7000000029802,"<div style=""display: flex; flex-direction: column; align-items: center; margin-top: -40px;""><img src=""images/pattern_4.png"" style=""width: 234px; height: 230px; margin-top: -50px;""><div style=""display: flex; justify-content: space-between; margin-top: 33px;""><img src=""images/choice_trial_4.png"" style=""width: 408px; height: 417px; margin-right: 200px;""><img src=""images/choice_trial_16.png"" style=""width: 408px; height: 417px;""></div></div>",f,delaylearn,learning,trial,OLgTOfduCbeQBT1tohG62B5PW872,OLgTOfduCbeQBT1tohG62B5PW872,2.0,images/choice_trial_4.png,images/choice_trial_16.png,images/pattern_4.png,f,f,7000.0,4.0,16.0,3.0,0.0,41.0,1.0,1.0,4.0,220.0,,,,,,5f69c62d0bda08020d07c27e,09:06:02,27/02/2024
html-keyboard-response,229,448351,0.0-95.0-1.0,,"<div style=""display: flex; flex-direction: column; align-items: center; margin-top: -40px;""><img src=""images/pattern_4.png"" style=""width: 234px; height: 230px; margin-top: -50px;""><div style=""display: flex; justify-content: space-between; margin-top: 33px;""><img src=""images/choice_trial_4.png"" style=""width: 408px; height: 417px; margin-right: 608px;""></div></div>",,delaylearn,learning,display_response,OLgTOfduCbeQBT1tohG62B5PW872,OLgTOfduCbeQBT1tohG62B5PW872,,,,,,,,,,,,,,,,,chosen stimuli: images/choice_trial_4.png,,,,,5f69c62d0bda08020d07c27e,09:06:02,27/02/2024
html-keyboard-response,230,455355,0.0-95.0-2.0,,,,delaylearn,learning,feedback_duration_window,OLgTOfduCbeQBT1tohG62B5PW872,OLgTOfduCbeQBT1tohG62B5PW872,,,,,,,,,,,,,,,,,,7000.0,,,,5f69c62d0bda08020d07c27e,09:06:02,27/02/2024
html-keyboard-response,231,456859,0.0-95.0-3.0,,<div style='margin:auto;width: auto; font-size: 150%'><span style='font-weight: bold; font-size: 100px; color: green;'>+10 points!</span><br><br></div>,,delaylearn,learning,feedback_image_window,OLgTOfduCbeQBT1tohG62B5PW872,OLgTOfduCbeQBT1tohG62B5PW872,,,,,,,,,,,,,,,,,,,,,,5f69c62d0bda08020d07c27e,09:06:02,27/02/2024
html-keyboard-response,232,458691,0.0-96.0,,"<div style=""font-size:100px;"">+</div>",,delaylearn,learning,ITI,OLgTOfduCbeQBT1tohG62B5PW872,OLgTOfduCbeQBT1tohG62B5PW872,,,,,,,,,,,,,,,,,,,1825.0,,,5f69c62d0bda08020d07c27e,09:06:02,27/02/2024
html-keyboard-response,233,460476,0.0-97.0-0.0,1781.2999999970198,"<div style=""display: flex; flex-direction: column; align-items: center; margin-top: -40px;""><img src=""images/pattern_6.png"" style=""width: 234px; height: 230px; margin-top: -50px;""><div style=""display: flex; justify-content: space-between; margin-top: 33px;""><img src=""images/choice_trial_5.png"" style=""width: 408px; height: 417px; margin-right: 200px;""><img src=""images/choice_trial_11.png"" style=""width: 408px; height: 417px;""></div></div>",j,delaylearn,learning,trial,OLgTOfduCbeQBT1tohG62B5PW872,OLgTOfduCbeQBT1tohG62B5PW872,2.0,images/choice_trial_5.png,images/choice_trial_11.png,images/pattern_6.png,j,j,750.0,5.0,11.0,5.0,1.0,42.0,1.0,1.0,11.0,230.0,,,,,,5f69c62d0bda08020d07c27e,09:06:02,27/02/2024
