trial_type,trial_index,time_elapsed,internal_node_id,rt,stimulus,response,exp_name,exp_stage,test_part,subjectID,databaseID,counterbal,choice_stimuli_1,choice_stimuli_2,pattern_stimuli,rewarded_answer,correct_answer,feedback_duration_times,stim_left,stim_right,pair,leftright_counter,trial,response_correct,response_rewarded,chosen_stim,counter,displayed_choice,feedback_durations,ITI_duration,labels,rest_warning,prolificID,start_time,date
pavlovia,0,573,0.0-0.0,,,,,,,Sp1AqDKFWsVjNqH1Ytgcy5th6Jm2,,,,,,,,,,,,,,,,,,,,,,,6103d7b00cb90ef8d5c5260a,15:55:10,26/03/2024
html-keyboard-response,1,3575,0.0-1.0,,"<div style=""font-size:100px;"">+</div>",,delaylearn,learning,pre_fixation,Sp1AqDKFWsVjNqH1Ytgcy5th6Jm2,,,,,,,,,,,,,,,,,,,,,,,6103d7b00cb90ef8d5c5260a,15:55:10,26/03/2024
html-keyboard-response,2,4490,0.0-2.0-0.0,912.6999999880791,"<div style=""display: flex; flex-direction: column; align-items: center; margin-top: -40px;""><img src=""images/demo_images/pattern_1.png"" style=""width: 234px; height: 230px; margin-top: -50px;""><div style=""display: flex; justify-content: space-between; margin-top: 33px;""><img src=""images/demo_images/choice_trial_2.png"" style=""width: 408px; height: 417px; margin-right: 200px;""><img src=""images/demo_images/choice_trial_1.png"" style=""width: 408px; height: 417px;""></div></div>",f,delaylearn,learning,trial,Sp1AqDKFWsVjNqH1Ytgcy5th6Jm2,Sp1AqDKFWsVjNqH1Ytgcy5th6Jm2,3.0,images/demo_images/choice_trial_2.png,images/demo_images/choice_trial_1.png,images/demo_images/pattern_1.png,j,j,3000.0,2.0,1.0,20.0,1.0,1.0,0.0,0.0,2.0,0.0,,,,,,6103d7b00cb90ef8d5c5260a,15:55:10,26/03/2024
html-keyboard-response,3,5498,0.0-2.0-1.0,,"<div style=""display: flex; flex-direction: column; align-items: center; margin-top: -40px;""><img src=""images/demo_images/pattern_1.png"" style=""width: 234px; height: 230px; margin-top: -50px;""><div style=""display: flex; justify-content: space-between; margin-top: 33px;""><img src=""images/demo_images/choice_trial_2.png"" style=""width: 408px; height: 417px; margin-right: 608px;""></div></div>",,delaylearn,learning,display_response,Sp1AqDKFWsVjNqH1Ytgcy5th6Jm2,Sp1AqDKFWsVjNqH1Ytgcy5th6Jm2,,,,,,,,,,,,,,,,,chosen stimuli: images/demo_images/choice_trial_2.png,,,,,6103d7b00cb90ef8d5c5260a,15:55:10,26/03/2024
html-keyboard-response,4,8500,0.0-2.0-2.0,,,,delaylearn,learning,feedback_duration_window,Sp1AqDKFWsVjNqH1Ytgcy5th6Jm2,Sp1AqDKFWsVjNqH1Ytgcy5th6Jm2,,,,,,,,,,,,,,,,,,3000.0,,,,6103d7b00cb90ef8d5c5260a,15:55:10,26/03/2024
html-keyboard-response,5,10006,0.0-2.0-3.0,,<div style='margin:auto;width: auto; font-size: 150%'><span style='font-weight: bold; font-size: 100px; color: red;'>0 points!</span><br><br></div>,,delaylearn,learning,feedback_image_window,Sp1AqDKFWsVjNqH1Ytgcy5th6Jm2,Sp1AqDKFWsVjNqH1Ytgcy5th6Jm2,,,,,,,,,,,,,,,,,,,,,,6103d7b00cb90ef8d5c5260a,15:55:10,26/03/2024
html-keyboard-response,6,12229,0.0-3.0,,"<div style=""font-size:100px;"">+</div>",,delaylearn,learning,ITI,Sp1AqDKFWsVjNqH1Ytgcy5th6Jm2,Sp1AqDKFWsVjNqH1Ytgcy5th6Jm2,,,,,,,,,,,,,,,,,,,2209.0,,,6103d7b00cb90ef8d5c5260a,15:55:10,26/03/2024
html-keyboard-response,7,12875,0.0-4.0-0.0,642.3999999761581,"<div style=""display: flex; flex-direction: column; align-items: center; margin-top: -40px;""><img src=""images/demo_images/pattern_1.png"" style=""width: 234px; height: 230px; margin-top: -50px;""><div style=""display: flex; justify-content: space-between; margin-top: 33px;""><img src=""images/demo_images/choice_trial_2.png"" style=""width: 408px; height: 417px; margin-right: 200px;""><img src=""images/demo_images/choice_trial_1.png"" style=""width: 408px; height: 417px;""></div></div>",j,delaylearn,learning,trial,Sp1AqDKFWsVjNqH1Ytgcy5th6Jm2,Sp1AqDKFWsVjNqH1Ytgcy5th6Jm2,3.0,images/demo_images/choice_trial_2.png,images/demo_images/choice_trial_1.png,images/demo_images/pattern_1.png,j,j,3000.0,2.0,1.0,20.0,1.0,2.0,1.0,1.0,1.0,10.0,,,,,,6103d7b00cb90ef8d5c5260a,15:55:10,26/03/2024
html-keyboard-response,8,13879,0.0-4.0-1.0,,"<div style=""display: flex; flex-direction: column; align-items: center; margin-top: -40px;""><img src=""images/demo_images/pattern_1.png"" style=""width: 234px; height: 230px; margin-top: -50px;""><div style=""display: flex; justify-content: space-between; margin-top: 33px;""><img src=""images/demo_images/choice_trial_1.png"" style=""width: 408px; height: 417px; margin-left:608px;""></div></div>",,delaylearn,learning,display_response,Sp1AqDKFWsVjNqH1Ytgcy5th6Jm2,Sp1AqDKFWsVjNqH1Ytgcy5th6Jm2,,,,,,,,,,,,,,,,,chosen stimuli: images/demo_images/choice_trial_1.png,,,,,6103d7b00cb90ef8d5c5260a,15:55:10,26/03/2024
html-keyboard-response,9,16893,0.0-4.0-2.0,,,,delaylearn,learning,feedback_duration_window,Sp1AqDKFWsVjNqH1Ytgcy5th6Jm2,Sp1AqDKFWsVjNqH1Ytgcy5th6Jm2,,,,,,,,,,,,,,,,,,3000.0,,,,6103d7b00cb90ef8d5c5260a,15:55:10,26/03/2024
html-keyboard-response,10,18400,0.0-4.0-3.0,,<div style='margin:auto;width: auto; font-size: 150%'><span style='font-weight: bold; font-size: 100px; color: green;'>+10 points!</span><br><br></div>,,delaylearn,learning,feedback_image_window,Sp1AqDKFWsVjNqH1Ytgcy5th6Jm2,Sp1AqDKFWsVjNqH1Ytgcy5th6Jm2,,,,,,,,,,,,,,,,,,,,,,6103d7b00cb90ef8d5c5260a,15:55:10,26/03/2024
html-keyboard-response,11,20806,0.0-5.0,,"<div style=""font-size:100px;"">+</div>",,delaylearn,learning,ITI,Sp1AqDKFWsVjNqH1Ytgcy5th6Jm2,Sp1AqDKFWsVjNqH1Ytgcy5th6Jm2,,,,,,,,,,,,,,,,,,,2399.0,,,6103d7b00cb90ef8d5c5260a,15:55:10,26/03/2024
html-keyboard-response,12,21308,0.0-6.0-0.0,500.0,"<div style=""display: flex; flex-direction: column; align-items: center; margin-top: -40px;""><img src=""images/demo_images/pattern_1.png"" style=""width: 234px; height: 230px; margin-top: -50px;""><div style=""display: flex; justify-content: space-between; margin-top: 33px;""><img src=""images/demo_images/choice_trial_1.png"" style=""width: 408px; height: 417px; margin-right: 200px;""><img src=""images/demo_images/choice_trial_2.png"" style=""width: 408px; height: 417px;""></div></div>",f,delaylearn,learning,trial,Sp1AqDKFWsVjNqH1Ytgcy5th6Jm2,Sp1AqDKFWsVjNqH1Ytgcy5th6Jm2,3.0,images/demo_images/choice_trial_1.png,images/demo_images/choice_trial_2.png,images/demo_images/pattern_1.png,j,f,3000.0,1.0,2.0,20.0,0.0,3.0,1.0,0.0,1.0,10.0,,,,,,6103d7b00cb90ef8d5c5260a,15:55:10,26/03/2024
html-keyboard-response,13,22319,0.0-6.0-1.0,,"<div style=""display: flex; flex-direction: column; align-items: center; margin-top: -40px;""><img src=""images/demo_images/pattern_1.png"" style=""width: 234px; height: 230px; margin-top: -50px;""><div style=""display: flex; justify-content: space-between; margin-top: 33px;""><img src=""images/demo_images/choice_trial_1.png"" style=""width: 408px; height: 417px; margin-right: 608px;""></div></div>",,delaylearn,learning,display_response,Sp1AqDKFWsVjNqH1Ytgcy5th6Jm2,Sp1AqDKFWsVjNqH1Ytgcy5th6Jm2,,,,,,,,,,,,,,,,,chosen stimuli: images/demo_images/choice_trial_1.png,,,,,6103d7b00cb90ef8d5c5260a,15:55:10,26/03/2024
html-keyboard-response,14,25322,0.0-6.0-2.0,,,,delaylearn,learning,feedback_duration_window,Sp1AqDKFWsVjNqH1Ytgcy5th6Jm2,Sp1AqDKFWsVjNqH1Ytgcy5th6Jm2,,,,,,,,,,,,,,,,,,3000.0,,,,6103d7b00cb90ef8d5c5260a,15:55:10,26/03/2024
html-keyboard-response,15,26829,0.0-6.0-3.0,,<div style='margin:auto;width: auto; font-size: 150%'><span style='font-weight: bold; font-size: 100px; color: red;'>0 points!</span><br><br></div>,,delaylearn,learning,feedback_image_window,Sp1AqDKFWsVjNqH1Ytgcy5th6Jm2,Sp1AqDKFWsVjNqH1Ytgcy5th6Jm2,,,,,,,,,,,,,,,,,,,,,,6103d7b00cb90ef8d5c5260a,15:55:10,26/03/2024
html-keyboard-response,16,29240,0.0-7.0,,"<div style=""font-size:100px;"">+</div>",,delaylearn,learning,ITI,Sp1AqDKFWsVjNqH1Ytgcy5th6Jm2,Sp1AqDKFWsVjNqH1Ytgcy5th6Jm2,,,,,,,,,,,,,,,,,,,2397.0,,,6103d7b00cb90ef8d5c5260a,15:55:10,26/03/2024
html-keyboard-response,17,30153,0.0-8.0-0.0,911.5999999642372,"<div style=""display: flex; flex-direction: column; align-items: center; margin-top: -40px;""><img src=""images/demo_images/pattern_1.png"" style=""width: 234px; height: 230px; margin-top: -50px;""><div style=""display: flex; justify-content: space-between; margin-top: 33px;""><img src=""images/demo_images/choice_trial_1.png"" style=""width: 408px; height: 417px; margin-right: 200px;""><img src=""images/demo_images/choice_trial_2.png"" style=""width: 408px; height: 417px;""></div></div>",f,delaylearn,learning,trial,Sp1AqDKFWsVjNqH1Ytgcy5th6Jm2,Sp1AqDKFWsVjNqH1Ytgcy5th6Jm2,3.0,images/demo_images/choice_trial_1.png,images/demo_images/choice_trial_2.png,images/demo_images/pattern_1.png,f,f,3000.0,1.0,2.0,20.0,0.0,4.0,1.0,1.0,1.0,20.0,,,,,,6103d7b00cb90ef8d5c5260a,15:55:10,26/03/2024
html-keyboard-response,18,31165,0.0-8.0-1.0,,"<div style=""display: flex; flex-direction: column; align-items: center; margin-top: -40px;""><img src=""images/demo_images/pattern_1.png"" style=""width: 234px; height: 230px; margin-top: -50px;""><div style=""display: flex; justify-content: space-between; margin-top: 33px;""><img src=""images/demo_images/choice_trial_1.png"" style=""width: 408px; height: 417px; margin-right: 608px;""></div></div>",,delaylearn,learning,display_response,Sp1AqDKFWsVjNqH1Ytgcy5th6Jm2,Sp1AqDKFWsVjNqH1Ytgcy5th6Jm2,,,,,,,,,,,,,,,,,chosen stimuli: images/demo_images/choice_trial_1.png,,,,,6103d7b00cb90ef8d5c5260a,15:55:10,26/03/2024
html-keyboard-response,19,34181,0.0-8.0-2.0,,,,delaylearn,learning,feedback_duration_window,Sp1AqDKFWsVjNqH1Ytgcy5th6Jm2,Sp1AqDKFWsVjNqH1Ytgcy5th6Jm2,,,,,,,,,,,,,,,,,,3000.0,,,,6103d7b00cb90ef8d5c5260a,15:55:10,26/03/2024
html-keyboard-response,20,35689,0.0-8.0-3.0,,<div style='margin:auto;width: auto; font-size: 150%'><span style='font-weight: bold; font-size: 100px; color: green;'>+10 points!</span><br><br></div>,,delaylearn,learning,feedback_image_window,Sp1AqDKFWsVjNqH1Ytgcy5th6Jm2,Sp1AqDKFWsVjNqH1Ytgcy5th6Jm2,,,,,,,,,,,,,,,,,,,,,,6103d7b00cb90ef8d5c5260a,15:55:10,26/03/2024
html-keyboard-response,21,36203,0.0-9.0-0.0,,,,,,mood_trial_fixation,Sp1AqDKFWsVjNqH1Ytgcy5th6Jm2,,,,,,,,,,,,,,,,,,,,,,,6103d7b00cb90ef8d5c5260a,15:55:10,26/03/2024
lmdlab-html-vas-response,22,41111,0.0-9.0-1.0,3879.0,How happy are you right now?,0.5717592592592593,delaylearn,learning,mood_trial,Sp1AqDKFWsVjNqH1Ytgcy5th6Jm2,Sp1AqDKFWsVjNqH1Ytgcy5th6Jm2,,,,,,,,,,,,,,,,,,,,"['Very unhappy', 'Very happy']",,6103d7b00cb90ef8d5c5260a,15:55:10,26/03/2024
html-keyboard-response,23,42973,0.0-10.0,,"<div style=""font-size:100px;"">+</div>",,delaylearn,learning,ITI,Sp1AqDKFWsVjNqH1Ytgcy5th6Jm2,Sp1AqDKFWsVjNqH1Ytgcy5th6Jm2,,,,,,,,,,,,,,,,,,,1857.0,,,6103d7b00cb90ef8d5c5260a,15:55:10,26/03/2024
html-keyboard-response,24,43521,0.0-11.0-0.0,546.1000000238419,"<div style=""display: flex; flex-direction: column; align-items: center; margin-top: -40px;""><img src=""images/demo_images/pattern_1.png"" style=""width: 234px; height: 230px; margin-top: -50px;""><div style=""display: flex; justify-content: space-between; margin-top: 33px;""><img src=""images/demo_images/choice_trial_2.png"" style=""width: 408px; height: 417px; margin-right: 200px;""><img src=""images/demo_images/choice_trial_1.png"" style=""width: 408px; height: 417px;""></div></div>",j,delaylearn,learning,trial,Sp1AqDKFWsVjNqH1Ytgcy5th6Jm2,Sp1AqDKFWsVjNqH1Ytgcy5th6Jm2,3.0,images/demo_images/choice_trial_2.png,images/demo_images/choice_trial_1.png,images/demo_images/pattern_1.png,j,j,3000.0,2.0,1.0,20.0,1.0,5.0,1.0,1.0,1.0,30.0,,,,,,6103d7b00cb90ef8d5c5260a,15:55:10,26/03/2024
html-keyboard-response,25,44525,0.0-11.0-1.0,,"<div style=""display: flex; flex-direction: column; align-items: center; margin-top: -40px;""><img src=""images/demo_images/pattern_1.png"" style=""width: 234px; height: 230px; margin-top: -50px;""><div style=""display: flex; justify-content: space-between; margin-top: 33px;""><img src=""images/demo_images/choice_trial_1.png"" style=""width: 408px; height: 417px; margin-left:608px;""></div></div>",,delaylearn,learning,display_response,Sp1AqDKFWsVjNqH1Ytgcy5th6Jm2,Sp1AqDKFWsVjNqH1Ytgcy5th6Jm2,,,,,,,,,,,,,,,,,chosen stimuli: images/demo_images/choice_trial_1.png,,,,,6103d7b00cb90ef8d5c5260a,15:55:10,26/03/2024
html-keyboard-response,26,47528,0.0-11.0-2.0,,,,delaylearn,learning,feedback_duration_window,Sp1AqDKFWsVjNqH1Ytgcy5th6Jm2,Sp1AqDKFWsVjNqH1Ytgcy5th6Jm2,,,,,,,,,,,,,,,,,,3000.0,,,,6103d7b00cb90ef8d5c5260a,15:55:10,26/03/2024
html-keyboard-response,27,49033,0.0-11.0-3.0,,<div style='margin:auto;width: auto; font-size: 150%'><span style='font-weight: bold; font-size: 100px; color: green;'>+10 points!</span><br><br></div>,,delaylearn,learning,feedback_image_window,Sp1AqDKFWsVjNqH1Ytgcy5th6Jm2,Sp1AqDKFWsVjNqH1Ytgcy5th6Jm2,,,,,,,,,,,,,,,,,,,,,,6103d7b00cb90ef8d5c5260a,15:55:10,26/03/2024
html-keyboard-response,28,51182,0.0-12.0,,"<div style=""font-size:100px;"">+</div>",,delaylearn,learning,ITI,Sp1AqDKFWsVjNqH1Ytgcy5th6Jm2,Sp1AqDKFWsVjNqH1Ytgcy5th6Jm2,,,,,,,,,,,,,,,,,,,2135.0,,,6103d7b00cb90ef8d5c5260a,15:55:10,26/03/2024
html-keyboard-response,29,51645,0.0-13.0-0.0,461.80000001192093,"<div style=""display: flex; flex-direction: column; align-items: center; margin-top: -40px;""><img src=""images/demo_images/pattern_1.png"" style=""width: 234px; height: 230px; margin-top: -50px;""><div style=""display: flex; justify-content: space-between; margin-top: 33px;""><img src=""images/demo_images/choice_trial_1.png"" style=""width: 408px; height: 417px; margin-right: 200px;""><img src=""images/demo_images/choice_trial_2.png"" style=""width: 408px; height: 417px;""></div></div>",f,delaylearn,learning,trial,Sp1AqDKFWsVjNqH1Ytgcy5th6Jm2,Sp1AqDKFWsVjNqH1Ytgcy5th6Jm2,3.0,images/demo_images/choice_trial_1.png,images/demo_images/choice_trial_2.png,images/demo_images/pattern_1.png,f,f,3000.0,1.0,2.0,20.0,0.0,6.0,1.0,1.0,1.0,40.0,,,,,,6103d7b00cb90ef8d5c5260a,15:55:10,26/03/2024
html-keyboard-response,30,52661,0.0-13.0-1.0,,"<div style=""display: flex; flex-direction: column; align-items: center; margin-top: -40px;""><img src=""images/demo_images/pattern_1.png"" style=""width: 234px; height: 230px; margin-top: -50px;""><div style=""display: flex; justify-content: space-between; margin-top: 33px;""><img src=""images/demo_images/choice_trial_1.png"" style=""width: 408px; height: 417px; margin-right: 608px;""></div></div>",,delaylearn,learning,display_response,Sp1AqDKFWsVjNqH1Ytgcy5th6Jm2,Sp1AqDKFWsVjNqH1Ytgcy5th6Jm2,,,,,,,,,,,,,,,,,chosen stimuli: images/demo_images/choice_trial_1.png,,,,,6103d7b00cb90ef8d5c5260a,15:55:10,26/03/2024
html-keyboard-response,31,55669,0.0-13.0-2.0,,,,delaylearn,learning,feedback_duration_window,Sp1AqDKFWsVjNqH1Ytgcy5th6Jm2,Sp1AqDKFWsVjNqH1Ytgcy5th6Jm2,,,,,,,,,,,,,,,,,,3000.0,,,,6103d7b00cb90ef8d5c5260a,15:55:10,26/03/2024
html-keyboard-response,32,57175,0.0-13.0-3.0,,<div style='margin:auto;width: auto; font-size: 150%'><span style='font-weight: bold; font-size: 100px; color: green;'>+10 points!</span><br><br></div>,,delaylearn,learning,feedback_image_window,Sp1AqDKFWsVjNqH1Ytgcy5th6Jm2,Sp1AqDKFWsVjNqH1Ytgcy5th6Jm2,,,,,,,,,,,,,,,,,,,,,,6103d7b00cb90ef8d5c5260a,15:55:10,26/03/2024
html-keyboard-response,33,59160,0.0-14.0,,"<div style=""font-size:100px;"">+</div>",,delaylearn,learning,ITI,Sp1AqDKFWsVjNqH1Ytgcy5th6Jm2,Sp1AqDKFWsVjNqH1Ytgcy5th6Jm2,,,,,,,,,,,,,,,,,,,1970.0,,,6103d7b00cb90ef8d5c5260a,15:55:10,26/03/2024
html-keyboard-response,34,59594,0.0-15.0-0.0,430.60000002384186,"<div style=""display: flex; flex-direction: column; align-items: center; margin-top: -40px;""><img src=""images/demo_images/pattern_1.png"" style=""width: 234px; height: 230px; margin-top: -50px;""><div style=""display: flex; justify-content: space-between; margin-top: 33px;""><img src=""images/demo_images/choice_trial_2.png"" style=""width: 408px; height: 417px; margin-right: 200px;""><img src=""images/demo_images/choice_trial_1.png"" style=""width: 408px; height: 417px;""></div></div>",j,delaylearn,learning,trial,Sp1AqDKFWsVjNqH1Ytgcy5th6Jm2,Sp1AqDKFWsVjNqH1Ytgcy5th6Jm2,3.0,images/demo_images/choice_trial_2.png,images/demo_images/choice_trial_1.png,images/demo_images/pattern_1.png,j,j,3000.0,2.0,1.0,20.0,1.0,7.0,1.0,1.0,1.0,50.0,,,,,,6103d7b00cb90ef8d5c5260a,15:55:10,26/03/2024
html-keyboard-response,35,60610,0.0-15.0-1.0,,"<div style=""display: flex; flex-direction: column; align-items: center; margin-top: -40px;""><img src=""images/demo_images/pattern_1.png"" style=""width: 234px; height: 230px; margin-top: -50px;""><div style=""display: flex; justify-content: space-between; margin-top: 33px;""><img src=""images/demo_images/choice_trial_1.png"" style=""width: 408px; height: 417px; margin-left:608px;""></div></div>",,delaylearn,learning,display_response,Sp1AqDKFWsVjNqH1Ytgcy5th6Jm2,Sp1AqDKFWsVjNqH1Ytgcy5th6Jm2,,,,,,,,,,,,,,,,,chosen stimuli: images/demo_images/choice_trial_1.png,,,,,6103d7b00cb90ef8d5c5260a,15:55:10,26/03/2024
html-keyboard-response,36,63626,0.0-15.0-2.0,,,,delaylearn,learning,feedback_duration_window,Sp1AqDKFWsVjNqH1Ytgcy5th6Jm2,Sp1AqDKFWsVjNqH1Ytgcy5th6Jm2,,,,,,,,,,,,,,,,,,3000.0,,,,6103d7b00cb90ef8d5c5260a,15:55:10,26/03/2024
html-keyboard-response,37,65135,0.0-15.0-3.0,,<div style='margin:auto;width: auto; font-size: 150%'><span style='font-weight: bold; font-size: 100px; color: green;'>+10 points!</span><br><br></div>,,delaylearn,learning,feedback_image_window,Sp1AqDKFWsVjNqH1Ytgcy5th6Jm2,Sp1AqDKFWsVjNqH1Ytgcy5th6Jm2,,,,,,,,,,,,,,,,,,,,,,6103d7b00cb90ef8d5c5260a,15:55:10,26/03/2024
html-keyboard-response,38,67501,0.0-16.0,,"<div style=""font-size:100px;"">+</div>",,delaylearn,learning,ITI,Sp1AqDKFWsVjNqH1Ytgcy5th6Jm2,Sp1AqDKFWsVjNqH1Ytgcy5th6Jm2,,,,,,,,,,,,,,,,,,,2352.0,,,6103d7b00cb90ef8d5c5260a,15:55:10,26/03/2024
html-keyboard-response,39,67852,0.0-17.0-0.0,348.30000001192093,"<div style=""display: flex; flex-direction: column; align-items: center; margin-top: -40px;""><img src=""images/demo_images/pattern_1.png"" style=""width: 234px; height: 230px; margin-top: -50px;""><div style=""display: flex; justify-content: space-between; margin-top: 33px;""><img src=""images/demo_images/choice_trial_1.png"" style=""width: 408px; height: 417px; margin-right: 200px;""><img src=""images/demo_images/choice_trial_2.png"" style=""width: 408px; height: 417px;""></div></div>",f,delaylearn,learning,trial,Sp1AqDKFWsVjNqH1Ytgcy5th6Jm2,Sp1AqDKFWsVjNqH1Ytgcy5th6Jm2,3.0,images/demo_images/choice_trial_1.png,images/demo_images/choice_trial_2.png,images/demo_images/pattern_1.png,f,f,3000.0,1.0,2.0,20.0,0.0,8.0,1.0,1.0,1.0,60.0,,,,,,6103d7b00cb90ef8d5c5260a,15:55:10,26/03/2024
html-keyboard-response,40,68867,0.0-17.0-1.0,,"<div style=""display: flex; flex-direction: column; align-items: center; margin-top: -40px;""><img src=""images/demo_images/pattern_1.png"" style=""width: 234px; height: 230px; margin-top: -50px;""><div style=""display: flex; justify-content: space-between; margin-top: 33px;""><img src=""images/demo_images/choice_trial_1.png"" style=""width: 408px; height: 417px; margin-right: 608px;""></div></div>",,delaylearn,learning,display_response,Sp1AqDKFWsVjNqH1Ytgcy5th6Jm2,Sp1AqDKFWsVjNqH1Ytgcy5th6Jm2,,,,,,,,,,,,,,,,,chosen stimuli: images/demo_images/choice_trial_1.png,,,,,6103d7b00cb90ef8d5c5260a,15:55:10,26/03/2024
html-keyboard-response,41,71875,0.0-17.0-2.0,,,,delaylearn,learning,feedback_duration_window,Sp1AqDKFWsVjNqH1Ytgcy5th6Jm2,Sp1AqDKFWsVjNqH1Ytgcy5th6Jm2,,,,,,,,,,,,,,,,,,3000.0,,,,6103d7b00cb90ef8d5c5260a,15:55:10,26/03/2024
html-keyboard-response,42,73380,0.0-17.0-3.0,,<div style='margin:auto;width: auto; font-size: 150%'><span style='font-weight: bold; font-size: 100px; color: green;'>+10 points!</span><br><br></div>,,delaylearn,learning,feedback_image_window,Sp1AqDKFWsVjNqH1Ytgcy5th6Jm2,Sp1AqDKFWsVjNqH1Ytgcy5th6Jm2,,,,,,,,,,,,,,,,,,,,,,6103d7b00cb90ef8d5c5260a,15:55:10,26/03/2024
html-button-response,43,81785,0.0-18.0,8403.5,"
  <div style=""display: flex; align-items: center; justify-content: center; height: 80vh;"">
  <div>
          <img src=""images/inst_demo_finish.png"" style=""width: 80vw; height:auto;"">
          <br><br>
      </div>
      <br><br>
  </div>",0,,,,Sp1AqDKFWsVjNqH1Ytgcy5th6Jm2,,,,,,,,,,,,,,,,,,,,,,,6103d7b00cb90ef8d5c5260a,15:55:10,26/03/2024
html-keyboard-response,44,88129,0.0-19.0,6342.5,"
  <div style=""display: flex; align-items: center; justify-content: center; height: 80vh;"">
  <div>
          <img src=""images/inst_6.png"" style=""width: 80vw; height:auto;"">
          <br><br>
      </div>
      <br><br>
  </div>",j,,,,Sp1AqDKFWsVjNqH1Ytgcy5th6Jm2,,,,,,,,,,,,,,,,,,,,,,,6103d7b00cb90ef8d5c5260a,15:55:10,26/03/2024
html-keyboard-response,45,91139,0.0-20.0,,"<div style=""font-size:100px;"">+</div>",,delaylearn,learning,pre_fixation,Sp1AqDKFWsVjNqH1Ytgcy5th6Jm2,,,,,,,,,,,,,,,,,,,,,,,6103d7b00cb90ef8d5c5260a,15:55:10,26/03/2024
html-keyboard-response,46,93131,0.0-21.0,,"<div style=""font-size:100px;"">+</div>",,delaylearn,learning,ITI,Sp1AqDKFWsVjNqH1Ytgcy5th6Jm2,Sp1AqDKFWsVjNqH1Ytgcy5th6Jm2,,,,,,,,,,,,,,,,,,,1975.0,,,6103d7b00cb90ef8d5c5260a,15:55:10,26/03/2024
html-keyboard-response,47,93759,0.0-22.0-0.0,625.6000000238419,"<div style=""display: flex; flex-direction: column; align-items: center; margin-top: -40px;""><img src=""images/pattern_3.png"" style=""width: 234px; height: 230px; margin-top: -50px;""><div style=""display: flex; justify-content: space-between; margin-top: 33px;""><img src=""images/choice_trial_13.png"" style=""width: 408px; height: 417px; margin-right: 200px;""><img src=""images/choice_trial_10.png"" style=""width: 408px; height: 417px;""></div></div>",f,delaylearn,learning,trial,Sp1AqDKFWsVjNqH1Ytgcy5th6Jm2,Sp1AqDKFWsVjNqH1Ytgcy5th6Jm2,3.0,images/choice_trial_13.png,images/choice_trial_10.png,images/pattern_3.png,f,f,7000.0,13.0,10.0,2.0,0.0,9.0,1.0,1.0,13.0,70.0,,,,,,6103d7b00cb90ef8d5c5260a,15:55:10,26/03/2024
html-keyboard-response,48,94770,0.0-22.0-1.0,,"<div style=""display: flex; flex-direction: column; align-items: center; margin-top: -40px;""><img src=""images/pattern_3.png"" style=""width: 234px; height: 230px; margin-top: -50px;""><div style=""display: flex; justify-content: space-between; margin-top: 33px;""><img src=""images/choice_trial_13.png"" style=""width: 408px; height: 417px; margin-right: 608px;""></div></div>",,delaylearn,learning,display_response,Sp1AqDKFWsVjNqH1Ytgcy5th6Jm2,Sp1AqDKFWsVjNqH1Ytgcy5th6Jm2,,,,,,,,,,,,,,,,,chosen stimuli: images/choice_trial_13.png,,,,,6103d7b00cb90ef8d5c5260a,15:55:10,26/03/2024
html-keyboard-response,49,101782,0.0-22.0-2.0,,,,delaylearn,learning,feedback_duration_window,Sp1AqDKFWsVjNqH1Ytgcy5th6Jm2,Sp1AqDKFWsVjNqH1Ytgcy5th6Jm2,,,,,,,,,,,,,,,,,,7000.0,,,,6103d7b00cb90ef8d5c5260a,15:55:10,26/03/2024
html-keyboard-response,50,103290,0.0-22.0-3.0,,<div style='margin:auto;width: auto; font-size: 150%'><span style='font-weight: bold; font-size: 100px; color: green;'>+10 points!</span><br><br></div>,,delaylearn,learning,feedback_image_window,Sp1AqDKFWsVjNqH1Ytgcy5th6Jm2,Sp1AqDKFWsVjNqH1Ytgcy5th6Jm2,,,,,,,,,,,,,,,,,,,,,,6103d7b00cb90ef8d5c5260a,15:55:10,26/03/2024
html-keyboard-response,51,104935,0.0-23.0,,"<div style=""font-size:100px;"">+</div>",,delaylearn,learning,ITI,Sp1AqDKFWsVjNqH1Ytgcy5th6Jm2,Sp1AqDKFWsVjNqH1Ytgcy5th6Jm2,,,,,,,,,,,,,,,,,,,1633.0,,,6103d7b00cb90ef8d5c5260a,15:55:10,26/03/2024
html-keyboard-response,52,105858,0.0-24.0-0.0,920.8999999761581,"<div style=""display: flex; flex-direction: column; align-items: center; margin-top: -40px;""><img src=""images/pattern_7.png"" style=""width: 234px; height: 230px; margin-top: -50px;""><div style=""display: flex; justify-content: space-between; margin-top: 33px;""><img src=""images/choice_trial_12.png"" style=""width: 408px; height: 417px; margin-right: 200px;""><img src=""images/choice_trial_6.png"" style=""width: 408px; height: 417px;""></div></div>",j,delaylearn,learning,trial,Sp1AqDKFWsVjNqH1Ytgcy5th6Jm2,Sp1AqDKFWsVjNqH1Ytgcy5th6Jm2,3.0,images/choice_trial_12.png,images/choice_trial_6.png,images/pattern_7.png,j,j,750.0,12.0,6.0,6.0,1.0,10.0,1.0,1.0,6.0,80.0,,,,,,6103d7b00cb90ef8d5c5260a,15:55:10,26/03/2024
html-keyboard-response,53,106864,0.0-24.0-1.0,,"<div style=""display: flex; flex-direction: column; align-items: center; margin-top: -40px;""><img src=""images/pattern_7.png"" style=""width: 234px; height: 230px; margin-top: -50px;""><div style=""display: flex; justify-content: space-between; margin-top: 33px;""><img src=""images/choice_trial_6.png"" style=""width: 408px; height: 417px; margin-left:608px;""></div></div>",,delaylearn,learning,display_response,Sp1AqDKFWsVjNqH1Ytgcy5th6Jm2,Sp1AqDKFWsVjNqH1Ytgcy5th6Jm2,,,,,,,,,,,,,,,,,chosen stimuli: images/choice_trial_6.png,,,,,6103d7b00cb90ef8d5c5260a,15:55:10,26/03/2024
html-keyboard-response,54,107627,0.0-24.0-2.0,,,,delaylearn,learning,feedback_duration_window,Sp1AqDKFWsVjNqH1Ytgcy5th6Jm2,Sp1AqDKFWsVjNqH1Ytgcy5th6Jm2,,,,,,,,,,,,,,,,,,750.0,,,,6103d7b00cb90ef8d5c5260a,15:55:10,26/03/2024
html-keyboard-response,55,109138,0.0-24.0-3.0,,<div style='margin:auto;width: auto; font-size: 150%'><span style='font-weight: bold; font-size: 100px; color: green;'>+10 points!</span><br><br></div>,,delaylearn,learning,feedback_image_window,Sp1AqDKFWsVjNqH1Ytgcy5th6Jm2,Sp1AqDKFWsVjNqH1Ytgcy5th6Jm2,,,,,,,,,,,,,,,,,,,,,,6103d7b00cb90ef8d5c5260a,15:55:10,26/03/2024
html-keyboard-response,56,110706,0.0-25.0,,"<div style=""font-size:100px;"">+</div>",,delaylearn,learning,ITI,Sp1AqDKFWsVjNqH1Ytgcy5th6Jm2,Sp1AqDKFWsVjNqH1Ytgcy5th6Jm2,,,,,,,,,,,,,,,,,,,1564.0,,,6103d7b00cb90ef8d5c5260a,15:55:10,26/03/2024
html-keyboard-response,57,111524,0.0-26.0-0.0,816.2999999523163,"<div style=""display: flex; flex-direction: column; align-items: center; margin-top: -40px;""><img src=""images/pattern_4.png"" style=""width: 234px; height: 230px; margin-top: -50px;""><div style=""display: flex; justify-content: space-between; margin-top: 33px;""><img src=""images/choice_trial_15.png"" style=""width: 408px; height: 417px; margin-right: 200px;""><img src=""images/choice_trial_9.png"" style=""width: 408px; height: 417px;""></div></div>",j,delaylearn,learning,trial,Sp1AqDKFWsVjNqH1Ytgcy5th6Jm2,Sp1AqDKFWsVjNqH1Ytgcy5th6Jm2,3.0,images/choice_trial_15.png,images/choice_trial_9.png,images/pattern_4.png,f,f,7000.0,15.0,9.0,3.0,0.0,11.0,0.0,0.0,9.0,80.0,,,,,,6103d7b00cb90ef8d5c5260a,15:55:10,26/03/2024
html-keyboard-response,58,112529,0.0-26.0-1.0,,"<div style=""display: flex; flex-direction: column; align-items: center; margin-top: -40px;""><img src=""images/pattern_4.png"" style=""width: 234px; height: 230px; margin-top: -50px;""><div style=""display: flex; justify-content: space-between; margin-top: 33px;""><img src=""images/choice_trial_9.png"" style=""width: 408px; height: 417px; margin-left:608px;""></div></div>",,delaylearn,learning,display_response,Sp1AqDKFWsVjNqH1Ytgcy5th6Jm2,Sp1AqDKFWsVjNqH1Ytgcy5th6Jm2,,,,,,,,,,,,,,,,,chosen stimuli: images/choice_trial_9.png,,,,,6103d7b00cb90ef8d5c5260a,15:55:10,26/03/2024
html-keyboard-response,59,119544,0.0-26.0-2.0,,,,delaylearn,learning,feedback_duration_window,Sp1AqDKFWsVjNqH1Ytgcy5th6Jm2,Sp1AqDKFWsVjNqH1Ytgcy5th6Jm2,,,,,,,,,,,,,,,,,,7000.0,,,,6103d7b00cb90ef8d5c5260a,15:55:10,26/03/2024
html-keyboard-response,60,121055,0.0-26.0-3.0,,<div style='margin:auto;width: auto; font-size: 150%'><span style='font-weight: bold; font-size: 100px; color: red;'>0 points!</span><br><br></div>,,delaylearn,learning,feedback_image_window,Sp1AqDKFWsVjNqH1Ytgcy5th6Jm2,Sp1AqDKFWsVjNqH1Ytgcy5th6Jm2,,,,,,,,,,,,,,,,,,,,,,6103d7b00cb90ef8d5c5260a,15:55:10,26/03/2024
html-keyboard-response,61,123335,0.0-27.0,,"<div style=""font-size:100px;"">+</div>",,delaylearn,learning,ITI,Sp1AqDKFWsVjNqH1Ytgcy5th6Jm2,Sp1AqDKFWsVjNqH1Ytgcy5th6Jm2,,,,,,,,,,,,,,,,,,,2274.0,,,6103d7b00cb90ef8d5c5260a,15:55:10,26/03/2024
html-keyboard-response,62,124302,0.0-28.0-0.0,965.6000000238419,"<div style=""display: flex; flex-direction: column; align-items: center; margin-top: -40px;""><img src=""images/pattern_5.png"" style=""width: 234px; height: 230px; margin-top: -50px;""><div style=""display: flex; justify-content: space-between; margin-top: 33px;""><img src=""images/choice_trial_2.png"" style=""width: 408px; height: 417px; margin-right: 200px;""><img src=""images/choice_trial_11.png"" style=""width: 408px; height: 417px;""></div></div>",f,delaylearn,learning,trial,Sp1AqDKFWsVjNqH1Ytgcy5th6Jm2,Sp1AqDKFWsVjNqH1Ytgcy5th6Jm2,3.0,images/choice_trial_2.png,images/choice_trial_11.png,images/pattern_5.png,j,j,750.0,2.0,11.0,4.0,1.0,12.0,0.0,0.0,2.0,80.0,,,,,,6103d7b00cb90ef8d5c5260a,15:55:10,26/03/2024
html-keyboard-response,63,125318,0.0-28.0-1.0,,"<div style=""display: flex; flex-direction: column; align-items: center; margin-top: -40px;""><img src=""images/pattern_5.png"" style=""width: 234px; height: 230px; margin-top: -50px;""><div style=""display: flex; justify-content: space-between; margin-top: 33px;""><img src=""images/choice_trial_2.png"" style=""width: 408px; height: 417px; margin-right: 608px;""></div></div>",,delaylearn,learning,display_response,Sp1AqDKFWsVjNqH1Ytgcy5th6Jm2,Sp1AqDKFWsVjNqH1Ytgcy5th6Jm2,,,,,,,,,,,,,,,,,chosen stimuli: images/choice_trial_2.png,,,,,6103d7b00cb90ef8d5c5260a,15:55:10,26/03/2024
html-keyboard-response,64,126083,0.0-28.0-2.0,,,,delaylearn,learning,feedback_duration_window,Sp1AqDKFWsVjNqH1Ytgcy5th6Jm2,Sp1AqDKFWsVjNqH1Ytgcy5th6Jm2,,,,,,,,,,,,,,,,,,750.0,,,,6103d7b00cb90ef8d5c5260a,15:55:10,26/03/2024
html-keyboard-response,65,127590,0.0-28.0-3.0,,<div style='margin:auto;width: auto; font-size: 150%'><span style='font-weight: bold; font-size: 100px; color: red;'>0 points!</span><br><br></div>,,delaylearn,learning,feedback_image_window,Sp1AqDKFWsVjNqH1Ytgcy5th6Jm2,Sp1AqDKFWsVjNqH1Ytgcy5th6Jm2,,,,,,,,,,,,,,,,,,,,,,6103d7b00cb90ef8d5c5260a,15:55:10,26/03/2024
html-keyboard-response,66,130053,0.0-29.0,,"<div style=""font-size:100px;"">+</div>",,delaylearn,learning,ITI,Sp1AqDKFWsVjNqH1Ytgcy5th6Jm2,Sp1AqDKFWsVjNqH1Ytgcy5th6Jm2,,,,,,,,,,,,,,,,,,,2460.0,,,6103d7b00cb90ef8d5c5260a,15:55:10,26/03/2024
html-keyboard-response,67,130801,0.0-30.0-0.0,746.0999999642372,"<div style=""display: flex; flex-direction: column; align-items: center; margin-top: -40px;""><img src=""images/pattern_6.png"" style=""width: 234px; height: 230px; margin-top: -50px;""><div style=""display: flex; justify-content: space-between; margin-top: 33px;""><img src=""images/choice_trial_16.png"" style=""width: 408px; height: 417px; margin-right: 200px;""><img src=""images/choice_trial_3.png"" style=""width: 408px; height: 417px;""></div></div>",f,delaylearn,learning,trial,Sp1AqDKFWsVjNqH1Ytgcy5th6Jm2,Sp1AqDKFWsVjNqH1Ytgcy5th6Jm2,3.0,images/choice_trial_16.png,images/choice_trial_3.png,images/pattern_6.png,j,f,750.0,16.0,3.0,5.0,0.0,13.0,1.0,0.0,16.0,80.0,,,,,,6103d7b00cb90ef8d5c5260a,15:55:10,26/03/2024
html-keyboard-response,68,131810,0.0-30.0-1.0,,"<div style=""display: flex; flex-direction: column; align-items: center; margin-top: -40px;""><img src=""images/pattern_6.png"" style=""width: 234px; height: 230px; margin-top: -50px;""><div style=""display: flex; justify-content: space-between; margin-top: 33px;""><img src=""images/choice_trial_16.png"" style=""width: 408px; height: 417px; margin-right: 608px;""></div></div>",,delaylearn,learning,display_response,Sp1AqDKFWsVjNqH1Ytgcy5th6Jm2,Sp1AqDKFWsVjNqH1Ytgcy5th6Jm2,,,,,,,,,,,,,,,,,chosen stimuli: images/choice_trial_16.png,,,,,6103d7b00cb90ef8d5c5260a,15:55:10,26/03/2024
html-keyboard-response,69,132572,0.0-30.0-2.0,,,,delaylearn,learning,feedback_duration_window,Sp1AqDKFWsVjNqH1Ytgcy5th6Jm2,Sp1AqDKFWsVjNqH1Ytgcy5th6Jm2,,,,,,,,,,,,,,,,,,750.0,,,,6103d7b00cb90ef8d5c5260a,15:55:10,26/03/2024
html-keyboard-response,70,134084,0.0-30.0-3.0,,<div style='margin:auto;width: auto; font-size: 150%'><span style='font-weight: bold; font-size: 100px; color: red;'>0 points!</span><br><br></div>,,delaylearn,learning,feedback_image_window,Sp1AqDKFWsVjNqH1Ytgcy5th6Jm2,Sp1AqDKFWsVjNqH1Ytgcy5th6Jm2,,,,,,,,,,,,,,,,,,,,,,6103d7b00cb90ef8d5c5260a,15:55:10,26/03/2024
html-keyboard-response,71,134596,0.0-31.0-0.0,,,,,,mood_trial_fixation,Sp1AqDKFWsVjNqH1Ytgcy5th6Jm2,,,,,,,,,,,,,,,,,,,,,,,6103d7b00cb90ef8d5c5260a,15:55:10,26/03/2024
lmdlab-html-vas-response,72,139235,0.0-31.0-1.0,3630.0,How happy are you right now?,0.3888888888888889,delaylearn,learning,mood_trial,Sp1AqDKFWsVjNqH1Ytgcy5th6Jm2,Sp1AqDKFWsVjNqH1Ytgcy5th6Jm2,,,,,,,,,,,,,,,,,,,,"['Very unhappy', 'Very happy']",,6103d7b00cb90ef8d5c5260a,15:55:10,26/03/2024
html-keyboard-response,73,140754,0.0-32.0,,"<div style=""font-size:100px;"">+</div>",,delaylearn,learning,ITI,Sp1AqDKFWsVjNqH1Ytgcy5th6Jm2,Sp1AqDKFWsVjNqH1Ytgcy5th6Jm2,,,,,,,,,,,,,,,,,,,1513.0,,,6103d7b00cb90ef8d5c5260a,15:55:10,26/03/2024
html-keyboard-response,74,141916,0.0-33.0-0.0,1159.8999999761581,"<div style=""display: flex; flex-direction: column; align-items: center; margin-top: -40px;""><img src=""images/pattern_1.png"" style=""width: 234px; height: 230px; margin-top: -50px;""><div style=""display: flex; justify-content: space-between; margin-top: 33px;""><img src=""images/choice_trial_8.png"" style=""width: 408px; height: 417px; margin-right: 200px;""><img src=""images/choice_trial_14.png"" style=""width: 408px; height: 417px;""></div></div>",f,delaylearn,learning,trial,Sp1AqDKFWsVjNqH1Ytgcy5th6Jm2,Sp1AqDKFWsVjNqH1Ytgcy5th6Jm2,3.0,images/choice_trial_8.png,images/choice_trial_14.png,images/pattern_1.png,j,j,7000.0,8.0,14.0,1.0,1.0,14.0,0.0,0.0,8.0,80.0,,,,,,6103d7b00cb90ef8d5c5260a,15:55:10,26/03/2024
html-keyboard-response,75,142919,0.0-33.0-1.0,,"<div style=""display: flex; flex-direction: column; align-items: center; margin-top: -40px;""><img src=""images/pattern_1.png"" style=""width: 234px; height: 230px; margin-top: -50px;""><div style=""display: flex; justify-content: space-between; margin-top: 33px;""><img src=""images/choice_trial_8.png"" style=""width: 408px; height: 417px; margin-right: 608px;""></div></div>",,delaylearn,learning,display_response,Sp1AqDKFWsVjNqH1Ytgcy5th6Jm2,Sp1AqDKFWsVjNqH1Ytgcy5th6Jm2,,,,,,,,,,,,,,,,,chosen stimuli: images/choice_trial_8.png,,,,,6103d7b00cb90ef8d5c5260a,15:55:10,26/03/2024
html-keyboard-response,76,149931,0.0-33.0-2.0,,,,delaylearn,learning,feedback_duration_window,Sp1AqDKFWsVjNqH1Ytgcy5th6Jm2,Sp1AqDKFWsVjNqH1Ytgcy5th6Jm2,,,,,,,,,,,,,,,,,,7000.0,,,,6103d7b00cb90ef8d5c5260a,15:55:10,26/03/2024
html-keyboard-response,77,151437,0.0-33.0-3.0,,<div style='margin:auto;width: auto; font-size: 150%'><span style='font-weight: bold; font-size: 100px; color: red;'>0 points!</span><br><br></div>,,delaylearn,learning,feedback_image_window,Sp1AqDKFWsVjNqH1Ytgcy5th6Jm2,Sp1AqDKFWsVjNqH1Ytgcy5th6Jm2,,,,,,,,,,,,,,,,,,,,,,6103d7b00cb90ef8d5c5260a,15:55:10,26/03/2024
html-keyboard-response,78,153539,0.0-34.0,,"<div style=""font-size:100px;"">+</div>",,delaylearn,learning,ITI,Sp1AqDKFWsVjNqH1Ytgcy5th6Jm2,Sp1AqDKFWsVjNqH1Ytgcy5th6Jm2,,,,,,,,,,,,,,,,,,,2098.0,,,6103d7b00cb90ef8d5c5260a,15:55:10,26/03/2024
html-keyboard-response,79,154782,0.0-35.0-0.0,1241.5999999642372,"<div style=""display: flex; flex-direction: column; align-items: center; margin-top: -40px;""><img src=""images/pattern_3.png"" style=""width: 234px; height: 230px; margin-top: -50px;""><div style=""display: flex; justify-content: space-between; margin-top: 33px;""><img src=""images/choice_trial_10.png"" style=""width: 408px; height: 417px; margin-right: 200px;""><img src=""images/choice_trial_13.png"" style=""width: 408px; height: 417px;""></div></div>",j,delaylearn,learning,trial,Sp1AqDKFWsVjNqH1Ytgcy5th6Jm2,Sp1AqDKFWsVjNqH1Ytgcy5th6Jm2,3.0,images/choice_trial_10.png,images/choice_trial_13.png,images/pattern_3.png,f,j,7000.0,10.0,13.0,2.0,1.0,15.0,1.0,0.0,13.0,80.0,,,,,,6103d7b00cb90ef8d5c5260a,15:55:10,26/03/2024
html-keyboard-response,80,155798,0.0-35.0-1.0,,"<div style=""display: flex; flex-direction: column; align-items: center; margin-top: -40px;""><img src=""images/pattern_3.png"" style=""width: 234px; height: 230px; margin-top: -50px;""><div style=""display: flex; justify-content: space-between; margin-top: 33px;""><img src=""images/choice_trial_13.png"" style=""width: 408px; height: 417px; margin-left:608px;""></div></div>",,delaylearn,learning,display_response,Sp1AqDKFWsVjNqH1Ytgcy5th6Jm2,Sp1AqDKFWsVjNqH1Ytgcy5th6Jm2,,,,,,,,,,,,,,,,,chosen stimuli: images/choice_trial_13.png,,,,,6103d7b00cb90ef8d5c5260a,15:55:10,26/03/2024
html-keyboard-response,81,162803,0.0-35.0-2.0,,,,delaylearn,learning,feedback_duration_window,Sp1AqDKFWsVjNqH1Ytgcy5th6Jm2,Sp1AqDKFWsVjNqH1Ytgcy5th6Jm2,,,,,,,,,,,,,,,,,,7000.0,,,,6103d7b00cb90ef8d5c5260a,15:55:10,26/03/2024
html-keyboard-response,82,164307,0.0-35.0-3.0,,<div style='margin:auto;width: auto; font-size: 150%'><span style='font-weight: bold; font-size: 100px; color: red;'>0 points!</span><br><br></div>,,delaylearn,learning,feedback_image_window,Sp1AqDKFWsVjNqH1Ytgcy5th6Jm2,Sp1AqDKFWsVjNqH1Ytgcy5th6Jm2,,,,,,,,,,,,,,,,,,,,,,6103d7b00cb90ef8d5c5260a,15:55:10,26/03/2024
html-keyboard-response,83,166585,0.0-36.0,,"<div style=""font-size:100px;"">+</div>",,delaylearn,learning,ITI,Sp1AqDKFWsVjNqH1Ytgcy5th6Jm2,Sp1AqDKFWsVjNqH1Ytgcy5th6Jm2,,,,,,,,,,,,,,,,,,,2266.0,,,6103d7b00cb90ef8d5c5260a,15:55:10,26/03/2024
html-keyboard-response,84,168424,0.0-37.0-0.0,1836.1000000238419,"<div style=""display: flex; flex-direction: column; align-items: center; margin-top: -40px;""><img src=""images/pattern_5.png"" style=""width: 234px; height: 230px; margin-top: -50px;""><div style=""display: flex; justify-content: space-between; margin-top: 33px;""><img src=""images/choice_trial_11.png"" style=""width: 408px; height: 417px; margin-right: 200px;""><img src=""images/choice_trial_2.png"" style=""width: 408px; height: 417px;""></div></div>",f,delaylearn,learning,trial,Sp1AqDKFWsVjNqH1Ytgcy5th6Jm2,Sp1AqDKFWsVjNqH1Ytgcy5th6Jm2,3.0,images/choice_trial_11.png,images/choice_trial_2.png,images/pattern_5.png,f,f,750.0,11.0,2.0,4.0,0.0,16.0,1.0,1.0,11.0,90.0,,,,,,6103d7b00cb90ef8d5c5260a,15:55:10,26/03/2024
html-keyboard-response,85,169431,0.0-37.0-1.0,,"<div style=""display: flex; flex-direction: column; align-items: center; margin-top: -40px;""><img src=""images/pattern_5.png"" style=""width: 234px; height: 230px; margin-top: -50px;""><div style=""display: flex; justify-content: space-between; margin-top: 33px;""><img src=""images/choice_trial_11.png"" style=""width: 408px; height: 417px; margin-right: 608px;""></div></div>",,delaylearn,learning,display_response,Sp1AqDKFWsVjNqH1Ytgcy5th6Jm2,Sp1AqDKFWsVjNqH1Ytgcy5th6Jm2,,,,,,,,,,,,,,,,,chosen stimuli: images/choice_trial_11.png,,,,,6103d7b00cb90ef8d5c5260a,15:55:10,26/03/2024
html-keyboard-response,86,170194,0.0-37.0-2.0,,,,delaylearn,learning,feedback_duration_window,Sp1AqDKFWsVjNqH1Ytgcy5th6Jm2,Sp1AqDKFWsVjNqH1Ytgcy5th6Jm2,,,,,,,,,,,,,,,,,,750.0,,,,6103d7b00cb90ef8d5c5260a,15:55:10,26/03/2024
html-keyboard-response,87,171705,0.0-37.0-3.0,,<div style='margin:auto;width: auto; font-size: 150%'><span style='font-weight: bold; font-size: 100px; color: green;'>+10 points!</span><br><br></div>,,delaylearn,learning,feedback_image_window,Sp1AqDKFWsVjNqH1Ytgcy5th6Jm2,Sp1AqDKFWsVjNqH1Ytgcy5th6Jm2,,,,,,,,,,,,,,,,,,,,,,6103d7b00cb90ef8d5c5260a,15:55:10,26/03/2024
html-keyboard-response,88,172220,0.0-38.0-0.0,,,,,,mood_trial_fixation,Sp1AqDKFWsVjNqH1Ytgcy5th6Jm2,,,,,,,,,,,,,,,,,,,,,,,6103d7b00cb90ef8d5c5260a,15:55:10,26/03/2024
lmdlab-html-vas-response,89,177149,0.0-38.0-1.0,3919.0,How happy are you right now?,0.3773148148148148,delaylearn,learning,mood_trial,Sp1AqDKFWsVjNqH1Ytgcy5th6Jm2,Sp1AqDKFWsVjNqH1Ytgcy5th6Jm2,,,,,,,,,,,,,,,,,,,,"['Very unhappy', 'Very happy']",,6103d7b00cb90ef8d5c5260a,15:55:10,26/03/2024
html-keyboard-response,90,178946,0.0-39.0,,"<div style=""font-size:100px;"">+</div>",,delaylearn,learning,ITI,Sp1AqDKFWsVjNqH1Ytgcy5th6Jm2,Sp1AqDKFWsVjNqH1Ytgcy5th6Jm2,,,,,,,,,,,,,,,,,,,1780.0,,,6103d7b00cb90ef8d5c5260a,15:55:10,26/03/2024
html-keyboard-response,91,180198,0.0-40.0-0.0,1250.699999988079,"<div style=""display: flex; flex-direction: column; align-items: center; margin-top: -40px;""><img src=""images/pattern_6.png"" style=""width: 234px; height: 230px; margin-top: -50px;""><div style=""display: flex; justify-content: space-between; margin-top: 33px;""><img src=""images/choice_trial_16.png"" style=""width: 408px; height: 417px; margin-right: 200px;""><img src=""images/choice_trial_3.png"" style=""width: 408px; height: 417px;""></div></div>",j,delaylearn,learning,trial,Sp1AqDKFWsVjNqH1Ytgcy5th6Jm2,Sp1AqDKFWsVjNqH1Ytgcy5th6Jm2,3.0,images/choice_trial_16.png,images/choice_trial_3.png,images/pattern_6.png,f,f,750.0,16.0,3.0,5.0,0.0,17.0,0.0,0.0,3.0,90.0,,,,,,6103d7b00cb90ef8d5c5260a,15:55:10,26/03/2024
html-keyboard-response,92,181202,0.0-40.0-1.0,,"<div style=""display: flex; flex-direction: column; align-items: center; margin-top: -40px;""><img src=""images/pattern_6.png"" style=""width: 234px; height: 230px; margin-top: -50px;""><div style=""display: flex; justify-content: space-between; margin-top: 33px;""><img src=""images/choice_trial_3.png"" style=""width: 408px; height: 417px; margin-left:608px;""></div></div>",,delaylearn,learning,display_response,Sp1AqDKFWsVjNqH1Ytgcy5th6Jm2,Sp1AqDKFWsVjNqH1Ytgcy5th6Jm2,,,,,,,,,,,,,,,,,chosen stimuli: images/choice_trial_3.png,,,,,6103d7b00cb90ef8d5c5260a,15:55:10,26/03/2024
html-keyboard-response,93,181965,0.0-40.0-2.0,,,,delaylearn,learning,feedback_duration_window,Sp1AqDKFWsVjNqH1Ytgcy5th6Jm2,Sp1AqDKFWsVjNqH1Ytgcy5th6Jm2,,,,,,,,,,,,,,,,,,750.0,,,,6103d7b00cb90ef8d5c5260a,15:55:10,26/03/2024
html-keyboard-response,94,183471,0.0-40.0-3.0,,<div style='margin:auto;width: auto; font-size: 150%'><span style='font-weight: bold; font-size: 100px; color: red;'>0 points!</span><br><br></div>,,delaylearn,learning,feedback_image_window,Sp1AqDKFWsVjNqH1Ytgcy5th6Jm2,Sp1AqDKFWsVjNqH1Ytgcy5th6Jm2,,,,,,,,,,,,,,,,,,,,,,6103d7b00cb90ef8d5c5260a,15:55:10,26/03/2024
html-keyboard-response,95,185186,0.0-41.0,,"<div style=""font-size:100px;"">+</div>",,delaylearn,learning,ITI,Sp1AqDKFWsVjNqH1Ytgcy5th6Jm2,Sp1AqDKFWsVjNqH1Ytgcy5th6Jm2,,,,,,,,,,,,,,,,,,,1711.0,,,6103d7b00cb90ef8d5c5260a,15:55:10,26/03/2024
html-keyboard-response,96,186480,0.0-42.0-0.0,1291.6000000238419,"<div style=""display: flex; flex-direction: column; align-items: center; margin-top: -40px;""><img src=""images/pattern_4.png"" style=""width: 234px; height: 230px; margin-top: -50px;""><div style=""display: flex; justify-content: space-between; margin-top: 33px;""><img src=""images/choice_trial_9.png"" style=""width: 408px; height: 417px; margin-right: 200px;""><img src=""images/choice_trial_15.png"" style=""width: 408px; height: 417px;""></div></div>",j,delaylearn,learning,trial,Sp1AqDKFWsVjNqH1Ytgcy5th6Jm2,Sp1AqDKFWsVjNqH1Ytgcy5th6Jm2,3.0,images/choice_trial_9.png,images/choice_trial_15.png,images/pattern_4.png,j,j,7000.0,9.0,15.0,3.0,1.0,18.0,1.0,1.0,15.0,100.0,,,,,,6103d7b00cb90ef8d5c5260a,15:55:10,26/03/2024
html-keyboard-response,97,187486,0.0-42.0-1.0,,"<div style=""display: flex; flex-direction: column; align-items: center; margin-top: -40px;""><img src=""images/pattern_4.png"" style=""width: 234px; height: 230px; margin-top: -50px;""><div style=""display: flex; justify-content: space-between; margin-top: 33px;""><img src=""images/choice_trial_15.png"" style=""width: 408px; height: 417px; margin-left:608px;""></div></div>",,delaylearn,learning,display_response,Sp1AqDKFWsVjNqH1Ytgcy5th6Jm2,Sp1AqDKFWsVjNqH1Ytgcy5th6Jm2,,,,,,,,,,,,,,,,,chosen stimuli: images/choice_trial_15.png,,,,,6103d7b00cb90ef8d5c5260a,15:55:10,26/03/2024
html-keyboard-response,98,194500,0.0-42.0-2.0,,,,delaylearn,learning,feedback_duration_window,Sp1AqDKFWsVjNqH1Ytgcy5th6Jm2,Sp1AqDKFWsVjNqH1Ytgcy5th6Jm2,,,,,,,,,,,,,,,,,,7000.0,,,,6103d7b00cb90ef8d5c5260a,15:55:10,26/03/2024
html-keyboard-response,99,196006,0.0-42.0-3.0,,<div style='margin:auto;width: auto; font-size: 150%'><span style='font-weight: bold; font-size: 100px; color: green;'>+10 points!</span><br><br></div>,,delaylearn,learning,feedback_image_window,Sp1AqDKFWsVjNqH1Ytgcy5th6Jm2,Sp1AqDKFWsVjNqH1Ytgcy5th6Jm2,,,,,,,,,,,,,,,,,,,,,,6103d7b00cb90ef8d5c5260a,15:55:10,26/03/2024
html-keyboard-response,100,197713,0.0-43.0,,"<div style=""font-size:100px;"">+</div>",,delaylearn,learning,ITI,Sp1AqDKFWsVjNqH1Ytgcy5th6Jm2,Sp1AqDKFWsVjNqH1Ytgcy5th6Jm2,,,,,,,,,,,,,,,,,,,1706.0,,,6103d7b00cb90ef8d5c5260a,15:55:10,26/03/2024
html-keyboard-response,101,198714,0.0-44.0-0.0,999.3999999761581,"<div style=""display: flex; flex-direction: column; align-items: center; margin-top: -40px;""><img src=""images/pattern_7.png"" style=""width: 234px; height: 230px; margin-top: -50px;""><div style=""display: flex; justify-content: space-between; margin-top: 33px;""><img src=""images/choice_trial_6.png"" style=""width: 408px; height: 417px; margin-right: 200px;""><img src=""images/choice_trial_12.png"" style=""width: 408px; height: 417px;""></div></div>",j,delaylearn,learning,trial,Sp1AqDKFWsVjNqH1Ytgcy5th6Jm2,Sp1AqDKFWsVjNqH1Ytgcy5th6Jm2,3.0,images/choice_trial_6.png,images/choice_trial_12.png,images/pattern_7.png,j,f,750.0,6.0,12.0,6.0,0.0,19.0,0.0,1.0,12.0,110.0,,,,,,6103d7b00cb90ef8d5c5260a,15:55:10,26/03/2024
html-keyboard-response,102,199719,0.0-44.0-1.0,,"<div style=""display: flex; flex-direction: column; align-items: center; margin-top: -40px;""><img src=""images/pattern_7.png"" style=""width: 234px; height: 230px; margin-top: -50px;""><div style=""display: flex; justify-content: space-between; margin-top: 33px;""><img src=""images/choice_trial_12.png"" style=""width: 408px; height: 417px; margin-left:608px;""></div></div>",,delaylearn,learning,display_response,Sp1AqDKFWsVjNqH1Ytgcy5th6Jm2,Sp1AqDKFWsVjNqH1Ytgcy5th6Jm2,,,,,,,,,,,,,,,,,chosen stimuli: images/choice_trial_12.png,,,,,6103d7b00cb90ef8d5c5260a,15:55:10,26/03/2024
html-keyboard-response,103,200480,0.0-44.0-2.0,,,,delaylearn,learning,feedback_duration_window,Sp1AqDKFWsVjNqH1Ytgcy5th6Jm2,Sp1AqDKFWsVjNqH1Ytgcy5th6Jm2,,,,,,,,,,,,,,,,,,750.0,,,,6103d7b00cb90ef8d5c5260a,15:55:10,26/03/2024
html-keyboard-response,104,201986,0.0-44.0-3.0,,<div style='margin:auto;width: auto; font-size: 150%'><span style='font-weight: bold; font-size: 100px; color: green;'>+10 points!</span><br><br></div>,,delaylearn,learning,feedback_image_window,Sp1AqDKFWsVjNqH1Ytgcy5th6Jm2,Sp1AqDKFWsVjNqH1Ytgcy5th6Jm2,,,,,,,,,,,,,,,,,,,,,,6103d7b00cb90ef8d5c5260a,15:55:10,26/03/2024
html-keyboard-response,105,203648,0.0-45.0,,"<div style=""font-size:100px;"">+</div>",,delaylearn,learning,ITI,Sp1AqDKFWsVjNqH1Ytgcy5th6Jm2,Sp1AqDKFWsVjNqH1Ytgcy5th6Jm2,,,,,,,,,,,,,,,,,,,1650.0,,,6103d7b00cb90ef8d5c5260a,15:55:10,26/03/2024
html-keyboard-response,106,205453,0.0-46.0-0.0,1802.5999999642372,"<div style=""display: flex; flex-direction: column; align-items: center; margin-top: -40px;""><img src=""images/pattern_1.png"" style=""width: 234px; height: 230px; margin-top: -50px;""><div style=""display: flex; justify-content: space-between; margin-top: 33px;""><img src=""images/choice_trial_14.png"" style=""width: 408px; height: 417px; margin-right: 200px;""><img src=""images/choice_trial_8.png"" style=""width: 408px; height: 417px;""></div></div>",f,delaylearn,learning,trial,Sp1AqDKFWsVjNqH1Ytgcy5th6Jm2,Sp1AqDKFWsVjNqH1Ytgcy5th6Jm2,3.0,images/choice_trial_14.png,images/choice_trial_8.png,images/pattern_1.png,f,f,7000.0,14.0,8.0,1.0,0.0,20.0,1.0,1.0,14.0,120.0,,,,,,6103d7b00cb90ef8d5c5260a,15:55:10,26/03/2024
html-keyboard-response,107,206460,0.0-46.0-1.0,,"<div style=""display: flex; flex-direction: column; align-items: center; margin-top: -40px;""><img src=""images/pattern_1.png"" style=""width: 234px; height: 230px; margin-top: -50px;""><div style=""display: flex; justify-content: space-between; margin-top: 33px;""><img src=""images/choice_trial_14.png"" style=""width: 408px; height: 417px; margin-right: 608px;""></div></div>",,delaylearn,learning,display_response,Sp1AqDKFWsVjNqH1Ytgcy5th6Jm2,Sp1AqDKFWsVjNqH1Ytgcy5th6Jm2,,,,,,,,,,,,,,,,,chosen stimuli: images/choice_trial_14.png,,,,,6103d7b00cb90ef8d5c5260a,15:55:10,26/03/2024
html-keyboard-response,108,213465,0.0-46.0-2.0,,,,delaylearn,learning,feedback_duration_window,Sp1AqDKFWsVjNqH1Ytgcy5th6Jm2,Sp1AqDKFWsVjNqH1Ytgcy5th6Jm2,,,,,,,,,,,,,,,,,,7000.0,,,,6103d7b00cb90ef8d5c5260a,15:55:10,26/03/2024
html-keyboard-response,109,214975,0.0-46.0-3.0,,<div style='margin:auto;width: auto; font-size: 150%'><span style='font-weight: bold; font-size: 100px; color: green;'>+10 points!</span><br><br></div>,,delaylearn,learning,feedback_image_window,Sp1AqDKFWsVjNqH1Ytgcy5th6Jm2,Sp1AqDKFWsVjNqH1Ytgcy5th6Jm2,,,,,,,,,,,,,,,,,,,,,,6103d7b00cb90ef8d5c5260a,15:55:10,26/03/2024
html-keyboard-response,110,217044,0.0-47.0,,"<div style=""font-size:100px;"">+</div>",,delaylearn,learning,ITI,Sp1AqDKFWsVjNqH1Ytgcy5th6Jm2,Sp1AqDKFWsVjNqH1Ytgcy5th6Jm2,,,,,,,,,,,,,,,,,,,2065.0,,,6103d7b00cb90ef8d5c5260a,15:55:10,26/03/2024
html-keyboard-response,111,218623,0.0-48.0-0.0,1576.8999999761581,"<div style=""display: flex; flex-direction: column; align-items: center; margin-top: -40px;""><img src=""images/pattern_6.png"" style=""width: 234px; height: 230px; margin-top: -50px;""><div style=""display: flex; justify-content: space-between; margin-top: 33px;""><img src=""images/choice_trial_3.png"" style=""width: 408px; height: 417px; margin-right: 200px;""><img src=""images/choice_trial_16.png"" style=""width: 408px; height: 417px;""></div></div>",f,delaylearn,learning,trial,Sp1AqDKFWsVjNqH1Ytgcy5th6Jm2,Sp1AqDKFWsVjNqH1Ytgcy5th6Jm2,3.0,images/choice_trial_3.png,images/choice_trial_16.png,images/pattern_6.png,j,j,750.0,3.0,16.0,5.0,1.0,21.0,0.0,0.0,3.0,120.0,,,,,,6103d7b00cb90ef8d5c5260a,15:55:10,26/03/2024
html-keyboard-response,112,219640,0.0-48.0-1.0,,"<div style=""display: flex; flex-direction: column; align-items: center; margin-top: -40px;""><img src=""images/pattern_6.png"" style=""width: 234px; height: 230px; margin-top: -50px;""><div style=""display: flex; justify-content: space-between; margin-top: 33px;""><img src=""images/choice_trial_3.png"" style=""width: 408px; height: 417px; margin-right: 608px;""></div></div>",,delaylearn,learning,display_response,Sp1AqDKFWsVjNqH1Ytgcy5th6Jm2,Sp1AqDKFWsVjNqH1Ytgcy5th6Jm2,,,,,,,,,,,,,,,,,chosen stimuli: images/choice_trial_3.png,,,,,6103d7b00cb90ef8d5c5260a,15:55:10,26/03/2024
html-keyboard-response,113,220401,0.0-48.0-2.0,,,,delaylearn,learning,feedback_duration_window,Sp1AqDKFWsVjNqH1Ytgcy5th6Jm2,Sp1AqDKFWsVjNqH1Ytgcy5th6Jm2,,,,,,,,,,,,,,,,,,750.0,,,,6103d7b00cb90ef8d5c5260a,15:55:10,26/03/2024
html-keyboard-response,114,221911,0.0-48.0-3.0,,<div style='margin:auto;width: auto; font-size: 150%'><span style='font-weight: bold; font-size: 100px; color: red;'>0 points!</span><br><br></div>,,delaylearn,learning,feedback_image_window,Sp1AqDKFWsVjNqH1Ytgcy5th6Jm2,Sp1AqDKFWsVjNqH1Ytgcy5th6Jm2,,,,,,,,,,,,,,,,,,,,,,6103d7b00cb90ef8d5c5260a,15:55:10,26/03/2024
html-keyboard-response,115,224281,0.0-49.0,,"<div style=""font-size:100px;"">+</div>",,delaylearn,learning,ITI,Sp1AqDKFWsVjNqH1Ytgcy5th6Jm2,Sp1AqDKFWsVjNqH1Ytgcy5th6Jm2,,,,,,,,,,,,,,,,,,,2363.0,,,6103d7b00cb90ef8d5c5260a,15:55:10,26/03/2024
html-keyboard-response,116,225485,0.0-50.0-0.0,1202.300000011921,"<div style=""display: flex; flex-direction: column; align-items: center; margin-top: -40px;""><img src=""images/pattern_4.png"" style=""width: 234px; height: 230px; margin-top: -50px;""><div style=""display: flex; justify-content: space-between; margin-top: 33px;""><img src=""images/choice_trial_15.png"" style=""width: 408px; height: 417px; margin-right: 200px;""><img src=""images/choice_trial_9.png"" style=""width: 408px; height: 417px;""></div></div>",f,delaylearn,learning,trial,Sp1AqDKFWsVjNqH1Ytgcy5th6Jm2,Sp1AqDKFWsVjNqH1Ytgcy5th6Jm2,3.0,images/choice_trial_15.png,images/choice_trial_9.png,images/pattern_4.png,f,f,7000.0,15.0,9.0,3.0,0.0,22.0,1.0,1.0,15.0,130.0,,,,,,6103d7b00cb90ef8d5c5260a,15:55:10,26/03/2024
html-keyboard-response,117,226503,0.0-50.0-1.0,,"<div style=""display: flex; flex-direction: column; align-items: center; margin-top: -40px;""><img src=""images/pattern_4.png"" style=""width: 234px; height: 230px; margin-top: -50px;""><div style=""display: flex; justify-content: space-between; margin-top: 33px;""><img src=""images/choice_trial_15.png"" style=""width: 408px; height: 417px; margin-right: 608px;""></div></div>",,delaylearn,learning,display_response,Sp1AqDKFWsVjNqH1Ytgcy5th6Jm2,Sp1AqDKFWsVjNqH1Ytgcy5th6Jm2,,,,,,,,,,,,,,,,,chosen stimuli: images/choice_trial_15.png,,,,,6103d7b00cb90ef8d5c5260a,15:55:10,26/03/2024
html-keyboard-response,118,233504,0.0-50.0-2.0,,,,delaylearn,learning,feedback_duration_window,Sp1AqDKFWsVjNqH1Ytgcy5th6Jm2,Sp1AqDKFWsVjNqH1Ytgcy5th6Jm2,,,,,,,,,,,,,,,,,,7000.0,,,,6103d7b00cb90ef8d5c5260a,15:55:10,26/03/2024
html-keyboard-response,119,235016,0.0-50.0-3.0,,<div style='margin:auto;width: auto; font-size: 150%'><span style='font-weight: bold; font-size: 100px; color: green;'>+10 points!</span><br><br></div>,,delaylearn,learning,feedback_image_window,Sp1AqDKFWsVjNqH1Ytgcy5th6Jm2,Sp1AqDKFWsVjNqH1Ytgcy5th6Jm2,,,,,,,,,,,,,,,,,,,,,,6103d7b00cb90ef8d5c5260a,15:55:10,26/03/2024
html-keyboard-response,120,235527,0.0-51.0-0.0,,,,,,mood_trial_fixation,Sp1AqDKFWsVjNqH1Ytgcy5th6Jm2,,,,,,,,,,,,,,,,,,,,,,,6103d7b00cb90ef8d5c5260a,15:55:10,26/03/2024
lmdlab-html-vas-response,121,240277,0.0-51.0-1.0,3739.0,How happy are you right now?,0.49537037037037035,delaylearn,learning,mood_trial,Sp1AqDKFWsVjNqH1Ytgcy5th6Jm2,Sp1AqDKFWsVjNqH1Ytgcy5th6Jm2,,,,,,,,,,,,,,,,,,,,"['Very unhappy', 'Very happy']",,6103d7b00cb90ef8d5c5260a,15:55:10,26/03/2024
html-keyboard-response,122,242142,0.0-52.0,,"<div style=""font-size:100px;"">+</div>",,delaylearn,learning,ITI,Sp1AqDKFWsVjNqH1Ytgcy5th6Jm2,Sp1AqDKFWsVjNqH1Ytgcy5th6Jm2,,,,,,,,,,,,,,,,,,,1864.0,,,6103d7b00cb90ef8d5c5260a,15:55:10,26/03/2024
html-keyboard-response,123,243578,0.0-53.0-0.0,1433.7999999523163,"<div style=""display: flex; flex-direction: column; align-items: center; margin-top: -40px;""><img src=""images/pattern_7.png"" style=""width: 234px; height: 230px; margin-top: -50px;""><div style=""display: flex; justify-content: space-between; margin-top: 33px;""><img src=""images/choice_trial_12.png"" style=""width: 408px; height: 417px; margin-right: 200px;""><img src=""images/choice_trial_6.png"" style=""width: 408px; height: 417px;""></div></div>",f,delaylearn,learning,trial,Sp1AqDKFWsVjNqH1Ytgcy5th6Jm2,Sp1AqDKFWsVjNqH1Ytgcy5th6Jm2,3.0,images/choice_trial_12.png,images/choice_trial_6.png,images/pattern_7.png,j,j,750.0,12.0,6.0,6.0,1.0,23.0,0.0,0.0,12.0,130.0,,,,,,6103d7b00cb90ef8d5c5260a,15:55:10,26/03/2024
html-keyboard-response,124,244594,0.0-53.0-1.0,,"<div style=""display: flex; flex-direction: column; align-items: center; margin-top: -40px;""><img src=""images/pattern_7.png"" style=""width: 234px; height: 230px; margin-top: -50px;""><div style=""display: flex; justify-content: space-between; margin-top: 33px;""><img src=""images/choice_trial_12.png"" style=""width: 408px; height: 417px; margin-right: 608px;""></div></div>",,delaylearn,learning,display_response,Sp1AqDKFWsVjNqH1Ytgcy5th6Jm2,Sp1AqDKFWsVjNqH1Ytgcy5th6Jm2,,,,,,,,,,,,,,,,,chosen stimuli: images/choice_trial_12.png,,,,,6103d7b00cb90ef8d5c5260a,15:55:10,26/03/2024
html-keyboard-response,125,245357,0.0-53.0-2.0,,,,delaylearn,learning,feedback_duration_window,Sp1AqDKFWsVjNqH1Ytgcy5th6Jm2,Sp1AqDKFWsVjNqH1Ytgcy5th6Jm2,,,,,,,,,,,,,,,,,,750.0,,,,6103d7b00cb90ef8d5c5260a,15:55:10,26/03/2024
html-keyboard-response,126,246872,0.0-53.0-3.0,,<div style='margin:auto;width: auto; font-size: 150%'><span style='font-weight: bold; font-size: 100px; color: red;'>0 points!</span><br><br></div>,,delaylearn,learning,feedback_image_window,Sp1AqDKFWsVjNqH1Ytgcy5th6Jm2,Sp1AqDKFWsVjNqH1Ytgcy5th6Jm2,,,,,,,,,,,,,,,,,,,,,,6103d7b00cb90ef8d5c5260a,15:55:10,26/03/2024
html-keyboard-response,127,249278,0.0-54.0,,"<div style=""font-size:100px;"">+</div>",,delaylearn,learning,ITI,Sp1AqDKFWsVjNqH1Ytgcy5th6Jm2,Sp1AqDKFWsVjNqH1Ytgcy5th6Jm2,,,,,,,,,,,,,,,,,,,2391.0,,,6103d7b00cb90ef8d5c5260a,15:55:10,26/03/2024
html-keyboard-response,128,250402,0.0-55.0-0.0,1121.6000000238419,"<div style=""display: flex; flex-direction: column; align-items: center; margin-top: -40px;""><img src=""images/pattern_1.png"" style=""width: 234px; height: 230px; margin-top: -50px;""><div style=""display: flex; justify-content: space-between; margin-top: 33px;""><img src=""images/choice_trial_8.png"" style=""width: 408px; height: 417px; margin-right: 200px;""><img src=""images/choice_trial_14.png"" style=""width: 408px; height: 417px;""></div></div>",j,delaylearn,learning,trial,Sp1AqDKFWsVjNqH1Ytgcy5th6Jm2,Sp1AqDKFWsVjNqH1Ytgcy5th6Jm2,3.0,images/choice_trial_8.png,images/choice_trial_14.png,images/pattern_1.png,f,j,7000.0,8.0,14.0,1.0,1.0,24.0,1.0,0.0,14.0,130.0,,,,,,6103d7b00cb90ef8d5c5260a,15:55:10,26/03/2024
html-keyboard-response,129,251406,0.0-55.0-1.0,,"<div style=""display: flex; flex-direction: column; align-items: center; margin-top: -40px;""><img src=""images/pattern_1.png"" style=""width: 234px; height: 230px; margin-top: -50px;""><div style=""display: flex; justify-content: space-between; margin-top: 33px;""><img src=""images/choice_trial_14.png"" style=""width: 408px; height: 417px; margin-left:608px;""></div></div>",,delaylearn,learning,display_response,Sp1AqDKFWsVjNqH1Ytgcy5th6Jm2,Sp1AqDKFWsVjNqH1Ytgcy5th6Jm2,,,,,,,,,,,,,,,,,chosen stimuli: images/choice_trial_14.png,,,,,6103d7b00cb90ef8d5c5260a,15:55:10,26/03/2024
html-keyboard-response,130,258407,0.0-55.0-2.0,,,,delaylearn,learning,feedback_duration_window,Sp1AqDKFWsVjNqH1Ytgcy5th6Jm2,Sp1AqDKFWsVjNqH1Ytgcy5th6Jm2,,,,,,,,,,,,,,,,,,7000.0,,,,6103d7b00cb90ef8d5c5260a,15:55:10,26/03/2024
html-keyboard-response,131,259913,0.0-55.0-3.0,,<div style='margin:auto;width: auto; font-size: 150%'><span style='font-weight: bold; font-size: 100px; color: red;'>0 points!</span><br><br></div>,,delaylearn,learning,feedback_image_window,Sp1AqDKFWsVjNqH1Ytgcy5th6Jm2,Sp1AqDKFWsVjNqH1Ytgcy5th6Jm2,,,,,,,,,,,,,,,,,,,,,,6103d7b00cb90ef8d5c5260a,15:55:10,26/03/2024
html-keyboard-response,132,261497,0.0-56.0,,"<div style=""font-size:100px;"">+</div>",,delaylearn,learning,ITI,Sp1AqDKFWsVjNqH1Ytgcy5th6Jm2,Sp1AqDKFWsVjNqH1Ytgcy5th6Jm2,,,,,,,,,,,,,,,,,,,1576.0,,,6103d7b00cb90ef8d5c5260a,15:55:10,26/03/2024
html-keyboard-response,133,262872,0.0-57.0-0.0,1372.6000000238419,"<div style=""display: flex; flex-direction: column; align-items: center; margin-top: -40px;""><img src=""images/pattern_5.png"" style=""width: 234px; height: 230px; margin-top: -50px;""><div style=""display: flex; justify-content: space-between; margin-top: 33px;""><img src=""images/choice_trial_2.png"" style=""width: 408px; height: 417px; margin-right: 200px;""><img src=""images/choice_trial_11.png"" style=""width: 408px; height: 417px;""></div></div>",j,delaylearn,learning,trial,Sp1AqDKFWsVjNqH1Ytgcy5th6Jm2,Sp1AqDKFWsVjNqH1Ytgcy5th6Jm2,3.0,images/choice_trial_2.png,images/choice_trial_11.png,images/pattern_5.png,j,j,750.0,2.0,11.0,4.0,1.0,25.0,1.0,1.0,11.0,140.0,,,,,,6103d7b00cb90ef8d5c5260a,15:55:10,26/03/2024
html-keyboard-response,134,263875,0.0-57.0-1.0,,"<div style=""display: flex; flex-direction: column; align-items: center; margin-top: -40px;""><img src=""images/pattern_5.png"" style=""width: 234px; height: 230px; margin-top: -50px;""><div style=""display: flex; justify-content: space-between; margin-top: 33px;""><img src=""images/choice_trial_11.png"" style=""width: 408px; height: 417px; margin-left:608px;""></div></div>",,delaylearn,learning,display_response,Sp1AqDKFWsVjNqH1Ytgcy5th6Jm2,Sp1AqDKFWsVjNqH1Ytgcy5th6Jm2,,,,,,,,,,,,,,,,,chosen stimuli: images/choice_trial_11.png,,,,,6103d7b00cb90ef8d5c5260a,15:55:10,26/03/2024
html-keyboard-response,135,264637,0.0-57.0-2.0,,,,delaylearn,learning,feedback_duration_window,Sp1AqDKFWsVjNqH1Ytgcy5th6Jm2,Sp1AqDKFWsVjNqH1Ytgcy5th6Jm2,,,,,,,,,,,,,,,,,,750.0,,,,6103d7b00cb90ef8d5c5260a,15:55:10,26/03/2024
html-keyboard-response,136,266145,0.0-57.0-3.0,,<div style='margin:auto;width: auto; font-size: 150%'><span style='font-weight: bold; font-size: 100px; color: green;'>+10 points!</span><br><br></div>,,delaylearn,learning,feedback_image_window,Sp1AqDKFWsVjNqH1Ytgcy5th6Jm2,Sp1AqDKFWsVjNqH1Ytgcy5th6Jm2,,,,,,,,,,,,,,,,,,,,,,6103d7b00cb90ef8d5c5260a,15:55:10,26/03/2024
html-keyboard-response,137,267726,0.0-58.0,,"<div style=""font-size:100px;"">+</div>",,delaylearn,learning,ITI,Sp1AqDKFWsVjNqH1Ytgcy5th6Jm2,Sp1AqDKFWsVjNqH1Ytgcy5th6Jm2,,,,,,,,,,,,,,,,,,,1571.0,,,6103d7b00cb90ef8d5c5260a,15:55:10,26/03/2024
html-keyboard-response,138,269101,0.0-59.0-0.0,1372.0999999642372,"<div style=""display: flex; flex-direction: column; align-items: center; margin-top: -40px;""><img src=""images/pattern_3.png"" style=""width: 234px; height: 230px; margin-top: -50px;""><div style=""display: flex; justify-content: space-between; margin-top: 33px;""><img src=""images/choice_trial_10.png"" style=""width: 408px; height: 417px; margin-right: 200px;""><img src=""images/choice_trial_13.png"" style=""width: 408px; height: 417px;""></div></div>",j,delaylearn,learning,trial,Sp1AqDKFWsVjNqH1Ytgcy5th6Jm2,Sp1AqDKFWsVjNqH1Ytgcy5th6Jm2,3.0,images/choice_trial_10.png,images/choice_trial_13.png,images/pattern_3.png,j,j,7000.0,10.0,13.0,2.0,1.0,26.0,1.0,1.0,13.0,150.0,,,,,,6103d7b00cb90ef8d5c5260a,15:55:10,26/03/2024
html-keyboard-response,139,270109,0.0-59.0-1.0,,"<div style=""display: flex; flex-direction: column; align-items: center; margin-top: -40px;""><img src=""images/pattern_3.png"" style=""width: 234px; height: 230px; margin-top: -50px;""><div style=""display: flex; justify-content: space-between; margin-top: 33px;""><img src=""images/choice_trial_13.png"" style=""width: 408px; height: 417px; margin-left:608px;""></div></div>",,delaylearn,learning,display_response,Sp1AqDKFWsVjNqH1Ytgcy5th6Jm2,Sp1AqDKFWsVjNqH1Ytgcy5th6Jm2,,,,,,,,,,,,,,,,,chosen stimuli: images/choice_trial_13.png,,,,,6103d7b00cb90ef8d5c5260a,15:55:10,26/03/2024
html-keyboard-response,140,277113,0.0-59.0-2.0,,,,delaylearn,learning,feedback_duration_window,Sp1AqDKFWsVjNqH1Ytgcy5th6Jm2,Sp1AqDKFWsVjNqH1Ytgcy5th6Jm2,,,,,,,,,,,,,,,,,,7000.0,,,,6103d7b00cb90ef8d5c5260a,15:55:10,26/03/2024
html-keyboard-response,141,278620,0.0-59.0-3.0,,<div style='margin:auto;width: auto; font-size: 150%'><span style='font-weight: bold; font-size: 100px; color: green;'>+10 points!</span><br><br></div>,,delaylearn,learning,feedback_image_window,Sp1AqDKFWsVjNqH1Ytgcy5th6Jm2,Sp1AqDKFWsVjNqH1Ytgcy5th6Jm2,,,,,,,,,,,,,,,,,,,,,,6103d7b00cb90ef8d5c5260a,15:55:10,26/03/2024
lmdlab-html-vas-response,142,285902,0.0-60.0-0.0,5765.0,*How <b><u>confident</u></b> are you feeling about your answers at this moment?*,0.5787037037037037,rewlearn,rate_confidence,,Sp1AqDKFWsVjNqH1Ytgcy5th6Jm2,Sp1AqDKFWsVjNqH1Ytgcy5th6Jm2,,,,,,,,,,,,,,,,,,,,"['No confidence', 'Complete confidence']",,6103d7b00cb90ef8d5c5260a,15:55:10,26/03/2024
lmdlab-rest-trial-limit,143,294322,0.0-60.0-1.0,6914.600000023842,"<div style=""font-size:40px;""><b>Please take a break!</b><br><br><br><br><p>Great work: you earned 150 points.<br><br><br><p>You have completed part(s) 1 of 5.<br><br><br><br>When you are ready to continue<br><br><br>please click the button.</p><br><br>",0,delaylearn,learning,break,Sp1AqDKFWsVjNqH1Ytgcy5th6Jm2,Sp1AqDKFWsVjNqH1Ytgcy5th6Jm2,,,,,,,,,,,,,,,,,,,,,0.0,6103d7b00cb90ef8d5c5260a,15:55:10,26/03/2024
html-keyboard-response,144,297323,0.0-60.0-2.0,,"<div style=""font-size:100px;"">+</div>",,delaylearn,learning,pre_fixation,Sp1AqDKFWsVjNqH1Ytgcy5th6Jm2,,,,,,,,,,,,,,,,,,,,,,,6103d7b00cb90ef8d5c5260a,15:55:10,26/03/2024
lmdlab-html-vas-response,145,303868,0.0-60.0-3.0-0.0,5530.0,How happy are you right now?,0.5046296296296297,delaylearn,learning,mood_baseline,Sp1AqDKFWsVjNqH1Ytgcy5th6Jm2,Sp1AqDKFWsVjNqH1Ytgcy5th6Jm2,,,,,,,,,,,,,,,,,,,,"['Very unhappy', 'Very happy']",,6103d7b00cb90ef8d5c5260a,15:55:10,26/03/2024
html-keyboard-response,146,305383,0.0-60.0-3.0-1.0,,,,,,mood_baseline_fixation,Sp1AqDKFWsVjNqH1Ytgcy5th6Jm2,,,,,,,,,,,,,,,,,,,,,,,6103d7b00cb90ef8d5c5260a,15:55:10,26/03/2024
html-keyboard-response,147,307347,0.0-61.0,,"<div style=""font-size:100px;"">+</div>",,delaylearn,learning,ITI,Sp1AqDKFWsVjNqH1Ytgcy5th6Jm2,Sp1AqDKFWsVjNqH1Ytgcy5th6Jm2,,,,,,,,,,,,,,,,,,,1948.0,,,6103d7b00cb90ef8d5c5260a,15:55:10,26/03/2024
html-keyboard-response,148,308935,0.0-62.0-0.0,1585.4000000357628,"<div style=""display: flex; flex-direction: column; align-items: center; margin-top: -40px;""><img src=""images/pattern_7.png"" style=""width: 234px; height: 230px; margin-top: -50px;""><div style=""display: flex; justify-content: space-between; margin-top: 33px;""><img src=""images/choice_trial_12.png"" style=""width: 408px; height: 417px; margin-right: 200px;""><img src=""images/choice_trial_6.png"" style=""width: 408px; height: 417px;""></div></div>",j,delaylearn,learning,trial,Sp1AqDKFWsVjNqH1Ytgcy5th6Jm2,Sp1AqDKFWsVjNqH1Ytgcy5th6Jm2,3.0,images/choice_trial_12.png,images/choice_trial_6.png,images/pattern_7.png,j,j,750.0,12.0,6.0,6.0,1.0,27.0,1.0,1.0,6.0,160.0,,,,,,6103d7b00cb90ef8d5c5260a,15:55:10,26/03/2024
html-keyboard-response,149,309942,0.0-62.0-1.0,,"<div style=""display: flex; flex-direction: column; align-items: center; margin-top: -40px;""><img src=""images/pattern_7.png"" style=""width: 234px; height: 230px; margin-top: -50px;""><div style=""display: flex; justify-content: space-between; margin-top: 33px;""><img src=""images/choice_trial_6.png"" style=""width: 408px; height: 417px; margin-left:608px;""></div></div>",,delaylearn,learning,display_response,Sp1AqDKFWsVjNqH1Ytgcy5th6Jm2,Sp1AqDKFWsVjNqH1Ytgcy5th6Jm2,,,,,,,,,,,,,,,,,chosen stimuli: images/choice_trial_6.png,,,,,6103d7b00cb90ef8d5c5260a,15:55:10,26/03/2024
html-keyboard-response,150,310702,0.0-62.0-2.0,,,,delaylearn,learning,feedback_duration_window,Sp1AqDKFWsVjNqH1Ytgcy5th6Jm2,Sp1AqDKFWsVjNqH1Ytgcy5th6Jm2,,,,,,,,,,,,,,,,,,750.0,,,,6103d7b00cb90ef8d5c5260a,15:55:10,26/03/2024
html-keyboard-response,151,312210,0.0-62.0-3.0,,<div style='margin:auto;width: auto; font-size: 150%'><span style='font-weight: bold; font-size: 100px; color: green;'>+10 points!</span><br><br></div>,,delaylearn,learning,feedback_image_window,Sp1AqDKFWsVjNqH1Ytgcy5th6Jm2,Sp1AqDKFWsVjNqH1Ytgcy5th6Jm2,,,,,,,,,,,,,,,,,,,,,,6103d7b00cb90ef8d5c5260a,15:55:10,26/03/2024
html-keyboard-response,152,312717,0.0-63.0-0.0,,,,,,mood_trial_fixation,Sp1AqDKFWsVjNqH1Ytgcy5th6Jm2,,,,,,,,,,,,,,,,,,,,,,,6103d7b00cb90ef8d5c5260a,15:55:10,26/03/2024
lmdlab-html-vas-response,153,319269,0.0-63.0-1.0,5539.0,How happy are you right now?,0.5555555555555556,delaylearn,learning,mood_trial,Sp1AqDKFWsVjNqH1Ytgcy5th6Jm2,Sp1AqDKFWsVjNqH1Ytgcy5th6Jm2,,,,,,,,,,,,,,,,,,,,"['Very unhappy', 'Very happy']",,6103d7b00cb90ef8d5c5260a,15:55:10,26/03/2024
html-keyboard-response,154,321457,0.0-64.0,,"<div style=""font-size:100px;"">+</div>",,delaylearn,learning,ITI,Sp1AqDKFWsVjNqH1Ytgcy5th6Jm2,Sp1AqDKFWsVjNqH1Ytgcy5th6Jm2,,,,,,,,,,,,,,,,,,,2182.0,,,6103d7b00cb90ef8d5c5260a,15:55:10,26/03/2024
html-keyboard-response,155,322364,0.0-65.0-0.0,906.3000000119209,"<div style=""display: flex; flex-direction: column; align-items: center; margin-top: -40px;""><img src=""images/pattern_1.png"" style=""width: 234px; height: 230px; margin-top: -50px;""><div style=""display: flex; justify-content: space-between; margin-top: 33px;""><img src=""images/choice_trial_14.png"" style=""width: 408px; height: 417px; margin-right: 200px;""><img src=""images/choice_trial_8.png"" style=""width: 408px; height: 417px;""></div></div>",f,delaylearn,learning,trial,Sp1AqDKFWsVjNqH1Ytgcy5th6Jm2,Sp1AqDKFWsVjNqH1Ytgcy5th6Jm2,3.0,images/choice_trial_14.png,images/choice_trial_8.png,images/pattern_1.png,f,f,7000.0,14.0,8.0,1.0,0.0,28.0,1.0,1.0,14.0,170.0,,,,,,6103d7b00cb90ef8d5c5260a,15:55:10,26/03/2024
html-keyboard-response,156,323369,0.0-65.0-1.0,,"<div style=""display: flex; flex-direction: column; align-items: center; margin-top: -40px;""><img src=""images/pattern_1.png"" style=""width: 234px; height: 230px; margin-top: -50px;""><div style=""display: flex; justify-content: space-between; margin-top: 33px;""><img src=""images/choice_trial_14.png"" style=""width: 408px; height: 417px; margin-right: 608px;""></div></div>",,delaylearn,learning,display_response,Sp1AqDKFWsVjNqH1Ytgcy5th6Jm2,Sp1AqDKFWsVjNqH1Ytgcy5th6Jm2,,,,,,,,,,,,,,,,,chosen stimuli: images/choice_trial_14.png,,,,,6103d7b00cb90ef8d5c5260a,15:55:10,26/03/2024
html-keyboard-response,157,330376,0.0-65.0-2.0,,,,delaylearn,learning,feedback_duration_window,Sp1AqDKFWsVjNqH1Ytgcy5th6Jm2,Sp1AqDKFWsVjNqH1Ytgcy5th6Jm2,,,,,,,,,,,,,,,,,,7000.0,,,,6103d7b00cb90ef8d5c5260a,15:55:10,26/03/2024
html-keyboard-response,158,331883,0.0-65.0-3.0,,<div style='margin:auto;width: auto; font-size: 150%'><span style='font-weight: bold; font-size: 100px; color: green;'>+10 points!</span><br><br></div>,,delaylearn,learning,feedback_image_window,Sp1AqDKFWsVjNqH1Ytgcy5th6Jm2,Sp1AqDKFWsVjNqH1Ytgcy5th6Jm2,,,,,,,,,,,,,,,,,,,,,,6103d7b00cb90ef8d5c5260a,15:55:10,26/03/2024
html-keyboard-response,159,333869,0.0-66.0,,"<div style=""font-size:100px;"">+</div>",,delaylearn,learning,ITI,Sp1AqDKFWsVjNqH1Ytgcy5th6Jm2,Sp1AqDKFWsVjNqH1Ytgcy5th6Jm2,,,,,,,,,,,,,,,,,,,1982.0,,,6103d7b00cb90ef8d5c5260a,15:55:10,26/03/2024
html-keyboard-response,160,334981,0.0-67.0-0.0,1108.699999988079,"<div style=""display: flex; flex-direction: column; align-items: center; margin-top: -40px;""><img src=""images/pattern_5.png"" style=""width: 234px; height: 230px; margin-top: -50px;""><div style=""display: flex; justify-content: space-between; margin-top: 33px;""><img src=""images/choice_trial_11.png"" style=""width: 408px; height: 417px; margin-right: 200px;""><img src=""images/choice_trial_2.png"" style=""width: 408px; height: 417px;""></div></div>",f,delaylearn,learning,trial,Sp1AqDKFWsVjNqH1Ytgcy5th6Jm2,Sp1AqDKFWsVjNqH1Ytgcy5th6Jm2,3.0,images/choice_trial_11.png,images/choice_trial_2.png,images/pattern_5.png,f,f,750.0,11.0,2.0,4.0,0.0,29.0,1.0,1.0,11.0,180.0,,,,,,6103d7b00cb90ef8d5c5260a,15:55:10,26/03/2024
html-keyboard-response,161,335987,0.0-67.0-1.0,,"<div style=""display: flex; flex-direction: column; align-items: center; margin-top: -40px;""><img src=""images/pattern_5.png"" style=""width: 234px; height: 230px; margin-top: -50px;""><div style=""display: flex; justify-content: space-between; margin-top: 33px;""><img src=""images/choice_trial_11.png"" style=""width: 408px; height: 417px; margin-right: 608px;""></div></div>",,delaylearn,learning,display_response,Sp1AqDKFWsVjNqH1Ytgcy5th6Jm2,Sp1AqDKFWsVjNqH1Ytgcy5th6Jm2,,,,,,,,,,,,,,,,,chosen stimuli: images/choice_trial_11.png,,,,,6103d7b00cb90ef8d5c5260a,15:55:10,26/03/2024
html-keyboard-response,162,336750,0.0-67.0-2.0,,,,delaylearn,learning,feedback_duration_window,Sp1AqDKFWsVjNqH1Ytgcy5th6Jm2,Sp1AqDKFWsVjNqH1Ytgcy5th6Jm2,,,,,,,,,,,,,,,,,,750.0,,,,6103d7b00cb90ef8d5c5260a,15:55:10,26/03/2024
html-keyboard-response,163,338258,0.0-67.0-3.0,,<div style='margin:auto;width: auto; font-size: 150%'><span style='font-weight: bold; font-size: 100px; color: green;'>+10 points!</span><br><br></div>,,delaylearn,learning,feedback_image_window,Sp1AqDKFWsVjNqH1Ytgcy5th6Jm2,Sp1AqDKFWsVjNqH1Ytgcy5th6Jm2,,,,,,,,,,,,,,,,,,,,,,6103d7b00cb90ef8d5c5260a,15:55:10,26/03/2024
html-keyboard-response,164,339918,0.0-68.0,,"<div style=""font-size:100px;"">+</div>",,delaylearn,learning,ITI,Sp1AqDKFWsVjNqH1Ytgcy5th6Jm2,Sp1AqDKFWsVjNqH1Ytgcy5th6Jm2,,,,,,,,,,,,,,,,,,,1649.0,,,6103d7b00cb90ef8d5c5260a,15:55:10,26/03/2024
html-keyboard-response,165,341294,0.0-69.0-0.0,1374.1000000238419,"<div style=""display: flex; flex-direction: column; align-items: center; margin-top: -40px;""><img src=""images/pattern_6.png"" style=""width: 234px; height: 230px; margin-top: -50px;""><div style=""display: flex; justify-content: space-between; margin-top: 33px;""><img src=""images/choice_trial_3.png"" style=""width: 408px; height: 417px; margin-right: 200px;""><img src=""images/choice_trial_16.png"" style=""width: 408px; height: 417px;""></div></div>",f,delaylearn,learning,trial,Sp1AqDKFWsVjNqH1Ytgcy5th6Jm2,Sp1AqDKFWsVjNqH1Ytgcy5th6Jm2,3.0,images/choice_trial_3.png,images/choice_trial_16.png,images/pattern_6.png,j,j,750.0,3.0,16.0,5.0,1.0,30.0,0.0,0.0,3.0,180.0,,,,,,6103d7b00cb90ef8d5c5260a,15:55:10,26/03/2024
html-keyboard-response,166,342298,0.0-69.0-1.0,,"<div style=""display: flex; flex-direction: column; align-items: center; margin-top: -40px;""><img src=""images/pattern_6.png"" style=""width: 234px; height: 230px; margin-top: -50px;""><div style=""display: flex; justify-content: space-between; margin-top: 33px;""><img src=""images/choice_trial_3.png"" style=""width: 408px; height: 417px; margin-right: 608px;""></div></div>",,delaylearn,learning,display_response,Sp1AqDKFWsVjNqH1Ytgcy5th6Jm2,Sp1AqDKFWsVjNqH1Ytgcy5th6Jm2,,,,,,,,,,,,,,,,,chosen stimuli: images/choice_trial_3.png,,,,,6103d7b00cb90ef8d5c5260a,15:55:10,26/03/2024
html-keyboard-response,167,343059,0.0-69.0-2.0,,,,delaylearn,learning,feedback_duration_window,Sp1AqDKFWsVjNqH1Ytgcy5th6Jm2,Sp1AqDKFWsVjNqH1Ytgcy5th6Jm2,,,,,,,,,,,,,,,,,,750.0,,,,6103d7b00cb90ef8d5c5260a,15:55:10,26/03/2024
html-keyboard-response,168,344567,0.0-69.0-3.0,,<div style='margin:auto;width: auto; font-size: 150%'><span style='font-weight: bold; font-size: 100px; color: red;'>0 points!</span><br><br></div>,,delaylearn,learning,feedback_image_window,Sp1AqDKFWsVjNqH1Ytgcy5th6Jm2,Sp1AqDKFWsVjNqH1Ytgcy5th6Jm2,,,,,,,,,,,,,,,,,,,,,,6103d7b00cb90ef8d5c5260a,15:55:10,26/03/2024
html-keyboard-response,169,345080,0.0-70.0-0.0,,,,,,mood_trial_fixation,Sp1AqDKFWsVjNqH1Ytgcy5th6Jm2,,,,,,,,,,,,,,,,,,,,,,,6103d7b00cb90ef8d5c5260a,15:55:10,26/03/2024
lmdlab-html-vas-response,170,351034,0.0-70.0-1.0,4941.0,How happy are you right now?,0.5879629629629629,delaylearn,learning,mood_trial,Sp1AqDKFWsVjNqH1Ytgcy5th6Jm2,Sp1AqDKFWsVjNqH1Ytgcy5th6Jm2,,,,,,,,,,,,,,,,,,,,"['Very unhappy', 'Very happy']",,6103d7b00cb90ef8d5c5260a,15:55:10,26/03/2024
html-keyboard-response,171,352612,0.0-71.0,,"<div style=""font-size:100px;"">+</div>",,delaylearn,learning,ITI,Sp1AqDKFWsVjNqH1Ytgcy5th6Jm2,Sp1AqDKFWsVjNqH1Ytgcy5th6Jm2,,,,,,,,,,,,,,,,,,,1569.0,,,6103d7b00cb90ef8d5c5260a,15:55:10,26/03/2024
html-keyboard-response,172,353663,0.0-72.0-0.0,1048.199999988079,"<div style=""display: flex; flex-direction: column; align-items: center; margin-top: -40px;""><img src=""images/pattern_4.png"" style=""width: 234px; height: 230px; margin-top: -50px;""><div style=""display: flex; justify-content: space-between; margin-top: 33px;""><img src=""images/choice_trial_9.png"" style=""width: 408px; height: 417px; margin-right: 200px;""><img src=""images/choice_trial_15.png"" style=""width: 408px; height: 417px;""></div></div>",j,delaylearn,learning,trial,Sp1AqDKFWsVjNqH1Ytgcy5th6Jm2,Sp1AqDKFWsVjNqH1Ytgcy5th6Jm2,3.0,images/choice_trial_9.png,images/choice_trial_15.png,images/pattern_4.png,j,j,7000.0,9.0,15.0,3.0,1.0,31.0,1.0,1.0,15.0,190.0,,,,,,6103d7b00cb90ef8d5c5260a,15:55:10,26/03/2024
html-keyboard-response,173,354680,0.0-72.0-1.0,,"<div style=""display: flex; flex-direction: column; align-items: center; margin-top: -40px;""><img src=""images/pattern_4.png"" style=""width: 234px; height: 230px; margin-top: -50px;""><div style=""display: flex; justify-content: space-between; margin-top: 33px;""><img src=""images/choice_trial_15.png"" style=""width: 408px; height: 417px; margin-left:608px;""></div></div>",,delaylearn,learning,display_response,Sp1AqDKFWsVjNqH1Ytgcy5th6Jm2,Sp1AqDKFWsVjNqH1Ytgcy5th6Jm2,,,,,,,,,,,,,,,,,chosen stimuli: images/choice_trial_15.png,,,,,6103d7b00cb90ef8d5c5260a,15:55:10,26/03/2024
html-keyboard-response,174,361693,0.0-72.0-2.0,,,,delaylearn,learning,feedback_duration_window,Sp1AqDKFWsVjNqH1Ytgcy5th6Jm2,Sp1AqDKFWsVjNqH1Ytgcy5th6Jm2,,,,,,,,,,,,,,,,,,7000.0,,,,6103d7b00cb90ef8d5c5260a,15:55:10,26/03/2024
html-keyboard-response,175,363200,0.0-72.0-3.0,,<div style='margin:auto;width: auto; font-size: 150%'><span style='font-weight: bold; font-size: 100px; color: green;'>+10 points!</span><br><br></div>,,delaylearn,learning,feedback_image_window,Sp1AqDKFWsVjNqH1Ytgcy5th6Jm2,Sp1AqDKFWsVjNqH1Ytgcy5th6Jm2,,,,,,,,,,,,,,,,,,,,,,6103d7b00cb90ef8d5c5260a,15:55:10,26/03/2024
html-keyboard-response,176,364946,0.0-73.0,,"<div style=""font-size:100px;"">+</div>",,delaylearn,learning,ITI,Sp1AqDKFWsVjNqH1Ytgcy5th6Jm2,Sp1AqDKFWsVjNqH1Ytgcy5th6Jm2,,,,,,,,,,,,,,,,,,,1740.0,,,6103d7b00cb90ef8d5c5260a,15:55:10,26/03/2024
html-keyboard-response,177,366039,0.0-74.0-0.0,1090.800000011921,"<div style=""display: flex; flex-direction: column; align-items: center; margin-top: -40px;""><img src=""images/pattern_3.png"" style=""width: 234px; height: 230px; margin-top: -50px;""><div style=""display: flex; justify-content: space-between; margin-top: 33px;""><img src=""images/choice_trial_10.png"" style=""width: 408px; height: 417px; margin-right: 200px;""><img src=""images/choice_trial_13.png"" style=""width: 408px; height: 417px;""></div></div>",j,delaylearn,learning,trial,Sp1AqDKFWsVjNqH1Ytgcy5th6Jm2,Sp1AqDKFWsVjNqH1Ytgcy5th6Jm2,3.0,images/choice_trial_10.png,images/choice_trial_13.png,images/pattern_3.png,j,j,7000.0,10.0,13.0,2.0,1.0,32.0,1.0,1.0,13.0,200.0,,,,,,6103d7b00cb90ef8d5c5260a,15:55:10,26/03/2024
html-keyboard-response,178,367057,0.0-74.0-1.0,,"<div style=""display: flex; flex-direction: column; align-items: center; margin-top: -40px;""><img src=""images/pattern_3.png"" style=""width: 234px; height: 230px; margin-top: -50px;""><div style=""display: flex; justify-content: space-between; margin-top: 33px;""><img src=""images/choice_trial_13.png"" style=""width: 408px; height: 417px; margin-left:608px;""></div></div>",,delaylearn,learning,display_response,Sp1AqDKFWsVjNqH1Ytgcy5th6Jm2,Sp1AqDKFWsVjNqH1Ytgcy5th6Jm2,,,,,,,,,,,,,,,,,chosen stimuli: images/choice_trial_13.png,,,,,6103d7b00cb90ef8d5c5260a,15:55:10,26/03/2024
html-keyboard-response,179,374071,0.0-74.0-2.0,,,,delaylearn,learning,feedback_duration_window,Sp1AqDKFWsVjNqH1Ytgcy5th6Jm2,Sp1AqDKFWsVjNqH1Ytgcy5th6Jm2,,,,,,,,,,,,,,,,,,7000.0,,,,6103d7b00cb90ef8d5c5260a,15:55:10,26/03/2024
html-keyboard-response,180,375579,0.0-74.0-3.0,,<div style='margin:auto;width: auto; font-size: 150%'><span style='font-weight: bold; font-size: 100px; color: green;'>+10 points!</span><br><br></div>,,delaylearn,learning,feedback_image_window,Sp1AqDKFWsVjNqH1Ytgcy5th6Jm2,Sp1AqDKFWsVjNqH1Ytgcy5th6Jm2,,,,,,,,,,,,,,,,,,,,,,6103d7b00cb90ef8d5c5260a,15:55:10,26/03/2024
html-keyboard-response,181,377088,0.0-75.0,,"<div style=""font-size:100px;"">+</div>",,delaylearn,learning,ITI,Sp1AqDKFWsVjNqH1Ytgcy5th6Jm2,Sp1AqDKFWsVjNqH1Ytgcy5th6Jm2,,,,,,,,,,,,,,,,,,,1506.0,,,6103d7b00cb90ef8d5c5260a,15:55:10,26/03/2024
html-keyboard-response,182,377965,0.0-76.0-0.0,873.8000000119209,"<div style=""display: flex; flex-direction: column; align-items: center; margin-top: -40px;""><img src=""images/pattern_5.png"" style=""width: 234px; height: 230px; margin-top: -50px;""><div style=""display: flex; justify-content: space-between; margin-top: 33px;""><img src=""images/choice_trial_11.png"" style=""width: 408px; height: 417px; margin-right: 200px;""><img src=""images/choice_trial_2.png"" style=""width: 408px; height: 417px;""></div></div>",f,delaylearn,learning,trial,Sp1AqDKFWsVjNqH1Ytgcy5th6Jm2,Sp1AqDKFWsVjNqH1Ytgcy5th6Jm2,3.0,images/choice_trial_11.png,images/choice_trial_2.png,images/pattern_5.png,j,f,750.0,11.0,2.0,4.0,0.0,33.0,1.0,0.0,11.0,200.0,,,,,,6103d7b00cb90ef8d5c5260a,15:55:10,26/03/2024
html-keyboard-response,183,378967,0.0-76.0-1.0,,"<div style=""display: flex; flex-direction: column; align-items: center; margin-top: -40px;""><img src=""images/pattern_5.png"" style=""width: 234px; height: 230px; margin-top: -50px;""><div style=""display: flex; justify-content: space-between; margin-top: 33px;""><img src=""images/choice_trial_11.png"" style=""width: 408px; height: 417px; margin-right: 608px;""></div></div>",,delaylearn,learning,display_response,Sp1AqDKFWsVjNqH1Ytgcy5th6Jm2,Sp1AqDKFWsVjNqH1Ytgcy5th6Jm2,,,,,,,,,,,,,,,,,chosen stimuli: images/choice_trial_11.png,,,,,6103d7b00cb90ef8d5c5260a,15:55:10,26/03/2024
html-keyboard-response,184,379719,0.0-76.0-2.0,,,,delaylearn,learning,feedback_duration_window,Sp1AqDKFWsVjNqH1Ytgcy5th6Jm2,Sp1AqDKFWsVjNqH1Ytgcy5th6Jm2,,,,,,,,,,,,,,,,,,750.0,,,,6103d7b00cb90ef8d5c5260a,15:55:10,26/03/2024
html-keyboard-response,185,381225,0.0-76.0-3.0,,<div style='margin:auto;width: auto; font-size: 150%'><span style='font-weight: bold; font-size: 100px; color: red;'>0 points!</span><br><br></div>,,delaylearn,learning,feedback_image_window,Sp1AqDKFWsVjNqH1Ytgcy5th6Jm2,Sp1AqDKFWsVjNqH1Ytgcy5th6Jm2,,,,,,,,,,,,,,,,,,,,,,6103d7b00cb90ef8d5c5260a,15:55:10,26/03/2024
html-keyboard-response,186,383586,0.0-77.0,,"<div style=""font-size:100px;"">+</div>",,delaylearn,learning,ITI,Sp1AqDKFWsVjNqH1Ytgcy5th6Jm2,Sp1AqDKFWsVjNqH1Ytgcy5th6Jm2,,,,,,,,,,,,,,,,,,,2345.0,,,6103d7b00cb90ef8d5c5260a,15:55:10,26/03/2024
html-keyboard-response,187,384815,0.0-78.0-0.0,1226.199999988079,"<div style=""display: flex; flex-direction: column; align-items: center; margin-top: -40px;""><img src=""images/pattern_1.png"" style=""width: 234px; height: 230px; margin-top: -50px;""><div style=""display: flex; justify-content: space-between; margin-top: 33px;""><img src=""images/choice_trial_14.png"" style=""width: 408px; height: 417px; margin-right: 200px;""><img src=""images/choice_trial_8.png"" style=""width: 408px; height: 417px;""></div></div>",f,delaylearn,learning,trial,Sp1AqDKFWsVjNqH1Ytgcy5th6Jm2,Sp1AqDKFWsVjNqH1Ytgcy5th6Jm2,3.0,images/choice_trial_14.png,images/choice_trial_8.png,images/pattern_1.png,f,f,7000.0,14.0,8.0,1.0,0.0,34.0,1.0,1.0,14.0,210.0,,,,,,6103d7b00cb90ef8d5c5260a,15:55:10,26/03/2024
html-keyboard-response,188,385822,0.0-78.0-1.0,,"<div style=""display: flex; flex-direction: column; align-items: center; margin-top: -40px;""><img src=""images/pattern_1.png"" style=""width: 234px; height: 230px; margin-top: -50px;""><div style=""display: flex; justify-content: space-between; margin-top: 33px;""><img src=""images/choice_trial_14.png"" style=""width: 408px; height: 417px; margin-right: 608px;""></div></div>",,delaylearn,learning,display_response,Sp1AqDKFWsVjNqH1Ytgcy5th6Jm2,Sp1AqDKFWsVjNqH1Ytgcy5th6Jm2,,,,,,,,,,,,,,,,,chosen stimuli: images/choice_trial_14.png,,,,,6103d7b00cb90ef8d5c5260a,15:55:10,26/03/2024
html-keyboard-response,189,392828,0.0-78.0-2.0,,,,delaylearn,learning,feedback_duration_window,Sp1AqDKFWsVjNqH1Ytgcy5th6Jm2,Sp1AqDKFWsVjNqH1Ytgcy5th6Jm2,,,,,,,,,,,,,,,,,,7000.0,,,,6103d7b00cb90ef8d5c5260a,15:55:10,26/03/2024
html-keyboard-response,190,394338,0.0-78.0-3.0,,<div style='margin:auto;width: auto; font-size: 150%'><span style='font-weight: bold; font-size: 100px; color: green;'>+10 points!</span><br><br></div>,,delaylearn,learning,feedback_image_window,Sp1AqDKFWsVjNqH1Ytgcy5th6Jm2,Sp1AqDKFWsVjNqH1Ytgcy5th6Jm2,,,,,,,,,,,,,,,,,,,,,,6103d7b00cb90ef8d5c5260a,15:55:10,26/03/2024
html-keyboard-response,191,394847,0.0-79.0-0.0,,,,,,mood_trial_fixation,Sp1AqDKFWsVjNqH1Ytgcy5th6Jm2,,,,,,,,,,,,,,,,,,,,,,,6103d7b00cb90ef8d5c5260a,15:55:10,26/03/2024
lmdlab-html-vas-response,192,401617,0.0-79.0-1.0,5754.0,How happy are you right now?,0.5949074074074074,delaylearn,learning,mood_trial,Sp1AqDKFWsVjNqH1Ytgcy5th6Jm2,Sp1AqDKFWsVjNqH1Ytgcy5th6Jm2,,,,,,,,,,,,,,,,,,,,"['Very unhappy', 'Very happy']",,6103d7b00cb90ef8d5c5260a,15:55:10,26/03/2024
html-keyboard-response,193,403936,0.0-80.0,,"<div style=""font-size:100px;"">+</div>",,delaylearn,learning,ITI,Sp1AqDKFWsVjNqH1Ytgcy5th6Jm2,Sp1AqDKFWsVjNqH1Ytgcy5th6Jm2,,,,,,,,,,,,,,,,,,,2307.0,,,6103d7b00cb90ef8d5c5260a,15:55:10,26/03/2024
html-keyboard-response,194,405023,0.0-81.0-0.0,1084.699999988079,"<div style=""display: flex; flex-direction: column; align-items: center; margin-top: -40px;""><img src=""images/pattern_6.png"" style=""width: 234px; height: 230px; margin-top: -50px;""><div style=""display: flex; justify-content: space-between; margin-top: 33px;""><img src=""images/choice_trial_16.png"" style=""width: 408px; height: 417px; margin-right: 200px;""><img src=""images/choice_trial_3.png"" style=""width: 408px; height: 417px;""></div></div>",j,delaylearn,learning,trial,Sp1AqDKFWsVjNqH1Ytgcy5th6Jm2,Sp1AqDKFWsVjNqH1Ytgcy5th6Jm2,3.0,images/choice_trial_16.png,images/choice_trial_3.png,images/pattern_6.png,j,f,750.0,16.0,3.0,5.0,0.0,35.0,0.0,1.0,3.0,220.0,,,,,,6103d7b00cb90ef8d5c5260a,15:55:10,26/03/2024
html-keyboard-response,195,406037,0.0-81.0-1.0,,"<div style=""display: flex; flex-direction: column; align-items: center; margin-top: -40px;""><img src=""images/pattern_6.png"" style=""width: 234px; height: 230px; margin-top: -50px;""><div style=""display: flex; justify-content: space-between; margin-top: 33px;""><img src=""images/choice_trial_3.png"" style=""width: 408px; height: 417px; margin-left:608px;""></div></div>",,delaylearn,learning,display_response,Sp1AqDKFWsVjNqH1Ytgcy5th6Jm2,Sp1AqDKFWsVjNqH1Ytgcy5th6Jm2,,,,,,,,,,,,,,,,,chosen stimuli: images/choice_trial_3.png,,,,,6103d7b00cb90ef8d5c5260a,15:55:10,26/03/2024
html-keyboard-response,196,406800,0.0-81.0-2.0,,,,delaylearn,learning,feedback_duration_window,Sp1AqDKFWsVjNqH1Ytgcy5th6Jm2,Sp1AqDKFWsVjNqH1Ytgcy5th6Jm2,,,,,,,,,,,,,,,,,,750.0,,,,6103d7b00cb90ef8d5c5260a,15:55:10,26/03/2024
html-keyboard-response,197,408311,0.0-81.0-3.0,,<div style='margin:auto;width: auto; font-size: 150%'><span style='font-weight: bold; font-size: 100px; color: green;'>+10 points!</span><br><br></div>,,delaylearn,learning,feedback_image_window,Sp1AqDKFWsVjNqH1Ytgcy5th6Jm2,Sp1AqDKFWsVjNqH1Ytgcy5th6Jm2,,,,,,,,,,,,,,,,,,,,,,6103d7b00cb90ef8d5c5260a,15:55:10,26/03/2024
html-keyboard-response,198,410307,0.0-82.0,,"<div style=""font-size:100px;"">+</div>",,delaylearn,learning,ITI,Sp1AqDKFWsVjNqH1Ytgcy5th6Jm2,Sp1AqDKFWsVjNqH1Ytgcy5th6Jm2,,,,,,,,,,,,,,,,,,,1992.0,,,6103d7b00cb90ef8d5c5260a,15:55:10,26/03/2024
html-keyboard-response,199,411201,0.0-83.0-0.0,891.2999999523163,"<div style=""display: flex; flex-direction: column; align-items: center; margin-top: -40px;""><img src=""images/pattern_3.png"" style=""width: 234px; height: 230px; margin-top: -50px;""><div style=""display: flex; justify-content: space-between; margin-top: 33px;""><img src=""images/choice_trial_10.png"" style=""width: 408px; height: 417px; margin-right: 200px;""><img src=""images/choice_trial_13.png"" style=""width: 408px; height: 417px;""></div></div>",j,delaylearn,learning,trial,Sp1AqDKFWsVjNqH1Ytgcy5th6Jm2,Sp1AqDKFWsVjNqH1Ytgcy5th6Jm2,3.0,images/choice_trial_10.png,images/choice_trial_13.png,images/pattern_3.png,j,j,7000.0,10.0,13.0,2.0,1.0,36.0,1.0,1.0,13.0,230.0,,,,,,6103d7b00cb90ef8d5c5260a,15:55:10,26/03/2024
html-keyboard-response,200,412204,0.0-83.0-1.0,,"<div style=""display: flex; flex-direction: column; align-items: center; margin-top: -40px;""><img src=""images/pattern_3.png"" style=""width: 234px; height: 230px; margin-top: -50px;""><div style=""display: flex; justify-content: space-between; margin-top: 33px;""><img src=""images/choice_trial_13.png"" style=""width: 408px; height: 417px; margin-left:608px;""></div></div>",,delaylearn,learning,display_response,Sp1AqDKFWsVjNqH1Ytgcy5th6Jm2,Sp1AqDKFWsVjNqH1Ytgcy5th6Jm2,,,,,,,,,,,,,,,,,chosen stimuli: images/choice_trial_13.png,,,,,6103d7b00cb90ef8d5c5260a,15:55:10,26/03/2024
html-keyboard-response,201,419211,0.0-83.0-2.0,,,,delaylearn,learning,feedback_duration_window,Sp1AqDKFWsVjNqH1Ytgcy5th6Jm2,Sp1AqDKFWsVjNqH1Ytgcy5th6Jm2,,,,,,,,,,,,,,,,,,7000.0,,,,6103d7b00cb90ef8d5c5260a,15:55:10,26/03/2024
html-keyboard-response,202,420719,0.0-83.0-3.0,,<div style='margin:auto;width: auto; font-size: 150%'><span style='font-weight: bold; font-size: 100px; color: green;'>+10 points!</span><br><br></div>,,delaylearn,learning,feedback_image_window,Sp1AqDKFWsVjNqH1Ytgcy5th6Jm2,Sp1AqDKFWsVjNqH1Ytgcy5th6Jm2,,,,,,,,,,,,,,,,,,,,,,6103d7b00cb90ef8d5c5260a,15:55:10,26/03/2024
html-keyboard-response,203,422305,0.0-84.0,,"<div style=""font-size:100px;"">+</div>",,delaylearn,learning,ITI,Sp1AqDKFWsVjNqH1Ytgcy5th6Jm2,Sp1AqDKFWsVjNqH1Ytgcy5th6Jm2,,,,,,,,,,,,,,,,,,,1572.0,,,6103d7b00cb90ef8d5c5260a,15:55:10,26/03/2024
html-keyboard-response,204,423275,0.0-85.0-0.0,967.3999999761581,"<div style=""display: flex; flex-direction: column; align-items: center; margin-top: -40px;""><img src=""images/pattern_4.png"" style=""width: 234px; height: 230px; margin-top: -50px;""><div style=""display: flex; justify-content: space-between; margin-top: 33px;""><img src=""images/choice_trial_9.png"" style=""width: 408px; height: 417px; margin-right: 200px;""><img src=""images/choice_trial_15.png"" style=""width: 408px; height: 417px;""></div></div>",j,delaylearn,learning,trial,Sp1AqDKFWsVjNqH1Ytgcy5th6Jm2,Sp1AqDKFWsVjNqH1Ytgcy5th6Jm2,3.0,images/choice_trial_9.png,images/choice_trial_15.png,images/pattern_4.png,f,j,7000.0,9.0,15.0,3.0,1.0,37.0,1.0,0.0,15.0,230.0,,,,,,6103d7b00cb90ef8d5c5260a,15:55:10,26/03/2024
html-keyboard-response,205,424280,0.0-85.0-1.0,,"<div style=""display: flex; flex-direction: column; align-items: center; margin-top: -40px;""><img src=""images/pattern_4.png"" style=""width: 234px; height: 230px; margin-top: -50px;""><div style=""display: flex; justify-content: space-between; margin-top: 33px;""><img src=""images/choice_trial_15.png"" style=""width: 408px; height: 417px; margin-left:608px;""></div></div>",,delaylearn,learning,display_response,Sp1AqDKFWsVjNqH1Ytgcy5th6Jm2,Sp1AqDKFWsVjNqH1Ytgcy5th6Jm2,,,,,,,,,,,,,,,,,chosen stimuli: images/choice_trial_15.png,,,,,6103d7b00cb90ef8d5c5260a,15:55:10,26/03/2024
html-keyboard-response,206,431286,0.0-85.0-2.0,,,,delaylearn,learning,feedback_duration_window,Sp1AqDKFWsVjNqH1Ytgcy5th6Jm2,Sp1AqDKFWsVjNqH1Ytgcy5th6Jm2,,,,,,,,,,,,,,,,,,7000.0,,,,6103d7b00cb90ef8d5c5260a,15:55:10,26/03/2024
html-keyboard-response,207,432793,0.0-85.0-3.0,,<div style='margin:auto;width: auto; font-size: 150%'><span style='font-weight: bold; font-size: 100px; color: red;'>0 points!</span><br><br></div>,,delaylearn,learning,feedback_image_window,Sp1AqDKFWsVjNqH1Ytgcy5th6Jm2,Sp1AqDKFWsVjNqH1Ytgcy5th6Jm2,,,,,,,,,,,,,,,,,,,,,,6103d7b00cb90ef8d5c5260a,15:55:10,26/03/2024
html-keyboard-response,208,434486,0.0-86.0,,"<div style=""font-size:100px;"">+</div>",,delaylearn,learning,ITI,Sp1AqDKFWsVjNqH1Ytgcy5th6Jm2,Sp1AqDKFWsVjNqH1Ytgcy5th6Jm2,,,,,,,,,,,,,,,,,,,1691.0,,,6103d7b00cb90ef8d5c5260a,15:55:10,26/03/2024
html-keyboard-response,209,435300,0.0-87.0-0.0,810.8000000119209,"<div style=""display: flex; flex-direction: column; align-items: center; margin-top: -40px;""><img src=""images/pattern_7.png"" style=""width: 234px; height: 230px; margin-top: -50px;""><div style=""display: flex; justify-content: space-between; margin-top: 33px;""><img src=""images/choice_trial_6.png"" style=""width: 408px; height: 417px; margin-right: 200px;""><img src=""images/choice_trial_12.png"" style=""width: 408px; height: 417px;""></div></div>",f,delaylearn,learning,trial,Sp1AqDKFWsVjNqH1Ytgcy5th6Jm2,Sp1AqDKFWsVjNqH1Ytgcy5th6Jm2,3.0,images/choice_trial_6.png,images/choice_trial_12.png,images/pattern_7.png,f,f,750.0,6.0,12.0,6.0,0.0,38.0,1.0,1.0,6.0,240.0,,,,,,6103d7b00cb90ef8d5c5260a,15:55:10,26/03/2024
html-keyboard-response,210,436312,0.0-87.0-1.0,,"<div style=""display: flex; flex-direction: column; align-items: center; margin-top: -40px;""><img src=""images/pattern_7.png"" style=""width: 234px; height: 230px; margin-top: -50px;""><div style=""display: flex; justify-content: space-between; margin-top: 33px;""><img src=""images/choice_trial_6.png"" style=""width: 408px; height: 417px; margin-right: 608px;""></div></div>",,delaylearn,learning,display_response,Sp1AqDKFWsVjNqH1Ytgcy5th6Jm2,Sp1AqDKFWsVjNqH1Ytgcy5th6Jm2,,,,,,,,,,,,,,,,,chosen stimuli: images/choice_trial_6.png,,,,,6103d7b00cb90ef8d5c5260a,15:55:10,26/03/2024
html-keyboard-response,211,437073,0.0-87.0-2.0,,,,delaylearn,learning,feedback_duration_window,Sp1AqDKFWsVjNqH1Ytgcy5th6Jm2,Sp1AqDKFWsVjNqH1Ytgcy5th6Jm2,,,,,,,,,,,,,,,,,,750.0,,,,6103d7b00cb90ef8d5c5260a,15:55:10,26/03/2024
html-keyboard-response,212,438584,0.0-87.0-3.0,,<div style='margin:auto;width: auto; font-size: 150%'><span style='font-weight: bold; font-size: 100px; color: green;'>+10 points!</span><br><br></div>,,delaylearn,learning,feedback_image_window,Sp1AqDKFWsVjNqH1Ytgcy5th6Jm2,Sp1AqDKFWsVjNqH1Ytgcy5th6Jm2,,,,,,,,,,,,,,,,,,,,,,6103d7b00cb90ef8d5c5260a,15:55:10,26/03/2024
html-keyboard-response,213,440730,0.0-88.0,,"<div style=""font-size:100px;"">+</div>",,delaylearn,learning,ITI,Sp1AqDKFWsVjNqH1Ytgcy5th6Jm2,Sp1AqDKFWsVjNqH1Ytgcy5th6Jm2,,,,,,,,,,,,,,,,,,,2136.0,,,6103d7b00cb90ef8d5c5260a,15:55:10,26/03/2024
html-keyboard-response,214,441600,0.0-89.0-0.0,866.6000000238419,"<div style=""display: flex; flex-direction: column; align-items: center; margin-top: -40px;""><img src=""images/pattern_1.png"" style=""width: 234px; height: 230px; margin-top: -50px;""><div style=""display: flex; justify-content: space-between; margin-top: 33px;""><img src=""images/choice_trial_14.png"" style=""width: 408px; height: 417px; margin-right: 200px;""><img src=""images/choice_trial_8.png"" style=""width: 408px; height: 417px;""></div></div>",f,delaylearn,learning,trial,Sp1AqDKFWsVjNqH1Ytgcy5th6Jm2,Sp1AqDKFWsVjNqH1Ytgcy5th6Jm2,3.0,images/choice_trial_14.png,images/choice_trial_8.png,images/pattern_1.png,f,f,7000.0,14.0,8.0,1.0,0.0,39.0,1.0,1.0,14.0,250.0,,,,,,6103d7b00cb90ef8d5c5260a,15:55:10,26/03/2024
html-keyboard-response,215,442615,0.0-89.0-1.0,,"<div style=""display: flex; flex-direction: column; align-items: center; margin-top: -40px;""><img src=""images/pattern_1.png"" style=""width: 234px; height: 230px; margin-top: -50px;""><div style=""display: flex; justify-content: space-between; margin-top: 33px;""><img src=""images/choice_trial_14.png"" style=""width: 408px; height: 417px; margin-right: 608px;""></div></div>",,delaylearn,learning,display_response,Sp1AqDKFWsVjNqH1Ytgcy5th6Jm2,Sp1AqDKFWsVjNqH1Ytgcy5th6Jm2,,,,,,,,,,,,,,,,,chosen stimuli: images/choice_trial_14.png,,,,,6103d7b00cb90ef8d5c5260a,15:55:10,26/03/2024
html-keyboard-response,216,449628,0.0-89.0-2.0,,,,delaylearn,learning,feedback_duration_window,Sp1AqDKFWsVjNqH1Ytgcy5th6Jm2,Sp1AqDKFWsVjNqH1Ytgcy5th6Jm2,,,,,,,,,,,,,,,,,,7000.0,,,,6103d7b00cb90ef8d5c5260a,15:55:10,26/03/2024
html-keyboard-response,217,451135,0.0-89.0-3.0,,<div style='margin:auto;width: auto; font-size: 150%'><span style='font-weight: bold; font-size: 100px; color: green;'>+10 points!</span><br><br></div>,,delaylearn,learning,feedback_image_window,Sp1AqDKFWsVjNqH1Ytgcy5th6Jm2,Sp1AqDKFWsVjNqH1Ytgcy5th6Jm2,,,,,,,,,,,,,,,,,,,,,,6103d7b00cb90ef8d5c5260a,15:55:10,26/03/2024
html-keyboard-response,218,451649,0.0-90.0-0.0,,,,,,mood_trial_fixation,Sp1AqDKFWsVjNqH1Ytgcy5th6Jm2,,,,,,,,,,,,,,,,,,,,,,,6103d7b00cb90ef8d5c5260a,15:55:10,26/03/2024
lmdlab-html-vas-response,219,458836,0.0-90.0-1.0,6172.0,How happy are you right now?,0.625,delaylearn,learning,mood_trial,Sp1AqDKFWsVjNqH1Ytgcy5th6Jm2,Sp1AqDKFWsVjNqH1Ytgcy5th6Jm2,,,,,,,,,,,,,,,,,,,,"['Very unhappy', 'Very happy']",,6103d7b00cb90ef8d5c5260a,15:55:10,26/03/2024
html-keyboard-response,220,460822,0.0-91.0,,"<div style=""font-size:100px;"">+</div>",,delaylearn,learning,ITI,Sp1AqDKFWsVjNqH1Ytgcy5th6Jm2,Sp1AqDKFWsVjNqH1Ytgcy5th6Jm2,,,,,,,,,,,,,,,,,,,1974.0,,,6103d7b00cb90ef8d5c5260a,15:55:10,26/03/2024
html-keyboard-response,221,461888,0.0-92.0-0.0,1063.300000011921,"<div style=""display: flex; flex-direction: column; align-items: center; margin-top: -40px;""><img src=""images/pattern_3.png"" style=""width: 234px; height: 230px; margin-top: -50px;""><div style=""display: flex; justify-content: space-between; margin-top: 33px;""><img src=""images/choice_trial_13.png"" style=""width: 408px; height: 417px; margin-right: 200px;""><img src=""images/choice_trial_10.png"" style=""width: 408px; height: 417px;""></div></div>",f,delaylearn,learning,trial,Sp1AqDKFWsVjNqH1Ytgcy5th6Jm2,Sp1AqDKFWsVjNqH1Ytgcy5th6Jm2,3.0,images/choice_trial_13.png,images/choice_trial_10.png,images/pattern_3.png,j,f,7000.0,13.0,10.0,2.0,0.0,40.0,1.0,0.0,13.0,250.0,,,,,,6103d7b00cb90ef8d5c5260a,15:55:10,26/03/2024
html-keyboard-response,222,462892,0.0-92.0-1.0,,"<div style=""display: flex; flex-direction: column; align-items: center; margin-top: -40px;""><img src=""images/pattern_3.png"" style=""width: 234px; height: 230px; margin-top: -50px;""><div style=""display: flex; justify-content: space-between; margin-top: 33px;""><img src=""images/choice_trial_13.png"" style=""width: 408px; height: 417px; margin-right: 608px;""></div></div>",,delaylearn,learning,display_response,Sp1AqDKFWsVjNqH1Ytgcy5th6Jm2,Sp1AqDKFWsVjNqH1Ytgcy5th6Jm2,,,,,,,,,,,,,,,,,chosen stimuli: images/choice_trial_13.png,,,,,6103d7b00cb90ef8d5c5260a,15:55:10,26/03/2024
html-keyboard-response,223,469893,0.0-92.0-2.0,,,,delaylearn,learning,feedback_duration_window,Sp1AqDKFWsVjNqH1Ytgcy5th6Jm2,Sp1AqDKFWsVjNqH1Ytgcy5th6Jm2,,,,,,,,,,,,,,,,,,7000.0,,,,6103d7b00cb90ef8d5c5260a,15:55:10,26/03/2024
html-keyboard-response,224,471400,0.0-92.0-3.0,,<div style='margin:auto;width: auto; font-size: 150%'><span style='font-weight: bold; font-size: 100px; color: red;'>0 points!</span><br><br></div>,,delaylearn,learning,feedback_image_window,Sp1AqDKFWsVjNqH1Ytgcy5th6Jm2,Sp1AqDKFWsVjNqH1Ytgcy5th6Jm2,,,,,,,,,,,,,,,,,,,,,,6103d7b00cb90ef8d5c5260a,15:55:10,26/03/2024
html-keyboard-response,225,473045,0.0-93.0,,"<div style=""font-size:100px;"">+</div>",,delaylearn,learning,ITI,Sp1AqDKFWsVjNqH1Ytgcy5th6Jm2,Sp1AqDKFWsVjNqH1Ytgcy5th6Jm2,,,,,,,,,,,,,,,,,,,1636.0,,,6103d7b00cb90ef8d5c5260a,15:55:10,26/03/2024
html-keyboard-response,226,473678,0.0-94.0-0.0,629.8999999761581,"<div style=""display: flex; flex-direction: column; align-items: center; margin-top: -40px;""><img src=""images/pattern_7.png"" style=""width: 234px; height: 230px; margin-top: -50px;""><div style=""display: flex; justify-content: space-between; margin-top: 33px;""><img src=""images/choice_trial_12.png"" style=""width: 408px; height: 417px; margin-right: 200px;""><img src=""images/choice_trial_6.png"" style=""width: 408px; height: 417px;""></div></div>",j,delaylearn,learning,trial,Sp1AqDKFWsVjNqH1Ytgcy5th6Jm2,Sp1AqDKFWsVjNqH1Ytgcy5th6Jm2,3.0,images/choice_trial_12.png,images/choice_trial_6.png,images/pattern_7.png,j,j,750.0,12.0,6.0,6.0,1.0,41.0,1.0,1.0,6.0,260.0,,,,,,6103d7b00cb90ef8d5c5260a,15:55:10,26/03/2024
html-keyboard-response,227,474695,0.0-94.0-1.0,,"<div style=""display: flex; flex-direction: column; align-items: center; margin-top: -40px;""><img src=""images/pattern_7.png"" style=""width: 234px; height: 230px; margin-top: -50px;""><div style=""display: flex; justify-content: space-between; margin-top: 33px;""><img src=""images/choice_trial_6.png"" style=""width: 408px; height: 417px; margin-left:608px;""></div></div>",,delaylearn,learning,display_response,Sp1AqDKFWsVjNqH1Ytgcy5th6Jm2,Sp1AqDKFWsVjNqH1Ytgcy5th6Jm2,,,,,,,,,,,,,,,,,chosen stimuli: images/choice_trial_6.png,,,,,6103d7b00cb90ef8d5c5260a,15:55:10,26/03/2024
html-keyboard-response,228,475455,0.0-94.0-2.0,,,,delaylearn,learning,feedback_duration_window,Sp1AqDKFWsVjNqH1Ytgcy5th6Jm2,Sp1AqDKFWsVjNqH1Ytgcy5th6Jm2,,,,,,,,,,,,,,,,,,750.0,,,,6103d7b00cb90ef8d5c5260a,15:55:10,26/03/2024
html-keyboard-response,229,476962,0.0-94.0-3.0,,<div style='margin:auto;width: auto; font-size: 150%'><span style='font-weight: bold; font-size: 100px; color: green;'>+10 points!</span><br><br></div>,,delaylearn,learning,feedback_image_window,Sp1AqDKFWsVjNqH1Ytgcy5th6Jm2,Sp1AqDKFWsVjNqH1Ytgcy5th6Jm2,,,,,,,,,,,,,,,,,,,,,,6103d7b00cb90ef8d5c5260a,15:55:10,26/03/2024
html-keyboard-response,230,479122,0.0-95.0,,"<div style=""font-size:100px;"">+</div>",,delaylearn,learning,ITI,Sp1AqDKFWsVjNqH1Ytgcy5th6Jm2,Sp1AqDKFWsVjNqH1Ytgcy5th6Jm2,,,,,,,,,,,,,,,,,,,2144.0,,,6103d7b00cb90ef8d5c5260a,15:55:10,26/03/2024
