trial_type,trial_index,time_elapsed,internal_node_id,rt,stimulus,response,exp_name,exp_stage,test_part,subjectID,databaseID,counterbal,choice_stimuli_1,choice_stimuli_2,pattern_stimuli,rewarded_answer,correct_answer,feedback_duration_times,stim_left,stim_right,pair,leftright_counter,trial,response_correct,response_rewarded,chosen_stim,counter,displayed_choice,feedback_durations,ITI_duration,labels,rest_warning,prolificID,start_time,date
pavlovia,0,581,0.0-0.0,,,,,,,2BMzGBSKNBY5Qc0u2eQs6G9UkFs2,,,,,,,,,,,,,,,,,,,,,,,5c80367593fa450014546aca,16:33:22,27/03/2024
html-keyboard-response,1,3587,0.0-1.0,,"<div style=""font-size:100px;"">+</div>",,delaylearn,learning,pre_fixation,2BMzGBSKNBY5Qc0u2eQs6G9UkFs2,,,,,,,,,,,,,,,,,,,,,,,5c80367593fa450014546aca,16:33:22,27/03/2024
html-keyboard-response,2,5269,0.0-2.0-0.0,1678.4000000003725,"<div style=""display: flex; flex-direction: column; align-items: center; margin-top: -40px;""><img src=""images/demo_images/pattern_1.png"" style=""width: 234px; height: 230px; margin-top: -50px;""><div style=""display: flex; justify-content: space-between; margin-top: 33px;""><img src=""images/demo_images/choice_trial_2.png"" style=""width: 408px; height: 417px; margin-right: 200px;""><img src=""images/demo_images/choice_trial_1.png"" style=""width: 408px; height: 417px;""></div></div>",j,delaylearn,learning,trial,2BMzGBSKNBY5Qc0u2eQs6G9UkFs2,2BMzGBSKNBY5Qc0u2eQs6G9UkFs2,3.0,images/demo_images/choice_trial_2.png,images/demo_images/choice_trial_1.png,images/demo_images/pattern_1.png,j,j,3000.0,2.0,1.0,20.0,1.0,1.0,1.0,1.0,1.0,10.0,,,,,,5c80367593fa450014546aca,16:33:22,27/03/2024
html-keyboard-response,3,6277,0.0-2.0-1.0,,"<div style=""display: flex; flex-direction: column; align-items: center; margin-top: -40px;""><img src=""images/demo_images/pattern_1.png"" style=""width: 234px; height: 230px; margin-top: -50px;""><div style=""display: flex; justify-content: space-between; margin-top: 33px;""><img src=""images/demo_images/choice_trial_1.png"" style=""width: 408px; height: 417px; margin-left:608px;""></div></div>",,delaylearn,learning,display_response,2BMzGBSKNBY5Qc0u2eQs6G9UkFs2,2BMzGBSKNBY5Qc0u2eQs6G9UkFs2,,,,,,,,,,,,,,,,,chosen stimuli: images/demo_images/choice_trial_1.png,,,,,5c80367593fa450014546aca,16:33:22,27/03/2024
html-keyboard-response,4,9289,0.0-2.0-2.0,,,,delaylearn,learning,feedback_duration_window,2BMzGBSKNBY5Qc0u2eQs6G9UkFs2,2BMzGBSKNBY5Qc0u2eQs6G9UkFs2,,,,,,,,,,,,,,,,,,3000.0,,,,5c80367593fa450014546aca,16:33:22,27/03/2024
html-keyboard-response,5,10798,0.0-2.0-3.0,,<div style='margin:auto;width: auto; font-size: 150%'><span style='font-weight: bold; font-size: 100px; color: green;'>+10 points!</span><br><br></div>,,delaylearn,learning,feedback_image_window,2BMzGBSKNBY5Qc0u2eQs6G9UkFs2,2BMzGBSKNBY5Qc0u2eQs6G9UkFs2,,,,,,,,,,,,,,,,,,,,,,5c80367593fa450014546aca,16:33:22,27/03/2024
html-keyboard-response,6,12785,0.0-3.0,,"<div style=""font-size:100px;"">+</div>",,delaylearn,learning,ITI,2BMzGBSKNBY5Qc0u2eQs6G9UkFs2,2BMzGBSKNBY5Qc0u2eQs6G9UkFs2,,,,,,,,,,,,,,,,,,,1985.0,,,5c80367593fa450014546aca,16:33:22,27/03/2024
html-keyboard-response,7,13693,0.0-4.0-0.0,903.0,"<div style=""display: flex; flex-direction: column; align-items: center; margin-top: -40px;""><img src=""images/demo_images/pattern_1.png"" style=""width: 234px; height: 230px; margin-top: -50px;""><div style=""display: flex; justify-content: space-between; margin-top: 33px;""><img src=""images/demo_images/choice_trial_2.png"" style=""width: 408px; height: 417px; margin-right: 200px;""><img src=""images/demo_images/choice_trial_1.png"" style=""width: 408px; height: 417px;""></div></div>",j,delaylearn,learning,trial,2BMzGBSKNBY5Qc0u2eQs6G9UkFs2,2BMzGBSKNBY5Qc0u2eQs6G9UkFs2,3.0,images/demo_images/choice_trial_2.png,images/demo_images/choice_trial_1.png,images/demo_images/pattern_1.png,j,j,3000.0,2.0,1.0,20.0,1.0,2.0,1.0,1.0,1.0,20.0,,,,,,5c80367593fa450014546aca,16:33:22,27/03/2024
html-keyboard-response,8,14699,0.0-4.0-1.0,,"<div style=""display: flex; flex-direction: column; align-items: center; margin-top: -40px;""><img src=""images/demo_images/pattern_1.png"" style=""width: 234px; height: 230px; margin-top: -50px;""><div style=""display: flex; justify-content: space-between; margin-top: 33px;""><img src=""images/demo_images/choice_trial_1.png"" style=""width: 408px; height: 417px; margin-left:608px;""></div></div>",,delaylearn,learning,display_response,2BMzGBSKNBY5Qc0u2eQs6G9UkFs2,2BMzGBSKNBY5Qc0u2eQs6G9UkFs2,,,,,,,,,,,,,,,,,chosen stimuli: images/demo_images/choice_trial_1.png,,,,,5c80367593fa450014546aca,16:33:22,27/03/2024
html-keyboard-response,9,17700,0.0-4.0-2.0,,,,delaylearn,learning,feedback_duration_window,2BMzGBSKNBY5Qc0u2eQs6G9UkFs2,2BMzGBSKNBY5Qc0u2eQs6G9UkFs2,,,,,,,,,,,,,,,,,,3000.0,,,,5c80367593fa450014546aca,16:33:22,27/03/2024
html-keyboard-response,10,19204,0.0-4.0-3.0,,<div style='margin:auto;width: auto; font-size: 150%'><span style='font-weight: bold; font-size: 100px; color: green;'>+10 points!</span><br><br></div>,,delaylearn,learning,feedback_image_window,2BMzGBSKNBY5Qc0u2eQs6G9UkFs2,2BMzGBSKNBY5Qc0u2eQs6G9UkFs2,,,,,,,,,,,,,,,,,,,,,,5c80367593fa450014546aca,16:33:22,27/03/2024
html-keyboard-response,11,21307,0.0-5.0,,"<div style=""font-size:100px;"">+</div>",,delaylearn,learning,ITI,2BMzGBSKNBY5Qc0u2eQs6G9UkFs2,2BMzGBSKNBY5Qc0u2eQs6G9UkFs2,,,,,,,,,,,,,,,,,,,2092.0,,,5c80367593fa450014546aca,16:33:22,27/03/2024
html-keyboard-response,12,22347,0.0-6.0-0.0,1037.0,"<div style=""display: flex; flex-direction: column; align-items: center; margin-top: -40px;""><img src=""images/demo_images/pattern_1.png"" style=""width: 234px; height: 230px; margin-top: -50px;""><div style=""display: flex; justify-content: space-between; margin-top: 33px;""><img src=""images/demo_images/choice_trial_1.png"" style=""width: 408px; height: 417px; margin-right: 200px;""><img src=""images/demo_images/choice_trial_2.png"" style=""width: 408px; height: 417px;""></div></div>",f,delaylearn,learning,trial,2BMzGBSKNBY5Qc0u2eQs6G9UkFs2,2BMzGBSKNBY5Qc0u2eQs6G9UkFs2,3.0,images/demo_images/choice_trial_1.png,images/demo_images/choice_trial_2.png,images/demo_images/pattern_1.png,j,f,3000.0,1.0,2.0,20.0,0.0,3.0,1.0,0.0,1.0,20.0,,,,,,5c80367593fa450014546aca,16:33:22,27/03/2024
html-keyboard-response,13,23363,0.0-6.0-1.0,,"<div style=""display: flex; flex-direction: column; align-items: center; margin-top: -40px;""><img src=""images/demo_images/pattern_1.png"" style=""width: 234px; height: 230px; margin-top: -50px;""><div style=""display: flex; justify-content: space-between; margin-top: 33px;""><img src=""images/demo_images/choice_trial_1.png"" style=""width: 408px; height: 417px; margin-right: 608px;""></div></div>",,delaylearn,learning,display_response,2BMzGBSKNBY5Qc0u2eQs6G9UkFs2,2BMzGBSKNBY5Qc0u2eQs6G9UkFs2,,,,,,,,,,,,,,,,,chosen stimuli: images/demo_images/choice_trial_1.png,,,,,5c80367593fa450014546aca,16:33:22,27/03/2024
html-keyboard-response,14,26367,0.0-6.0-2.0,,,,delaylearn,learning,feedback_duration_window,2BMzGBSKNBY5Qc0u2eQs6G9UkFs2,2BMzGBSKNBY5Qc0u2eQs6G9UkFs2,,,,,,,,,,,,,,,,,,3000.0,,,,5c80367593fa450014546aca,16:33:22,27/03/2024
html-keyboard-response,15,27885,0.0-6.0-3.0,,<div style='margin:auto;width: auto; font-size: 150%'><span style='font-weight: bold; font-size: 100px; color: red;'>0 points!</span><br><br></div>,,delaylearn,learning,feedback_image_window,2BMzGBSKNBY5Qc0u2eQs6G9UkFs2,2BMzGBSKNBY5Qc0u2eQs6G9UkFs2,,,,,,,,,,,,,,,,,,,,,,5c80367593fa450014546aca,16:33:22,27/03/2024
html-keyboard-response,16,29391,0.0-7.0,,"<div style=""font-size:100px;"">+</div>",,delaylearn,learning,ITI,2BMzGBSKNBY5Qc0u2eQs6G9UkFs2,2BMzGBSKNBY5Qc0u2eQs6G9UkFs2,,,,,,,,,,,,,,,,,,,1505.0,,,5c80367593fa450014546aca,16:33:22,27/03/2024
html-keyboard-response,17,31806,0.0-8.0-0.0,2412.6999999997206,"<div style=""display: flex; flex-direction: column; align-items: center; margin-top: -40px;""><img src=""images/demo_images/pattern_1.png"" style=""width: 234px; height: 230px; margin-top: -50px;""><div style=""display: flex; justify-content: space-between; margin-top: 33px;""><img src=""images/demo_images/choice_trial_1.png"" style=""width: 408px; height: 417px; margin-right: 200px;""><img src=""images/demo_images/choice_trial_2.png"" style=""width: 408px; height: 417px;""></div></div>",j,delaylearn,learning,trial,2BMzGBSKNBY5Qc0u2eQs6G9UkFs2,2BMzGBSKNBY5Qc0u2eQs6G9UkFs2,3.0,images/demo_images/choice_trial_1.png,images/demo_images/choice_trial_2.png,images/demo_images/pattern_1.png,f,f,3000.0,1.0,2.0,20.0,0.0,4.0,0.0,0.0,2.0,20.0,,,,,,5c80367593fa450014546aca,16:33:22,27/03/2024
html-keyboard-response,18,32819,0.0-8.0-1.0,,"<div style=""display: flex; flex-direction: column; align-items: center; margin-top: -40px;""><img src=""images/demo_images/pattern_1.png"" style=""width: 234px; height: 230px; margin-top: -50px;""><div style=""display: flex; justify-content: space-between; margin-top: 33px;""><img src=""images/demo_images/choice_trial_2.png"" style=""width: 408px; height: 417px; margin-left:608px;""></div></div>",,delaylearn,learning,display_response,2BMzGBSKNBY5Qc0u2eQs6G9UkFs2,2BMzGBSKNBY5Qc0u2eQs6G9UkFs2,,,,,,,,,,,,,,,,,chosen stimuli: images/demo_images/choice_trial_2.png,,,,,5c80367593fa450014546aca,16:33:22,27/03/2024
html-keyboard-response,19,35829,0.0-8.0-2.0,,,,delaylearn,learning,feedback_duration_window,2BMzGBSKNBY5Qc0u2eQs6G9UkFs2,2BMzGBSKNBY5Qc0u2eQs6G9UkFs2,,,,,,,,,,,,,,,,,,3000.0,,,,5c80367593fa450014546aca,16:33:22,27/03/2024
html-keyboard-response,20,37337,0.0-8.0-3.0,,<div style='margin:auto;width: auto; font-size: 150%'><span style='font-weight: bold; font-size: 100px; color: red;'>0 points!</span><br><br></div>,,delaylearn,learning,feedback_image_window,2BMzGBSKNBY5Qc0u2eQs6G9UkFs2,2BMzGBSKNBY5Qc0u2eQs6G9UkFs2,,,,,,,,,,,,,,,,,,,,,,5c80367593fa450014546aca,16:33:22,27/03/2024
html-keyboard-response,21,37848,0.0-9.0-0.0,,,,,,mood_trial_fixation,2BMzGBSKNBY5Qc0u2eQs6G9UkFs2,,,,,,,,,,,,,,,,,,,,,,,5c80367593fa450014546aca,16:33:22,27/03/2024
lmdlab-html-vas-response,22,43083,0.0-9.0-1.0,4211.0,How happy are you right now?,0.23818274943229506,delaylearn,learning,mood_trial,2BMzGBSKNBY5Qc0u2eQs6G9UkFs2,2BMzGBSKNBY5Qc0u2eQs6G9UkFs2,,,,,,,,,,,,,,,,,,,,"['Very unhappy', 'Very happy']",,5c80367593fa450014546aca,16:33:22,27/03/2024
html-keyboard-response,23,44785,0.0-10.0,,"<div style=""font-size:100px;"">+</div>",,delaylearn,learning,ITI,2BMzGBSKNBY5Qc0u2eQs6G9UkFs2,2BMzGBSKNBY5Qc0u2eQs6G9UkFs2,,,,,,,,,,,,,,,,,,,1685.0,,,5c80367593fa450014546aca,16:33:22,27/03/2024
html-keyboard-response,24,45429,0.0-11.0-0.0,642.1000000000931,"<div style=""display: flex; flex-direction: column; align-items: center; margin-top: -40px;""><img src=""images/demo_images/pattern_1.png"" style=""width: 234px; height: 230px; margin-top: -50px;""><div style=""display: flex; justify-content: space-between; margin-top: 33px;""><img src=""images/demo_images/choice_trial_2.png"" style=""width: 408px; height: 417px; margin-right: 200px;""><img src=""images/demo_images/choice_trial_1.png"" style=""width: 408px; height: 417px;""></div></div>",f,delaylearn,learning,trial,2BMzGBSKNBY5Qc0u2eQs6G9UkFs2,2BMzGBSKNBY5Qc0u2eQs6G9UkFs2,3.0,images/demo_images/choice_trial_2.png,images/demo_images/choice_trial_1.png,images/demo_images/pattern_1.png,j,j,3000.0,2.0,1.0,20.0,1.0,5.0,0.0,0.0,2.0,20.0,,,,,,5c80367593fa450014546aca,16:33:22,27/03/2024
html-keyboard-response,25,46444,0.0-11.0-1.0,,"<div style=""display: flex; flex-direction: column; align-items: center; margin-top: -40px;""><img src=""images/demo_images/pattern_1.png"" style=""width: 234px; height: 230px; margin-top: -50px;""><div style=""display: flex; justify-content: space-between; margin-top: 33px;""><img src=""images/demo_images/choice_trial_2.png"" style=""width: 408px; height: 417px; margin-right: 608px;""></div></div>",,delaylearn,learning,display_response,2BMzGBSKNBY5Qc0u2eQs6G9UkFs2,2BMzGBSKNBY5Qc0u2eQs6G9UkFs2,,,,,,,,,,,,,,,,,chosen stimuli: images/demo_images/choice_trial_2.png,,,,,5c80367593fa450014546aca,16:33:22,27/03/2024
html-keyboard-response,26,49452,0.0-11.0-2.0,,,,delaylearn,learning,feedback_duration_window,2BMzGBSKNBY5Qc0u2eQs6G9UkFs2,2BMzGBSKNBY5Qc0u2eQs6G9UkFs2,,,,,,,,,,,,,,,,,,3000.0,,,,5c80367593fa450014546aca,16:33:22,27/03/2024
html-keyboard-response,27,50968,0.0-11.0-3.0,,<div style='margin:auto;width: auto; font-size: 150%'><span style='font-weight: bold; font-size: 100px; color: red;'>0 points!</span><br><br></div>,,delaylearn,learning,feedback_image_window,2BMzGBSKNBY5Qc0u2eQs6G9UkFs2,2BMzGBSKNBY5Qc0u2eQs6G9UkFs2,,,,,,,,,,,,,,,,,,,,,,5c80367593fa450014546aca,16:33:22,27/03/2024
html-keyboard-response,28,53173,0.0-12.0,,"<div style=""font-size:100px;"">+</div>",,delaylearn,learning,ITI,2BMzGBSKNBY5Qc0u2eQs6G9UkFs2,2BMzGBSKNBY5Qc0u2eQs6G9UkFs2,,,,,,,,,,,,,,,,,,,2196.0,,,5c80367593fa450014546aca,16:33:22,27/03/2024
html-keyboard-response,29,54616,0.0-13.0-0.0,1440.5,"<div style=""display: flex; flex-direction: column; align-items: center; margin-top: -40px;""><img src=""images/demo_images/pattern_1.png"" style=""width: 234px; height: 230px; margin-top: -50px;""><div style=""display: flex; justify-content: space-between; margin-top: 33px;""><img src=""images/demo_images/choice_trial_1.png"" style=""width: 408px; height: 417px; margin-right: 200px;""><img src=""images/demo_images/choice_trial_2.png"" style=""width: 408px; height: 417px;""></div></div>",f,delaylearn,learning,trial,2BMzGBSKNBY5Qc0u2eQs6G9UkFs2,2BMzGBSKNBY5Qc0u2eQs6G9UkFs2,3.0,images/demo_images/choice_trial_1.png,images/demo_images/choice_trial_2.png,images/demo_images/pattern_1.png,f,f,3000.0,1.0,2.0,20.0,0.0,6.0,1.0,1.0,1.0,30.0,,,,,,5c80367593fa450014546aca,16:33:22,27/03/2024
html-keyboard-response,30,55626,0.0-13.0-1.0,,"<div style=""display: flex; flex-direction: column; align-items: center; margin-top: -40px;""><img src=""images/demo_images/pattern_1.png"" style=""width: 234px; height: 230px; margin-top: -50px;""><div style=""display: flex; justify-content: space-between; margin-top: 33px;""><img src=""images/demo_images/choice_trial_1.png"" style=""width: 408px; height: 417px; margin-right: 608px;""></div></div>",,delaylearn,learning,display_response,2BMzGBSKNBY5Qc0u2eQs6G9UkFs2,2BMzGBSKNBY5Qc0u2eQs6G9UkFs2,,,,,,,,,,,,,,,,,chosen stimuli: images/demo_images/choice_trial_1.png,,,,,5c80367593fa450014546aca,16:33:22,27/03/2024
html-keyboard-response,31,58641,0.0-13.0-2.0,,,,delaylearn,learning,feedback_duration_window,2BMzGBSKNBY5Qc0u2eQs6G9UkFs2,2BMzGBSKNBY5Qc0u2eQs6G9UkFs2,,,,,,,,,,,,,,,,,,3000.0,,,,5c80367593fa450014546aca,16:33:22,27/03/2024
html-keyboard-response,32,60150,0.0-13.0-3.0,,<div style='margin:auto;width: auto; font-size: 150%'><span style='font-weight: bold; font-size: 100px; color: green;'>+10 points!</span><br><br></div>,,delaylearn,learning,feedback_image_window,2BMzGBSKNBY5Qc0u2eQs6G9UkFs2,2BMzGBSKNBY5Qc0u2eQs6G9UkFs2,,,,,,,,,,,,,,,,,,,,,,5c80367593fa450014546aca,16:33:22,27/03/2024
html-keyboard-response,33,61893,0.0-14.0,,"<div style=""font-size:100px;"">+</div>",,delaylearn,learning,ITI,2BMzGBSKNBY5Qc0u2eQs6G9UkFs2,2BMzGBSKNBY5Qc0u2eQs6G9UkFs2,,,,,,,,,,,,,,,,,,,1726.0,,,5c80367593fa450014546aca,16:33:22,27/03/2024
html-keyboard-response,34,62559,0.0-15.0-0.0,662.8000000002794,"<div style=""display: flex; flex-direction: column; align-items: center; margin-top: -40px;""><img src=""images/demo_images/pattern_1.png"" style=""width: 234px; height: 230px; margin-top: -50px;""><div style=""display: flex; justify-content: space-between; margin-top: 33px;""><img src=""images/demo_images/choice_trial_2.png"" style=""width: 408px; height: 417px; margin-right: 200px;""><img src=""images/demo_images/choice_trial_1.png"" style=""width: 408px; height: 417px;""></div></div>",j,delaylearn,learning,trial,2BMzGBSKNBY5Qc0u2eQs6G9UkFs2,2BMzGBSKNBY5Qc0u2eQs6G9UkFs2,3.0,images/demo_images/choice_trial_2.png,images/demo_images/choice_trial_1.png,images/demo_images/pattern_1.png,j,j,3000.0,2.0,1.0,20.0,1.0,7.0,1.0,1.0,1.0,40.0,,,,,,5c80367593fa450014546aca,16:33:22,27/03/2024
html-keyboard-response,35,63566,0.0-15.0-1.0,,"<div style=""display: flex; flex-direction: column; align-items: center; margin-top: -40px;""><img src=""images/demo_images/pattern_1.png"" style=""width: 234px; height: 230px; margin-top: -50px;""><div style=""display: flex; justify-content: space-between; margin-top: 33px;""><img src=""images/demo_images/choice_trial_1.png"" style=""width: 408px; height: 417px; margin-left:608px;""></div></div>",,delaylearn,learning,display_response,2BMzGBSKNBY5Qc0u2eQs6G9UkFs2,2BMzGBSKNBY5Qc0u2eQs6G9UkFs2,,,,,,,,,,,,,,,,,chosen stimuli: images/demo_images/choice_trial_1.png,,,,,5c80367593fa450014546aca,16:33:22,27/03/2024
html-keyboard-response,36,66575,0.0-15.0-2.0,,,,delaylearn,learning,feedback_duration_window,2BMzGBSKNBY5Qc0u2eQs6G9UkFs2,2BMzGBSKNBY5Qc0u2eQs6G9UkFs2,,,,,,,,,,,,,,,,,,3000.0,,,,5c80367593fa450014546aca,16:33:22,27/03/2024
html-keyboard-response,37,68091,0.0-15.0-3.0,,<div style='margin:auto;width: auto; font-size: 150%'><span style='font-weight: bold; font-size: 100px; color: green;'>+10 points!</span><br><br></div>,,delaylearn,learning,feedback_image_window,2BMzGBSKNBY5Qc0u2eQs6G9UkFs2,2BMzGBSKNBY5Qc0u2eQs6G9UkFs2,,,,,,,,,,,,,,,,,,,,,,5c80367593fa450014546aca,16:33:22,27/03/2024
html-keyboard-response,38,70470,0.0-16.0,,"<div style=""font-size:100px;"">+</div>",,delaylearn,learning,ITI,2BMzGBSKNBY5Qc0u2eQs6G9UkFs2,2BMzGBSKNBY5Qc0u2eQs6G9UkFs2,,,,,,,,,,,,,,,,,,,2368.0,,,5c80367593fa450014546aca,16:33:22,27/03/2024
html-keyboard-response,39,71018,0.0-17.0-0.0,545.1000000000931,"<div style=""display: flex; flex-direction: column; align-items: center; margin-top: -40px;""><img src=""images/demo_images/pattern_1.png"" style=""width: 234px; height: 230px; margin-top: -50px;""><div style=""display: flex; justify-content: space-between; margin-top: 33px;""><img src=""images/demo_images/choice_trial_1.png"" style=""width: 408px; height: 417px; margin-right: 200px;""><img src=""images/demo_images/choice_trial_2.png"" style=""width: 408px; height: 417px;""></div></div>",f,delaylearn,learning,trial,2BMzGBSKNBY5Qc0u2eQs6G9UkFs2,2BMzGBSKNBY5Qc0u2eQs6G9UkFs2,3.0,images/demo_images/choice_trial_1.png,images/demo_images/choice_trial_2.png,images/demo_images/pattern_1.png,f,f,3000.0,1.0,2.0,20.0,0.0,8.0,1.0,1.0,1.0,50.0,,,,,,5c80367593fa450014546aca,16:33:22,27/03/2024
html-keyboard-response,40,72033,0.0-17.0-1.0,,"<div style=""display: flex; flex-direction: column; align-items: center; margin-top: -40px;""><img src=""images/demo_images/pattern_1.png"" style=""width: 234px; height: 230px; margin-top: -50px;""><div style=""display: flex; justify-content: space-between; margin-top: 33px;""><img src=""images/demo_images/choice_trial_1.png"" style=""width: 408px; height: 417px; margin-right: 608px;""></div></div>",,delaylearn,learning,display_response,2BMzGBSKNBY5Qc0u2eQs6G9UkFs2,2BMzGBSKNBY5Qc0u2eQs6G9UkFs2,,,,,,,,,,,,,,,,,chosen stimuli: images/demo_images/choice_trial_1.png,,,,,5c80367593fa450014546aca,16:33:22,27/03/2024
html-keyboard-response,41,75042,0.0-17.0-2.0,,,,delaylearn,learning,feedback_duration_window,2BMzGBSKNBY5Qc0u2eQs6G9UkFs2,2BMzGBSKNBY5Qc0u2eQs6G9UkFs2,,,,,,,,,,,,,,,,,,3000.0,,,,5c80367593fa450014546aca,16:33:22,27/03/2024
html-keyboard-response,42,76556,0.0-17.0-3.0,,<div style='margin:auto;width: auto; font-size: 150%'><span style='font-weight: bold; font-size: 100px; color: green;'>+10 points!</span><br><br></div>,,delaylearn,learning,feedback_image_window,2BMzGBSKNBY5Qc0u2eQs6G9UkFs2,2BMzGBSKNBY5Qc0u2eQs6G9UkFs2,,,,,,,,,,,,,,,,,,,,,,5c80367593fa450014546aca,16:33:22,27/03/2024
html-button-response,43,104381,0.0-18.0,27822.299999999814,"
  <div style=""display: flex; align-items: center; justify-content: center; height: 80vh;"">
  <div>
          <img src=""images/inst_demo_finish.png"" style=""width: 80vw; height:auto;"">
          <br><br>
      </div>
      <br><br>
  </div>",0,,,,2BMzGBSKNBY5Qc0u2eQs6G9UkFs2,,,,,,,,,,,,,,,,,,,,,,,5c80367593fa450014546aca,16:33:22,27/03/2024
html-keyboard-response,44,106563,0.0-19.0,2180.8000000002794,"
  <div style=""display: flex; align-items: center; justify-content: center; height: 80vh;"">
  <div>
          <img src=""images/inst_6.png"" style=""width: 80vw; height:auto;"">
          <br><br>
      </div>
      <br><br>
  </div>",j,,,,2BMzGBSKNBY5Qc0u2eQs6G9UkFs2,,,,,,,,,,,,,,,,,,,,,,,5c80367593fa450014546aca,16:33:22,27/03/2024
html-keyboard-response,45,109567,0.0-20.0,,"<div style=""font-size:100px;"">+</div>",,delaylearn,learning,pre_fixation,2BMzGBSKNBY5Qc0u2eQs6G9UkFs2,,,,,,,,,,,,,,,,,,,,,,,5c80367593fa450014546aca,16:33:22,27/03/2024
html-keyboard-response,46,111733,0.0-21.0,,"<div style=""font-size:100px;"">+</div>",,delaylearn,learning,ITI,2BMzGBSKNBY5Qc0u2eQs6G9UkFs2,2BMzGBSKNBY5Qc0u2eQs6G9UkFs2,,,,,,,,,,,,,,,,,,,2161.0,,,5c80367593fa450014546aca,16:33:22,27/03/2024
html-keyboard-response,47,113573,0.0-22.0-0.0,1836.2999999998137,"<div style=""display: flex; flex-direction: column; align-items: center; margin-top: -40px;""><img src=""images/pattern_3.png"" style=""width: 234px; height: 230px; margin-top: -50px;""><div style=""display: flex; justify-content: space-between; margin-top: 33px;""><img src=""images/choice_trial_13.png"" style=""width: 408px; height: 417px; margin-right: 200px;""><img src=""images/choice_trial_10.png"" style=""width: 408px; height: 417px;""></div></div>",j,delaylearn,learning,trial,2BMzGBSKNBY5Qc0u2eQs6G9UkFs2,2BMzGBSKNBY5Qc0u2eQs6G9UkFs2,3.0,images/choice_trial_13.png,images/choice_trial_10.png,images/pattern_3.png,f,f,7000.0,13.0,10.0,2.0,0.0,9.0,0.0,0.0,10.0,50.0,,,,,,5c80367593fa450014546aca,16:33:22,27/03/2024
html-keyboard-response,48,114590,0.0-22.0-1.0,,"<div style=""display: flex; flex-direction: column; align-items: center; margin-top: -40px;""><img src=""images/pattern_3.png"" style=""width: 234px; height: 230px; margin-top: -50px;""><div style=""display: flex; justify-content: space-between; margin-top: 33px;""><img src=""images/choice_trial_10.png"" style=""width: 408px; height: 417px; margin-left:608px;""></div></div>",,delaylearn,learning,display_response,2BMzGBSKNBY5Qc0u2eQs6G9UkFs2,2BMzGBSKNBY5Qc0u2eQs6G9UkFs2,,,,,,,,,,,,,,,,,chosen stimuli: images/choice_trial_10.png,,,,,5c80367593fa450014546aca,16:33:22,27/03/2024
html-keyboard-response,49,121605,0.0-22.0-2.0,,,,delaylearn,learning,feedback_duration_window,2BMzGBSKNBY5Qc0u2eQs6G9UkFs2,2BMzGBSKNBY5Qc0u2eQs6G9UkFs2,,,,,,,,,,,,,,,,,,7000.0,,,,5c80367593fa450014546aca,16:33:22,27/03/2024
html-keyboard-response,50,123122,0.0-22.0-3.0,,<div style='margin:auto;width: auto; font-size: 150%'><span style='font-weight: bold; font-size: 100px; color: red;'>0 points!</span><br><br></div>,,delaylearn,learning,feedback_image_window,2BMzGBSKNBY5Qc0u2eQs6G9UkFs2,2BMzGBSKNBY5Qc0u2eQs6G9UkFs2,,,,,,,,,,,,,,,,,,,,,,5c80367593fa450014546aca,16:33:22,27/03/2024
html-keyboard-response,51,124758,0.0-23.0,,"<div style=""font-size:100px;"">+</div>",,delaylearn,learning,ITI,2BMzGBSKNBY5Qc0u2eQs6G9UkFs2,2BMzGBSKNBY5Qc0u2eQs6G9UkFs2,,,,,,,,,,,,,,,,,,,1624.0,,,5c80367593fa450014546aca,16:33:22,27/03/2024
html-keyboard-response,52,127261,0.0-24.0-0.0,2500.2000000001863,"<div style=""display: flex; flex-direction: column; align-items: center; margin-top: -40px;""><img src=""images/pattern_7.png"" style=""width: 234px; height: 230px; margin-top: -50px;""><div style=""display: flex; justify-content: space-between; margin-top: 33px;""><img src=""images/choice_trial_12.png"" style=""width: 408px; height: 417px; margin-right: 200px;""><img src=""images/choice_trial_6.png"" style=""width: 408px; height: 417px;""></div></div>",j,delaylearn,learning,trial,2BMzGBSKNBY5Qc0u2eQs6G9UkFs2,2BMzGBSKNBY5Qc0u2eQs6G9UkFs2,3.0,images/choice_trial_12.png,images/choice_trial_6.png,images/pattern_7.png,j,j,750.0,12.0,6.0,6.0,1.0,10.0,1.0,1.0,6.0,60.0,,,,,,5c80367593fa450014546aca,16:33:22,27/03/2024
html-keyboard-response,53,128277,0.0-24.0-1.0,,"<div style=""display: flex; flex-direction: column; align-items: center; margin-top: -40px;""><img src=""images/pattern_7.png"" style=""width: 234px; height: 230px; margin-top: -50px;""><div style=""display: flex; justify-content: space-between; margin-top: 33px;""><img src=""images/choice_trial_6.png"" style=""width: 408px; height: 417px; margin-left:608px;""></div></div>",,delaylearn,learning,display_response,2BMzGBSKNBY5Qc0u2eQs6G9UkFs2,2BMzGBSKNBY5Qc0u2eQs6G9UkFs2,,,,,,,,,,,,,,,,,chosen stimuli: images/choice_trial_6.png,,,,,5c80367593fa450014546aca,16:33:22,27/03/2024
html-keyboard-response,54,129041,0.0-24.0-2.0,,,,delaylearn,learning,feedback_duration_window,2BMzGBSKNBY5Qc0u2eQs6G9UkFs2,2BMzGBSKNBY5Qc0u2eQs6G9UkFs2,,,,,,,,,,,,,,,,,,750.0,,,,5c80367593fa450014546aca,16:33:22,27/03/2024
html-keyboard-response,55,130545,0.0-24.0-3.0,,<div style='margin:auto;width: auto; font-size: 150%'><span style='font-weight: bold; font-size: 100px; color: green;'>+10 points!</span><br><br></div>,,delaylearn,learning,feedback_image_window,2BMzGBSKNBY5Qc0u2eQs6G9UkFs2,2BMzGBSKNBY5Qc0u2eQs6G9UkFs2,,,,,,,,,,,,,,,,,,,,,,5c80367593fa450014546aca,16:33:22,27/03/2024
html-keyboard-response,56,132210,0.0-25.0,,"<div style=""font-size:100px;"">+</div>",,delaylearn,learning,ITI,2BMzGBSKNBY5Qc0u2eQs6G9UkFs2,2BMzGBSKNBY5Qc0u2eQs6G9UkFs2,,,,,,,,,,,,,,,,,,,1653.0,,,5c80367593fa450014546aca,16:33:22,27/03/2024
html-keyboard-response,57,134771,0.0-26.0-0.0,2558.7000000001863,"<div style=""display: flex; flex-direction: column; align-items: center; margin-top: -40px;""><img src=""images/pattern_4.png"" style=""width: 234px; height: 230px; margin-top: -50px;""><div style=""display: flex; justify-content: space-between; margin-top: 33px;""><img src=""images/choice_trial_15.png"" style=""width: 408px; height: 417px; margin-right: 200px;""><img src=""images/choice_trial_9.png"" style=""width: 408px; height: 417px;""></div></div>",j,delaylearn,learning,trial,2BMzGBSKNBY5Qc0u2eQs6G9UkFs2,2BMzGBSKNBY5Qc0u2eQs6G9UkFs2,3.0,images/choice_trial_15.png,images/choice_trial_9.png,images/pattern_4.png,f,f,7000.0,15.0,9.0,3.0,0.0,11.0,0.0,0.0,9.0,60.0,,,,,,5c80367593fa450014546aca,16:33:22,27/03/2024
html-keyboard-response,58,135779,0.0-26.0-1.0,,"<div style=""display: flex; flex-direction: column; align-items: center; margin-top: -40px;""><img src=""images/pattern_4.png"" style=""width: 234px; height: 230px; margin-top: -50px;""><div style=""display: flex; justify-content: space-between; margin-top: 33px;""><img src=""images/choice_trial_9.png"" style=""width: 408px; height: 417px; margin-left:608px;""></div></div>",,delaylearn,learning,display_response,2BMzGBSKNBY5Qc0u2eQs6G9UkFs2,2BMzGBSKNBY5Qc0u2eQs6G9UkFs2,,,,,,,,,,,,,,,,,chosen stimuli: images/choice_trial_9.png,,,,,5c80367593fa450014546aca,16:33:22,27/03/2024
html-keyboard-response,59,142786,0.0-26.0-2.0,,,,delaylearn,learning,feedback_duration_window,2BMzGBSKNBY5Qc0u2eQs6G9UkFs2,2BMzGBSKNBY5Qc0u2eQs6G9UkFs2,,,,,,,,,,,,,,,,,,7000.0,,,,5c80367593fa450014546aca,16:33:22,27/03/2024
html-keyboard-response,60,144294,0.0-26.0-3.0,,<div style='margin:auto;width: auto; font-size: 150%'><span style='font-weight: bold; font-size: 100px; color: red;'>0 points!</span><br><br></div>,,delaylearn,learning,feedback_image_window,2BMzGBSKNBY5Qc0u2eQs6G9UkFs2,2BMzGBSKNBY5Qc0u2eQs6G9UkFs2,,,,,,,,,,,,,,,,,,,,,,5c80367593fa450014546aca,16:33:22,27/03/2024
html-keyboard-response,61,145945,0.0-27.0,,"<div style=""font-size:100px;"">+</div>",,delaylearn,learning,ITI,2BMzGBSKNBY5Qc0u2eQs6G9UkFs2,2BMzGBSKNBY5Qc0u2eQs6G9UkFs2,,,,,,,,,,,,,,,,,,,1634.0,,,5c80367593fa450014546aca,16:33:22,27/03/2024
html-keyboard-response,62,148040,0.0-28.0-0.0,2091.1999999997206,"<div style=""display: flex; flex-direction: column; align-items: center; margin-top: -40px;""><img src=""images/pattern_5.png"" style=""width: 234px; height: 230px; margin-top: -50px;""><div style=""display: flex; justify-content: space-between; margin-top: 33px;""><img src=""images/choice_trial_2.png"" style=""width: 408px; height: 417px; margin-right: 200px;""><img src=""images/choice_trial_11.png"" style=""width: 408px; height: 417px;""></div></div>",f,delaylearn,learning,trial,2BMzGBSKNBY5Qc0u2eQs6G9UkFs2,2BMzGBSKNBY5Qc0u2eQs6G9UkFs2,3.0,images/choice_trial_2.png,images/choice_trial_11.png,images/pattern_5.png,j,j,750.0,2.0,11.0,4.0,1.0,12.0,0.0,0.0,2.0,60.0,,,,,,5c80367593fa450014546aca,16:33:22,27/03/2024
html-keyboard-response,63,149046,0.0-28.0-1.0,,"<div style=""display: flex; flex-direction: column; align-items: center; margin-top: -40px;""><img src=""images/pattern_5.png"" style=""width: 234px; height: 230px; margin-top: -50px;""><div style=""display: flex; justify-content: space-between; margin-top: 33px;""><img src=""images/choice_trial_2.png"" style=""width: 408px; height: 417px; margin-right: 608px;""></div></div>",,delaylearn,learning,display_response,2BMzGBSKNBY5Qc0u2eQs6G9UkFs2,2BMzGBSKNBY5Qc0u2eQs6G9UkFs2,,,,,,,,,,,,,,,,,chosen stimuli: images/choice_trial_2.png,,,,,5c80367593fa450014546aca,16:33:22,27/03/2024
html-keyboard-response,64,149806,0.0-28.0-2.0,,,,delaylearn,learning,feedback_duration_window,2BMzGBSKNBY5Qc0u2eQs6G9UkFs2,2BMzGBSKNBY5Qc0u2eQs6G9UkFs2,,,,,,,,,,,,,,,,,,750.0,,,,5c80367593fa450014546aca,16:33:22,27/03/2024
html-keyboard-response,65,151315,0.0-28.0-3.0,,<div style='margin:auto;width: auto; font-size: 150%'><span style='font-weight: bold; font-size: 100px; color: red;'>0 points!</span><br><br></div>,,delaylearn,learning,feedback_image_window,2BMzGBSKNBY5Qc0u2eQs6G9UkFs2,2BMzGBSKNBY5Qc0u2eQs6G9UkFs2,,,,,,,,,,,,,,,,,,,,,,5c80367593fa450014546aca,16:33:22,27/03/2024
html-keyboard-response,66,153445,0.0-29.0,,"<div style=""font-size:100px;"">+</div>",,delaylearn,learning,ITI,2BMzGBSKNBY5Qc0u2eQs6G9UkFs2,2BMzGBSKNBY5Qc0u2eQs6G9UkFs2,,,,,,,,,,,,,,,,,,,2126.0,,,5c80367593fa450014546aca,16:33:22,27/03/2024
html-keyboard-response,67,154919,0.0-30.0-0.0,1471.7000000001863,"<div style=""display: flex; flex-direction: column; align-items: center; margin-top: -40px;""><img src=""images/pattern_6.png"" style=""width: 234px; height: 230px; margin-top: -50px;""><div style=""display: flex; justify-content: space-between; margin-top: 33px;""><img src=""images/choice_trial_16.png"" style=""width: 408px; height: 417px; margin-right: 200px;""><img src=""images/choice_trial_3.png"" style=""width: 408px; height: 417px;""></div></div>",f,delaylearn,learning,trial,2BMzGBSKNBY5Qc0u2eQs6G9UkFs2,2BMzGBSKNBY5Qc0u2eQs6G9UkFs2,3.0,images/choice_trial_16.png,images/choice_trial_3.png,images/pattern_6.png,j,f,750.0,16.0,3.0,5.0,0.0,13.0,1.0,0.0,16.0,60.0,,,,,,5c80367593fa450014546aca,16:33:22,27/03/2024
html-keyboard-response,68,155932,0.0-30.0-1.0,,"<div style=""display: flex; flex-direction: column; align-items: center; margin-top: -40px;""><img src=""images/pattern_6.png"" style=""width: 234px; height: 230px; margin-top: -50px;""><div style=""display: flex; justify-content: space-between; margin-top: 33px;""><img src=""images/choice_trial_16.png"" style=""width: 408px; height: 417px; margin-right: 608px;""></div></div>",,delaylearn,learning,display_response,2BMzGBSKNBY5Qc0u2eQs6G9UkFs2,2BMzGBSKNBY5Qc0u2eQs6G9UkFs2,,,,,,,,,,,,,,,,,chosen stimuli: images/choice_trial_16.png,,,,,5c80367593fa450014546aca,16:33:22,27/03/2024
html-keyboard-response,69,156699,0.0-30.0-2.0,,,,delaylearn,learning,feedback_duration_window,2BMzGBSKNBY5Qc0u2eQs6G9UkFs2,2BMzGBSKNBY5Qc0u2eQs6G9UkFs2,,,,,,,,,,,,,,,,,,750.0,,,,5c80367593fa450014546aca,16:33:22,27/03/2024
html-keyboard-response,70,158217,0.0-30.0-3.0,,<div style='margin:auto;width: auto; font-size: 150%'><span style='font-weight: bold; font-size: 100px; color: red;'>0 points!</span><br><br></div>,,delaylearn,learning,feedback_image_window,2BMzGBSKNBY5Qc0u2eQs6G9UkFs2,2BMzGBSKNBY5Qc0u2eQs6G9UkFs2,,,,,,,,,,,,,,,,,,,,,,5c80367593fa450014546aca,16:33:22,27/03/2024
html-keyboard-response,71,158731,0.0-31.0-0.0,,,,,,mood_trial_fixation,2BMzGBSKNBY5Qc0u2eQs6G9UkFs2,,,,,,,,,,,,,,,,,,,,,,,5c80367593fa450014546aca,16:33:22,27/03/2024
lmdlab-html-vas-response,72,163765,0.0-31.0-1.0,4020.0,How happy are you right now?,0.24755195408113764,delaylearn,learning,mood_trial,2BMzGBSKNBY5Qc0u2eQs6G9UkFs2,2BMzGBSKNBY5Qc0u2eQs6G9UkFs2,,,,,,,,,,,,,,,,,,,,"['Very unhappy', 'Very happy']",,5c80367593fa450014546aca,16:33:22,27/03/2024
html-keyboard-response,73,165747,0.0-32.0,,"<div style=""font-size:100px;"">+</div>",,delaylearn,learning,ITI,2BMzGBSKNBY5Qc0u2eQs6G9UkFs2,2BMzGBSKNBY5Qc0u2eQs6G9UkFs2,,,,,,,,,,,,,,,,,,,1979.0,,,5c80367593fa450014546aca,16:33:22,27/03/2024
html-keyboard-response,74,167869,0.0-33.0-0.0,2120.0,"<div style=""display: flex; flex-direction: column; align-items: center; margin-top: -40px;""><img src=""images/pattern_1.png"" style=""width: 234px; height: 230px; margin-top: -50px;""><div style=""display: flex; justify-content: space-between; margin-top: 33px;""><img src=""images/choice_trial_8.png"" style=""width: 408px; height: 417px; margin-right: 200px;""><img src=""images/choice_trial_14.png"" style=""width: 408px; height: 417px;""></div></div>",f,delaylearn,learning,trial,2BMzGBSKNBY5Qc0u2eQs6G9UkFs2,2BMzGBSKNBY5Qc0u2eQs6G9UkFs2,3.0,images/choice_trial_8.png,images/choice_trial_14.png,images/pattern_1.png,j,j,7000.0,8.0,14.0,1.0,1.0,14.0,0.0,0.0,8.0,60.0,,,,,,5c80367593fa450014546aca,16:33:22,27/03/2024
html-keyboard-response,75,168887,0.0-33.0-1.0,,"<div style=""display: flex; flex-direction: column; align-items: center; margin-top: -40px;""><img src=""images/pattern_1.png"" style=""width: 234px; height: 230px; margin-top: -50px;""><div style=""display: flex; justify-content: space-between; margin-top: 33px;""><img src=""images/choice_trial_8.png"" style=""width: 408px; height: 417px; margin-right: 608px;""></div></div>",,delaylearn,learning,display_response,2BMzGBSKNBY5Qc0u2eQs6G9UkFs2,2BMzGBSKNBY5Qc0u2eQs6G9UkFs2,,,,,,,,,,,,,,,,,chosen stimuli: images/choice_trial_8.png,,,,,5c80367593fa450014546aca,16:33:22,27/03/2024
html-keyboard-response,76,175904,0.0-33.0-2.0,,,,delaylearn,learning,feedback_duration_window,2BMzGBSKNBY5Qc0u2eQs6G9UkFs2,2BMzGBSKNBY5Qc0u2eQs6G9UkFs2,,,,,,,,,,,,,,,,,,7000.0,,,,5c80367593fa450014546aca,16:33:22,27/03/2024
html-keyboard-response,77,177408,0.0-33.0-3.0,,<div style='margin:auto;width: auto; font-size: 150%'><span style='font-weight: bold; font-size: 100px; color: red;'>0 points!</span><br><br></div>,,delaylearn,learning,feedback_image_window,2BMzGBSKNBY5Qc0u2eQs6G9UkFs2,2BMzGBSKNBY5Qc0u2eQs6G9UkFs2,,,,,,,,,,,,,,,,,,,,,,5c80367593fa450014546aca,16:33:22,27/03/2024
html-keyboard-response,78,179717,0.0-34.0,,"<div style=""font-size:100px;"">+</div>",,delaylearn,learning,ITI,2BMzGBSKNBY5Qc0u2eQs6G9UkFs2,2BMzGBSKNBY5Qc0u2eQs6G9UkFs2,,,,,,,,,,,,,,,,,,,2295.0,,,5c80367593fa450014546aca,16:33:22,27/03/2024
html-keyboard-response,79,181973,0.0-35.0-0.0,2253.1999999997206,"<div style=""display: flex; flex-direction: column; align-items: center; margin-top: -40px;""><img src=""images/pattern_3.png"" style=""width: 234px; height: 230px; margin-top: -50px;""><div style=""display: flex; justify-content: space-between; margin-top: 33px;""><img src=""images/choice_trial_10.png"" style=""width: 408px; height: 417px; margin-right: 200px;""><img src=""images/choice_trial_13.png"" style=""width: 408px; height: 417px;""></div></div>",j,delaylearn,learning,trial,2BMzGBSKNBY5Qc0u2eQs6G9UkFs2,2BMzGBSKNBY5Qc0u2eQs6G9UkFs2,3.0,images/choice_trial_10.png,images/choice_trial_13.png,images/pattern_3.png,f,j,7000.0,10.0,13.0,2.0,1.0,15.0,1.0,0.0,13.0,60.0,,,,,,5c80367593fa450014546aca,16:33:22,27/03/2024
html-keyboard-response,80,182983,0.0-35.0-1.0,,"<div style=""display: flex; flex-direction: column; align-items: center; margin-top: -40px;""><img src=""images/pattern_3.png"" style=""width: 234px; height: 230px; margin-top: -50px;""><div style=""display: flex; justify-content: space-between; margin-top: 33px;""><img src=""images/choice_trial_13.png"" style=""width: 408px; height: 417px; margin-left:608px;""></div></div>",,delaylearn,learning,display_response,2BMzGBSKNBY5Qc0u2eQs6G9UkFs2,2BMzGBSKNBY5Qc0u2eQs6G9UkFs2,,,,,,,,,,,,,,,,,chosen stimuli: images/choice_trial_13.png,,,,,5c80367593fa450014546aca,16:33:22,27/03/2024
html-keyboard-response,81,190000,0.0-35.0-2.0,,,,delaylearn,learning,feedback_duration_window,2BMzGBSKNBY5Qc0u2eQs6G9UkFs2,2BMzGBSKNBY5Qc0u2eQs6G9UkFs2,,,,,,,,,,,,,,,,,,7000.0,,,,5c80367593fa450014546aca,16:33:22,27/03/2024
html-keyboard-response,82,191511,0.0-35.0-3.0,,<div style='margin:auto;width: auto; font-size: 150%'><span style='font-weight: bold; font-size: 100px; color: red;'>0 points!</span><br><br></div>,,delaylearn,learning,feedback_image_window,2BMzGBSKNBY5Qc0u2eQs6G9UkFs2,2BMzGBSKNBY5Qc0u2eQs6G9UkFs2,,,,,,,,,,,,,,,,,,,,,,5c80367593fa450014546aca,16:33:22,27/03/2024
html-keyboard-response,83,193188,0.0-36.0,,"<div style=""font-size:100px;"">+</div>",,delaylearn,learning,ITI,2BMzGBSKNBY5Qc0u2eQs6G9UkFs2,2BMzGBSKNBY5Qc0u2eQs6G9UkFs2,,,,,,,,,,,,,,,,,,,1669.0,,,5c80367593fa450014546aca,16:33:22,27/03/2024
html-keyboard-response,84,195933,0.0-37.0-0.0,2742.399999999907,"<div style=""display: flex; flex-direction: column; align-items: center; margin-top: -40px;""><img src=""images/pattern_5.png"" style=""width: 234px; height: 230px; margin-top: -50px;""><div style=""display: flex; justify-content: space-between; margin-top: 33px;""><img src=""images/choice_trial_11.png"" style=""width: 408px; height: 417px; margin-right: 200px;""><img src=""images/choice_trial_2.png"" style=""width: 408px; height: 417px;""></div></div>",f,delaylearn,learning,trial,2BMzGBSKNBY5Qc0u2eQs6G9UkFs2,2BMzGBSKNBY5Qc0u2eQs6G9UkFs2,3.0,images/choice_trial_11.png,images/choice_trial_2.png,images/pattern_5.png,f,f,750.0,11.0,2.0,4.0,0.0,16.0,1.0,1.0,11.0,70.0,,,,,,5c80367593fa450014546aca,16:33:22,27/03/2024
html-keyboard-response,85,196947,0.0-37.0-1.0,,"<div style=""display: flex; flex-direction: column; align-items: center; margin-top: -40px;""><img src=""images/pattern_5.png"" style=""width: 234px; height: 230px; margin-top: -50px;""><div style=""display: flex; justify-content: space-between; margin-top: 33px;""><img src=""images/choice_trial_11.png"" style=""width: 408px; height: 417px; margin-right: 608px;""></div></div>",,delaylearn,learning,display_response,2BMzGBSKNBY5Qc0u2eQs6G9UkFs2,2BMzGBSKNBY5Qc0u2eQs6G9UkFs2,,,,,,,,,,,,,,,,,chosen stimuli: images/choice_trial_11.png,,,,,5c80367593fa450014546aca,16:33:22,27/03/2024
html-keyboard-response,86,197708,0.0-37.0-2.0,,,,delaylearn,learning,feedback_duration_window,2BMzGBSKNBY5Qc0u2eQs6G9UkFs2,2BMzGBSKNBY5Qc0u2eQs6G9UkFs2,,,,,,,,,,,,,,,,,,750.0,,,,5c80367593fa450014546aca,16:33:22,27/03/2024
html-keyboard-response,87,199224,0.0-37.0-3.0,,<div style='margin:auto;width: auto; font-size: 150%'><span style='font-weight: bold; font-size: 100px; color: green;'>+10 points!</span><br><br></div>,,delaylearn,learning,feedback_image_window,2BMzGBSKNBY5Qc0u2eQs6G9UkFs2,2BMzGBSKNBY5Qc0u2eQs6G9UkFs2,,,,,,,,,,,,,,,,,,,,,,5c80367593fa450014546aca,16:33:22,27/03/2024
html-keyboard-response,88,199736,0.0-38.0-0.0,,,,,,mood_trial_fixation,2BMzGBSKNBY5Qc0u2eQs6G9UkFs2,,,,,,,,,,,,,,,,,,,,,,,5c80367593fa450014546aca,16:33:22,27/03/2024
lmdlab-html-vas-response,89,204866,0.0-38.0-1.0,4109.0,How happy are you right now?,0.26160576105440153,delaylearn,learning,mood_trial,2BMzGBSKNBY5Qc0u2eQs6G9UkFs2,2BMzGBSKNBY5Qc0u2eQs6G9UkFs2,,,,,,,,,,,,,,,,,,,,"['Very unhappy', 'Very happy']",,5c80367593fa450014546aca,16:33:22,27/03/2024
html-keyboard-response,90,207243,0.0-39.0,,"<div style=""font-size:100px;"">+</div>",,delaylearn,learning,ITI,2BMzGBSKNBY5Qc0u2eQs6G9UkFs2,2BMzGBSKNBY5Qc0u2eQs6G9UkFs2,,,,,,,,,,,,,,,,,,,2375.0,,,5c80367593fa450014546aca,16:33:22,27/03/2024
html-keyboard-response,91,208807,0.0-40.0-0.0,1561.5,"<div style=""display: flex; flex-direction: column; align-items: center; margin-top: -40px;""><img src=""images/pattern_6.png"" style=""width: 234px; height: 230px; margin-top: -50px;""><div style=""display: flex; justify-content: space-between; margin-top: 33px;""><img src=""images/choice_trial_16.png"" style=""width: 408px; height: 417px; margin-right: 200px;""><img src=""images/choice_trial_3.png"" style=""width: 408px; height: 417px;""></div></div>",j,delaylearn,learning,trial,2BMzGBSKNBY5Qc0u2eQs6G9UkFs2,2BMzGBSKNBY5Qc0u2eQs6G9UkFs2,3.0,images/choice_trial_16.png,images/choice_trial_3.png,images/pattern_6.png,f,f,750.0,16.0,3.0,5.0,0.0,17.0,0.0,0.0,3.0,70.0,,,,,,5c80367593fa450014546aca,16:33:22,27/03/2024
html-keyboard-response,92,209821,0.0-40.0-1.0,,"<div style=""display: flex; flex-direction: column; align-items: center; margin-top: -40px;""><img src=""images/pattern_6.png"" style=""width: 234px; height: 230px; margin-top: -50px;""><div style=""display: flex; justify-content: space-between; margin-top: 33px;""><img src=""images/choice_trial_3.png"" style=""width: 408px; height: 417px; margin-left:608px;""></div></div>",,delaylearn,learning,display_response,2BMzGBSKNBY5Qc0u2eQs6G9UkFs2,2BMzGBSKNBY5Qc0u2eQs6G9UkFs2,,,,,,,,,,,,,,,,,chosen stimuli: images/choice_trial_3.png,,,,,5c80367593fa450014546aca,16:33:22,27/03/2024
html-keyboard-response,93,210581,0.0-40.0-2.0,,,,delaylearn,learning,feedback_duration_window,2BMzGBSKNBY5Qc0u2eQs6G9UkFs2,2BMzGBSKNBY5Qc0u2eQs6G9UkFs2,,,,,,,,,,,,,,,,,,750.0,,,,5c80367593fa450014546aca,16:33:22,27/03/2024
html-keyboard-response,94,212091,0.0-40.0-3.0,,<div style='margin:auto;width: auto; font-size: 150%'><span style='font-weight: bold; font-size: 100px; color: red;'>0 points!</span><br><br></div>,,delaylearn,learning,feedback_image_window,2BMzGBSKNBY5Qc0u2eQs6G9UkFs2,2BMzGBSKNBY5Qc0u2eQs6G9UkFs2,,,,,,,,,,,,,,,,,,,,,,5c80367593fa450014546aca,16:33:22,27/03/2024
html-keyboard-response,95,214087,0.0-41.0,,"<div style=""font-size:100px;"">+</div>",,delaylearn,learning,ITI,2BMzGBSKNBY5Qc0u2eQs6G9UkFs2,2BMzGBSKNBY5Qc0u2eQs6G9UkFs2,,,,,,,,,,,,,,,,,,,1985.0,,,5c80367593fa450014546aca,16:33:22,27/03/2024
html-keyboard-response,96,216121,0.0-42.0-0.0,2030.3999999999069,"<div style=""display: flex; flex-direction: column; align-items: center; margin-top: -40px;""><img src=""images/pattern_4.png"" style=""width: 234px; height: 230px; margin-top: -50px;""><div style=""display: flex; justify-content: space-between; margin-top: 33px;""><img src=""images/choice_trial_9.png"" style=""width: 408px; height: 417px; margin-right: 200px;""><img src=""images/choice_trial_15.png"" style=""width: 408px; height: 417px;""></div></div>",j,delaylearn,learning,trial,2BMzGBSKNBY5Qc0u2eQs6G9UkFs2,2BMzGBSKNBY5Qc0u2eQs6G9UkFs2,3.0,images/choice_trial_9.png,images/choice_trial_15.png,images/pattern_4.png,j,j,7000.0,9.0,15.0,3.0,1.0,18.0,1.0,1.0,15.0,80.0,,,,,,5c80367593fa450014546aca,16:33:22,27/03/2024
html-keyboard-response,97,217138,0.0-42.0-1.0,,"<div style=""display: flex; flex-direction: column; align-items: center; margin-top: -40px;""><img src=""images/pattern_4.png"" style=""width: 234px; height: 230px; margin-top: -50px;""><div style=""display: flex; justify-content: space-between; margin-top: 33px;""><img src=""images/choice_trial_15.png"" style=""width: 408px; height: 417px; margin-left:608px;""></div></div>",,delaylearn,learning,display_response,2BMzGBSKNBY5Qc0u2eQs6G9UkFs2,2BMzGBSKNBY5Qc0u2eQs6G9UkFs2,,,,,,,,,,,,,,,,,chosen stimuli: images/choice_trial_15.png,,,,,5c80367593fa450014546aca,16:33:22,27/03/2024
html-keyboard-response,98,224147,0.0-42.0-2.0,,,,delaylearn,learning,feedback_duration_window,2BMzGBSKNBY5Qc0u2eQs6G9UkFs2,2BMzGBSKNBY5Qc0u2eQs6G9UkFs2,,,,,,,,,,,,,,,,,,7000.0,,,,5c80367593fa450014546aca,16:33:22,27/03/2024
html-keyboard-response,99,225666,0.0-42.0-3.0,,<div style='margin:auto;width: auto; font-size: 150%'><span style='font-weight: bold; font-size: 100px; color: green;'>+10 points!</span><br><br></div>,,delaylearn,learning,feedback_image_window,2BMzGBSKNBY5Qc0u2eQs6G9UkFs2,2BMzGBSKNBY5Qc0u2eQs6G9UkFs2,,,,,,,,,,,,,,,,,,,,,,5c80367593fa450014546aca,16:33:22,27/03/2024
html-keyboard-response,100,227641,0.0-43.0,,"<div style=""font-size:100px;"">+</div>",,delaylearn,learning,ITI,2BMzGBSKNBY5Qc0u2eQs6G9UkFs2,2BMzGBSKNBY5Qc0u2eQs6G9UkFs2,,,,,,,,,,,,,,,,,,,1959.0,,,5c80367593fa450014546aca,16:33:22,27/03/2024
html-keyboard-response,101,229522,0.0-44.0-0.0,1877.7999999998137,"<div style=""display: flex; flex-direction: column; align-items: center; margin-top: -40px;""><img src=""images/pattern_7.png"" style=""width: 234px; height: 230px; margin-top: -50px;""><div style=""display: flex; justify-content: space-between; margin-top: 33px;""><img src=""images/choice_trial_6.png"" style=""width: 408px; height: 417px; margin-right: 200px;""><img src=""images/choice_trial_12.png"" style=""width: 408px; height: 417px;""></div></div>",f,delaylearn,learning,trial,2BMzGBSKNBY5Qc0u2eQs6G9UkFs2,2BMzGBSKNBY5Qc0u2eQs6G9UkFs2,3.0,images/choice_trial_6.png,images/choice_trial_12.png,images/pattern_7.png,j,f,750.0,6.0,12.0,6.0,0.0,19.0,1.0,0.0,6.0,80.0,,,,,,5c80367593fa450014546aca,16:33:22,27/03/2024
html-keyboard-response,102,230525,0.0-44.0-1.0,,"<div style=""display: flex; flex-direction: column; align-items: center; margin-top: -40px;""><img src=""images/pattern_7.png"" style=""width: 234px; height: 230px; margin-top: -50px;""><div style=""display: flex; justify-content: space-between; margin-top: 33px;""><img src=""images/choice_trial_6.png"" style=""width: 408px; height: 417px; margin-right: 608px;""></div></div>",,delaylearn,learning,display_response,2BMzGBSKNBY5Qc0u2eQs6G9UkFs2,2BMzGBSKNBY5Qc0u2eQs6G9UkFs2,,,,,,,,,,,,,,,,,chosen stimuli: images/choice_trial_6.png,,,,,5c80367593fa450014546aca,16:33:22,27/03/2024
html-keyboard-response,103,231280,0.0-44.0-2.0,,,,delaylearn,learning,feedback_duration_window,2BMzGBSKNBY5Qc0u2eQs6G9UkFs2,2BMzGBSKNBY5Qc0u2eQs6G9UkFs2,,,,,,,,,,,,,,,,,,750.0,,,,5c80367593fa450014546aca,16:33:22,27/03/2024
html-keyboard-response,104,232802,0.0-44.0-3.0,,<div style='margin:auto;width: auto; font-size: 150%'><span style='font-weight: bold; font-size: 100px; color: red;'>0 points!</span><br><br></div>,,delaylearn,learning,feedback_image_window,2BMzGBSKNBY5Qc0u2eQs6G9UkFs2,2BMzGBSKNBY5Qc0u2eQs6G9UkFs2,,,,,,,,,,,,,,,,,,,,,,5c80367593fa450014546aca,16:33:22,27/03/2024
html-keyboard-response,105,234403,0.0-45.0,,"<div style=""font-size:100px;"">+</div>",,delaylearn,learning,ITI,2BMzGBSKNBY5Qc0u2eQs6G9UkFs2,2BMzGBSKNBY5Qc0u2eQs6G9UkFs2,,,,,,,,,,,,,,,,,,,1588.0,,,5c80367593fa450014546aca,16:33:22,27/03/2024
html-keyboard-response,106,235739,0.0-46.0-0.0,1331.6000000000931,"<div style=""display: flex; flex-direction: column; align-items: center; margin-top: -40px;""><img src=""images/pattern_1.png"" style=""width: 234px; height: 230px; margin-top: -50px;""><div style=""display: flex; justify-content: space-between; margin-top: 33px;""><img src=""images/choice_trial_14.png"" style=""width: 408px; height: 417px; margin-right: 200px;""><img src=""images/choice_trial_8.png"" style=""width: 408px; height: 417px;""></div></div>",f,delaylearn,learning,trial,2BMzGBSKNBY5Qc0u2eQs6G9UkFs2,2BMzGBSKNBY5Qc0u2eQs6G9UkFs2,3.0,images/choice_trial_14.png,images/choice_trial_8.png,images/pattern_1.png,f,f,7000.0,14.0,8.0,1.0,0.0,20.0,1.0,1.0,14.0,90.0,,,,,,5c80367593fa450014546aca,16:33:22,27/03/2024
html-keyboard-response,107,236756,0.0-46.0-1.0,,"<div style=""display: flex; flex-direction: column; align-items: center; margin-top: -40px;""><img src=""images/pattern_1.png"" style=""width: 234px; height: 230px; margin-top: -50px;""><div style=""display: flex; justify-content: space-between; margin-top: 33px;""><img src=""images/choice_trial_14.png"" style=""width: 408px; height: 417px; margin-right: 608px;""></div></div>",,delaylearn,learning,display_response,2BMzGBSKNBY5Qc0u2eQs6G9UkFs2,2BMzGBSKNBY5Qc0u2eQs6G9UkFs2,,,,,,,,,,,,,,,,,chosen stimuli: images/choice_trial_14.png,,,,,5c80367593fa450014546aca,16:33:22,27/03/2024
html-keyboard-response,108,243760,0.0-46.0-2.0,,,,delaylearn,learning,feedback_duration_window,2BMzGBSKNBY5Qc0u2eQs6G9UkFs2,2BMzGBSKNBY5Qc0u2eQs6G9UkFs2,,,,,,,,,,,,,,,,,,7000.0,,,,5c80367593fa450014546aca,16:33:22,27/03/2024
html-keyboard-response,109,245279,0.0-46.0-3.0,,<div style='margin:auto;width: auto; font-size: 150%'><span style='font-weight: bold; font-size: 100px; color: green;'>+10 points!</span><br><br></div>,,delaylearn,learning,feedback_image_window,2BMzGBSKNBY5Qc0u2eQs6G9UkFs2,2BMzGBSKNBY5Qc0u2eQs6G9UkFs2,,,,,,,,,,,,,,,,,,,,,,5c80367593fa450014546aca,16:33:22,27/03/2024
html-keyboard-response,110,247773,0.0-47.0,,"<div style=""font-size:100px;"">+</div>",,delaylearn,learning,ITI,2BMzGBSKNBY5Qc0u2eQs6G9UkFs2,2BMzGBSKNBY5Qc0u2eQs6G9UkFs2,,,,,,,,,,,,,,,,,,,2486.0,,,5c80367593fa450014546aca,16:33:22,27/03/2024
html-keyboard-response,111,250760,0.0-48.0-0.0,2983.3000000002794,"<div style=""display: flex; flex-direction: column; align-items: center; margin-top: -40px;""><img src=""images/pattern_6.png"" style=""width: 234px; height: 230px; margin-top: -50px;""><div style=""display: flex; justify-content: space-between; margin-top: 33px;""><img src=""images/choice_trial_3.png"" style=""width: 408px; height: 417px; margin-right: 200px;""><img src=""images/choice_trial_16.png"" style=""width: 408px; height: 417px;""></div></div>",j,delaylearn,learning,trial,2BMzGBSKNBY5Qc0u2eQs6G9UkFs2,2BMzGBSKNBY5Qc0u2eQs6G9UkFs2,3.0,images/choice_trial_3.png,images/choice_trial_16.png,images/pattern_6.png,j,j,750.0,3.0,16.0,5.0,1.0,21.0,1.0,1.0,16.0,100.0,,,,,,5c80367593fa450014546aca,16:33:22,27/03/2024
html-keyboard-response,112,251767,0.0-48.0-1.0,,"<div style=""display: flex; flex-direction: column; align-items: center; margin-top: -40px;""><img src=""images/pattern_6.png"" style=""width: 234px; height: 230px; margin-top: -50px;""><div style=""display: flex; justify-content: space-between; margin-top: 33px;""><img src=""images/choice_trial_16.png"" style=""width: 408px; height: 417px; margin-left:608px;""></div></div>",,delaylearn,learning,display_response,2BMzGBSKNBY5Qc0u2eQs6G9UkFs2,2BMzGBSKNBY5Qc0u2eQs6G9UkFs2,,,,,,,,,,,,,,,,,chosen stimuli: images/choice_trial_16.png,,,,,5c80367593fa450014546aca,16:33:22,27/03/2024
html-keyboard-response,113,252531,0.0-48.0-2.0,,,,delaylearn,learning,feedback_duration_window,2BMzGBSKNBY5Qc0u2eQs6G9UkFs2,2BMzGBSKNBY5Qc0u2eQs6G9UkFs2,,,,,,,,,,,,,,,,,,750.0,,,,5c80367593fa450014546aca,16:33:22,27/03/2024
html-keyboard-response,114,254047,0.0-48.0-3.0,,<div style='margin:auto;width: auto; font-size: 150%'><span style='font-weight: bold; font-size: 100px; color: green;'>+10 points!</span><br><br></div>,,delaylearn,learning,feedback_image_window,2BMzGBSKNBY5Qc0u2eQs6G9UkFs2,2BMzGBSKNBY5Qc0u2eQs6G9UkFs2,,,,,,,,,,,,,,,,,,,,,,5c80367593fa450014546aca,16:33:22,27/03/2024
html-keyboard-response,115,256068,0.0-49.0,,"<div style=""font-size:100px;"">+</div>",,delaylearn,learning,ITI,2BMzGBSKNBY5Qc0u2eQs6G9UkFs2,2BMzGBSKNBY5Qc0u2eQs6G9UkFs2,,,,,,,,,,,,,,,,,,,2001.0,,,5c80367593fa450014546aca,16:33:22,27/03/2024
html-keyboard-response,116,257484,0.0-50.0-0.0,1413.7000000001863,"<div style=""display: flex; flex-direction: column; align-items: center; margin-top: -40px;""><img src=""images/pattern_4.png"" style=""width: 234px; height: 230px; margin-top: -50px;""><div style=""display: flex; justify-content: space-between; margin-top: 33px;""><img src=""images/choice_trial_15.png"" style=""width: 408px; height: 417px; margin-right: 200px;""><img src=""images/choice_trial_9.png"" style=""width: 408px; height: 417px;""></div></div>",f,delaylearn,learning,trial,2BMzGBSKNBY5Qc0u2eQs6G9UkFs2,2BMzGBSKNBY5Qc0u2eQs6G9UkFs2,3.0,images/choice_trial_15.png,images/choice_trial_9.png,images/pattern_4.png,f,f,7000.0,15.0,9.0,3.0,0.0,22.0,1.0,1.0,15.0,110.0,,,,,,5c80367593fa450014546aca,16:33:22,27/03/2024
html-keyboard-response,117,258488,0.0-50.0-1.0,,"<div style=""display: flex; flex-direction: column; align-items: center; margin-top: -40px;""><img src=""images/pattern_4.png"" style=""width: 234px; height: 230px; margin-top: -50px;""><div style=""display: flex; justify-content: space-between; margin-top: 33px;""><img src=""images/choice_trial_15.png"" style=""width: 408px; height: 417px; margin-right: 608px;""></div></div>",,delaylearn,learning,display_response,2BMzGBSKNBY5Qc0u2eQs6G9UkFs2,2BMzGBSKNBY5Qc0u2eQs6G9UkFs2,,,,,,,,,,,,,,,,,chosen stimuli: images/choice_trial_15.png,,,,,5c80367593fa450014546aca,16:33:22,27/03/2024
html-keyboard-response,118,265499,0.0-50.0-2.0,,,,delaylearn,learning,feedback_duration_window,2BMzGBSKNBY5Qc0u2eQs6G9UkFs2,2BMzGBSKNBY5Qc0u2eQs6G9UkFs2,,,,,,,,,,,,,,,,,,7000.0,,,,5c80367593fa450014546aca,16:33:22,27/03/2024
html-keyboard-response,119,267004,0.0-50.0-3.0,,<div style='margin:auto;width: auto; font-size: 150%'><span style='font-weight: bold; font-size: 100px; color: green;'>+10 points!</span><br><br></div>,,delaylearn,learning,feedback_image_window,2BMzGBSKNBY5Qc0u2eQs6G9UkFs2,2BMzGBSKNBY5Qc0u2eQs6G9UkFs2,,,,,,,,,,,,,,,,,,,,,,5c80367593fa450014546aca,16:33:22,27/03/2024
html-keyboard-response,120,267512,0.0-51.0-0.0,,,,,,mood_trial_fixation,2BMzGBSKNBY5Qc0u2eQs6G9UkFs2,,,,,,,,,,,,,,,,,,,,,,,5c80367593fa450014546aca,16:33:22,27/03/2024
lmdlab-html-vas-response,121,272621,0.0-51.0-1.0,4100.0,How happy are you right now?,0.25379809051369934,delaylearn,learning,mood_trial,2BMzGBSKNBY5Qc0u2eQs6G9UkFs2,2BMzGBSKNBY5Qc0u2eQs6G9UkFs2,,,,,,,,,,,,,,,,,,,,"['Very unhappy', 'Very happy']",,5c80367593fa450014546aca,16:33:22,27/03/2024
html-keyboard-response,122,274475,0.0-52.0,,"<div style=""font-size:100px;"">+</div>",,delaylearn,learning,ITI,2BMzGBSKNBY5Qc0u2eQs6G9UkFs2,2BMzGBSKNBY5Qc0u2eQs6G9UkFs2,,,,,,,,,,,,,,,,,,,1848.0,,,5c80367593fa450014546aca,16:33:22,27/03/2024
html-keyboard-response,123,275521,0.0-53.0-0.0,1042.8999999999069,"<div style=""display: flex; flex-direction: column; align-items: center; margin-top: -40px;""><img src=""images/pattern_7.png"" style=""width: 234px; height: 230px; margin-top: -50px;""><div style=""display: flex; justify-content: space-between; margin-top: 33px;""><img src=""images/choice_trial_12.png"" style=""width: 408px; height: 417px; margin-right: 200px;""><img src=""images/choice_trial_6.png"" style=""width: 408px; height: 417px;""></div></div>",j,delaylearn,learning,trial,2BMzGBSKNBY5Qc0u2eQs6G9UkFs2,2BMzGBSKNBY5Qc0u2eQs6G9UkFs2,3.0,images/choice_trial_12.png,images/choice_trial_6.png,images/pattern_7.png,j,j,750.0,12.0,6.0,6.0,1.0,23.0,1.0,1.0,6.0,120.0,,,,,,5c80367593fa450014546aca,16:33:22,27/03/2024
html-keyboard-response,124,276531,0.0-53.0-1.0,,"<div style=""display: flex; flex-direction: column; align-items: center; margin-top: -40px;""><img src=""images/pattern_7.png"" style=""width: 234px; height: 230px; margin-top: -50px;""><div style=""display: flex; justify-content: space-between; margin-top: 33px;""><img src=""images/choice_trial_6.png"" style=""width: 408px; height: 417px; margin-left:608px;""></div></div>",,delaylearn,learning,display_response,2BMzGBSKNBY5Qc0u2eQs6G9UkFs2,2BMzGBSKNBY5Qc0u2eQs6G9UkFs2,,,,,,,,,,,,,,,,,chosen stimuli: images/choice_trial_6.png,,,,,5c80367593fa450014546aca,16:33:22,27/03/2024
html-keyboard-response,125,277295,0.0-53.0-2.0,,,,delaylearn,learning,feedback_duration_window,2BMzGBSKNBY5Qc0u2eQs6G9UkFs2,2BMzGBSKNBY5Qc0u2eQs6G9UkFs2,,,,,,,,,,,,,,,,,,750.0,,,,5c80367593fa450014546aca,16:33:22,27/03/2024
html-keyboard-response,126,278813,0.0-53.0-3.0,,<div style='margin:auto;width: auto; font-size: 150%'><span style='font-weight: bold; font-size: 100px; color: green;'>+10 points!</span><br><br></div>,,delaylearn,learning,feedback_image_window,2BMzGBSKNBY5Qc0u2eQs6G9UkFs2,2BMzGBSKNBY5Qc0u2eQs6G9UkFs2,,,,,,,,,,,,,,,,,,,,,,5c80367593fa450014546aca,16:33:22,27/03/2024
html-keyboard-response,127,280797,0.0-54.0,,"<div style=""font-size:100px;"">+</div>",,delaylearn,learning,ITI,2BMzGBSKNBY5Qc0u2eQs6G9UkFs2,2BMzGBSKNBY5Qc0u2eQs6G9UkFs2,,,,,,,,,,,,,,,,,,,1971.0,,,5c80367593fa450014546aca,16:33:22,27/03/2024
html-keyboard-response,128,281668,0.0-55.0-0.0,868.3999999999069,"<div style=""display: flex; flex-direction: column; align-items: center; margin-top: -40px;""><img src=""images/pattern_1.png"" style=""width: 234px; height: 230px; margin-top: -50px;""><div style=""display: flex; justify-content: space-between; margin-top: 33px;""><img src=""images/choice_trial_8.png"" style=""width: 408px; height: 417px; margin-right: 200px;""><img src=""images/choice_trial_14.png"" style=""width: 408px; height: 417px;""></div></div>",j,delaylearn,learning,trial,2BMzGBSKNBY5Qc0u2eQs6G9UkFs2,2BMzGBSKNBY5Qc0u2eQs6G9UkFs2,3.0,images/choice_trial_8.png,images/choice_trial_14.png,images/pattern_1.png,f,j,7000.0,8.0,14.0,1.0,1.0,24.0,1.0,0.0,14.0,120.0,,,,,,5c80367593fa450014546aca,16:33:22,27/03/2024
html-keyboard-response,129,282671,0.0-55.0-1.0,,"<div style=""display: flex; flex-direction: column; align-items: center; margin-top: -40px;""><img src=""images/pattern_1.png"" style=""width: 234px; height: 230px; margin-top: -50px;""><div style=""display: flex; justify-content: space-between; margin-top: 33px;""><img src=""images/choice_trial_14.png"" style=""width: 408px; height: 417px; margin-left:608px;""></div></div>",,delaylearn,learning,display_response,2BMzGBSKNBY5Qc0u2eQs6G9UkFs2,2BMzGBSKNBY5Qc0u2eQs6G9UkFs2,,,,,,,,,,,,,,,,,chosen stimuli: images/choice_trial_14.png,,,,,5c80367593fa450014546aca,16:33:22,27/03/2024
html-keyboard-response,130,289683,0.0-55.0-2.0,,,,delaylearn,learning,feedback_duration_window,2BMzGBSKNBY5Qc0u2eQs6G9UkFs2,2BMzGBSKNBY5Qc0u2eQs6G9UkFs2,,,,,,,,,,,,,,,,,,7000.0,,,,5c80367593fa450014546aca,16:33:22,27/03/2024
html-keyboard-response,131,291192,0.0-55.0-3.0,,<div style='margin:auto;width: auto; font-size: 150%'><span style='font-weight: bold; font-size: 100px; color: red;'>0 points!</span><br><br></div>,,delaylearn,learning,feedback_image_window,2BMzGBSKNBY5Qc0u2eQs6G9UkFs2,2BMzGBSKNBY5Qc0u2eQs6G9UkFs2,,,,,,,,,,,,,,,,,,,,,,5c80367593fa450014546aca,16:33:22,27/03/2024
html-keyboard-response,132,293310,0.0-56.0,,"<div style=""font-size:100px;"">+</div>",,delaylearn,learning,ITI,2BMzGBSKNBY5Qc0u2eQs6G9UkFs2,2BMzGBSKNBY5Qc0u2eQs6G9UkFs2,,,,,,,,,,,,,,,,,,,2106.0,,,5c80367593fa450014546aca,16:33:22,27/03/2024
html-keyboard-response,133,295644,0.0-57.0-0.0,2330.399999999907,"<div style=""display: flex; flex-direction: column; align-items: center; margin-top: -40px;""><img src=""images/pattern_5.png"" style=""width: 234px; height: 230px; margin-top: -50px;""><div style=""display: flex; justify-content: space-between; margin-top: 33px;""><img src=""images/choice_trial_2.png"" style=""width: 408px; height: 417px; margin-right: 200px;""><img src=""images/choice_trial_11.png"" style=""width: 408px; height: 417px;""></div></div>",j,delaylearn,learning,trial,2BMzGBSKNBY5Qc0u2eQs6G9UkFs2,2BMzGBSKNBY5Qc0u2eQs6G9UkFs2,3.0,images/choice_trial_2.png,images/choice_trial_11.png,images/pattern_5.png,j,j,750.0,2.0,11.0,4.0,1.0,25.0,1.0,1.0,11.0,130.0,,,,,,5c80367593fa450014546aca,16:33:22,27/03/2024
html-keyboard-response,134,296659,0.0-57.0-1.0,,"<div style=""display: flex; flex-direction: column; align-items: center; margin-top: -40px;""><img src=""images/pattern_5.png"" style=""width: 234px; height: 230px; margin-top: -50px;""><div style=""display: flex; justify-content: space-between; margin-top: 33px;""><img src=""images/choice_trial_11.png"" style=""width: 408px; height: 417px; margin-left:608px;""></div></div>",,delaylearn,learning,display_response,2BMzGBSKNBY5Qc0u2eQs6G9UkFs2,2BMzGBSKNBY5Qc0u2eQs6G9UkFs2,,,,,,,,,,,,,,,,,chosen stimuli: images/choice_trial_11.png,,,,,5c80367593fa450014546aca,16:33:22,27/03/2024
html-keyboard-response,135,297424,0.0-57.0-2.0,,,,delaylearn,learning,feedback_duration_window,2BMzGBSKNBY5Qc0u2eQs6G9UkFs2,2BMzGBSKNBY5Qc0u2eQs6G9UkFs2,,,,,,,,,,,,,,,,,,750.0,,,,5c80367593fa450014546aca,16:33:22,27/03/2024
html-keyboard-response,136,298937,0.0-57.0-3.0,,<div style='margin:auto;width: auto; font-size: 150%'><span style='font-weight: bold; font-size: 100px; color: green;'>+10 points!</span><br><br></div>,,delaylearn,learning,feedback_image_window,2BMzGBSKNBY5Qc0u2eQs6G9UkFs2,2BMzGBSKNBY5Qc0u2eQs6G9UkFs2,,,,,,,,,,,,,,,,,,,,,,5c80367593fa450014546aca,16:33:22,27/03/2024
html-keyboard-response,137,301118,0.0-58.0,,"<div style=""font-size:100px;"">+</div>",,delaylearn,learning,ITI,2BMzGBSKNBY5Qc0u2eQs6G9UkFs2,2BMzGBSKNBY5Qc0u2eQs6G9UkFs2,,,,,,,,,,,,,,,,,,,2177.0,,,5c80367593fa450014546aca,16:33:22,27/03/2024
html-keyboard-response,138,302302,0.0-59.0-0.0,1180.7000000001863,"<div style=""display: flex; flex-direction: column; align-items: center; margin-top: -40px;""><img src=""images/pattern_3.png"" style=""width: 234px; height: 230px; margin-top: -50px;""><div style=""display: flex; justify-content: space-between; margin-top: 33px;""><img src=""images/choice_trial_10.png"" style=""width: 408px; height: 417px; margin-right: 200px;""><img src=""images/choice_trial_13.png"" style=""width: 408px; height: 417px;""></div></div>",j,delaylearn,learning,trial,2BMzGBSKNBY5Qc0u2eQs6G9UkFs2,2BMzGBSKNBY5Qc0u2eQs6G9UkFs2,3.0,images/choice_trial_10.png,images/choice_trial_13.png,images/pattern_3.png,j,j,7000.0,10.0,13.0,2.0,1.0,26.0,1.0,1.0,13.0,140.0,,,,,,5c80367593fa450014546aca,16:33:22,27/03/2024
html-keyboard-response,139,303322,0.0-59.0-1.0,,"<div style=""display: flex; flex-direction: column; align-items: center; margin-top: -40px;""><img src=""images/pattern_3.png"" style=""width: 234px; height: 230px; margin-top: -50px;""><div style=""display: flex; justify-content: space-between; margin-top: 33px;""><img src=""images/choice_trial_13.png"" style=""width: 408px; height: 417px; margin-left:608px;""></div></div>",,delaylearn,learning,display_response,2BMzGBSKNBY5Qc0u2eQs6G9UkFs2,2BMzGBSKNBY5Qc0u2eQs6G9UkFs2,,,,,,,,,,,,,,,,,chosen stimuli: images/choice_trial_13.png,,,,,5c80367593fa450014546aca,16:33:22,27/03/2024
html-keyboard-response,140,310325,0.0-59.0-2.0,,,,delaylearn,learning,feedback_duration_window,2BMzGBSKNBY5Qc0u2eQs6G9UkFs2,2BMzGBSKNBY5Qc0u2eQs6G9UkFs2,,,,,,,,,,,,,,,,,,7000.0,,,,5c80367593fa450014546aca,16:33:22,27/03/2024
html-keyboard-response,141,311831,0.0-59.0-3.0,,<div style='margin:auto;width: auto; font-size: 150%'><span style='font-weight: bold; font-size: 100px; color: green;'>+10 points!</span><br><br></div>,,delaylearn,learning,feedback_image_window,2BMzGBSKNBY5Qc0u2eQs6G9UkFs2,2BMzGBSKNBY5Qc0u2eQs6G9UkFs2,,,,,,,,,,,,,,,,,,,,,,5c80367593fa450014546aca,16:33:22,27/03/2024
lmdlab-html-vas-response,142,318754,0.0-60.0-0.0,5406.0,*How <b><u>confident</u></b> are you feeling about your answers at this moment?*,0.8159503694442544,rewlearn,rate_confidence,,2BMzGBSKNBY5Qc0u2eQs6G9UkFs2,2BMzGBSKNBY5Qc0u2eQs6G9UkFs2,,,,,,,,,,,,,,,,,,,,"['No confidence', 'Complete confidence']",,5c80367593fa450014546aca,16:33:22,27/03/2024
lmdlab-rest-trial-limit,143,328801,0.0-60.0-1.0,8535.69999999972,"<div style=""font-size:40px;""><b>Please take a break!</b><br><br><br><br><p>Great work: you earned 140 points.<br><br><br><p>You have completed part(s) 1 of 5.<br><br><br><br>When you are ready to continue<br><br><br>please click the button.</p><br><br>",0,delaylearn,learning,break,2BMzGBSKNBY5Qc0u2eQs6G9UkFs2,2BMzGBSKNBY5Qc0u2eQs6G9UkFs2,,,,,,,,,,,,,,,,,,,,,0.0,5c80367593fa450014546aca,16:33:22,27/03/2024
html-keyboard-response,144,331817,0.0-60.0-2.0,,"<div style=""font-size:100px;"">+</div>",,delaylearn,learning,pre_fixation,2BMzGBSKNBY5Qc0u2eQs6G9UkFs2,,,,,,,,,,,,,,,,,,,,,,,5c80367593fa450014546aca,16:33:22,27/03/2024
lmdlab-html-vas-response,145,338148,0.0-60.0-3.0-0.0,5321.0,How happy are you right now?,0.2662903633788228,delaylearn,learning,mood_baseline,2BMzGBSKNBY5Qc0u2eQs6G9UkFs2,2BMzGBSKNBY5Qc0u2eQs6G9UkFs2,,,,,,,,,,,,,,,,,,,,"['Very unhappy', 'Very happy']",,5c80367593fa450014546aca,16:33:22,27/03/2024
html-keyboard-response,146,339662,0.0-60.0-3.0-1.0,,,,,,mood_baseline_fixation,2BMzGBSKNBY5Qc0u2eQs6G9UkFs2,,,,,,,,,,,,,,,,,,,,,,,5c80367593fa450014546aca,16:33:22,27/03/2024
html-keyboard-response,147,341386,0.0-61.0,,"<div style=""font-size:100px;"">+</div>",,delaylearn,learning,ITI,2BMzGBSKNBY5Qc0u2eQs6G9UkFs2,2BMzGBSKNBY5Qc0u2eQs6G9UkFs2,,,,,,,,,,,,,,,,,,,1721.0,,,5c80367593fa450014546aca,16:33:22,27/03/2024
html-keyboard-response,148,342476,0.0-62.0-0.0,1086.7000000001863,"<div style=""display: flex; flex-direction: column; align-items: center; margin-top: -40px;""><img src=""images/pattern_7.png"" style=""width: 234px; height: 230px; margin-top: -50px;""><div style=""display: flex; justify-content: space-between; margin-top: 33px;""><img src=""images/choice_trial_12.png"" style=""width: 408px; height: 417px; margin-right: 200px;""><img src=""images/choice_trial_6.png"" style=""width: 408px; height: 417px;""></div></div>",j,delaylearn,learning,trial,2BMzGBSKNBY5Qc0u2eQs6G9UkFs2,2BMzGBSKNBY5Qc0u2eQs6G9UkFs2,3.0,images/choice_trial_12.png,images/choice_trial_6.png,images/pattern_7.png,j,j,750.0,12.0,6.0,6.0,1.0,27.0,1.0,1.0,6.0,150.0,,,,,,5c80367593fa450014546aca,16:33:22,27/03/2024
html-keyboard-response,149,343493,0.0-62.0-1.0,,"<div style=""display: flex; flex-direction: column; align-items: center; margin-top: -40px;""><img src=""images/pattern_7.png"" style=""width: 234px; height: 230px; margin-top: -50px;""><div style=""display: flex; justify-content: space-between; margin-top: 33px;""><img src=""images/choice_trial_6.png"" style=""width: 408px; height: 417px; margin-left:608px;""></div></div>",,delaylearn,learning,display_response,2BMzGBSKNBY5Qc0u2eQs6G9UkFs2,2BMzGBSKNBY5Qc0u2eQs6G9UkFs2,,,,,,,,,,,,,,,,,chosen stimuli: images/choice_trial_6.png,,,,,5c80367593fa450014546aca,16:33:22,27/03/2024
html-keyboard-response,150,344247,0.0-62.0-2.0,,,,delaylearn,learning,feedback_duration_window,2BMzGBSKNBY5Qc0u2eQs6G9UkFs2,2BMzGBSKNBY5Qc0u2eQs6G9UkFs2,,,,,,,,,,,,,,,,,,750.0,,,,5c80367593fa450014546aca,16:33:22,27/03/2024
html-keyboard-response,151,345752,0.0-62.0-3.0,,<div style='margin:auto;width: auto; font-size: 150%'><span style='font-weight: bold; font-size: 100px; color: green;'>+10 points!</span><br><br></div>,,delaylearn,learning,feedback_image_window,2BMzGBSKNBY5Qc0u2eQs6G9UkFs2,2BMzGBSKNBY5Qc0u2eQs6G9UkFs2,,,,,,,,,,,,,,,,,,,,,,5c80367593fa450014546aca,16:33:22,27/03/2024
html-keyboard-response,152,346261,0.0-63.0-0.0,,,,,,mood_trial_fixation,2BMzGBSKNBY5Qc0u2eQs6G9UkFs2,,,,,,,,,,,,,,,,,,,,,,,5c80367593fa450014546aca,16:33:22,27/03/2024
lmdlab-html-vas-response,153,352635,0.0-63.0-1.0,5352.0,How happy are you right now?,0.32562865948815917,delaylearn,learning,mood_trial,2BMzGBSKNBY5Qc0u2eQs6G9UkFs2,2BMzGBSKNBY5Qc0u2eQs6G9UkFs2,,,,,,,,,,,,,,,,,,,,"['Very unhappy', 'Very happy']",,5c80367593fa450014546aca,16:33:22,27/03/2024
html-keyboard-response,154,354904,0.0-64.0,,"<div style=""font-size:100px;"">+</div>",,delaylearn,learning,ITI,2BMzGBSKNBY5Qc0u2eQs6G9UkFs2,2BMzGBSKNBY5Qc0u2eQs6G9UkFs2,,,,,,,,,,,,,,,,,,,2263.0,,,5c80367593fa450014546aca,16:33:22,27/03/2024
html-keyboard-response,155,355808,0.0-65.0-0.0,901.1000000000931,"<div style=""display: flex; flex-direction: column; align-items: center; margin-top: -40px;""><img src=""images/pattern_1.png"" style=""width: 234px; height: 230px; margin-top: -50px;""><div style=""display: flex; justify-content: space-between; margin-top: 33px;""><img src=""images/choice_trial_14.png"" style=""width: 408px; height: 417px; margin-right: 200px;""><img src=""images/choice_trial_8.png"" style=""width: 408px; height: 417px;""></div></div>",f,delaylearn,learning,trial,2BMzGBSKNBY5Qc0u2eQs6G9UkFs2,2BMzGBSKNBY5Qc0u2eQs6G9UkFs2,3.0,images/choice_trial_14.png,images/choice_trial_8.png,images/pattern_1.png,f,f,7000.0,14.0,8.0,1.0,0.0,28.0,1.0,1.0,14.0,160.0,,,,,,5c80367593fa450014546aca,16:33:22,27/03/2024
html-keyboard-response,156,356821,0.0-65.0-1.0,,"<div style=""display: flex; flex-direction: column; align-items: center; margin-top: -40px;""><img src=""images/pattern_1.png"" style=""width: 234px; height: 230px; margin-top: -50px;""><div style=""display: flex; justify-content: space-between; margin-top: 33px;""><img src=""images/choice_trial_14.png"" style=""width: 408px; height: 417px; margin-right: 608px;""></div></div>",,delaylearn,learning,display_response,2BMzGBSKNBY5Qc0u2eQs6G9UkFs2,2BMzGBSKNBY5Qc0u2eQs6G9UkFs2,,,,,,,,,,,,,,,,,chosen stimuli: images/choice_trial_14.png,,,,,5c80367593fa450014546aca,16:33:22,27/03/2024
html-keyboard-response,157,363838,0.0-65.0-2.0,,,,delaylearn,learning,feedback_duration_window,2BMzGBSKNBY5Qc0u2eQs6G9UkFs2,2BMzGBSKNBY5Qc0u2eQs6G9UkFs2,,,,,,,,,,,,,,,,,,7000.0,,,,5c80367593fa450014546aca,16:33:22,27/03/2024
html-keyboard-response,158,365355,0.0-65.0-3.0,,<div style='margin:auto;width: auto; font-size: 150%'><span style='font-weight: bold; font-size: 100px; color: green;'>+10 points!</span><br><br></div>,,delaylearn,learning,feedback_image_window,2BMzGBSKNBY5Qc0u2eQs6G9UkFs2,2BMzGBSKNBY5Qc0u2eQs6G9UkFs2,,,,,,,,,,,,,,,,,,,,,,5c80367593fa450014546aca,16:33:22,27/03/2024
html-keyboard-response,159,367739,0.0-66.0,,"<div style=""font-size:100px;"">+</div>",,delaylearn,learning,ITI,2BMzGBSKNBY5Qc0u2eQs6G9UkFs2,2BMzGBSKNBY5Qc0u2eQs6G9UkFs2,,,,,,,,,,,,,,,,,,,2375.0,,,5c80367593fa450014546aca,16:33:22,27/03/2024
html-keyboard-response,160,369236,0.0-67.0-0.0,1495.2999999998137,"<div style=""display: flex; flex-direction: column; align-items: center; margin-top: -40px;""><img src=""images/pattern_5.png"" style=""width: 234px; height: 230px; margin-top: -50px;""><div style=""display: flex; justify-content: space-between; margin-top: 33px;""><img src=""images/choice_trial_11.png"" style=""width: 408px; height: 417px; margin-right: 200px;""><img src=""images/choice_trial_2.png"" style=""width: 408px; height: 417px;""></div></div>",f,delaylearn,learning,trial,2BMzGBSKNBY5Qc0u2eQs6G9UkFs2,2BMzGBSKNBY5Qc0u2eQs6G9UkFs2,3.0,images/choice_trial_11.png,images/choice_trial_2.png,images/pattern_5.png,f,f,750.0,11.0,2.0,4.0,0.0,29.0,1.0,1.0,11.0,170.0,,,,,,5c80367593fa450014546aca,16:33:22,27/03/2024
html-keyboard-response,161,370253,0.0-67.0-1.0,,"<div style=""display: flex; flex-direction: column; align-items: center; margin-top: -40px;""><img src=""images/pattern_5.png"" style=""width: 234px; height: 230px; margin-top: -50px;""><div style=""display: flex; justify-content: space-between; margin-top: 33px;""><img src=""images/choice_trial_11.png"" style=""width: 408px; height: 417px; margin-right: 608px;""></div></div>",,delaylearn,learning,display_response,2BMzGBSKNBY5Qc0u2eQs6G9UkFs2,2BMzGBSKNBY5Qc0u2eQs6G9UkFs2,,,,,,,,,,,,,,,,,chosen stimuli: images/choice_trial_11.png,,,,,5c80367593fa450014546aca,16:33:22,27/03/2024
html-keyboard-response,162,371014,0.0-67.0-2.0,,,,delaylearn,learning,feedback_duration_window,2BMzGBSKNBY5Qc0u2eQs6G9UkFs2,2BMzGBSKNBY5Qc0u2eQs6G9UkFs2,,,,,,,,,,,,,,,,,,750.0,,,,5c80367593fa450014546aca,16:33:22,27/03/2024
html-keyboard-response,163,372530,0.0-67.0-3.0,,<div style='margin:auto;width: auto; font-size: 150%'><span style='font-weight: bold; font-size: 100px; color: green;'>+10 points!</span><br><br></div>,,delaylearn,learning,feedback_image_window,2BMzGBSKNBY5Qc0u2eQs6G9UkFs2,2BMzGBSKNBY5Qc0u2eQs6G9UkFs2,,,,,,,,,,,,,,,,,,,,,,5c80367593fa450014546aca,16:33:22,27/03/2024
html-keyboard-response,164,374911,0.0-68.0,,"<div style=""font-size:100px;"">+</div>",,delaylearn,learning,ITI,2BMzGBSKNBY5Qc0u2eQs6G9UkFs2,2BMzGBSKNBY5Qc0u2eQs6G9UkFs2,,,,,,,,,,,,,,,,,,,2365.0,,,5c80367593fa450014546aca,16:33:22,27/03/2024
html-keyboard-response,165,376361,0.0-69.0-0.0,1446.3999999999069,"<div style=""display: flex; flex-direction: column; align-items: center; margin-top: -40px;""><img src=""images/pattern_6.png"" style=""width: 234px; height: 230px; margin-top: -50px;""><div style=""display: flex; justify-content: space-between; margin-top: 33px;""><img src=""images/choice_trial_3.png"" style=""width: 408px; height: 417px; margin-right: 200px;""><img src=""images/choice_trial_16.png"" style=""width: 408px; height: 417px;""></div></div>",j,delaylearn,learning,trial,2BMzGBSKNBY5Qc0u2eQs6G9UkFs2,2BMzGBSKNBY5Qc0u2eQs6G9UkFs2,3.0,images/choice_trial_3.png,images/choice_trial_16.png,images/pattern_6.png,j,j,750.0,3.0,16.0,5.0,1.0,30.0,1.0,1.0,16.0,180.0,,,,,,5c80367593fa450014546aca,16:33:22,27/03/2024
html-keyboard-response,166,377378,0.0-69.0-1.0,,"<div style=""display: flex; flex-direction: column; align-items: center; margin-top: -40px;""><img src=""images/pattern_6.png"" style=""width: 234px; height: 230px; margin-top: -50px;""><div style=""display: flex; justify-content: space-between; margin-top: 33px;""><img src=""images/choice_trial_16.png"" style=""width: 408px; height: 417px; margin-left:608px;""></div></div>",,delaylearn,learning,display_response,2BMzGBSKNBY5Qc0u2eQs6G9UkFs2,2BMzGBSKNBY5Qc0u2eQs6G9UkFs2,,,,,,,,,,,,,,,,,chosen stimuli: images/choice_trial_16.png,,,,,5c80367593fa450014546aca,16:33:22,27/03/2024
html-keyboard-response,167,378133,0.0-69.0-2.0,,,,delaylearn,learning,feedback_duration_window,2BMzGBSKNBY5Qc0u2eQs6G9UkFs2,2BMzGBSKNBY5Qc0u2eQs6G9UkFs2,,,,,,,,,,,,,,,,,,750.0,,,,5c80367593fa450014546aca,16:33:22,27/03/2024
html-keyboard-response,168,379647,0.0-69.0-3.0,,<div style='margin:auto;width: auto; font-size: 150%'><span style='font-weight: bold; font-size: 100px; color: green;'>+10 points!</span><br><br></div>,,delaylearn,learning,feedback_image_window,2BMzGBSKNBY5Qc0u2eQs6G9UkFs2,2BMzGBSKNBY5Qc0u2eQs6G9UkFs2,,,,,,,,,,,,,,,,,,,,,,5c80367593fa450014546aca,16:33:22,27/03/2024
html-keyboard-response,169,380158,0.0-70.0-0.0,,,,,,mood_trial_fixation,2BMzGBSKNBY5Qc0u2eQs6G9UkFs2,,,,,,,,,,,,,,,,,,,,,,,5c80367593fa450014546aca,16:33:22,27/03/2024
lmdlab-html-vas-response,170,384963,0.0-70.0-1.0,3786.0,How happy are you right now?,0.29439797732535056,delaylearn,learning,mood_trial,2BMzGBSKNBY5Qc0u2eQs6G9UkFs2,2BMzGBSKNBY5Qc0u2eQs6G9UkFs2,,,,,,,,,,,,,,,,,,,,"['Very unhappy', 'Very happy']",,5c80367593fa450014546aca,16:33:22,27/03/2024
html-keyboard-response,171,386627,0.0-71.0,,"<div style=""font-size:100px;"">+</div>",,delaylearn,learning,ITI,2BMzGBSKNBY5Qc0u2eQs6G9UkFs2,2BMzGBSKNBY5Qc0u2eQs6G9UkFs2,,,,,,,,,,,,,,,,,,,1648.0,,,5c80367593fa450014546aca,16:33:22,27/03/2024
html-keyboard-response,172,388258,0.0-72.0-0.0,1629.1000000000931,"<div style=""display: flex; flex-direction: column; align-items: center; margin-top: -40px;""><img src=""images/pattern_4.png"" style=""width: 234px; height: 230px; margin-top: -50px;""><div style=""display: flex; justify-content: space-between; margin-top: 33px;""><img src=""images/choice_trial_9.png"" style=""width: 408px; height: 417px; margin-right: 200px;""><img src=""images/choice_trial_15.png"" style=""width: 408px; height: 417px;""></div></div>",j,delaylearn,learning,trial,2BMzGBSKNBY5Qc0u2eQs6G9UkFs2,2BMzGBSKNBY5Qc0u2eQs6G9UkFs2,3.0,images/choice_trial_9.png,images/choice_trial_15.png,images/pattern_4.png,j,j,7000.0,9.0,15.0,3.0,1.0,31.0,1.0,1.0,15.0,190.0,,,,,,5c80367593fa450014546aca,16:33:22,27/03/2024
html-keyboard-response,173,389266,0.0-72.0-1.0,,"<div style=""display: flex; flex-direction: column; align-items: center; margin-top: -40px;""><img src=""images/pattern_4.png"" style=""width: 234px; height: 230px; margin-top: -50px;""><div style=""display: flex; justify-content: space-between; margin-top: 33px;""><img src=""images/choice_trial_15.png"" style=""width: 408px; height: 417px; margin-left:608px;""></div></div>",,delaylearn,learning,display_response,2BMzGBSKNBY5Qc0u2eQs6G9UkFs2,2BMzGBSKNBY5Qc0u2eQs6G9UkFs2,,,,,,,,,,,,,,,,,chosen stimuli: images/choice_trial_15.png,,,,,5c80367593fa450014546aca,16:33:22,27/03/2024
html-keyboard-response,174,396277,0.0-72.0-2.0,,,,delaylearn,learning,feedback_duration_window,2BMzGBSKNBY5Qc0u2eQs6G9UkFs2,2BMzGBSKNBY5Qc0u2eQs6G9UkFs2,,,,,,,,,,,,,,,,,,7000.0,,,,5c80367593fa450014546aca,16:33:22,27/03/2024
html-keyboard-response,175,397787,0.0-72.0-3.0,,<div style='margin:auto;width: auto; font-size: 150%'><span style='font-weight: bold; font-size: 100px; color: green;'>+10 points!</span><br><br></div>,,delaylearn,learning,feedback_image_window,2BMzGBSKNBY5Qc0u2eQs6G9UkFs2,2BMzGBSKNBY5Qc0u2eQs6G9UkFs2,,,,,,,,,,,,,,,,,,,,,,5c80367593fa450014546aca,16:33:22,27/03/2024
html-keyboard-response,176,399660,0.0-73.0,,"<div style=""font-size:100px;"">+</div>",,delaylearn,learning,ITI,2BMzGBSKNBY5Qc0u2eQs6G9UkFs2,2BMzGBSKNBY5Qc0u2eQs6G9UkFs2,,,,,,,,,,,,,,,,,,,1865.0,,,5c80367593fa450014546aca,16:33:22,27/03/2024
html-keyboard-response,177,400993,0.0-74.0-0.0,1329.1000000000931,"<div style=""display: flex; flex-direction: column; align-items: center; margin-top: -40px;""><img src=""images/pattern_3.png"" style=""width: 234px; height: 230px; margin-top: -50px;""><div style=""display: flex; justify-content: space-between; margin-top: 33px;""><img src=""images/choice_trial_10.png"" style=""width: 408px; height: 417px; margin-right: 200px;""><img src=""images/choice_trial_13.png"" style=""width: 408px; height: 417px;""></div></div>",j,delaylearn,learning,trial,2BMzGBSKNBY5Qc0u2eQs6G9UkFs2,2BMzGBSKNBY5Qc0u2eQs6G9UkFs2,3.0,images/choice_trial_10.png,images/choice_trial_13.png,images/pattern_3.png,j,j,7000.0,10.0,13.0,2.0,1.0,32.0,1.0,1.0,13.0,200.0,,,,,,5c80367593fa450014546aca,16:33:22,27/03/2024
html-keyboard-response,178,402007,0.0-74.0-1.0,,"<div style=""display: flex; flex-direction: column; align-items: center; margin-top: -40px;""><img src=""images/pattern_3.png"" style=""width: 234px; height: 230px; margin-top: -50px;""><div style=""display: flex; justify-content: space-between; margin-top: 33px;""><img src=""images/choice_trial_13.png"" style=""width: 408px; height: 417px; margin-left:608px;""></div></div>",,delaylearn,learning,display_response,2BMzGBSKNBY5Qc0u2eQs6G9UkFs2,2BMzGBSKNBY5Qc0u2eQs6G9UkFs2,,,,,,,,,,,,,,,,,chosen stimuli: images/choice_trial_13.png,,,,,5c80367593fa450014546aca,16:33:22,27/03/2024
html-keyboard-response,179,409022,0.0-74.0-2.0,,,,delaylearn,learning,feedback_duration_window,2BMzGBSKNBY5Qc0u2eQs6G9UkFs2,2BMzGBSKNBY5Qc0u2eQs6G9UkFs2,,,,,,,,,,,,,,,,,,7000.0,,,,5c80367593fa450014546aca,16:33:22,27/03/2024
html-keyboard-response,180,410529,0.0-74.0-3.0,,<div style='margin:auto;width: auto; font-size: 150%'><span style='font-weight: bold; font-size: 100px; color: green;'>+10 points!</span><br><br></div>,,delaylearn,learning,feedback_image_window,2BMzGBSKNBY5Qc0u2eQs6G9UkFs2,2BMzGBSKNBY5Qc0u2eQs6G9UkFs2,,,,,,,,,,,,,,,,,,,,,,5c80367593fa450014546aca,16:33:22,27/03/2024
html-keyboard-response,181,412335,0.0-75.0,,"<div style=""font-size:100px;"">+</div>",,delaylearn,learning,ITI,2BMzGBSKNBY5Qc0u2eQs6G9UkFs2,2BMzGBSKNBY5Qc0u2eQs6G9UkFs2,,,,,,,,,,,,,,,,,,,1788.0,,,5c80367593fa450014546aca,16:33:22,27/03/2024
html-keyboard-response,182,413454,0.0-76.0-0.0,1115.1000000000931,"<div style=""display: flex; flex-direction: column; align-items: center; margin-top: -40px;""><img src=""images/pattern_5.png"" style=""width: 234px; height: 230px; margin-top: -50px;""><div style=""display: flex; justify-content: space-between; margin-top: 33px;""><img src=""images/choice_trial_11.png"" style=""width: 408px; height: 417px; margin-right: 200px;""><img src=""images/choice_trial_2.png"" style=""width: 408px; height: 417px;""></div></div>",f,delaylearn,learning,trial,2BMzGBSKNBY5Qc0u2eQs6G9UkFs2,2BMzGBSKNBY5Qc0u2eQs6G9UkFs2,3.0,images/choice_trial_11.png,images/choice_trial_2.png,images/pattern_5.png,j,f,750.0,11.0,2.0,4.0,0.0,33.0,1.0,0.0,11.0,200.0,,,,,,5c80367593fa450014546aca,16:33:22,27/03/2024
html-keyboard-response,183,414459,0.0-76.0-1.0,,"<div style=""display: flex; flex-direction: column; align-items: center; margin-top: -40px;""><img src=""images/pattern_5.png"" style=""width: 234px; height: 230px; margin-top: -50px;""><div style=""display: flex; justify-content: space-between; margin-top: 33px;""><img src=""images/choice_trial_11.png"" style=""width: 408px; height: 417px; margin-right: 608px;""></div></div>",,delaylearn,learning,display_response,2BMzGBSKNBY5Qc0u2eQs6G9UkFs2,2BMzGBSKNBY5Qc0u2eQs6G9UkFs2,,,,,,,,,,,,,,,,,chosen stimuli: images/choice_trial_11.png,,,,,5c80367593fa450014546aca,16:33:22,27/03/2024
html-keyboard-response,184,415216,0.0-76.0-2.0,,,,delaylearn,learning,feedback_duration_window,2BMzGBSKNBY5Qc0u2eQs6G9UkFs2,2BMzGBSKNBY5Qc0u2eQs6G9UkFs2,,,,,,,,,,,,,,,,,,750.0,,,,5c80367593fa450014546aca,16:33:22,27/03/2024
html-keyboard-response,185,416735,0.0-76.0-3.0,,<div style='margin:auto;width: auto; font-size: 150%'><span style='font-weight: bold; font-size: 100px; color: red;'>0 points!</span><br><br></div>,,delaylearn,learning,feedback_image_window,2BMzGBSKNBY5Qc0u2eQs6G9UkFs2,2BMzGBSKNBY5Qc0u2eQs6G9UkFs2,,,,,,,,,,,,,,,,,,,,,,5c80367593fa450014546aca,16:33:22,27/03/2024
html-keyboard-response,186,418286,0.0-77.0,,"<div style=""font-size:100px;"">+</div>",,delaylearn,learning,ITI,2BMzGBSKNBY5Qc0u2eQs6G9UkFs2,2BMzGBSKNBY5Qc0u2eQs6G9UkFs2,,,,,,,,,,,,,,,,,,,1546.0,,,5c80367593fa450014546aca,16:33:22,27/03/2024
html-keyboard-response,187,419059,0.0-78.0-0.0,770.1000000000931,"<div style=""display: flex; flex-direction: column; align-items: center; margin-top: -40px;""><img src=""images/pattern_1.png"" style=""width: 234px; height: 230px; margin-top: -50px;""><div style=""display: flex; justify-content: space-between; margin-top: 33px;""><img src=""images/choice_trial_14.png"" style=""width: 408px; height: 417px; margin-right: 200px;""><img src=""images/choice_trial_8.png"" style=""width: 408px; height: 417px;""></div></div>",f,delaylearn,learning,trial,2BMzGBSKNBY5Qc0u2eQs6G9UkFs2,2BMzGBSKNBY5Qc0u2eQs6G9UkFs2,3.0,images/choice_trial_14.png,images/choice_trial_8.png,images/pattern_1.png,f,f,7000.0,14.0,8.0,1.0,0.0,34.0,1.0,1.0,14.0,210.0,,,,,,5c80367593fa450014546aca,16:33:22,27/03/2024
html-keyboard-response,188,420066,0.0-78.0-1.0,,"<div style=""display: flex; flex-direction: column; align-items: center; margin-top: -40px;""><img src=""images/pattern_1.png"" style=""width: 234px; height: 230px; margin-top: -50px;""><div style=""display: flex; justify-content: space-between; margin-top: 33px;""><img src=""images/choice_trial_14.png"" style=""width: 408px; height: 417px; margin-right: 608px;""></div></div>",,delaylearn,learning,display_response,2BMzGBSKNBY5Qc0u2eQs6G9UkFs2,2BMzGBSKNBY5Qc0u2eQs6G9UkFs2,,,,,,,,,,,,,,,,,chosen stimuli: images/choice_trial_14.png,,,,,5c80367593fa450014546aca,16:33:22,27/03/2024
html-keyboard-response,189,427082,0.0-78.0-2.0,,,,delaylearn,learning,feedback_duration_window,2BMzGBSKNBY5Qc0u2eQs6G9UkFs2,2BMzGBSKNBY5Qc0u2eQs6G9UkFs2,,,,,,,,,,,,,,,,,,7000.0,,,,5c80367593fa450014546aca,16:33:22,27/03/2024
html-keyboard-response,190,428590,0.0-78.0-3.0,,<div style='margin:auto;width: auto; font-size: 150%'><span style='font-weight: bold; font-size: 100px; color: green;'>+10 points!</span><br><br></div>,,delaylearn,learning,feedback_image_window,2BMzGBSKNBY5Qc0u2eQs6G9UkFs2,2BMzGBSKNBY5Qc0u2eQs6G9UkFs2,,,,,,,,,,,,,,,,,,,,,,5c80367593fa450014546aca,16:33:22,27/03/2024
html-keyboard-response,191,429098,0.0-79.0-0.0,,,,,,mood_trial_fixation,2BMzGBSKNBY5Qc0u2eQs6G9UkFs2,,,,,,,,,,,,,,,,,,,,,,,5c80367593fa450014546aca,16:33:22,27/03/2024
lmdlab-html-vas-response,192,433931,0.0-79.0-1.0,3821.0,How happy are you right now?,0.29127490910906967,delaylearn,learning,mood_trial,2BMzGBSKNBY5Qc0u2eQs6G9UkFs2,2BMzGBSKNBY5Qc0u2eQs6G9UkFs2,,,,,,,,,,,,,,,,,,,,"['Very unhappy', 'Very happy']",,5c80367593fa450014546aca,16:33:22,27/03/2024
html-keyboard-response,193,436233,0.0-80.0,,"<div style=""font-size:100px;"">+</div>",,delaylearn,learning,ITI,2BMzGBSKNBY5Qc0u2eQs6G9UkFs2,2BMzGBSKNBY5Qc0u2eQs6G9UkFs2,,,,,,,,,,,,,,,,,,,2294.0,,,5c80367593fa450014546aca,16:33:22,27/03/2024
html-keyboard-response,194,437780,0.0-81.0-0.0,1544.0,"<div style=""display: flex; flex-direction: column; align-items: center; margin-top: -40px;""><img src=""images/pattern_6.png"" style=""width: 234px; height: 230px; margin-top: -50px;""><div style=""display: flex; justify-content: space-between; margin-top: 33px;""><img src=""images/choice_trial_16.png"" style=""width: 408px; height: 417px; margin-right: 200px;""><img src=""images/choice_trial_3.png"" style=""width: 408px; height: 417px;""></div></div>",f,delaylearn,learning,trial,2BMzGBSKNBY5Qc0u2eQs6G9UkFs2,2BMzGBSKNBY5Qc0u2eQs6G9UkFs2,3.0,images/choice_trial_16.png,images/choice_trial_3.png,images/pattern_6.png,j,f,750.0,16.0,3.0,5.0,0.0,35.0,1.0,0.0,16.0,210.0,,,,,,5c80367593fa450014546aca,16:33:22,27/03/2024
html-keyboard-response,195,438795,0.0-81.0-1.0,,"<div style=""display: flex; flex-direction: column; align-items: center; margin-top: -40px;""><img src=""images/pattern_6.png"" style=""width: 234px; height: 230px; margin-top: -50px;""><div style=""display: flex; justify-content: space-between; margin-top: 33px;""><img src=""images/choice_trial_16.png"" style=""width: 408px; height: 417px; margin-right: 608px;""></div></div>",,delaylearn,learning,display_response,2BMzGBSKNBY5Qc0u2eQs6G9UkFs2,2BMzGBSKNBY5Qc0u2eQs6G9UkFs2,,,,,,,,,,,,,,,,,chosen stimuli: images/choice_trial_16.png,,,,,5c80367593fa450014546aca,16:33:22,27/03/2024
html-keyboard-response,196,439559,0.0-81.0-2.0,,,,delaylearn,learning,feedback_duration_window,2BMzGBSKNBY5Qc0u2eQs6G9UkFs2,2BMzGBSKNBY5Qc0u2eQs6G9UkFs2,,,,,,,,,,,,,,,,,,750.0,,,,5c80367593fa450014546aca,16:33:22,27/03/2024
html-keyboard-response,197,441075,0.0-81.0-3.0,,<div style='margin:auto;width: auto; font-size: 150%'><span style='font-weight: bold; font-size: 100px; color: red;'>0 points!</span><br><br></div>,,delaylearn,learning,feedback_image_window,2BMzGBSKNBY5Qc0u2eQs6G9UkFs2,2BMzGBSKNBY5Qc0u2eQs6G9UkFs2,,,,,,,,,,,,,,,,,,,,,,5c80367593fa450014546aca,16:33:22,27/03/2024
html-keyboard-response,198,442825,0.0-82.0,,"<div style=""font-size:100px;"">+</div>",,delaylearn,learning,ITI,2BMzGBSKNBY5Qc0u2eQs6G9UkFs2,2BMzGBSKNBY5Qc0u2eQs6G9UkFs2,,,,,,,,,,,,,,,,,,,1737.0,,,5c80367593fa450014546aca,16:33:22,27/03/2024
html-keyboard-response,199,443884,0.0-83.0-0.0,1056.2999999998137,"<div style=""display: flex; flex-direction: column; align-items: center; margin-top: -40px;""><img src=""images/pattern_3.png"" style=""width: 234px; height: 230px; margin-top: -50px;""><div style=""display: flex; justify-content: space-between; margin-top: 33px;""><img src=""images/choice_trial_10.png"" style=""width: 408px; height: 417px; margin-right: 200px;""><img src=""images/choice_trial_13.png"" style=""width: 408px; height: 417px;""></div></div>",j,delaylearn,learning,trial,2BMzGBSKNBY5Qc0u2eQs6G9UkFs2,2BMzGBSKNBY5Qc0u2eQs6G9UkFs2,3.0,images/choice_trial_10.png,images/choice_trial_13.png,images/pattern_3.png,j,j,7000.0,10.0,13.0,2.0,1.0,36.0,1.0,1.0,13.0,220.0,,,,,,5c80367593fa450014546aca,16:33:22,27/03/2024
html-keyboard-response,200,444895,0.0-83.0-1.0,,"<div style=""display: flex; flex-direction: column; align-items: center; margin-top: -40px;""><img src=""images/pattern_3.png"" style=""width: 234px; height: 230px; margin-top: -50px;""><div style=""display: flex; justify-content: space-between; margin-top: 33px;""><img src=""images/choice_trial_13.png"" style=""width: 408px; height: 417px; margin-left:608px;""></div></div>",,delaylearn,learning,display_response,2BMzGBSKNBY5Qc0u2eQs6G9UkFs2,2BMzGBSKNBY5Qc0u2eQs6G9UkFs2,,,,,,,,,,,,,,,,,chosen stimuli: images/choice_trial_13.png,,,,,5c80367593fa450014546aca,16:33:22,27/03/2024
html-keyboard-response,201,451898,0.0-83.0-2.0,,,,delaylearn,learning,feedback_duration_window,2BMzGBSKNBY5Qc0u2eQs6G9UkFs2,2BMzGBSKNBY5Qc0u2eQs6G9UkFs2,,,,,,,,,,,,,,,,,,7000.0,,,,5c80367593fa450014546aca,16:33:22,27/03/2024
html-keyboard-response,202,453414,0.0-83.0-3.0,,<div style='margin:auto;width: auto; font-size: 150%'><span style='font-weight: bold; font-size: 100px; color: green;'>+10 points!</span><br><br></div>,,delaylearn,learning,feedback_image_window,2BMzGBSKNBY5Qc0u2eQs6G9UkFs2,2BMzGBSKNBY5Qc0u2eQs6G9UkFs2,,,,,,,,,,,,,,,,,,,,,,5c80367593fa450014546aca,16:33:22,27/03/2024
html-keyboard-response,203,455139,0.0-84.0,,"<div style=""font-size:100px;"">+</div>",,delaylearn,learning,ITI,2BMzGBSKNBY5Qc0u2eQs6G9UkFs2,2BMzGBSKNBY5Qc0u2eQs6G9UkFs2,,,,,,,,,,,,,,,,,,,1717.0,,,5c80367593fa450014546aca,16:33:22,27/03/2024
html-keyboard-response,204,456255,0.0-85.0-0.0,1112.5,"<div style=""display: flex; flex-direction: column; align-items: center; margin-top: -40px;""><img src=""images/pattern_4.png"" style=""width: 234px; height: 230px; margin-top: -50px;""><div style=""display: flex; justify-content: space-between; margin-top: 33px;""><img src=""images/choice_trial_9.png"" style=""width: 408px; height: 417px; margin-right: 200px;""><img src=""images/choice_trial_15.png"" style=""width: 408px; height: 417px;""></div></div>",j,delaylearn,learning,trial,2BMzGBSKNBY5Qc0u2eQs6G9UkFs2,2BMzGBSKNBY5Qc0u2eQs6G9UkFs2,3.0,images/choice_trial_9.png,images/choice_trial_15.png,images/pattern_4.png,f,j,7000.0,9.0,15.0,3.0,1.0,37.0,1.0,0.0,15.0,220.0,,,,,,5c80367593fa450014546aca,16:33:22,27/03/2024
html-keyboard-response,205,457265,0.0-85.0-1.0,,"<div style=""display: flex; flex-direction: column; align-items: center; margin-top: -40px;""><img src=""images/pattern_4.png"" style=""width: 234px; height: 230px; margin-top: -50px;""><div style=""display: flex; justify-content: space-between; margin-top: 33px;""><img src=""images/choice_trial_15.png"" style=""width: 408px; height: 417px; margin-left:608px;""></div></div>",,delaylearn,learning,display_response,2BMzGBSKNBY5Qc0u2eQs6G9UkFs2,2BMzGBSKNBY5Qc0u2eQs6G9UkFs2,,,,,,,,,,,,,,,,,chosen stimuli: images/choice_trial_15.png,,,,,5c80367593fa450014546aca,16:33:22,27/03/2024
html-keyboard-response,206,464285,0.0-85.0-2.0,,,,delaylearn,learning,feedback_duration_window,2BMzGBSKNBY5Qc0u2eQs6G9UkFs2,2BMzGBSKNBY5Qc0u2eQs6G9UkFs2,,,,,,,,,,,,,,,,,,7000.0,,,,5c80367593fa450014546aca,16:33:22,27/03/2024
html-keyboard-response,207,465793,0.0-85.0-3.0,,<div style='margin:auto;width: auto; font-size: 150%'><span style='font-weight: bold; font-size: 100px; color: red;'>0 points!</span><br><br></div>,,delaylearn,learning,feedback_image_window,2BMzGBSKNBY5Qc0u2eQs6G9UkFs2,2BMzGBSKNBY5Qc0u2eQs6G9UkFs2,,,,,,,,,,,,,,,,,,,,,,5c80367593fa450014546aca,16:33:22,27/03/2024
html-keyboard-response,208,467445,0.0-86.0,,"<div style=""font-size:100px;"">+</div>",,delaylearn,learning,ITI,2BMzGBSKNBY5Qc0u2eQs6G9UkFs2,2BMzGBSKNBY5Qc0u2eQs6G9UkFs2,,,,,,,,,,,,,,,,,,,1638.0,,,5c80367593fa450014546aca,16:33:22,27/03/2024
html-keyboard-response,209,468349,0.0-87.0-0.0,899.6000000000931,"<div style=""display: flex; flex-direction: column; align-items: center; margin-top: -40px;""><img src=""images/pattern_7.png"" style=""width: 234px; height: 230px; margin-top: -50px;""><div style=""display: flex; justify-content: space-between; margin-top: 33px;""><img src=""images/choice_trial_6.png"" style=""width: 408px; height: 417px; margin-right: 200px;""><img src=""images/choice_trial_12.png"" style=""width: 408px; height: 417px;""></div></div>",f,delaylearn,learning,trial,2BMzGBSKNBY5Qc0u2eQs6G9UkFs2,2BMzGBSKNBY5Qc0u2eQs6G9UkFs2,3.0,images/choice_trial_6.png,images/choice_trial_12.png,images/pattern_7.png,f,f,750.0,6.0,12.0,6.0,0.0,38.0,1.0,1.0,6.0,230.0,,,,,,5c80367593fa450014546aca,16:33:22,27/03/2024
html-keyboard-response,210,469354,0.0-87.0-1.0,,"<div style=""display: flex; flex-direction: column; align-items: center; margin-top: -40px;""><img src=""images/pattern_7.png"" style=""width: 234px; height: 230px; margin-top: -50px;""><div style=""display: flex; justify-content: space-between; margin-top: 33px;""><img src=""images/choice_trial_6.png"" style=""width: 408px; height: 417px; margin-right: 608px;""></div></div>",,delaylearn,learning,display_response,2BMzGBSKNBY5Qc0u2eQs6G9UkFs2,2BMzGBSKNBY5Qc0u2eQs6G9UkFs2,,,,,,,,,,,,,,,,,chosen stimuli: images/choice_trial_6.png,,,,,5c80367593fa450014546aca,16:33:22,27/03/2024
html-keyboard-response,211,470123,0.0-87.0-2.0,,,,delaylearn,learning,feedback_duration_window,2BMzGBSKNBY5Qc0u2eQs6G9UkFs2,2BMzGBSKNBY5Qc0u2eQs6G9UkFs2,,,,,,,,,,,,,,,,,,750.0,,,,5c80367593fa450014546aca,16:33:22,27/03/2024
html-keyboard-response,212,471640,0.0-87.0-3.0,,<div style='margin:auto;width: auto; font-size: 150%'><span style='font-weight: bold; font-size: 100px; color: green;'>+10 points!</span><br><br></div>,,delaylearn,learning,feedback_image_window,2BMzGBSKNBY5Qc0u2eQs6G9UkFs2,2BMzGBSKNBY5Qc0u2eQs6G9UkFs2,,,,,,,,,,,,,,,,,,,,,,5c80367593fa450014546aca,16:33:22,27/03/2024
html-keyboard-response,213,473621,0.0-88.0,,"<div style=""font-size:100px;"">+</div>",,delaylearn,learning,ITI,2BMzGBSKNBY5Qc0u2eQs6G9UkFs2,2BMzGBSKNBY5Qc0u2eQs6G9UkFs2,,,,,,,,,,,,,,,,,,,1975.0,,,5c80367593fa450014546aca,16:33:22,27/03/2024
html-keyboard-response,214,474330,0.0-89.0-0.0,705.1999999997206,"<div style=""display: flex; flex-direction: column; align-items: center; margin-top: -40px;""><img src=""images/pattern_1.png"" style=""width: 234px; height: 230px; margin-top: -50px;""><div style=""display: flex; justify-content: space-between; margin-top: 33px;""><img src=""images/choice_trial_14.png"" style=""width: 408px; height: 417px; margin-right: 200px;""><img src=""images/choice_trial_8.png"" style=""width: 408px; height: 417px;""></div></div>",f,delaylearn,learning,trial,2BMzGBSKNBY5Qc0u2eQs6G9UkFs2,2BMzGBSKNBY5Qc0u2eQs6G9UkFs2,3.0,images/choice_trial_14.png,images/choice_trial_8.png,images/pattern_1.png,f,f,7000.0,14.0,8.0,1.0,0.0,39.0,1.0,1.0,14.0,240.0,,,,,,5c80367593fa450014546aca,16:33:22,27/03/2024
html-keyboard-response,215,475345,0.0-89.0-1.0,,"<div style=""display: flex; flex-direction: column; align-items: center; margin-top: -40px;""><img src=""images/pattern_1.png"" style=""width: 234px; height: 230px; margin-top: -50px;""><div style=""display: flex; justify-content: space-between; margin-top: 33px;""><img src=""images/choice_trial_14.png"" style=""width: 408px; height: 417px; margin-right: 608px;""></div></div>",,delaylearn,learning,display_response,2BMzGBSKNBY5Qc0u2eQs6G9UkFs2,2BMzGBSKNBY5Qc0u2eQs6G9UkFs2,,,,,,,,,,,,,,,,,chosen stimuli: images/choice_trial_14.png,,,,,5c80367593fa450014546aca,16:33:22,27/03/2024
html-keyboard-response,216,482353,0.0-89.0-2.0,,,,delaylearn,learning,feedback_duration_window,2BMzGBSKNBY5Qc0u2eQs6G9UkFs2,2BMzGBSKNBY5Qc0u2eQs6G9UkFs2,,,,,,,,,,,,,,,,,,7000.0,,,,5c80367593fa450014546aca,16:33:22,27/03/2024
html-keyboard-response,217,483865,0.0-89.0-3.0,,<div style='margin:auto;width: auto; font-size: 150%'><span style='font-weight: bold; font-size: 100px; color: green;'>+10 points!</span><br><br></div>,,delaylearn,learning,feedback_image_window,2BMzGBSKNBY5Qc0u2eQs6G9UkFs2,2BMzGBSKNBY5Qc0u2eQs6G9UkFs2,,,,,,,,,,,,,,,,,,,,,,5c80367593fa450014546aca,16:33:22,27/03/2024
html-keyboard-response,218,484378,0.0-90.0-0.0,,,,,,mood_trial_fixation,2BMzGBSKNBY5Qc0u2eQs6G9UkFs2,,,,,,,,,,,,,,,,,,,,,,,5c80367593fa450014546aca,16:33:22,27/03/2024
lmdlab-html-vas-response,219,491097,0.0-90.0-1.0,5706.0,How happy are you right now?,0.19133672618808215,delaylearn,learning,mood_trial,2BMzGBSKNBY5Qc0u2eQs6G9UkFs2,2BMzGBSKNBY5Qc0u2eQs6G9UkFs2,,,,,,,,,,,,,,,,,,,,"['Very unhappy', 'Very happy']",,5c80367593fa450014546aca,16:33:22,27/03/2024
html-keyboard-response,220,492903,0.0-91.0,,"<div style=""font-size:100px;"">+</div>",,delaylearn,learning,ITI,2BMzGBSKNBY5Qc0u2eQs6G9UkFs2,2BMzGBSKNBY5Qc0u2eQs6G9UkFs2,,,,,,,,,,,,,,,,,,,1794.0,,,5c80367593fa450014546aca,16:33:22,27/03/2024
html-keyboard-response,221,493867,0.0-92.0-0.0,961.0,"<div style=""display: flex; flex-direction: column; align-items: center; margin-top: -40px;""><img src=""images/pattern_3.png"" style=""width: 234px; height: 230px; margin-top: -50px;""><div style=""display: flex; justify-content: space-between; margin-top: 33px;""><img src=""images/choice_trial_13.png"" style=""width: 408px; height: 417px; margin-right: 200px;""><img src=""images/choice_trial_10.png"" style=""width: 408px; height: 417px;""></div></div>",f,delaylearn,learning,trial,2BMzGBSKNBY5Qc0u2eQs6G9UkFs2,2BMzGBSKNBY5Qc0u2eQs6G9UkFs2,3.0,images/choice_trial_13.png,images/choice_trial_10.png,images/pattern_3.png,j,f,7000.0,13.0,10.0,2.0,0.0,40.0,1.0,0.0,13.0,240.0,,,,,,5c80367593fa450014546aca,16:33:22,27/03/2024
html-keyboard-response,222,494885,0.0-92.0-1.0,,"<div style=""display: flex; flex-direction: column; align-items: center; margin-top: -40px;""><img src=""images/pattern_3.png"" style=""width: 234px; height: 230px; margin-top: -50px;""><div style=""display: flex; justify-content: space-between; margin-top: 33px;""><img src=""images/choice_trial_13.png"" style=""width: 408px; height: 417px; margin-right: 608px;""></div></div>",,delaylearn,learning,display_response,2BMzGBSKNBY5Qc0u2eQs6G9UkFs2,2BMzGBSKNBY5Qc0u2eQs6G9UkFs2,,,,,,,,,,,,,,,,,chosen stimuli: images/choice_trial_13.png,,,,,5c80367593fa450014546aca,16:33:22,27/03/2024
html-keyboard-response,223,501889,0.0-92.0-2.0,,,,delaylearn,learning,feedback_duration_window,2BMzGBSKNBY5Qc0u2eQs6G9UkFs2,2BMzGBSKNBY5Qc0u2eQs6G9UkFs2,,,,,,,,,,,,,,,,,,7000.0,,,,5c80367593fa450014546aca,16:33:22,27/03/2024
html-keyboard-response,224,503406,0.0-92.0-3.0,,<div style='margin:auto;width: auto; font-size: 150%'><span style='font-weight: bold; font-size: 100px; color: red;'>0 points!</span><br><br></div>,,delaylearn,learning,feedback_image_window,2BMzGBSKNBY5Qc0u2eQs6G9UkFs2,2BMzGBSKNBY5Qc0u2eQs6G9UkFs2,,,,,,,,,,,,,,,,,,,,,,5c80367593fa450014546aca,16:33:22,27/03/2024
html-keyboard-response,225,505475,0.0-93.0,,"<div style=""font-size:100px;"">+</div>",,delaylearn,learning,ITI,2BMzGBSKNBY5Qc0u2eQs6G9UkFs2,2BMzGBSKNBY5Qc0u2eQs6G9UkFs2,,,,,,,,,,,,,,,,,,,2064.0,,,5c80367593fa450014546aca,16:33:22,27/03/2024
html-keyboard-response,226,506268,0.0-94.0-0.0,789.7999999998137,"<div style=""display: flex; flex-direction: column; align-items: center; margin-top: -40px;""><img src=""images/pattern_7.png"" style=""width: 234px; height: 230px; margin-top: -50px;""><div style=""display: flex; justify-content: space-between; margin-top: 33px;""><img src=""images/choice_trial_12.png"" style=""width: 408px; height: 417px; margin-right: 200px;""><img src=""images/choice_trial_6.png"" style=""width: 408px; height: 417px;""></div></div>",j,delaylearn,learning,trial,2BMzGBSKNBY5Qc0u2eQs6G9UkFs2,2BMzGBSKNBY5Qc0u2eQs6G9UkFs2,3.0,images/choice_trial_12.png,images/choice_trial_6.png,images/pattern_7.png,j,j,750.0,12.0,6.0,6.0,1.0,41.0,1.0,1.0,6.0,250.0,,,,,,5c80367593fa450014546aca,16:33:22,27/03/2024
html-keyboard-response,227,507274,0.0-94.0-1.0,,"<div style=""display: flex; flex-direction: column; align-items: center; margin-top: -40px;""><img src=""images/pattern_7.png"" style=""width: 234px; height: 230px; margin-top: -50px;""><div style=""display: flex; justify-content: space-between; margin-top: 33px;""><img src=""images/choice_trial_6.png"" style=""width: 408px; height: 417px; margin-left:608px;""></div></div>",,delaylearn,learning,display_response,2BMzGBSKNBY5Qc0u2eQs6G9UkFs2,2BMzGBSKNBY5Qc0u2eQs6G9UkFs2,,,,,,,,,,,,,,,,,chosen stimuli: images/choice_trial_6.png,,,,,5c80367593fa450014546aca,16:33:22,27/03/2024
html-keyboard-response,228,508036,0.0-94.0-2.0,,,,delaylearn,learning,feedback_duration_window,2BMzGBSKNBY5Qc0u2eQs6G9UkFs2,2BMzGBSKNBY5Qc0u2eQs6G9UkFs2,,,,,,,,,,,,,,,,,,750.0,,,,5c80367593fa450014546aca,16:33:22,27/03/2024
html-keyboard-response,229,509544,0.0-94.0-3.0,,<div style='margin:auto;width: auto; font-size: 150%'><span style='font-weight: bold; font-size: 100px; color: green;'>+10 points!</span><br><br></div>,,delaylearn,learning,feedback_image_window,2BMzGBSKNBY5Qc0u2eQs6G9UkFs2,2BMzGBSKNBY5Qc0u2eQs6G9UkFs2,,,,,,,,,,,,,,,,,,,,,,5c80367593fa450014546aca,16:33:22,27/03/2024
html-keyboard-response,230,511184,0.0-95.0,,"<div style=""font-size:100px;"">+</div>",,delaylearn,learning,ITI,2BMzGBSKNBY5Qc0u2eQs6G9UkFs2,2BMzGBSKNBY5Qc0u2eQs6G9UkFs2,,,,,,,,,,,,,,,,,,,1631.0,,,5c80367593fa450014546aca,16:33:22,27/03/2024
