trial_type,trial_index,time_elapsed,internal_node_id,rt,stimulus,response,exp_name,exp_stage,test_part,subjectID,databaseID,counterbal,choice_stimuli_1,choice_stimuli_2,pattern_stimuli,rewarded_answer,correct_answer,feedback_duration_times,stim_left,stim_right,pair,leftright_counter,trial,response_correct,response_rewarded,chosen_stim,counter,displayed_choice,feedback_durations,ITI_duration,labels,rest_warning,prolificID,start_time,date
pavlovia,0,820,0.0-0.0,,,,,,,5AdDuOMjzyXZRCLMJbddGqJi6HV2,,,,,,,,,,,,,,,,,,,,,,,62e95680b0415811dccf7147,16:53:35,27/03/2024
html-keyboard-response,1,3829,0.0-1.0,,"<div style=""font-size:100px;"">+</div>",,delaylearn,learning,pre_fixation,5AdDuOMjzyXZRCLMJbddGqJi6HV2,,,,,,,,,,,,,,,,,,,,,,,62e95680b0415811dccf7147,16:53:35,27/03/2024
html-keyboard-response,2,4349,0.0-2.0-0.0,516.0,"<div style=""display: flex; flex-direction: column; align-items: center; margin-top: -40px;""><img src=""images/demo_images/pattern_1.png"" style=""width: 234px; height: 230px; margin-top: -50px;""><div style=""display: flex; justify-content: space-between; margin-top: 33px;""><img src=""images/demo_images/choice_trial_2.png"" style=""width: 408px; height: 417px; margin-right: 200px;""><img src=""images/demo_images/choice_trial_1.png"" style=""width: 408px; height: 417px;""></div></div>",f,delaylearn,learning,trial,5AdDuOMjzyXZRCLMJbddGqJi6HV2,5AdDuOMjzyXZRCLMJbddGqJi6HV2,1.0,images/demo_images/choice_trial_2.png,images/demo_images/choice_trial_1.png,images/demo_images/pattern_1.png,j,j,3000.0,2.0,1.0,20.0,1.0,1.0,0.0,0.0,2.0,0.0,,,,,,62e95680b0415811dccf7147,16:53:35,27/03/2024
html-keyboard-response,3,5362,0.0-2.0-1.0,,"<div style=""display: flex; flex-direction: column; align-items: center; margin-top: -40px;""><img src=""images/demo_images/pattern_1.png"" style=""width: 234px; height: 230px; margin-top: -50px;""><div style=""display: flex; justify-content: space-between; margin-top: 33px;""><img src=""images/demo_images/choice_trial_2.png"" style=""width: 408px; height: 417px; margin-right: 608px;""></div></div>",,delaylearn,learning,display_response,5AdDuOMjzyXZRCLMJbddGqJi6HV2,5AdDuOMjzyXZRCLMJbddGqJi6HV2,,,,,,,,,,,,,,,,,chosen stimuli: images/demo_images/choice_trial_2.png,,,,,62e95680b0415811dccf7147,16:53:35,27/03/2024
html-keyboard-response,4,8377,0.0-2.0-2.0,,,,delaylearn,learning,feedback_duration_window,5AdDuOMjzyXZRCLMJbddGqJi6HV2,5AdDuOMjzyXZRCLMJbddGqJi6HV2,,,,,,,,,,,,,,,,,,3000.0,,,,62e95680b0415811dccf7147,16:53:35,27/03/2024
html-keyboard-response,5,9891,0.0-2.0-3.0,,<div style='margin:auto;width: auto; font-size: 150%'><span style='font-weight: bold; font-size: 100px; color: red;'>0 points!</span><br><br></div>,,delaylearn,learning,feedback_image_window,5AdDuOMjzyXZRCLMJbddGqJi6HV2,5AdDuOMjzyXZRCLMJbddGqJi6HV2,,,,,,,,,,,,,,,,,,,,,,62e95680b0415811dccf7147,16:53:35,27/03/2024
html-keyboard-response,6,11518,0.0-3.0,,"<div style=""font-size:100px;"">+</div>",,delaylearn,learning,ITI,5AdDuOMjzyXZRCLMJbddGqJi6HV2,5AdDuOMjzyXZRCLMJbddGqJi6HV2,,,,,,,,,,,,,,,,,,,1611.0,,,62e95680b0415811dccf7147,16:53:35,27/03/2024
html-keyboard-response,7,12196,0.0-4.0-0.0,674.2999999523163,"<div style=""display: flex; flex-direction: column; align-items: center; margin-top: -40px;""><img src=""images/demo_images/pattern_1.png"" style=""width: 234px; height: 230px; margin-top: -50px;""><div style=""display: flex; justify-content: space-between; margin-top: 33px;""><img src=""images/demo_images/choice_trial_2.png"" style=""width: 408px; height: 417px; margin-right: 200px;""><img src=""images/demo_images/choice_trial_1.png"" style=""width: 408px; height: 417px;""></div></div>",f,delaylearn,learning,trial,5AdDuOMjzyXZRCLMJbddGqJi6HV2,5AdDuOMjzyXZRCLMJbddGqJi6HV2,1.0,images/demo_images/choice_trial_2.png,images/demo_images/choice_trial_1.png,images/demo_images/pattern_1.png,j,j,3000.0,2.0,1.0,20.0,1.0,2.0,0.0,0.0,2.0,0.0,,,,,,62e95680b0415811dccf7147,16:53:35,27/03/2024
html-keyboard-response,8,13209,0.0-4.0-1.0,,"<div style=""display: flex; flex-direction: column; align-items: center; margin-top: -40px;""><img src=""images/demo_images/pattern_1.png"" style=""width: 234px; height: 230px; margin-top: -50px;""><div style=""display: flex; justify-content: space-between; margin-top: 33px;""><img src=""images/demo_images/choice_trial_2.png"" style=""width: 408px; height: 417px; margin-right: 608px;""></div></div>",,delaylearn,learning,display_response,5AdDuOMjzyXZRCLMJbddGqJi6HV2,5AdDuOMjzyXZRCLMJbddGqJi6HV2,,,,,,,,,,,,,,,,,chosen stimuli: images/demo_images/choice_trial_2.png,,,,,62e95680b0415811dccf7147,16:53:35,27/03/2024
html-keyboard-response,9,16216,0.0-4.0-2.0,,,,delaylearn,learning,feedback_duration_window,5AdDuOMjzyXZRCLMJbddGqJi6HV2,5AdDuOMjzyXZRCLMJbddGqJi6HV2,,,,,,,,,,,,,,,,,,3000.0,,,,62e95680b0415811dccf7147,16:53:35,27/03/2024
html-keyboard-response,10,17718,0.0-4.0-3.0,,<div style='margin:auto;width: auto; font-size: 150%'><span style='font-weight: bold; font-size: 100px; color: red;'>0 points!</span><br><br></div>,,delaylearn,learning,feedback_image_window,5AdDuOMjzyXZRCLMJbddGqJi6HV2,5AdDuOMjzyXZRCLMJbddGqJi6HV2,,,,,,,,,,,,,,,,,,,,,,62e95680b0415811dccf7147,16:53:35,27/03/2024
html-keyboard-response,11,19581,0.0-5.0,,"<div style=""font-size:100px;"">+</div>",,delaylearn,learning,ITI,5AdDuOMjzyXZRCLMJbddGqJi6HV2,5AdDuOMjzyXZRCLMJbddGqJi6HV2,,,,,,,,,,,,,,,,,,,1848.0,,,62e95680b0415811dccf7147,16:53:35,27/03/2024
html-keyboard-response,12,20382,0.0-6.0-0.0,798.1000000238419,"<div style=""display: flex; flex-direction: column; align-items: center; margin-top: -40px;""><img src=""images/demo_images/pattern_1.png"" style=""width: 234px; height: 230px; margin-top: -50px;""><div style=""display: flex; justify-content: space-between; margin-top: 33px;""><img src=""images/demo_images/choice_trial_1.png"" style=""width: 408px; height: 417px; margin-right: 200px;""><img src=""images/demo_images/choice_trial_2.png"" style=""width: 408px; height: 417px;""></div></div>",f,delaylearn,learning,trial,5AdDuOMjzyXZRCLMJbddGqJi6HV2,5AdDuOMjzyXZRCLMJbddGqJi6HV2,1.0,images/demo_images/choice_trial_1.png,images/demo_images/choice_trial_2.png,images/demo_images/pattern_1.png,j,f,3000.0,1.0,2.0,20.0,0.0,3.0,1.0,0.0,1.0,0.0,,,,,,62e95680b0415811dccf7147,16:53:35,27/03/2024
html-keyboard-response,13,21392,0.0-6.0-1.0,,"<div style=""display: flex; flex-direction: column; align-items: center; margin-top: -40px;""><img src=""images/demo_images/pattern_1.png"" style=""width: 234px; height: 230px; margin-top: -50px;""><div style=""display: flex; justify-content: space-between; margin-top: 33px;""><img src=""images/demo_images/choice_trial_1.png"" style=""width: 408px; height: 417px; margin-right: 608px;""></div></div>",,delaylearn,learning,display_response,5AdDuOMjzyXZRCLMJbddGqJi6HV2,5AdDuOMjzyXZRCLMJbddGqJi6HV2,,,,,,,,,,,,,,,,,chosen stimuli: images/demo_images/choice_trial_1.png,,,,,62e95680b0415811dccf7147,16:53:35,27/03/2024
html-keyboard-response,14,24393,0.0-6.0-2.0,,,,delaylearn,learning,feedback_duration_window,5AdDuOMjzyXZRCLMJbddGqJi6HV2,5AdDuOMjzyXZRCLMJbddGqJi6HV2,,,,,,,,,,,,,,,,,,3000.0,,,,62e95680b0415811dccf7147,16:53:35,27/03/2024
html-keyboard-response,15,25896,0.0-6.0-3.0,,<div style='margin:auto;width: auto; font-size: 150%'><span style='font-weight: bold; font-size: 100px; color: red;'>0 points!</span><br><br></div>,,delaylearn,learning,feedback_image_window,5AdDuOMjzyXZRCLMJbddGqJi6HV2,5AdDuOMjzyXZRCLMJbddGqJi6HV2,,,,,,,,,,,,,,,,,,,,,,62e95680b0415811dccf7147,16:53:35,27/03/2024
html-keyboard-response,16,28395,0.0-7.0,,"<div style=""font-size:100px;"">+</div>",,delaylearn,learning,ITI,5AdDuOMjzyXZRCLMJbddGqJi6HV2,5AdDuOMjzyXZRCLMJbddGqJi6HV2,,,,,,,,,,,,,,,,,,,2483.0,,,62e95680b0415811dccf7147,16:53:35,27/03/2024
html-keyboard-response,17,29284,0.0-8.0-0.0,886.1000000238419,"<div style=""display: flex; flex-direction: column; align-items: center; margin-top: -40px;""><img src=""images/demo_images/pattern_1.png"" style=""width: 234px; height: 230px; margin-top: -50px;""><div style=""display: flex; justify-content: space-between; margin-top: 33px;""><img src=""images/demo_images/choice_trial_1.png"" style=""width: 408px; height: 417px; margin-right: 200px;""><img src=""images/demo_images/choice_trial_2.png"" style=""width: 408px; height: 417px;""></div></div>",f,delaylearn,learning,trial,5AdDuOMjzyXZRCLMJbddGqJi6HV2,5AdDuOMjzyXZRCLMJbddGqJi6HV2,1.0,images/demo_images/choice_trial_1.png,images/demo_images/choice_trial_2.png,images/demo_images/pattern_1.png,f,f,3000.0,1.0,2.0,20.0,0.0,4.0,1.0,1.0,1.0,10.0,,,,,,62e95680b0415811dccf7147,16:53:35,27/03/2024
html-keyboard-response,18,30292,0.0-8.0-1.0,,"<div style=""display: flex; flex-direction: column; align-items: center; margin-top: -40px;""><img src=""images/demo_images/pattern_1.png"" style=""width: 234px; height: 230px; margin-top: -50px;""><div style=""display: flex; justify-content: space-between; margin-top: 33px;""><img src=""images/demo_images/choice_trial_1.png"" style=""width: 408px; height: 417px; margin-right: 608px;""></div></div>",,delaylearn,learning,display_response,5AdDuOMjzyXZRCLMJbddGqJi6HV2,5AdDuOMjzyXZRCLMJbddGqJi6HV2,,,,,,,,,,,,,,,,,chosen stimuli: images/demo_images/choice_trial_1.png,,,,,62e95680b0415811dccf7147,16:53:35,27/03/2024
html-keyboard-response,19,33296,0.0-8.0-2.0,,,,delaylearn,learning,feedback_duration_window,5AdDuOMjzyXZRCLMJbddGqJi6HV2,5AdDuOMjzyXZRCLMJbddGqJi6HV2,,,,,,,,,,,,,,,,,,3000.0,,,,62e95680b0415811dccf7147,16:53:35,27/03/2024
html-keyboard-response,20,34810,0.0-8.0-3.0,,<div style='margin:auto;width: auto; font-size: 150%'><span style='font-weight: bold; font-size: 100px; color: green;'>+10 points!</span><br><br></div>,,delaylearn,learning,feedback_image_window,5AdDuOMjzyXZRCLMJbddGqJi6HV2,5AdDuOMjzyXZRCLMJbddGqJi6HV2,,,,,,,,,,,,,,,,,,,,,,62e95680b0415811dccf7147,16:53:35,27/03/2024
html-keyboard-response,21,35325,0.0-9.0-0.0,,,,,,mood_trial_fixation,5AdDuOMjzyXZRCLMJbddGqJi6HV2,,,,,,,,,,,,,,,,,,,,,,,62e95680b0415811dccf7147,16:53:35,27/03/2024
lmdlab-html-vas-response,22,40456,0.0-9.0-1.0,4101.0,How happy are you right now?,0.3726851851851852,delaylearn,learning,mood_trial,5AdDuOMjzyXZRCLMJbddGqJi6HV2,5AdDuOMjzyXZRCLMJbddGqJi6HV2,,,,,,,,,,,,,,,,,,,,"['Very unhappy', 'Very happy']",,62e95680b0415811dccf7147,16:53:35,27/03/2024
html-keyboard-response,23,42390,0.0-10.0,,"<div style=""font-size:100px;"">+</div>",,delaylearn,learning,ITI,5AdDuOMjzyXZRCLMJbddGqJi6HV2,5AdDuOMjzyXZRCLMJbddGqJi6HV2,,,,,,,,,,,,,,,,,,,1925.0,,,62e95680b0415811dccf7147,16:53:35,27/03/2024
html-keyboard-response,24,43144,0.0-11.0-0.0,750.5,"<div style=""display: flex; flex-direction: column; align-items: center; margin-top: -40px;""><img src=""images/demo_images/pattern_1.png"" style=""width: 234px; height: 230px; margin-top: -50px;""><div style=""display: flex; justify-content: space-between; margin-top: 33px;""><img src=""images/demo_images/choice_trial_2.png"" style=""width: 408px; height: 417px; margin-right: 200px;""><img src=""images/demo_images/choice_trial_1.png"" style=""width: 408px; height: 417px;""></div></div>",j,delaylearn,learning,trial,5AdDuOMjzyXZRCLMJbddGqJi6HV2,5AdDuOMjzyXZRCLMJbddGqJi6HV2,1.0,images/demo_images/choice_trial_2.png,images/demo_images/choice_trial_1.png,images/demo_images/pattern_1.png,j,j,3000.0,2.0,1.0,20.0,1.0,5.0,1.0,1.0,1.0,20.0,,,,,,62e95680b0415811dccf7147,16:53:35,27/03/2024
html-keyboard-response,25,44155,0.0-11.0-1.0,,"<div style=""display: flex; flex-direction: column; align-items: center; margin-top: -40px;""><img src=""images/demo_images/pattern_1.png"" style=""width: 234px; height: 230px; margin-top: -50px;""><div style=""display: flex; justify-content: space-between; margin-top: 33px;""><img src=""images/demo_images/choice_trial_1.png"" style=""width: 408px; height: 417px; margin-left:608px;""></div></div>",,delaylearn,learning,display_response,5AdDuOMjzyXZRCLMJbddGqJi6HV2,5AdDuOMjzyXZRCLMJbddGqJi6HV2,,,,,,,,,,,,,,,,,chosen stimuli: images/demo_images/choice_trial_1.png,,,,,62e95680b0415811dccf7147,16:53:35,27/03/2024
html-keyboard-response,26,47163,0.0-11.0-2.0,,,,delaylearn,learning,feedback_duration_window,5AdDuOMjzyXZRCLMJbddGqJi6HV2,5AdDuOMjzyXZRCLMJbddGqJi6HV2,,,,,,,,,,,,,,,,,,3000.0,,,,62e95680b0415811dccf7147,16:53:35,27/03/2024
html-keyboard-response,27,48673,0.0-11.0-3.0,,<div style='margin:auto;width: auto; font-size: 150%'><span style='font-weight: bold; font-size: 100px; color: green;'>+10 points!</span><br><br></div>,,delaylearn,learning,feedback_image_window,5AdDuOMjzyXZRCLMJbddGqJi6HV2,5AdDuOMjzyXZRCLMJbddGqJi6HV2,,,,,,,,,,,,,,,,,,,,,,62e95680b0415811dccf7147,16:53:35,27/03/2024
html-keyboard-response,28,50507,0.0-12.0,,"<div style=""font-size:100px;"">+</div>",,delaylearn,learning,ITI,5AdDuOMjzyXZRCLMJbddGqJi6HV2,5AdDuOMjzyXZRCLMJbddGqJi6HV2,,,,,,,,,,,,,,,,,,,1827.0,,,62e95680b0415811dccf7147,16:53:35,27/03/2024
html-keyboard-response,29,51934,0.0-13.0-0.0,1424.3999999761581,"<div style=""display: flex; flex-direction: column; align-items: center; margin-top: -40px;""><img src=""images/demo_images/pattern_1.png"" style=""width: 234px; height: 230px; margin-top: -50px;""><div style=""display: flex; justify-content: space-between; margin-top: 33px;""><img src=""images/demo_images/choice_trial_1.png"" style=""width: 408px; height: 417px; margin-right: 200px;""><img src=""images/demo_images/choice_trial_2.png"" style=""width: 408px; height: 417px;""></div></div>",f,delaylearn,learning,trial,5AdDuOMjzyXZRCLMJbddGqJi6HV2,5AdDuOMjzyXZRCLMJbddGqJi6HV2,1.0,images/demo_images/choice_trial_1.png,images/demo_images/choice_trial_2.png,images/demo_images/pattern_1.png,f,f,3000.0,1.0,2.0,20.0,0.0,6.0,1.0,1.0,1.0,30.0,,,,,,62e95680b0415811dccf7147,16:53:35,27/03/2024
html-keyboard-response,30,52947,0.0-13.0-1.0,,"<div style=""display: flex; flex-direction: column; align-items: center; margin-top: -40px;""><img src=""images/demo_images/pattern_1.png"" style=""width: 234px; height: 230px; margin-top: -50px;""><div style=""display: flex; justify-content: space-between; margin-top: 33px;""><img src=""images/demo_images/choice_trial_1.png"" style=""width: 408px; height: 417px; margin-right: 608px;""></div></div>",,delaylearn,learning,display_response,5AdDuOMjzyXZRCLMJbddGqJi6HV2,5AdDuOMjzyXZRCLMJbddGqJi6HV2,,,,,,,,,,,,,,,,,chosen stimuli: images/demo_images/choice_trial_1.png,,,,,62e95680b0415811dccf7147,16:53:35,27/03/2024
html-keyboard-response,31,55962,0.0-13.0-2.0,,,,delaylearn,learning,feedback_duration_window,5AdDuOMjzyXZRCLMJbddGqJi6HV2,5AdDuOMjzyXZRCLMJbddGqJi6HV2,,,,,,,,,,,,,,,,,,3000.0,,,,62e95680b0415811dccf7147,16:53:35,27/03/2024
html-keyboard-response,32,57472,0.0-13.0-3.0,,<div style='margin:auto;width: auto; font-size: 150%'><span style='font-weight: bold; font-size: 100px; color: green;'>+10 points!</span><br><br></div>,,delaylearn,learning,feedback_image_window,5AdDuOMjzyXZRCLMJbddGqJi6HV2,5AdDuOMjzyXZRCLMJbddGqJi6HV2,,,,,,,,,,,,,,,,,,,,,,62e95680b0415811dccf7147,16:53:35,27/03/2024
html-keyboard-response,33,59759,0.0-14.0,,"<div style=""font-size:100px;"">+</div>",,delaylearn,learning,ITI,5AdDuOMjzyXZRCLMJbddGqJi6HV2,5AdDuOMjzyXZRCLMJbddGqJi6HV2,,,,,,,,,,,,,,,,,,,2281.0,,,62e95680b0415811dccf7147,16:53:35,27/03/2024
html-keyboard-response,34,60525,0.0-15.0-0.0,763.2999999523163,"<div style=""display: flex; flex-direction: column; align-items: center; margin-top: -40px;""><img src=""images/demo_images/pattern_1.png"" style=""width: 234px; height: 230px; margin-top: -50px;""><div style=""display: flex; justify-content: space-between; margin-top: 33px;""><img src=""images/demo_images/choice_trial_2.png"" style=""width: 408px; height: 417px; margin-right: 200px;""><img src=""images/demo_images/choice_trial_1.png"" style=""width: 408px; height: 417px;""></div></div>",j,delaylearn,learning,trial,5AdDuOMjzyXZRCLMJbddGqJi6HV2,5AdDuOMjzyXZRCLMJbddGqJi6HV2,1.0,images/demo_images/choice_trial_2.png,images/demo_images/choice_trial_1.png,images/demo_images/pattern_1.png,j,j,3000.0,2.0,1.0,20.0,1.0,7.0,1.0,1.0,1.0,40.0,,,,,,62e95680b0415811dccf7147,16:53:35,27/03/2024
html-keyboard-response,35,61530,0.0-15.0-1.0,,"<div style=""display: flex; flex-direction: column; align-items: center; margin-top: -40px;""><img src=""images/demo_images/pattern_1.png"" style=""width: 234px; height: 230px; margin-top: -50px;""><div style=""display: flex; justify-content: space-between; margin-top: 33px;""><img src=""images/demo_images/choice_trial_1.png"" style=""width: 408px; height: 417px; margin-left:608px;""></div></div>",,delaylearn,learning,display_response,5AdDuOMjzyXZRCLMJbddGqJi6HV2,5AdDuOMjzyXZRCLMJbddGqJi6HV2,,,,,,,,,,,,,,,,,chosen stimuli: images/demo_images/choice_trial_1.png,,,,,62e95680b0415811dccf7147,16:53:35,27/03/2024
html-keyboard-response,36,64543,0.0-15.0-2.0,,,,delaylearn,learning,feedback_duration_window,5AdDuOMjzyXZRCLMJbddGqJi6HV2,5AdDuOMjzyXZRCLMJbddGqJi6HV2,,,,,,,,,,,,,,,,,,3000.0,,,,62e95680b0415811dccf7147,16:53:35,27/03/2024
html-keyboard-response,37,66049,0.0-15.0-3.0,,<div style='margin:auto;width: auto; font-size: 150%'><span style='font-weight: bold; font-size: 100px; color: green;'>+10 points!</span><br><br></div>,,delaylearn,learning,feedback_image_window,5AdDuOMjzyXZRCLMJbddGqJi6HV2,5AdDuOMjzyXZRCLMJbddGqJi6HV2,,,,,,,,,,,,,,,,,,,,,,62e95680b0415811dccf7147,16:53:35,27/03/2024
html-keyboard-response,38,67563,0.0-16.0,,"<div style=""font-size:100px;"">+</div>",,delaylearn,learning,ITI,5AdDuOMjzyXZRCLMJbddGqJi6HV2,5AdDuOMjzyXZRCLMJbddGqJi6HV2,,,,,,,,,,,,,,,,,,,1510.0,,,62e95680b0415811dccf7147,16:53:35,27/03/2024
html-keyboard-response,39,68290,0.0-17.0-0.0,724.0,"<div style=""display: flex; flex-direction: column; align-items: center; margin-top: -40px;""><img src=""images/demo_images/pattern_1.png"" style=""width: 234px; height: 230px; margin-top: -50px;""><div style=""display: flex; justify-content: space-between; margin-top: 33px;""><img src=""images/demo_images/choice_trial_1.png"" style=""width: 408px; height: 417px; margin-right: 200px;""><img src=""images/demo_images/choice_trial_2.png"" style=""width: 408px; height: 417px;""></div></div>",f,delaylearn,learning,trial,5AdDuOMjzyXZRCLMJbddGqJi6HV2,5AdDuOMjzyXZRCLMJbddGqJi6HV2,1.0,images/demo_images/choice_trial_1.png,images/demo_images/choice_trial_2.png,images/demo_images/pattern_1.png,f,f,3000.0,1.0,2.0,20.0,0.0,8.0,1.0,1.0,1.0,50.0,,,,,,62e95680b0415811dccf7147,16:53:35,27/03/2024
html-keyboard-response,40,69304,0.0-17.0-1.0,,"<div style=""display: flex; flex-direction: column; align-items: center; margin-top: -40px;""><img src=""images/demo_images/pattern_1.png"" style=""width: 234px; height: 230px; margin-top: -50px;""><div style=""display: flex; justify-content: space-between; margin-top: 33px;""><img src=""images/demo_images/choice_trial_1.png"" style=""width: 408px; height: 417px; margin-right: 608px;""></div></div>",,delaylearn,learning,display_response,5AdDuOMjzyXZRCLMJbddGqJi6HV2,5AdDuOMjzyXZRCLMJbddGqJi6HV2,,,,,,,,,,,,,,,,,chosen stimuli: images/demo_images/choice_trial_1.png,,,,,62e95680b0415811dccf7147,16:53:35,27/03/2024
html-keyboard-response,41,72320,0.0-17.0-2.0,,,,delaylearn,learning,feedback_duration_window,5AdDuOMjzyXZRCLMJbddGqJi6HV2,5AdDuOMjzyXZRCLMJbddGqJi6HV2,,,,,,,,,,,,,,,,,,3000.0,,,,62e95680b0415811dccf7147,16:53:35,27/03/2024
html-keyboard-response,42,73838,0.0-17.0-3.0,,<div style='margin:auto;width: auto; font-size: 150%'><span style='font-weight: bold; font-size: 100px; color: green;'>+10 points!</span><br><br></div>,,delaylearn,learning,feedback_image_window,5AdDuOMjzyXZRCLMJbddGqJi6HV2,5AdDuOMjzyXZRCLMJbddGqJi6HV2,,,,,,,,,,,,,,,,,,,,,,62e95680b0415811dccf7147,16:53:35,27/03/2024
html-button-response,43,76888,0.0-18.0,3048.3000000715256,"
  <div style=""display: flex; align-items: center; justify-content: center; height: 80vh;"">
  <div>
          <img src=""images/inst_demo_finish.png"" style=""width: 80vw; height:auto;"">
          <br><br>
      </div>
      <br><br>
  </div>",0,,,,5AdDuOMjzyXZRCLMJbddGqJi6HV2,,,,,,,,,,,,,,,,,,,,,,,62e95680b0415811dccf7147,16:53:35,27/03/2024
html-keyboard-response,44,81533,0.0-19.0,4642.800000071526,"
  <div style=""display: flex; align-items: center; justify-content: center; height: 80vh;"">
  <div>
          <img src=""images/inst_6.png"" style=""width: 80vw; height:auto;"">
          <br><br>
      </div>
      <br><br>
  </div>",f,,,,5AdDuOMjzyXZRCLMJbddGqJi6HV2,,,,,,,,,,,,,,,,,,,,,,,62e95680b0415811dccf7147,16:53:35,27/03/2024
html-keyboard-response,45,84537,0.0-20.0,,"<div style=""font-size:100px;"">+</div>",,delaylearn,learning,pre_fixation,5AdDuOMjzyXZRCLMJbddGqJi6HV2,,,,,,,,,,,,,,,,,,,,,,,62e95680b0415811dccf7147,16:53:35,27/03/2024
html-keyboard-response,46,86451,0.0-21.0,,"<div style=""font-size:100px;"">+</div>",,delaylearn,learning,ITI,5AdDuOMjzyXZRCLMJbddGqJi6HV2,5AdDuOMjzyXZRCLMJbddGqJi6HV2,,,,,,,,,,,,,,,,,,,1909.0,,,62e95680b0415811dccf7147,16:53:35,27/03/2024
html-keyboard-response,47,87425,0.0-22.0-0.0,970.1000000238419,"<div style=""display: flex; flex-direction: column; align-items: center; margin-top: -40px;""><img src=""images/pattern_3.png"" style=""width: 234px; height: 230px; margin-top: -50px;""><div style=""display: flex; justify-content: space-between; margin-top: 33px;""><img src=""images/choice_trial_5.png"" style=""width: 408px; height: 417px; margin-right: 200px;""><img src=""images/choice_trial_6.png"" style=""width: 408px; height: 417px;""></div></div>",j,delaylearn,learning,trial,5AdDuOMjzyXZRCLMJbddGqJi6HV2,5AdDuOMjzyXZRCLMJbddGqJi6HV2,1.0,images/choice_trial_5.png,images/choice_trial_6.png,images/pattern_3.png,f,f,7000.0,5.0,6.0,2.0,0.0,9.0,0.0,0.0,6.0,50.0,,,,,,62e95680b0415811dccf7147,16:53:35,27/03/2024
html-keyboard-response,48,88433,0.0-22.0-1.0,,"<div style=""display: flex; flex-direction: column; align-items: center; margin-top: -40px;""><img src=""images/pattern_3.png"" style=""width: 234px; height: 230px; margin-top: -50px;""><div style=""display: flex; justify-content: space-between; margin-top: 33px;""><img src=""images/choice_trial_6.png"" style=""width: 408px; height: 417px; margin-left:608px;""></div></div>",,delaylearn,learning,display_response,5AdDuOMjzyXZRCLMJbddGqJi6HV2,5AdDuOMjzyXZRCLMJbddGqJi6HV2,,,,,,,,,,,,,,,,,chosen stimuli: images/choice_trial_6.png,,,,,62e95680b0415811dccf7147,16:53:35,27/03/2024
html-keyboard-response,49,95437,0.0-22.0-2.0,,,,delaylearn,learning,feedback_duration_window,5AdDuOMjzyXZRCLMJbddGqJi6HV2,5AdDuOMjzyXZRCLMJbddGqJi6HV2,,,,,,,,,,,,,,,,,,7000.0,,,,62e95680b0415811dccf7147,16:53:35,27/03/2024
html-keyboard-response,50,96951,0.0-22.0-3.0,,<div style='margin:auto;width: auto; font-size: 150%'><span style='font-weight: bold; font-size: 100px; color: red;'>0 points!</span><br><br></div>,,delaylearn,learning,feedback_image_window,5AdDuOMjzyXZRCLMJbddGqJi6HV2,5AdDuOMjzyXZRCLMJbddGqJi6HV2,,,,,,,,,,,,,,,,,,,,,,62e95680b0415811dccf7147,16:53:35,27/03/2024
html-keyboard-response,51,98841,0.0-23.0,,"<div style=""font-size:100px;"">+</div>",,delaylearn,learning,ITI,5AdDuOMjzyXZRCLMJbddGqJi6HV2,5AdDuOMjzyXZRCLMJbddGqJi6HV2,,,,,,,,,,,,,,,,,,,1885.0,,,62e95680b0415811dccf7147,16:53:35,27/03/2024
html-keyboard-response,52,99890,0.0-24.0-0.0,1046.5,"<div style=""display: flex; flex-direction: column; align-items: center; margin-top: -40px;""><img src=""images/pattern_7.png"" style=""width: 234px; height: 230px; margin-top: -50px;""><div style=""display: flex; justify-content: space-between; margin-top: 33px;""><img src=""images/choice_trial_14.png"" style=""width: 408px; height: 417px; margin-right: 200px;""><img src=""images/choice_trial_13.png"" style=""width: 408px; height: 417px;""></div></div>",j,delaylearn,learning,trial,5AdDuOMjzyXZRCLMJbddGqJi6HV2,5AdDuOMjzyXZRCLMJbddGqJi6HV2,1.0,images/choice_trial_14.png,images/choice_trial_13.png,images/pattern_7.png,j,j,750.0,14.0,13.0,6.0,1.0,10.0,1.0,1.0,13.0,60.0,,,,,,62e95680b0415811dccf7147,16:53:35,27/03/2024
html-keyboard-response,53,100900,0.0-24.0-1.0,,"<div style=""display: flex; flex-direction: column; align-items: center; margin-top: -40px;""><img src=""images/pattern_7.png"" style=""width: 234px; height: 230px; margin-top: -50px;""><div style=""display: flex; justify-content: space-between; margin-top: 33px;""><img src=""images/choice_trial_13.png"" style=""width: 408px; height: 417px; margin-left:608px;""></div></div>",,delaylearn,learning,display_response,5AdDuOMjzyXZRCLMJbddGqJi6HV2,5AdDuOMjzyXZRCLMJbddGqJi6HV2,,,,,,,,,,,,,,,,,chosen stimuli: images/choice_trial_13.png,,,,,62e95680b0415811dccf7147,16:53:35,27/03/2024
html-keyboard-response,54,101658,0.0-24.0-2.0,,,,delaylearn,learning,feedback_duration_window,5AdDuOMjzyXZRCLMJbddGqJi6HV2,5AdDuOMjzyXZRCLMJbddGqJi6HV2,,,,,,,,,,,,,,,,,,750.0,,,,62e95680b0415811dccf7147,16:53:35,27/03/2024
html-keyboard-response,55,103161,0.0-24.0-3.0,,<div style='margin:auto;width: auto; font-size: 150%'><span style='font-weight: bold; font-size: 100px; color: green;'>+10 points!</span><br><br></div>,,delaylearn,learning,feedback_image_window,5AdDuOMjzyXZRCLMJbddGqJi6HV2,5AdDuOMjzyXZRCLMJbddGqJi6HV2,,,,,,,,,,,,,,,,,,,,,,62e95680b0415811dccf7147,16:53:35,27/03/2024
html-keyboard-response,56,105200,0.0-25.0,,"<div style=""font-size:100px;"">+</div>",,delaylearn,learning,ITI,5AdDuOMjzyXZRCLMJbddGqJi6HV2,5AdDuOMjzyXZRCLMJbddGqJi6HV2,,,,,,,,,,,,,,,,,,,2026.0,,,62e95680b0415811dccf7147,16:53:35,27/03/2024
html-keyboard-response,57,106185,0.0-26.0-0.0,982.3999999761581,"<div style=""display: flex; flex-direction: column; align-items: center; margin-top: -40px;""><img src=""images/pattern_4.png"" style=""width: 234px; height: 230px; margin-top: -50px;""><div style=""display: flex; justify-content: space-between; margin-top: 33px;""><img src=""images/choice_trial_7.png"" style=""width: 408px; height: 417px; margin-right: 200px;""><img src=""images/choice_trial_8.png"" style=""width: 408px; height: 417px;""></div></div>",f,delaylearn,learning,trial,5AdDuOMjzyXZRCLMJbddGqJi6HV2,5AdDuOMjzyXZRCLMJbddGqJi6HV2,1.0,images/choice_trial_7.png,images/choice_trial_8.png,images/pattern_4.png,f,f,7000.0,7.0,8.0,3.0,0.0,11.0,1.0,1.0,7.0,70.0,,,,,,62e95680b0415811dccf7147,16:53:35,27/03/2024
html-keyboard-response,58,107198,0.0-26.0-1.0,,"<div style=""display: flex; flex-direction: column; align-items: center; margin-top: -40px;""><img src=""images/pattern_4.png"" style=""width: 234px; height: 230px; margin-top: -50px;""><div style=""display: flex; justify-content: space-between; margin-top: 33px;""><img src=""images/choice_trial_7.png"" style=""width: 408px; height: 417px; margin-right: 608px;""></div></div>",,delaylearn,learning,display_response,5AdDuOMjzyXZRCLMJbddGqJi6HV2,5AdDuOMjzyXZRCLMJbddGqJi6HV2,,,,,,,,,,,,,,,,,chosen stimuli: images/choice_trial_7.png,,,,,62e95680b0415811dccf7147,16:53:35,27/03/2024
html-keyboard-response,59,114211,0.0-26.0-2.0,,,,delaylearn,learning,feedback_duration_window,5AdDuOMjzyXZRCLMJbddGqJi6HV2,5AdDuOMjzyXZRCLMJbddGqJi6HV2,,,,,,,,,,,,,,,,,,7000.0,,,,62e95680b0415811dccf7147,16:53:35,27/03/2024
html-keyboard-response,60,115718,0.0-26.0-3.0,,<div style='margin:auto;width: auto; font-size: 150%'><span style='font-weight: bold; font-size: 100px; color: green;'>+10 points!</span><br><br></div>,,delaylearn,learning,feedback_image_window,5AdDuOMjzyXZRCLMJbddGqJi6HV2,5AdDuOMjzyXZRCLMJbddGqJi6HV2,,,,,,,,,,,,,,,,,,,,,,62e95680b0415811dccf7147,16:53:35,27/03/2024
html-keyboard-response,61,117269,0.0-27.0,,"<div style=""font-size:100px;"">+</div>",,delaylearn,learning,ITI,5AdDuOMjzyXZRCLMJbddGqJi6HV2,5AdDuOMjzyXZRCLMJbddGqJi6HV2,,,,,,,,,,,,,,,,,,,1548.0,,,62e95680b0415811dccf7147,16:53:35,27/03/2024
html-keyboard-response,62,118063,0.0-28.0-0.0,791.5,"<div style=""display: flex; flex-direction: column; align-items: center; margin-top: -40px;""><img src=""images/pattern_5.png"" style=""width: 234px; height: 230px; margin-top: -50px;""><div style=""display: flex; justify-content: space-between; margin-top: 33px;""><img src=""images/choice_trial_10.png"" style=""width: 408px; height: 417px; margin-right: 200px;""><img src=""images/choice_trial_9.png"" style=""width: 408px; height: 417px;""></div></div>",j,delaylearn,learning,trial,5AdDuOMjzyXZRCLMJbddGqJi6HV2,5AdDuOMjzyXZRCLMJbddGqJi6HV2,1.0,images/choice_trial_10.png,images/choice_trial_9.png,images/pattern_5.png,j,j,750.0,10.0,9.0,4.0,1.0,12.0,1.0,1.0,9.0,80.0,,,,,,62e95680b0415811dccf7147,16:53:35,27/03/2024
html-keyboard-response,63,119068,0.0-28.0-1.0,,"<div style=""display: flex; flex-direction: column; align-items: center; margin-top: -40px;""><img src=""images/pattern_5.png"" style=""width: 234px; height: 230px; margin-top: -50px;""><div style=""display: flex; justify-content: space-between; margin-top: 33px;""><img src=""images/choice_trial_9.png"" style=""width: 408px; height: 417px; margin-left:608px;""></div></div>",,delaylearn,learning,display_response,5AdDuOMjzyXZRCLMJbddGqJi6HV2,5AdDuOMjzyXZRCLMJbddGqJi6HV2,,,,,,,,,,,,,,,,,chosen stimuli: images/choice_trial_9.png,,,,,62e95680b0415811dccf7147,16:53:35,27/03/2024
html-keyboard-response,64,119821,0.0-28.0-2.0,,,,delaylearn,learning,feedback_duration_window,5AdDuOMjzyXZRCLMJbddGqJi6HV2,5AdDuOMjzyXZRCLMJbddGqJi6HV2,,,,,,,,,,,,,,,,,,750.0,,,,62e95680b0415811dccf7147,16:53:35,27/03/2024
html-keyboard-response,65,121331,0.0-28.0-3.0,,<div style='margin:auto;width: auto; font-size: 150%'><span style='font-weight: bold; font-size: 100px; color: green;'>+10 points!</span><br><br></div>,,delaylearn,learning,feedback_image_window,5AdDuOMjzyXZRCLMJbddGqJi6HV2,5AdDuOMjzyXZRCLMJbddGqJi6HV2,,,,,,,,,,,,,,,,,,,,,,62e95680b0415811dccf7147,16:53:35,27/03/2024
html-keyboard-response,66,123071,0.0-29.0,,"<div style=""font-size:100px;"">+</div>",,delaylearn,learning,ITI,5AdDuOMjzyXZRCLMJbddGqJi6HV2,5AdDuOMjzyXZRCLMJbddGqJi6HV2,,,,,,,,,,,,,,,,,,,1725.0,,,62e95680b0415811dccf7147,16:53:35,27/03/2024
html-keyboard-response,67,123979,0.0-30.0-0.0,904.1000000238419,"<div style=""display: flex; flex-direction: column; align-items: center; margin-top: -40px;""><img src=""images/pattern_6.png"" style=""width: 234px; height: 230px; margin-top: -50px;""><div style=""display: flex; justify-content: space-between; margin-top: 33px;""><img src=""images/choice_trial_11.png"" style=""width: 408px; height: 417px; margin-right: 200px;""><img src=""images/choice_trial_12.png"" style=""width: 408px; height: 417px;""></div></div>",j,delaylearn,learning,trial,5AdDuOMjzyXZRCLMJbddGqJi6HV2,5AdDuOMjzyXZRCLMJbddGqJi6HV2,1.0,images/choice_trial_11.png,images/choice_trial_12.png,images/pattern_6.png,j,f,750.0,11.0,12.0,5.0,0.0,13.0,0.0,1.0,12.0,90.0,,,,,,62e95680b0415811dccf7147,16:53:35,27/03/2024
html-keyboard-response,68,124996,0.0-30.0-1.0,,"<div style=""display: flex; flex-direction: column; align-items: center; margin-top: -40px;""><img src=""images/pattern_6.png"" style=""width: 234px; height: 230px; margin-top: -50px;""><div style=""display: flex; justify-content: space-between; margin-top: 33px;""><img src=""images/choice_trial_12.png"" style=""width: 408px; height: 417px; margin-left:608px;""></div></div>",,delaylearn,learning,display_response,5AdDuOMjzyXZRCLMJbddGqJi6HV2,5AdDuOMjzyXZRCLMJbddGqJi6HV2,,,,,,,,,,,,,,,,,chosen stimuli: images/choice_trial_12.png,,,,,62e95680b0415811dccf7147,16:53:35,27/03/2024
html-keyboard-response,69,125762,0.0-30.0-2.0,,,,delaylearn,learning,feedback_duration_window,5AdDuOMjzyXZRCLMJbddGqJi6HV2,5AdDuOMjzyXZRCLMJbddGqJi6HV2,,,,,,,,,,,,,,,,,,750.0,,,,62e95680b0415811dccf7147,16:53:35,27/03/2024
html-keyboard-response,70,127272,0.0-30.0-3.0,,<div style='margin:auto;width: auto; font-size: 150%'><span style='font-weight: bold; font-size: 100px; color: green;'>+10 points!</span><br><br></div>,,delaylearn,learning,feedback_image_window,5AdDuOMjzyXZRCLMJbddGqJi6HV2,5AdDuOMjzyXZRCLMJbddGqJi6HV2,,,,,,,,,,,,,,,,,,,,,,62e95680b0415811dccf7147,16:53:35,27/03/2024
html-keyboard-response,71,127776,0.0-31.0-0.0,,,,,,mood_trial_fixation,5AdDuOMjzyXZRCLMJbddGqJi6HV2,,,,,,,,,,,,,,,,,,,,,,,62e95680b0415811dccf7147,16:53:35,27/03/2024
lmdlab-html-vas-response,72,131454,0.0-31.0-1.0,2666.0,How happy are you right now?,0.6111111111111112,delaylearn,learning,mood_trial,5AdDuOMjzyXZRCLMJbddGqJi6HV2,5AdDuOMjzyXZRCLMJbddGqJi6HV2,,,,,,,,,,,,,,,,,,,,"['Very unhappy', 'Very happy']",,62e95680b0415811dccf7147,16:53:35,27/03/2024
html-keyboard-response,73,133398,0.0-32.0,,"<div style=""font-size:100px;"">+</div>",,delaylearn,learning,ITI,5AdDuOMjzyXZRCLMJbddGqJi6HV2,5AdDuOMjzyXZRCLMJbddGqJi6HV2,,,,,,,,,,,,,,,,,,,1939.0,,,62e95680b0415811dccf7147,16:53:35,27/03/2024
html-keyboard-response,74,134383,0.0-33.0-0.0,982.1999999284744,"<div style=""display: flex; flex-direction: column; align-items: center; margin-top: -40px;""><img src=""images/pattern_1.png"" style=""width: 234px; height: 230px; margin-top: -50px;""><div style=""display: flex; justify-content: space-between; margin-top: 33px;""><img src=""images/choice_trial_2.png"" style=""width: 408px; height: 417px; margin-right: 200px;""><img src=""images/choice_trial_1.png"" style=""width: 408px; height: 417px;""></div></div>",f,delaylearn,learning,trial,5AdDuOMjzyXZRCLMJbddGqJi6HV2,5AdDuOMjzyXZRCLMJbddGqJi6HV2,1.0,images/choice_trial_2.png,images/choice_trial_1.png,images/pattern_1.png,j,j,7000.0,2.0,1.0,1.0,1.0,14.0,0.0,0.0,2.0,90.0,,,,,,62e95680b0415811dccf7147,16:53:35,27/03/2024
html-keyboard-response,75,135395,0.0-33.0-1.0,,"<div style=""display: flex; flex-direction: column; align-items: center; margin-top: -40px;""><img src=""images/pattern_1.png"" style=""width: 234px; height: 230px; margin-top: -50px;""><div style=""display: flex; justify-content: space-between; margin-top: 33px;""><img src=""images/choice_trial_2.png"" style=""width: 408px; height: 417px; margin-right: 608px;""></div></div>",,delaylearn,learning,display_response,5AdDuOMjzyXZRCLMJbddGqJi6HV2,5AdDuOMjzyXZRCLMJbddGqJi6HV2,,,,,,,,,,,,,,,,,chosen stimuli: images/choice_trial_2.png,,,,,62e95680b0415811dccf7147,16:53:35,27/03/2024
html-keyboard-response,76,142411,0.0-33.0-2.0,,,,delaylearn,learning,feedback_duration_window,5AdDuOMjzyXZRCLMJbddGqJi6HV2,5AdDuOMjzyXZRCLMJbddGqJi6HV2,,,,,,,,,,,,,,,,,,7000.0,,,,62e95680b0415811dccf7147,16:53:35,27/03/2024
html-keyboard-response,77,143926,0.0-33.0-3.0,,<div style='margin:auto;width: auto; font-size: 150%'><span style='font-weight: bold; font-size: 100px; color: red;'>0 points!</span><br><br></div>,,delaylearn,learning,feedback_image_window,5AdDuOMjzyXZRCLMJbddGqJi6HV2,5AdDuOMjzyXZRCLMJbddGqJi6HV2,,,,,,,,,,,,,,,,,,,,,,62e95680b0415811dccf7147,16:53:35,27/03/2024
html-keyboard-response,78,145848,0.0-34.0,,"<div style=""font-size:100px;"">+</div>",,delaylearn,learning,ITI,5AdDuOMjzyXZRCLMJbddGqJi6HV2,5AdDuOMjzyXZRCLMJbddGqJi6HV2,,,,,,,,,,,,,,,,,,,1908.0,,,62e95680b0415811dccf7147,16:53:35,27/03/2024
html-keyboard-response,79,146763,0.0-35.0-0.0,911.8000000715256,"<div style=""display: flex; flex-direction: column; align-items: center; margin-top: -40px;""><img src=""images/pattern_3.png"" style=""width: 234px; height: 230px; margin-top: -50px;""><div style=""display: flex; justify-content: space-between; margin-top: 33px;""><img src=""images/choice_trial_6.png"" style=""width: 408px; height: 417px; margin-right: 200px;""><img src=""images/choice_trial_5.png"" style=""width: 408px; height: 417px;""></div></div>",f,delaylearn,learning,trial,5AdDuOMjzyXZRCLMJbddGqJi6HV2,5AdDuOMjzyXZRCLMJbddGqJi6HV2,1.0,images/choice_trial_6.png,images/choice_trial_5.png,images/pattern_3.png,f,j,7000.0,6.0,5.0,2.0,1.0,15.0,0.0,1.0,6.0,100.0,,,,,,62e95680b0415811dccf7147,16:53:35,27/03/2024
html-keyboard-response,80,147766,0.0-35.0-1.0,,"<div style=""display: flex; flex-direction: column; align-items: center; margin-top: -40px;""><img src=""images/pattern_3.png"" style=""width: 234px; height: 230px; margin-top: -50px;""><div style=""display: flex; justify-content: space-between; margin-top: 33px;""><img src=""images/choice_trial_6.png"" style=""width: 408px; height: 417px; margin-right: 608px;""></div></div>",,delaylearn,learning,display_response,5AdDuOMjzyXZRCLMJbddGqJi6HV2,5AdDuOMjzyXZRCLMJbddGqJi6HV2,,,,,,,,,,,,,,,,,chosen stimuli: images/choice_trial_6.png,,,,,62e95680b0415811dccf7147,16:53:35,27/03/2024
html-keyboard-response,81,154777,0.0-35.0-2.0,,,,delaylearn,learning,feedback_duration_window,5AdDuOMjzyXZRCLMJbddGqJi6HV2,5AdDuOMjzyXZRCLMJbddGqJi6HV2,,,,,,,,,,,,,,,,,,7000.0,,,,62e95680b0415811dccf7147,16:53:35,27/03/2024
html-keyboard-response,82,156294,0.0-35.0-3.0,,<div style='margin:auto;width: auto; font-size: 150%'><span style='font-weight: bold; font-size: 100px; color: green;'>+10 points!</span><br><br></div>,,delaylearn,learning,feedback_image_window,5AdDuOMjzyXZRCLMJbddGqJi6HV2,5AdDuOMjzyXZRCLMJbddGqJi6HV2,,,,,,,,,,,,,,,,,,,,,,62e95680b0415811dccf7147,16:53:35,27/03/2024
html-keyboard-response,83,157841,0.0-36.0,,"<div style=""font-size:100px;"">+</div>",,delaylearn,learning,ITI,5AdDuOMjzyXZRCLMJbddGqJi6HV2,5AdDuOMjzyXZRCLMJbddGqJi6HV2,,,,,,,,,,,,,,,,,,,1532.0,,,62e95680b0415811dccf7147,16:53:35,27/03/2024
html-keyboard-response,84,158682,0.0-37.0-0.0,837.0,"<div style=""display: flex; flex-direction: column; align-items: center; margin-top: -40px;""><img src=""images/pattern_5.png"" style=""width: 234px; height: 230px; margin-top: -50px;""><div style=""display: flex; justify-content: space-between; margin-top: 33px;""><img src=""images/choice_trial_9.png"" style=""width: 408px; height: 417px; margin-right: 200px;""><img src=""images/choice_trial_10.png"" style=""width: 408px; height: 417px;""></div></div>",f,delaylearn,learning,trial,5AdDuOMjzyXZRCLMJbddGqJi6HV2,5AdDuOMjzyXZRCLMJbddGqJi6HV2,1.0,images/choice_trial_9.png,images/choice_trial_10.png,images/pattern_5.png,f,f,750.0,9.0,10.0,4.0,0.0,16.0,1.0,1.0,9.0,110.0,,,,,,62e95680b0415811dccf7147,16:53:35,27/03/2024
html-keyboard-response,85,159691,0.0-37.0-1.0,,"<div style=""display: flex; flex-direction: column; align-items: center; margin-top: -40px;""><img src=""images/pattern_5.png"" style=""width: 234px; height: 230px; margin-top: -50px;""><div style=""display: flex; justify-content: space-between; margin-top: 33px;""><img src=""images/choice_trial_9.png"" style=""width: 408px; height: 417px; margin-right: 608px;""></div></div>",,delaylearn,learning,display_response,5AdDuOMjzyXZRCLMJbddGqJi6HV2,5AdDuOMjzyXZRCLMJbddGqJi6HV2,,,,,,,,,,,,,,,,,chosen stimuli: images/choice_trial_9.png,,,,,62e95680b0415811dccf7147,16:53:35,27/03/2024
html-keyboard-response,86,160449,0.0-37.0-2.0,,,,delaylearn,learning,feedback_duration_window,5AdDuOMjzyXZRCLMJbddGqJi6HV2,5AdDuOMjzyXZRCLMJbddGqJi6HV2,,,,,,,,,,,,,,,,,,750.0,,,,62e95680b0415811dccf7147,16:53:35,27/03/2024
html-keyboard-response,87,161951,0.0-37.0-3.0,,<div style='margin:auto;width: auto; font-size: 150%'><span style='font-weight: bold; font-size: 100px; color: green;'>+10 points!</span><br><br></div>,,delaylearn,learning,feedback_image_window,5AdDuOMjzyXZRCLMJbddGqJi6HV2,5AdDuOMjzyXZRCLMJbddGqJi6HV2,,,,,,,,,,,,,,,,,,,,,,62e95680b0415811dccf7147,16:53:35,27/03/2024
html-keyboard-response,88,162464,0.0-38.0-0.0,,,,,,mood_trial_fixation,5AdDuOMjzyXZRCLMJbddGqJi6HV2,,,,,,,,,,,,,,,,,,,,,,,62e95680b0415811dccf7147,16:53:35,27/03/2024
lmdlab-html-vas-response,89,168384,0.0-38.0-1.0,4905.0,How happy are you right now?,0.47453703703703703,delaylearn,learning,mood_trial,5AdDuOMjzyXZRCLMJbddGqJi6HV2,5AdDuOMjzyXZRCLMJbddGqJi6HV2,,,,,,,,,,,,,,,,,,,,"['Very unhappy', 'Very happy']",,62e95680b0415811dccf7147,16:53:35,27/03/2024
html-keyboard-response,90,170576,0.0-39.0,,"<div style=""font-size:100px;"">+</div>",,delaylearn,learning,ITI,5AdDuOMjzyXZRCLMJbddGqJi6HV2,5AdDuOMjzyXZRCLMJbddGqJi6HV2,,,,,,,,,,,,,,,,,,,2185.0,,,62e95680b0415811dccf7147,16:53:35,27/03/2024
html-keyboard-response,91,171496,0.0-40.0-0.0,916.3999999761581,"<div style=""display: flex; flex-direction: column; align-items: center; margin-top: -40px;""><img src=""images/pattern_6.png"" style=""width: 234px; height: 230px; margin-top: -50px;""><div style=""display: flex; justify-content: space-between; margin-top: 33px;""><img src=""images/choice_trial_11.png"" style=""width: 408px; height: 417px; margin-right: 200px;""><img src=""images/choice_trial_12.png"" style=""width: 408px; height: 417px;""></div></div>",j,delaylearn,learning,trial,5AdDuOMjzyXZRCLMJbddGqJi6HV2,5AdDuOMjzyXZRCLMJbddGqJi6HV2,1.0,images/choice_trial_11.png,images/choice_trial_12.png,images/pattern_6.png,f,f,750.0,11.0,12.0,5.0,0.0,17.0,0.0,0.0,12.0,110.0,,,,,,62e95680b0415811dccf7147,16:53:35,27/03/2024
html-keyboard-response,92,172507,0.0-40.0-1.0,,"<div style=""display: flex; flex-direction: column; align-items: center; margin-top: -40px;""><img src=""images/pattern_6.png"" style=""width: 234px; height: 230px; margin-top: -50px;""><div style=""display: flex; justify-content: space-between; margin-top: 33px;""><img src=""images/choice_trial_12.png"" style=""width: 408px; height: 417px; margin-left:608px;""></div></div>",,delaylearn,learning,display_response,5AdDuOMjzyXZRCLMJbddGqJi6HV2,5AdDuOMjzyXZRCLMJbddGqJi6HV2,,,,,,,,,,,,,,,,,chosen stimuli: images/choice_trial_12.png,,,,,62e95680b0415811dccf7147,16:53:35,27/03/2024
html-keyboard-response,93,173265,0.0-40.0-2.0,,,,delaylearn,learning,feedback_duration_window,5AdDuOMjzyXZRCLMJbddGqJi6HV2,5AdDuOMjzyXZRCLMJbddGqJi6HV2,,,,,,,,,,,,,,,,,,750.0,,,,62e95680b0415811dccf7147,16:53:35,27/03/2024
html-keyboard-response,94,174775,0.0-40.0-3.0,,<div style='margin:auto;width: auto; font-size: 150%'><span style='font-weight: bold; font-size: 100px; color: red;'>0 points!</span><br><br></div>,,delaylearn,learning,feedback_image_window,5AdDuOMjzyXZRCLMJbddGqJi6HV2,5AdDuOMjzyXZRCLMJbddGqJi6HV2,,,,,,,,,,,,,,,,,,,,,,62e95680b0415811dccf7147,16:53:35,27/03/2024
html-keyboard-response,95,177263,0.0-41.0,,"<div style=""font-size:100px;"">+</div>",,delaylearn,learning,ITI,5AdDuOMjzyXZRCLMJbddGqJi6HV2,5AdDuOMjzyXZRCLMJbddGqJi6HV2,,,,,,,,,,,,,,,,,,,2476.0,,,62e95680b0415811dccf7147,16:53:35,27/03/2024
html-keyboard-response,96,178442,0.0-42.0-0.0,1176.5,"<div style=""display: flex; flex-direction: column; align-items: center; margin-top: -40px;""><img src=""images/pattern_4.png"" style=""width: 234px; height: 230px; margin-top: -50px;""><div style=""display: flex; justify-content: space-between; margin-top: 33px;""><img src=""images/choice_trial_8.png"" style=""width: 408px; height: 417px; margin-right: 200px;""><img src=""images/choice_trial_7.png"" style=""width: 408px; height: 417px;""></div></div>",j,delaylearn,learning,trial,5AdDuOMjzyXZRCLMJbddGqJi6HV2,5AdDuOMjzyXZRCLMJbddGqJi6HV2,1.0,images/choice_trial_8.png,images/choice_trial_7.png,images/pattern_4.png,j,j,7000.0,8.0,7.0,3.0,1.0,18.0,1.0,1.0,7.0,120.0,,,,,,62e95680b0415811dccf7147,16:53:35,27/03/2024
html-keyboard-response,97,179455,0.0-42.0-1.0,,"<div style=""display: flex; flex-direction: column; align-items: center; margin-top: -40px;""><img src=""images/pattern_4.png"" style=""width: 234px; height: 230px; margin-top: -50px;""><div style=""display: flex; justify-content: space-between; margin-top: 33px;""><img src=""images/choice_trial_7.png"" style=""width: 408px; height: 417px; margin-left:608px;""></div></div>",,delaylearn,learning,display_response,5AdDuOMjzyXZRCLMJbddGqJi6HV2,5AdDuOMjzyXZRCLMJbddGqJi6HV2,,,,,,,,,,,,,,,,,chosen stimuli: images/choice_trial_7.png,,,,,62e95680b0415811dccf7147,16:53:35,27/03/2024
html-keyboard-response,98,186470,0.0-42.0-2.0,,,,delaylearn,learning,feedback_duration_window,5AdDuOMjzyXZRCLMJbddGqJi6HV2,5AdDuOMjzyXZRCLMJbddGqJi6HV2,,,,,,,,,,,,,,,,,,7000.0,,,,62e95680b0415811dccf7147,16:53:35,27/03/2024
html-keyboard-response,99,187973,0.0-42.0-3.0,,<div style='margin:auto;width: auto; font-size: 150%'><span style='font-weight: bold; font-size: 100px; color: green;'>+10 points!</span><br><br></div>,,delaylearn,learning,feedback_image_window,5AdDuOMjzyXZRCLMJbddGqJi6HV2,5AdDuOMjzyXZRCLMJbddGqJi6HV2,,,,,,,,,,,,,,,,,,,,,,62e95680b0415811dccf7147,16:53:35,27/03/2024
html-keyboard-response,100,190186,0.0-43.0,,"<div style=""font-size:100px;"">+</div>",,delaylearn,learning,ITI,5AdDuOMjzyXZRCLMJbddGqJi6HV2,5AdDuOMjzyXZRCLMJbddGqJi6HV2,,,,,,,,,,,,,,,,,,,2206.0,,,62e95680b0415811dccf7147,16:53:35,27/03/2024
html-keyboard-response,101,190905,0.0-44.0-0.0,715.8999999761581,"<div style=""display: flex; flex-direction: column; align-items: center; margin-top: -40px;""><img src=""images/pattern_7.png"" style=""width: 234px; height: 230px; margin-top: -50px;""><div style=""display: flex; justify-content: space-between; margin-top: 33px;""><img src=""images/choice_trial_13.png"" style=""width: 408px; height: 417px; margin-right: 200px;""><img src=""images/choice_trial_14.png"" style=""width: 408px; height: 417px;""></div></div>",f,delaylearn,learning,trial,5AdDuOMjzyXZRCLMJbddGqJi6HV2,5AdDuOMjzyXZRCLMJbddGqJi6HV2,1.0,images/choice_trial_13.png,images/choice_trial_14.png,images/pattern_7.png,j,f,750.0,13.0,14.0,6.0,0.0,19.0,1.0,0.0,13.0,120.0,,,,,,62e95680b0415811dccf7147,16:53:35,27/03/2024
html-keyboard-response,102,191921,0.0-44.0-1.0,,"<div style=""display: flex; flex-direction: column; align-items: center; margin-top: -40px;""><img src=""images/pattern_7.png"" style=""width: 234px; height: 230px; margin-top: -50px;""><div style=""display: flex; justify-content: space-between; margin-top: 33px;""><img src=""images/choice_trial_13.png"" style=""width: 408px; height: 417px; margin-right: 608px;""></div></div>",,delaylearn,learning,display_response,5AdDuOMjzyXZRCLMJbddGqJi6HV2,5AdDuOMjzyXZRCLMJbddGqJi6HV2,,,,,,,,,,,,,,,,,chosen stimuli: images/choice_trial_13.png,,,,,62e95680b0415811dccf7147,16:53:35,27/03/2024
html-keyboard-response,103,192685,0.0-44.0-2.0,,,,delaylearn,learning,feedback_duration_window,5AdDuOMjzyXZRCLMJbddGqJi6HV2,5AdDuOMjzyXZRCLMJbddGqJi6HV2,,,,,,,,,,,,,,,,,,750.0,,,,62e95680b0415811dccf7147,16:53:35,27/03/2024
html-keyboard-response,104,194190,0.0-44.0-3.0,,<div style='margin:auto;width: auto; font-size: 150%'><span style='font-weight: bold; font-size: 100px; color: red;'>0 points!</span><br><br></div>,,delaylearn,learning,feedback_image_window,5AdDuOMjzyXZRCLMJbddGqJi6HV2,5AdDuOMjzyXZRCLMJbddGqJi6HV2,,,,,,,,,,,,,,,,,,,,,,62e95680b0415811dccf7147,16:53:35,27/03/2024
html-keyboard-response,105,196409,0.0-45.0,,"<div style=""font-size:100px;"">+</div>",,delaylearn,learning,ITI,5AdDuOMjzyXZRCLMJbddGqJi6HV2,5AdDuOMjzyXZRCLMJbddGqJi6HV2,,,,,,,,,,,,,,,,,,,2202.0,,,62e95680b0415811dccf7147,16:53:35,27/03/2024
html-keyboard-response,106,197285,0.0-46.0-0.0,872.7000000476837,"<div style=""display: flex; flex-direction: column; align-items: center; margin-top: -40px;""><img src=""images/pattern_1.png"" style=""width: 234px; height: 230px; margin-top: -50px;""><div style=""display: flex; justify-content: space-between; margin-top: 33px;""><img src=""images/choice_trial_1.png"" style=""width: 408px; height: 417px; margin-right: 200px;""><img src=""images/choice_trial_2.png"" style=""width: 408px; height: 417px;""></div></div>",j,delaylearn,learning,trial,5AdDuOMjzyXZRCLMJbddGqJi6HV2,5AdDuOMjzyXZRCLMJbddGqJi6HV2,1.0,images/choice_trial_1.png,images/choice_trial_2.png,images/pattern_1.png,f,f,7000.0,1.0,2.0,1.0,0.0,20.0,0.0,0.0,2.0,120.0,,,,,,62e95680b0415811dccf7147,16:53:35,27/03/2024
html-keyboard-response,107,198289,0.0-46.0-1.0,,"<div style=""display: flex; flex-direction: column; align-items: center; margin-top: -40px;""><img src=""images/pattern_1.png"" style=""width: 234px; height: 230px; margin-top: -50px;""><div style=""display: flex; justify-content: space-between; margin-top: 33px;""><img src=""images/choice_trial_2.png"" style=""width: 408px; height: 417px; margin-left:608px;""></div></div>",,delaylearn,learning,display_response,5AdDuOMjzyXZRCLMJbddGqJi6HV2,5AdDuOMjzyXZRCLMJbddGqJi6HV2,,,,,,,,,,,,,,,,,chosen stimuli: images/choice_trial_2.png,,,,,62e95680b0415811dccf7147,16:53:35,27/03/2024
html-keyboard-response,108,205303,0.0-46.0-2.0,,,,delaylearn,learning,feedback_duration_window,5AdDuOMjzyXZRCLMJbddGqJi6HV2,5AdDuOMjzyXZRCLMJbddGqJi6HV2,,,,,,,,,,,,,,,,,,7000.0,,,,62e95680b0415811dccf7147,16:53:35,27/03/2024
html-keyboard-response,109,206808,0.0-46.0-3.0,,<div style='margin:auto;width: auto; font-size: 150%'><span style='font-weight: bold; font-size: 100px; color: red;'>0 points!</span><br><br></div>,,delaylearn,learning,feedback_image_window,5AdDuOMjzyXZRCLMJbddGqJi6HV2,5AdDuOMjzyXZRCLMJbddGqJi6HV2,,,,,,,,,,,,,,,,,,,,,,62e95680b0415811dccf7147,16:53:35,27/03/2024
html-keyboard-response,110,208922,0.0-47.0,,"<div style=""font-size:100px;"">+</div>",,delaylearn,learning,ITI,5AdDuOMjzyXZRCLMJbddGqJi6HV2,5AdDuOMjzyXZRCLMJbddGqJi6HV2,,,,,,,,,,,,,,,,,,,2105.0,,,62e95680b0415811dccf7147,16:53:35,27/03/2024
html-keyboard-response,111,209722,0.0-48.0-0.0,797.5999999046326,"<div style=""display: flex; flex-direction: column; align-items: center; margin-top: -40px;""><img src=""images/pattern_6.png"" style=""width: 234px; height: 230px; margin-top: -50px;""><div style=""display: flex; justify-content: space-between; margin-top: 33px;""><img src=""images/choice_trial_12.png"" style=""width: 408px; height: 417px; margin-right: 200px;""><img src=""images/choice_trial_11.png"" style=""width: 408px; height: 417px;""></div></div>",f,delaylearn,learning,trial,5AdDuOMjzyXZRCLMJbddGqJi6HV2,5AdDuOMjzyXZRCLMJbddGqJi6HV2,1.0,images/choice_trial_12.png,images/choice_trial_11.png,images/pattern_6.png,j,j,750.0,12.0,11.0,5.0,1.0,21.0,0.0,0.0,12.0,120.0,,,,,,62e95680b0415811dccf7147,16:53:35,27/03/2024
html-keyboard-response,112,210735,0.0-48.0-1.0,,"<div style=""display: flex; flex-direction: column; align-items: center; margin-top: -40px;""><img src=""images/pattern_6.png"" style=""width: 234px; height: 230px; margin-top: -50px;""><div style=""display: flex; justify-content: space-between; margin-top: 33px;""><img src=""images/choice_trial_12.png"" style=""width: 408px; height: 417px; margin-right: 608px;""></div></div>",,delaylearn,learning,display_response,5AdDuOMjzyXZRCLMJbddGqJi6HV2,5AdDuOMjzyXZRCLMJbddGqJi6HV2,,,,,,,,,,,,,,,,,chosen stimuli: images/choice_trial_12.png,,,,,62e95680b0415811dccf7147,16:53:35,27/03/2024
html-keyboard-response,113,211489,0.0-48.0-2.0,,,,delaylearn,learning,feedback_duration_window,5AdDuOMjzyXZRCLMJbddGqJi6HV2,5AdDuOMjzyXZRCLMJbddGqJi6HV2,,,,,,,,,,,,,,,,,,750.0,,,,62e95680b0415811dccf7147,16:53:35,27/03/2024
html-keyboard-response,114,213002,0.0-48.0-3.0,,<div style='margin:auto;width: auto; font-size: 150%'><span style='font-weight: bold; font-size: 100px; color: red;'>0 points!</span><br><br></div>,,delaylearn,learning,feedback_image_window,5AdDuOMjzyXZRCLMJbddGqJi6HV2,5AdDuOMjzyXZRCLMJbddGqJi6HV2,,,,,,,,,,,,,,,,,,,,,,62e95680b0415811dccf7147,16:53:35,27/03/2024
html-keyboard-response,115,215427,0.0-49.0,,"<div style=""font-size:100px;"">+</div>",,delaylearn,learning,ITI,5AdDuOMjzyXZRCLMJbddGqJi6HV2,5AdDuOMjzyXZRCLMJbddGqJi6HV2,,,,,,,,,,,,,,,,,,,2412.0,,,62e95680b0415811dccf7147,16:53:35,27/03/2024
html-keyboard-response,116,216318,0.0-50.0-0.0,887.2999999523163,"<div style=""display: flex; flex-direction: column; align-items: center; margin-top: -40px;""><img src=""images/pattern_4.png"" style=""width: 234px; height: 230px; margin-top: -50px;""><div style=""display: flex; justify-content: space-between; margin-top: 33px;""><img src=""images/choice_trial_7.png"" style=""width: 408px; height: 417px; margin-right: 200px;""><img src=""images/choice_trial_8.png"" style=""width: 408px; height: 417px;""></div></div>",f,delaylearn,learning,trial,5AdDuOMjzyXZRCLMJbddGqJi6HV2,5AdDuOMjzyXZRCLMJbddGqJi6HV2,1.0,images/choice_trial_7.png,images/choice_trial_8.png,images/pattern_4.png,f,f,7000.0,7.0,8.0,3.0,0.0,22.0,1.0,1.0,7.0,130.0,,,,,,62e95680b0415811dccf7147,16:53:35,27/03/2024
html-keyboard-response,117,217326,0.0-50.0-1.0,,"<div style=""display: flex; flex-direction: column; align-items: center; margin-top: -40px;""><img src=""images/pattern_4.png"" style=""width: 234px; height: 230px; margin-top: -50px;""><div style=""display: flex; justify-content: space-between; margin-top: 33px;""><img src=""images/choice_trial_7.png"" style=""width: 408px; height: 417px; margin-right: 608px;""></div></div>",,delaylearn,learning,display_response,5AdDuOMjzyXZRCLMJbddGqJi6HV2,5AdDuOMjzyXZRCLMJbddGqJi6HV2,,,,,,,,,,,,,,,,,chosen stimuli: images/choice_trial_7.png,,,,,62e95680b0415811dccf7147,16:53:35,27/03/2024
html-keyboard-response,118,224328,0.0-50.0-2.0,,,,delaylearn,learning,feedback_duration_window,5AdDuOMjzyXZRCLMJbddGqJi6HV2,5AdDuOMjzyXZRCLMJbddGqJi6HV2,,,,,,,,,,,,,,,,,,7000.0,,,,62e95680b0415811dccf7147,16:53:35,27/03/2024
html-keyboard-response,119,225839,0.0-50.0-3.0,,<div style='margin:auto;width: auto; font-size: 150%'><span style='font-weight: bold; font-size: 100px; color: green;'>+10 points!</span><br><br></div>,,delaylearn,learning,feedback_image_window,5AdDuOMjzyXZRCLMJbddGqJi6HV2,5AdDuOMjzyXZRCLMJbddGqJi6HV2,,,,,,,,,,,,,,,,,,,,,,62e95680b0415811dccf7147,16:53:35,27/03/2024
html-keyboard-response,120,226342,0.0-51.0-0.0,,,,,,mood_trial_fixation,5AdDuOMjzyXZRCLMJbddGqJi6HV2,,,,,,,,,,,,,,,,,,,,,,,62e95680b0415811dccf7147,16:53:35,27/03/2024
lmdlab-html-vas-response,121,230458,0.0-51.0-1.0,3105.0,How happy are you right now?,0.09953703703703703,delaylearn,learning,mood_trial,5AdDuOMjzyXZRCLMJbddGqJi6HV2,5AdDuOMjzyXZRCLMJbddGqJi6HV2,,,,,,,,,,,,,,,,,,,,"['Very unhappy', 'Very happy']",,62e95680b0415811dccf7147,16:53:35,27/03/2024
html-keyboard-response,122,232436,0.0-52.0,,"<div style=""font-size:100px;"">+</div>",,delaylearn,learning,ITI,5AdDuOMjzyXZRCLMJbddGqJi6HV2,5AdDuOMjzyXZRCLMJbddGqJi6HV2,,,,,,,,,,,,,,,,,,,1969.0,,,62e95680b0415811dccf7147,16:53:35,27/03/2024
html-keyboard-response,123,233437,0.0-53.0-0.0,999.3999999761581,"<div style=""display: flex; flex-direction: column; align-items: center; margin-top: -40px;""><img src=""images/pattern_7.png"" style=""width: 234px; height: 230px; margin-top: -50px;""><div style=""display: flex; justify-content: space-between; margin-top: 33px;""><img src=""images/choice_trial_14.png"" style=""width: 408px; height: 417px; margin-right: 200px;""><img src=""images/choice_trial_13.png"" style=""width: 408px; height: 417px;""></div></div>",j,delaylearn,learning,trial,5AdDuOMjzyXZRCLMJbddGqJi6HV2,5AdDuOMjzyXZRCLMJbddGqJi6HV2,1.0,images/choice_trial_14.png,images/choice_trial_13.png,images/pattern_7.png,j,j,750.0,14.0,13.0,6.0,1.0,23.0,1.0,1.0,13.0,140.0,,,,,,62e95680b0415811dccf7147,16:53:35,27/03/2024
html-keyboard-response,124,234446,0.0-53.0-1.0,,"<div style=""display: flex; flex-direction: column; align-items: center; margin-top: -40px;""><img src=""images/pattern_7.png"" style=""width: 234px; height: 230px; margin-top: -50px;""><div style=""display: flex; justify-content: space-between; margin-top: 33px;""><img src=""images/choice_trial_13.png"" style=""width: 408px; height: 417px; margin-left:608px;""></div></div>",,delaylearn,learning,display_response,5AdDuOMjzyXZRCLMJbddGqJi6HV2,5AdDuOMjzyXZRCLMJbddGqJi6HV2,,,,,,,,,,,,,,,,,chosen stimuli: images/choice_trial_13.png,,,,,62e95680b0415811dccf7147,16:53:35,27/03/2024
html-keyboard-response,125,235199,0.0-53.0-2.0,,,,delaylearn,learning,feedback_duration_window,5AdDuOMjzyXZRCLMJbddGqJi6HV2,5AdDuOMjzyXZRCLMJbddGqJi6HV2,,,,,,,,,,,,,,,,,,750.0,,,,62e95680b0415811dccf7147,16:53:35,27/03/2024
html-keyboard-response,126,236710,0.0-53.0-3.0,,<div style='margin:auto;width: auto; font-size: 150%'><span style='font-weight: bold; font-size: 100px; color: green;'>+10 points!</span><br><br></div>,,delaylearn,learning,feedback_image_window,5AdDuOMjzyXZRCLMJbddGqJi6HV2,5AdDuOMjzyXZRCLMJbddGqJi6HV2,,,,,,,,,,,,,,,,,,,,,,62e95680b0415811dccf7147,16:53:35,27/03/2024
html-keyboard-response,127,239046,0.0-54.0,,"<div style=""font-size:100px;"">+</div>",,delaylearn,learning,ITI,5AdDuOMjzyXZRCLMJbddGqJi6HV2,5AdDuOMjzyXZRCLMJbddGqJi6HV2,,,,,,,,,,,,,,,,,,,2320.0,,,62e95680b0415811dccf7147,16:53:35,27/03/2024
html-keyboard-response,128,239773,0.0-55.0-0.0,723.7999999523163,"<div style=""display: flex; flex-direction: column; align-items: center; margin-top: -40px;""><img src=""images/pattern_1.png"" style=""width: 234px; height: 230px; margin-top: -50px;""><div style=""display: flex; justify-content: space-between; margin-top: 33px;""><img src=""images/choice_trial_2.png"" style=""width: 408px; height: 417px; margin-right: 200px;""><img src=""images/choice_trial_1.png"" style=""width: 408px; height: 417px;""></div></div>",f,delaylearn,learning,trial,5AdDuOMjzyXZRCLMJbddGqJi6HV2,5AdDuOMjzyXZRCLMJbddGqJi6HV2,1.0,images/choice_trial_2.png,images/choice_trial_1.png,images/pattern_1.png,f,j,7000.0,2.0,1.0,1.0,1.0,24.0,0.0,1.0,2.0,150.0,,,,,,62e95680b0415811dccf7147,16:53:35,27/03/2024
html-keyboard-response,129,240780,0.0-55.0-1.0,,"<div style=""display: flex; flex-direction: column; align-items: center; margin-top: -40px;""><img src=""images/pattern_1.png"" style=""width: 234px; height: 230px; margin-top: -50px;""><div style=""display: flex; justify-content: space-between; margin-top: 33px;""><img src=""images/choice_trial_2.png"" style=""width: 408px; height: 417px; margin-right: 608px;""></div></div>",,delaylearn,learning,display_response,5AdDuOMjzyXZRCLMJbddGqJi6HV2,5AdDuOMjzyXZRCLMJbddGqJi6HV2,,,,,,,,,,,,,,,,,chosen stimuli: images/choice_trial_2.png,,,,,62e95680b0415811dccf7147,16:53:35,27/03/2024
html-keyboard-response,130,247796,0.0-55.0-2.0,,,,delaylearn,learning,feedback_duration_window,5AdDuOMjzyXZRCLMJbddGqJi6HV2,5AdDuOMjzyXZRCLMJbddGqJi6HV2,,,,,,,,,,,,,,,,,,7000.0,,,,62e95680b0415811dccf7147,16:53:35,27/03/2024
html-keyboard-response,131,249300,0.0-55.0-3.0,,<div style='margin:auto;width: auto; font-size: 150%'><span style='font-weight: bold; font-size: 100px; color: green;'>+10 points!</span><br><br></div>,,delaylearn,learning,feedback_image_window,5AdDuOMjzyXZRCLMJbddGqJi6HV2,5AdDuOMjzyXZRCLMJbddGqJi6HV2,,,,,,,,,,,,,,,,,,,,,,62e95680b0415811dccf7147,16:53:35,27/03/2024
html-keyboard-response,132,251788,0.0-56.0,,"<div style=""font-size:100px;"">+</div>",,delaylearn,learning,ITI,5AdDuOMjzyXZRCLMJbddGqJi6HV2,5AdDuOMjzyXZRCLMJbddGqJi6HV2,,,,,,,,,,,,,,,,,,,2485.0,,,62e95680b0415811dccf7147,16:53:35,27/03/2024
html-keyboard-response,133,252517,0.0-57.0-0.0,726.2999999523163,"<div style=""display: flex; flex-direction: column; align-items: center; margin-top: -40px;""><img src=""images/pattern_5.png"" style=""width: 234px; height: 230px; margin-top: -50px;""><div style=""display: flex; justify-content: space-between; margin-top: 33px;""><img src=""images/choice_trial_10.png"" style=""width: 408px; height: 417px; margin-right: 200px;""><img src=""images/choice_trial_9.png"" style=""width: 408px; height: 417px;""></div></div>",j,delaylearn,learning,trial,5AdDuOMjzyXZRCLMJbddGqJi6HV2,5AdDuOMjzyXZRCLMJbddGqJi6HV2,1.0,images/choice_trial_10.png,images/choice_trial_9.png,images/pattern_5.png,j,j,750.0,10.0,9.0,4.0,1.0,25.0,1.0,1.0,9.0,160.0,,,,,,62e95680b0415811dccf7147,16:53:35,27/03/2024
html-keyboard-response,134,253532,0.0-57.0-1.0,,"<div style=""display: flex; flex-direction: column; align-items: center; margin-top: -40px;""><img src=""images/pattern_5.png"" style=""width: 234px; height: 230px; margin-top: -50px;""><div style=""display: flex; justify-content: space-between; margin-top: 33px;""><img src=""images/choice_trial_9.png"" style=""width: 408px; height: 417px; margin-left:608px;""></div></div>",,delaylearn,learning,display_response,5AdDuOMjzyXZRCLMJbddGqJi6HV2,5AdDuOMjzyXZRCLMJbddGqJi6HV2,,,,,,,,,,,,,,,,,chosen stimuli: images/choice_trial_9.png,,,,,62e95680b0415811dccf7147,16:53:35,27/03/2024
html-keyboard-response,135,254296,0.0-57.0-2.0,,,,delaylearn,learning,feedback_duration_window,5AdDuOMjzyXZRCLMJbddGqJi6HV2,5AdDuOMjzyXZRCLMJbddGqJi6HV2,,,,,,,,,,,,,,,,,,750.0,,,,62e95680b0415811dccf7147,16:53:35,27/03/2024
html-keyboard-response,136,255813,0.0-57.0-3.0,,<div style='margin:auto;width: auto; font-size: 150%'><span style='font-weight: bold; font-size: 100px; color: green;'>+10 points!</span><br><br></div>,,delaylearn,learning,feedback_image_window,5AdDuOMjzyXZRCLMJbddGqJi6HV2,5AdDuOMjzyXZRCLMJbddGqJi6HV2,,,,,,,,,,,,,,,,,,,,,,62e95680b0415811dccf7147,16:53:35,27/03/2024
html-keyboard-response,137,257435,0.0-58.0,,"<div style=""font-size:100px;"">+</div>",,delaylearn,learning,ITI,5AdDuOMjzyXZRCLMJbddGqJi6HV2,5AdDuOMjzyXZRCLMJbddGqJi6HV2,,,,,,,,,,,,,,,,,,,1610.0,,,62e95680b0415811dccf7147,16:53:35,27/03/2024
html-keyboard-response,138,258225,0.0-59.0-0.0,786.3999999761581,"<div style=""display: flex; flex-direction: column; align-items: center; margin-top: -40px;""><img src=""images/pattern_3.png"" style=""width: 234px; height: 230px; margin-top: -50px;""><div style=""display: flex; justify-content: space-between; margin-top: 33px;""><img src=""images/choice_trial_6.png"" style=""width: 408px; height: 417px; margin-right: 200px;""><img src=""images/choice_trial_5.png"" style=""width: 408px; height: 417px;""></div></div>",j,delaylearn,learning,trial,5AdDuOMjzyXZRCLMJbddGqJi6HV2,5AdDuOMjzyXZRCLMJbddGqJi6HV2,1.0,images/choice_trial_6.png,images/choice_trial_5.png,images/pattern_3.png,j,j,7000.0,6.0,5.0,2.0,1.0,26.0,1.0,1.0,5.0,170.0,,,,,,62e95680b0415811dccf7147,16:53:35,27/03/2024
html-keyboard-response,139,259236,0.0-59.0-1.0,,"<div style=""display: flex; flex-direction: column; align-items: center; margin-top: -40px;""><img src=""images/pattern_3.png"" style=""width: 234px; height: 230px; margin-top: -50px;""><div style=""display: flex; justify-content: space-between; margin-top: 33px;""><img src=""images/choice_trial_5.png"" style=""width: 408px; height: 417px; margin-left:608px;""></div></div>",,delaylearn,learning,display_response,5AdDuOMjzyXZRCLMJbddGqJi6HV2,5AdDuOMjzyXZRCLMJbddGqJi6HV2,,,,,,,,,,,,,,,,,chosen stimuli: images/choice_trial_5.png,,,,,62e95680b0415811dccf7147,16:53:35,27/03/2024
html-keyboard-response,140,266243,0.0-59.0-2.0,,,,delaylearn,learning,feedback_duration_window,5AdDuOMjzyXZRCLMJbddGqJi6HV2,5AdDuOMjzyXZRCLMJbddGqJi6HV2,,,,,,,,,,,,,,,,,,7000.0,,,,62e95680b0415811dccf7147,16:53:35,27/03/2024
html-keyboard-response,141,267757,0.0-59.0-3.0,,<div style='margin:auto;width: auto; font-size: 150%'><span style='font-weight: bold; font-size: 100px; color: green;'>+10 points!</span><br><br></div>,,delaylearn,learning,feedback_image_window,5AdDuOMjzyXZRCLMJbddGqJi6HV2,5AdDuOMjzyXZRCLMJbddGqJi6HV2,,,,,,,,,,,,,,,,,,,,,,62e95680b0415811dccf7147,16:53:35,27/03/2024
lmdlab-html-vas-response,142,274344,0.0-60.0-0.0,5073.0,*How <b><u>confident</u></b> are you feeling about your answers at this moment?*,0.5092592592592593,rewlearn,rate_confidence,,5AdDuOMjzyXZRCLMJbddGqJi6HV2,5AdDuOMjzyXZRCLMJbddGqJi6HV2,,,,,,,,,,,,,,,,,,,,"['No confidence', 'Complete confidence']",,62e95680b0415811dccf7147,16:53:35,27/03/2024
lmdlab-rest-trial-limit,143,280317,0.0-60.0-1.0,4464.900000095367,"<div style=""font-size:40px;""><b>Please take a break!</b><br><br><br><br><p>Great work: you earned 170 points.<br><br><br><p>You have completed part(s) 1 of 5.<br><br><br><br>When you are ready to continue<br><br><br>please click the button.</p><br><br>",0,delaylearn,learning,break,5AdDuOMjzyXZRCLMJbddGqJi6HV2,5AdDuOMjzyXZRCLMJbddGqJi6HV2,,,,,,,,,,,,,,,,,,,,,0.0,62e95680b0415811dccf7147,16:53:35,27/03/2024
html-keyboard-response,144,283330,0.0-60.0-2.0,,"<div style=""font-size:100px;"">+</div>",,delaylearn,learning,pre_fixation,5AdDuOMjzyXZRCLMJbddGqJi6HV2,,,,,,,,,,,,,,,,,,,,,,,62e95680b0415811dccf7147,16:53:35,27/03/2024
lmdlab-html-vas-response,145,288965,0.0-60.0-3.0-0.0,4621.0,How happy are you right now?,0.5,delaylearn,learning,mood_baseline,5AdDuOMjzyXZRCLMJbddGqJi6HV2,5AdDuOMjzyXZRCLMJbddGqJi6HV2,,,,,,,,,,,,,,,,,,,,"['Very unhappy', 'Very happy']",,62e95680b0415811dccf7147,16:53:35,27/03/2024
html-keyboard-response,146,290482,0.0-60.0-3.0-1.0,,,,,,mood_baseline_fixation,5AdDuOMjzyXZRCLMJbddGqJi6HV2,,,,,,,,,,,,,,,,,,,,,,,62e95680b0415811dccf7147,16:53:35,27/03/2024
html-keyboard-response,147,292116,0.0-61.0,,"<div style=""font-size:100px;"">+</div>",,delaylearn,learning,ITI,5AdDuOMjzyXZRCLMJbddGqJi6HV2,5AdDuOMjzyXZRCLMJbddGqJi6HV2,,,,,,,,,,,,,,,,,,,1624.0,,,62e95680b0415811dccf7147,16:53:35,27/03/2024
html-keyboard-response,148,293240,0.0-62.0-0.0,1120.2999999523163,"<div style=""display: flex; flex-direction: column; align-items: center; margin-top: -40px;""><img src=""images/pattern_7.png"" style=""width: 234px; height: 230px; margin-top: -50px;""><div style=""display: flex; justify-content: space-between; margin-top: 33px;""><img src=""images/choice_trial_14.png"" style=""width: 408px; height: 417px; margin-right: 200px;""><img src=""images/choice_trial_13.png"" style=""width: 408px; height: 417px;""></div></div>",j,delaylearn,learning,trial,5AdDuOMjzyXZRCLMJbddGqJi6HV2,5AdDuOMjzyXZRCLMJbddGqJi6HV2,1.0,images/choice_trial_14.png,images/choice_trial_13.png,images/pattern_7.png,j,j,750.0,14.0,13.0,6.0,1.0,27.0,1.0,1.0,13.0,180.0,,,,,,62e95680b0415811dccf7147,16:53:35,27/03/2024
html-keyboard-response,149,294257,0.0-62.0-1.0,,"<div style=""display: flex; flex-direction: column; align-items: center; margin-top: -40px;""><img src=""images/pattern_7.png"" style=""width: 234px; height: 230px; margin-top: -50px;""><div style=""display: flex; justify-content: space-between; margin-top: 33px;""><img src=""images/choice_trial_13.png"" style=""width: 408px; height: 417px; margin-left:608px;""></div></div>",,delaylearn,learning,display_response,5AdDuOMjzyXZRCLMJbddGqJi6HV2,5AdDuOMjzyXZRCLMJbddGqJi6HV2,,,,,,,,,,,,,,,,,chosen stimuli: images/choice_trial_13.png,,,,,62e95680b0415811dccf7147,16:53:35,27/03/2024
html-keyboard-response,150,295023,0.0-62.0-2.0,,,,delaylearn,learning,feedback_duration_window,5AdDuOMjzyXZRCLMJbddGqJi6HV2,5AdDuOMjzyXZRCLMJbddGqJi6HV2,,,,,,,,,,,,,,,,,,750.0,,,,62e95680b0415811dccf7147,16:53:35,27/03/2024
html-keyboard-response,151,296525,0.0-62.0-3.0,,<div style='margin:auto;width: auto; font-size: 150%'><span style='font-weight: bold; font-size: 100px; color: green;'>+10 points!</span><br><br></div>,,delaylearn,learning,feedback_image_window,5AdDuOMjzyXZRCLMJbddGqJi6HV2,5AdDuOMjzyXZRCLMJbddGqJi6HV2,,,,,,,,,,,,,,,,,,,,,,62e95680b0415811dccf7147,16:53:35,27/03/2024
html-keyboard-response,152,297041,0.0-63.0-0.0,,,,,,mood_trial_fixation,5AdDuOMjzyXZRCLMJbddGqJi6HV2,,,,,,,,,,,,,,,,,,,,,,,62e95680b0415811dccf7147,16:53:35,27/03/2024
lmdlab-html-vas-response,153,301864,0.0-63.0-1.0,3807.0,How happy are you right now?,0.4699074074074074,delaylearn,learning,mood_trial,5AdDuOMjzyXZRCLMJbddGqJi6HV2,5AdDuOMjzyXZRCLMJbddGqJi6HV2,,,,,,,,,,,,,,,,,,,,"['Very unhappy', 'Very happy']",,62e95680b0415811dccf7147,16:53:35,27/03/2024
html-keyboard-response,154,303759,0.0-64.0,,"<div style=""font-size:100px;"">+</div>",,delaylearn,learning,ITI,5AdDuOMjzyXZRCLMJbddGqJi6HV2,5AdDuOMjzyXZRCLMJbddGqJi6HV2,,,,,,,,,,,,,,,,,,,1885.0,,,62e95680b0415811dccf7147,16:53:35,27/03/2024
html-keyboard-response,155,305255,0.0-65.0-0.0,1492.1000000238419,"<div style=""display: flex; flex-direction: column; align-items: center; margin-top: -40px;""><img src=""images/pattern_1.png"" style=""width: 234px; height: 230px; margin-top: -50px;""><div style=""display: flex; justify-content: space-between; margin-top: 33px;""><img src=""images/choice_trial_1.png"" style=""width: 408px; height: 417px; margin-right: 200px;""><img src=""images/choice_trial_2.png"" style=""width: 408px; height: 417px;""></div></div>",j,delaylearn,learning,trial,5AdDuOMjzyXZRCLMJbddGqJi6HV2,5AdDuOMjzyXZRCLMJbddGqJi6HV2,1.0,images/choice_trial_1.png,images/choice_trial_2.png,images/pattern_1.png,f,f,7000.0,1.0,2.0,1.0,0.0,28.0,0.0,0.0,2.0,180.0,,,,,,62e95680b0415811dccf7147,16:53:35,27/03/2024
html-keyboard-response,156,306262,0.0-65.0-1.0,,"<div style=""display: flex; flex-direction: column; align-items: center; margin-top: -40px;""><img src=""images/pattern_1.png"" style=""width: 234px; height: 230px; margin-top: -50px;""><div style=""display: flex; justify-content: space-between; margin-top: 33px;""><img src=""images/choice_trial_2.png"" style=""width: 408px; height: 417px; margin-left:608px;""></div></div>",,delaylearn,learning,display_response,5AdDuOMjzyXZRCLMJbddGqJi6HV2,5AdDuOMjzyXZRCLMJbddGqJi6HV2,,,,,,,,,,,,,,,,,chosen stimuli: images/choice_trial_2.png,,,,,62e95680b0415811dccf7147,16:53:35,27/03/2024
html-keyboard-response,157,313266,0.0-65.0-2.0,,,,delaylearn,learning,feedback_duration_window,5AdDuOMjzyXZRCLMJbddGqJi6HV2,5AdDuOMjzyXZRCLMJbddGqJi6HV2,,,,,,,,,,,,,,,,,,7000.0,,,,62e95680b0415811dccf7147,16:53:35,27/03/2024
html-keyboard-response,158,314779,0.0-65.0-3.0,,<div style='margin:auto;width: auto; font-size: 150%'><span style='font-weight: bold; font-size: 100px; color: red;'>0 points!</span><br><br></div>,,delaylearn,learning,feedback_image_window,5AdDuOMjzyXZRCLMJbddGqJi6HV2,5AdDuOMjzyXZRCLMJbddGqJi6HV2,,,,,,,,,,,,,,,,,,,,,,62e95680b0415811dccf7147,16:53:35,27/03/2024
html-keyboard-response,159,316430,0.0-66.0,,"<div style=""font-size:100px;"">+</div>",,delaylearn,learning,ITI,5AdDuOMjzyXZRCLMJbddGqJi6HV2,5AdDuOMjzyXZRCLMJbddGqJi6HV2,,,,,,,,,,,,,,,,,,,1637.0,,,62e95680b0415811dccf7147,16:53:35,27/03/2024
html-keyboard-response,160,317374,0.0-67.0-0.0,940.8000000715256,"<div style=""display: flex; flex-direction: column; align-items: center; margin-top: -40px;""><img src=""images/pattern_5.png"" style=""width: 234px; height: 230px; margin-top: -50px;""><div style=""display: flex; justify-content: space-between; margin-top: 33px;""><img src=""images/choice_trial_9.png"" style=""width: 408px; height: 417px; margin-right: 200px;""><img src=""images/choice_trial_10.png"" style=""width: 408px; height: 417px;""></div></div>",f,delaylearn,learning,trial,5AdDuOMjzyXZRCLMJbddGqJi6HV2,5AdDuOMjzyXZRCLMJbddGqJi6HV2,1.0,images/choice_trial_9.png,images/choice_trial_10.png,images/pattern_5.png,f,f,750.0,9.0,10.0,4.0,0.0,29.0,1.0,1.0,9.0,190.0,,,,,,62e95680b0415811dccf7147,16:53:35,27/03/2024
html-keyboard-response,161,318387,0.0-67.0-1.0,,"<div style=""display: flex; flex-direction: column; align-items: center; margin-top: -40px;""><img src=""images/pattern_5.png"" style=""width: 234px; height: 230px; margin-top: -50px;""><div style=""display: flex; justify-content: space-between; margin-top: 33px;""><img src=""images/choice_trial_9.png"" style=""width: 408px; height: 417px; margin-right: 608px;""></div></div>",,delaylearn,learning,display_response,5AdDuOMjzyXZRCLMJbddGqJi6HV2,5AdDuOMjzyXZRCLMJbddGqJi6HV2,,,,,,,,,,,,,,,,,chosen stimuli: images/choice_trial_9.png,,,,,62e95680b0415811dccf7147,16:53:35,27/03/2024
html-keyboard-response,162,319152,0.0-67.0-2.0,,,,delaylearn,learning,feedback_duration_window,5AdDuOMjzyXZRCLMJbddGqJi6HV2,5AdDuOMjzyXZRCLMJbddGqJi6HV2,,,,,,,,,,,,,,,,,,750.0,,,,62e95680b0415811dccf7147,16:53:35,27/03/2024
html-keyboard-response,163,320655,0.0-67.0-3.0,,<div style='margin:auto;width: auto; font-size: 150%'><span style='font-weight: bold; font-size: 100px; color: green;'>+10 points!</span><br><br></div>,,delaylearn,learning,feedback_image_window,5AdDuOMjzyXZRCLMJbddGqJi6HV2,5AdDuOMjzyXZRCLMJbddGqJi6HV2,,,,,,,,,,,,,,,,,,,,,,62e95680b0415811dccf7147,16:53:35,27/03/2024
html-keyboard-response,164,322776,0.0-68.0,,"<div style=""font-size:100px;"">+</div>",,delaylearn,learning,ITI,5AdDuOMjzyXZRCLMJbddGqJi6HV2,5AdDuOMjzyXZRCLMJbddGqJi6HV2,,,,,,,,,,,,,,,,,,,2115.0,,,62e95680b0415811dccf7147,16:53:35,27/03/2024
html-keyboard-response,165,323580,0.0-69.0-0.0,800.6000000238419,"<div style=""display: flex; flex-direction: column; align-items: center; margin-top: -40px;""><img src=""images/pattern_6.png"" style=""width: 234px; height: 230px; margin-top: -50px;""><div style=""display: flex; justify-content: space-between; margin-top: 33px;""><img src=""images/choice_trial_12.png"" style=""width: 408px; height: 417px; margin-right: 200px;""><img src=""images/choice_trial_11.png"" style=""width: 408px; height: 417px;""></div></div>",j,delaylearn,learning,trial,5AdDuOMjzyXZRCLMJbddGqJi6HV2,5AdDuOMjzyXZRCLMJbddGqJi6HV2,1.0,images/choice_trial_12.png,images/choice_trial_11.png,images/pattern_6.png,j,j,750.0,12.0,11.0,5.0,1.0,30.0,1.0,1.0,11.0,200.0,,,,,,62e95680b0415811dccf7147,16:53:35,27/03/2024
html-keyboard-response,166,324587,0.0-69.0-1.0,,"<div style=""display: flex; flex-direction: column; align-items: center; margin-top: -40px;""><img src=""images/pattern_6.png"" style=""width: 234px; height: 230px; margin-top: -50px;""><div style=""display: flex; justify-content: space-between; margin-top: 33px;""><img src=""images/choice_trial_11.png"" style=""width: 408px; height: 417px; margin-left:608px;""></div></div>",,delaylearn,learning,display_response,5AdDuOMjzyXZRCLMJbddGqJi6HV2,5AdDuOMjzyXZRCLMJbddGqJi6HV2,,,,,,,,,,,,,,,,,chosen stimuli: images/choice_trial_11.png,,,,,62e95680b0415811dccf7147,16:53:35,27/03/2024
html-keyboard-response,167,325347,0.0-69.0-2.0,,,,delaylearn,learning,feedback_duration_window,5AdDuOMjzyXZRCLMJbddGqJi6HV2,5AdDuOMjzyXZRCLMJbddGqJi6HV2,,,,,,,,,,,,,,,,,,750.0,,,,62e95680b0415811dccf7147,16:53:35,27/03/2024
html-keyboard-response,168,326856,0.0-69.0-3.0,,<div style='margin:auto;width: auto; font-size: 150%'><span style='font-weight: bold; font-size: 100px; color: green;'>+10 points!</span><br><br></div>,,delaylearn,learning,feedback_image_window,5AdDuOMjzyXZRCLMJbddGqJi6HV2,5AdDuOMjzyXZRCLMJbddGqJi6HV2,,,,,,,,,,,,,,,,,,,,,,62e95680b0415811dccf7147,16:53:35,27/03/2024
html-keyboard-response,169,327368,0.0-70.0-0.0,,,,,,mood_trial_fixation,5AdDuOMjzyXZRCLMJbddGqJi6HV2,,,,,,,,,,,,,,,,,,,,,,,62e95680b0415811dccf7147,16:53:35,27/03/2024
lmdlab-html-vas-response,170,332052,0.0-70.0-1.0,3670.0,How happy are you right now?,0.4212962962962963,delaylearn,learning,mood_trial,5AdDuOMjzyXZRCLMJbddGqJi6HV2,5AdDuOMjzyXZRCLMJbddGqJi6HV2,,,,,,,,,,,,,,,,,,,,"['Very unhappy', 'Very happy']",,62e95680b0415811dccf7147,16:53:35,27/03/2024
html-keyboard-response,171,334143,0.0-71.0,,"<div style=""font-size:100px;"">+</div>",,delaylearn,learning,ITI,5AdDuOMjzyXZRCLMJbddGqJi6HV2,5AdDuOMjzyXZRCLMJbddGqJi6HV2,,,,,,,,,,,,,,,,,,,2087.0,,,62e95680b0415811dccf7147,16:53:35,27/03/2024
html-keyboard-response,172,335060,0.0-72.0-0.0,912.8000000715256,"<div style=""display: flex; flex-direction: column; align-items: center; margin-top: -40px;""><img src=""images/pattern_4.png"" style=""width: 234px; height: 230px; margin-top: -50px;""><div style=""display: flex; justify-content: space-between; margin-top: 33px;""><img src=""images/choice_trial_8.png"" style=""width: 408px; height: 417px; margin-right: 200px;""><img src=""images/choice_trial_7.png"" style=""width: 408px; height: 417px;""></div></div>",f,delaylearn,learning,trial,5AdDuOMjzyXZRCLMJbddGqJi6HV2,5AdDuOMjzyXZRCLMJbddGqJi6HV2,1.0,images/choice_trial_8.png,images/choice_trial_7.png,images/pattern_4.png,j,j,7000.0,8.0,7.0,3.0,1.0,31.0,0.0,0.0,8.0,200.0,,,,,,62e95680b0415811dccf7147,16:53:35,27/03/2024
html-keyboard-response,173,336069,0.0-72.0-1.0,,"<div style=""display: flex; flex-direction: column; align-items: center; margin-top: -40px;""><img src=""images/pattern_4.png"" style=""width: 234px; height: 230px; margin-top: -50px;""><div style=""display: flex; justify-content: space-between; margin-top: 33px;""><img src=""images/choice_trial_8.png"" style=""width: 408px; height: 417px; margin-right: 608px;""></div></div>",,delaylearn,learning,display_response,5AdDuOMjzyXZRCLMJbddGqJi6HV2,5AdDuOMjzyXZRCLMJbddGqJi6HV2,,,,,,,,,,,,,,,,,chosen stimuli: images/choice_trial_8.png,,,,,62e95680b0415811dccf7147,16:53:35,27/03/2024
html-keyboard-response,174,343082,0.0-72.0-2.0,,,,delaylearn,learning,feedback_duration_window,5AdDuOMjzyXZRCLMJbddGqJi6HV2,5AdDuOMjzyXZRCLMJbddGqJi6HV2,,,,,,,,,,,,,,,,,,7000.0,,,,62e95680b0415811dccf7147,16:53:35,27/03/2024
html-keyboard-response,175,344585,0.0-72.0-3.0,,<div style='margin:auto;width: auto; font-size: 150%'><span style='font-weight: bold; font-size: 100px; color: red;'>0 points!</span><br><br></div>,,delaylearn,learning,feedback_image_window,5AdDuOMjzyXZRCLMJbddGqJi6HV2,5AdDuOMjzyXZRCLMJbddGqJi6HV2,,,,,,,,,,,,,,,,,,,,,,62e95680b0415811dccf7147,16:53:35,27/03/2024
html-keyboard-response,176,346180,0.0-73.0,,"<div style=""font-size:100px;"">+</div>",,delaylearn,learning,ITI,5AdDuOMjzyXZRCLMJbddGqJi6HV2,5AdDuOMjzyXZRCLMJbddGqJi6HV2,,,,,,,,,,,,,,,,,,,1589.0,,,62e95680b0415811dccf7147,16:53:35,27/03/2024
html-keyboard-response,177,346800,0.0-74.0-0.0,616.1000000238419,"<div style=""display: flex; flex-direction: column; align-items: center; margin-top: -40px;""><img src=""images/pattern_3.png"" style=""width: 234px; height: 230px; margin-top: -50px;""><div style=""display: flex; justify-content: space-between; margin-top: 33px;""><img src=""images/choice_trial_6.png"" style=""width: 408px; height: 417px; margin-right: 200px;""><img src=""images/choice_trial_5.png"" style=""width: 408px; height: 417px;""></div></div>",j,delaylearn,learning,trial,5AdDuOMjzyXZRCLMJbddGqJi6HV2,5AdDuOMjzyXZRCLMJbddGqJi6HV2,1.0,images/choice_trial_6.png,images/choice_trial_5.png,images/pattern_3.png,j,j,7000.0,6.0,5.0,2.0,1.0,32.0,1.0,1.0,5.0,210.0,,,,,,62e95680b0415811dccf7147,16:53:35,27/03/2024
html-keyboard-response,178,347803,0.0-74.0-1.0,,"<div style=""display: flex; flex-direction: column; align-items: center; margin-top: -40px;""><img src=""images/pattern_3.png"" style=""width: 234px; height: 230px; margin-top: -50px;""><div style=""display: flex; justify-content: space-between; margin-top: 33px;""><img src=""images/choice_trial_5.png"" style=""width: 408px; height: 417px; margin-left:608px;""></div></div>",,delaylearn,learning,display_response,5AdDuOMjzyXZRCLMJbddGqJi6HV2,5AdDuOMjzyXZRCLMJbddGqJi6HV2,,,,,,,,,,,,,,,,,chosen stimuli: images/choice_trial_5.png,,,,,62e95680b0415811dccf7147,16:53:35,27/03/2024
html-keyboard-response,179,354807,0.0-74.0-2.0,,,,delaylearn,learning,feedback_duration_window,5AdDuOMjzyXZRCLMJbddGqJi6HV2,5AdDuOMjzyXZRCLMJbddGqJi6HV2,,,,,,,,,,,,,,,,,,7000.0,,,,62e95680b0415811dccf7147,16:53:35,27/03/2024
html-keyboard-response,180,356324,0.0-74.0-3.0,,<div style='margin:auto;width: auto; font-size: 150%'><span style='font-weight: bold; font-size: 100px; color: green;'>+10 points!</span><br><br></div>,,delaylearn,learning,feedback_image_window,5AdDuOMjzyXZRCLMJbddGqJi6HV2,5AdDuOMjzyXZRCLMJbddGqJi6HV2,,,,,,,,,,,,,,,,,,,,,,62e95680b0415811dccf7147,16:53:35,27/03/2024
html-keyboard-response,181,358101,0.0-75.0,,"<div style=""font-size:100px;"">+</div>",,delaylearn,learning,ITI,5AdDuOMjzyXZRCLMJbddGqJi6HV2,5AdDuOMjzyXZRCLMJbddGqJi6HV2,,,,,,,,,,,,,,,,,,,1774.0,,,62e95680b0415811dccf7147,16:53:35,27/03/2024
html-keyboard-response,182,359265,0.0-76.0-0.0,1160.5999999046326,"<div style=""display: flex; flex-direction: column; align-items: center; margin-top: -40px;""><img src=""images/pattern_5.png"" style=""width: 234px; height: 230px; margin-top: -50px;""><div style=""display: flex; justify-content: space-between; margin-top: 33px;""><img src=""images/choice_trial_9.png"" style=""width: 408px; height: 417px; margin-right: 200px;""><img src=""images/choice_trial_10.png"" style=""width: 408px; height: 417px;""></div></div>",f,delaylearn,learning,trial,5AdDuOMjzyXZRCLMJbddGqJi6HV2,5AdDuOMjzyXZRCLMJbddGqJi6HV2,1.0,images/choice_trial_9.png,images/choice_trial_10.png,images/pattern_5.png,j,f,750.0,9.0,10.0,4.0,0.0,33.0,1.0,0.0,9.0,210.0,,,,,,62e95680b0415811dccf7147,16:53:35,27/03/2024
html-keyboard-response,183,360279,0.0-76.0-1.0,,"<div style=""display: flex; flex-direction: column; align-items: center; margin-top: -40px;""><img src=""images/pattern_5.png"" style=""width: 234px; height: 230px; margin-top: -50px;""><div style=""display: flex; justify-content: space-between; margin-top: 33px;""><img src=""images/choice_trial_9.png"" style=""width: 408px; height: 417px; margin-right: 608px;""></div></div>",,delaylearn,learning,display_response,5AdDuOMjzyXZRCLMJbddGqJi6HV2,5AdDuOMjzyXZRCLMJbddGqJi6HV2,,,,,,,,,,,,,,,,,chosen stimuli: images/choice_trial_9.png,,,,,62e95680b0415811dccf7147,16:53:35,27/03/2024
html-keyboard-response,184,361037,0.0-76.0-2.0,,,,delaylearn,learning,feedback_duration_window,5AdDuOMjzyXZRCLMJbddGqJi6HV2,5AdDuOMjzyXZRCLMJbddGqJi6HV2,,,,,,,,,,,,,,,,,,750.0,,,,62e95680b0415811dccf7147,16:53:35,27/03/2024
html-keyboard-response,185,362552,0.0-76.0-3.0,,<div style='margin:auto;width: auto; font-size: 150%'><span style='font-weight: bold; font-size: 100px; color: red;'>0 points!</span><br><br></div>,,delaylearn,learning,feedback_image_window,5AdDuOMjzyXZRCLMJbddGqJi6HV2,5AdDuOMjzyXZRCLMJbddGqJi6HV2,,,,,,,,,,,,,,,,,,,,,,62e95680b0415811dccf7147,16:53:35,27/03/2024
html-keyboard-response,186,364409,0.0-77.0,,"<div style=""font-size:100px;"">+</div>",,delaylearn,learning,ITI,5AdDuOMjzyXZRCLMJbddGqJi6HV2,5AdDuOMjzyXZRCLMJbddGqJi6HV2,,,,,,,,,,,,,,,,,,,1843.0,,,62e95680b0415811dccf7147,16:53:35,27/03/2024
html-keyboard-response,187,365240,0.0-78.0-0.0,827.5,"<div style=""display: flex; flex-direction: column; align-items: center; margin-top: -40px;""><img src=""images/pattern_1.png"" style=""width: 234px; height: 230px; margin-top: -50px;""><div style=""display: flex; justify-content: space-between; margin-top: 33px;""><img src=""images/choice_trial_1.png"" style=""width: 408px; height: 417px; margin-right: 200px;""><img src=""images/choice_trial_2.png"" style=""width: 408px; height: 417px;""></div></div>",j,delaylearn,learning,trial,5AdDuOMjzyXZRCLMJbddGqJi6HV2,5AdDuOMjzyXZRCLMJbddGqJi6HV2,1.0,images/choice_trial_1.png,images/choice_trial_2.png,images/pattern_1.png,f,f,7000.0,1.0,2.0,1.0,0.0,34.0,0.0,0.0,2.0,210.0,,,,,,62e95680b0415811dccf7147,16:53:35,27/03/2024
html-keyboard-response,188,366248,0.0-78.0-1.0,,"<div style=""display: flex; flex-direction: column; align-items: center; margin-top: -40px;""><img src=""images/pattern_1.png"" style=""width: 234px; height: 230px; margin-top: -50px;""><div style=""display: flex; justify-content: space-between; margin-top: 33px;""><img src=""images/choice_trial_2.png"" style=""width: 408px; height: 417px; margin-left:608px;""></div></div>",,delaylearn,learning,display_response,5AdDuOMjzyXZRCLMJbddGqJi6HV2,5AdDuOMjzyXZRCLMJbddGqJi6HV2,,,,,,,,,,,,,,,,,chosen stimuli: images/choice_trial_2.png,,,,,62e95680b0415811dccf7147,16:53:35,27/03/2024
html-keyboard-response,189,373264,0.0-78.0-2.0,,,,delaylearn,learning,feedback_duration_window,5AdDuOMjzyXZRCLMJbddGqJi6HV2,5AdDuOMjzyXZRCLMJbddGqJi6HV2,,,,,,,,,,,,,,,,,,7000.0,,,,62e95680b0415811dccf7147,16:53:35,27/03/2024
html-keyboard-response,190,374773,0.0-78.0-3.0,,<div style='margin:auto;width: auto; font-size: 150%'><span style='font-weight: bold; font-size: 100px; color: red;'>0 points!</span><br><br></div>,,delaylearn,learning,feedback_image_window,5AdDuOMjzyXZRCLMJbddGqJi6HV2,5AdDuOMjzyXZRCLMJbddGqJi6HV2,,,,,,,,,,,,,,,,,,,,,,62e95680b0415811dccf7147,16:53:35,27/03/2024
html-keyboard-response,191,375278,0.0-79.0-0.0,,,,,,mood_trial_fixation,5AdDuOMjzyXZRCLMJbddGqJi6HV2,,,,,,,,,,,,,,,,,,,,,,,62e95680b0415811dccf7147,16:53:35,27/03/2024
lmdlab-html-vas-response,192,378734,0.0-79.0-1.0,2444.0,How happy are you right now?,0.20833333333333334,delaylearn,learning,mood_trial,5AdDuOMjzyXZRCLMJbddGqJi6HV2,5AdDuOMjzyXZRCLMJbddGqJi6HV2,,,,,,,,,,,,,,,,,,,,"['Very unhappy', 'Very happy']",,62e95680b0415811dccf7147,16:53:35,27/03/2024
html-keyboard-response,193,381031,0.0-80.0,,"<div style=""font-size:100px;"">+</div>",,delaylearn,learning,ITI,5AdDuOMjzyXZRCLMJbddGqJi6HV2,5AdDuOMjzyXZRCLMJbddGqJi6HV2,,,,,,,,,,,,,,,,,,,2289.0,,,62e95680b0415811dccf7147,16:53:35,27/03/2024
html-keyboard-response,194,381864,0.0-81.0-0.0,829.8999999761581,"<div style=""display: flex; flex-direction: column; align-items: center; margin-top: -40px;""><img src=""images/pattern_6.png"" style=""width: 234px; height: 230px; margin-top: -50px;""><div style=""display: flex; justify-content: space-between; margin-top: 33px;""><img src=""images/choice_trial_11.png"" style=""width: 408px; height: 417px; margin-right: 200px;""><img src=""images/choice_trial_12.png"" style=""width: 408px; height: 417px;""></div></div>",f,delaylearn,learning,trial,5AdDuOMjzyXZRCLMJbddGqJi6HV2,5AdDuOMjzyXZRCLMJbddGqJi6HV2,1.0,images/choice_trial_11.png,images/choice_trial_12.png,images/pattern_6.png,j,f,750.0,11.0,12.0,5.0,0.0,35.0,1.0,0.0,11.0,210.0,,,,,,62e95680b0415811dccf7147,16:53:35,27/03/2024
html-keyboard-response,195,382872,0.0-81.0-1.0,,"<div style=""display: flex; flex-direction: column; align-items: center; margin-top: -40px;""><img src=""images/pattern_6.png"" style=""width: 234px; height: 230px; margin-top: -50px;""><div style=""display: flex; justify-content: space-between; margin-top: 33px;""><img src=""images/choice_trial_11.png"" style=""width: 408px; height: 417px; margin-right: 608px;""></div></div>",,delaylearn,learning,display_response,5AdDuOMjzyXZRCLMJbddGqJi6HV2,5AdDuOMjzyXZRCLMJbddGqJi6HV2,,,,,,,,,,,,,,,,,chosen stimuli: images/choice_trial_11.png,,,,,62e95680b0415811dccf7147,16:53:35,27/03/2024
html-keyboard-response,196,383637,0.0-81.0-2.0,,,,delaylearn,learning,feedback_duration_window,5AdDuOMjzyXZRCLMJbddGqJi6HV2,5AdDuOMjzyXZRCLMJbddGqJi6HV2,,,,,,,,,,,,,,,,,,750.0,,,,62e95680b0415811dccf7147,16:53:35,27/03/2024
html-keyboard-response,197,385153,0.0-81.0-3.0,,<div style='margin:auto;width: auto; font-size: 150%'><span style='font-weight: bold; font-size: 100px; color: red;'>0 points!</span><br><br></div>,,delaylearn,learning,feedback_image_window,5AdDuOMjzyXZRCLMJbddGqJi6HV2,5AdDuOMjzyXZRCLMJbddGqJi6HV2,,,,,,,,,,,,,,,,,,,,,,62e95680b0415811dccf7147,16:53:35,27/03/2024
html-keyboard-response,198,387652,0.0-82.0,,"<div style=""font-size:100px;"">+</div>",,delaylearn,learning,ITI,5AdDuOMjzyXZRCLMJbddGqJi6HV2,5AdDuOMjzyXZRCLMJbddGqJi6HV2,,,,,,,,,,,,,,,,,,,2496.0,,,62e95680b0415811dccf7147,16:53:35,27/03/2024
html-keyboard-response,199,388086,0.0-83.0-0.0,429.0,"<div style=""display: flex; flex-direction: column; align-items: center; margin-top: -40px;""><img src=""images/pattern_3.png"" style=""width: 234px; height: 230px; margin-top: -50px;""><div style=""display: flex; justify-content: space-between; margin-top: 33px;""><img src=""images/choice_trial_6.png"" style=""width: 408px; height: 417px; margin-right: 200px;""><img src=""images/choice_trial_5.png"" style=""width: 408px; height: 417px;""></div></div>",j,delaylearn,learning,trial,5AdDuOMjzyXZRCLMJbddGqJi6HV2,5AdDuOMjzyXZRCLMJbddGqJi6HV2,1.0,images/choice_trial_6.png,images/choice_trial_5.png,images/pattern_3.png,j,j,7000.0,6.0,5.0,2.0,1.0,36.0,1.0,1.0,5.0,220.0,,,,,,62e95680b0415811dccf7147,16:53:35,27/03/2024
html-keyboard-response,200,389096,0.0-83.0-1.0,,"<div style=""display: flex; flex-direction: column; align-items: center; margin-top: -40px;""><img src=""images/pattern_3.png"" style=""width: 234px; height: 230px; margin-top: -50px;""><div style=""display: flex; justify-content: space-between; margin-top: 33px;""><img src=""images/choice_trial_5.png"" style=""width: 408px; height: 417px; margin-left:608px;""></div></div>",,delaylearn,learning,display_response,5AdDuOMjzyXZRCLMJbddGqJi6HV2,5AdDuOMjzyXZRCLMJbddGqJi6HV2,,,,,,,,,,,,,,,,,chosen stimuli: images/choice_trial_5.png,,,,,62e95680b0415811dccf7147,16:53:35,27/03/2024
html-keyboard-response,201,396114,0.0-83.0-2.0,,,,delaylearn,learning,feedback_duration_window,5AdDuOMjzyXZRCLMJbddGqJi6HV2,5AdDuOMjzyXZRCLMJbddGqJi6HV2,,,,,,,,,,,,,,,,,,7000.0,,,,62e95680b0415811dccf7147,16:53:35,27/03/2024
html-keyboard-response,202,397625,0.0-83.0-3.0,,<div style='margin:auto;width: auto; font-size: 150%'><span style='font-weight: bold; font-size: 100px; color: green;'>+10 points!</span><br><br></div>,,delaylearn,learning,feedback_image_window,5AdDuOMjzyXZRCLMJbddGqJi6HV2,5AdDuOMjzyXZRCLMJbddGqJi6HV2,,,,,,,,,,,,,,,,,,,,,,62e95680b0415811dccf7147,16:53:35,27/03/2024
html-keyboard-response,203,399349,0.0-84.0,,"<div style=""font-size:100px;"">+</div>",,delaylearn,learning,ITI,5AdDuOMjzyXZRCLMJbddGqJi6HV2,5AdDuOMjzyXZRCLMJbddGqJi6HV2,,,,,,,,,,,,,,,,,,,1708.0,,,62e95680b0415811dccf7147,16:53:35,27/03/2024
html-keyboard-response,204,399983,0.0-85.0-0.0,629.3000000715256,"<div style=""display: flex; flex-direction: column; align-items: center; margin-top: -40px;""><img src=""images/pattern_4.png"" style=""width: 234px; height: 230px; margin-top: -50px;""><div style=""display: flex; justify-content: space-between; margin-top: 33px;""><img src=""images/choice_trial_8.png"" style=""width: 408px; height: 417px; margin-right: 200px;""><img src=""images/choice_trial_7.png"" style=""width: 408px; height: 417px;""></div></div>",f,delaylearn,learning,trial,5AdDuOMjzyXZRCLMJbddGqJi6HV2,5AdDuOMjzyXZRCLMJbddGqJi6HV2,1.0,images/choice_trial_8.png,images/choice_trial_7.png,images/pattern_4.png,f,j,7000.0,8.0,7.0,3.0,1.0,37.0,0.0,1.0,8.0,230.0,,,,,,62e95680b0415811dccf7147,16:53:35,27/03/2024
html-keyboard-response,205,400986,0.0-85.0-1.0,,"<div style=""display: flex; flex-direction: column; align-items: center; margin-top: -40px;""><img src=""images/pattern_4.png"" style=""width: 234px; height: 230px; margin-top: -50px;""><div style=""display: flex; justify-content: space-between; margin-top: 33px;""><img src=""images/choice_trial_8.png"" style=""width: 408px; height: 417px; margin-right: 608px;""></div></div>",,delaylearn,learning,display_response,5AdDuOMjzyXZRCLMJbddGqJi6HV2,5AdDuOMjzyXZRCLMJbddGqJi6HV2,,,,,,,,,,,,,,,,,chosen stimuli: images/choice_trial_8.png,,,,,62e95680b0415811dccf7147,16:53:35,27/03/2024
html-keyboard-response,206,407995,0.0-85.0-2.0,,,,delaylearn,learning,feedback_duration_window,5AdDuOMjzyXZRCLMJbddGqJi6HV2,5AdDuOMjzyXZRCLMJbddGqJi6HV2,,,,,,,,,,,,,,,,,,7000.0,,,,62e95680b0415811dccf7147,16:53:35,27/03/2024
html-keyboard-response,207,409508,0.0-85.0-3.0,,<div style='margin:auto;width: auto; font-size: 150%'><span style='font-weight: bold; font-size: 100px; color: green;'>+10 points!</span><br><br></div>,,delaylearn,learning,feedback_image_window,5AdDuOMjzyXZRCLMJbddGqJi6HV2,5AdDuOMjzyXZRCLMJbddGqJi6HV2,,,,,,,,,,,,,,,,,,,,,,62e95680b0415811dccf7147,16:53:35,27/03/2024
html-keyboard-response,208,411168,0.0-86.0,,"<div style=""font-size:100px;"">+</div>",,delaylearn,learning,ITI,5AdDuOMjzyXZRCLMJbddGqJi6HV2,5AdDuOMjzyXZRCLMJbddGqJi6HV2,,,,,,,,,,,,,,,,,,,1649.0,,,62e95680b0415811dccf7147,16:53:35,27/03/2024
html-keyboard-response,209,411891,0.0-87.0-0.0,719.1999999284744,"<div style=""display: flex; flex-direction: column; align-items: center; margin-top: -40px;""><img src=""images/pattern_7.png"" style=""width: 234px; height: 230px; margin-top: -50px;""><div style=""display: flex; justify-content: space-between; margin-top: 33px;""><img src=""images/choice_trial_13.png"" style=""width: 408px; height: 417px; margin-right: 200px;""><img src=""images/choice_trial_14.png"" style=""width: 408px; height: 417px;""></div></div>",j,delaylearn,learning,trial,5AdDuOMjzyXZRCLMJbddGqJi6HV2,5AdDuOMjzyXZRCLMJbddGqJi6HV2,1.0,images/choice_trial_13.png,images/choice_trial_14.png,images/pattern_7.png,f,f,750.0,13.0,14.0,6.0,0.0,38.0,0.0,0.0,14.0,230.0,,,,,,62e95680b0415811dccf7147,16:53:35,27/03/2024
html-keyboard-response,210,412905,0.0-87.0-1.0,,"<div style=""display: flex; flex-direction: column; align-items: center; margin-top: -40px;""><img src=""images/pattern_7.png"" style=""width: 234px; height: 230px; margin-top: -50px;""><div style=""display: flex; justify-content: space-between; margin-top: 33px;""><img src=""images/choice_trial_14.png"" style=""width: 408px; height: 417px; margin-left:608px;""></div></div>",,delaylearn,learning,display_response,5AdDuOMjzyXZRCLMJbddGqJi6HV2,5AdDuOMjzyXZRCLMJbddGqJi6HV2,,,,,,,,,,,,,,,,,chosen stimuli: images/choice_trial_14.png,,,,,62e95680b0415811dccf7147,16:53:35,27/03/2024
html-keyboard-response,211,413666,0.0-87.0-2.0,,,,delaylearn,learning,feedback_duration_window,5AdDuOMjzyXZRCLMJbddGqJi6HV2,5AdDuOMjzyXZRCLMJbddGqJi6HV2,,,,,,,,,,,,,,,,,,750.0,,,,62e95680b0415811dccf7147,16:53:35,27/03/2024
html-keyboard-response,212,415178,0.0-87.0-3.0,,<div style='margin:auto;width: auto; font-size: 150%'><span style='font-weight: bold; font-size: 100px; color: red;'>0 points!</span><br><br></div>,,delaylearn,learning,feedback_image_window,5AdDuOMjzyXZRCLMJbddGqJi6HV2,5AdDuOMjzyXZRCLMJbddGqJi6HV2,,,,,,,,,,,,,,,,,,,,,,62e95680b0415811dccf7147,16:53:35,27/03/2024
html-keyboard-response,213,417016,0.0-88.0,,"<div style=""font-size:100px;"">+</div>",,delaylearn,learning,ITI,5AdDuOMjzyXZRCLMJbddGqJi6HV2,5AdDuOMjzyXZRCLMJbddGqJi6HV2,,,,,,,,,,,,,,,,,,,1831.0,,,62e95680b0415811dccf7147,16:53:35,27/03/2024
html-keyboard-response,214,417548,0.0-89.0-0.0,530.1000000238419,"<div style=""display: flex; flex-direction: column; align-items: center; margin-top: -40px;""><img src=""images/pattern_1.png"" style=""width: 234px; height: 230px; margin-top: -50px;""><div style=""display: flex; justify-content: space-between; margin-top: 33px;""><img src=""images/choice_trial_1.png"" style=""width: 408px; height: 417px; margin-right: 200px;""><img src=""images/choice_trial_2.png"" style=""width: 408px; height: 417px;""></div></div>",f,delaylearn,learning,trial,5AdDuOMjzyXZRCLMJbddGqJi6HV2,5AdDuOMjzyXZRCLMJbddGqJi6HV2,1.0,images/choice_trial_1.png,images/choice_trial_2.png,images/pattern_1.png,f,f,7000.0,1.0,2.0,1.0,0.0,39.0,1.0,1.0,1.0,240.0,,,,,,62e95680b0415811dccf7147,16:53:35,27/03/2024
html-keyboard-response,215,418559,0.0-89.0-1.0,,"<div style=""display: flex; flex-direction: column; align-items: center; margin-top: -40px;""><img src=""images/pattern_1.png"" style=""width: 234px; height: 230px; margin-top: -50px;""><div style=""display: flex; justify-content: space-between; margin-top: 33px;""><img src=""images/choice_trial_1.png"" style=""width: 408px; height: 417px; margin-right: 608px;""></div></div>",,delaylearn,learning,display_response,5AdDuOMjzyXZRCLMJbddGqJi6HV2,5AdDuOMjzyXZRCLMJbddGqJi6HV2,,,,,,,,,,,,,,,,,chosen stimuli: images/choice_trial_1.png,,,,,62e95680b0415811dccf7147,16:53:35,27/03/2024
html-keyboard-response,216,425571,0.0-89.0-2.0,,,,delaylearn,learning,feedback_duration_window,5AdDuOMjzyXZRCLMJbddGqJi6HV2,5AdDuOMjzyXZRCLMJbddGqJi6HV2,,,,,,,,,,,,,,,,,,7000.0,,,,62e95680b0415811dccf7147,16:53:35,27/03/2024
html-keyboard-response,217,427074,0.0-89.0-3.0,,<div style='margin:auto;width: auto; font-size: 150%'><span style='font-weight: bold; font-size: 100px; color: green;'>+10 points!</span><br><br></div>,,delaylearn,learning,feedback_image_window,5AdDuOMjzyXZRCLMJbddGqJi6HV2,5AdDuOMjzyXZRCLMJbddGqJi6HV2,,,,,,,,,,,,,,,,,,,,,,62e95680b0415811dccf7147,16:53:35,27/03/2024
html-keyboard-response,218,427583,0.0-90.0-0.0,,,,,,mood_trial_fixation,5AdDuOMjzyXZRCLMJbddGqJi6HV2,,,,,,,,,,,,,,,,,,,,,,,62e95680b0415811dccf7147,16:53:35,27/03/2024
lmdlab-html-vas-response,219,431946,0.0-90.0-1.0,3347.0,How happy are you right now?,0.28935185185185186,delaylearn,learning,mood_trial,5AdDuOMjzyXZRCLMJbddGqJi6HV2,5AdDuOMjzyXZRCLMJbddGqJi6HV2,,,,,,,,,,,,,,,,,,,,"['Very unhappy', 'Very happy']",,62e95680b0415811dccf7147,16:53:35,27/03/2024
html-keyboard-response,220,433590,0.0-91.0,,"<div style=""font-size:100px;"">+</div>",,delaylearn,learning,ITI,5AdDuOMjzyXZRCLMJbddGqJi6HV2,5AdDuOMjzyXZRCLMJbddGqJi6HV2,,,,,,,,,,,,,,,,,,,1627.0,,,62e95680b0415811dccf7147,16:53:35,27/03/2024
html-keyboard-response,221,434452,0.0-92.0-0.0,858.5,"<div style=""display: flex; flex-direction: column; align-items: center; margin-top: -40px;""><img src=""images/pattern_3.png"" style=""width: 234px; height: 230px; margin-top: -50px;""><div style=""display: flex; justify-content: space-between; margin-top: 33px;""><img src=""images/choice_trial_5.png"" style=""width: 408px; height: 417px; margin-right: 200px;""><img src=""images/choice_trial_6.png"" style=""width: 408px; height: 417px;""></div></div>",f,delaylearn,learning,trial,5AdDuOMjzyXZRCLMJbddGqJi6HV2,5AdDuOMjzyXZRCLMJbddGqJi6HV2,1.0,images/choice_trial_5.png,images/choice_trial_6.png,images/pattern_3.png,j,f,7000.0,5.0,6.0,2.0,0.0,40.0,1.0,0.0,5.0,240.0,,,,,,62e95680b0415811dccf7147,16:53:35,27/03/2024
html-keyboard-response,222,435462,0.0-92.0-1.0,,"<div style=""display: flex; flex-direction: column; align-items: center; margin-top: -40px;""><img src=""images/pattern_3.png"" style=""width: 234px; height: 230px; margin-top: -50px;""><div style=""display: flex; justify-content: space-between; margin-top: 33px;""><img src=""images/choice_trial_5.png"" style=""width: 408px; height: 417px; margin-right: 608px;""></div></div>",,delaylearn,learning,display_response,5AdDuOMjzyXZRCLMJbddGqJi6HV2,5AdDuOMjzyXZRCLMJbddGqJi6HV2,,,,,,,,,,,,,,,,,chosen stimuli: images/choice_trial_5.png,,,,,62e95680b0415811dccf7147,16:53:35,27/03/2024
html-keyboard-response,223,442467,0.0-92.0-2.0,,,,delaylearn,learning,feedback_duration_window,5AdDuOMjzyXZRCLMJbddGqJi6HV2,5AdDuOMjzyXZRCLMJbddGqJi6HV2,,,,,,,,,,,,,,,,,,7000.0,,,,62e95680b0415811dccf7147,16:53:35,27/03/2024
html-keyboard-response,224,443975,0.0-92.0-3.0,,<div style='margin:auto;width: auto; font-size: 150%'><span style='font-weight: bold; font-size: 100px; color: red;'>0 points!</span><br><br></div>,,delaylearn,learning,feedback_image_window,5AdDuOMjzyXZRCLMJbddGqJi6HV2,5AdDuOMjzyXZRCLMJbddGqJi6HV2,,,,,,,,,,,,,,,,,,,,,,62e95680b0415811dccf7147,16:53:35,27/03/2024
html-keyboard-response,225,446304,0.0-93.0,,"<div style=""font-size:100px;"">+</div>",,delaylearn,learning,ITI,5AdDuOMjzyXZRCLMJbddGqJi6HV2,5AdDuOMjzyXZRCLMJbddGqJi6HV2,,,,,,,,,,,,,,,,,,,2323.0,,,62e95680b0415811dccf7147,16:53:35,27/03/2024
html-keyboard-response,226,446771,0.0-94.0-0.0,463.0,"<div style=""display: flex; flex-direction: column; align-items: center; margin-top: -40px;""><img src=""images/pattern_7.png"" style=""width: 234px; height: 230px; margin-top: -50px;""><div style=""display: flex; justify-content: space-between; margin-top: 33px;""><img src=""images/choice_trial_14.png"" style=""width: 408px; height: 417px; margin-right: 200px;""><img src=""images/choice_trial_13.png"" style=""width: 408px; height: 417px;""></div></div>",j,delaylearn,learning,trial,5AdDuOMjzyXZRCLMJbddGqJi6HV2,5AdDuOMjzyXZRCLMJbddGqJi6HV2,1.0,images/choice_trial_14.png,images/choice_trial_13.png,images/pattern_7.png,j,j,750.0,14.0,13.0,6.0,1.0,41.0,1.0,1.0,13.0,250.0,,,,,,62e95680b0415811dccf7147,16:53:35,27/03/2024
html-keyboard-response,227,447781,0.0-94.0-1.0,,"<div style=""display: flex; flex-direction: column; align-items: center; margin-top: -40px;""><img src=""images/pattern_7.png"" style=""width: 234px; height: 230px; margin-top: -50px;""><div style=""display: flex; justify-content: space-between; margin-top: 33px;""><img src=""images/choice_trial_13.png"" style=""width: 408px; height: 417px; margin-left:608px;""></div></div>",,delaylearn,learning,display_response,5AdDuOMjzyXZRCLMJbddGqJi6HV2,5AdDuOMjzyXZRCLMJbddGqJi6HV2,,,,,,,,,,,,,,,,,chosen stimuli: images/choice_trial_13.png,,,,,62e95680b0415811dccf7147,16:53:35,27/03/2024
html-keyboard-response,228,448536,0.0-94.0-2.0,,,,delaylearn,learning,feedback_duration_window,5AdDuOMjzyXZRCLMJbddGqJi6HV2,5AdDuOMjzyXZRCLMJbddGqJi6HV2,,,,,,,,,,,,,,,,,,750.0,,,,62e95680b0415811dccf7147,16:53:35,27/03/2024
html-keyboard-response,229,450052,0.0-94.0-3.0,,<div style='margin:auto;width: auto; font-size: 150%'><span style='font-weight: bold; font-size: 100px; color: green;'>+10 points!</span><br><br></div>,,delaylearn,learning,feedback_image_window,5AdDuOMjzyXZRCLMJbddGqJi6HV2,5AdDuOMjzyXZRCLMJbddGqJi6HV2,,,,,,,,,,,,,,,,,,,,,,62e95680b0415811dccf7147,16:53:35,27/03/2024
html-keyboard-response,230,452148,0.0-95.0,,"<div style=""font-size:100px;"">+</div>",,delaylearn,learning,ITI,5AdDuOMjzyXZRCLMJbddGqJi6HV2,5AdDuOMjzyXZRCLMJbddGqJi6HV2,,,,,,,,,,,,,,,,,,,2088.0,,,62e95680b0415811dccf7147,16:53:35,27/03/2024
