trial_type,trial_index,time_elapsed,internal_node_id,rt,stimulus,response,exp_name,exp_stage,test_part,subjectID,databaseID,counterbal,choice_stimuli_1,choice_stimuli_2,pattern_stimuli,rewarded_answer,correct_answer,feedback_duration_times,stim_left,stim_right,pair,leftright_counter,trial,response_correct,response_rewarded,chosen_stim,counter,displayed_choice,feedback_durations,ITI_duration,labels,rest_warning,prolificID,start_time,date
pavlovia,0,1078,0.0-0.0,,,,,,,1d0zK1p21qerwAOK1MeidoTrsHB2,,,,,,,,,,,,,,,,,,,,,,,5a8ad2082a842c0001fce0f2,17:03:38,27/03/2024
html-keyboard-response,1,4088,0.0-1.0,,"<div style=""font-size:100px;"">+</div>",,delaylearn,learning,pre_fixation,1d0zK1p21qerwAOK1MeidoTrsHB2,,,,,,,,,,,,,,,,,,,,,,,5a8ad2082a842c0001fce0f2,17:03:38,27/03/2024
html-keyboard-response,2,5169,0.0-2.0-0.0,1073.9000000953674,"<div style=""display: flex; flex-direction: column; align-items: center; margin-top: -40px;""><img src=""images/demo_images/pattern_1.png"" style=""width: 234px; height: 230px; margin-top: -50px;""><div style=""display: flex; justify-content: space-between; margin-top: 33px;""><img src=""images/demo_images/choice_trial_2.png"" style=""width: 408px; height: 417px; margin-right: 200px;""><img src=""images/demo_images/choice_trial_1.png"" style=""width: 408px; height: 417px;""></div></div>",j,delaylearn,learning,trial,1d0zK1p21qerwAOK1MeidoTrsHB2,1d0zK1p21qerwAOK1MeidoTrsHB2,1.0,images/demo_images/choice_trial_2.png,images/demo_images/choice_trial_1.png,images/demo_images/pattern_1.png,j,j,3000.0,2.0,1.0,20.0,1.0,1.0,1.0,1.0,1.0,10.0,,,,,,5a8ad2082a842c0001fce0f2,17:03:38,27/03/2024
html-keyboard-response,3,6180,0.0-2.0-1.0,,"<div style=""display: flex; flex-direction: column; align-items: center; margin-top: -40px;""><img src=""images/demo_images/pattern_1.png"" style=""width: 234px; height: 230px; margin-top: -50px;""><div style=""display: flex; justify-content: space-between; margin-top: 33px;""><img src=""images/demo_images/choice_trial_1.png"" style=""width: 408px; height: 417px; margin-left:608px;""></div></div>",,delaylearn,learning,display_response,1d0zK1p21qerwAOK1MeidoTrsHB2,1d0zK1p21qerwAOK1MeidoTrsHB2,,,,,,,,,,,,,,,,,chosen stimuli: images/demo_images/choice_trial_1.png,,,,,5a8ad2082a842c0001fce0f2,17:03:38,27/03/2024
html-keyboard-response,4,9192,0.0-2.0-2.0,,,,delaylearn,learning,feedback_duration_window,1d0zK1p21qerwAOK1MeidoTrsHB2,1d0zK1p21qerwAOK1MeidoTrsHB2,,,,,,,,,,,,,,,,,,3000.0,,,,5a8ad2082a842c0001fce0f2,17:03:38,27/03/2024
html-keyboard-response,5,10709,0.0-2.0-3.0,,<div style='margin:auto;width: auto; font-size: 150%'><span style='font-weight: bold; font-size: 100px; color: green;'>+10 points!</span><br><br></div>,,delaylearn,learning,feedback_image_window,1d0zK1p21qerwAOK1MeidoTrsHB2,1d0zK1p21qerwAOK1MeidoTrsHB2,,,,,,,,,,,,,,,,,,,,,,5a8ad2082a842c0001fce0f2,17:03:38,27/03/2024
html-keyboard-response,6,12753,0.0-3.0,,"<div style=""font-size:100px;"">+</div>",,delaylearn,learning,ITI,1d0zK1p21qerwAOK1MeidoTrsHB2,1d0zK1p21qerwAOK1MeidoTrsHB2,,,,,,,,,,,,,,,,,,,2032.0,,,5a8ad2082a842c0001fce0f2,17:03:38,27/03/2024
html-keyboard-response,7,13476,0.0-4.0-0.0,715.7999997138977,"<div style=""display: flex; flex-direction: column; align-items: center; margin-top: -40px;""><img src=""images/demo_images/pattern_1.png"" style=""width: 234px; height: 230px; margin-top: -50px;""><div style=""display: flex; justify-content: space-between; margin-top: 33px;""><img src=""images/demo_images/choice_trial_2.png"" style=""width: 408px; height: 417px; margin-right: 200px;""><img src=""images/demo_images/choice_trial_1.png"" style=""width: 408px; height: 417px;""></div></div>",j,delaylearn,learning,trial,1d0zK1p21qerwAOK1MeidoTrsHB2,1d0zK1p21qerwAOK1MeidoTrsHB2,1.0,images/demo_images/choice_trial_2.png,images/demo_images/choice_trial_1.png,images/demo_images/pattern_1.png,j,j,3000.0,2.0,1.0,20.0,1.0,2.0,1.0,1.0,1.0,20.0,,,,,,5a8ad2082a842c0001fce0f2,17:03:38,27/03/2024
html-keyboard-response,8,14482,0.0-4.0-1.0,,"<div style=""display: flex; flex-direction: column; align-items: center; margin-top: -40px;""><img src=""images/demo_images/pattern_1.png"" style=""width: 234px; height: 230px; margin-top: -50px;""><div style=""display: flex; justify-content: space-between; margin-top: 33px;""><img src=""images/demo_images/choice_trial_1.png"" style=""width: 408px; height: 417px; margin-left:608px;""></div></div>",,delaylearn,learning,display_response,1d0zK1p21qerwAOK1MeidoTrsHB2,1d0zK1p21qerwAOK1MeidoTrsHB2,,,,,,,,,,,,,,,,,chosen stimuli: images/demo_images/choice_trial_1.png,,,,,5a8ad2082a842c0001fce0f2,17:03:38,27/03/2024
html-keyboard-response,9,17493,0.0-4.0-2.0,,,,delaylearn,learning,feedback_duration_window,1d0zK1p21qerwAOK1MeidoTrsHB2,1d0zK1p21qerwAOK1MeidoTrsHB2,,,,,,,,,,,,,,,,,,3000.0,,,,5a8ad2082a842c0001fce0f2,17:03:38,27/03/2024
html-keyboard-response,10,19006,0.0-4.0-3.0,,<div style='margin:auto;width: auto; font-size: 150%'><span style='font-weight: bold; font-size: 100px; color: green;'>+10 points!</span><br><br></div>,,delaylearn,learning,feedback_image_window,1d0zK1p21qerwAOK1MeidoTrsHB2,1d0zK1p21qerwAOK1MeidoTrsHB2,,,,,,,,,,,,,,,,,,,,,,5a8ad2082a842c0001fce0f2,17:03:38,27/03/2024
html-keyboard-response,11,21015,0.0-5.0,,"<div style=""font-size:100px;"">+</div>",,delaylearn,learning,ITI,1d0zK1p21qerwAOK1MeidoTrsHB2,1d0zK1p21qerwAOK1MeidoTrsHB2,,,,,,,,,,,,,,,,,,,2005.0,,,5a8ad2082a842c0001fce0f2,17:03:38,27/03/2024
html-keyboard-response,12,22008,0.0-6.0-0.0,988.7999997138977,"<div style=""display: flex; flex-direction: column; align-items: center; margin-top: -40px;""><img src=""images/demo_images/pattern_1.png"" style=""width: 234px; height: 230px; margin-top: -50px;""><div style=""display: flex; justify-content: space-between; margin-top: 33px;""><img src=""images/demo_images/choice_trial_1.png"" style=""width: 408px; height: 417px; margin-right: 200px;""><img src=""images/demo_images/choice_trial_2.png"" style=""width: 408px; height: 417px;""></div></div>",f,delaylearn,learning,trial,1d0zK1p21qerwAOK1MeidoTrsHB2,1d0zK1p21qerwAOK1MeidoTrsHB2,1.0,images/demo_images/choice_trial_1.png,images/demo_images/choice_trial_2.png,images/demo_images/pattern_1.png,j,f,3000.0,1.0,2.0,20.0,0.0,3.0,1.0,0.0,1.0,20.0,,,,,,5a8ad2082a842c0001fce0f2,17:03:38,27/03/2024
html-keyboard-response,13,23015,0.0-6.0-1.0,,"<div style=""display: flex; flex-direction: column; align-items: center; margin-top: -40px;""><img src=""images/demo_images/pattern_1.png"" style=""width: 234px; height: 230px; margin-top: -50px;""><div style=""display: flex; justify-content: space-between; margin-top: 33px;""><img src=""images/demo_images/choice_trial_1.png"" style=""width: 408px; height: 417px; margin-right: 608px;""></div></div>",,delaylearn,learning,display_response,1d0zK1p21qerwAOK1MeidoTrsHB2,1d0zK1p21qerwAOK1MeidoTrsHB2,,,,,,,,,,,,,,,,,chosen stimuli: images/demo_images/choice_trial_1.png,,,,,5a8ad2082a842c0001fce0f2,17:03:38,27/03/2024
html-keyboard-response,14,26027,0.0-6.0-2.0,,,,delaylearn,learning,feedback_duration_window,1d0zK1p21qerwAOK1MeidoTrsHB2,1d0zK1p21qerwAOK1MeidoTrsHB2,,,,,,,,,,,,,,,,,,3000.0,,,,5a8ad2082a842c0001fce0f2,17:03:38,27/03/2024
html-keyboard-response,15,27537,0.0-6.0-3.0,,<div style='margin:auto;width: auto; font-size: 150%'><span style='font-weight: bold; font-size: 100px; color: red;'>0 points!</span><br><br></div>,,delaylearn,learning,feedback_image_window,1d0zK1p21qerwAOK1MeidoTrsHB2,1d0zK1p21qerwAOK1MeidoTrsHB2,,,,,,,,,,,,,,,,,,,,,,5a8ad2082a842c0001fce0f2,17:03:38,27/03/2024
html-keyboard-response,16,29247,0.0-7.0,,"<div style=""font-size:100px;"">+</div>",,delaylearn,learning,ITI,1d0zK1p21qerwAOK1MeidoTrsHB2,1d0zK1p21qerwAOK1MeidoTrsHB2,,,,,,,,,,,,,,,,,,,1706.0,,,5a8ad2082a842c0001fce0f2,17:03:38,27/03/2024
html-keyboard-response,17,30299,0.0-8.0-0.0,1047.7000002861023,"<div style=""display: flex; flex-direction: column; align-items: center; margin-top: -40px;""><img src=""images/demo_images/pattern_1.png"" style=""width: 234px; height: 230px; margin-top: -50px;""><div style=""display: flex; justify-content: space-between; margin-top: 33px;""><img src=""images/demo_images/choice_trial_1.png"" style=""width: 408px; height: 417px; margin-right: 200px;""><img src=""images/demo_images/choice_trial_2.png"" style=""width: 408px; height: 417px;""></div></div>",f,delaylearn,learning,trial,1d0zK1p21qerwAOK1MeidoTrsHB2,1d0zK1p21qerwAOK1MeidoTrsHB2,1.0,images/demo_images/choice_trial_1.png,images/demo_images/choice_trial_2.png,images/demo_images/pattern_1.png,f,f,3000.0,1.0,2.0,20.0,0.0,4.0,1.0,1.0,1.0,30.0,,,,,,5a8ad2082a842c0001fce0f2,17:03:38,27/03/2024
html-keyboard-response,18,31306,0.0-8.0-1.0,,"<div style=""display: flex; flex-direction: column; align-items: center; margin-top: -40px;""><img src=""images/demo_images/pattern_1.png"" style=""width: 234px; height: 230px; margin-top: -50px;""><div style=""display: flex; justify-content: space-between; margin-top: 33px;""><img src=""images/demo_images/choice_trial_1.png"" style=""width: 408px; height: 417px; margin-right: 608px;""></div></div>",,delaylearn,learning,display_response,1d0zK1p21qerwAOK1MeidoTrsHB2,1d0zK1p21qerwAOK1MeidoTrsHB2,,,,,,,,,,,,,,,,,chosen stimuli: images/demo_images/choice_trial_1.png,,,,,5a8ad2082a842c0001fce0f2,17:03:38,27/03/2024
html-keyboard-response,19,34308,0.0-8.0-2.0,,,,delaylearn,learning,feedback_duration_window,1d0zK1p21qerwAOK1MeidoTrsHB2,1d0zK1p21qerwAOK1MeidoTrsHB2,,,,,,,,,,,,,,,,,,3000.0,,,,5a8ad2082a842c0001fce0f2,17:03:38,27/03/2024
html-keyboard-response,20,35816,0.0-8.0-3.0,,<div style='margin:auto;width: auto; font-size: 150%'><span style='font-weight: bold; font-size: 100px; color: green;'>+10 points!</span><br><br></div>,,delaylearn,learning,feedback_image_window,1d0zK1p21qerwAOK1MeidoTrsHB2,1d0zK1p21qerwAOK1MeidoTrsHB2,,,,,,,,,,,,,,,,,,,,,,5a8ad2082a842c0001fce0f2,17:03:38,27/03/2024
html-keyboard-response,21,36329,0.0-9.0-0.0,,,,,,mood_trial_fixation,1d0zK1p21qerwAOK1MeidoTrsHB2,,,,,,,,,,,,,,,,,,,,,,,5a8ad2082a842c0001fce0f2,17:03:38,27/03/2024
lmdlab-html-vas-response,22,42838,0.0-9.0-1.0,5472.0,How happy are you right now?,0.8940972222222222,delaylearn,learning,mood_trial,1d0zK1p21qerwAOK1MeidoTrsHB2,1d0zK1p21qerwAOK1MeidoTrsHB2,,,,,,,,,,,,,,,,,,,,"['Very unhappy', 'Very happy']",,5a8ad2082a842c0001fce0f2,17:03:38,27/03/2024
html-keyboard-response,23,44824,0.0-10.0,,"<div style=""font-size:100px;"">+</div>",,delaylearn,learning,ITI,1d0zK1p21qerwAOK1MeidoTrsHB2,1d0zK1p21qerwAOK1MeidoTrsHB2,,,,,,,,,,,,,,,,,,,1979.0,,,5a8ad2082a842c0001fce0f2,17:03:38,27/03/2024
html-keyboard-response,24,46191,0.0-11.0-0.0,1362.2999997138977,"<div style=""display: flex; flex-direction: column; align-items: center; margin-top: -40px;""><img src=""images/demo_images/pattern_1.png"" style=""width: 234px; height: 230px; margin-top: -50px;""><div style=""display: flex; justify-content: space-between; margin-top: 33px;""><img src=""images/demo_images/choice_trial_2.png"" style=""width: 408px; height: 417px; margin-right: 200px;""><img src=""images/demo_images/choice_trial_1.png"" style=""width: 408px; height: 417px;""></div></div>",j,delaylearn,learning,trial,1d0zK1p21qerwAOK1MeidoTrsHB2,1d0zK1p21qerwAOK1MeidoTrsHB2,1.0,images/demo_images/choice_trial_2.png,images/demo_images/choice_trial_1.png,images/demo_images/pattern_1.png,j,j,3000.0,2.0,1.0,20.0,1.0,5.0,1.0,1.0,1.0,40.0,,,,,,5a8ad2082a842c0001fce0f2,17:03:38,27/03/2024
html-keyboard-response,25,47208,0.0-11.0-1.0,,"<div style=""display: flex; flex-direction: column; align-items: center; margin-top: -40px;""><img src=""images/demo_images/pattern_1.png"" style=""width: 234px; height: 230px; margin-top: -50px;""><div style=""display: flex; justify-content: space-between; margin-top: 33px;""><img src=""images/demo_images/choice_trial_1.png"" style=""width: 408px; height: 417px; margin-left:608px;""></div></div>",,delaylearn,learning,display_response,1d0zK1p21qerwAOK1MeidoTrsHB2,1d0zK1p21qerwAOK1MeidoTrsHB2,,,,,,,,,,,,,,,,,chosen stimuli: images/demo_images/choice_trial_1.png,,,,,5a8ad2082a842c0001fce0f2,17:03:38,27/03/2024
html-keyboard-response,26,50211,0.0-11.0-2.0,,,,delaylearn,learning,feedback_duration_window,1d0zK1p21qerwAOK1MeidoTrsHB2,1d0zK1p21qerwAOK1MeidoTrsHB2,,,,,,,,,,,,,,,,,,3000.0,,,,5a8ad2082a842c0001fce0f2,17:03:38,27/03/2024
html-keyboard-response,27,51728,0.0-11.0-3.0,,<div style='margin:auto;width: auto; font-size: 150%'><span style='font-weight: bold; font-size: 100px; color: green;'>+10 points!</span><br><br></div>,,delaylearn,learning,feedback_image_window,1d0zK1p21qerwAOK1MeidoTrsHB2,1d0zK1p21qerwAOK1MeidoTrsHB2,,,,,,,,,,,,,,,,,,,,,,5a8ad2082a842c0001fce0f2,17:03:38,27/03/2024
html-keyboard-response,28,53657,0.0-12.0,,"<div style=""font-size:100px;"">+</div>",,delaylearn,learning,ITI,1d0zK1p21qerwAOK1MeidoTrsHB2,1d0zK1p21qerwAOK1MeidoTrsHB2,,,,,,,,,,,,,,,,,,,1912.0,,,5a8ad2082a842c0001fce0f2,17:03:38,27/03/2024
html-keyboard-response,29,54702,0.0-13.0-0.0,1039.7000002861023,"<div style=""display: flex; flex-direction: column; align-items: center; margin-top: -40px;""><img src=""images/demo_images/pattern_1.png"" style=""width: 234px; height: 230px; margin-top: -50px;""><div style=""display: flex; justify-content: space-between; margin-top: 33px;""><img src=""images/demo_images/choice_trial_1.png"" style=""width: 408px; height: 417px; margin-right: 200px;""><img src=""images/demo_images/choice_trial_2.png"" style=""width: 408px; height: 417px;""></div></div>",f,delaylearn,learning,trial,1d0zK1p21qerwAOK1MeidoTrsHB2,1d0zK1p21qerwAOK1MeidoTrsHB2,1.0,images/demo_images/choice_trial_1.png,images/demo_images/choice_trial_2.png,images/demo_images/pattern_1.png,f,f,3000.0,1.0,2.0,20.0,0.0,6.0,1.0,1.0,1.0,50.0,,,,,,5a8ad2082a842c0001fce0f2,17:03:38,27/03/2024
html-keyboard-response,30,55721,0.0-13.0-1.0,,"<div style=""display: flex; flex-direction: column; align-items: center; margin-top: -40px;""><img src=""images/demo_images/pattern_1.png"" style=""width: 234px; height: 230px; margin-top: -50px;""><div style=""display: flex; justify-content: space-between; margin-top: 33px;""><img src=""images/demo_images/choice_trial_1.png"" style=""width: 408px; height: 417px; margin-right: 608px;""></div></div>",,delaylearn,learning,display_response,1d0zK1p21qerwAOK1MeidoTrsHB2,1d0zK1p21qerwAOK1MeidoTrsHB2,,,,,,,,,,,,,,,,,chosen stimuli: images/demo_images/choice_trial_1.png,,,,,5a8ad2082a842c0001fce0f2,17:03:38,27/03/2024
html-keyboard-response,31,58736,0.0-13.0-2.0,,,,delaylearn,learning,feedback_duration_window,1d0zK1p21qerwAOK1MeidoTrsHB2,1d0zK1p21qerwAOK1MeidoTrsHB2,,,,,,,,,,,,,,,,,,3000.0,,,,5a8ad2082a842c0001fce0f2,17:03:38,27/03/2024
html-keyboard-response,32,60242,0.0-13.0-3.0,,<div style='margin:auto;width: auto; font-size: 150%'><span style='font-weight: bold; font-size: 100px; color: green;'>+10 points!</span><br><br></div>,,delaylearn,learning,feedback_image_window,1d0zK1p21qerwAOK1MeidoTrsHB2,1d0zK1p21qerwAOK1MeidoTrsHB2,,,,,,,,,,,,,,,,,,,,,,5a8ad2082a842c0001fce0f2,17:03:38,27/03/2024
html-keyboard-response,33,62504,0.0-14.0,,"<div style=""font-size:100px;"">+</div>",,delaylearn,learning,ITI,1d0zK1p21qerwAOK1MeidoTrsHB2,1d0zK1p21qerwAOK1MeidoTrsHB2,,,,,,,,,,,,,,,,,,,2247.0,,,5a8ad2082a842c0001fce0f2,17:03:38,27/03/2024
html-keyboard-response,34,63842,0.0-15.0-0.0,1333.1999998092651,"<div style=""display: flex; flex-direction: column; align-items: center; margin-top: -40px;""><img src=""images/demo_images/pattern_1.png"" style=""width: 234px; height: 230px; margin-top: -50px;""><div style=""display: flex; justify-content: space-between; margin-top: 33px;""><img src=""images/demo_images/choice_trial_2.png"" style=""width: 408px; height: 417px; margin-right: 200px;""><img src=""images/demo_images/choice_trial_1.png"" style=""width: 408px; height: 417px;""></div></div>",j,delaylearn,learning,trial,1d0zK1p21qerwAOK1MeidoTrsHB2,1d0zK1p21qerwAOK1MeidoTrsHB2,1.0,images/demo_images/choice_trial_2.png,images/demo_images/choice_trial_1.png,images/demo_images/pattern_1.png,j,j,3000.0,2.0,1.0,20.0,1.0,7.0,1.0,1.0,1.0,60.0,,,,,,5a8ad2082a842c0001fce0f2,17:03:38,27/03/2024
html-keyboard-response,35,64847,0.0-15.0-1.0,,"<div style=""display: flex; flex-direction: column; align-items: center; margin-top: -40px;""><img src=""images/demo_images/pattern_1.png"" style=""width: 234px; height: 230px; margin-top: -50px;""><div style=""display: flex; justify-content: space-between; margin-top: 33px;""><img src=""images/demo_images/choice_trial_1.png"" style=""width: 408px; height: 417px; margin-left:608px;""></div></div>",,delaylearn,learning,display_response,1d0zK1p21qerwAOK1MeidoTrsHB2,1d0zK1p21qerwAOK1MeidoTrsHB2,,,,,,,,,,,,,,,,,chosen stimuli: images/demo_images/choice_trial_1.png,,,,,5a8ad2082a842c0001fce0f2,17:03:38,27/03/2024
html-keyboard-response,36,67853,0.0-15.0-2.0,,,,delaylearn,learning,feedback_duration_window,1d0zK1p21qerwAOK1MeidoTrsHB2,1d0zK1p21qerwAOK1MeidoTrsHB2,,,,,,,,,,,,,,,,,,3000.0,,,,5a8ad2082a842c0001fce0f2,17:03:38,27/03/2024
html-keyboard-response,37,69364,0.0-15.0-3.0,,<div style='margin:auto;width: auto; font-size: 150%'><span style='font-weight: bold; font-size: 100px; color: green;'>+10 points!</span><br><br></div>,,delaylearn,learning,feedback_image_window,1d0zK1p21qerwAOK1MeidoTrsHB2,1d0zK1p21qerwAOK1MeidoTrsHB2,,,,,,,,,,,,,,,,,,,,,,5a8ad2082a842c0001fce0f2,17:03:38,27/03/2024
html-keyboard-response,38,71683,0.0-16.0,,"<div style=""font-size:100px;"">+</div>",,delaylearn,learning,ITI,1d0zK1p21qerwAOK1MeidoTrsHB2,1d0zK1p21qerwAOK1MeidoTrsHB2,,,,,,,,,,,,,,,,,,,2306.0,,,5a8ad2082a842c0001fce0f2,17:03:38,27/03/2024
html-keyboard-response,39,72674,0.0-17.0-0.0,986.9000000953674,"<div style=""display: flex; flex-direction: column; align-items: center; margin-top: -40px;""><img src=""images/demo_images/pattern_1.png"" style=""width: 234px; height: 230px; margin-top: -50px;""><div style=""display: flex; justify-content: space-between; margin-top: 33px;""><img src=""images/demo_images/choice_trial_1.png"" style=""width: 408px; height: 417px; margin-right: 200px;""><img src=""images/demo_images/choice_trial_2.png"" style=""width: 408px; height: 417px;""></div></div>",f,delaylearn,learning,trial,1d0zK1p21qerwAOK1MeidoTrsHB2,1d0zK1p21qerwAOK1MeidoTrsHB2,1.0,images/demo_images/choice_trial_1.png,images/demo_images/choice_trial_2.png,images/demo_images/pattern_1.png,f,f,3000.0,1.0,2.0,20.0,0.0,8.0,1.0,1.0,1.0,70.0,,,,,,5a8ad2082a842c0001fce0f2,17:03:38,27/03/2024
html-keyboard-response,40,73691,0.0-17.0-1.0,,"<div style=""display: flex; flex-direction: column; align-items: center; margin-top: -40px;""><img src=""images/demo_images/pattern_1.png"" style=""width: 234px; height: 230px; margin-top: -50px;""><div style=""display: flex; justify-content: space-between; margin-top: 33px;""><img src=""images/demo_images/choice_trial_1.png"" style=""width: 408px; height: 417px; margin-right: 608px;""></div></div>",,delaylearn,learning,display_response,1d0zK1p21qerwAOK1MeidoTrsHB2,1d0zK1p21qerwAOK1MeidoTrsHB2,,,,,,,,,,,,,,,,,chosen stimuli: images/demo_images/choice_trial_1.png,,,,,5a8ad2082a842c0001fce0f2,17:03:38,27/03/2024
html-keyboard-response,41,76708,0.0-17.0-2.0,,,,delaylearn,learning,feedback_duration_window,1d0zK1p21qerwAOK1MeidoTrsHB2,1d0zK1p21qerwAOK1MeidoTrsHB2,,,,,,,,,,,,,,,,,,3000.0,,,,5a8ad2082a842c0001fce0f2,17:03:38,27/03/2024
html-keyboard-response,42,78216,0.0-17.0-3.0,,<div style='margin:auto;width: auto; font-size: 150%'><span style='font-weight: bold; font-size: 100px; color: green;'>+10 points!</span><br><br></div>,,delaylearn,learning,feedback_image_window,1d0zK1p21qerwAOK1MeidoTrsHB2,1d0zK1p21qerwAOK1MeidoTrsHB2,,,,,,,,,,,,,,,,,,,,,,5a8ad2082a842c0001fce0f2,17:03:38,27/03/2024
html-button-response,43,80489,0.0-18.0,2267.800000190735,"
  <div style=""display: flex; align-items: center; justify-content: center; height: 80vh;"">
  <div>
          <img src=""images/inst_demo_finish.png"" style=""width: 80vw; height:auto;"">
          <br><br>
      </div>
      <br><br>
  </div>",0,,,,1d0zK1p21qerwAOK1MeidoTrsHB2,,,,,,,,,,,,,,,,,,,,,,,5a8ad2082a842c0001fce0f2,17:03:38,27/03/2024
html-keyboard-response,44,85179,0.0-19.0,4685.300000190735,"
  <div style=""display: flex; align-items: center; justify-content: center; height: 80vh;"">
  <div>
          <img src=""images/inst_6.png"" style=""width: 80vw; height:auto;"">
          <br><br>
      </div>
      <br><br>
  </div>",f,,,,1d0zK1p21qerwAOK1MeidoTrsHB2,,,,,,,,,,,,,,,,,,,,,,,5a8ad2082a842c0001fce0f2,17:03:38,27/03/2024
html-keyboard-response,45,88197,0.0-20.0,,"<div style=""font-size:100px;"">+</div>",,delaylearn,learning,pre_fixation,1d0zK1p21qerwAOK1MeidoTrsHB2,,,,,,,,,,,,,,,,,,,,,,,5a8ad2082a842c0001fce0f2,17:03:38,27/03/2024
html-keyboard-response,46,89798,0.0-21.0,,"<div style=""font-size:100px;"">+</div>",,delaylearn,learning,ITI,1d0zK1p21qerwAOK1MeidoTrsHB2,1d0zK1p21qerwAOK1MeidoTrsHB2,,,,,,,,,,,,,,,,,,,1587.0,,,5a8ad2082a842c0001fce0f2,17:03:38,27/03/2024
html-keyboard-response,47,91757,0.0-22.0-0.0,1953.9000000953674,"<div style=""display: flex; flex-direction: column; align-items: center; margin-top: -40px;""><img src=""images/pattern_3.png"" style=""width: 234px; height: 230px; margin-top: -50px;""><div style=""display: flex; justify-content: space-between; margin-top: 33px;""><img src=""images/choice_trial_5.png"" style=""width: 408px; height: 417px; margin-right: 200px;""><img src=""images/choice_trial_6.png"" style=""width: 408px; height: 417px;""></div></div>",j,delaylearn,learning,trial,1d0zK1p21qerwAOK1MeidoTrsHB2,1d0zK1p21qerwAOK1MeidoTrsHB2,1.0,images/choice_trial_5.png,images/choice_trial_6.png,images/pattern_3.png,f,f,7000.0,5.0,6.0,2.0,0.0,9.0,0.0,0.0,6.0,70.0,,,,,,5a8ad2082a842c0001fce0f2,17:03:38,27/03/2024
html-keyboard-response,48,92770,0.0-22.0-1.0,,"<div style=""display: flex; flex-direction: column; align-items: center; margin-top: -40px;""><img src=""images/pattern_3.png"" style=""width: 234px; height: 230px; margin-top: -50px;""><div style=""display: flex; justify-content: space-between; margin-top: 33px;""><img src=""images/choice_trial_6.png"" style=""width: 408px; height: 417px; margin-left:608px;""></div></div>",,delaylearn,learning,display_response,1d0zK1p21qerwAOK1MeidoTrsHB2,1d0zK1p21qerwAOK1MeidoTrsHB2,,,,,,,,,,,,,,,,,chosen stimuli: images/choice_trial_6.png,,,,,5a8ad2082a842c0001fce0f2,17:03:38,27/03/2024
html-keyboard-response,49,99780,0.0-22.0-2.0,,,,delaylearn,learning,feedback_duration_window,1d0zK1p21qerwAOK1MeidoTrsHB2,1d0zK1p21qerwAOK1MeidoTrsHB2,,,,,,,,,,,,,,,,,,7000.0,,,,5a8ad2082a842c0001fce0f2,17:03:38,27/03/2024
html-keyboard-response,50,101293,0.0-22.0-3.0,,<div style='margin:auto;width: auto; font-size: 150%'><span style='font-weight: bold; font-size: 100px; color: red;'>0 points!</span><br><br></div>,,delaylearn,learning,feedback_image_window,1d0zK1p21qerwAOK1MeidoTrsHB2,1d0zK1p21qerwAOK1MeidoTrsHB2,,,,,,,,,,,,,,,,,,,,,,5a8ad2082a842c0001fce0f2,17:03:38,27/03/2024
html-keyboard-response,51,103303,0.0-23.0,,"<div style=""font-size:100px;"">+</div>",,delaylearn,learning,ITI,1d0zK1p21qerwAOK1MeidoTrsHB2,1d0zK1p21qerwAOK1MeidoTrsHB2,,,,,,,,,,,,,,,,,,,1997.0,,,5a8ad2082a842c0001fce0f2,17:03:38,27/03/2024
html-keyboard-response,52,104914,0.0-24.0-0.0,1605.2000002861023,"<div style=""display: flex; flex-direction: column; align-items: center; margin-top: -40px;""><img src=""images/pattern_7.png"" style=""width: 234px; height: 230px; margin-top: -50px;""><div style=""display: flex; justify-content: space-between; margin-top: 33px;""><img src=""images/choice_trial_14.png"" style=""width: 408px; height: 417px; margin-right: 200px;""><img src=""images/choice_trial_13.png"" style=""width: 408px; height: 417px;""></div></div>",f,delaylearn,learning,trial,1d0zK1p21qerwAOK1MeidoTrsHB2,1d0zK1p21qerwAOK1MeidoTrsHB2,1.0,images/choice_trial_14.png,images/choice_trial_13.png,images/pattern_7.png,j,j,750.0,14.0,13.0,6.0,1.0,10.0,0.0,0.0,14.0,70.0,,,,,,5a8ad2082a842c0001fce0f2,17:03:38,27/03/2024
html-keyboard-response,53,105931,0.0-24.0-1.0,,"<div style=""display: flex; flex-direction: column; align-items: center; margin-top: -40px;""><img src=""images/pattern_7.png"" style=""width: 234px; height: 230px; margin-top: -50px;""><div style=""display: flex; justify-content: space-between; margin-top: 33px;""><img src=""images/choice_trial_14.png"" style=""width: 408px; height: 417px; margin-right: 608px;""></div></div>",,delaylearn,learning,display_response,1d0zK1p21qerwAOK1MeidoTrsHB2,1d0zK1p21qerwAOK1MeidoTrsHB2,,,,,,,,,,,,,,,,,chosen stimuli: images/choice_trial_14.png,,,,,5a8ad2082a842c0001fce0f2,17:03:38,27/03/2024
html-keyboard-response,54,106686,0.0-24.0-2.0,,,,delaylearn,learning,feedback_duration_window,1d0zK1p21qerwAOK1MeidoTrsHB2,1d0zK1p21qerwAOK1MeidoTrsHB2,,,,,,,,,,,,,,,,,,750.0,,,,5a8ad2082a842c0001fce0f2,17:03:38,27/03/2024
html-keyboard-response,55,108193,0.0-24.0-3.0,,<div style='margin:auto;width: auto; font-size: 150%'><span style='font-weight: bold; font-size: 100px; color: red;'>0 points!</span><br><br></div>,,delaylearn,learning,feedback_image_window,1d0zK1p21qerwAOK1MeidoTrsHB2,1d0zK1p21qerwAOK1MeidoTrsHB2,,,,,,,,,,,,,,,,,,,,,,5a8ad2082a842c0001fce0f2,17:03:38,27/03/2024
html-keyboard-response,56,110175,0.0-25.0,,"<div style=""font-size:100px;"">+</div>",,delaylearn,learning,ITI,1d0zK1p21qerwAOK1MeidoTrsHB2,1d0zK1p21qerwAOK1MeidoTrsHB2,,,,,,,,,,,,,,,,,,,1966.0,,,5a8ad2082a842c0001fce0f2,17:03:38,27/03/2024
html-keyboard-response,57,111813,0.0-26.0-0.0,1633.1999998092651,"<div style=""display: flex; flex-direction: column; align-items: center; margin-top: -40px;""><img src=""images/pattern_4.png"" style=""width: 234px; height: 230px; margin-top: -50px;""><div style=""display: flex; justify-content: space-between; margin-top: 33px;""><img src=""images/choice_trial_7.png"" style=""width: 408px; height: 417px; margin-right: 200px;""><img src=""images/choice_trial_8.png"" style=""width: 408px; height: 417px;""></div></div>",j,delaylearn,learning,trial,1d0zK1p21qerwAOK1MeidoTrsHB2,1d0zK1p21qerwAOK1MeidoTrsHB2,1.0,images/choice_trial_7.png,images/choice_trial_8.png,images/pattern_4.png,f,f,7000.0,7.0,8.0,3.0,0.0,11.0,0.0,0.0,8.0,70.0,,,,,,5a8ad2082a842c0001fce0f2,17:03:38,27/03/2024
html-keyboard-response,58,112828,0.0-26.0-1.0,,"<div style=""display: flex; flex-direction: column; align-items: center; margin-top: -40px;""><img src=""images/pattern_4.png"" style=""width: 234px; height: 230px; margin-top: -50px;""><div style=""display: flex; justify-content: space-between; margin-top: 33px;""><img src=""images/choice_trial_8.png"" style=""width: 408px; height: 417px; margin-left:608px;""></div></div>",,delaylearn,learning,display_response,1d0zK1p21qerwAOK1MeidoTrsHB2,1d0zK1p21qerwAOK1MeidoTrsHB2,,,,,,,,,,,,,,,,,chosen stimuli: images/choice_trial_8.png,,,,,5a8ad2082a842c0001fce0f2,17:03:38,27/03/2024
html-keyboard-response,59,119832,0.0-26.0-2.0,,,,delaylearn,learning,feedback_duration_window,1d0zK1p21qerwAOK1MeidoTrsHB2,1d0zK1p21qerwAOK1MeidoTrsHB2,,,,,,,,,,,,,,,,,,7000.0,,,,5a8ad2082a842c0001fce0f2,17:03:38,27/03/2024
html-keyboard-response,60,121337,0.0-26.0-3.0,,<div style='margin:auto;width: auto; font-size: 150%'><span style='font-weight: bold; font-size: 100px; color: red;'>0 points!</span><br><br></div>,,delaylearn,learning,feedback_image_window,1d0zK1p21qerwAOK1MeidoTrsHB2,1d0zK1p21qerwAOK1MeidoTrsHB2,,,,,,,,,,,,,,,,,,,,,,5a8ad2082a842c0001fce0f2,17:03:38,27/03/2024
html-keyboard-response,61,122934,0.0-27.0,,"<div style=""font-size:100px;"">+</div>",,delaylearn,learning,ITI,1d0zK1p21qerwAOK1MeidoTrsHB2,1d0zK1p21qerwAOK1MeidoTrsHB2,,,,,,,,,,,,,,,,,,,1591.0,,,5a8ad2082a842c0001fce0f2,17:03:38,27/03/2024
html-keyboard-response,62,124882,0.0-28.0-0.0,1942.6999998092651,"<div style=""display: flex; flex-direction: column; align-items: center; margin-top: -40px;""><img src=""images/pattern_5.png"" style=""width: 234px; height: 230px; margin-top: -50px;""><div style=""display: flex; justify-content: space-between; margin-top: 33px;""><img src=""images/choice_trial_10.png"" style=""width: 408px; height: 417px; margin-right: 200px;""><img src=""images/choice_trial_9.png"" style=""width: 408px; height: 417px;""></div></div>",j,delaylearn,learning,trial,1d0zK1p21qerwAOK1MeidoTrsHB2,1d0zK1p21qerwAOK1MeidoTrsHB2,1.0,images/choice_trial_10.png,images/choice_trial_9.png,images/pattern_5.png,j,j,750.0,10.0,9.0,4.0,1.0,12.0,1.0,1.0,9.0,80.0,,,,,,5a8ad2082a842c0001fce0f2,17:03:38,27/03/2024
html-keyboard-response,63,125899,0.0-28.0-1.0,,"<div style=""display: flex; flex-direction: column; align-items: center; margin-top: -40px;""><img src=""images/pattern_5.png"" style=""width: 234px; height: 230px; margin-top: -50px;""><div style=""display: flex; justify-content: space-between; margin-top: 33px;""><img src=""images/choice_trial_9.png"" style=""width: 408px; height: 417px; margin-left:608px;""></div></div>",,delaylearn,learning,display_response,1d0zK1p21qerwAOK1MeidoTrsHB2,1d0zK1p21qerwAOK1MeidoTrsHB2,,,,,,,,,,,,,,,,,chosen stimuli: images/choice_trial_9.png,,,,,5a8ad2082a842c0001fce0f2,17:03:38,27/03/2024
html-keyboard-response,64,126660,0.0-28.0-2.0,,,,delaylearn,learning,feedback_duration_window,1d0zK1p21qerwAOK1MeidoTrsHB2,1d0zK1p21qerwAOK1MeidoTrsHB2,,,,,,,,,,,,,,,,,,750.0,,,,5a8ad2082a842c0001fce0f2,17:03:38,27/03/2024
html-keyboard-response,65,128173,0.0-28.0-3.0,,<div style='margin:auto;width: auto; font-size: 150%'><span style='font-weight: bold; font-size: 100px; color: green;'>+10 points!</span><br><br></div>,,delaylearn,learning,feedback_image_window,1d0zK1p21qerwAOK1MeidoTrsHB2,1d0zK1p21qerwAOK1MeidoTrsHB2,,,,,,,,,,,,,,,,,,,,,,5a8ad2082a842c0001fce0f2,17:03:38,27/03/2024
html-keyboard-response,66,130385,0.0-29.0,,"<div style=""font-size:100px;"">+</div>",,delaylearn,learning,ITI,1d0zK1p21qerwAOK1MeidoTrsHB2,1d0zK1p21qerwAOK1MeidoTrsHB2,,,,,,,,,,,,,,,,,,,2195.0,,,5a8ad2082a842c0001fce0f2,17:03:38,27/03/2024
html-keyboard-response,67,132307,0.0-30.0-0.0,1916.3000001907349,"<div style=""display: flex; flex-direction: column; align-items: center; margin-top: -40px;""><img src=""images/pattern_6.png"" style=""width: 234px; height: 230px; margin-top: -50px;""><div style=""display: flex; justify-content: space-between; margin-top: 33px;""><img src=""images/choice_trial_11.png"" style=""width: 408px; height: 417px; margin-right: 200px;""><img src=""images/choice_trial_12.png"" style=""width: 408px; height: 417px;""></div></div>",j,delaylearn,learning,trial,1d0zK1p21qerwAOK1MeidoTrsHB2,1d0zK1p21qerwAOK1MeidoTrsHB2,1.0,images/choice_trial_11.png,images/choice_trial_12.png,images/pattern_6.png,j,f,750.0,11.0,12.0,5.0,0.0,13.0,0.0,1.0,12.0,90.0,,,,,,5a8ad2082a842c0001fce0f2,17:03:38,27/03/2024
html-keyboard-response,68,133315,0.0-30.0-1.0,,"<div style=""display: flex; flex-direction: column; align-items: center; margin-top: -40px;""><img src=""images/pattern_6.png"" style=""width: 234px; height: 230px; margin-top: -50px;""><div style=""display: flex; justify-content: space-between; margin-top: 33px;""><img src=""images/choice_trial_12.png"" style=""width: 408px; height: 417px; margin-left:608px;""></div></div>",,delaylearn,learning,display_response,1d0zK1p21qerwAOK1MeidoTrsHB2,1d0zK1p21qerwAOK1MeidoTrsHB2,,,,,,,,,,,,,,,,,chosen stimuli: images/choice_trial_12.png,,,,,5a8ad2082a842c0001fce0f2,17:03:38,27/03/2024
html-keyboard-response,69,134075,0.0-30.0-2.0,,,,delaylearn,learning,feedback_duration_window,1d0zK1p21qerwAOK1MeidoTrsHB2,1d0zK1p21qerwAOK1MeidoTrsHB2,,,,,,,,,,,,,,,,,,750.0,,,,5a8ad2082a842c0001fce0f2,17:03:38,27/03/2024
html-keyboard-response,70,135585,0.0-30.0-3.0,,<div style='margin:auto;width: auto; font-size: 150%'><span style='font-weight: bold; font-size: 100px; color: green;'>+10 points!</span><br><br></div>,,delaylearn,learning,feedback_image_window,1d0zK1p21qerwAOK1MeidoTrsHB2,1d0zK1p21qerwAOK1MeidoTrsHB2,,,,,,,,,,,,,,,,,,,,,,5a8ad2082a842c0001fce0f2,17:03:38,27/03/2024
html-keyboard-response,71,136099,0.0-31.0-0.0,,,,,,mood_trial_fixation,1d0zK1p21qerwAOK1MeidoTrsHB2,,,,,,,,,,,,,,,,,,,,,,,5a8ad2082a842c0001fce0f2,17:03:38,27/03/2024
lmdlab-html-vas-response,72,140761,0.0-31.0-1.0,3641.0,How happy are you right now?,0.4826388888888889,delaylearn,learning,mood_trial,1d0zK1p21qerwAOK1MeidoTrsHB2,1d0zK1p21qerwAOK1MeidoTrsHB2,,,,,,,,,,,,,,,,,,,,"['Very unhappy', 'Very happy']",,5a8ad2082a842c0001fce0f2,17:03:38,27/03/2024
html-keyboard-response,73,142840,0.0-32.0,,"<div style=""font-size:100px;"">+</div>",,delaylearn,learning,ITI,1d0zK1p21qerwAOK1MeidoTrsHB2,1d0zK1p21qerwAOK1MeidoTrsHB2,,,,,,,,,,,,,,,,,,,2065.0,,,5a8ad2082a842c0001fce0f2,17:03:38,27/03/2024
html-keyboard-response,74,144047,0.0-33.0-0.0,1202.4000000953674,"<div style=""display: flex; flex-direction: column; align-items: center; margin-top: -40px;""><img src=""images/pattern_1.png"" style=""width: 234px; height: 230px; margin-top: -50px;""><div style=""display: flex; justify-content: space-between; margin-top: 33px;""><img src=""images/choice_trial_2.png"" style=""width: 408px; height: 417px; margin-right: 200px;""><img src=""images/choice_trial_1.png"" style=""width: 408px; height: 417px;""></div></div>",j,delaylearn,learning,trial,1d0zK1p21qerwAOK1MeidoTrsHB2,1d0zK1p21qerwAOK1MeidoTrsHB2,1.0,images/choice_trial_2.png,images/choice_trial_1.png,images/pattern_1.png,j,j,7000.0,2.0,1.0,1.0,1.0,14.0,1.0,1.0,1.0,100.0,,,,,,5a8ad2082a842c0001fce0f2,17:03:38,27/03/2024
html-keyboard-response,75,145061,0.0-33.0-1.0,,"<div style=""display: flex; flex-direction: column; align-items: center; margin-top: -40px;""><img src=""images/pattern_1.png"" style=""width: 234px; height: 230px; margin-top: -50px;""><div style=""display: flex; justify-content: space-between; margin-top: 33px;""><img src=""images/choice_trial_1.png"" style=""width: 408px; height: 417px; margin-left:608px;""></div></div>",,delaylearn,learning,display_response,1d0zK1p21qerwAOK1MeidoTrsHB2,1d0zK1p21qerwAOK1MeidoTrsHB2,,,,,,,,,,,,,,,,,chosen stimuli: images/choice_trial_1.png,,,,,5a8ad2082a842c0001fce0f2,17:03:38,27/03/2024
html-keyboard-response,76,152072,0.0-33.0-2.0,,,,delaylearn,learning,feedback_duration_window,1d0zK1p21qerwAOK1MeidoTrsHB2,1d0zK1p21qerwAOK1MeidoTrsHB2,,,,,,,,,,,,,,,,,,7000.0,,,,5a8ad2082a842c0001fce0f2,17:03:38,27/03/2024
html-keyboard-response,77,153578,0.0-33.0-3.0,,<div style='margin:auto;width: auto; font-size: 150%'><span style='font-weight: bold; font-size: 100px; color: green;'>+10 points!</span><br><br></div>,,delaylearn,learning,feedback_image_window,1d0zK1p21qerwAOK1MeidoTrsHB2,1d0zK1p21qerwAOK1MeidoTrsHB2,,,,,,,,,,,,,,,,,,,,,,5a8ad2082a842c0001fce0f2,17:03:38,27/03/2024
html-keyboard-response,78,155165,0.0-34.0,,"<div style=""font-size:100px;"">+</div>",,delaylearn,learning,ITI,1d0zK1p21qerwAOK1MeidoTrsHB2,1d0zK1p21qerwAOK1MeidoTrsHB2,,,,,,,,,,,,,,,,,,,1572.0,,,5a8ad2082a842c0001fce0f2,17:03:38,27/03/2024
html-keyboard-response,79,156861,0.0-35.0-0.0,1690.4000000953674,"<div style=""display: flex; flex-direction: column; align-items: center; margin-top: -40px;""><img src=""images/pattern_3.png"" style=""width: 234px; height: 230px; margin-top: -50px;""><div style=""display: flex; justify-content: space-between; margin-top: 33px;""><img src=""images/choice_trial_6.png"" style=""width: 408px; height: 417px; margin-right: 200px;""><img src=""images/choice_trial_5.png"" style=""width: 408px; height: 417px;""></div></div>",j,delaylearn,learning,trial,1d0zK1p21qerwAOK1MeidoTrsHB2,1d0zK1p21qerwAOK1MeidoTrsHB2,1.0,images/choice_trial_6.png,images/choice_trial_5.png,images/pattern_3.png,f,j,7000.0,6.0,5.0,2.0,1.0,15.0,1.0,0.0,5.0,100.0,,,,,,5a8ad2082a842c0001fce0f2,17:03:38,27/03/2024
html-keyboard-response,80,157873,0.0-35.0-1.0,,"<div style=""display: flex; flex-direction: column; align-items: center; margin-top: -40px;""><img src=""images/pattern_3.png"" style=""width: 234px; height: 230px; margin-top: -50px;""><div style=""display: flex; justify-content: space-between; margin-top: 33px;""><img src=""images/choice_trial_5.png"" style=""width: 408px; height: 417px; margin-left:608px;""></div></div>",,delaylearn,learning,display_response,1d0zK1p21qerwAOK1MeidoTrsHB2,1d0zK1p21qerwAOK1MeidoTrsHB2,,,,,,,,,,,,,,,,,chosen stimuli: images/choice_trial_5.png,,,,,5a8ad2082a842c0001fce0f2,17:03:38,27/03/2024
html-keyboard-response,81,164887,0.0-35.0-2.0,,,,delaylearn,learning,feedback_duration_window,1d0zK1p21qerwAOK1MeidoTrsHB2,1d0zK1p21qerwAOK1MeidoTrsHB2,,,,,,,,,,,,,,,,,,7000.0,,,,5a8ad2082a842c0001fce0f2,17:03:38,27/03/2024
html-keyboard-response,82,166398,0.0-35.0-3.0,,<div style='margin:auto;width: auto; font-size: 150%'><span style='font-weight: bold; font-size: 100px; color: red;'>0 points!</span><br><br></div>,,delaylearn,learning,feedback_image_window,1d0zK1p21qerwAOK1MeidoTrsHB2,1d0zK1p21qerwAOK1MeidoTrsHB2,,,,,,,,,,,,,,,,,,,,,,5a8ad2082a842c0001fce0f2,17:03:38,27/03/2024
html-keyboard-response,83,167990,0.0-36.0,,"<div style=""font-size:100px;"">+</div>",,delaylearn,learning,ITI,1d0zK1p21qerwAOK1MeidoTrsHB2,1d0zK1p21qerwAOK1MeidoTrsHB2,,,,,,,,,,,,,,,,,,,1586.0,,,5a8ad2082a842c0001fce0f2,17:03:38,27/03/2024
html-keyboard-response,84,169623,0.0-37.0-0.0,1628.9000000953674,"<div style=""display: flex; flex-direction: column; align-items: center; margin-top: -40px;""><img src=""images/pattern_5.png"" style=""width: 234px; height: 230px; margin-top: -50px;""><div style=""display: flex; justify-content: space-between; margin-top: 33px;""><img src=""images/choice_trial_9.png"" style=""width: 408px; height: 417px; margin-right: 200px;""><img src=""images/choice_trial_10.png"" style=""width: 408px; height: 417px;""></div></div>",j,delaylearn,learning,trial,1d0zK1p21qerwAOK1MeidoTrsHB2,1d0zK1p21qerwAOK1MeidoTrsHB2,1.0,images/choice_trial_9.png,images/choice_trial_10.png,images/pattern_5.png,f,f,750.0,9.0,10.0,4.0,0.0,16.0,0.0,0.0,10.0,100.0,,,,,,5a8ad2082a842c0001fce0f2,17:03:38,27/03/2024
html-keyboard-response,85,170639,0.0-37.0-1.0,,"<div style=""display: flex; flex-direction: column; align-items: center; margin-top: -40px;""><img src=""images/pattern_5.png"" style=""width: 234px; height: 230px; margin-top: -50px;""><div style=""display: flex; justify-content: space-between; margin-top: 33px;""><img src=""images/choice_trial_10.png"" style=""width: 408px; height: 417px; margin-left:608px;""></div></div>",,delaylearn,learning,display_response,1d0zK1p21qerwAOK1MeidoTrsHB2,1d0zK1p21qerwAOK1MeidoTrsHB2,,,,,,,,,,,,,,,,,chosen stimuli: images/choice_trial_10.png,,,,,5a8ad2082a842c0001fce0f2,17:03:38,27/03/2024
html-keyboard-response,86,171400,0.0-37.0-2.0,,,,delaylearn,learning,feedback_duration_window,1d0zK1p21qerwAOK1MeidoTrsHB2,1d0zK1p21qerwAOK1MeidoTrsHB2,,,,,,,,,,,,,,,,,,750.0,,,,5a8ad2082a842c0001fce0f2,17:03:38,27/03/2024
html-keyboard-response,87,172914,0.0-37.0-3.0,,<div style='margin:auto;width: auto; font-size: 150%'><span style='font-weight: bold; font-size: 100px; color: red;'>0 points!</span><br><br></div>,,delaylearn,learning,feedback_image_window,1d0zK1p21qerwAOK1MeidoTrsHB2,1d0zK1p21qerwAOK1MeidoTrsHB2,,,,,,,,,,,,,,,,,,,,,,5a8ad2082a842c0001fce0f2,17:03:38,27/03/2024
html-keyboard-response,88,173426,0.0-38.0-0.0,,,,,,mood_trial_fixation,1d0zK1p21qerwAOK1MeidoTrsHB2,,,,,,,,,,,,,,,,,,,,,,,5a8ad2082a842c0001fce0f2,17:03:38,27/03/2024
lmdlab-html-vas-response,89,179163,0.0-38.0-1.0,4717.0,How happy are you right now?,0.2465277777777778,delaylearn,learning,mood_trial,1d0zK1p21qerwAOK1MeidoTrsHB2,1d0zK1p21qerwAOK1MeidoTrsHB2,,,,,,,,,,,,,,,,,,,,"['Very unhappy', 'Very happy']",,5a8ad2082a842c0001fce0f2,17:03:38,27/03/2024
html-keyboard-response,90,181475,0.0-39.0,,"<div style=""font-size:100px;"">+</div>",,delaylearn,learning,ITI,1d0zK1p21qerwAOK1MeidoTrsHB2,1d0zK1p21qerwAOK1MeidoTrsHB2,,,,,,,,,,,,,,,,,,,2297.0,,,5a8ad2082a842c0001fce0f2,17:03:38,27/03/2024
html-keyboard-response,91,183158,0.0-40.0-0.0,1677.7999997138977,"<div style=""display: flex; flex-direction: column; align-items: center; margin-top: -40px;""><img src=""images/pattern_6.png"" style=""width: 234px; height: 230px; margin-top: -50px;""><div style=""display: flex; justify-content: space-between; margin-top: 33px;""><img src=""images/choice_trial_11.png"" style=""width: 408px; height: 417px; margin-right: 200px;""><img src=""images/choice_trial_12.png"" style=""width: 408px; height: 417px;""></div></div>",f,delaylearn,learning,trial,1d0zK1p21qerwAOK1MeidoTrsHB2,1d0zK1p21qerwAOK1MeidoTrsHB2,1.0,images/choice_trial_11.png,images/choice_trial_12.png,images/pattern_6.png,f,f,750.0,11.0,12.0,5.0,0.0,17.0,1.0,1.0,11.0,110.0,,,,,,5a8ad2082a842c0001fce0f2,17:03:38,27/03/2024
html-keyboard-response,92,184173,0.0-40.0-1.0,,"<div style=""display: flex; flex-direction: column; align-items: center; margin-top: -40px;""><img src=""images/pattern_6.png"" style=""width: 234px; height: 230px; margin-top: -50px;""><div style=""display: flex; justify-content: space-between; margin-top: 33px;""><img src=""images/choice_trial_11.png"" style=""width: 408px; height: 417px; margin-right: 608px;""></div></div>",,delaylearn,learning,display_response,1d0zK1p21qerwAOK1MeidoTrsHB2,1d0zK1p21qerwAOK1MeidoTrsHB2,,,,,,,,,,,,,,,,,chosen stimuli: images/choice_trial_11.png,,,,,5a8ad2082a842c0001fce0f2,17:03:38,27/03/2024
html-keyboard-response,93,184938,0.0-40.0-2.0,,,,delaylearn,learning,feedback_duration_window,1d0zK1p21qerwAOK1MeidoTrsHB2,1d0zK1p21qerwAOK1MeidoTrsHB2,,,,,,,,,,,,,,,,,,750.0,,,,5a8ad2082a842c0001fce0f2,17:03:38,27/03/2024
html-keyboard-response,94,186446,0.0-40.0-3.0,,<div style='margin:auto;width: auto; font-size: 150%'><span style='font-weight: bold; font-size: 100px; color: green;'>+10 points!</span><br><br></div>,,delaylearn,learning,feedback_image_window,1d0zK1p21qerwAOK1MeidoTrsHB2,1d0zK1p21qerwAOK1MeidoTrsHB2,,,,,,,,,,,,,,,,,,,,,,5a8ad2082a842c0001fce0f2,17:03:38,27/03/2024
html-keyboard-response,95,188177,0.0-41.0,,"<div style=""font-size:100px;"">+</div>",,delaylearn,learning,ITI,1d0zK1p21qerwAOK1MeidoTrsHB2,1d0zK1p21qerwAOK1MeidoTrsHB2,,,,,,,,,,,,,,,,,,,1716.0,,,5a8ad2082a842c0001fce0f2,17:03:38,27/03/2024
html-keyboard-response,96,189695,0.0-42.0-0.0,1512.2999997138977,"<div style=""display: flex; flex-direction: column; align-items: center; margin-top: -40px;""><img src=""images/pattern_4.png"" style=""width: 234px; height: 230px; margin-top: -50px;""><div style=""display: flex; justify-content: space-between; margin-top: 33px;""><img src=""images/choice_trial_8.png"" style=""width: 408px; height: 417px; margin-right: 200px;""><img src=""images/choice_trial_7.png"" style=""width: 408px; height: 417px;""></div></div>",j,delaylearn,learning,trial,1d0zK1p21qerwAOK1MeidoTrsHB2,1d0zK1p21qerwAOK1MeidoTrsHB2,1.0,images/choice_trial_8.png,images/choice_trial_7.png,images/pattern_4.png,j,j,7000.0,8.0,7.0,3.0,1.0,18.0,1.0,1.0,7.0,120.0,,,,,,5a8ad2082a842c0001fce0f2,17:03:38,27/03/2024
html-keyboard-response,97,190700,0.0-42.0-1.0,,"<div style=""display: flex; flex-direction: column; align-items: center; margin-top: -40px;""><img src=""images/pattern_4.png"" style=""width: 234px; height: 230px; margin-top: -50px;""><div style=""display: flex; justify-content: space-between; margin-top: 33px;""><img src=""images/choice_trial_7.png"" style=""width: 408px; height: 417px; margin-left:608px;""></div></div>",,delaylearn,learning,display_response,1d0zK1p21qerwAOK1MeidoTrsHB2,1d0zK1p21qerwAOK1MeidoTrsHB2,,,,,,,,,,,,,,,,,chosen stimuli: images/choice_trial_7.png,,,,,5a8ad2082a842c0001fce0f2,17:03:38,27/03/2024
html-keyboard-response,98,197711,0.0-42.0-2.0,,,,delaylearn,learning,feedback_duration_window,1d0zK1p21qerwAOK1MeidoTrsHB2,1d0zK1p21qerwAOK1MeidoTrsHB2,,,,,,,,,,,,,,,,,,7000.0,,,,5a8ad2082a842c0001fce0f2,17:03:38,27/03/2024
html-keyboard-response,99,199223,0.0-42.0-3.0,,<div style='margin:auto;width: auto; font-size: 150%'><span style='font-weight: bold; font-size: 100px; color: green;'>+10 points!</span><br><br></div>,,delaylearn,learning,feedback_image_window,1d0zK1p21qerwAOK1MeidoTrsHB2,1d0zK1p21qerwAOK1MeidoTrsHB2,,,,,,,,,,,,,,,,,,,,,,5a8ad2082a842c0001fce0f2,17:03:38,27/03/2024
html-keyboard-response,100,201028,0.0-43.0,,"<div style=""font-size:100px;"">+</div>",,delaylearn,learning,ITI,1d0zK1p21qerwAOK1MeidoTrsHB2,1d0zK1p21qerwAOK1MeidoTrsHB2,,,,,,,,,,,,,,,,,,,1793.0,,,5a8ad2082a842c0001fce0f2,17:03:38,27/03/2024
html-keyboard-response,101,202839,0.0-44.0-0.0,1805.1000003814697,"<div style=""display: flex; flex-direction: column; align-items: center; margin-top: -40px;""><img src=""images/pattern_7.png"" style=""width: 234px; height: 230px; margin-top: -50px;""><div style=""display: flex; justify-content: space-between; margin-top: 33px;""><img src=""images/choice_trial_13.png"" style=""width: 408px; height: 417px; margin-right: 200px;""><img src=""images/choice_trial_14.png"" style=""width: 408px; height: 417px;""></div></div>",f,delaylearn,learning,trial,1d0zK1p21qerwAOK1MeidoTrsHB2,1d0zK1p21qerwAOK1MeidoTrsHB2,1.0,images/choice_trial_13.png,images/choice_trial_14.png,images/pattern_7.png,j,f,750.0,13.0,14.0,6.0,0.0,19.0,1.0,0.0,13.0,120.0,,,,,,5a8ad2082a842c0001fce0f2,17:03:38,27/03/2024
html-keyboard-response,102,203853,0.0-44.0-1.0,,"<div style=""display: flex; flex-direction: column; align-items: center; margin-top: -40px;""><img src=""images/pattern_7.png"" style=""width: 234px; height: 230px; margin-top: -50px;""><div style=""display: flex; justify-content: space-between; margin-top: 33px;""><img src=""images/choice_trial_13.png"" style=""width: 408px; height: 417px; margin-right: 608px;""></div></div>",,delaylearn,learning,display_response,1d0zK1p21qerwAOK1MeidoTrsHB2,1d0zK1p21qerwAOK1MeidoTrsHB2,,,,,,,,,,,,,,,,,chosen stimuli: images/choice_trial_13.png,,,,,5a8ad2082a842c0001fce0f2,17:03:38,27/03/2024
html-keyboard-response,103,204617,0.0-44.0-2.0,,,,delaylearn,learning,feedback_duration_window,1d0zK1p21qerwAOK1MeidoTrsHB2,1d0zK1p21qerwAOK1MeidoTrsHB2,,,,,,,,,,,,,,,,,,750.0,,,,5a8ad2082a842c0001fce0f2,17:03:38,27/03/2024
html-keyboard-response,104,206134,0.0-44.0-3.0,,<div style='margin:auto;width: auto; font-size: 150%'><span style='font-weight: bold; font-size: 100px; color: red;'>0 points!</span><br><br></div>,,delaylearn,learning,feedback_image_window,1d0zK1p21qerwAOK1MeidoTrsHB2,1d0zK1p21qerwAOK1MeidoTrsHB2,,,,,,,,,,,,,,,,,,,,,,5a8ad2082a842c0001fce0f2,17:03:38,27/03/2024
html-keyboard-response,105,208565,0.0-45.0,,"<div style=""font-size:100px;"">+</div>",,delaylearn,learning,ITI,1d0zK1p21qerwAOK1MeidoTrsHB2,1d0zK1p21qerwAOK1MeidoTrsHB2,,,,,,,,,,,,,,,,,,,2423.0,,,5a8ad2082a842c0001fce0f2,17:03:38,27/03/2024
html-keyboard-response,106,209916,0.0-46.0-0.0,1346.8000001907349,"<div style=""display: flex; flex-direction: column; align-items: center; margin-top: -40px;""><img src=""images/pattern_1.png"" style=""width: 234px; height: 230px; margin-top: -50px;""><div style=""display: flex; justify-content: space-between; margin-top: 33px;""><img src=""images/choice_trial_1.png"" style=""width: 408px; height: 417px; margin-right: 200px;""><img src=""images/choice_trial_2.png"" style=""width: 408px; height: 417px;""></div></div>",j,delaylearn,learning,trial,1d0zK1p21qerwAOK1MeidoTrsHB2,1d0zK1p21qerwAOK1MeidoTrsHB2,1.0,images/choice_trial_1.png,images/choice_trial_2.png,images/pattern_1.png,f,f,7000.0,1.0,2.0,1.0,0.0,20.0,0.0,0.0,2.0,120.0,,,,,,5a8ad2082a842c0001fce0f2,17:03:38,27/03/2024
html-keyboard-response,107,210928,0.0-46.0-1.0,,"<div style=""display: flex; flex-direction: column; align-items: center; margin-top: -40px;""><img src=""images/pattern_1.png"" style=""width: 234px; height: 230px; margin-top: -50px;""><div style=""display: flex; justify-content: space-between; margin-top: 33px;""><img src=""images/choice_trial_2.png"" style=""width: 408px; height: 417px; margin-left:608px;""></div></div>",,delaylearn,learning,display_response,1d0zK1p21qerwAOK1MeidoTrsHB2,1d0zK1p21qerwAOK1MeidoTrsHB2,,,,,,,,,,,,,,,,,chosen stimuli: images/choice_trial_2.png,,,,,5a8ad2082a842c0001fce0f2,17:03:38,27/03/2024
html-keyboard-response,108,217939,0.0-46.0-2.0,,,,delaylearn,learning,feedback_duration_window,1d0zK1p21qerwAOK1MeidoTrsHB2,1d0zK1p21qerwAOK1MeidoTrsHB2,,,,,,,,,,,,,,,,,,7000.0,,,,5a8ad2082a842c0001fce0f2,17:03:38,27/03/2024
html-keyboard-response,109,219452,0.0-46.0-3.0,,<div style='margin:auto;width: auto; font-size: 150%'><span style='font-weight: bold; font-size: 100px; color: red;'>0 points!</span><br><br></div>,,delaylearn,learning,feedback_image_window,1d0zK1p21qerwAOK1MeidoTrsHB2,1d0zK1p21qerwAOK1MeidoTrsHB2,,,,,,,,,,,,,,,,,,,,,,5a8ad2082a842c0001fce0f2,17:03:38,27/03/2024
html-keyboard-response,110,221351,0.0-47.0,,"<div style=""font-size:100px;"">+</div>",,delaylearn,learning,ITI,1d0zK1p21qerwAOK1MeidoTrsHB2,1d0zK1p21qerwAOK1MeidoTrsHB2,,,,,,,,,,,,,,,,,,,1895.0,,,5a8ad2082a842c0001fce0f2,17:03:38,27/03/2024
html-keyboard-response,111,222727,0.0-48.0-0.0,1370.7999997138977,"<div style=""display: flex; flex-direction: column; align-items: center; margin-top: -40px;""><img src=""images/pattern_6.png"" style=""width: 234px; height: 230px; margin-top: -50px;""><div style=""display: flex; justify-content: space-between; margin-top: 33px;""><img src=""images/choice_trial_12.png"" style=""width: 408px; height: 417px; margin-right: 200px;""><img src=""images/choice_trial_11.png"" style=""width: 408px; height: 417px;""></div></div>",f,delaylearn,learning,trial,1d0zK1p21qerwAOK1MeidoTrsHB2,1d0zK1p21qerwAOK1MeidoTrsHB2,1.0,images/choice_trial_12.png,images/choice_trial_11.png,images/pattern_6.png,j,j,750.0,12.0,11.0,5.0,1.0,21.0,0.0,0.0,12.0,120.0,,,,,,5a8ad2082a842c0001fce0f2,17:03:38,27/03/2024
html-keyboard-response,112,223747,0.0-48.0-1.0,,"<div style=""display: flex; flex-direction: column; align-items: center; margin-top: -40px;""><img src=""images/pattern_6.png"" style=""width: 234px; height: 230px; margin-top: -50px;""><div style=""display: flex; justify-content: space-between; margin-top: 33px;""><img src=""images/choice_trial_12.png"" style=""width: 408px; height: 417px; margin-right: 608px;""></div></div>",,delaylearn,learning,display_response,1d0zK1p21qerwAOK1MeidoTrsHB2,1d0zK1p21qerwAOK1MeidoTrsHB2,,,,,,,,,,,,,,,,,chosen stimuli: images/choice_trial_12.png,,,,,5a8ad2082a842c0001fce0f2,17:03:38,27/03/2024
html-keyboard-response,113,224508,0.0-48.0-2.0,,,,delaylearn,learning,feedback_duration_window,1d0zK1p21qerwAOK1MeidoTrsHB2,1d0zK1p21qerwAOK1MeidoTrsHB2,,,,,,,,,,,,,,,,,,750.0,,,,5a8ad2082a842c0001fce0f2,17:03:38,27/03/2024
html-keyboard-response,114,226021,0.0-48.0-3.0,,<div style='margin:auto;width: auto; font-size: 150%'><span style='font-weight: bold; font-size: 100px; color: red;'>0 points!</span><br><br></div>,,delaylearn,learning,feedback_image_window,1d0zK1p21qerwAOK1MeidoTrsHB2,1d0zK1p21qerwAOK1MeidoTrsHB2,,,,,,,,,,,,,,,,,,,,,,5a8ad2082a842c0001fce0f2,17:03:38,27/03/2024
html-keyboard-response,115,228176,0.0-49.0,,"<div style=""font-size:100px;"">+</div>",,delaylearn,learning,ITI,1d0zK1p21qerwAOK1MeidoTrsHB2,1d0zK1p21qerwAOK1MeidoTrsHB2,,,,,,,,,,,,,,,,,,,2139.0,,,5a8ad2082a842c0001fce0f2,17:03:38,27/03/2024
html-keyboard-response,116,230025,0.0-50.0-0.0,1843.6999998092651,"<div style=""display: flex; flex-direction: column; align-items: center; margin-top: -40px;""><img src=""images/pattern_4.png"" style=""width: 234px; height: 230px; margin-top: -50px;""><div style=""display: flex; justify-content: space-between; margin-top: 33px;""><img src=""images/choice_trial_7.png"" style=""width: 408px; height: 417px; margin-right: 200px;""><img src=""images/choice_trial_8.png"" style=""width: 408px; height: 417px;""></div></div>",f,delaylearn,learning,trial,1d0zK1p21qerwAOK1MeidoTrsHB2,1d0zK1p21qerwAOK1MeidoTrsHB2,1.0,images/choice_trial_7.png,images/choice_trial_8.png,images/pattern_4.png,f,f,7000.0,7.0,8.0,3.0,0.0,22.0,1.0,1.0,7.0,130.0,,,,,,5a8ad2082a842c0001fce0f2,17:03:38,27/03/2024
html-keyboard-response,117,231039,0.0-50.0-1.0,,"<div style=""display: flex; flex-direction: column; align-items: center; margin-top: -40px;""><img src=""images/pattern_4.png"" style=""width: 234px; height: 230px; margin-top: -50px;""><div style=""display: flex; justify-content: space-between; margin-top: 33px;""><img src=""images/choice_trial_7.png"" style=""width: 408px; height: 417px; margin-right: 608px;""></div></div>",,delaylearn,learning,display_response,1d0zK1p21qerwAOK1MeidoTrsHB2,1d0zK1p21qerwAOK1MeidoTrsHB2,,,,,,,,,,,,,,,,,chosen stimuli: images/choice_trial_7.png,,,,,5a8ad2082a842c0001fce0f2,17:03:38,27/03/2024
html-keyboard-response,118,238049,0.0-50.0-2.0,,,,delaylearn,learning,feedback_duration_window,1d0zK1p21qerwAOK1MeidoTrsHB2,1d0zK1p21qerwAOK1MeidoTrsHB2,,,,,,,,,,,,,,,,,,7000.0,,,,5a8ad2082a842c0001fce0f2,17:03:38,27/03/2024
html-keyboard-response,119,239564,0.0-50.0-3.0,,<div style='margin:auto;width: auto; font-size: 150%'><span style='font-weight: bold; font-size: 100px; color: green;'>+10 points!</span><br><br></div>,,delaylearn,learning,feedback_image_window,1d0zK1p21qerwAOK1MeidoTrsHB2,1d0zK1p21qerwAOK1MeidoTrsHB2,,,,,,,,,,,,,,,,,,,,,,5a8ad2082a842c0001fce0f2,17:03:38,27/03/2024
html-keyboard-response,120,240078,0.0-51.0-0.0,,,,,,mood_trial_fixation,1d0zK1p21qerwAOK1MeidoTrsHB2,,,,,,,,,,,,,,,,,,,,,,,5a8ad2082a842c0001fce0f2,17:03:38,27/03/2024
lmdlab-html-vas-response,121,245317,0.0-51.0-1.0,4225.0,How happy are you right now?,0.6180555555555556,delaylearn,learning,mood_trial,1d0zK1p21qerwAOK1MeidoTrsHB2,1d0zK1p21qerwAOK1MeidoTrsHB2,,,,,,,,,,,,,,,,,,,,"['Very unhappy', 'Very happy']",,5a8ad2082a842c0001fce0f2,17:03:38,27/03/2024
html-keyboard-response,122,247650,0.0-52.0,,"<div style=""font-size:100px;"">+</div>",,delaylearn,learning,ITI,1d0zK1p21qerwAOK1MeidoTrsHB2,1d0zK1p21qerwAOK1MeidoTrsHB2,,,,,,,,,,,,,,,,,,,2317.0,,,5a8ad2082a842c0001fce0f2,17:03:38,27/03/2024
html-keyboard-response,123,249805,0.0-53.0-0.0,2148.2999997138977,"<div style=""display: flex; flex-direction: column; align-items: center; margin-top: -40px;""><img src=""images/pattern_7.png"" style=""width: 234px; height: 230px; margin-top: -50px;""><div style=""display: flex; justify-content: space-between; margin-top: 33px;""><img src=""images/choice_trial_14.png"" style=""width: 408px; height: 417px; margin-right: 200px;""><img src=""images/choice_trial_13.png"" style=""width: 408px; height: 417px;""></div></div>",f,delaylearn,learning,trial,1d0zK1p21qerwAOK1MeidoTrsHB2,1d0zK1p21qerwAOK1MeidoTrsHB2,1.0,images/choice_trial_14.png,images/choice_trial_13.png,images/pattern_7.png,j,j,750.0,14.0,13.0,6.0,1.0,23.0,0.0,0.0,14.0,130.0,,,,,,5a8ad2082a842c0001fce0f2,17:03:38,27/03/2024
html-keyboard-response,124,250817,0.0-53.0-1.0,,"<div style=""display: flex; flex-direction: column; align-items: center; margin-top: -40px;""><img src=""images/pattern_7.png"" style=""width: 234px; height: 230px; margin-top: -50px;""><div style=""display: flex; justify-content: space-between; margin-top: 33px;""><img src=""images/choice_trial_14.png"" style=""width: 408px; height: 417px; margin-right: 608px;""></div></div>",,delaylearn,learning,display_response,1d0zK1p21qerwAOK1MeidoTrsHB2,1d0zK1p21qerwAOK1MeidoTrsHB2,,,,,,,,,,,,,,,,,chosen stimuli: images/choice_trial_14.png,,,,,5a8ad2082a842c0001fce0f2,17:03:38,27/03/2024
html-keyboard-response,125,251576,0.0-53.0-2.0,,,,delaylearn,learning,feedback_duration_window,1d0zK1p21qerwAOK1MeidoTrsHB2,1d0zK1p21qerwAOK1MeidoTrsHB2,,,,,,,,,,,,,,,,,,750.0,,,,5a8ad2082a842c0001fce0f2,17:03:38,27/03/2024
html-keyboard-response,126,253090,0.0-53.0-3.0,,<div style='margin:auto;width: auto; font-size: 150%'><span style='font-weight: bold; font-size: 100px; color: red;'>0 points!</span><br><br></div>,,delaylearn,learning,feedback_image_window,1d0zK1p21qerwAOK1MeidoTrsHB2,1d0zK1p21qerwAOK1MeidoTrsHB2,,,,,,,,,,,,,,,,,,,,,,5a8ad2082a842c0001fce0f2,17:03:38,27/03/2024
html-keyboard-response,127,255506,0.0-54.0,,"<div style=""font-size:100px;"">+</div>",,delaylearn,learning,ITI,1d0zK1p21qerwAOK1MeidoTrsHB2,1d0zK1p21qerwAOK1MeidoTrsHB2,,,,,,,,,,,,,,,,,,,2410.0,,,5a8ad2082a842c0001fce0f2,17:03:38,27/03/2024
html-keyboard-response,128,257723,0.0-55.0-0.0,2210.2000002861023,"<div style=""display: flex; flex-direction: column; align-items: center; margin-top: -40px;""><img src=""images/pattern_1.png"" style=""width: 234px; height: 230px; margin-top: -50px;""><div style=""display: flex; justify-content: space-between; margin-top: 33px;""><img src=""images/choice_trial_2.png"" style=""width: 408px; height: 417px; margin-right: 200px;""><img src=""images/choice_trial_1.png"" style=""width: 408px; height: 417px;""></div></div>",f,delaylearn,learning,trial,1d0zK1p21qerwAOK1MeidoTrsHB2,1d0zK1p21qerwAOK1MeidoTrsHB2,1.0,images/choice_trial_2.png,images/choice_trial_1.png,images/pattern_1.png,f,j,7000.0,2.0,1.0,1.0,1.0,24.0,0.0,1.0,2.0,140.0,,,,,,5a8ad2082a842c0001fce0f2,17:03:38,27/03/2024
html-keyboard-response,129,258740,0.0-55.0-1.0,,"<div style=""display: flex; flex-direction: column; align-items: center; margin-top: -40px;""><img src=""images/pattern_1.png"" style=""width: 234px; height: 230px; margin-top: -50px;""><div style=""display: flex; justify-content: space-between; margin-top: 33px;""><img src=""images/choice_trial_2.png"" style=""width: 408px; height: 417px; margin-right: 608px;""></div></div>",,delaylearn,learning,display_response,1d0zK1p21qerwAOK1MeidoTrsHB2,1d0zK1p21qerwAOK1MeidoTrsHB2,,,,,,,,,,,,,,,,,chosen stimuli: images/choice_trial_2.png,,,,,5a8ad2082a842c0001fce0f2,17:03:38,27/03/2024
html-keyboard-response,130,265750,0.0-55.0-2.0,,,,delaylearn,learning,feedback_duration_window,1d0zK1p21qerwAOK1MeidoTrsHB2,1d0zK1p21qerwAOK1MeidoTrsHB2,,,,,,,,,,,,,,,,,,7000.0,,,,5a8ad2082a842c0001fce0f2,17:03:38,27/03/2024
html-keyboard-response,131,267261,0.0-55.0-3.0,,<div style='margin:auto;width: auto; font-size: 150%'><span style='font-weight: bold; font-size: 100px; color: green;'>+10 points!</span><br><br></div>,,delaylearn,learning,feedback_image_window,1d0zK1p21qerwAOK1MeidoTrsHB2,1d0zK1p21qerwAOK1MeidoTrsHB2,,,,,,,,,,,,,,,,,,,,,,5a8ad2082a842c0001fce0f2,17:03:38,27/03/2024
html-keyboard-response,132,268817,0.0-56.0,,"<div style=""font-size:100px;"">+</div>",,delaylearn,learning,ITI,1d0zK1p21qerwAOK1MeidoTrsHB2,1d0zK1p21qerwAOK1MeidoTrsHB2,,,,,,,,,,,,,,,,,,,1546.0,,,5a8ad2082a842c0001fce0f2,17:03:38,27/03/2024
html-keyboard-response,133,270422,0.0-57.0-0.0,1598.5,"<div style=""display: flex; flex-direction: column; align-items: center; margin-top: -40px;""><img src=""images/pattern_5.png"" style=""width: 234px; height: 230px; margin-top: -50px;""><div style=""display: flex; justify-content: space-between; margin-top: 33px;""><img src=""images/choice_trial_10.png"" style=""width: 408px; height: 417px; margin-right: 200px;""><img src=""images/choice_trial_9.png"" style=""width: 408px; height: 417px;""></div></div>",f,delaylearn,learning,trial,1d0zK1p21qerwAOK1MeidoTrsHB2,1d0zK1p21qerwAOK1MeidoTrsHB2,1.0,images/choice_trial_10.png,images/choice_trial_9.png,images/pattern_5.png,j,j,750.0,10.0,9.0,4.0,1.0,25.0,0.0,0.0,10.0,140.0,,,,,,5a8ad2082a842c0001fce0f2,17:03:38,27/03/2024
html-keyboard-response,134,271437,0.0-57.0-1.0,,"<div style=""display: flex; flex-direction: column; align-items: center; margin-top: -40px;""><img src=""images/pattern_5.png"" style=""width: 234px; height: 230px; margin-top: -50px;""><div style=""display: flex; justify-content: space-between; margin-top: 33px;""><img src=""images/choice_trial_10.png"" style=""width: 408px; height: 417px; margin-right: 608px;""></div></div>",,delaylearn,learning,display_response,1d0zK1p21qerwAOK1MeidoTrsHB2,1d0zK1p21qerwAOK1MeidoTrsHB2,,,,,,,,,,,,,,,,,chosen stimuli: images/choice_trial_10.png,,,,,5a8ad2082a842c0001fce0f2,17:03:38,27/03/2024
html-keyboard-response,135,272199,0.0-57.0-2.0,,,,delaylearn,learning,feedback_duration_window,1d0zK1p21qerwAOK1MeidoTrsHB2,1d0zK1p21qerwAOK1MeidoTrsHB2,,,,,,,,,,,,,,,,,,750.0,,,,5a8ad2082a842c0001fce0f2,17:03:38,27/03/2024
html-keyboard-response,136,273710,0.0-57.0-3.0,,<div style='margin:auto;width: auto; font-size: 150%'><span style='font-weight: bold; font-size: 100px; color: red;'>0 points!</span><br><br></div>,,delaylearn,learning,feedback_image_window,1d0zK1p21qerwAOK1MeidoTrsHB2,1d0zK1p21qerwAOK1MeidoTrsHB2,,,,,,,,,,,,,,,,,,,,,,5a8ad2082a842c0001fce0f2,17:03:38,27/03/2024
html-keyboard-response,137,275645,0.0-58.0,,"<div style=""font-size:100px;"">+</div>",,delaylearn,learning,ITI,1d0zK1p21qerwAOK1MeidoTrsHB2,1d0zK1p21qerwAOK1MeidoTrsHB2,,,,,,,,,,,,,,,,,,,1921.0,,,5a8ad2082a842c0001fce0f2,17:03:38,27/03/2024
html-keyboard-response,138,277199,0.0-59.0-0.0,1548.0,"<div style=""display: flex; flex-direction: column; align-items: center; margin-top: -40px;""><img src=""images/pattern_3.png"" style=""width: 234px; height: 230px; margin-top: -50px;""><div style=""display: flex; justify-content: space-between; margin-top: 33px;""><img src=""images/choice_trial_6.png"" style=""width: 408px; height: 417px; margin-right: 200px;""><img src=""images/choice_trial_5.png"" style=""width: 408px; height: 417px;""></div></div>",j,delaylearn,learning,trial,1d0zK1p21qerwAOK1MeidoTrsHB2,1d0zK1p21qerwAOK1MeidoTrsHB2,1.0,images/choice_trial_6.png,images/choice_trial_5.png,images/pattern_3.png,j,j,7000.0,6.0,5.0,2.0,1.0,26.0,1.0,1.0,5.0,150.0,,,,,,5a8ad2082a842c0001fce0f2,17:03:38,27/03/2024
html-keyboard-response,139,278217,0.0-59.0-1.0,,"<div style=""display: flex; flex-direction: column; align-items: center; margin-top: -40px;""><img src=""images/pattern_3.png"" style=""width: 234px; height: 230px; margin-top: -50px;""><div style=""display: flex; justify-content: space-between; margin-top: 33px;""><img src=""images/choice_trial_5.png"" style=""width: 408px; height: 417px; margin-left:608px;""></div></div>",,delaylearn,learning,display_response,1d0zK1p21qerwAOK1MeidoTrsHB2,1d0zK1p21qerwAOK1MeidoTrsHB2,,,,,,,,,,,,,,,,,chosen stimuli: images/choice_trial_5.png,,,,,5a8ad2082a842c0001fce0f2,17:03:38,27/03/2024
html-keyboard-response,140,285230,0.0-59.0-2.0,,,,delaylearn,learning,feedback_duration_window,1d0zK1p21qerwAOK1MeidoTrsHB2,1d0zK1p21qerwAOK1MeidoTrsHB2,,,,,,,,,,,,,,,,,,7000.0,,,,5a8ad2082a842c0001fce0f2,17:03:38,27/03/2024
html-keyboard-response,141,286738,0.0-59.0-3.0,,<div style='margin:auto;width: auto; font-size: 150%'><span style='font-weight: bold; font-size: 100px; color: green;'>+10 points!</span><br><br></div>,,delaylearn,learning,feedback_image_window,1d0zK1p21qerwAOK1MeidoTrsHB2,1d0zK1p21qerwAOK1MeidoTrsHB2,,,,,,,,,,,,,,,,,,,,,,5a8ad2082a842c0001fce0f2,17:03:38,27/03/2024
lmdlab-html-vas-response,142,295145,0.0-60.0-0.0,6866.0,*How <b><u>confident</u></b> are you feeling about your answers at this moment?*,0.2586805555555556,rewlearn,rate_confidence,,1d0zK1p21qerwAOK1MeidoTrsHB2,1d0zK1p21qerwAOK1MeidoTrsHB2,,,,,,,,,,,,,,,,,,,,"['No confidence', 'Complete confidence']",,5a8ad2082a842c0001fce0f2,17:03:38,27/03/2024
lmdlab-rest-trial-limit,143,302570,0.0-60.0-1.0,5914.699999809265,"<div style=""font-size:40px;""><b>Please take a break!</b><br><br><br><br><p>Great work: you earned 150 points.<br><br><br><p>You have completed part(s) 1 of 5.<br><br><br><br>When you are ready to continue<br><br><br>please click the button.</p><br><br>",0,delaylearn,learning,break,1d0zK1p21qerwAOK1MeidoTrsHB2,1d0zK1p21qerwAOK1MeidoTrsHB2,,,,,,,,,,,,,,,,,,,,,0.0,5a8ad2082a842c0001fce0f2,17:03:38,27/03/2024
html-keyboard-response,144,305577,0.0-60.0-2.0,,"<div style=""font-size:100px;"">+</div>",,delaylearn,learning,pre_fixation,1d0zK1p21qerwAOK1MeidoTrsHB2,,,,,,,,,,,,,,,,,,,,,,,5a8ad2082a842c0001fce0f2,17:03:38,27/03/2024
lmdlab-html-vas-response,145,309822,0.0-60.0-3.0-0.0,3229.0,How happy are you right now?,0.4756944444444444,delaylearn,learning,mood_baseline,1d0zK1p21qerwAOK1MeidoTrsHB2,1d0zK1p21qerwAOK1MeidoTrsHB2,,,,,,,,,,,,,,,,,,,,"['Very unhappy', 'Very happy']",,5a8ad2082a842c0001fce0f2,17:03:38,27/03/2024
html-keyboard-response,146,311338,0.0-60.0-3.0-1.0,,,,,,mood_baseline_fixation,1d0zK1p21qerwAOK1MeidoTrsHB2,,,,,,,,,,,,,,,,,,,,,,,5a8ad2082a842c0001fce0f2,17:03:38,27/03/2024
html-keyboard-response,147,312885,0.0-61.0,,"<div style=""font-size:100px;"">+</div>",,delaylearn,learning,ITI,1d0zK1p21qerwAOK1MeidoTrsHB2,1d0zK1p21qerwAOK1MeidoTrsHB2,,,,,,,,,,,,,,,,,,,1537.0,,,5a8ad2082a842c0001fce0f2,17:03:38,27/03/2024
html-keyboard-response,148,314440,0.0-62.0-0.0,1551.0,"<div style=""display: flex; flex-direction: column; align-items: center; margin-top: -40px;""><img src=""images/pattern_7.png"" style=""width: 234px; height: 230px; margin-top: -50px;""><div style=""display: flex; justify-content: space-between; margin-top: 33px;""><img src=""images/choice_trial_14.png"" style=""width: 408px; height: 417px; margin-right: 200px;""><img src=""images/choice_trial_13.png"" style=""width: 408px; height: 417px;""></div></div>",f,delaylearn,learning,trial,1d0zK1p21qerwAOK1MeidoTrsHB2,1d0zK1p21qerwAOK1MeidoTrsHB2,1.0,images/choice_trial_14.png,images/choice_trial_13.png,images/pattern_7.png,j,j,750.0,14.0,13.0,6.0,1.0,27.0,0.0,0.0,14.0,150.0,,,,,,5a8ad2082a842c0001fce0f2,17:03:38,27/03/2024
html-keyboard-response,149,315454,0.0-62.0-1.0,,"<div style=""display: flex; flex-direction: column; align-items: center; margin-top: -40px;""><img src=""images/pattern_7.png"" style=""width: 234px; height: 230px; margin-top: -50px;""><div style=""display: flex; justify-content: space-between; margin-top: 33px;""><img src=""images/choice_trial_14.png"" style=""width: 408px; height: 417px; margin-right: 608px;""></div></div>",,delaylearn,learning,display_response,1d0zK1p21qerwAOK1MeidoTrsHB2,1d0zK1p21qerwAOK1MeidoTrsHB2,,,,,,,,,,,,,,,,,chosen stimuli: images/choice_trial_14.png,,,,,5a8ad2082a842c0001fce0f2,17:03:38,27/03/2024
html-keyboard-response,150,316213,0.0-62.0-2.0,,,,delaylearn,learning,feedback_duration_window,1d0zK1p21qerwAOK1MeidoTrsHB2,1d0zK1p21qerwAOK1MeidoTrsHB2,,,,,,,,,,,,,,,,,,750.0,,,,5a8ad2082a842c0001fce0f2,17:03:38,27/03/2024
html-keyboard-response,151,317725,0.0-62.0-3.0,,<div style='margin:auto;width: auto; font-size: 150%'><span style='font-weight: bold; font-size: 100px; color: red;'>0 points!</span><br><br></div>,,delaylearn,learning,feedback_image_window,1d0zK1p21qerwAOK1MeidoTrsHB2,1d0zK1p21qerwAOK1MeidoTrsHB2,,,,,,,,,,,,,,,,,,,,,,5a8ad2082a842c0001fce0f2,17:03:38,27/03/2024
html-keyboard-response,152,318238,0.0-63.0-0.0,,,,,,mood_trial_fixation,1d0zK1p21qerwAOK1MeidoTrsHB2,,,,,,,,,,,,,,,,,,,,,,,5a8ad2082a842c0001fce0f2,17:03:38,27/03/2024
lmdlab-html-vas-response,153,323209,0.0-63.0-1.0,3950.0,How happy are you right now?,0.3784722222222222,delaylearn,learning,mood_trial,1d0zK1p21qerwAOK1MeidoTrsHB2,1d0zK1p21qerwAOK1MeidoTrsHB2,,,,,,,,,,,,,,,,,,,,"['Very unhappy', 'Very happy']",,5a8ad2082a842c0001fce0f2,17:03:38,27/03/2024
html-keyboard-response,154,325149,0.0-64.0,,"<div style=""font-size:100px;"">+</div>",,delaylearn,learning,ITI,1d0zK1p21qerwAOK1MeidoTrsHB2,1d0zK1p21qerwAOK1MeidoTrsHB2,,,,,,,,,,,,,,,,,,,1927.0,,,5a8ad2082a842c0001fce0f2,17:03:38,27/03/2024
html-keyboard-response,155,327471,0.0-65.0-0.0,2315.4000000953674,"<div style=""display: flex; flex-direction: column; align-items: center; margin-top: -40px;""><img src=""images/pattern_1.png"" style=""width: 234px; height: 230px; margin-top: -50px;""><div style=""display: flex; justify-content: space-between; margin-top: 33px;""><img src=""images/choice_trial_1.png"" style=""width: 408px; height: 417px; margin-right: 200px;""><img src=""images/choice_trial_2.png"" style=""width: 408px; height: 417px;""></div></div>",j,delaylearn,learning,trial,1d0zK1p21qerwAOK1MeidoTrsHB2,1d0zK1p21qerwAOK1MeidoTrsHB2,1.0,images/choice_trial_1.png,images/choice_trial_2.png,images/pattern_1.png,f,f,7000.0,1.0,2.0,1.0,0.0,28.0,0.0,0.0,2.0,150.0,,,,,,5a8ad2082a842c0001fce0f2,17:03:38,27/03/2024
html-keyboard-response,156,328477,0.0-65.0-1.0,,"<div style=""display: flex; flex-direction: column; align-items: center; margin-top: -40px;""><img src=""images/pattern_1.png"" style=""width: 234px; height: 230px; margin-top: -50px;""><div style=""display: flex; justify-content: space-between; margin-top: 33px;""><img src=""images/choice_trial_2.png"" style=""width: 408px; height: 417px; margin-left:608px;""></div></div>",,delaylearn,learning,display_response,1d0zK1p21qerwAOK1MeidoTrsHB2,1d0zK1p21qerwAOK1MeidoTrsHB2,,,,,,,,,,,,,,,,,chosen stimuli: images/choice_trial_2.png,,,,,5a8ad2082a842c0001fce0f2,17:03:38,27/03/2024
html-keyboard-response,157,335487,0.0-65.0-2.0,,,,delaylearn,learning,feedback_duration_window,1d0zK1p21qerwAOK1MeidoTrsHB2,1d0zK1p21qerwAOK1MeidoTrsHB2,,,,,,,,,,,,,,,,,,7000.0,,,,5a8ad2082a842c0001fce0f2,17:03:38,27/03/2024
html-keyboard-response,158,337001,0.0-65.0-3.0,,<div style='margin:auto;width: auto; font-size: 150%'><span style='font-weight: bold; font-size: 100px; color: red;'>0 points!</span><br><br></div>,,delaylearn,learning,feedback_image_window,1d0zK1p21qerwAOK1MeidoTrsHB2,1d0zK1p21qerwAOK1MeidoTrsHB2,,,,,,,,,,,,,,,,,,,,,,5a8ad2082a842c0001fce0f2,17:03:38,27/03/2024
html-keyboard-response,159,339227,0.0-66.0,,"<div style=""font-size:100px;"">+</div>",,delaylearn,learning,ITI,1d0zK1p21qerwAOK1MeidoTrsHB2,1d0zK1p21qerwAOK1MeidoTrsHB2,,,,,,,,,,,,,,,,,,,2208.0,,,5a8ad2082a842c0001fce0f2,17:03:38,27/03/2024
html-keyboard-response,160,340015,0.0-67.0-0.0,782.0,"<div style=""display: flex; flex-direction: column; align-items: center; margin-top: -40px;""><img src=""images/pattern_5.png"" style=""width: 234px; height: 230px; margin-top: -50px;""><div style=""display: flex; justify-content: space-between; margin-top: 33px;""><img src=""images/choice_trial_9.png"" style=""width: 408px; height: 417px; margin-right: 200px;""><img src=""images/choice_trial_10.png"" style=""width: 408px; height: 417px;""></div></div>",j,delaylearn,learning,trial,1d0zK1p21qerwAOK1MeidoTrsHB2,1d0zK1p21qerwAOK1MeidoTrsHB2,1.0,images/choice_trial_9.png,images/choice_trial_10.png,images/pattern_5.png,f,f,750.0,9.0,10.0,4.0,0.0,29.0,0.0,0.0,10.0,150.0,,,,,,5a8ad2082a842c0001fce0f2,17:03:38,27/03/2024
html-keyboard-response,161,341021,0.0-67.0-1.0,,"<div style=""display: flex; flex-direction: column; align-items: center; margin-top: -40px;""><img src=""images/pattern_5.png"" style=""width: 234px; height: 230px; margin-top: -50px;""><div style=""display: flex; justify-content: space-between; margin-top: 33px;""><img src=""images/choice_trial_10.png"" style=""width: 408px; height: 417px; margin-left:608px;""></div></div>",,delaylearn,learning,display_response,1d0zK1p21qerwAOK1MeidoTrsHB2,1d0zK1p21qerwAOK1MeidoTrsHB2,,,,,,,,,,,,,,,,,chosen stimuli: images/choice_trial_10.png,,,,,5a8ad2082a842c0001fce0f2,17:03:38,27/03/2024
html-keyboard-response,162,341783,0.0-67.0-2.0,,,,delaylearn,learning,feedback_duration_window,1d0zK1p21qerwAOK1MeidoTrsHB2,1d0zK1p21qerwAOK1MeidoTrsHB2,,,,,,,,,,,,,,,,,,750.0,,,,5a8ad2082a842c0001fce0f2,17:03:38,27/03/2024
html-keyboard-response,163,343293,0.0-67.0-3.0,,<div style='margin:auto;width: auto; font-size: 150%'><span style='font-weight: bold; font-size: 100px; color: red;'>0 points!</span><br><br></div>,,delaylearn,learning,feedback_image_window,1d0zK1p21qerwAOK1MeidoTrsHB2,1d0zK1p21qerwAOK1MeidoTrsHB2,,,,,,,,,,,,,,,,,,,,,,5a8ad2082a842c0001fce0f2,17:03:38,27/03/2024
html-keyboard-response,164,345278,0.0-68.0,,"<div style=""font-size:100px;"">+</div>",,delaylearn,learning,ITI,1d0zK1p21qerwAOK1MeidoTrsHB2,1d0zK1p21qerwAOK1MeidoTrsHB2,,,,,,,,,,,,,,,,,,,1981.0,,,5a8ad2082a842c0001fce0f2,17:03:38,27/03/2024
html-keyboard-response,165,347108,0.0-69.0-0.0,1824.2000002861023,"<div style=""display: flex; flex-direction: column; align-items: center; margin-top: -40px;""><img src=""images/pattern_6.png"" style=""width: 234px; height: 230px; margin-top: -50px;""><div style=""display: flex; justify-content: space-between; margin-top: 33px;""><img src=""images/choice_trial_12.png"" style=""width: 408px; height: 417px; margin-right: 200px;""><img src=""images/choice_trial_11.png"" style=""width: 408px; height: 417px;""></div></div>",f,delaylearn,learning,trial,1d0zK1p21qerwAOK1MeidoTrsHB2,1d0zK1p21qerwAOK1MeidoTrsHB2,1.0,images/choice_trial_12.png,images/choice_trial_11.png,images/pattern_6.png,j,j,750.0,12.0,11.0,5.0,1.0,30.0,0.0,0.0,12.0,150.0,,,,,,5a8ad2082a842c0001fce0f2,17:03:38,27/03/2024
html-keyboard-response,166,348124,0.0-69.0-1.0,,"<div style=""display: flex; flex-direction: column; align-items: center; margin-top: -40px;""><img src=""images/pattern_6.png"" style=""width: 234px; height: 230px; margin-top: -50px;""><div style=""display: flex; justify-content: space-between; margin-top: 33px;""><img src=""images/choice_trial_12.png"" style=""width: 408px; height: 417px; margin-right: 608px;""></div></div>",,delaylearn,learning,display_response,1d0zK1p21qerwAOK1MeidoTrsHB2,1d0zK1p21qerwAOK1MeidoTrsHB2,,,,,,,,,,,,,,,,,chosen stimuli: images/choice_trial_12.png,,,,,5a8ad2082a842c0001fce0f2,17:03:38,27/03/2024
html-keyboard-response,167,348885,0.0-69.0-2.0,,,,delaylearn,learning,feedback_duration_window,1d0zK1p21qerwAOK1MeidoTrsHB2,1d0zK1p21qerwAOK1MeidoTrsHB2,,,,,,,,,,,,,,,,,,750.0,,,,5a8ad2082a842c0001fce0f2,17:03:38,27/03/2024
html-keyboard-response,168,350402,0.0-69.0-3.0,,<div style='margin:auto;width: auto; font-size: 150%'><span style='font-weight: bold; font-size: 100px; color: red;'>0 points!</span><br><br></div>,,delaylearn,learning,feedback_image_window,1d0zK1p21qerwAOK1MeidoTrsHB2,1d0zK1p21qerwAOK1MeidoTrsHB2,,,,,,,,,,,,,,,,,,,,,,5a8ad2082a842c0001fce0f2,17:03:38,27/03/2024
html-keyboard-response,169,350914,0.0-70.0-0.0,,,,,,mood_trial_fixation,1d0zK1p21qerwAOK1MeidoTrsHB2,,,,,,,,,,,,,,,,,,,,,,,5a8ad2082a842c0001fce0f2,17:03:38,27/03/2024
lmdlab-html-vas-response,170,357723,0.0-70.0-1.0,5798.0,How happy are you right now?,0.3038194444444444,delaylearn,learning,mood_trial,1d0zK1p21qerwAOK1MeidoTrsHB2,1d0zK1p21qerwAOK1MeidoTrsHB2,,,,,,,,,,,,,,,,,,,,"['Very unhappy', 'Very happy']",,5a8ad2082a842c0001fce0f2,17:03:38,27/03/2024
html-keyboard-response,171,359348,0.0-71.0,,"<div style=""font-size:100px;"">+</div>",,delaylearn,learning,ITI,1d0zK1p21qerwAOK1MeidoTrsHB2,1d0zK1p21qerwAOK1MeidoTrsHB2,,,,,,,,,,,,,,,,,,,1613.0,,,5a8ad2082a842c0001fce0f2,17:03:38,27/03/2024
html-keyboard-response,172,361717,0.0-72.0-0.0,2361.800000190735,"<div style=""display: flex; flex-direction: column; align-items: center; margin-top: -40px;""><img src=""images/pattern_4.png"" style=""width: 234px; height: 230px; margin-top: -50px;""><div style=""display: flex; justify-content: space-between; margin-top: 33px;""><img src=""images/choice_trial_8.png"" style=""width: 408px; height: 417px; margin-right: 200px;""><img src=""images/choice_trial_7.png"" style=""width: 408px; height: 417px;""></div></div>",j,delaylearn,learning,trial,1d0zK1p21qerwAOK1MeidoTrsHB2,1d0zK1p21qerwAOK1MeidoTrsHB2,1.0,images/choice_trial_8.png,images/choice_trial_7.png,images/pattern_4.png,j,j,7000.0,8.0,7.0,3.0,1.0,31.0,1.0,1.0,7.0,160.0,,,,,,5a8ad2082a842c0001fce0f2,17:03:38,27/03/2024
html-keyboard-response,173,362725,0.0-72.0-1.0,,"<div style=""display: flex; flex-direction: column; align-items: center; margin-top: -40px;""><img src=""images/pattern_4.png"" style=""width: 234px; height: 230px; margin-top: -50px;""><div style=""display: flex; justify-content: space-between; margin-top: 33px;""><img src=""images/choice_trial_7.png"" style=""width: 408px; height: 417px; margin-left:608px;""></div></div>",,delaylearn,learning,display_response,1d0zK1p21qerwAOK1MeidoTrsHB2,1d0zK1p21qerwAOK1MeidoTrsHB2,,,,,,,,,,,,,,,,,chosen stimuli: images/choice_trial_7.png,,,,,5a8ad2082a842c0001fce0f2,17:03:38,27/03/2024
html-keyboard-response,174,369734,0.0-72.0-2.0,,,,delaylearn,learning,feedback_duration_window,1d0zK1p21qerwAOK1MeidoTrsHB2,1d0zK1p21qerwAOK1MeidoTrsHB2,,,,,,,,,,,,,,,,,,7000.0,,,,5a8ad2082a842c0001fce0f2,17:03:38,27/03/2024
html-keyboard-response,175,371242,0.0-72.0-3.0,,<div style='margin:auto;width: auto; font-size: 150%'><span style='font-weight: bold; font-size: 100px; color: green;'>+10 points!</span><br><br></div>,,delaylearn,learning,feedback_image_window,1d0zK1p21qerwAOK1MeidoTrsHB2,1d0zK1p21qerwAOK1MeidoTrsHB2,,,,,,,,,,,,,,,,,,,,,,5a8ad2082a842c0001fce0f2,17:03:38,27/03/2024
html-keyboard-response,176,373531,0.0-73.0,,"<div style=""font-size:100px;"">+</div>",,delaylearn,learning,ITI,1d0zK1p21qerwAOK1MeidoTrsHB2,1d0zK1p21qerwAOK1MeidoTrsHB2,,,,,,,,,,,,,,,,,,,2278.0,,,5a8ad2082a842c0001fce0f2,17:03:38,27/03/2024
html-keyboard-response,177,374821,0.0-74.0-0.0,1282.8000001907349,"<div style=""display: flex; flex-direction: column; align-items: center; margin-top: -40px;""><img src=""images/pattern_3.png"" style=""width: 234px; height: 230px; margin-top: -50px;""><div style=""display: flex; justify-content: space-between; margin-top: 33px;""><img src=""images/choice_trial_6.png"" style=""width: 408px; height: 417px; margin-right: 200px;""><img src=""images/choice_trial_5.png"" style=""width: 408px; height: 417px;""></div></div>",j,delaylearn,learning,trial,1d0zK1p21qerwAOK1MeidoTrsHB2,1d0zK1p21qerwAOK1MeidoTrsHB2,1.0,images/choice_trial_6.png,images/choice_trial_5.png,images/pattern_3.png,j,j,7000.0,6.0,5.0,2.0,1.0,32.0,1.0,1.0,5.0,170.0,,,,,,5a8ad2082a842c0001fce0f2,17:03:38,27/03/2024
html-keyboard-response,178,375835,0.0-74.0-1.0,,"<div style=""display: flex; flex-direction: column; align-items: center; margin-top: -40px;""><img src=""images/pattern_3.png"" style=""width: 234px; height: 230px; margin-top: -50px;""><div style=""display: flex; justify-content: space-between; margin-top: 33px;""><img src=""images/choice_trial_5.png"" style=""width: 408px; height: 417px; margin-left:608px;""></div></div>",,delaylearn,learning,display_response,1d0zK1p21qerwAOK1MeidoTrsHB2,1d0zK1p21qerwAOK1MeidoTrsHB2,,,,,,,,,,,,,,,,,chosen stimuli: images/choice_trial_5.png,,,,,5a8ad2082a842c0001fce0f2,17:03:38,27/03/2024
html-keyboard-response,179,382838,0.0-74.0-2.0,,,,delaylearn,learning,feedback_duration_window,1d0zK1p21qerwAOK1MeidoTrsHB2,1d0zK1p21qerwAOK1MeidoTrsHB2,,,,,,,,,,,,,,,,,,7000.0,,,,5a8ad2082a842c0001fce0f2,17:03:38,27/03/2024
html-keyboard-response,180,384347,0.0-74.0-3.0,,<div style='margin:auto;width: auto; font-size: 150%'><span style='font-weight: bold; font-size: 100px; color: green;'>+10 points!</span><br><br></div>,,delaylearn,learning,feedback_image_window,1d0zK1p21qerwAOK1MeidoTrsHB2,1d0zK1p21qerwAOK1MeidoTrsHB2,,,,,,,,,,,,,,,,,,,,,,5a8ad2082a842c0001fce0f2,17:03:38,27/03/2024
html-keyboard-response,181,386028,0.0-75.0,,"<div style=""font-size:100px;"">+</div>",,delaylearn,learning,ITI,1d0zK1p21qerwAOK1MeidoTrsHB2,1d0zK1p21qerwAOK1MeidoTrsHB2,,,,,,,,,,,,,,,,,,,1675.0,,,5a8ad2082a842c0001fce0f2,17:03:38,27/03/2024
html-keyboard-response,182,387889,0.0-76.0-0.0,1853.0999999046326,"<div style=""display: flex; flex-direction: column; align-items: center; margin-top: -40px;""><img src=""images/pattern_5.png"" style=""width: 234px; height: 230px; margin-top: -50px;""><div style=""display: flex; justify-content: space-between; margin-top: 33px;""><img src=""images/choice_trial_9.png"" style=""width: 408px; height: 417px; margin-right: 200px;""><img src=""images/choice_trial_10.png"" style=""width: 408px; height: 417px;""></div></div>",j,delaylearn,learning,trial,1d0zK1p21qerwAOK1MeidoTrsHB2,1d0zK1p21qerwAOK1MeidoTrsHB2,1.0,images/choice_trial_9.png,images/choice_trial_10.png,images/pattern_5.png,j,f,750.0,9.0,10.0,4.0,0.0,33.0,0.0,1.0,10.0,180.0,,,,,,5a8ad2082a842c0001fce0f2,17:03:38,27/03/2024
html-keyboard-response,183,388902,0.0-76.0-1.0,,"<div style=""display: flex; flex-direction: column; align-items: center; margin-top: -40px;""><img src=""images/pattern_5.png"" style=""width: 234px; height: 230px; margin-top: -50px;""><div style=""display: flex; justify-content: space-between; margin-top: 33px;""><img src=""images/choice_trial_10.png"" style=""width: 408px; height: 417px; margin-left:608px;""></div></div>",,delaylearn,learning,display_response,1d0zK1p21qerwAOK1MeidoTrsHB2,1d0zK1p21qerwAOK1MeidoTrsHB2,,,,,,,,,,,,,,,,,chosen stimuli: images/choice_trial_10.png,,,,,5a8ad2082a842c0001fce0f2,17:03:38,27/03/2024
html-keyboard-response,184,389666,0.0-76.0-2.0,,,,delaylearn,learning,feedback_duration_window,1d0zK1p21qerwAOK1MeidoTrsHB2,1d0zK1p21qerwAOK1MeidoTrsHB2,,,,,,,,,,,,,,,,,,750.0,,,,5a8ad2082a842c0001fce0f2,17:03:38,27/03/2024
html-keyboard-response,185,391169,0.0-76.0-3.0,,<div style='margin:auto;width: auto; font-size: 150%'><span style='font-weight: bold; font-size: 100px; color: green;'>+10 points!</span><br><br></div>,,delaylearn,learning,feedback_image_window,1d0zK1p21qerwAOK1MeidoTrsHB2,1d0zK1p21qerwAOK1MeidoTrsHB2,,,,,,,,,,,,,,,,,,,,,,5a8ad2082a842c0001fce0f2,17:03:38,27/03/2024
html-keyboard-response,186,393028,0.0-77.0,,"<div style=""font-size:100px;"">+</div>",,delaylearn,learning,ITI,1d0zK1p21qerwAOK1MeidoTrsHB2,1d0zK1p21qerwAOK1MeidoTrsHB2,,,,,,,,,,,,,,,,,,,1847.0,,,5a8ad2082a842c0001fce0f2,17:03:38,27/03/2024
html-keyboard-response,187,396040,0.0-78.0-0.0,,"<div style=""display: flex; flex-direction: column; align-items: center; margin-top: -40px;""><img src=""images/pattern_1.png"" style=""width: 234px; height: 230px; margin-top: -50px;""><div style=""display: flex; justify-content: space-between; margin-top: 33px;""><img src=""images/choice_trial_1.png"" style=""width: 408px; height: 417px; margin-right: 200px;""><img src=""images/choice_trial_2.png"" style=""width: 408px; height: 417px;""></div></div>",,delaylearn,learning,trial,1d0zK1p21qerwAOK1MeidoTrsHB2,1d0zK1p21qerwAOK1MeidoTrsHB2,1.0,images/choice_trial_1.png,images/choice_trial_2.png,images/pattern_1.png,f,f,7000.0,1.0,2.0,1.0,0.0,34.0,0.0,0.0,0.0,180.0,,,,,,5a8ad2082a842c0001fce0f2,17:03:38,27/03/2024
html-keyboard-response,188,397042,0.0-78.0-1.0,,<div style='font-weight: bold; font-size: 75px; color: red;'>Missed Trial <br><br><br><br> Please respond faster</div>,,delaylearn,learning,display_response,1d0zK1p21qerwAOK1MeidoTrsHB2,1d0zK1p21qerwAOK1MeidoTrsHB2,,,,,,,,,,,,,,,,,Missed trial,,,,,5a8ad2082a842c0001fce0f2,17:03:38,27/03/2024
html-keyboard-response,189,397051,0.0-78.0-2.0,,,,delaylearn,learning,feedback_duration_window,1d0zK1p21qerwAOK1MeidoTrsHB2,1d0zK1p21qerwAOK1MeidoTrsHB2,,,,,,,,,,,,,,,,,,0.0,,,,5a8ad2082a842c0001fce0f2,17:03:38,27/03/2024
html-keyboard-response,190,397058,0.0-78.0-3.0,,,,delaylearn,learning,feedback_image_window,1d0zK1p21qerwAOK1MeidoTrsHB2,1d0zK1p21qerwAOK1MeidoTrsHB2,,,,,,,,,,,,,,,,,,,,,,5a8ad2082a842c0001fce0f2,17:03:38,27/03/2024
html-keyboard-response,191,397572,0.0-79.0-0.0,,,,,,mood_trial_fixation,1d0zK1p21qerwAOK1MeidoTrsHB2,,,,,,,,,,,,,,,,,,,,,,,5a8ad2082a842c0001fce0f2,17:03:38,27/03/2024
lmdlab-html-vas-response,192,401826,0.0-79.0-1.0,3234.0,How happy are you right now?,0.23958333333333334,delaylearn,learning,mood_trial,1d0zK1p21qerwAOK1MeidoTrsHB2,1d0zK1p21qerwAOK1MeidoTrsHB2,,,,,,,,,,,,,,,,,,,,"['Very unhappy', 'Very happy']",,5a8ad2082a842c0001fce0f2,17:03:38,27/03/2024
html-keyboard-response,193,404040,0.0-80.0,,"<div style=""font-size:100px;"">+</div>",,delaylearn,learning,ITI,1d0zK1p21qerwAOK1MeidoTrsHB2,1d0zK1p21qerwAOK1MeidoTrsHB2,,,,,,,,,,,,,,,,,,,2203.0,,,5a8ad2082a842c0001fce0f2,17:03:38,27/03/2024
html-keyboard-response,194,405545,0.0-81.0-0.0,1498.9000000953674,"<div style=""display: flex; flex-direction: column; align-items: center; margin-top: -40px;""><img src=""images/pattern_6.png"" style=""width: 234px; height: 230px; margin-top: -50px;""><div style=""display: flex; justify-content: space-between; margin-top: 33px;""><img src=""images/choice_trial_11.png"" style=""width: 408px; height: 417px; margin-right: 200px;""><img src=""images/choice_trial_12.png"" style=""width: 408px; height: 417px;""></div></div>",f,delaylearn,learning,trial,1d0zK1p21qerwAOK1MeidoTrsHB2,1d0zK1p21qerwAOK1MeidoTrsHB2,1.0,images/choice_trial_11.png,images/choice_trial_12.png,images/pattern_6.png,j,f,750.0,11.0,12.0,5.0,0.0,35.0,1.0,0.0,11.0,180.0,,,,,,5a8ad2082a842c0001fce0f2,17:03:38,27/03/2024
html-keyboard-response,195,406552,0.0-81.0-1.0,,"<div style=""display: flex; flex-direction: column; align-items: center; margin-top: -40px;""><img src=""images/pattern_6.png"" style=""width: 234px; height: 230px; margin-top: -50px;""><div style=""display: flex; justify-content: space-between; margin-top: 33px;""><img src=""images/choice_trial_11.png"" style=""width: 408px; height: 417px; margin-right: 608px;""></div></div>",,delaylearn,learning,display_response,1d0zK1p21qerwAOK1MeidoTrsHB2,1d0zK1p21qerwAOK1MeidoTrsHB2,,,,,,,,,,,,,,,,,chosen stimuli: images/choice_trial_11.png,,,,,5a8ad2082a842c0001fce0f2,17:03:38,27/03/2024
html-keyboard-response,196,407306,0.0-81.0-2.0,,,,delaylearn,learning,feedback_duration_window,1d0zK1p21qerwAOK1MeidoTrsHB2,1d0zK1p21qerwAOK1MeidoTrsHB2,,,,,,,,,,,,,,,,,,750.0,,,,5a8ad2082a842c0001fce0f2,17:03:38,27/03/2024
html-keyboard-response,197,408817,0.0-81.0-3.0,,<div style='margin:auto;width: auto; font-size: 150%'><span style='font-weight: bold; font-size: 100px; color: red;'>0 points!</span><br><br></div>,,delaylearn,learning,feedback_image_window,1d0zK1p21qerwAOK1MeidoTrsHB2,1d0zK1p21qerwAOK1MeidoTrsHB2,,,,,,,,,,,,,,,,,,,,,,5a8ad2082a842c0001fce0f2,17:03:38,27/03/2024
html-keyboard-response,198,411306,0.0-82.0,,"<div style=""font-size:100px;"">+</div>",,delaylearn,learning,ITI,1d0zK1p21qerwAOK1MeidoTrsHB2,1d0zK1p21qerwAOK1MeidoTrsHB2,,,,,,,,,,,,,,,,,,,2475.0,,,5a8ad2082a842c0001fce0f2,17:03:38,27/03/2024
html-keyboard-response,199,412104,0.0-83.0-0.0,790.5999999046326,"<div style=""display: flex; flex-direction: column; align-items: center; margin-top: -40px;""><img src=""images/pattern_3.png"" style=""width: 234px; height: 230px; margin-top: -50px;""><div style=""display: flex; justify-content: space-between; margin-top: 33px;""><img src=""images/choice_trial_6.png"" style=""width: 408px; height: 417px; margin-right: 200px;""><img src=""images/choice_trial_5.png"" style=""width: 408px; height: 417px;""></div></div>",j,delaylearn,learning,trial,1d0zK1p21qerwAOK1MeidoTrsHB2,1d0zK1p21qerwAOK1MeidoTrsHB2,1.0,images/choice_trial_6.png,images/choice_trial_5.png,images/pattern_3.png,j,j,7000.0,6.0,5.0,2.0,1.0,36.0,1.0,1.0,5.0,190.0,,,,,,5a8ad2082a842c0001fce0f2,17:03:38,27/03/2024
html-keyboard-response,200,413113,0.0-83.0-1.0,,"<div style=""display: flex; flex-direction: column; align-items: center; margin-top: -40px;""><img src=""images/pattern_3.png"" style=""width: 234px; height: 230px; margin-top: -50px;""><div style=""display: flex; justify-content: space-between; margin-top: 33px;""><img src=""images/choice_trial_5.png"" style=""width: 408px; height: 417px; margin-left:608px;""></div></div>",,delaylearn,learning,display_response,1d0zK1p21qerwAOK1MeidoTrsHB2,1d0zK1p21qerwAOK1MeidoTrsHB2,,,,,,,,,,,,,,,,,chosen stimuli: images/choice_trial_5.png,,,,,5a8ad2082a842c0001fce0f2,17:03:38,27/03/2024
html-keyboard-response,201,420117,0.0-83.0-2.0,,,,delaylearn,learning,feedback_duration_window,1d0zK1p21qerwAOK1MeidoTrsHB2,1d0zK1p21qerwAOK1MeidoTrsHB2,,,,,,,,,,,,,,,,,,7000.0,,,,5a8ad2082a842c0001fce0f2,17:03:38,27/03/2024
html-keyboard-response,202,421631,0.0-83.0-3.0,,<div style='margin:auto;width: auto; font-size: 150%'><span style='font-weight: bold; font-size: 100px; color: green;'>+10 points!</span><br><br></div>,,delaylearn,learning,feedback_image_window,1d0zK1p21qerwAOK1MeidoTrsHB2,1d0zK1p21qerwAOK1MeidoTrsHB2,,,,,,,,,,,,,,,,,,,,,,5a8ad2082a842c0001fce0f2,17:03:38,27/03/2024
html-keyboard-response,203,424057,0.0-84.0,,"<div style=""font-size:100px;"">+</div>",,delaylearn,learning,ITI,1d0zK1p21qerwAOK1MeidoTrsHB2,1d0zK1p21qerwAOK1MeidoTrsHB2,,,,,,,,,,,,,,,,,,,2422.0,,,5a8ad2082a842c0001fce0f2,17:03:38,27/03/2024
html-keyboard-response,204,425099,0.0-85.0-0.0,1034.7999997138977,"<div style=""display: flex; flex-direction: column; align-items: center; margin-top: -40px;""><img src=""images/pattern_4.png"" style=""width: 234px; height: 230px; margin-top: -50px;""><div style=""display: flex; justify-content: space-between; margin-top: 33px;""><img src=""images/choice_trial_8.png"" style=""width: 408px; height: 417px; margin-right: 200px;""><img src=""images/choice_trial_7.png"" style=""width: 408px; height: 417px;""></div></div>",j,delaylearn,learning,trial,1d0zK1p21qerwAOK1MeidoTrsHB2,1d0zK1p21qerwAOK1MeidoTrsHB2,1.0,images/choice_trial_8.png,images/choice_trial_7.png,images/pattern_4.png,f,j,7000.0,8.0,7.0,3.0,1.0,37.0,1.0,0.0,7.0,190.0,,,,,,5a8ad2082a842c0001fce0f2,17:03:38,27/03/2024
html-keyboard-response,205,426105,0.0-85.0-1.0,,"<div style=""display: flex; flex-direction: column; align-items: center; margin-top: -40px;""><img src=""images/pattern_4.png"" style=""width: 234px; height: 230px; margin-top: -50px;""><div style=""display: flex; justify-content: space-between; margin-top: 33px;""><img src=""images/choice_trial_7.png"" style=""width: 408px; height: 417px; margin-left:608px;""></div></div>",,delaylearn,learning,display_response,1d0zK1p21qerwAOK1MeidoTrsHB2,1d0zK1p21qerwAOK1MeidoTrsHB2,,,,,,,,,,,,,,,,,chosen stimuli: images/choice_trial_7.png,,,,,5a8ad2082a842c0001fce0f2,17:03:38,27/03/2024
html-keyboard-response,206,433110,0.0-85.0-2.0,,,,delaylearn,learning,feedback_duration_window,1d0zK1p21qerwAOK1MeidoTrsHB2,1d0zK1p21qerwAOK1MeidoTrsHB2,,,,,,,,,,,,,,,,,,7000.0,,,,5a8ad2082a842c0001fce0f2,17:03:38,27/03/2024
html-keyboard-response,207,434620,0.0-85.0-3.0,,<div style='margin:auto;width: auto; font-size: 150%'><span style='font-weight: bold; font-size: 100px; color: red;'>0 points!</span><br><br></div>,,delaylearn,learning,feedback_image_window,1d0zK1p21qerwAOK1MeidoTrsHB2,1d0zK1p21qerwAOK1MeidoTrsHB2,,,,,,,,,,,,,,,,,,,,,,5a8ad2082a842c0001fce0f2,17:03:38,27/03/2024
html-keyboard-response,208,436151,0.0-86.0,,"<div style=""font-size:100px;"">+</div>",,delaylearn,learning,ITI,1d0zK1p21qerwAOK1MeidoTrsHB2,1d0zK1p21qerwAOK1MeidoTrsHB2,,,,,,,,,,,,,,,,,,,1518.0,,,5a8ad2082a842c0001fce0f2,17:03:38,27/03/2024
html-keyboard-response,209,438889,0.0-87.0-0.0,2730.4000000953674,"<div style=""display: flex; flex-direction: column; align-items: center; margin-top: -40px;""><img src=""images/pattern_7.png"" style=""width: 234px; height: 230px; margin-top: -50px;""><div style=""display: flex; justify-content: space-between; margin-top: 33px;""><img src=""images/choice_trial_13.png"" style=""width: 408px; height: 417px; margin-right: 200px;""><img src=""images/choice_trial_14.png"" style=""width: 408px; height: 417px;""></div></div>",j,delaylearn,learning,trial,1d0zK1p21qerwAOK1MeidoTrsHB2,1d0zK1p21qerwAOK1MeidoTrsHB2,1.0,images/choice_trial_13.png,images/choice_trial_14.png,images/pattern_7.png,f,f,750.0,13.0,14.0,6.0,0.0,38.0,0.0,0.0,14.0,190.0,,,,,,5a8ad2082a842c0001fce0f2,17:03:38,27/03/2024
html-keyboard-response,210,439907,0.0-87.0-1.0,,"<div style=""display: flex; flex-direction: column; align-items: center; margin-top: -40px;""><img src=""images/pattern_7.png"" style=""width: 234px; height: 230px; margin-top: -50px;""><div style=""display: flex; justify-content: space-between; margin-top: 33px;""><img src=""images/choice_trial_14.png"" style=""width: 408px; height: 417px; margin-left:608px;""></div></div>",,delaylearn,learning,display_response,1d0zK1p21qerwAOK1MeidoTrsHB2,1d0zK1p21qerwAOK1MeidoTrsHB2,,,,,,,,,,,,,,,,,chosen stimuli: images/choice_trial_14.png,,,,,5a8ad2082a842c0001fce0f2,17:03:38,27/03/2024
html-keyboard-response,211,440667,0.0-87.0-2.0,,,,delaylearn,learning,feedback_duration_window,1d0zK1p21qerwAOK1MeidoTrsHB2,1d0zK1p21qerwAOK1MeidoTrsHB2,,,,,,,,,,,,,,,,,,750.0,,,,5a8ad2082a842c0001fce0f2,17:03:38,27/03/2024
html-keyboard-response,212,442179,0.0-87.0-3.0,,<div style='margin:auto;width: auto; font-size: 150%'><span style='font-weight: bold; font-size: 100px; color: red;'>0 points!</span><br><br></div>,,delaylearn,learning,feedback_image_window,1d0zK1p21qerwAOK1MeidoTrsHB2,1d0zK1p21qerwAOK1MeidoTrsHB2,,,,,,,,,,,,,,,,,,,,,,5a8ad2082a842c0001fce0f2,17:03:38,27/03/2024
html-keyboard-response,213,444550,0.0-88.0,,"<div style=""font-size:100px;"">+</div>",,delaylearn,learning,ITI,1d0zK1p21qerwAOK1MeidoTrsHB2,1d0zK1p21qerwAOK1MeidoTrsHB2,,,,,,,,,,,,,,,,,,,2354.0,,,5a8ad2082a842c0001fce0f2,17:03:38,27/03/2024
html-keyboard-response,214,446094,0.0-89.0-0.0,1536.5,"<div style=""display: flex; flex-direction: column; align-items: center; margin-top: -40px;""><img src=""images/pattern_1.png"" style=""width: 234px; height: 230px; margin-top: -50px;""><div style=""display: flex; justify-content: space-between; margin-top: 33px;""><img src=""images/choice_trial_1.png"" style=""width: 408px; height: 417px; margin-right: 200px;""><img src=""images/choice_trial_2.png"" style=""width: 408px; height: 417px;""></div></div>",f,delaylearn,learning,trial,1d0zK1p21qerwAOK1MeidoTrsHB2,1d0zK1p21qerwAOK1MeidoTrsHB2,1.0,images/choice_trial_1.png,images/choice_trial_2.png,images/pattern_1.png,f,f,7000.0,1.0,2.0,1.0,0.0,39.0,1.0,1.0,1.0,200.0,,,,,,5a8ad2082a842c0001fce0f2,17:03:38,27/03/2024
html-keyboard-response,215,447102,0.0-89.0-1.0,,"<div style=""display: flex; flex-direction: column; align-items: center; margin-top: -40px;""><img src=""images/pattern_1.png"" style=""width: 234px; height: 230px; margin-top: -50px;""><div style=""display: flex; justify-content: space-between; margin-top: 33px;""><img src=""images/choice_trial_1.png"" style=""width: 408px; height: 417px; margin-right: 608px;""></div></div>",,delaylearn,learning,display_response,1d0zK1p21qerwAOK1MeidoTrsHB2,1d0zK1p21qerwAOK1MeidoTrsHB2,,,,,,,,,,,,,,,,,chosen stimuli: images/choice_trial_1.png,,,,,5a8ad2082a842c0001fce0f2,17:03:38,27/03/2024
html-keyboard-response,216,454110,0.0-89.0-2.0,,,,delaylearn,learning,feedback_duration_window,1d0zK1p21qerwAOK1MeidoTrsHB2,1d0zK1p21qerwAOK1MeidoTrsHB2,,,,,,,,,,,,,,,,,,7000.0,,,,5a8ad2082a842c0001fce0f2,17:03:38,27/03/2024
html-keyboard-response,217,455625,0.0-89.0-3.0,,<div style='margin:auto;width: auto; font-size: 150%'><span style='font-weight: bold; font-size: 100px; color: green;'>+10 points!</span><br><br></div>,,delaylearn,learning,feedback_image_window,1d0zK1p21qerwAOK1MeidoTrsHB2,1d0zK1p21qerwAOK1MeidoTrsHB2,,,,,,,,,,,,,,,,,,,,,,5a8ad2082a842c0001fce0f2,17:03:38,27/03/2024
html-keyboard-response,218,456139,0.0-90.0-0.0,,,,,,mood_trial_fixation,1d0zK1p21qerwAOK1MeidoTrsHB2,,,,,,,,,,,,,,,,,,,,,,,5a8ad2082a842c0001fce0f2,17:03:38,27/03/2024
lmdlab-html-vas-response,219,460169,0.0-90.0-1.0,3009.0,How happy are you right now?,0.6076388888888888,delaylearn,learning,mood_trial,1d0zK1p21qerwAOK1MeidoTrsHB2,1d0zK1p21qerwAOK1MeidoTrsHB2,,,,,,,,,,,,,,,,,,,,"['Very unhappy', 'Very happy']",,5a8ad2082a842c0001fce0f2,17:03:38,27/03/2024
html-keyboard-response,220,462507,0.0-91.0,,"<div style=""font-size:100px;"">+</div>",,delaylearn,learning,ITI,1d0zK1p21qerwAOK1MeidoTrsHB2,1d0zK1p21qerwAOK1MeidoTrsHB2,,,,,,,,,,,,,,,,,,,2329.0,,,5a8ad2082a842c0001fce0f2,17:03:38,27/03/2024
html-keyboard-response,221,464746,0.0-92.0-0.0,2231.0,"<div style=""display: flex; flex-direction: column; align-items: center; margin-top: -40px;""><img src=""images/pattern_3.png"" style=""width: 234px; height: 230px; margin-top: -50px;""><div style=""display: flex; justify-content: space-between; margin-top: 33px;""><img src=""images/choice_trial_5.png"" style=""width: 408px; height: 417px; margin-right: 200px;""><img src=""images/choice_trial_6.png"" style=""width: 408px; height: 417px;""></div></div>",j,delaylearn,learning,trial,1d0zK1p21qerwAOK1MeidoTrsHB2,1d0zK1p21qerwAOK1MeidoTrsHB2,1.0,images/choice_trial_5.png,images/choice_trial_6.png,images/pattern_3.png,j,f,7000.0,5.0,6.0,2.0,0.0,40.0,0.0,1.0,6.0,210.0,,,,,,5a8ad2082a842c0001fce0f2,17:03:38,27/03/2024
html-keyboard-response,222,465758,0.0-92.0-1.0,,"<div style=""display: flex; flex-direction: column; align-items: center; margin-top: -40px;""><img src=""images/pattern_3.png"" style=""width: 234px; height: 230px; margin-top: -50px;""><div style=""display: flex; justify-content: space-between; margin-top: 33px;""><img src=""images/choice_trial_6.png"" style=""width: 408px; height: 417px; margin-left:608px;""></div></div>",,delaylearn,learning,display_response,1d0zK1p21qerwAOK1MeidoTrsHB2,1d0zK1p21qerwAOK1MeidoTrsHB2,,,,,,,,,,,,,,,,,chosen stimuli: images/choice_trial_6.png,,,,,5a8ad2082a842c0001fce0f2,17:03:38,27/03/2024
html-keyboard-response,223,472762,0.0-92.0-2.0,,,,delaylearn,learning,feedback_duration_window,1d0zK1p21qerwAOK1MeidoTrsHB2,1d0zK1p21qerwAOK1MeidoTrsHB2,,,,,,,,,,,,,,,,,,7000.0,,,,5a8ad2082a842c0001fce0f2,17:03:38,27/03/2024
html-keyboard-response,224,474275,0.0-92.0-3.0,,<div style='margin:auto;width: auto; font-size: 150%'><span style='font-weight: bold; font-size: 100px; color: green;'>+10 points!</span><br><br></div>,,delaylearn,learning,feedback_image_window,1d0zK1p21qerwAOK1MeidoTrsHB2,1d0zK1p21qerwAOK1MeidoTrsHB2,,,,,,,,,,,,,,,,,,,,,,5a8ad2082a842c0001fce0f2,17:03:38,27/03/2024
html-keyboard-response,225,476238,0.0-93.0,,"<div style=""font-size:100px;"">+</div>",,delaylearn,learning,ITI,1d0zK1p21qerwAOK1MeidoTrsHB2,1d0zK1p21qerwAOK1MeidoTrsHB2,,,,,,,,,,,,,,,,,,,1959.0,,,5a8ad2082a842c0001fce0f2,17:03:38,27/03/2024
html-keyboard-response,226,478163,0.0-94.0-0.0,1917.5999999046326,"<div style=""display: flex; flex-direction: column; align-items: center; margin-top: -40px;""><img src=""images/pattern_7.png"" style=""width: 234px; height: 230px; margin-top: -50px;""><div style=""display: flex; justify-content: space-between; margin-top: 33px;""><img src=""images/choice_trial_14.png"" style=""width: 408px; height: 417px; margin-right: 200px;""><img src=""images/choice_trial_13.png"" style=""width: 408px; height: 417px;""></div></div>",j,delaylearn,learning,trial,1d0zK1p21qerwAOK1MeidoTrsHB2,1d0zK1p21qerwAOK1MeidoTrsHB2,1.0,images/choice_trial_14.png,images/choice_trial_13.png,images/pattern_7.png,j,j,750.0,14.0,13.0,6.0,1.0,41.0,1.0,1.0,13.0,220.0,,,,,,5a8ad2082a842c0001fce0f2,17:03:38,27/03/2024
html-keyboard-response,227,479178,0.0-94.0-1.0,,"<div style=""display: flex; flex-direction: column; align-items: center; margin-top: -40px;""><img src=""images/pattern_7.png"" style=""width: 234px; height: 230px; margin-top: -50px;""><div style=""display: flex; justify-content: space-between; margin-top: 33px;""><img src=""images/choice_trial_13.png"" style=""width: 408px; height: 417px; margin-left:608px;""></div></div>",,delaylearn,learning,display_response,1d0zK1p21qerwAOK1MeidoTrsHB2,1d0zK1p21qerwAOK1MeidoTrsHB2,,,,,,,,,,,,,,,,,chosen stimuli: images/choice_trial_13.png,,,,,5a8ad2082a842c0001fce0f2,17:03:38,27/03/2024
html-keyboard-response,228,479941,0.0-94.0-2.0,,,,delaylearn,learning,feedback_duration_window,1d0zK1p21qerwAOK1MeidoTrsHB2,1d0zK1p21qerwAOK1MeidoTrsHB2,,,,,,,,,,,,,,,,,,750.0,,,,5a8ad2082a842c0001fce0f2,17:03:38,27/03/2024
html-keyboard-response,229,481449,0.0-94.0-3.0,,<div style='margin:auto;width: auto; font-size: 150%'><span style='font-weight: bold; font-size: 100px; color: green;'>+10 points!</span><br><br></div>,,delaylearn,learning,feedback_image_window,1d0zK1p21qerwAOK1MeidoTrsHB2,1d0zK1p21qerwAOK1MeidoTrsHB2,,,,,,,,,,,,,,,,,,,,,,5a8ad2082a842c0001fce0f2,17:03:38,27/03/2024
html-keyboard-response,230,483894,0.0-95.0,,"<div style=""font-size:100px;"">+</div>",,delaylearn,learning,ITI,1d0zK1p21qerwAOK1MeidoTrsHB2,1d0zK1p21qerwAOK1MeidoTrsHB2,,,,,,,,,,,,,,,,,,,2441.0,,,5a8ad2082a842c0001fce0f2,17:03:38,27/03/2024
