trial_type,trial_index,time_elapsed,internal_node_id,rt,stimulus,response,exp_name,exp_stage,test_part,subjectID,databaseID,counterbal,choice_stimuli_1,choice_stimuli_2,pattern_stimuli,rewarded_answer,correct_answer,feedback_duration_times,stim_left,stim_right,pair,leftright_counter,trial,response_correct,response_rewarded,chosen_stim,counter,displayed_choice,feedback_durations,ITI_duration,labels,rest_warning,prolificID,start_time,date
pavlovia,0,1478,0.0-0.0,,,,,,,6vshFtP68NOBGHf5OCNZMBV6yRV2,,,,,,,,,,,,,,,,,,,,,,,65101adae9f0b22a17c5af61,23:48:59,27/03/2024
html-keyboard-response,1,4494,0.0-1.0,,"<div style=""font-size:100px;"">+</div>",,delaylearn,learning,pre_fixation,6vshFtP68NOBGHf5OCNZMBV6yRV2,,,,,,,,,,,,,,,,,,,,,,,65101adae9f0b22a17c5af61,23:48:59,27/03/2024
html-keyboard-response,2,5454,0.0-2.0-0.0,956.7000000029802,"<div style=""display: flex; flex-direction: column; align-items: center; margin-top: -40px;""><img src=""images/demo_images/pattern_1.png"" style=""width: 234px; height: 230px; margin-top: -50px;""><div style=""display: flex; justify-content: space-between; margin-top: 33px;""><img src=""images/demo_images/choice_trial_2.png"" style=""width: 408px; height: 417px; margin-right: 200px;""><img src=""images/demo_images/choice_trial_1.png"" style=""width: 408px; height: 417px;""></div></div>",f,delaylearn,learning,trial,6vshFtP68NOBGHf5OCNZMBV6yRV2,6vshFtP68NOBGHf5OCNZMBV6yRV2,5.0,images/demo_images/choice_trial_2.png,images/demo_images/choice_trial_1.png,images/demo_images/pattern_1.png,j,j,3000.0,2.0,1.0,20.0,1.0,1.0,0.0,0.0,2.0,0.0,,,,,,65101adae9f0b22a17c5af61,23:48:59,27/03/2024
html-keyboard-response,3,6465,0.0-2.0-1.0,,"<div style=""display: flex; flex-direction: column; align-items: center; margin-top: -40px;""><img src=""images/demo_images/pattern_1.png"" style=""width: 234px; height: 230px; margin-top: -50px;""><div style=""display: flex; justify-content: space-between; margin-top: 33px;""><img src=""images/demo_images/choice_trial_2.png"" style=""width: 408px; height: 417px; margin-right: 608px;""></div></div>",,delaylearn,learning,display_response,6vshFtP68NOBGHf5OCNZMBV6yRV2,6vshFtP68NOBGHf5OCNZMBV6yRV2,,,,,,,,,,,,,,,,,chosen stimuli: images/demo_images/choice_trial_2.png,,,,,65101adae9f0b22a17c5af61,23:48:59,27/03/2024
html-keyboard-response,4,9470,0.0-2.0-2.0,,,,delaylearn,learning,feedback_duration_window,6vshFtP68NOBGHf5OCNZMBV6yRV2,6vshFtP68NOBGHf5OCNZMBV6yRV2,,,,,,,,,,,,,,,,,,3000.0,,,,65101adae9f0b22a17c5af61,23:48:59,27/03/2024
html-keyboard-response,5,10983,0.0-2.0-3.0,,<div style='margin:auto;width: auto; font-size: 150%'><span style='font-weight: bold; font-size: 100px; color: red;'>0 points!</span><br><br></div>,,delaylearn,learning,feedback_image_window,6vshFtP68NOBGHf5OCNZMBV6yRV2,6vshFtP68NOBGHf5OCNZMBV6yRV2,,,,,,,,,,,,,,,,,,,,,,65101adae9f0b22a17c5af61,23:48:59,27/03/2024
html-keyboard-response,6,13125,0.0-3.0,,"<div style=""font-size:100px;"">+</div>",,delaylearn,learning,ITI,6vshFtP68NOBGHf5OCNZMBV6yRV2,6vshFtP68NOBGHf5OCNZMBV6yRV2,,,,,,,,,,,,,,,,,,,2129.0,,,65101adae9f0b22a17c5af61,23:48:59,27/03/2024
html-keyboard-response,7,13875,0.0-4.0-0.0,746.5,"<div style=""display: flex; flex-direction: column; align-items: center; margin-top: -40px;""><img src=""images/demo_images/pattern_1.png"" style=""width: 234px; height: 230px; margin-top: -50px;""><div style=""display: flex; justify-content: space-between; margin-top: 33px;""><img src=""images/demo_images/choice_trial_2.png"" style=""width: 408px; height: 417px; margin-right: 200px;""><img src=""images/demo_images/choice_trial_1.png"" style=""width: 408px; height: 417px;""></div></div>",j,delaylearn,learning,trial,6vshFtP68NOBGHf5OCNZMBV6yRV2,6vshFtP68NOBGHf5OCNZMBV6yRV2,5.0,images/demo_images/choice_trial_2.png,images/demo_images/choice_trial_1.png,images/demo_images/pattern_1.png,j,j,3000.0,2.0,1.0,20.0,1.0,2.0,1.0,1.0,1.0,10.0,,,,,,65101adae9f0b22a17c5af61,23:48:59,27/03/2024
html-keyboard-response,8,14884,0.0-4.0-1.0,,"<div style=""display: flex; flex-direction: column; align-items: center; margin-top: -40px;""><img src=""images/demo_images/pattern_1.png"" style=""width: 234px; height: 230px; margin-top: -50px;""><div style=""display: flex; justify-content: space-between; margin-top: 33px;""><img src=""images/demo_images/choice_trial_1.png"" style=""width: 408px; height: 417px; margin-left:608px;""></div></div>",,delaylearn,learning,display_response,6vshFtP68NOBGHf5OCNZMBV6yRV2,6vshFtP68NOBGHf5OCNZMBV6yRV2,,,,,,,,,,,,,,,,,chosen stimuli: images/demo_images/choice_trial_1.png,,,,,65101adae9f0b22a17c5af61,23:48:59,27/03/2024
html-keyboard-response,9,17895,0.0-4.0-2.0,,,,delaylearn,learning,feedback_duration_window,6vshFtP68NOBGHf5OCNZMBV6yRV2,6vshFtP68NOBGHf5OCNZMBV6yRV2,,,,,,,,,,,,,,,,,,3000.0,,,,65101adae9f0b22a17c5af61,23:48:59,27/03/2024
html-keyboard-response,10,19397,0.0-4.0-3.0,,<div style='margin:auto;width: auto; font-size: 150%'><span style='font-weight: bold; font-size: 100px; color: green;'>+10 points!</span><br><br></div>,,delaylearn,learning,feedback_image_window,6vshFtP68NOBGHf5OCNZMBV6yRV2,6vshFtP68NOBGHf5OCNZMBV6yRV2,,,,,,,,,,,,,,,,,,,,,,65101adae9f0b22a17c5af61,23:48:59,27/03/2024
html-keyboard-response,11,21405,0.0-5.0,,"<div style=""font-size:100px;"">+</div>",,delaylearn,learning,ITI,6vshFtP68NOBGHf5OCNZMBV6yRV2,6vshFtP68NOBGHf5OCNZMBV6yRV2,,,,,,,,,,,,,,,,,,,2006.0,,,65101adae9f0b22a17c5af61,23:48:59,27/03/2024
html-keyboard-response,12,22262,0.0-6.0-0.0,856.0,"<div style=""display: flex; flex-direction: column; align-items: center; margin-top: -40px;""><img src=""images/demo_images/pattern_1.png"" style=""width: 234px; height: 230px; margin-top: -50px;""><div style=""display: flex; justify-content: space-between; margin-top: 33px;""><img src=""images/demo_images/choice_trial_1.png"" style=""width: 408px; height: 417px; margin-right: 200px;""><img src=""images/demo_images/choice_trial_2.png"" style=""width: 408px; height: 417px;""></div></div>",f,delaylearn,learning,trial,6vshFtP68NOBGHf5OCNZMBV6yRV2,6vshFtP68NOBGHf5OCNZMBV6yRV2,5.0,images/demo_images/choice_trial_1.png,images/demo_images/choice_trial_2.png,images/demo_images/pattern_1.png,j,f,3000.0,1.0,2.0,20.0,0.0,3.0,1.0,0.0,1.0,10.0,,,,,,65101adae9f0b22a17c5af61,23:48:59,27/03/2024
html-keyboard-response,13,23275,0.0-6.0-1.0,,"<div style=""display: flex; flex-direction: column; align-items: center; margin-top: -40px;""><img src=""images/demo_images/pattern_1.png"" style=""width: 234px; height: 230px; margin-top: -50px;""><div style=""display: flex; justify-content: space-between; margin-top: 33px;""><img src=""images/demo_images/choice_trial_1.png"" style=""width: 408px; height: 417px; margin-right: 608px;""></div></div>",,delaylearn,learning,display_response,6vshFtP68NOBGHf5OCNZMBV6yRV2,6vshFtP68NOBGHf5OCNZMBV6yRV2,,,,,,,,,,,,,,,,,chosen stimuli: images/demo_images/choice_trial_1.png,,,,,65101adae9f0b22a17c5af61,23:48:59,27/03/2024
html-keyboard-response,14,26289,0.0-6.0-2.0,,,,delaylearn,learning,feedback_duration_window,6vshFtP68NOBGHf5OCNZMBV6yRV2,6vshFtP68NOBGHf5OCNZMBV6yRV2,,,,,,,,,,,,,,,,,,3000.0,,,,65101adae9f0b22a17c5af61,23:48:59,27/03/2024
html-keyboard-response,15,27796,0.0-6.0-3.0,,<div style='margin:auto;width: auto; font-size: 150%'><span style='font-weight: bold; font-size: 100px; color: red;'>0 points!</span><br><br></div>,,delaylearn,learning,feedback_image_window,6vshFtP68NOBGHf5OCNZMBV6yRV2,6vshFtP68NOBGHf5OCNZMBV6yRV2,,,,,,,,,,,,,,,,,,,,,,65101adae9f0b22a17c5af61,23:48:59,27/03/2024
html-keyboard-response,16,29606,0.0-7.0,,"<div style=""font-size:100px;"">+</div>",,delaylearn,learning,ITI,6vshFtP68NOBGHf5OCNZMBV6yRV2,6vshFtP68NOBGHf5OCNZMBV6yRV2,,,,,,,,,,,,,,,,,,,1797.0,,,65101adae9f0b22a17c5af61,23:48:59,27/03/2024
html-keyboard-response,17,31637,0.0-8.0-0.0,2027.6000000089407,"<div style=""display: flex; flex-direction: column; align-items: center; margin-top: -40px;""><img src=""images/demo_images/pattern_1.png"" style=""width: 234px; height: 230px; margin-top: -50px;""><div style=""display: flex; justify-content: space-between; margin-top: 33px;""><img src=""images/demo_images/choice_trial_1.png"" style=""width: 408px; height: 417px; margin-right: 200px;""><img src=""images/demo_images/choice_trial_2.png"" style=""width: 408px; height: 417px;""></div></div>",j,delaylearn,learning,trial,6vshFtP68NOBGHf5OCNZMBV6yRV2,6vshFtP68NOBGHf5OCNZMBV6yRV2,5.0,images/demo_images/choice_trial_1.png,images/demo_images/choice_trial_2.png,images/demo_images/pattern_1.png,f,f,3000.0,1.0,2.0,20.0,0.0,4.0,0.0,0.0,2.0,10.0,,,,,,65101adae9f0b22a17c5af61,23:48:59,27/03/2024
html-keyboard-response,18,32651,0.0-8.0-1.0,,"<div style=""display: flex; flex-direction: column; align-items: center; margin-top: -40px;""><img src=""images/demo_images/pattern_1.png"" style=""width: 234px; height: 230px; margin-top: -50px;""><div style=""display: flex; justify-content: space-between; margin-top: 33px;""><img src=""images/demo_images/choice_trial_2.png"" style=""width: 408px; height: 417px; margin-left:608px;""></div></div>",,delaylearn,learning,display_response,6vshFtP68NOBGHf5OCNZMBV6yRV2,6vshFtP68NOBGHf5OCNZMBV6yRV2,,,,,,,,,,,,,,,,,chosen stimuli: images/demo_images/choice_trial_2.png,,,,,65101adae9f0b22a17c5af61,23:48:59,27/03/2024
html-keyboard-response,19,35654,0.0-8.0-2.0,,,,delaylearn,learning,feedback_duration_window,6vshFtP68NOBGHf5OCNZMBV6yRV2,6vshFtP68NOBGHf5OCNZMBV6yRV2,,,,,,,,,,,,,,,,,,3000.0,,,,65101adae9f0b22a17c5af61,23:48:59,27/03/2024
html-keyboard-response,20,37164,0.0-8.0-3.0,,<div style='margin:auto;width: auto; font-size: 150%'><span style='font-weight: bold; font-size: 100px; color: red;'>0 points!</span><br><br></div>,,delaylearn,learning,feedback_image_window,6vshFtP68NOBGHf5OCNZMBV6yRV2,6vshFtP68NOBGHf5OCNZMBV6yRV2,,,,,,,,,,,,,,,,,,,,,,65101adae9f0b22a17c5af61,23:48:59,27/03/2024
html-keyboard-response,21,37677,0.0-9.0-0.0,,,,,,mood_trial_fixation,6vshFtP68NOBGHf5OCNZMBV6yRV2,,,,,,,,,,,,,,,,,,,,,,,65101adae9f0b22a17c5af61,23:48:59,27/03/2024
lmdlab-html-vas-response,22,43027,0.0-9.0-1.0,4331.0,How happy are you right now?,0.22610433714575415,delaylearn,learning,mood_trial,6vshFtP68NOBGHf5OCNZMBV6yRV2,6vshFtP68NOBGHf5OCNZMBV6yRV2,,,,,,,,,,,,,,,,,,,,"['Very unhappy', 'Very happy']",,65101adae9f0b22a17c5af61,23:48:59,27/03/2024
html-keyboard-response,23,45270,0.0-10.0,,"<div style=""font-size:100px;"">+</div>",,delaylearn,learning,ITI,6vshFtP68NOBGHf5OCNZMBV6yRV2,6vshFtP68NOBGHf5OCNZMBV6yRV2,,,,,,,,,,,,,,,,,,,2233.0,,,65101adae9f0b22a17c5af61,23:48:59,27/03/2024
html-keyboard-response,24,46736,0.0-11.0-0.0,1464.1000000089407,"<div style=""display: flex; flex-direction: column; align-items: center; margin-top: -40px;""><img src=""images/demo_images/pattern_1.png"" style=""width: 234px; height: 230px; margin-top: -50px;""><div style=""display: flex; justify-content: space-between; margin-top: 33px;""><img src=""images/demo_images/choice_trial_2.png"" style=""width: 408px; height: 417px; margin-right: 200px;""><img src=""images/demo_images/choice_trial_1.png"" style=""width: 408px; height: 417px;""></div></div>",f,delaylearn,learning,trial,6vshFtP68NOBGHf5OCNZMBV6yRV2,6vshFtP68NOBGHf5OCNZMBV6yRV2,5.0,images/demo_images/choice_trial_2.png,images/demo_images/choice_trial_1.png,images/demo_images/pattern_1.png,j,j,3000.0,2.0,1.0,20.0,1.0,5.0,0.0,0.0,2.0,10.0,,,,,,65101adae9f0b22a17c5af61,23:48:59,27/03/2024
html-keyboard-response,25,47746,0.0-11.0-1.0,,"<div style=""display: flex; flex-direction: column; align-items: center; margin-top: -40px;""><img src=""images/demo_images/pattern_1.png"" style=""width: 234px; height: 230px; margin-top: -50px;""><div style=""display: flex; justify-content: space-between; margin-top: 33px;""><img src=""images/demo_images/choice_trial_2.png"" style=""width: 408px; height: 417px; margin-right: 608px;""></div></div>",,delaylearn,learning,display_response,6vshFtP68NOBGHf5OCNZMBV6yRV2,6vshFtP68NOBGHf5OCNZMBV6yRV2,,,,,,,,,,,,,,,,,chosen stimuli: images/demo_images/choice_trial_2.png,,,,,65101adae9f0b22a17c5af61,23:48:59,27/03/2024
html-keyboard-response,26,50763,0.0-11.0-2.0,,,,delaylearn,learning,feedback_duration_window,6vshFtP68NOBGHf5OCNZMBV6yRV2,6vshFtP68NOBGHf5OCNZMBV6yRV2,,,,,,,,,,,,,,,,,,3000.0,,,,65101adae9f0b22a17c5af61,23:48:59,27/03/2024
html-keyboard-response,27,52270,0.0-11.0-3.0,,<div style='margin:auto;width: auto; font-size: 150%'><span style='font-weight: bold; font-size: 100px; color: red;'>0 points!</span><br><br></div>,,delaylearn,learning,feedback_image_window,6vshFtP68NOBGHf5OCNZMBV6yRV2,6vshFtP68NOBGHf5OCNZMBV6yRV2,,,,,,,,,,,,,,,,,,,,,,65101adae9f0b22a17c5af61,23:48:59,27/03/2024
html-keyboard-response,28,54116,0.0-12.0,,"<div style=""font-size:100px;"">+</div>",,delaylearn,learning,ITI,6vshFtP68NOBGHf5OCNZMBV6yRV2,6vshFtP68NOBGHf5OCNZMBV6yRV2,,,,,,,,,,,,,,,,,,,1836.0,,,65101adae9f0b22a17c5af61,23:48:59,27/03/2024
html-keyboard-response,29,55264,0.0-13.0-0.0,1146.0,"<div style=""display: flex; flex-direction: column; align-items: center; margin-top: -40px;""><img src=""images/demo_images/pattern_1.png"" style=""width: 234px; height: 230px; margin-top: -50px;""><div style=""display: flex; justify-content: space-between; margin-top: 33px;""><img src=""images/demo_images/choice_trial_1.png"" style=""width: 408px; height: 417px; margin-right: 200px;""><img src=""images/demo_images/choice_trial_2.png"" style=""width: 408px; height: 417px;""></div></div>",f,delaylearn,learning,trial,6vshFtP68NOBGHf5OCNZMBV6yRV2,6vshFtP68NOBGHf5OCNZMBV6yRV2,5.0,images/demo_images/choice_trial_1.png,images/demo_images/choice_trial_2.png,images/demo_images/pattern_1.png,f,f,3000.0,1.0,2.0,20.0,0.0,6.0,1.0,1.0,1.0,20.0,,,,,,65101adae9f0b22a17c5af61,23:48:59,27/03/2024
html-keyboard-response,30,56273,0.0-13.0-1.0,,"<div style=""display: flex; flex-direction: column; align-items: center; margin-top: -40px;""><img src=""images/demo_images/pattern_1.png"" style=""width: 234px; height: 230px; margin-top: -50px;""><div style=""display: flex; justify-content: space-between; margin-top: 33px;""><img src=""images/demo_images/choice_trial_1.png"" style=""width: 408px; height: 417px; margin-right: 608px;""></div></div>",,delaylearn,learning,display_response,6vshFtP68NOBGHf5OCNZMBV6yRV2,6vshFtP68NOBGHf5OCNZMBV6yRV2,,,,,,,,,,,,,,,,,chosen stimuli: images/demo_images/choice_trial_1.png,,,,,65101adae9f0b22a17c5af61,23:48:59,27/03/2024
html-keyboard-response,31,59283,0.0-13.0-2.0,,,,delaylearn,learning,feedback_duration_window,6vshFtP68NOBGHf5OCNZMBV6yRV2,6vshFtP68NOBGHf5OCNZMBV6yRV2,,,,,,,,,,,,,,,,,,3000.0,,,,65101adae9f0b22a17c5af61,23:48:59,27/03/2024
html-keyboard-response,32,60796,0.0-13.0-3.0,,<div style='margin:auto;width: auto; font-size: 150%'><span style='font-weight: bold; font-size: 100px; color: green;'>+10 points!</span><br><br></div>,,delaylearn,learning,feedback_image_window,6vshFtP68NOBGHf5OCNZMBV6yRV2,6vshFtP68NOBGHf5OCNZMBV6yRV2,,,,,,,,,,,,,,,,,,,,,,65101adae9f0b22a17c5af61,23:48:59,27/03/2024
html-keyboard-response,33,62984,0.0-14.0,,"<div style=""font-size:100px;"">+</div>",,delaylearn,learning,ITI,6vshFtP68NOBGHf5OCNZMBV6yRV2,6vshFtP68NOBGHf5OCNZMBV6yRV2,,,,,,,,,,,,,,,,,,,2176.0,,,65101adae9f0b22a17c5af61,23:48:59,27/03/2024
html-keyboard-response,34,64175,0.0-15.0-0.0,1188.2999999970198,"<div style=""display: flex; flex-direction: column; align-items: center; margin-top: -40px;""><img src=""images/demo_images/pattern_1.png"" style=""width: 234px; height: 230px; margin-top: -50px;""><div style=""display: flex; justify-content: space-between; margin-top: 33px;""><img src=""images/demo_images/choice_trial_2.png"" style=""width: 408px; height: 417px; margin-right: 200px;""><img src=""images/demo_images/choice_trial_1.png"" style=""width: 408px; height: 417px;""></div></div>",j,delaylearn,learning,trial,6vshFtP68NOBGHf5OCNZMBV6yRV2,6vshFtP68NOBGHf5OCNZMBV6yRV2,5.0,images/demo_images/choice_trial_2.png,images/demo_images/choice_trial_1.png,images/demo_images/pattern_1.png,j,j,3000.0,2.0,1.0,20.0,1.0,7.0,1.0,1.0,1.0,30.0,,,,,,65101adae9f0b22a17c5af61,23:48:59,27/03/2024
html-keyboard-response,35,65186,0.0-15.0-1.0,,"<div style=""display: flex; flex-direction: column; align-items: center; margin-top: -40px;""><img src=""images/demo_images/pattern_1.png"" style=""width: 234px; height: 230px; margin-top: -50px;""><div style=""display: flex; justify-content: space-between; margin-top: 33px;""><img src=""images/demo_images/choice_trial_1.png"" style=""width: 408px; height: 417px; margin-left:608px;""></div></div>",,delaylearn,learning,display_response,6vshFtP68NOBGHf5OCNZMBV6yRV2,6vshFtP68NOBGHf5OCNZMBV6yRV2,,,,,,,,,,,,,,,,,chosen stimuli: images/demo_images/choice_trial_1.png,,,,,65101adae9f0b22a17c5af61,23:48:59,27/03/2024
html-keyboard-response,36,68197,0.0-15.0-2.0,,,,delaylearn,learning,feedback_duration_window,6vshFtP68NOBGHf5OCNZMBV6yRV2,6vshFtP68NOBGHf5OCNZMBV6yRV2,,,,,,,,,,,,,,,,,,3000.0,,,,65101adae9f0b22a17c5af61,23:48:59,27/03/2024
html-keyboard-response,37,69706,0.0-15.0-3.0,,<div style='margin:auto;width: auto; font-size: 150%'><span style='font-weight: bold; font-size: 100px; color: green;'>+10 points!</span><br><br></div>,,delaylearn,learning,feedback_image_window,6vshFtP68NOBGHf5OCNZMBV6yRV2,6vshFtP68NOBGHf5OCNZMBV6yRV2,,,,,,,,,,,,,,,,,,,,,,65101adae9f0b22a17c5af61,23:48:59,27/03/2024
html-keyboard-response,38,72205,0.0-16.0,,"<div style=""font-size:100px;"">+</div>",,delaylearn,learning,ITI,6vshFtP68NOBGHf5OCNZMBV6yRV2,6vshFtP68NOBGHf5OCNZMBV6yRV2,,,,,,,,,,,,,,,,,,,2483.0,,,65101adae9f0b22a17c5af61,23:48:59,27/03/2024
html-keyboard-response,39,73254,0.0-17.0-0.0,1047.2000000029802,"<div style=""display: flex; flex-direction: column; align-items: center; margin-top: -40px;""><img src=""images/demo_images/pattern_1.png"" style=""width: 234px; height: 230px; margin-top: -50px;""><div style=""display: flex; justify-content: space-between; margin-top: 33px;""><img src=""images/demo_images/choice_trial_1.png"" style=""width: 408px; height: 417px; margin-right: 200px;""><img src=""images/demo_images/choice_trial_2.png"" style=""width: 408px; height: 417px;""></div></div>",f,delaylearn,learning,trial,6vshFtP68NOBGHf5OCNZMBV6yRV2,6vshFtP68NOBGHf5OCNZMBV6yRV2,5.0,images/demo_images/choice_trial_1.png,images/demo_images/choice_trial_2.png,images/demo_images/pattern_1.png,f,f,3000.0,1.0,2.0,20.0,0.0,8.0,1.0,1.0,1.0,40.0,,,,,,65101adae9f0b22a17c5af61,23:48:59,27/03/2024
html-keyboard-response,40,74266,0.0-17.0-1.0,,"<div style=""display: flex; flex-direction: column; align-items: center; margin-top: -40px;""><img src=""images/demo_images/pattern_1.png"" style=""width: 234px; height: 230px; margin-top: -50px;""><div style=""display: flex; justify-content: space-between; margin-top: 33px;""><img src=""images/demo_images/choice_trial_1.png"" style=""width: 408px; height: 417px; margin-right: 608px;""></div></div>",,delaylearn,learning,display_response,6vshFtP68NOBGHf5OCNZMBV6yRV2,6vshFtP68NOBGHf5OCNZMBV6yRV2,,,,,,,,,,,,,,,,,chosen stimuli: images/demo_images/choice_trial_1.png,,,,,65101adae9f0b22a17c5af61,23:48:59,27/03/2024
html-keyboard-response,41,77271,0.0-17.0-2.0,,,,delaylearn,learning,feedback_duration_window,6vshFtP68NOBGHf5OCNZMBV6yRV2,6vshFtP68NOBGHf5OCNZMBV6yRV2,,,,,,,,,,,,,,,,,,3000.0,,,,65101adae9f0b22a17c5af61,23:48:59,27/03/2024
html-keyboard-response,42,78781,0.0-17.0-3.0,,<div style='margin:auto;width: auto; font-size: 150%'><span style='font-weight: bold; font-size: 100px; color: green;'>+10 points!</span><br><br></div>,,delaylearn,learning,feedback_image_window,6vshFtP68NOBGHf5OCNZMBV6yRV2,6vshFtP68NOBGHf5OCNZMBV6yRV2,,,,,,,,,,,,,,,,,,,,,,65101adae9f0b22a17c5af61,23:48:59,27/03/2024
html-button-response,43,83573,0.0-18.0,4790.899999991059,"
  <div style=""display: flex; align-items: center; justify-content: center; height: 80vh;"">
  <div>
          <img src=""images/inst_demo_finish.png"" style=""width: 80vw; height:auto;"">
          <br><br>
      </div>
      <br><br>
  </div>",0,,,,6vshFtP68NOBGHf5OCNZMBV6yRV2,,,,,,,,,,,,,,,,,,,,,,,65101adae9f0b22a17c5af61,23:48:59,27/03/2024
html-keyboard-response,44,88503,0.0-19.0,4928.79999999702,"
  <div style=""display: flex; align-items: center; justify-content: center; height: 80vh;"">
  <div>
          <img src=""images/inst_6.png"" style=""width: 80vw; height:auto;"">
          <br><br>
      </div>
      <br><br>
  </div>",j,,,,6vshFtP68NOBGHf5OCNZMBV6yRV2,,,,,,,,,,,,,,,,,,,,,,,65101adae9f0b22a17c5af61,23:48:59,27/03/2024
html-keyboard-response,45,91511,0.0-20.0,,"<div style=""font-size:100px;"">+</div>",,delaylearn,learning,pre_fixation,6vshFtP68NOBGHf5OCNZMBV6yRV2,,,,,,,,,,,,,,,,,,,,,,,65101adae9f0b22a17c5af61,23:48:59,27/03/2024
html-keyboard-response,46,93048,0.0-21.0,,"<div style=""font-size:100px;"">+</div>",,delaylearn,learning,ITI,6vshFtP68NOBGHf5OCNZMBV6yRV2,6vshFtP68NOBGHf5OCNZMBV6yRV2,,,,,,,,,,,,,,,,,,,1523.0,,,65101adae9f0b22a17c5af61,23:48:59,27/03/2024
html-keyboard-response,47,94474,0.0-22.0-0.0,1423.5999999940395,"<div style=""display: flex; flex-direction: column; align-items: center; margin-top: -40px;""><img src=""images/pattern_3.png"" style=""width: 234px; height: 230px; margin-top: -50px;""><div style=""display: flex; justify-content: space-between; margin-top: 33px;""><img src=""images/choice_trial_16.png"" style=""width: 408px; height: 417px; margin-right: 200px;""><img src=""images/choice_trial_2.png"" style=""width: 408px; height: 417px;""></div></div>",j,delaylearn,learning,trial,6vshFtP68NOBGHf5OCNZMBV6yRV2,6vshFtP68NOBGHf5OCNZMBV6yRV2,5.0,images/choice_trial_16.png,images/choice_trial_2.png,images/pattern_3.png,f,f,7000.0,16.0,2.0,2.0,0.0,9.0,0.0,0.0,2.0,40.0,,,,,,65101adae9f0b22a17c5af61,23:48:59,27/03/2024
html-keyboard-response,48,95479,0.0-22.0-1.0,,"<div style=""display: flex; flex-direction: column; align-items: center; margin-top: -40px;""><img src=""images/pattern_3.png"" style=""width: 234px; height: 230px; margin-top: -50px;""><div style=""display: flex; justify-content: space-between; margin-top: 33px;""><img src=""images/choice_trial_2.png"" style=""width: 408px; height: 417px; margin-left:608px;""></div></div>",,delaylearn,learning,display_response,6vshFtP68NOBGHf5OCNZMBV6yRV2,6vshFtP68NOBGHf5OCNZMBV6yRV2,,,,,,,,,,,,,,,,,chosen stimuli: images/choice_trial_2.png,,,,,65101adae9f0b22a17c5af61,23:48:59,27/03/2024
html-keyboard-response,49,102483,0.0-22.0-2.0,,,,delaylearn,learning,feedback_duration_window,6vshFtP68NOBGHf5OCNZMBV6yRV2,6vshFtP68NOBGHf5OCNZMBV6yRV2,,,,,,,,,,,,,,,,,,7000.0,,,,65101adae9f0b22a17c5af61,23:48:59,27/03/2024
html-keyboard-response,50,103989,0.0-22.0-3.0,,<div style='margin:auto;width: auto; font-size: 150%'><span style='font-weight: bold; font-size: 100px; color: red;'>0 points!</span><br><br></div>,,delaylearn,learning,feedback_image_window,6vshFtP68NOBGHf5OCNZMBV6yRV2,6vshFtP68NOBGHf5OCNZMBV6yRV2,,,,,,,,,,,,,,,,,,,,,,65101adae9f0b22a17c5af61,23:48:59,27/03/2024
html-keyboard-response,51,105887,0.0-23.0,,"<div style=""font-size:100px;"">+</div>",,delaylearn,learning,ITI,6vshFtP68NOBGHf5OCNZMBV6yRV2,6vshFtP68NOBGHf5OCNZMBV6yRV2,,,,,,,,,,,,,,,,,,,1884.0,,,65101adae9f0b22a17c5af61,23:48:59,27/03/2024
html-keyboard-response,52,107928,0.0-24.0-0.0,2039.0,"<div style=""display: flex; flex-direction: column; align-items: center; margin-top: -40px;""><img src=""images/pattern_7.png"" style=""width: 234px; height: 230px; margin-top: -50px;""><div style=""display: flex; justify-content: space-between; margin-top: 33px;""><img src=""images/choice_trial_10.png"" style=""width: 408px; height: 417px; margin-right: 200px;""><img src=""images/choice_trial_8.png"" style=""width: 408px; height: 417px;""></div></div>",f,delaylearn,learning,trial,6vshFtP68NOBGHf5OCNZMBV6yRV2,6vshFtP68NOBGHf5OCNZMBV6yRV2,5.0,images/choice_trial_10.png,images/choice_trial_8.png,images/pattern_7.png,j,j,750.0,10.0,8.0,6.0,1.0,10.0,0.0,0.0,10.0,40.0,,,,,,65101adae9f0b22a17c5af61,23:48:59,27/03/2024
html-keyboard-response,53,108930,0.0-24.0-1.0,,"<div style=""display: flex; flex-direction: column; align-items: center; margin-top: -40px;""><img src=""images/pattern_7.png"" style=""width: 234px; height: 230px; margin-top: -50px;""><div style=""display: flex; justify-content: space-between; margin-top: 33px;""><img src=""images/choice_trial_10.png"" style=""width: 408px; height: 417px; margin-right: 608px;""></div></div>",,delaylearn,learning,display_response,6vshFtP68NOBGHf5OCNZMBV6yRV2,6vshFtP68NOBGHf5OCNZMBV6yRV2,,,,,,,,,,,,,,,,,chosen stimuli: images/choice_trial_10.png,,,,,65101adae9f0b22a17c5af61,23:48:59,27/03/2024
html-keyboard-response,54,109691,0.0-24.0-2.0,,,,delaylearn,learning,feedback_duration_window,6vshFtP68NOBGHf5OCNZMBV6yRV2,6vshFtP68NOBGHf5OCNZMBV6yRV2,,,,,,,,,,,,,,,,,,750.0,,,,65101adae9f0b22a17c5af61,23:48:59,27/03/2024
html-keyboard-response,55,111195,0.0-24.0-3.0,,<div style='margin:auto;width: auto; font-size: 150%'><span style='font-weight: bold; font-size: 100px; color: red;'>0 points!</span><br><br></div>,,delaylearn,learning,feedback_image_window,6vshFtP68NOBGHf5OCNZMBV6yRV2,6vshFtP68NOBGHf5OCNZMBV6yRV2,,,,,,,,,,,,,,,,,,,,,,65101adae9f0b22a17c5af61,23:48:59,27/03/2024
html-keyboard-response,56,112793,0.0-25.0,,"<div style=""font-size:100px;"">+</div>",,delaylearn,learning,ITI,6vshFtP68NOBGHf5OCNZMBV6yRV2,6vshFtP68NOBGHf5OCNZMBV6yRV2,,,,,,,,,,,,,,,,,,,1588.0,,,65101adae9f0b22a17c5af61,23:48:59,27/03/2024
html-keyboard-response,57,114310,0.0-26.0-0.0,1515.0,"<div style=""display: flex; flex-direction: column; align-items: center; margin-top: -40px;""><img src=""images/pattern_4.png"" style=""width: 234px; height: 230px; margin-top: -50px;""><div style=""display: flex; justify-content: space-between; margin-top: 33px;""><img src=""images/choice_trial_11.png"" style=""width: 408px; height: 417px; margin-right: 200px;""><img src=""images/choice_trial_4.png"" style=""width: 408px; height: 417px;""></div></div>",j,delaylearn,learning,trial,6vshFtP68NOBGHf5OCNZMBV6yRV2,6vshFtP68NOBGHf5OCNZMBV6yRV2,5.0,images/choice_trial_11.png,images/choice_trial_4.png,images/pattern_4.png,f,f,7000.0,11.0,4.0,3.0,0.0,11.0,0.0,0.0,4.0,40.0,,,,,,65101adae9f0b22a17c5af61,23:48:59,27/03/2024
html-keyboard-response,58,115321,0.0-26.0-1.0,,"<div style=""display: flex; flex-direction: column; align-items: center; margin-top: -40px;""><img src=""images/pattern_4.png"" style=""width: 234px; height: 230px; margin-top: -50px;""><div style=""display: flex; justify-content: space-between; margin-top: 33px;""><img src=""images/choice_trial_4.png"" style=""width: 408px; height: 417px; margin-left:608px;""></div></div>",,delaylearn,learning,display_response,6vshFtP68NOBGHf5OCNZMBV6yRV2,6vshFtP68NOBGHf5OCNZMBV6yRV2,,,,,,,,,,,,,,,,,chosen stimuli: images/choice_trial_4.png,,,,,65101adae9f0b22a17c5af61,23:48:59,27/03/2024
html-keyboard-response,59,122329,0.0-26.0-2.0,,,,delaylearn,learning,feedback_duration_window,6vshFtP68NOBGHf5OCNZMBV6yRV2,6vshFtP68NOBGHf5OCNZMBV6yRV2,,,,,,,,,,,,,,,,,,7000.0,,,,65101adae9f0b22a17c5af61,23:48:59,27/03/2024
html-keyboard-response,60,123835,0.0-26.0-3.0,,<div style='margin:auto;width: auto; font-size: 150%'><span style='font-weight: bold; font-size: 100px; color: red;'>0 points!</span><br><br></div>,,delaylearn,learning,feedback_image_window,6vshFtP68NOBGHf5OCNZMBV6yRV2,6vshFtP68NOBGHf5OCNZMBV6yRV2,,,,,,,,,,,,,,,,,,,,,,65101adae9f0b22a17c5af61,23:48:59,27/03/2024
html-keyboard-response,61,125917,0.0-27.0,,"<div style=""font-size:100px;"">+</div>",,delaylearn,learning,ITI,6vshFtP68NOBGHf5OCNZMBV6yRV2,6vshFtP68NOBGHf5OCNZMBV6yRV2,,,,,,,,,,,,,,,,,,,2069.0,,,65101adae9f0b22a17c5af61,23:48:59,27/03/2024
html-keyboard-response,62,127991,0.0-28.0-0.0,2070.2999999970198,"<div style=""display: flex; flex-direction: column; align-items: center; margin-top: -40px;""><img src=""images/pattern_5.png"" style=""width: 234px; height: 230px; margin-top: -50px;""><div style=""display: flex; justify-content: space-between; margin-top: 33px;""><img src=""images/choice_trial_13.png"" style=""width: 408px; height: 417px; margin-right: 200px;""><img src=""images/choice_trial_7.png"" style=""width: 408px; height: 417px;""></div></div>",j,delaylearn,learning,trial,6vshFtP68NOBGHf5OCNZMBV6yRV2,6vshFtP68NOBGHf5OCNZMBV6yRV2,5.0,images/choice_trial_13.png,images/choice_trial_7.png,images/pattern_5.png,j,j,750.0,13.0,7.0,4.0,1.0,12.0,1.0,1.0,7.0,50.0,,,,,,65101adae9f0b22a17c5af61,23:48:59,27/03/2024
html-keyboard-response,63,128992,0.0-28.0-1.0,,"<div style=""display: flex; flex-direction: column; align-items: center; margin-top: -40px;""><img src=""images/pattern_5.png"" style=""width: 234px; height: 230px; margin-top: -50px;""><div style=""display: flex; justify-content: space-between; margin-top: 33px;""><img src=""images/choice_trial_7.png"" style=""width: 408px; height: 417px; margin-left:608px;""></div></div>",,delaylearn,learning,display_response,6vshFtP68NOBGHf5OCNZMBV6yRV2,6vshFtP68NOBGHf5OCNZMBV6yRV2,,,,,,,,,,,,,,,,,chosen stimuli: images/choice_trial_7.png,,,,,65101adae9f0b22a17c5af61,23:48:59,27/03/2024
html-keyboard-response,64,129753,0.0-28.0-2.0,,,,delaylearn,learning,feedback_duration_window,6vshFtP68NOBGHf5OCNZMBV6yRV2,6vshFtP68NOBGHf5OCNZMBV6yRV2,,,,,,,,,,,,,,,,,,750.0,,,,65101adae9f0b22a17c5af61,23:48:59,27/03/2024
html-keyboard-response,65,131258,0.0-28.0-3.0,,<div style='margin:auto;width: auto; font-size: 150%'><span style='font-weight: bold; font-size: 100px; color: green;'>+10 points!</span><br><br></div>,,delaylearn,learning,feedback_image_window,6vshFtP68NOBGHf5OCNZMBV6yRV2,6vshFtP68NOBGHf5OCNZMBV6yRV2,,,,,,,,,,,,,,,,,,,,,,65101adae9f0b22a17c5af61,23:48:59,27/03/2024
html-keyboard-response,66,133080,0.0-29.0,,"<div style=""font-size:100px;"">+</div>",,delaylearn,learning,ITI,6vshFtP68NOBGHf5OCNZMBV6yRV2,6vshFtP68NOBGHf5OCNZMBV6yRV2,,,,,,,,,,,,,,,,,,,1820.0,,,65101adae9f0b22a17c5af61,23:48:59,27/03/2024
html-keyboard-response,67,134601,0.0-30.0-0.0,1519.199999988079,"<div style=""display: flex; flex-direction: column; align-items: center; margin-top: -40px;""><img src=""images/pattern_6.png"" style=""width: 234px; height: 230px; margin-top: -50px;""><div style=""display: flex; justify-content: space-between; margin-top: 33px;""><img src=""images/choice_trial_14.png"" style=""width: 408px; height: 417px; margin-right: 200px;""><img src=""images/choice_trial_9.png"" style=""width: 408px; height: 417px;""></div></div>",f,delaylearn,learning,trial,6vshFtP68NOBGHf5OCNZMBV6yRV2,6vshFtP68NOBGHf5OCNZMBV6yRV2,5.0,images/choice_trial_14.png,images/choice_trial_9.png,images/pattern_6.png,j,f,750.0,14.0,9.0,5.0,0.0,13.0,1.0,0.0,14.0,50.0,,,,,,65101adae9f0b22a17c5af61,23:48:59,27/03/2024
html-keyboard-response,68,135609,0.0-30.0-1.0,,"<div style=""display: flex; flex-direction: column; align-items: center; margin-top: -40px;""><img src=""images/pattern_6.png"" style=""width: 234px; height: 230px; margin-top: -50px;""><div style=""display: flex; justify-content: space-between; margin-top: 33px;""><img src=""images/choice_trial_14.png"" style=""width: 408px; height: 417px; margin-right: 608px;""></div></div>",,delaylearn,learning,display_response,6vshFtP68NOBGHf5OCNZMBV6yRV2,6vshFtP68NOBGHf5OCNZMBV6yRV2,,,,,,,,,,,,,,,,,chosen stimuli: images/choice_trial_14.png,,,,,65101adae9f0b22a17c5af61,23:48:59,27/03/2024
html-keyboard-response,69,136372,0.0-30.0-2.0,,,,delaylearn,learning,feedback_duration_window,6vshFtP68NOBGHf5OCNZMBV6yRV2,6vshFtP68NOBGHf5OCNZMBV6yRV2,,,,,,,,,,,,,,,,,,750.0,,,,65101adae9f0b22a17c5af61,23:48:59,27/03/2024
html-keyboard-response,70,137877,0.0-30.0-3.0,,<div style='margin:auto;width: auto; font-size: 150%'><span style='font-weight: bold; font-size: 100px; color: red;'>0 points!</span><br><br></div>,,delaylearn,learning,feedback_image_window,6vshFtP68NOBGHf5OCNZMBV6yRV2,6vshFtP68NOBGHf5OCNZMBV6yRV2,,,,,,,,,,,,,,,,,,,,,,65101adae9f0b22a17c5af61,23:48:59,27/03/2024
html-keyboard-response,71,138388,0.0-31.0-0.0,,,,,,mood_trial_fixation,6vshFtP68NOBGHf5OCNZMBV6yRV2,,,,,,,,,,,,,,,,,,,,,,,65101adae9f0b22a17c5af61,23:48:59,27/03/2024
lmdlab-html-vas-response,72,142704,0.0-31.0-1.0,3305.0,How happy are you right now?,0.21838828812642566,delaylearn,learning,mood_trial,6vshFtP68NOBGHf5OCNZMBV6yRV2,6vshFtP68NOBGHf5OCNZMBV6yRV2,,,,,,,,,,,,,,,,,,,,"['Very unhappy', 'Very happy']",,65101adae9f0b22a17c5af61,23:48:59,27/03/2024
html-keyboard-response,73,144436,0.0-32.0,,"<div style=""font-size:100px;"">+</div>",,delaylearn,learning,ITI,6vshFtP68NOBGHf5OCNZMBV6yRV2,6vshFtP68NOBGHf5OCNZMBV6yRV2,,,,,,,,,,,,,,,,,,,1718.0,,,65101adae9f0b22a17c5af61,23:48:59,27/03/2024
html-keyboard-response,74,145437,0.0-33.0-0.0,997.6999999880791,"<div style=""display: flex; flex-direction: column; align-items: center; margin-top: -40px;""><img src=""images/pattern_1.png"" style=""width: 234px; height: 230px; margin-top: -50px;""><div style=""display: flex; justify-content: space-between; margin-top: 33px;""><img src=""images/choice_trial_15.png"" style=""width: 408px; height: 417px; margin-right: 200px;""><img src=""images/choice_trial_6.png"" style=""width: 408px; height: 417px;""></div></div>",f,delaylearn,learning,trial,6vshFtP68NOBGHf5OCNZMBV6yRV2,6vshFtP68NOBGHf5OCNZMBV6yRV2,5.0,images/choice_trial_15.png,images/choice_trial_6.png,images/pattern_1.png,j,j,7000.0,15.0,6.0,1.0,1.0,14.0,0.0,0.0,15.0,50.0,,,,,,65101adae9f0b22a17c5af61,23:48:59,27/03/2024
html-keyboard-response,75,146454,0.0-33.0-1.0,,"<div style=""display: flex; flex-direction: column; align-items: center; margin-top: -40px;""><img src=""images/pattern_1.png"" style=""width: 234px; height: 230px; margin-top: -50px;""><div style=""display: flex; justify-content: space-between; margin-top: 33px;""><img src=""images/choice_trial_15.png"" style=""width: 408px; height: 417px; margin-right: 608px;""></div></div>",,delaylearn,learning,display_response,6vshFtP68NOBGHf5OCNZMBV6yRV2,6vshFtP68NOBGHf5OCNZMBV6yRV2,,,,,,,,,,,,,,,,,chosen stimuli: images/choice_trial_15.png,,,,,65101adae9f0b22a17c5af61,23:48:59,27/03/2024
html-keyboard-response,76,153461,0.0-33.0-2.0,,,,delaylearn,learning,feedback_duration_window,6vshFtP68NOBGHf5OCNZMBV6yRV2,6vshFtP68NOBGHf5OCNZMBV6yRV2,,,,,,,,,,,,,,,,,,7000.0,,,,65101adae9f0b22a17c5af61,23:48:59,27/03/2024
html-keyboard-response,77,154973,0.0-33.0-3.0,,<div style='margin:auto;width: auto; font-size: 150%'><span style='font-weight: bold; font-size: 100px; color: red;'>0 points!</span><br><br></div>,,delaylearn,learning,feedback_image_window,6vshFtP68NOBGHf5OCNZMBV6yRV2,6vshFtP68NOBGHf5OCNZMBV6yRV2,,,,,,,,,,,,,,,,,,,,,,65101adae9f0b22a17c5af61,23:48:59,27/03/2024
html-keyboard-response,78,156544,0.0-34.0,,"<div style=""font-size:100px;"">+</div>",,delaylearn,learning,ITI,6vshFtP68NOBGHf5OCNZMBV6yRV2,6vshFtP68NOBGHf5OCNZMBV6yRV2,,,,,,,,,,,,,,,,,,,1561.0,,,65101adae9f0b22a17c5af61,23:48:59,27/03/2024
html-keyboard-response,79,158441,0.0-35.0-0.0,1895.8999999910593,"<div style=""display: flex; flex-direction: column; align-items: center; margin-top: -40px;""><img src=""images/pattern_3.png"" style=""width: 234px; height: 230px; margin-top: -50px;""><div style=""display: flex; justify-content: space-between; margin-top: 33px;""><img src=""images/choice_trial_2.png"" style=""width: 408px; height: 417px; margin-right: 200px;""><img src=""images/choice_trial_16.png"" style=""width: 408px; height: 417px;""></div></div>",j,delaylearn,learning,trial,6vshFtP68NOBGHf5OCNZMBV6yRV2,6vshFtP68NOBGHf5OCNZMBV6yRV2,5.0,images/choice_trial_2.png,images/choice_trial_16.png,images/pattern_3.png,f,j,7000.0,2.0,16.0,2.0,1.0,15.0,1.0,0.0,16.0,50.0,,,,,,65101adae9f0b22a17c5af61,23:48:59,27/03/2024
html-keyboard-response,80,159456,0.0-35.0-1.0,,"<div style=""display: flex; flex-direction: column; align-items: center; margin-top: -40px;""><img src=""images/pattern_3.png"" style=""width: 234px; height: 230px; margin-top: -50px;""><div style=""display: flex; justify-content: space-between; margin-top: 33px;""><img src=""images/choice_trial_16.png"" style=""width: 408px; height: 417px; margin-left:608px;""></div></div>",,delaylearn,learning,display_response,6vshFtP68NOBGHf5OCNZMBV6yRV2,6vshFtP68NOBGHf5OCNZMBV6yRV2,,,,,,,,,,,,,,,,,chosen stimuli: images/choice_trial_16.png,,,,,65101adae9f0b22a17c5af61,23:48:59,27/03/2024
html-keyboard-response,81,166471,0.0-35.0-2.0,,,,delaylearn,learning,feedback_duration_window,6vshFtP68NOBGHf5OCNZMBV6yRV2,6vshFtP68NOBGHf5OCNZMBV6yRV2,,,,,,,,,,,,,,,,,,7000.0,,,,65101adae9f0b22a17c5af61,23:48:59,27/03/2024
html-keyboard-response,82,167980,0.0-35.0-3.0,,<div style='margin:auto;width: auto; font-size: 150%'><span style='font-weight: bold; font-size: 100px; color: red;'>0 points!</span><br><br></div>,,delaylearn,learning,feedback_image_window,6vshFtP68NOBGHf5OCNZMBV6yRV2,6vshFtP68NOBGHf5OCNZMBV6yRV2,,,,,,,,,,,,,,,,,,,,,,65101adae9f0b22a17c5af61,23:48:59,27/03/2024
html-keyboard-response,83,170032,0.0-36.0,,"<div style=""font-size:100px;"">+</div>",,delaylearn,learning,ITI,6vshFtP68NOBGHf5OCNZMBV6yRV2,6vshFtP68NOBGHf5OCNZMBV6yRV2,,,,,,,,,,,,,,,,,,,2041.0,,,65101adae9f0b22a17c5af61,23:48:59,27/03/2024
html-keyboard-response,84,173039,0.0-37.0-0.0,,"<div style=""display: flex; flex-direction: column; align-items: center; margin-top: -40px;""><img src=""images/pattern_5.png"" style=""width: 234px; height: 230px; margin-top: -50px;""><div style=""display: flex; justify-content: space-between; margin-top: 33px;""><img src=""images/choice_trial_7.png"" style=""width: 408px; height: 417px; margin-right: 200px;""><img src=""images/choice_trial_13.png"" style=""width: 408px; height: 417px;""></div></div>",,delaylearn,learning,trial,6vshFtP68NOBGHf5OCNZMBV6yRV2,6vshFtP68NOBGHf5OCNZMBV6yRV2,5.0,images/choice_trial_7.png,images/choice_trial_13.png,images/pattern_5.png,f,f,750.0,7.0,13.0,4.0,0.0,16.0,0.0,0.0,0.0,50.0,,,,,,65101adae9f0b22a17c5af61,23:48:59,27/03/2024
html-keyboard-response,85,174055,0.0-37.0-1.0,,<div style='font-weight: bold; font-size: 75px; color: red;'>Missed Trial <br><br><br><br> Please respond faster</div>,,delaylearn,learning,display_response,6vshFtP68NOBGHf5OCNZMBV6yRV2,6vshFtP68NOBGHf5OCNZMBV6yRV2,,,,,,,,,,,,,,,,,Missed trial,,,,,65101adae9f0b22a17c5af61,23:48:59,27/03/2024
html-keyboard-response,86,174060,0.0-37.0-2.0,,,,delaylearn,learning,feedback_duration_window,6vshFtP68NOBGHf5OCNZMBV6yRV2,6vshFtP68NOBGHf5OCNZMBV6yRV2,,,,,,,,,,,,,,,,,,0.0,,,,65101adae9f0b22a17c5af61,23:48:59,27/03/2024
html-keyboard-response,87,174066,0.0-37.0-3.0,,,,delaylearn,learning,feedback_image_window,6vshFtP68NOBGHf5OCNZMBV6yRV2,6vshFtP68NOBGHf5OCNZMBV6yRV2,,,,,,,,,,,,,,,,,,,,,,65101adae9f0b22a17c5af61,23:48:59,27/03/2024
html-keyboard-response,88,174568,0.0-38.0-0.0,,,,,,mood_trial_fixation,6vshFtP68NOBGHf5OCNZMBV6yRV2,,,,,,,,,,,,,,,,,,,,,,,65101adae9f0b22a17c5af61,23:48:59,27/03/2024
lmdlab-html-vas-response,89,178646,0.0-38.0-1.0,3064.0,How happy are you right now?,0.08335743028817681,delaylearn,learning,mood_trial,6vshFtP68NOBGHf5OCNZMBV6yRV2,6vshFtP68NOBGHf5OCNZMBV6yRV2,,,,,,,,,,,,,,,,,,,,"['Very unhappy', 'Very happy']",,65101adae9f0b22a17c5af61,23:48:59,27/03/2024
html-keyboard-response,90,181133,0.0-39.0,,"<div style=""font-size:100px;"">+</div>",,delaylearn,learning,ITI,6vshFtP68NOBGHf5OCNZMBV6yRV2,6vshFtP68NOBGHf5OCNZMBV6yRV2,,,,,,,,,,,,,,,,,,,2482.0,,,65101adae9f0b22a17c5af61,23:48:59,27/03/2024
html-keyboard-response,91,182153,0.0-40.0-0.0,1018.0999999940395,"<div style=""display: flex; flex-direction: column; align-items: center; margin-top: -40px;""><img src=""images/pattern_6.png"" style=""width: 234px; height: 230px; margin-top: -50px;""><div style=""display: flex; justify-content: space-between; margin-top: 33px;""><img src=""images/choice_trial_14.png"" style=""width: 408px; height: 417px; margin-right: 200px;""><img src=""images/choice_trial_9.png"" style=""width: 408px; height: 417px;""></div></div>",j,delaylearn,learning,trial,6vshFtP68NOBGHf5OCNZMBV6yRV2,6vshFtP68NOBGHf5OCNZMBV6yRV2,5.0,images/choice_trial_14.png,images/choice_trial_9.png,images/pattern_6.png,f,f,750.0,14.0,9.0,5.0,0.0,17.0,0.0,0.0,9.0,50.0,,,,,,65101adae9f0b22a17c5af61,23:48:59,27/03/2024
html-keyboard-response,92,183165,0.0-40.0-1.0,,"<div style=""display: flex; flex-direction: column; align-items: center; margin-top: -40px;""><img src=""images/pattern_6.png"" style=""width: 234px; height: 230px; margin-top: -50px;""><div style=""display: flex; justify-content: space-between; margin-top: 33px;""><img src=""images/choice_trial_9.png"" style=""width: 408px; height: 417px; margin-left:608px;""></div></div>",,delaylearn,learning,display_response,6vshFtP68NOBGHf5OCNZMBV6yRV2,6vshFtP68NOBGHf5OCNZMBV6yRV2,,,,,,,,,,,,,,,,,chosen stimuli: images/choice_trial_9.png,,,,,65101adae9f0b22a17c5af61,23:48:59,27/03/2024
html-keyboard-response,93,183931,0.0-40.0-2.0,,,,delaylearn,learning,feedback_duration_window,6vshFtP68NOBGHf5OCNZMBV6yRV2,6vshFtP68NOBGHf5OCNZMBV6yRV2,,,,,,,,,,,,,,,,,,750.0,,,,65101adae9f0b22a17c5af61,23:48:59,27/03/2024
html-keyboard-response,94,185440,0.0-40.0-3.0,,<div style='margin:auto;width: auto; font-size: 150%'><span style='font-weight: bold; font-size: 100px; color: red;'>0 points!</span><br><br></div>,,delaylearn,learning,feedback_image_window,6vshFtP68NOBGHf5OCNZMBV6yRV2,6vshFtP68NOBGHf5OCNZMBV6yRV2,,,,,,,,,,,,,,,,,,,,,,65101adae9f0b22a17c5af61,23:48:59,27/03/2024
html-keyboard-response,95,187198,0.0-41.0,,"<div style=""font-size:100px;"">+</div>",,delaylearn,learning,ITI,6vshFtP68NOBGHf5OCNZMBV6yRV2,6vshFtP68NOBGHf5OCNZMBV6yRV2,,,,,,,,,,,,,,,,,,,1747.0,,,65101adae9f0b22a17c5af61,23:48:59,27/03/2024
html-keyboard-response,96,188440,0.0-42.0-0.0,1239.199999988079,"<div style=""display: flex; flex-direction: column; align-items: center; margin-top: -40px;""><img src=""images/pattern_4.png"" style=""width: 234px; height: 230px; margin-top: -50px;""><div style=""display: flex; justify-content: space-between; margin-top: 33px;""><img src=""images/choice_trial_4.png"" style=""width: 408px; height: 417px; margin-right: 200px;""><img src=""images/choice_trial_11.png"" style=""width: 408px; height: 417px;""></div></div>",j,delaylearn,learning,trial,6vshFtP68NOBGHf5OCNZMBV6yRV2,6vshFtP68NOBGHf5OCNZMBV6yRV2,5.0,images/choice_trial_4.png,images/choice_trial_11.png,images/pattern_4.png,j,j,7000.0,4.0,11.0,3.0,1.0,18.0,1.0,1.0,11.0,60.0,,,,,,65101adae9f0b22a17c5af61,23:48:59,27/03/2024
html-keyboard-response,97,189447,0.0-42.0-1.0,,"<div style=""display: flex; flex-direction: column; align-items: center; margin-top: -40px;""><img src=""images/pattern_4.png"" style=""width: 234px; height: 230px; margin-top: -50px;""><div style=""display: flex; justify-content: space-between; margin-top: 33px;""><img src=""images/choice_trial_11.png"" style=""width: 408px; height: 417px; margin-left:608px;""></div></div>",,delaylearn,learning,display_response,6vshFtP68NOBGHf5OCNZMBV6yRV2,6vshFtP68NOBGHf5OCNZMBV6yRV2,,,,,,,,,,,,,,,,,chosen stimuli: images/choice_trial_11.png,,,,,65101adae9f0b22a17c5af61,23:48:59,27/03/2024
html-keyboard-response,98,196449,0.0-42.0-2.0,,,,delaylearn,learning,feedback_duration_window,6vshFtP68NOBGHf5OCNZMBV6yRV2,6vshFtP68NOBGHf5OCNZMBV6yRV2,,,,,,,,,,,,,,,,,,7000.0,,,,65101adae9f0b22a17c5af61,23:48:59,27/03/2024
html-keyboard-response,99,197959,0.0-42.0-3.0,,<div style='margin:auto;width: auto; font-size: 150%'><span style='font-weight: bold; font-size: 100px; color: green;'>+10 points!</span><br><br></div>,,delaylearn,learning,feedback_image_window,6vshFtP68NOBGHf5OCNZMBV6yRV2,6vshFtP68NOBGHf5OCNZMBV6yRV2,,,,,,,,,,,,,,,,,,,,,,65101adae9f0b22a17c5af61,23:48:59,27/03/2024
html-keyboard-response,100,200147,0.0-43.0,,"<div style=""font-size:100px;"">+</div>",,delaylearn,learning,ITI,6vshFtP68NOBGHf5OCNZMBV6yRV2,6vshFtP68NOBGHf5OCNZMBV6yRV2,,,,,,,,,,,,,,,,,,,2173.0,,,65101adae9f0b22a17c5af61,23:48:59,27/03/2024
html-keyboard-response,101,201433,0.0-44.0-0.0,1284.5,"<div style=""display: flex; flex-direction: column; align-items: center; margin-top: -40px;""><img src=""images/pattern_7.png"" style=""width: 234px; height: 230px; margin-top: -50px;""><div style=""display: flex; justify-content: space-between; margin-top: 33px;""><img src=""images/choice_trial_8.png"" style=""width: 408px; height: 417px; margin-right: 200px;""><img src=""images/choice_trial_10.png"" style=""width: 408px; height: 417px;""></div></div>",f,delaylearn,learning,trial,6vshFtP68NOBGHf5OCNZMBV6yRV2,6vshFtP68NOBGHf5OCNZMBV6yRV2,5.0,images/choice_trial_8.png,images/choice_trial_10.png,images/pattern_7.png,j,f,750.0,8.0,10.0,6.0,0.0,19.0,1.0,0.0,8.0,60.0,,,,,,65101adae9f0b22a17c5af61,23:48:59,27/03/2024
html-keyboard-response,102,202449,0.0-44.0-1.0,,"<div style=""display: flex; flex-direction: column; align-items: center; margin-top: -40px;""><img src=""images/pattern_7.png"" style=""width: 234px; height: 230px; margin-top: -50px;""><div style=""display: flex; justify-content: space-between; margin-top: 33px;""><img src=""images/choice_trial_8.png"" style=""width: 408px; height: 417px; margin-right: 608px;""></div></div>",,delaylearn,learning,display_response,6vshFtP68NOBGHf5OCNZMBV6yRV2,6vshFtP68NOBGHf5OCNZMBV6yRV2,,,,,,,,,,,,,,,,,chosen stimuli: images/choice_trial_8.png,,,,,65101adae9f0b22a17c5af61,23:48:59,27/03/2024
html-keyboard-response,103,203213,0.0-44.0-2.0,,,,delaylearn,learning,feedback_duration_window,6vshFtP68NOBGHf5OCNZMBV6yRV2,6vshFtP68NOBGHf5OCNZMBV6yRV2,,,,,,,,,,,,,,,,,,750.0,,,,65101adae9f0b22a17c5af61,23:48:59,27/03/2024
html-keyboard-response,104,204718,0.0-44.0-3.0,,<div style='margin:auto;width: auto; font-size: 150%'><span style='font-weight: bold; font-size: 100px; color: red;'>0 points!</span><br><br></div>,,delaylearn,learning,feedback_image_window,6vshFtP68NOBGHf5OCNZMBV6yRV2,6vshFtP68NOBGHf5OCNZMBV6yRV2,,,,,,,,,,,,,,,,,,,,,,65101adae9f0b22a17c5af61,23:48:59,27/03/2024
html-keyboard-response,105,206628,0.0-45.0,,"<div style=""font-size:100px;"">+</div>",,delaylearn,learning,ITI,6vshFtP68NOBGHf5OCNZMBV6yRV2,6vshFtP68NOBGHf5OCNZMBV6yRV2,,,,,,,,,,,,,,,,,,,1906.0,,,65101adae9f0b22a17c5af61,23:48:59,27/03/2024
html-keyboard-response,106,207779,0.0-46.0-0.0,1148.5,"<div style=""display: flex; flex-direction: column; align-items: center; margin-top: -40px;""><img src=""images/pattern_1.png"" style=""width: 234px; height: 230px; margin-top: -50px;""><div style=""display: flex; justify-content: space-between; margin-top: 33px;""><img src=""images/choice_trial_6.png"" style=""width: 408px; height: 417px; margin-right: 200px;""><img src=""images/choice_trial_15.png"" style=""width: 408px; height: 417px;""></div></div>",f,delaylearn,learning,trial,6vshFtP68NOBGHf5OCNZMBV6yRV2,6vshFtP68NOBGHf5OCNZMBV6yRV2,5.0,images/choice_trial_6.png,images/choice_trial_15.png,images/pattern_1.png,f,f,7000.0,6.0,15.0,1.0,0.0,20.0,1.0,1.0,6.0,70.0,,,,,,65101adae9f0b22a17c5af61,23:48:59,27/03/2024
html-keyboard-response,107,208790,0.0-46.0-1.0,,"<div style=""display: flex; flex-direction: column; align-items: center; margin-top: -40px;""><img src=""images/pattern_1.png"" style=""width: 234px; height: 230px; margin-top: -50px;""><div style=""display: flex; justify-content: space-between; margin-top: 33px;""><img src=""images/choice_trial_6.png"" style=""width: 408px; height: 417px; margin-right: 608px;""></div></div>",,delaylearn,learning,display_response,6vshFtP68NOBGHf5OCNZMBV6yRV2,6vshFtP68NOBGHf5OCNZMBV6yRV2,,,,,,,,,,,,,,,,,chosen stimuli: images/choice_trial_6.png,,,,,65101adae9f0b22a17c5af61,23:48:59,27/03/2024
html-keyboard-response,108,215803,0.0-46.0-2.0,,,,delaylearn,learning,feedback_duration_window,6vshFtP68NOBGHf5OCNZMBV6yRV2,6vshFtP68NOBGHf5OCNZMBV6yRV2,,,,,,,,,,,,,,,,,,7000.0,,,,65101adae9f0b22a17c5af61,23:48:59,27/03/2024
html-keyboard-response,109,217317,0.0-46.0-3.0,,<div style='margin:auto;width: auto; font-size: 150%'><span style='font-weight: bold; font-size: 100px; color: green;'>+10 points!</span><br><br></div>,,delaylearn,learning,feedback_image_window,6vshFtP68NOBGHf5OCNZMBV6yRV2,6vshFtP68NOBGHf5OCNZMBV6yRV2,,,,,,,,,,,,,,,,,,,,,,65101adae9f0b22a17c5af61,23:48:59,27/03/2024
html-keyboard-response,110,219526,0.0-47.0,,"<div style=""font-size:100px;"">+</div>",,delaylearn,learning,ITI,6vshFtP68NOBGHf5OCNZMBV6yRV2,6vshFtP68NOBGHf5OCNZMBV6yRV2,,,,,,,,,,,,,,,,,,,2202.0,,,65101adae9f0b22a17c5af61,23:48:59,27/03/2024
html-keyboard-response,111,220869,0.0-48.0-0.0,1341.6000000089407,"<div style=""display: flex; flex-direction: column; align-items: center; margin-top: -40px;""><img src=""images/pattern_6.png"" style=""width: 234px; height: 230px; margin-top: -50px;""><div style=""display: flex; justify-content: space-between; margin-top: 33px;""><img src=""images/choice_trial_9.png"" style=""width: 408px; height: 417px; margin-right: 200px;""><img src=""images/choice_trial_14.png"" style=""width: 408px; height: 417px;""></div></div>",f,delaylearn,learning,trial,6vshFtP68NOBGHf5OCNZMBV6yRV2,6vshFtP68NOBGHf5OCNZMBV6yRV2,5.0,images/choice_trial_9.png,images/choice_trial_14.png,images/pattern_6.png,j,j,750.0,9.0,14.0,5.0,1.0,21.0,0.0,0.0,9.0,70.0,,,,,,65101adae9f0b22a17c5af61,23:48:59,27/03/2024
html-keyboard-response,112,221877,0.0-48.0-1.0,,"<div style=""display: flex; flex-direction: column; align-items: center; margin-top: -40px;""><img src=""images/pattern_6.png"" style=""width: 234px; height: 230px; margin-top: -50px;""><div style=""display: flex; justify-content: space-between; margin-top: 33px;""><img src=""images/choice_trial_9.png"" style=""width: 408px; height: 417px; margin-right: 608px;""></div></div>",,delaylearn,learning,display_response,6vshFtP68NOBGHf5OCNZMBV6yRV2,6vshFtP68NOBGHf5OCNZMBV6yRV2,,,,,,,,,,,,,,,,,chosen stimuli: images/choice_trial_9.png,,,,,65101adae9f0b22a17c5af61,23:48:59,27/03/2024
html-keyboard-response,113,222641,0.0-48.0-2.0,,,,delaylearn,learning,feedback_duration_window,6vshFtP68NOBGHf5OCNZMBV6yRV2,6vshFtP68NOBGHf5OCNZMBV6yRV2,,,,,,,,,,,,,,,,,,750.0,,,,65101adae9f0b22a17c5af61,23:48:59,27/03/2024
html-keyboard-response,114,224149,0.0-48.0-3.0,,<div style='margin:auto;width: auto; font-size: 150%'><span style='font-weight: bold; font-size: 100px; color: red;'>0 points!</span><br><br></div>,,delaylearn,learning,feedback_image_window,6vshFtP68NOBGHf5OCNZMBV6yRV2,6vshFtP68NOBGHf5OCNZMBV6yRV2,,,,,,,,,,,,,,,,,,,,,,65101adae9f0b22a17c5af61,23:48:59,27/03/2024
html-keyboard-response,115,225908,0.0-49.0,,"<div style=""font-size:100px;"">+</div>",,delaylearn,learning,ITI,6vshFtP68NOBGHf5OCNZMBV6yRV2,6vshFtP68NOBGHf5OCNZMBV6yRV2,,,,,,,,,,,,,,,,,,,1744.0,,,65101adae9f0b22a17c5af61,23:48:59,27/03/2024
html-keyboard-response,116,227233,0.0-50.0-0.0,1323.3999999910593,"<div style=""display: flex; flex-direction: column; align-items: center; margin-top: -40px;""><img src=""images/pattern_4.png"" style=""width: 234px; height: 230px; margin-top: -50px;""><div style=""display: flex; justify-content: space-between; margin-top: 33px;""><img src=""images/choice_trial_11.png"" style=""width: 408px; height: 417px; margin-right: 200px;""><img src=""images/choice_trial_4.png"" style=""width: 408px; height: 417px;""></div></div>",f,delaylearn,learning,trial,6vshFtP68NOBGHf5OCNZMBV6yRV2,6vshFtP68NOBGHf5OCNZMBV6yRV2,5.0,images/choice_trial_11.png,images/choice_trial_4.png,images/pattern_4.png,f,f,7000.0,11.0,4.0,3.0,0.0,22.0,1.0,1.0,11.0,80.0,,,,,,65101adae9f0b22a17c5af61,23:48:59,27/03/2024
html-keyboard-response,117,228250,0.0-50.0-1.0,,"<div style=""display: flex; flex-direction: column; align-items: center; margin-top: -40px;""><img src=""images/pattern_4.png"" style=""width: 234px; height: 230px; margin-top: -50px;""><div style=""display: flex; justify-content: space-between; margin-top: 33px;""><img src=""images/choice_trial_11.png"" style=""width: 408px; height: 417px; margin-right: 608px;""></div></div>",,delaylearn,learning,display_response,6vshFtP68NOBGHf5OCNZMBV6yRV2,6vshFtP68NOBGHf5OCNZMBV6yRV2,,,,,,,,,,,,,,,,,chosen stimuli: images/choice_trial_11.png,,,,,65101adae9f0b22a17c5af61,23:48:59,27/03/2024
html-keyboard-response,118,235253,0.0-50.0-2.0,,,,delaylearn,learning,feedback_duration_window,6vshFtP68NOBGHf5OCNZMBV6yRV2,6vshFtP68NOBGHf5OCNZMBV6yRV2,,,,,,,,,,,,,,,,,,7000.0,,,,65101adae9f0b22a17c5af61,23:48:59,27/03/2024
html-keyboard-response,119,236767,0.0-50.0-3.0,,<div style='margin:auto;width: auto; font-size: 150%'><span style='font-weight: bold; font-size: 100px; color: green;'>+10 points!</span><br><br></div>,,delaylearn,learning,feedback_image_window,6vshFtP68NOBGHf5OCNZMBV6yRV2,6vshFtP68NOBGHf5OCNZMBV6yRV2,,,,,,,,,,,,,,,,,,,,,,65101adae9f0b22a17c5af61,23:48:59,27/03/2024
html-keyboard-response,120,237281,0.0-51.0-0.0,,,,,,mood_trial_fixation,6vshFtP68NOBGHf5OCNZMBV6yRV2,,,,,,,,,,,,,,,,,,,,,,,65101adae9f0b22a17c5af61,23:48:59,27/03/2024
lmdlab-html-vas-response,121,241312,0.0-51.0-1.0,3017.0,How happy are you right now?,0.2222463126360899,delaylearn,learning,mood_trial,6vshFtP68NOBGHf5OCNZMBV6yRV2,6vshFtP68NOBGHf5OCNZMBV6yRV2,,,,,,,,,,,,,,,,,,,,"['Very unhappy', 'Very happy']",,65101adae9f0b22a17c5af61,23:48:59,27/03/2024
html-keyboard-response,122,243420,0.0-52.0,,"<div style=""font-size:100px;"">+</div>",,delaylearn,learning,ITI,6vshFtP68NOBGHf5OCNZMBV6yRV2,6vshFtP68NOBGHf5OCNZMBV6yRV2,,,,,,,,,,,,,,,,,,,2104.0,,,65101adae9f0b22a17c5af61,23:48:59,27/03/2024
html-keyboard-response,123,244691,0.0-53.0-0.0,1268.0999999940395,"<div style=""display: flex; flex-direction: column; align-items: center; margin-top: -40px;""><img src=""images/pattern_7.png"" style=""width: 234px; height: 230px; margin-top: -50px;""><div style=""display: flex; justify-content: space-between; margin-top: 33px;""><img src=""images/choice_trial_10.png"" style=""width: 408px; height: 417px; margin-right: 200px;""><img src=""images/choice_trial_8.png"" style=""width: 408px; height: 417px;""></div></div>",j,delaylearn,learning,trial,6vshFtP68NOBGHf5OCNZMBV6yRV2,6vshFtP68NOBGHf5OCNZMBV6yRV2,5.0,images/choice_trial_10.png,images/choice_trial_8.png,images/pattern_7.png,j,j,750.0,10.0,8.0,6.0,1.0,23.0,1.0,1.0,8.0,90.0,,,,,,65101adae9f0b22a17c5af61,23:48:59,27/03/2024
html-keyboard-response,124,245701,0.0-53.0-1.0,,"<div style=""display: flex; flex-direction: column; align-items: center; margin-top: -40px;""><img src=""images/pattern_7.png"" style=""width: 234px; height: 230px; margin-top: -50px;""><div style=""display: flex; justify-content: space-between; margin-top: 33px;""><img src=""images/choice_trial_8.png"" style=""width: 408px; height: 417px; margin-left:608px;""></div></div>",,delaylearn,learning,display_response,6vshFtP68NOBGHf5OCNZMBV6yRV2,6vshFtP68NOBGHf5OCNZMBV6yRV2,,,,,,,,,,,,,,,,,chosen stimuli: images/choice_trial_8.png,,,,,65101adae9f0b22a17c5af61,23:48:59,27/03/2024
html-keyboard-response,125,246464,0.0-53.0-2.0,,,,delaylearn,learning,feedback_duration_window,6vshFtP68NOBGHf5OCNZMBV6yRV2,6vshFtP68NOBGHf5OCNZMBV6yRV2,,,,,,,,,,,,,,,,,,750.0,,,,65101adae9f0b22a17c5af61,23:48:59,27/03/2024
html-keyboard-response,126,247971,0.0-53.0-3.0,,<div style='margin:auto;width: auto; font-size: 150%'><span style='font-weight: bold; font-size: 100px; color: green;'>+10 points!</span><br><br></div>,,delaylearn,learning,feedback_image_window,6vshFtP68NOBGHf5OCNZMBV6yRV2,6vshFtP68NOBGHf5OCNZMBV6yRV2,,,,,,,,,,,,,,,,,,,,,,65101adae9f0b22a17c5af61,23:48:59,27/03/2024
html-keyboard-response,127,249997,0.0-54.0,,"<div style=""font-size:100px;"">+</div>",,delaylearn,learning,ITI,6vshFtP68NOBGHf5OCNZMBV6yRV2,6vshFtP68NOBGHf5OCNZMBV6yRV2,,,,,,,,,,,,,,,,,,,2025.0,,,65101adae9f0b22a17c5af61,23:48:59,27/03/2024
html-keyboard-response,128,251940,0.0-55.0-0.0,1940.5999999940395,"<div style=""display: flex; flex-direction: column; align-items: center; margin-top: -40px;""><img src=""images/pattern_1.png"" style=""width: 234px; height: 230px; margin-top: -50px;""><div style=""display: flex; justify-content: space-between; margin-top: 33px;""><img src=""images/choice_trial_15.png"" style=""width: 408px; height: 417px; margin-right: 200px;""><img src=""images/choice_trial_6.png"" style=""width: 408px; height: 417px;""></div></div>",j,delaylearn,learning,trial,6vshFtP68NOBGHf5OCNZMBV6yRV2,6vshFtP68NOBGHf5OCNZMBV6yRV2,5.0,images/choice_trial_15.png,images/choice_trial_6.png,images/pattern_1.png,f,j,7000.0,15.0,6.0,1.0,1.0,24.0,1.0,0.0,6.0,90.0,,,,,,65101adae9f0b22a17c5af61,23:48:59,27/03/2024
html-keyboard-response,129,252944,0.0-55.0-1.0,,"<div style=""display: flex; flex-direction: column; align-items: center; margin-top: -40px;""><img src=""images/pattern_1.png"" style=""width: 234px; height: 230px; margin-top: -50px;""><div style=""display: flex; justify-content: space-between; margin-top: 33px;""><img src=""images/choice_trial_6.png"" style=""width: 408px; height: 417px; margin-left:608px;""></div></div>",,delaylearn,learning,display_response,6vshFtP68NOBGHf5OCNZMBV6yRV2,6vshFtP68NOBGHf5OCNZMBV6yRV2,,,,,,,,,,,,,,,,,chosen stimuli: images/choice_trial_6.png,,,,,65101adae9f0b22a17c5af61,23:48:59,27/03/2024
html-keyboard-response,130,259960,0.0-55.0-2.0,,,,delaylearn,learning,feedback_duration_window,6vshFtP68NOBGHf5OCNZMBV6yRV2,6vshFtP68NOBGHf5OCNZMBV6yRV2,,,,,,,,,,,,,,,,,,7000.0,,,,65101adae9f0b22a17c5af61,23:48:59,27/03/2024
html-keyboard-response,131,261468,0.0-55.0-3.0,,<div style='margin:auto;width: auto; font-size: 150%'><span style='font-weight: bold; font-size: 100px; color: red;'>0 points!</span><br><br></div>,,delaylearn,learning,feedback_image_window,6vshFtP68NOBGHf5OCNZMBV6yRV2,6vshFtP68NOBGHf5OCNZMBV6yRV2,,,,,,,,,,,,,,,,,,,,,,65101adae9f0b22a17c5af61,23:48:59,27/03/2024
html-keyboard-response,132,263094,0.0-56.0,,"<div style=""font-size:100px;"">+</div>",,delaylearn,learning,ITI,6vshFtP68NOBGHf5OCNZMBV6yRV2,6vshFtP68NOBGHf5OCNZMBV6yRV2,,,,,,,,,,,,,,,,,,,1612.0,,,65101adae9f0b22a17c5af61,23:48:59,27/03/2024
html-keyboard-response,133,264590,0.0-57.0-0.0,1493.5,"<div style=""display: flex; flex-direction: column; align-items: center; margin-top: -40px;""><img src=""images/pattern_5.png"" style=""width: 234px; height: 230px; margin-top: -50px;""><div style=""display: flex; justify-content: space-between; margin-top: 33px;""><img src=""images/choice_trial_13.png"" style=""width: 408px; height: 417px; margin-right: 200px;""><img src=""images/choice_trial_7.png"" style=""width: 408px; height: 417px;""></div></div>",f,delaylearn,learning,trial,6vshFtP68NOBGHf5OCNZMBV6yRV2,6vshFtP68NOBGHf5OCNZMBV6yRV2,5.0,images/choice_trial_13.png,images/choice_trial_7.png,images/pattern_5.png,j,j,750.0,13.0,7.0,4.0,1.0,25.0,0.0,0.0,13.0,90.0,,,,,,65101adae9f0b22a17c5af61,23:48:59,27/03/2024
html-keyboard-response,134,265592,0.0-57.0-1.0,,"<div style=""display: flex; flex-direction: column; align-items: center; margin-top: -40px;""><img src=""images/pattern_5.png"" style=""width: 234px; height: 230px; margin-top: -50px;""><div style=""display: flex; justify-content: space-between; margin-top: 33px;""><img src=""images/choice_trial_13.png"" style=""width: 408px; height: 417px; margin-right: 608px;""></div></div>",,delaylearn,learning,display_response,6vshFtP68NOBGHf5OCNZMBV6yRV2,6vshFtP68NOBGHf5OCNZMBV6yRV2,,,,,,,,,,,,,,,,,chosen stimuli: images/choice_trial_13.png,,,,,65101adae9f0b22a17c5af61,23:48:59,27/03/2024
html-keyboard-response,135,266356,0.0-57.0-2.0,,,,delaylearn,learning,feedback_duration_window,6vshFtP68NOBGHf5OCNZMBV6yRV2,6vshFtP68NOBGHf5OCNZMBV6yRV2,,,,,,,,,,,,,,,,,,750.0,,,,65101adae9f0b22a17c5af61,23:48:59,27/03/2024
html-keyboard-response,136,267862,0.0-57.0-3.0,,<div style='margin:auto;width: auto; font-size: 150%'><span style='font-weight: bold; font-size: 100px; color: red;'>0 points!</span><br><br></div>,,delaylearn,learning,feedback_image_window,6vshFtP68NOBGHf5OCNZMBV6yRV2,6vshFtP68NOBGHf5OCNZMBV6yRV2,,,,,,,,,,,,,,,,,,,,,,65101adae9f0b22a17c5af61,23:48:59,27/03/2024
html-keyboard-response,137,270365,0.0-58.0,,"<div style=""font-size:100px;"">+</div>",,delaylearn,learning,ITI,6vshFtP68NOBGHf5OCNZMBV6yRV2,6vshFtP68NOBGHf5OCNZMBV6yRV2,,,,,,,,,,,,,,,,,,,2487.0,,,65101adae9f0b22a17c5af61,23:48:59,27/03/2024
html-keyboard-response,138,271773,0.0-59.0-0.0,1405.2000000029802,"<div style=""display: flex; flex-direction: column; align-items: center; margin-top: -40px;""><img src=""images/pattern_3.png"" style=""width: 234px; height: 230px; margin-top: -50px;""><div style=""display: flex; justify-content: space-between; margin-top: 33px;""><img src=""images/choice_trial_2.png"" style=""width: 408px; height: 417px; margin-right: 200px;""><img src=""images/choice_trial_16.png"" style=""width: 408px; height: 417px;""></div></div>",j,delaylearn,learning,trial,6vshFtP68NOBGHf5OCNZMBV6yRV2,6vshFtP68NOBGHf5OCNZMBV6yRV2,5.0,images/choice_trial_2.png,images/choice_trial_16.png,images/pattern_3.png,j,j,7000.0,2.0,16.0,2.0,1.0,26.0,1.0,1.0,16.0,100.0,,,,,,65101adae9f0b22a17c5af61,23:48:59,27/03/2024
html-keyboard-response,139,272782,0.0-59.0-1.0,,"<div style=""display: flex; flex-direction: column; align-items: center; margin-top: -40px;""><img src=""images/pattern_3.png"" style=""width: 234px; height: 230px; margin-top: -50px;""><div style=""display: flex; justify-content: space-between; margin-top: 33px;""><img src=""images/choice_trial_16.png"" style=""width: 408px; height: 417px; margin-left:608px;""></div></div>",,delaylearn,learning,display_response,6vshFtP68NOBGHf5OCNZMBV6yRV2,6vshFtP68NOBGHf5OCNZMBV6yRV2,,,,,,,,,,,,,,,,,chosen stimuli: images/choice_trial_16.png,,,,,65101adae9f0b22a17c5af61,23:48:59,27/03/2024
html-keyboard-response,140,279784,0.0-59.0-2.0,,,,delaylearn,learning,feedback_duration_window,6vshFtP68NOBGHf5OCNZMBV6yRV2,6vshFtP68NOBGHf5OCNZMBV6yRV2,,,,,,,,,,,,,,,,,,7000.0,,,,65101adae9f0b22a17c5af61,23:48:59,27/03/2024
html-keyboard-response,141,281291,0.0-59.0-3.0,,<div style='margin:auto;width: auto; font-size: 150%'><span style='font-weight: bold; font-size: 100px; color: green;'>+10 points!</span><br><br></div>,,delaylearn,learning,feedback_image_window,6vshFtP68NOBGHf5OCNZMBV6yRV2,6vshFtP68NOBGHf5OCNZMBV6yRV2,,,,,,,,,,,,,,,,,,,,,,65101adae9f0b22a17c5af61,23:48:59,27/03/2024
lmdlab-html-vas-response,142,287390,0.0-60.0-0.0,4577.0,*How <b><u>confident</u></b> are you feeling about your answers at this moment?*,0.2916666176093482,rewlearn,rate_confidence,,6vshFtP68NOBGHf5OCNZMBV6yRV2,6vshFtP68NOBGHf5OCNZMBV6yRV2,,,,,,,,,,,,,,,,,,,,"['No confidence', 'Complete confidence']",,65101adae9f0b22a17c5af61,23:48:59,27/03/2024
lmdlab-rest-trial-limit,143,297458,0.0-60.0-1.0,8553.89999999106,"<div style=""font-size:40px;""><b>Please take a break!</b><br><br><br><br><p>Great work: you earned 100 points.<br><br><br><p>You have completed part(s) 1 of 5.<br><br><br><br>When you are ready to continue<br><br><br>please click the button.</p><br><br>",0,delaylearn,learning,break,6vshFtP68NOBGHf5OCNZMBV6yRV2,6vshFtP68NOBGHf5OCNZMBV6yRV2,,,,,,,,,,,,,,,,,,,,,0.0,65101adae9f0b22a17c5af61,23:48:59,27/03/2024
html-keyboard-response,144,300474,0.0-60.0-2.0,,"<div style=""font-size:100px;"">+</div>",,delaylearn,learning,pre_fixation,6vshFtP68NOBGHf5OCNZMBV6yRV2,,,,,,,,,,,,,,,,,,,,,,,65101adae9f0b22a17c5af61,23:48:59,27/03/2024
lmdlab-html-vas-response,145,304670,0.0-60.0-3.0-0.0,3183.0,How happy are you right now?,0.1335117489138121,delaylearn,learning,mood_baseline,6vshFtP68NOBGHf5OCNZMBV6yRV2,6vshFtP68NOBGHf5OCNZMBV6yRV2,,,,,,,,,,,,,,,,,,,,"['Very unhappy', 'Very happy']",,65101adae9f0b22a17c5af61,23:48:59,27/03/2024
html-keyboard-response,146,306182,0.0-60.0-3.0-1.0,,,,,,mood_baseline_fixation,6vshFtP68NOBGHf5OCNZMBV6yRV2,,,,,,,,,,,,,,,,,,,,,,,65101adae9f0b22a17c5af61,23:48:59,27/03/2024
html-keyboard-response,147,307722,0.0-61.0,,"<div style=""font-size:100px;"">+</div>",,delaylearn,learning,ITI,6vshFtP68NOBGHf5OCNZMBV6yRV2,6vshFtP68NOBGHf5OCNZMBV6yRV2,,,,,,,,,,,,,,,,,,,1525.0,,,65101adae9f0b22a17c5af61,23:48:59,27/03/2024
html-keyboard-response,148,309310,0.0-62.0-0.0,1586.2000000029802,"<div style=""display: flex; flex-direction: column; align-items: center; margin-top: -40px;""><img src=""images/pattern_7.png"" style=""width: 234px; height: 230px; margin-top: -50px;""><div style=""display: flex; justify-content: space-between; margin-top: 33px;""><img src=""images/choice_trial_10.png"" style=""width: 408px; height: 417px; margin-right: 200px;""><img src=""images/choice_trial_8.png"" style=""width: 408px; height: 417px;""></div></div>",j,delaylearn,learning,trial,6vshFtP68NOBGHf5OCNZMBV6yRV2,6vshFtP68NOBGHf5OCNZMBV6yRV2,5.0,images/choice_trial_10.png,images/choice_trial_8.png,images/pattern_7.png,j,j,750.0,10.0,8.0,6.0,1.0,27.0,1.0,1.0,8.0,110.0,,,,,,65101adae9f0b22a17c5af61,23:48:59,27/03/2024
html-keyboard-response,149,310313,0.0-62.0-1.0,,"<div style=""display: flex; flex-direction: column; align-items: center; margin-top: -40px;""><img src=""images/pattern_7.png"" style=""width: 234px; height: 230px; margin-top: -50px;""><div style=""display: flex; justify-content: space-between; margin-top: 33px;""><img src=""images/choice_trial_8.png"" style=""width: 408px; height: 417px; margin-left:608px;""></div></div>",,delaylearn,learning,display_response,6vshFtP68NOBGHf5OCNZMBV6yRV2,6vshFtP68NOBGHf5OCNZMBV6yRV2,,,,,,,,,,,,,,,,,chosen stimuli: images/choice_trial_8.png,,,,,65101adae9f0b22a17c5af61,23:48:59,27/03/2024
html-keyboard-response,150,311076,0.0-62.0-2.0,,,,delaylearn,learning,feedback_duration_window,6vshFtP68NOBGHf5OCNZMBV6yRV2,6vshFtP68NOBGHf5OCNZMBV6yRV2,,,,,,,,,,,,,,,,,,750.0,,,,65101adae9f0b22a17c5af61,23:48:59,27/03/2024
html-keyboard-response,151,312581,0.0-62.0-3.0,,<div style='margin:auto;width: auto; font-size: 150%'><span style='font-weight: bold; font-size: 100px; color: green;'>+10 points!</span><br><br></div>,,delaylearn,learning,feedback_image_window,6vshFtP68NOBGHf5OCNZMBV6yRV2,6vshFtP68NOBGHf5OCNZMBV6yRV2,,,,,,,,,,,,,,,,,,,,,,65101adae9f0b22a17c5af61,23:48:59,27/03/2024
html-keyboard-response,152,313092,0.0-63.0-0.0,,,,,,mood_trial_fixation,6vshFtP68NOBGHf5OCNZMBV6yRV2,,,,,,,,,,,,,,,,,,,,,,,65101adae9f0b22a17c5af61,23:48:59,27/03/2024
lmdlab-html-vas-response,153,317261,0.0-63.0-1.0,3162.0,How happy are you right now?,0.28590371704555007,delaylearn,learning,mood_trial,6vshFtP68NOBGHf5OCNZMBV6yRV2,6vshFtP68NOBGHf5OCNZMBV6yRV2,,,,,,,,,,,,,,,,,,,,"['Very unhappy', 'Very happy']",,65101adae9f0b22a17c5af61,23:48:59,27/03/2024
html-keyboard-response,154,318841,0.0-64.0,,"<div style=""font-size:100px;"">+</div>",,delaylearn,learning,ITI,6vshFtP68NOBGHf5OCNZMBV6yRV2,6vshFtP68NOBGHf5OCNZMBV6yRV2,,,,,,,,,,,,,,,,,,,1569.0,,,65101adae9f0b22a17c5af61,23:48:59,27/03/2024
html-keyboard-response,155,320297,0.0-65.0-0.0,1455.5,"<div style=""display: flex; flex-direction: column; align-items: center; margin-top: -40px;""><img src=""images/pattern_1.png"" style=""width: 234px; height: 230px; margin-top: -50px;""><div style=""display: flex; justify-content: space-between; margin-top: 33px;""><img src=""images/choice_trial_6.png"" style=""width: 408px; height: 417px; margin-right: 200px;""><img src=""images/choice_trial_15.png"" style=""width: 408px; height: 417px;""></div></div>",j,delaylearn,learning,trial,6vshFtP68NOBGHf5OCNZMBV6yRV2,6vshFtP68NOBGHf5OCNZMBV6yRV2,5.0,images/choice_trial_6.png,images/choice_trial_15.png,images/pattern_1.png,f,f,7000.0,6.0,15.0,1.0,0.0,28.0,0.0,0.0,15.0,110.0,,,,,,65101adae9f0b22a17c5af61,23:48:59,27/03/2024
html-keyboard-response,156,321304,0.0-65.0-1.0,,"<div style=""display: flex; flex-direction: column; align-items: center; margin-top: -40px;""><img src=""images/pattern_1.png"" style=""width: 234px; height: 230px; margin-top: -50px;""><div style=""display: flex; justify-content: space-between; margin-top: 33px;""><img src=""images/choice_trial_15.png"" style=""width: 408px; height: 417px; margin-left:608px;""></div></div>",,delaylearn,learning,display_response,6vshFtP68NOBGHf5OCNZMBV6yRV2,6vshFtP68NOBGHf5OCNZMBV6yRV2,,,,,,,,,,,,,,,,,chosen stimuli: images/choice_trial_15.png,,,,,65101adae9f0b22a17c5af61,23:48:59,27/03/2024
html-keyboard-response,157,328319,0.0-65.0-2.0,,,,delaylearn,learning,feedback_duration_window,6vshFtP68NOBGHf5OCNZMBV6yRV2,6vshFtP68NOBGHf5OCNZMBV6yRV2,,,,,,,,,,,,,,,,,,7000.0,,,,65101adae9f0b22a17c5af61,23:48:59,27/03/2024
html-keyboard-response,158,329822,0.0-65.0-3.0,,<div style='margin:auto;width: auto; font-size: 150%'><span style='font-weight: bold; font-size: 100px; color: red;'>0 points!</span><br><br></div>,,delaylearn,learning,feedback_image_window,6vshFtP68NOBGHf5OCNZMBV6yRV2,6vshFtP68NOBGHf5OCNZMBV6yRV2,,,,,,,,,,,,,,,,,,,,,,65101adae9f0b22a17c5af61,23:48:59,27/03/2024
html-keyboard-response,159,332287,0.0-66.0,,"<div style=""font-size:100px;"">+</div>",,delaylearn,learning,ITI,6vshFtP68NOBGHf5OCNZMBV6yRV2,6vshFtP68NOBGHf5OCNZMBV6yRV2,,,,,,,,,,,,,,,,,,,2453.0,,,65101adae9f0b22a17c5af61,23:48:59,27/03/2024
html-keyboard-response,160,333527,0.0-67.0-0.0,1237.4000000059605,"<div style=""display: flex; flex-direction: column; align-items: center; margin-top: -40px;""><img src=""images/pattern_5.png"" style=""width: 234px; height: 230px; margin-top: -50px;""><div style=""display: flex; justify-content: space-between; margin-top: 33px;""><img src=""images/choice_trial_7.png"" style=""width: 408px; height: 417px; margin-right: 200px;""><img src=""images/choice_trial_13.png"" style=""width: 408px; height: 417px;""></div></div>",f,delaylearn,learning,trial,6vshFtP68NOBGHf5OCNZMBV6yRV2,6vshFtP68NOBGHf5OCNZMBV6yRV2,5.0,images/choice_trial_7.png,images/choice_trial_13.png,images/pattern_5.png,f,f,750.0,7.0,13.0,4.0,0.0,29.0,1.0,1.0,7.0,120.0,,,,,,65101adae9f0b22a17c5af61,23:48:59,27/03/2024
html-keyboard-response,161,334535,0.0-67.0-1.0,,"<div style=""display: flex; flex-direction: column; align-items: center; margin-top: -40px;""><img src=""images/pattern_5.png"" style=""width: 234px; height: 230px; margin-top: -50px;""><div style=""display: flex; justify-content: space-between; margin-top: 33px;""><img src=""images/choice_trial_7.png"" style=""width: 408px; height: 417px; margin-right: 608px;""></div></div>",,delaylearn,learning,display_response,6vshFtP68NOBGHf5OCNZMBV6yRV2,6vshFtP68NOBGHf5OCNZMBV6yRV2,,,,,,,,,,,,,,,,,chosen stimuli: images/choice_trial_7.png,,,,,65101adae9f0b22a17c5af61,23:48:59,27/03/2024
html-keyboard-response,162,335294,0.0-67.0-2.0,,,,delaylearn,learning,feedback_duration_window,6vshFtP68NOBGHf5OCNZMBV6yRV2,6vshFtP68NOBGHf5OCNZMBV6yRV2,,,,,,,,,,,,,,,,,,750.0,,,,65101adae9f0b22a17c5af61,23:48:59,27/03/2024
html-keyboard-response,163,336810,0.0-67.0-3.0,,<div style='margin:auto;width: auto; font-size: 150%'><span style='font-weight: bold; font-size: 100px; color: green;'>+10 points!</span><br><br></div>,,delaylearn,learning,feedback_image_window,6vshFtP68NOBGHf5OCNZMBV6yRV2,6vshFtP68NOBGHf5OCNZMBV6yRV2,,,,,,,,,,,,,,,,,,,,,,65101adae9f0b22a17c5af61,23:48:59,27/03/2024
html-keyboard-response,164,338573,0.0-68.0,,"<div style=""font-size:100px;"">+</div>",,delaylearn,learning,ITI,6vshFtP68NOBGHf5OCNZMBV6yRV2,6vshFtP68NOBGHf5OCNZMBV6yRV2,,,,,,,,,,,,,,,,,,,1759.0,,,65101adae9f0b22a17c5af61,23:48:59,27/03/2024
html-keyboard-response,165,339990,0.0-69.0-0.0,1412.7000000029802,"<div style=""display: flex; flex-direction: column; align-items: center; margin-top: -40px;""><img src=""images/pattern_6.png"" style=""width: 234px; height: 230px; margin-top: -50px;""><div style=""display: flex; justify-content: space-between; margin-top: 33px;""><img src=""images/choice_trial_9.png"" style=""width: 408px; height: 417px; margin-right: 200px;""><img src=""images/choice_trial_14.png"" style=""width: 408px; height: 417px;""></div></div>",f,delaylearn,learning,trial,6vshFtP68NOBGHf5OCNZMBV6yRV2,6vshFtP68NOBGHf5OCNZMBV6yRV2,5.0,images/choice_trial_9.png,images/choice_trial_14.png,images/pattern_6.png,j,j,750.0,9.0,14.0,5.0,1.0,30.0,0.0,0.0,9.0,120.0,,,,,,65101adae9f0b22a17c5af61,23:48:59,27/03/2024
html-keyboard-response,166,341005,0.0-69.0-1.0,,"<div style=""display: flex; flex-direction: column; align-items: center; margin-top: -40px;""><img src=""images/pattern_6.png"" style=""width: 234px; height: 230px; margin-top: -50px;""><div style=""display: flex; justify-content: space-between; margin-top: 33px;""><img src=""images/choice_trial_9.png"" style=""width: 408px; height: 417px; margin-right: 608px;""></div></div>",,delaylearn,learning,display_response,6vshFtP68NOBGHf5OCNZMBV6yRV2,6vshFtP68NOBGHf5OCNZMBV6yRV2,,,,,,,,,,,,,,,,,chosen stimuli: images/choice_trial_9.png,,,,,65101adae9f0b22a17c5af61,23:48:59,27/03/2024
html-keyboard-response,167,341768,0.0-69.0-2.0,,,,delaylearn,learning,feedback_duration_window,6vshFtP68NOBGHf5OCNZMBV6yRV2,6vshFtP68NOBGHf5OCNZMBV6yRV2,,,,,,,,,,,,,,,,,,750.0,,,,65101adae9f0b22a17c5af61,23:48:59,27/03/2024
html-keyboard-response,168,343272,0.0-69.0-3.0,,<div style='margin:auto;width: auto; font-size: 150%'><span style='font-weight: bold; font-size: 100px; color: red;'>0 points!</span><br><br></div>,,delaylearn,learning,feedback_image_window,6vshFtP68NOBGHf5OCNZMBV6yRV2,6vshFtP68NOBGHf5OCNZMBV6yRV2,,,,,,,,,,,,,,,,,,,,,,65101adae9f0b22a17c5af61,23:48:59,27/03/2024
html-keyboard-response,169,343784,0.0-70.0-0.0,,,,,,mood_trial_fixation,6vshFtP68NOBGHf5OCNZMBV6yRV2,,,,,,,,,,,,,,,,,,,,,,,65101adae9f0b22a17c5af61,23:48:59,27/03/2024
lmdlab-html-vas-response,170,347453,0.0-70.0-1.0,2656.0,How happy are you right now?,0.2492524842037397,delaylearn,learning,mood_trial,6vshFtP68NOBGHf5OCNZMBV6yRV2,6vshFtP68NOBGHf5OCNZMBV6yRV2,,,,,,,,,,,,,,,,,,,,"['Very unhappy', 'Very happy']",,65101adae9f0b22a17c5af61,23:48:59,27/03/2024
html-keyboard-response,171,349121,0.0-71.0,,"<div style=""font-size:100px;"">+</div>",,delaylearn,learning,ITI,6vshFtP68NOBGHf5OCNZMBV6yRV2,6vshFtP68NOBGHf5OCNZMBV6yRV2,,,,,,,,,,,,,,,,,,,1654.0,,,65101adae9f0b22a17c5af61,23:48:59,27/03/2024
html-keyboard-response,172,350490,0.0-72.0-0.0,1366.7000000029802,"<div style=""display: flex; flex-direction: column; align-items: center; margin-top: -40px;""><img src=""images/pattern_4.png"" style=""width: 234px; height: 230px; margin-top: -50px;""><div style=""display: flex; justify-content: space-between; margin-top: 33px;""><img src=""images/choice_trial_4.png"" style=""width: 408px; height: 417px; margin-right: 200px;""><img src=""images/choice_trial_11.png"" style=""width: 408px; height: 417px;""></div></div>",j,delaylearn,learning,trial,6vshFtP68NOBGHf5OCNZMBV6yRV2,6vshFtP68NOBGHf5OCNZMBV6yRV2,5.0,images/choice_trial_4.png,images/choice_trial_11.png,images/pattern_4.png,j,j,7000.0,4.0,11.0,3.0,1.0,31.0,1.0,1.0,11.0,130.0,,,,,,65101adae9f0b22a17c5af61,23:48:59,27/03/2024
html-keyboard-response,173,351494,0.0-72.0-1.0,,"<div style=""display: flex; flex-direction: column; align-items: center; margin-top: -40px;""><img src=""images/pattern_4.png"" style=""width: 234px; height: 230px; margin-top: -50px;""><div style=""display: flex; justify-content: space-between; margin-top: 33px;""><img src=""images/choice_trial_11.png"" style=""width: 408px; height: 417px; margin-left:608px;""></div></div>",,delaylearn,learning,display_response,6vshFtP68NOBGHf5OCNZMBV6yRV2,6vshFtP68NOBGHf5OCNZMBV6yRV2,,,,,,,,,,,,,,,,,chosen stimuli: images/choice_trial_11.png,,,,,65101adae9f0b22a17c5af61,23:48:59,27/03/2024
html-keyboard-response,174,358501,0.0-72.0-2.0,,,,delaylearn,learning,feedback_duration_window,6vshFtP68NOBGHf5OCNZMBV6yRV2,6vshFtP68NOBGHf5OCNZMBV6yRV2,,,,,,,,,,,,,,,,,,7000.0,,,,65101adae9f0b22a17c5af61,23:48:59,27/03/2024
html-keyboard-response,175,360008,0.0-72.0-3.0,,<div style='margin:auto;width: auto; font-size: 150%'><span style='font-weight: bold; font-size: 100px; color: green;'>+10 points!</span><br><br></div>,,delaylearn,learning,feedback_image_window,6vshFtP68NOBGHf5OCNZMBV6yRV2,6vshFtP68NOBGHf5OCNZMBV6yRV2,,,,,,,,,,,,,,,,,,,,,,65101adae9f0b22a17c5af61,23:48:59,27/03/2024
html-keyboard-response,176,362248,0.0-73.0,,"<div style=""font-size:100px;"">+</div>",,delaylearn,learning,ITI,6vshFtP68NOBGHf5OCNZMBV6yRV2,6vshFtP68NOBGHf5OCNZMBV6yRV2,,,,,,,,,,,,,,,,,,,2231.0,,,65101adae9f0b22a17c5af61,23:48:59,27/03/2024
html-keyboard-response,177,364557,0.0-74.0-0.0,2306.199999988079,"<div style=""display: flex; flex-direction: column; align-items: center; margin-top: -40px;""><img src=""images/pattern_3.png"" style=""width: 234px; height: 230px; margin-top: -50px;""><div style=""display: flex; justify-content: space-between; margin-top: 33px;""><img src=""images/choice_trial_2.png"" style=""width: 408px; height: 417px; margin-right: 200px;""><img src=""images/choice_trial_16.png"" style=""width: 408px; height: 417px;""></div></div>",j,delaylearn,learning,trial,6vshFtP68NOBGHf5OCNZMBV6yRV2,6vshFtP68NOBGHf5OCNZMBV6yRV2,5.0,images/choice_trial_2.png,images/choice_trial_16.png,images/pattern_3.png,j,j,7000.0,2.0,16.0,2.0,1.0,32.0,1.0,1.0,16.0,140.0,,,,,,65101adae9f0b22a17c5af61,23:48:59,27/03/2024
html-keyboard-response,178,365574,0.0-74.0-1.0,,"<div style=""display: flex; flex-direction: column; align-items: center; margin-top: -40px;""><img src=""images/pattern_3.png"" style=""width: 234px; height: 230px; margin-top: -50px;""><div style=""display: flex; justify-content: space-between; margin-top: 33px;""><img src=""images/choice_trial_16.png"" style=""width: 408px; height: 417px; margin-left:608px;""></div></div>",,delaylearn,learning,display_response,6vshFtP68NOBGHf5OCNZMBV6yRV2,6vshFtP68NOBGHf5OCNZMBV6yRV2,,,,,,,,,,,,,,,,,chosen stimuli: images/choice_trial_16.png,,,,,65101adae9f0b22a17c5af61,23:48:59,27/03/2024
html-keyboard-response,179,372579,0.0-74.0-2.0,,,,delaylearn,learning,feedback_duration_window,6vshFtP68NOBGHf5OCNZMBV6yRV2,6vshFtP68NOBGHf5OCNZMBV6yRV2,,,,,,,,,,,,,,,,,,7000.0,,,,65101adae9f0b22a17c5af61,23:48:59,27/03/2024
html-keyboard-response,180,374087,0.0-74.0-3.0,,<div style='margin:auto;width: auto; font-size: 150%'><span style='font-weight: bold; font-size: 100px; color: green;'>+10 points!</span><br><br></div>,,delaylearn,learning,feedback_image_window,6vshFtP68NOBGHf5OCNZMBV6yRV2,6vshFtP68NOBGHf5OCNZMBV6yRV2,,,,,,,,,,,,,,,,,,,,,,65101adae9f0b22a17c5af61,23:48:59,27/03/2024
html-keyboard-response,181,375921,0.0-75.0,,"<div style=""font-size:100px;"">+</div>",,delaylearn,learning,ITI,6vshFtP68NOBGHf5OCNZMBV6yRV2,6vshFtP68NOBGHf5OCNZMBV6yRV2,,,,,,,,,,,,,,,,,,,1828.0,,,65101adae9f0b22a17c5af61,23:48:59,27/03/2024
html-keyboard-response,182,376895,0.0-76.0-0.0,970.5,"<div style=""display: flex; flex-direction: column; align-items: center; margin-top: -40px;""><img src=""images/pattern_5.png"" style=""width: 234px; height: 230px; margin-top: -50px;""><div style=""display: flex; justify-content: space-between; margin-top: 33px;""><img src=""images/choice_trial_7.png"" style=""width: 408px; height: 417px; margin-right: 200px;""><img src=""images/choice_trial_13.png"" style=""width: 408px; height: 417px;""></div></div>",f,delaylearn,learning,trial,6vshFtP68NOBGHf5OCNZMBV6yRV2,6vshFtP68NOBGHf5OCNZMBV6yRV2,5.0,images/choice_trial_7.png,images/choice_trial_13.png,images/pattern_5.png,j,f,750.0,7.0,13.0,4.0,0.0,33.0,1.0,0.0,7.0,140.0,,,,,,65101adae9f0b22a17c5af61,23:48:59,27/03/2024
html-keyboard-response,183,377907,0.0-76.0-1.0,,"<div style=""display: flex; flex-direction: column; align-items: center; margin-top: -40px;""><img src=""images/pattern_5.png"" style=""width: 234px; height: 230px; margin-top: -50px;""><div style=""display: flex; justify-content: space-between; margin-top: 33px;""><img src=""images/choice_trial_7.png"" style=""width: 408px; height: 417px; margin-right: 608px;""></div></div>",,delaylearn,learning,display_response,6vshFtP68NOBGHf5OCNZMBV6yRV2,6vshFtP68NOBGHf5OCNZMBV6yRV2,,,,,,,,,,,,,,,,,chosen stimuli: images/choice_trial_7.png,,,,,65101adae9f0b22a17c5af61,23:48:59,27/03/2024
html-keyboard-response,184,378669,0.0-76.0-2.0,,,,delaylearn,learning,feedback_duration_window,6vshFtP68NOBGHf5OCNZMBV6yRV2,6vshFtP68NOBGHf5OCNZMBV6yRV2,,,,,,,,,,,,,,,,,,750.0,,,,65101adae9f0b22a17c5af61,23:48:59,27/03/2024
html-keyboard-response,185,380174,0.0-76.0-3.0,,<div style='margin:auto;width: auto; font-size: 150%'><span style='font-weight: bold; font-size: 100px; color: red;'>0 points!</span><br><br></div>,,delaylearn,learning,feedback_image_window,6vshFtP68NOBGHf5OCNZMBV6yRV2,6vshFtP68NOBGHf5OCNZMBV6yRV2,,,,,,,,,,,,,,,,,,,,,,65101adae9f0b22a17c5af61,23:48:59,27/03/2024
html-keyboard-response,186,382081,0.0-77.0,,"<div style=""font-size:100px;"">+</div>",,delaylearn,learning,ITI,6vshFtP68NOBGHf5OCNZMBV6yRV2,6vshFtP68NOBGHf5OCNZMBV6yRV2,,,,,,,,,,,,,,,,,,,1892.0,,,65101adae9f0b22a17c5af61,23:48:59,27/03/2024
html-keyboard-response,187,383738,0.0-78.0-0.0,1653.5999999940395,"<div style=""display: flex; flex-direction: column; align-items: center; margin-top: -40px;""><img src=""images/pattern_1.png"" style=""width: 234px; height: 230px; margin-top: -50px;""><div style=""display: flex; justify-content: space-between; margin-top: 33px;""><img src=""images/choice_trial_6.png"" style=""width: 408px; height: 417px; margin-right: 200px;""><img src=""images/choice_trial_15.png"" style=""width: 408px; height: 417px;""></div></div>",j,delaylearn,learning,trial,6vshFtP68NOBGHf5OCNZMBV6yRV2,6vshFtP68NOBGHf5OCNZMBV6yRV2,5.0,images/choice_trial_6.png,images/choice_trial_15.png,images/pattern_1.png,f,f,7000.0,6.0,15.0,1.0,0.0,34.0,0.0,0.0,15.0,140.0,,,,,,65101adae9f0b22a17c5af61,23:48:59,27/03/2024
html-keyboard-response,188,384748,0.0-78.0-1.0,,"<div style=""display: flex; flex-direction: column; align-items: center; margin-top: -40px;""><img src=""images/pattern_1.png"" style=""width: 234px; height: 230px; margin-top: -50px;""><div style=""display: flex; justify-content: space-between; margin-top: 33px;""><img src=""images/choice_trial_15.png"" style=""width: 408px; height: 417px; margin-left:608px;""></div></div>",,delaylearn,learning,display_response,6vshFtP68NOBGHf5OCNZMBV6yRV2,6vshFtP68NOBGHf5OCNZMBV6yRV2,,,,,,,,,,,,,,,,,chosen stimuli: images/choice_trial_15.png,,,,,65101adae9f0b22a17c5af61,23:48:59,27/03/2024
html-keyboard-response,189,391751,0.0-78.0-2.0,,,,delaylearn,learning,feedback_duration_window,6vshFtP68NOBGHf5OCNZMBV6yRV2,6vshFtP68NOBGHf5OCNZMBV6yRV2,,,,,,,,,,,,,,,,,,7000.0,,,,65101adae9f0b22a17c5af61,23:48:59,27/03/2024
html-keyboard-response,190,393255,0.0-78.0-3.0,,<div style='margin:auto;width: auto; font-size: 150%'><span style='font-weight: bold; font-size: 100px; color: red;'>0 points!</span><br><br></div>,,delaylearn,learning,feedback_image_window,6vshFtP68NOBGHf5OCNZMBV6yRV2,6vshFtP68NOBGHf5OCNZMBV6yRV2,,,,,,,,,,,,,,,,,,,,,,65101adae9f0b22a17c5af61,23:48:59,27/03/2024
html-keyboard-response,191,393766,0.0-79.0-0.0,,,,,,mood_trial_fixation,6vshFtP68NOBGHf5OCNZMBV6yRV2,,,,,,,,,,,,,,,,,,,,,,,65101adae9f0b22a17c5af61,23:48:59,27/03/2024
lmdlab-html-vas-response,192,398103,0.0-79.0-1.0,3321.0,How happy are you right now?,0.22417532489092204,delaylearn,learning,mood_trial,6vshFtP68NOBGHf5OCNZMBV6yRV2,6vshFtP68NOBGHf5OCNZMBV6yRV2,,,,,,,,,,,,,,,,,,,,"['Very unhappy', 'Very happy']",,65101adae9f0b22a17c5af61,23:48:59,27/03/2024
html-keyboard-response,193,400381,0.0-80.0,,"<div style=""font-size:100px;"">+</div>",,delaylearn,learning,ITI,6vshFtP68NOBGHf5OCNZMBV6yRV2,6vshFtP68NOBGHf5OCNZMBV6yRV2,,,,,,,,,,,,,,,,,,,2265.0,,,65101adae9f0b22a17c5af61,23:48:59,27/03/2024
html-keyboard-response,194,402403,0.0-81.0-0.0,2018.9000000059605,"<div style=""display: flex; flex-direction: column; align-items: center; margin-top: -40px;""><img src=""images/pattern_6.png"" style=""width: 234px; height: 230px; margin-top: -50px;""><div style=""display: flex; justify-content: space-between; margin-top: 33px;""><img src=""images/choice_trial_14.png"" style=""width: 408px; height: 417px; margin-right: 200px;""><img src=""images/choice_trial_9.png"" style=""width: 408px; height: 417px;""></div></div>",j,delaylearn,learning,trial,6vshFtP68NOBGHf5OCNZMBV6yRV2,6vshFtP68NOBGHf5OCNZMBV6yRV2,5.0,images/choice_trial_14.png,images/choice_trial_9.png,images/pattern_6.png,j,f,750.0,14.0,9.0,5.0,0.0,35.0,0.0,1.0,9.0,150.0,,,,,,65101adae9f0b22a17c5af61,23:48:59,27/03/2024
html-keyboard-response,195,403407,0.0-81.0-1.0,,"<div style=""display: flex; flex-direction: column; align-items: center; margin-top: -40px;""><img src=""images/pattern_6.png"" style=""width: 234px; height: 230px; margin-top: -50px;""><div style=""display: flex; justify-content: space-between; margin-top: 33px;""><img src=""images/choice_trial_9.png"" style=""width: 408px; height: 417px; margin-left:608px;""></div></div>",,delaylearn,learning,display_response,6vshFtP68NOBGHf5OCNZMBV6yRV2,6vshFtP68NOBGHf5OCNZMBV6yRV2,,,,,,,,,,,,,,,,,chosen stimuli: images/choice_trial_9.png,,,,,65101adae9f0b22a17c5af61,23:48:59,27/03/2024
html-keyboard-response,196,404169,0.0-81.0-2.0,,,,delaylearn,learning,feedback_duration_window,6vshFtP68NOBGHf5OCNZMBV6yRV2,6vshFtP68NOBGHf5OCNZMBV6yRV2,,,,,,,,,,,,,,,,,,750.0,,,,65101adae9f0b22a17c5af61,23:48:59,27/03/2024
html-keyboard-response,197,405684,0.0-81.0-3.0,,<div style='margin:auto;width: auto; font-size: 150%'><span style='font-weight: bold; font-size: 100px; color: green;'>+10 points!</span><br><br></div>,,delaylearn,learning,feedback_image_window,6vshFtP68NOBGHf5OCNZMBV6yRV2,6vshFtP68NOBGHf5OCNZMBV6yRV2,,,,,,,,,,,,,,,,,,,,,,65101adae9f0b22a17c5af61,23:48:59,27/03/2024
html-keyboard-response,198,407558,0.0-82.0,,"<div style=""font-size:100px;"">+</div>",,delaylearn,learning,ITI,6vshFtP68NOBGHf5OCNZMBV6yRV2,6vshFtP68NOBGHf5OCNZMBV6yRV2,,,,,,,,,,,,,,,,,,,1863.0,,,65101adae9f0b22a17c5af61,23:48:59,27/03/2024
html-keyboard-response,199,408560,0.0-83.0-0.0,998.9000000059605,"<div style=""display: flex; flex-direction: column; align-items: center; margin-top: -40px;""><img src=""images/pattern_3.png"" style=""width: 234px; height: 230px; margin-top: -50px;""><div style=""display: flex; justify-content: space-between; margin-top: 33px;""><img src=""images/choice_trial_2.png"" style=""width: 408px; height: 417px; margin-right: 200px;""><img src=""images/choice_trial_16.png"" style=""width: 408px; height: 417px;""></div></div>",j,delaylearn,learning,trial,6vshFtP68NOBGHf5OCNZMBV6yRV2,6vshFtP68NOBGHf5OCNZMBV6yRV2,5.0,images/choice_trial_2.png,images/choice_trial_16.png,images/pattern_3.png,j,j,7000.0,2.0,16.0,2.0,1.0,36.0,1.0,1.0,16.0,160.0,,,,,,65101adae9f0b22a17c5af61,23:48:59,27/03/2024
html-keyboard-response,200,409574,0.0-83.0-1.0,,"<div style=""display: flex; flex-direction: column; align-items: center; margin-top: -40px;""><img src=""images/pattern_3.png"" style=""width: 234px; height: 230px; margin-top: -50px;""><div style=""display: flex; justify-content: space-between; margin-top: 33px;""><img src=""images/choice_trial_16.png"" style=""width: 408px; height: 417px; margin-left:608px;""></div></div>",,delaylearn,learning,display_response,6vshFtP68NOBGHf5OCNZMBV6yRV2,6vshFtP68NOBGHf5OCNZMBV6yRV2,,,,,,,,,,,,,,,,,chosen stimuli: images/choice_trial_16.png,,,,,65101adae9f0b22a17c5af61,23:48:59,27/03/2024
html-keyboard-response,201,416577,0.0-83.0-2.0,,,,delaylearn,learning,feedback_duration_window,6vshFtP68NOBGHf5OCNZMBV6yRV2,6vshFtP68NOBGHf5OCNZMBV6yRV2,,,,,,,,,,,,,,,,,,7000.0,,,,65101adae9f0b22a17c5af61,23:48:59,27/03/2024
html-keyboard-response,202,418081,0.0-83.0-3.0,,<div style='margin:auto;width: auto; font-size: 150%'><span style='font-weight: bold; font-size: 100px; color: green;'>+10 points!</span><br><br></div>,,delaylearn,learning,feedback_image_window,6vshFtP68NOBGHf5OCNZMBV6yRV2,6vshFtP68NOBGHf5OCNZMBV6yRV2,,,,,,,,,,,,,,,,,,,,,,65101adae9f0b22a17c5af61,23:48:59,27/03/2024
html-keyboard-response,203,419747,0.0-84.0,,"<div style=""font-size:100px;"">+</div>",,delaylearn,learning,ITI,6vshFtP68NOBGHf5OCNZMBV6yRV2,6vshFtP68NOBGHf5OCNZMBV6yRV2,,,,,,,,,,,,,,,,,,,1659.0,,,65101adae9f0b22a17c5af61,23:48:59,27/03/2024
html-keyboard-response,204,420629,0.0-85.0-0.0,879.2000000029802,"<div style=""display: flex; flex-direction: column; align-items: center; margin-top: -40px;""><img src=""images/pattern_4.png"" style=""width: 234px; height: 230px; margin-top: -50px;""><div style=""display: flex; justify-content: space-between; margin-top: 33px;""><img src=""images/choice_trial_4.png"" style=""width: 408px; height: 417px; margin-right: 200px;""><img src=""images/choice_trial_11.png"" style=""width: 408px; height: 417px;""></div></div>",j,delaylearn,learning,trial,6vshFtP68NOBGHf5OCNZMBV6yRV2,6vshFtP68NOBGHf5OCNZMBV6yRV2,5.0,images/choice_trial_4.png,images/choice_trial_11.png,images/pattern_4.png,f,j,7000.0,4.0,11.0,3.0,1.0,37.0,1.0,0.0,11.0,160.0,,,,,,65101adae9f0b22a17c5af61,23:48:59,27/03/2024
html-keyboard-response,205,421638,0.0-85.0-1.0,,"<div style=""display: flex; flex-direction: column; align-items: center; margin-top: -40px;""><img src=""images/pattern_4.png"" style=""width: 234px; height: 230px; margin-top: -50px;""><div style=""display: flex; justify-content: space-between; margin-top: 33px;""><img src=""images/choice_trial_11.png"" style=""width: 408px; height: 417px; margin-left:608px;""></div></div>",,delaylearn,learning,display_response,6vshFtP68NOBGHf5OCNZMBV6yRV2,6vshFtP68NOBGHf5OCNZMBV6yRV2,,,,,,,,,,,,,,,,,chosen stimuli: images/choice_trial_11.png,,,,,65101adae9f0b22a17c5af61,23:48:59,27/03/2024
html-keyboard-response,206,428648,0.0-85.0-2.0,,,,delaylearn,learning,feedback_duration_window,6vshFtP68NOBGHf5OCNZMBV6yRV2,6vshFtP68NOBGHf5OCNZMBV6yRV2,,,,,,,,,,,,,,,,,,7000.0,,,,65101adae9f0b22a17c5af61,23:48:59,27/03/2024
html-keyboard-response,207,430155,0.0-85.0-3.0,,<div style='margin:auto;width: auto; font-size: 150%'><span style='font-weight: bold; font-size: 100px; color: red;'>0 points!</span><br><br></div>,,delaylearn,learning,feedback_image_window,6vshFtP68NOBGHf5OCNZMBV6yRV2,6vshFtP68NOBGHf5OCNZMBV6yRV2,,,,,,,,,,,,,,,,,,,,,,65101adae9f0b22a17c5af61,23:48:59,27/03/2024
html-keyboard-response,208,431663,0.0-86.0,,"<div style=""font-size:100px;"">+</div>",,delaylearn,learning,ITI,6vshFtP68NOBGHf5OCNZMBV6yRV2,6vshFtP68NOBGHf5OCNZMBV6yRV2,,,,,,,,,,,,,,,,,,,1507.0,,,65101adae9f0b22a17c5af61,23:48:59,27/03/2024
html-keyboard-response,209,433261,0.0-87.0-0.0,1595.7999999970198,"<div style=""display: flex; flex-direction: column; align-items: center; margin-top: -40px;""><img src=""images/pattern_7.png"" style=""width: 234px; height: 230px; margin-top: -50px;""><div style=""display: flex; justify-content: space-between; margin-top: 33px;""><img src=""images/choice_trial_8.png"" style=""width: 408px; height: 417px; margin-right: 200px;""><img src=""images/choice_trial_10.png"" style=""width: 408px; height: 417px;""></div></div>",f,delaylearn,learning,trial,6vshFtP68NOBGHf5OCNZMBV6yRV2,6vshFtP68NOBGHf5OCNZMBV6yRV2,5.0,images/choice_trial_8.png,images/choice_trial_10.png,images/pattern_7.png,f,f,750.0,8.0,10.0,6.0,0.0,38.0,1.0,1.0,8.0,170.0,,,,,,65101adae9f0b22a17c5af61,23:48:59,27/03/2024
html-keyboard-response,210,434266,0.0-87.0-1.0,,"<div style=""display: flex; flex-direction: column; align-items: center; margin-top: -40px;""><img src=""images/pattern_7.png"" style=""width: 234px; height: 230px; margin-top: -50px;""><div style=""display: flex; justify-content: space-between; margin-top: 33px;""><img src=""images/choice_trial_8.png"" style=""width: 408px; height: 417px; margin-right: 608px;""></div></div>",,delaylearn,learning,display_response,6vshFtP68NOBGHf5OCNZMBV6yRV2,6vshFtP68NOBGHf5OCNZMBV6yRV2,,,,,,,,,,,,,,,,,chosen stimuli: images/choice_trial_8.png,,,,,65101adae9f0b22a17c5af61,23:48:59,27/03/2024
html-keyboard-response,211,435026,0.0-87.0-2.0,,,,delaylearn,learning,feedback_duration_window,6vshFtP68NOBGHf5OCNZMBV6yRV2,6vshFtP68NOBGHf5OCNZMBV6yRV2,,,,,,,,,,,,,,,,,,750.0,,,,65101adae9f0b22a17c5af61,23:48:59,27/03/2024
html-keyboard-response,212,436530,0.0-87.0-3.0,,<div style='margin:auto;width: auto; font-size: 150%'><span style='font-weight: bold; font-size: 100px; color: green;'>+10 points!</span><br><br></div>,,delaylearn,learning,feedback_image_window,6vshFtP68NOBGHf5OCNZMBV6yRV2,6vshFtP68NOBGHf5OCNZMBV6yRV2,,,,,,,,,,,,,,,,,,,,,,65101adae9f0b22a17c5af61,23:48:59,27/03/2024
html-keyboard-response,213,438781,0.0-88.0,,"<div style=""font-size:100px;"">+</div>",,delaylearn,learning,ITI,6vshFtP68NOBGHf5OCNZMBV6yRV2,6vshFtP68NOBGHf5OCNZMBV6yRV2,,,,,,,,,,,,,,,,,,,2242.0,,,65101adae9f0b22a17c5af61,23:48:59,27/03/2024
html-keyboard-response,214,440301,0.0-89.0-0.0,1515.7000000029802,"<div style=""display: flex; flex-direction: column; align-items: center; margin-top: -40px;""><img src=""images/pattern_1.png"" style=""width: 234px; height: 230px; margin-top: -50px;""><div style=""display: flex; justify-content: space-between; margin-top: 33px;""><img src=""images/choice_trial_6.png"" style=""width: 408px; height: 417px; margin-right: 200px;""><img src=""images/choice_trial_15.png"" style=""width: 408px; height: 417px;""></div></div>",f,delaylearn,learning,trial,6vshFtP68NOBGHf5OCNZMBV6yRV2,6vshFtP68NOBGHf5OCNZMBV6yRV2,5.0,images/choice_trial_6.png,images/choice_trial_15.png,images/pattern_1.png,f,f,7000.0,6.0,15.0,1.0,0.0,39.0,1.0,1.0,6.0,180.0,,,,,,65101adae9f0b22a17c5af61,23:48:59,27/03/2024
html-keyboard-response,215,441307,0.0-89.0-1.0,,"<div style=""display: flex; flex-direction: column; align-items: center; margin-top: -40px;""><img src=""images/pattern_1.png"" style=""width: 234px; height: 230px; margin-top: -50px;""><div style=""display: flex; justify-content: space-between; margin-top: 33px;""><img src=""images/choice_trial_6.png"" style=""width: 408px; height: 417px; margin-right: 608px;""></div></div>",,delaylearn,learning,display_response,6vshFtP68NOBGHf5OCNZMBV6yRV2,6vshFtP68NOBGHf5OCNZMBV6yRV2,,,,,,,,,,,,,,,,,chosen stimuli: images/choice_trial_6.png,,,,,65101adae9f0b22a17c5af61,23:48:59,27/03/2024
html-keyboard-response,216,448317,0.0-89.0-2.0,,,,delaylearn,learning,feedback_duration_window,6vshFtP68NOBGHf5OCNZMBV6yRV2,6vshFtP68NOBGHf5OCNZMBV6yRV2,,,,,,,,,,,,,,,,,,7000.0,,,,65101adae9f0b22a17c5af61,23:48:59,27/03/2024
html-keyboard-response,217,449826,0.0-89.0-3.0,,<div style='margin:auto;width: auto; font-size: 150%'><span style='font-weight: bold; font-size: 100px; color: green;'>+10 points!</span><br><br></div>,,delaylearn,learning,feedback_image_window,6vshFtP68NOBGHf5OCNZMBV6yRV2,6vshFtP68NOBGHf5OCNZMBV6yRV2,,,,,,,,,,,,,,,,,,,,,,65101adae9f0b22a17c5af61,23:48:59,27/03/2024
html-keyboard-response,218,450338,0.0-90.0-0.0,,,,,,mood_trial_fixation,6vshFtP68NOBGHf5OCNZMBV6yRV2,,,,,,,,,,,,,,,,,,,,,,,65101adae9f0b22a17c5af61,23:48:59,27/03/2024
lmdlab-html-vas-response,219,455007,0.0-90.0-1.0,3659.0,How happy are you right now?,0.4055024768451419,delaylearn,learning,mood_trial,6vshFtP68NOBGHf5OCNZMBV6yRV2,6vshFtP68NOBGHf5OCNZMBV6yRV2,,,,,,,,,,,,,,,,,,,,"['Very unhappy', 'Very happy']",,65101adae9f0b22a17c5af61,23:48:59,27/03/2024
html-keyboard-response,220,456707,0.0-91.0,,"<div style=""font-size:100px;"">+</div>",,delaylearn,learning,ITI,6vshFtP68NOBGHf5OCNZMBV6yRV2,6vshFtP68NOBGHf5OCNZMBV6yRV2,,,,,,,,,,,,,,,,,,,1696.0,,,65101adae9f0b22a17c5af61,23:48:59,27/03/2024
html-keyboard-response,221,458087,0.0-92.0-0.0,1378.1000000089407,"<div style=""display: flex; flex-direction: column; align-items: center; margin-top: -40px;""><img src=""images/pattern_3.png"" style=""width: 234px; height: 230px; margin-top: -50px;""><div style=""display: flex; justify-content: space-between; margin-top: 33px;""><img src=""images/choice_trial_16.png"" style=""width: 408px; height: 417px; margin-right: 200px;""><img src=""images/choice_trial_2.png"" style=""width: 408px; height: 417px;""></div></div>",f,delaylearn,learning,trial,6vshFtP68NOBGHf5OCNZMBV6yRV2,6vshFtP68NOBGHf5OCNZMBV6yRV2,5.0,images/choice_trial_16.png,images/choice_trial_2.png,images/pattern_3.png,j,f,7000.0,16.0,2.0,2.0,0.0,40.0,1.0,0.0,16.0,180.0,,,,,,65101adae9f0b22a17c5af61,23:48:59,27/03/2024
html-keyboard-response,222,459104,0.0-92.0-1.0,,"<div style=""display: flex; flex-direction: column; align-items: center; margin-top: -40px;""><img src=""images/pattern_3.png"" style=""width: 234px; height: 230px; margin-top: -50px;""><div style=""display: flex; justify-content: space-between; margin-top: 33px;""><img src=""images/choice_trial_16.png"" style=""width: 408px; height: 417px; margin-right: 608px;""></div></div>",,delaylearn,learning,display_response,6vshFtP68NOBGHf5OCNZMBV6yRV2,6vshFtP68NOBGHf5OCNZMBV6yRV2,,,,,,,,,,,,,,,,,chosen stimuli: images/choice_trial_16.png,,,,,65101adae9f0b22a17c5af61,23:48:59,27/03/2024
html-keyboard-response,223,466113,0.0-92.0-2.0,,,,delaylearn,learning,feedback_duration_window,6vshFtP68NOBGHf5OCNZMBV6yRV2,6vshFtP68NOBGHf5OCNZMBV6yRV2,,,,,,,,,,,,,,,,,,7000.0,,,,65101adae9f0b22a17c5af61,23:48:59,27/03/2024
html-keyboard-response,224,467617,0.0-92.0-3.0,,<div style='margin:auto;width: auto; font-size: 150%'><span style='font-weight: bold; font-size: 100px; color: red;'>0 points!</span><br><br></div>,,delaylearn,learning,feedback_image_window,6vshFtP68NOBGHf5OCNZMBV6yRV2,6vshFtP68NOBGHf5OCNZMBV6yRV2,,,,,,,,,,,,,,,,,,,,,,65101adae9f0b22a17c5af61,23:48:59,27/03/2024
html-keyboard-response,225,469989,0.0-93.0,,"<div style=""font-size:100px;"">+</div>",,delaylearn,learning,ITI,6vshFtP68NOBGHf5OCNZMBV6yRV2,6vshFtP68NOBGHf5OCNZMBV6yRV2,,,,,,,,,,,,,,,,,,,2366.0,,,65101adae9f0b22a17c5af61,23:48:59,27/03/2024
html-keyboard-response,226,472128,0.0-94.0-0.0,2136.0,"<div style=""display: flex; flex-direction: column; align-items: center; margin-top: -40px;""><img src=""images/pattern_7.png"" style=""width: 234px; height: 230px; margin-top: -50px;""><div style=""display: flex; justify-content: space-between; margin-top: 33px;""><img src=""images/choice_trial_10.png"" style=""width: 408px; height: 417px; margin-right: 200px;""><img src=""images/choice_trial_8.png"" style=""width: 408px; height: 417px;""></div></div>",j,delaylearn,learning,trial,6vshFtP68NOBGHf5OCNZMBV6yRV2,6vshFtP68NOBGHf5OCNZMBV6yRV2,5.0,images/choice_trial_10.png,images/choice_trial_8.png,images/pattern_7.png,j,j,750.0,10.0,8.0,6.0,1.0,41.0,1.0,1.0,8.0,190.0,,,,,,65101adae9f0b22a17c5af61,23:48:59,27/03/2024
html-keyboard-response,227,473142,0.0-94.0-1.0,,"<div style=""display: flex; flex-direction: column; align-items: center; margin-top: -40px;""><img src=""images/pattern_7.png"" style=""width: 234px; height: 230px; margin-top: -50px;""><div style=""display: flex; justify-content: space-between; margin-top: 33px;""><img src=""images/choice_trial_8.png"" style=""width: 408px; height: 417px; margin-left:608px;""></div></div>",,delaylearn,learning,display_response,6vshFtP68NOBGHf5OCNZMBV6yRV2,6vshFtP68NOBGHf5OCNZMBV6yRV2,,,,,,,,,,,,,,,,,chosen stimuli: images/choice_trial_8.png,,,,,65101adae9f0b22a17c5af61,23:48:59,27/03/2024
html-keyboard-response,228,473905,0.0-94.0-2.0,,,,delaylearn,learning,feedback_duration_window,6vshFtP68NOBGHf5OCNZMBV6yRV2,6vshFtP68NOBGHf5OCNZMBV6yRV2,,,,,,,,,,,,,,,,,,750.0,,,,65101adae9f0b22a17c5af61,23:48:59,27/03/2024
html-keyboard-response,229,475407,0.0-94.0-3.0,,<div style='margin:auto;width: auto; font-size: 150%'><span style='font-weight: bold; font-size: 100px; color: green;'>+10 points!</span><br><br></div>,,delaylearn,learning,feedback_image_window,6vshFtP68NOBGHf5OCNZMBV6yRV2,6vshFtP68NOBGHf5OCNZMBV6yRV2,,,,,,,,,,,,,,,,,,,,,,65101adae9f0b22a17c5af61,23:48:59,27/03/2024
html-keyboard-response,230,477054,0.0-95.0,,"<div style=""font-size:100px;"">+</div>",,delaylearn,learning,ITI,6vshFtP68NOBGHf5OCNZMBV6yRV2,6vshFtP68NOBGHf5OCNZMBV6yRV2,,,,,,,,,,,,,,,,,,,1633.0,,,65101adae9f0b22a17c5af61,23:48:59,27/03/2024
