trial_type,trial_index,time_elapsed,internal_node_id,rt,stimulus,response,exp_name,exp_stage,test_part,subjectID,databaseID,counterbal,choice_stimuli_1,choice_stimuli_2,pattern_stimuli,rewarded_answer,correct_answer,feedback_duration_times,stim_left,stim_right,pair,leftright_counter,trial,response_correct,response_rewarded,chosen_stim,counter,displayed_choice,feedback_durations,ITI_duration,labels,rest_warning,prolificID,start_time,date
pavlovia,0,497,0.0-0.0,,,,,,,Y0KbGNxWvyYVvdc8ai6wFQykIEk1,,,,,,,,,,,,,,,,,,,,,,,5f0ebcdf13efbf091b37c4b4,09:09:36,27/02/2024
html-keyboard-response,1,3505,0.0-1.0,,"<div style=""font-size:100px;"">+</div>",,delaylearn,learning,pre_fixation,Y0KbGNxWvyYVvdc8ai6wFQykIEk1,,,,,,,,,,,,,,,,,,,,,,,5f0ebcdf13efbf091b37c4b4,09:09:36,27/02/2024
html-keyboard-response,2,4319,0.0-2.0-0.0,810.7999999523163,"<div style=""display: flex; flex-direction: column; align-items: center; margin-top: -40px;""><img src=""images/demo_images/pattern_1.png"" style=""width: 234px; height: 230px; margin-top: -50px;""><div style=""display: flex; justify-content: space-between; margin-top: 33px;""><img src=""images/demo_images/choice_trial_2.png"" style=""width: 408px; height: 417px; margin-right: 200px;""><img src=""images/demo_images/choice_trial_1.png"" style=""width: 408px; height: 417px;""></div></div>",f,delaylearn,learning,trial,Y0KbGNxWvyYVvdc8ai6wFQykIEk1,Y0KbGNxWvyYVvdc8ai6wFQykIEk1,3.0,images/demo_images/choice_trial_2.png,images/demo_images/choice_trial_1.png,images/demo_images/pattern_1.png,j,j,3000.0,2.0,1.0,20.0,1.0,1.0,0.0,0.0,2.0,0.0,,,,,,5f0ebcdf13efbf091b37c4b4,09:09:36,27/02/2024
html-keyboard-response,3,5328,0.0-2.0-1.0,,"<div style=""display: flex; flex-direction: column; align-items: center; margin-top: -40px;""><img src=""images/demo_images/pattern_1.png"" style=""width: 234px; height: 230px; margin-top: -50px;""><div style=""display: flex; justify-content: space-between; margin-top: 33px;""><img src=""images/demo_images/choice_trial_2.png"" style=""width: 408px; height: 417px; margin-right: 608px;""></div></div>",,delaylearn,learning,display_response,Y0KbGNxWvyYVvdc8ai6wFQykIEk1,Y0KbGNxWvyYVvdc8ai6wFQykIEk1,,,,,,,,,,,,,,,,,chosen stimuli: images/demo_images/choice_trial_2.png,,,,,5f0ebcdf13efbf091b37c4b4,09:09:36,27/02/2024
html-keyboard-response,4,8335,0.0-2.0-2.0,,,,delaylearn,learning,feedback_duration_window,Y0KbGNxWvyYVvdc8ai6wFQykIEk1,Y0KbGNxWvyYVvdc8ai6wFQykIEk1,,,,,,,,,,,,,,,,,,3000.0,,,,5f0ebcdf13efbf091b37c4b4,09:09:36,27/02/2024
html-keyboard-response,5,9844,0.0-2.0-3.0,,<div style='margin:auto;width: auto; font-size: 150%'><span style='font-weight: bold; font-size: 100px; color: red;'>0 points!</span><br><br></div>,,delaylearn,learning,feedback_image_window,Y0KbGNxWvyYVvdc8ai6wFQykIEk1,Y0KbGNxWvyYVvdc8ai6wFQykIEk1,,,,,,,,,,,,,,,,,,,,,,5f0ebcdf13efbf091b37c4b4,09:09:36,27/02/2024
html-keyboard-response,6,12338,0.0-3.0,,"<div style=""font-size:100px;"">+</div>",,delaylearn,learning,ITI,Y0KbGNxWvyYVvdc8ai6wFQykIEk1,Y0KbGNxWvyYVvdc8ai6wFQykIEk1,,,,,,,,,,,,,,,,,,,2487.0,,,5f0ebcdf13efbf091b37c4b4,09:09:36,27/02/2024
html-keyboard-response,7,13258,0.0-4.0-0.0,916.1000000238419,"<div style=""display: flex; flex-direction: column; align-items: center; margin-top: -40px;""><img src=""images/demo_images/pattern_1.png"" style=""width: 234px; height: 230px; margin-top: -50px;""><div style=""display: flex; justify-content: space-between; margin-top: 33px;""><img src=""images/demo_images/choice_trial_2.png"" style=""width: 408px; height: 417px; margin-right: 200px;""><img src=""images/demo_images/choice_trial_1.png"" style=""width: 408px; height: 417px;""></div></div>",j,delaylearn,learning,trial,Y0KbGNxWvyYVvdc8ai6wFQykIEk1,Y0KbGNxWvyYVvdc8ai6wFQykIEk1,3.0,images/demo_images/choice_trial_2.png,images/demo_images/choice_trial_1.png,images/demo_images/pattern_1.png,j,j,3000.0,2.0,1.0,20.0,1.0,2.0,1.0,1.0,1.0,10.0,,,,,,5f0ebcdf13efbf091b37c4b4,09:09:36,27/02/2024
html-keyboard-response,8,14265,0.0-4.0-1.0,,"<div style=""display: flex; flex-direction: column; align-items: center; margin-top: -40px;""><img src=""images/demo_images/pattern_1.png"" style=""width: 234px; height: 230px; margin-top: -50px;""><div style=""display: flex; justify-content: space-between; margin-top: 33px;""><img src=""images/demo_images/choice_trial_1.png"" style=""width: 408px; height: 417px; margin-left:608px;""></div></div>",,delaylearn,learning,display_response,Y0KbGNxWvyYVvdc8ai6wFQykIEk1,Y0KbGNxWvyYVvdc8ai6wFQykIEk1,,,,,,,,,,,,,,,,,chosen stimuli: images/demo_images/choice_trial_1.png,,,,,5f0ebcdf13efbf091b37c4b4,09:09:36,27/02/2024
html-keyboard-response,9,17271,0.0-4.0-2.0,,,,delaylearn,learning,feedback_duration_window,Y0KbGNxWvyYVvdc8ai6wFQykIEk1,Y0KbGNxWvyYVvdc8ai6wFQykIEk1,,,,,,,,,,,,,,,,,,3000.0,,,,5f0ebcdf13efbf091b37c4b4,09:09:36,27/02/2024
html-keyboard-response,10,18778,0.0-4.0-3.0,,<div style='margin:auto;width: auto; font-size: 150%'><span style='font-weight: bold; font-size: 100px; color: green;'>+10 points!</span><br><br></div>,,delaylearn,learning,feedback_image_window,Y0KbGNxWvyYVvdc8ai6wFQykIEk1,Y0KbGNxWvyYVvdc8ai6wFQykIEk1,,,,,,,,,,,,,,,,,,,,,,5f0ebcdf13efbf091b37c4b4,09:09:36,27/02/2024
html-keyboard-response,11,21119,0.0-5.0,,"<div style=""font-size:100px;"">+</div>",,delaylearn,learning,ITI,Y0KbGNxWvyYVvdc8ai6wFQykIEk1,Y0KbGNxWvyYVvdc8ai6wFQykIEk1,,,,,,,,,,,,,,,,,,,2334.0,,,5f0ebcdf13efbf091b37c4b4,09:09:36,27/02/2024
html-keyboard-response,12,22071,0.0-6.0-0.0,949.3999999761581,"<div style=""display: flex; flex-direction: column; align-items: center; margin-top: -40px;""><img src=""images/demo_images/pattern_1.png"" style=""width: 234px; height: 230px; margin-top: -50px;""><div style=""display: flex; justify-content: space-between; margin-top: 33px;""><img src=""images/demo_images/choice_trial_1.png"" style=""width: 408px; height: 417px; margin-right: 200px;""><img src=""images/demo_images/choice_trial_2.png"" style=""width: 408px; height: 417px;""></div></div>",f,delaylearn,learning,trial,Y0KbGNxWvyYVvdc8ai6wFQykIEk1,Y0KbGNxWvyYVvdc8ai6wFQykIEk1,3.0,images/demo_images/choice_trial_1.png,images/demo_images/choice_trial_2.png,images/demo_images/pattern_1.png,j,f,3000.0,1.0,2.0,20.0,0.0,3.0,1.0,0.0,1.0,10.0,,,,,,5f0ebcdf13efbf091b37c4b4,09:09:36,27/02/2024
html-keyboard-response,13,23077,0.0-6.0-1.0,,"<div style=""display: flex; flex-direction: column; align-items: center; margin-top: -40px;""><img src=""images/demo_images/pattern_1.png"" style=""width: 234px; height: 230px; margin-top: -50px;""><div style=""display: flex; justify-content: space-between; margin-top: 33px;""><img src=""images/demo_images/choice_trial_1.png"" style=""width: 408px; height: 417px; margin-right: 608px;""></div></div>",,delaylearn,learning,display_response,Y0KbGNxWvyYVvdc8ai6wFQykIEk1,Y0KbGNxWvyYVvdc8ai6wFQykIEk1,,,,,,,,,,,,,,,,,chosen stimuli: images/demo_images/choice_trial_1.png,,,,,5f0ebcdf13efbf091b37c4b4,09:09:36,27/02/2024
html-keyboard-response,14,26080,0.0-6.0-2.0,,,,delaylearn,learning,feedback_duration_window,Y0KbGNxWvyYVvdc8ai6wFQykIEk1,Y0KbGNxWvyYVvdc8ai6wFQykIEk1,,,,,,,,,,,,,,,,,,3000.0,,,,5f0ebcdf13efbf091b37c4b4,09:09:36,27/02/2024
html-keyboard-response,15,27587,0.0-6.0-3.0,,<div style='margin:auto;width: auto; font-size: 150%'><span style='font-weight: bold; font-size: 100px; color: red;'>0 points!</span><br><br></div>,,delaylearn,learning,feedback_image_window,Y0KbGNxWvyYVvdc8ai6wFQykIEk1,Y0KbGNxWvyYVvdc8ai6wFQykIEk1,,,,,,,,,,,,,,,,,,,,,,5f0ebcdf13efbf091b37c4b4,09:09:36,27/02/2024
html-keyboard-response,16,29935,0.0-7.0,,"<div style=""font-size:100px;"">+</div>",,delaylearn,learning,ITI,Y0KbGNxWvyYVvdc8ai6wFQykIEk1,Y0KbGNxWvyYVvdc8ai6wFQykIEk1,,,,,,,,,,,,,,,,,,,2342.0,,,5f0ebcdf13efbf091b37c4b4,09:09:36,27/02/2024
html-keyboard-response,17,30954,0.0-8.0-0.0,1016.1000000238419,"<div style=""display: flex; flex-direction: column; align-items: center; margin-top: -40px;""><img src=""images/demo_images/pattern_1.png"" style=""width: 234px; height: 230px; margin-top: -50px;""><div style=""display: flex; justify-content: space-between; margin-top: 33px;""><img src=""images/demo_images/choice_trial_1.png"" style=""width: 408px; height: 417px; margin-right: 200px;""><img src=""images/demo_images/choice_trial_2.png"" style=""width: 408px; height: 417px;""></div></div>",f,delaylearn,learning,trial,Y0KbGNxWvyYVvdc8ai6wFQykIEk1,Y0KbGNxWvyYVvdc8ai6wFQykIEk1,3.0,images/demo_images/choice_trial_1.png,images/demo_images/choice_trial_2.png,images/demo_images/pattern_1.png,f,f,3000.0,1.0,2.0,20.0,0.0,4.0,1.0,1.0,1.0,20.0,,,,,,5f0ebcdf13efbf091b37c4b4,09:09:36,27/02/2024
html-keyboard-response,18,31959,0.0-8.0-1.0,,"<div style=""display: flex; flex-direction: column; align-items: center; margin-top: -40px;""><img src=""images/demo_images/pattern_1.png"" style=""width: 234px; height: 230px; margin-top: -50px;""><div style=""display: flex; justify-content: space-between; margin-top: 33px;""><img src=""images/demo_images/choice_trial_1.png"" style=""width: 408px; height: 417px; margin-right: 608px;""></div></div>",,delaylearn,learning,display_response,Y0KbGNxWvyYVvdc8ai6wFQykIEk1,Y0KbGNxWvyYVvdc8ai6wFQykIEk1,,,,,,,,,,,,,,,,,chosen stimuli: images/demo_images/choice_trial_1.png,,,,,5f0ebcdf13efbf091b37c4b4,09:09:36,27/02/2024
html-keyboard-response,19,34966,0.0-8.0-2.0,,,,delaylearn,learning,feedback_duration_window,Y0KbGNxWvyYVvdc8ai6wFQykIEk1,Y0KbGNxWvyYVvdc8ai6wFQykIEk1,,,,,,,,,,,,,,,,,,3000.0,,,,5f0ebcdf13efbf091b37c4b4,09:09:36,27/02/2024
html-keyboard-response,20,36470,0.0-8.0-3.0,,<div style='margin:auto;width: auto; font-size: 150%'><span style='font-weight: bold; font-size: 100px; color: green;'>+10 points!</span><br><br></div>,,delaylearn,learning,feedback_image_window,Y0KbGNxWvyYVvdc8ai6wFQykIEk1,Y0KbGNxWvyYVvdc8ai6wFQykIEk1,,,,,,,,,,,,,,,,,,,,,,5f0ebcdf13efbf091b37c4b4,09:09:36,27/02/2024
html-keyboard-response,21,36974,0.0-9.0-0.0,,,,,,mood_trial_fixation,Y0KbGNxWvyYVvdc8ai6wFQykIEk1,,,,,,,,,,,,,,,,,,,,,,,5f0ebcdf13efbf091b37c4b4,09:09:36,27/02/2024
lmdlab-html-vas-response,22,51716,0.0-9.0-1.0,13725.0,How happy are you right now?,0.8277777777777777,delaylearn,learning,mood_trial,Y0KbGNxWvyYVvdc8ai6wFQykIEk1,Y0KbGNxWvyYVvdc8ai6wFQykIEk1,,,,,,,,,,,,,,,,,,,,"['Very unhappy', 'Very happy']",,5f0ebcdf13efbf091b37c4b4,09:09:36,27/02/2024
html-keyboard-response,23,53889,0.0-10.0,,"<div style=""font-size:100px;"">+</div>",,delaylearn,learning,ITI,Y0KbGNxWvyYVvdc8ai6wFQykIEk1,Y0KbGNxWvyYVvdc8ai6wFQykIEk1,,,,,,,,,,,,,,,,,,,2166.0,,,5f0ebcdf13efbf091b37c4b4,09:09:36,27/02/2024
html-keyboard-response,24,55363,0.0-11.0-0.0,1469.8999999761581,"<div style=""display: flex; flex-direction: column; align-items: center; margin-top: -40px;""><img src=""images/demo_images/pattern_1.png"" style=""width: 234px; height: 230px; margin-top: -50px;""><div style=""display: flex; justify-content: space-between; margin-top: 33px;""><img src=""images/demo_images/choice_trial_2.png"" style=""width: 408px; height: 417px; margin-right: 200px;""><img src=""images/demo_images/choice_trial_1.png"" style=""width: 408px; height: 417px;""></div></div>",f,delaylearn,learning,trial,Y0KbGNxWvyYVvdc8ai6wFQykIEk1,Y0KbGNxWvyYVvdc8ai6wFQykIEk1,3.0,images/demo_images/choice_trial_2.png,images/demo_images/choice_trial_1.png,images/demo_images/pattern_1.png,j,j,3000.0,2.0,1.0,20.0,1.0,5.0,0.0,0.0,2.0,20.0,,,,,,5f0ebcdf13efbf091b37c4b4,09:09:36,27/02/2024
html-keyboard-response,25,56370,0.0-11.0-1.0,,"<div style=""display: flex; flex-direction: column; align-items: center; margin-top: -40px;""><img src=""images/demo_images/pattern_1.png"" style=""width: 234px; height: 230px; margin-top: -50px;""><div style=""display: flex; justify-content: space-between; margin-top: 33px;""><img src=""images/demo_images/choice_trial_2.png"" style=""width: 408px; height: 417px; margin-right: 608px;""></div></div>",,delaylearn,learning,display_response,Y0KbGNxWvyYVvdc8ai6wFQykIEk1,Y0KbGNxWvyYVvdc8ai6wFQykIEk1,,,,,,,,,,,,,,,,,chosen stimuli: images/demo_images/choice_trial_2.png,,,,,5f0ebcdf13efbf091b37c4b4,09:09:36,27/02/2024
html-keyboard-response,26,59378,0.0-11.0-2.0,,,,delaylearn,learning,feedback_duration_window,Y0KbGNxWvyYVvdc8ai6wFQykIEk1,Y0KbGNxWvyYVvdc8ai6wFQykIEk1,,,,,,,,,,,,,,,,,,3000.0,,,,5f0ebcdf13efbf091b37c4b4,09:09:36,27/02/2024
html-keyboard-response,27,60886,0.0-11.0-3.0,,<div style='margin:auto;width: auto; font-size: 150%'><span style='font-weight: bold; font-size: 100px; color: red;'>0 points!</span><br><br></div>,,delaylearn,learning,feedback_image_window,Y0KbGNxWvyYVvdc8ai6wFQykIEk1,Y0KbGNxWvyYVvdc8ai6wFQykIEk1,,,,,,,,,,,,,,,,,,,,,,5f0ebcdf13efbf091b37c4b4,09:09:36,27/02/2024
html-keyboard-response,28,62784,0.0-12.0,,"<div style=""font-size:100px;"">+</div>",,delaylearn,learning,ITI,Y0KbGNxWvyYVvdc8ai6wFQykIEk1,Y0KbGNxWvyYVvdc8ai6wFQykIEk1,,,,,,,,,,,,,,,,,,,1892.0,,,5f0ebcdf13efbf091b37c4b4,09:09:36,27/02/2024
html-keyboard-response,29,64451,0.0-13.0-0.0,1663.3999999761581,"<div style=""display: flex; flex-direction: column; align-items: center; margin-top: -40px;""><img src=""images/demo_images/pattern_1.png"" style=""width: 234px; height: 230px; margin-top: -50px;""><div style=""display: flex; justify-content: space-between; margin-top: 33px;""><img src=""images/demo_images/choice_trial_1.png"" style=""width: 408px; height: 417px; margin-right: 200px;""><img src=""images/demo_images/choice_trial_2.png"" style=""width: 408px; height: 417px;""></div></div>",j,delaylearn,learning,trial,Y0KbGNxWvyYVvdc8ai6wFQykIEk1,Y0KbGNxWvyYVvdc8ai6wFQykIEk1,3.0,images/demo_images/choice_trial_1.png,images/demo_images/choice_trial_2.png,images/demo_images/pattern_1.png,f,f,3000.0,1.0,2.0,20.0,0.0,6.0,0.0,0.0,2.0,20.0,,,,,,5f0ebcdf13efbf091b37c4b4,09:09:36,27/02/2024
html-keyboard-response,30,65455,0.0-13.0-1.0,,"<div style=""display: flex; flex-direction: column; align-items: center; margin-top: -40px;""><img src=""images/demo_images/pattern_1.png"" style=""width: 234px; height: 230px; margin-top: -50px;""><div style=""display: flex; justify-content: space-between; margin-top: 33px;""><img src=""images/demo_images/choice_trial_2.png"" style=""width: 408px; height: 417px; margin-left:608px;""></div></div>",,delaylearn,learning,display_response,Y0KbGNxWvyYVvdc8ai6wFQykIEk1,Y0KbGNxWvyYVvdc8ai6wFQykIEk1,,,,,,,,,,,,,,,,,chosen stimuli: images/demo_images/choice_trial_2.png,,,,,5f0ebcdf13efbf091b37c4b4,09:09:36,27/02/2024
html-keyboard-response,31,68462,0.0-13.0-2.0,,,,delaylearn,learning,feedback_duration_window,Y0KbGNxWvyYVvdc8ai6wFQykIEk1,Y0KbGNxWvyYVvdc8ai6wFQykIEk1,,,,,,,,,,,,,,,,,,3000.0,,,,5f0ebcdf13efbf091b37c4b4,09:09:36,27/02/2024
html-keyboard-response,32,69969,0.0-13.0-3.0,,<div style='margin:auto;width: auto; font-size: 150%'><span style='font-weight: bold; font-size: 100px; color: red;'>0 points!</span><br><br></div>,,delaylearn,learning,feedback_image_window,Y0KbGNxWvyYVvdc8ai6wFQykIEk1,Y0KbGNxWvyYVvdc8ai6wFQykIEk1,,,,,,,,,,,,,,,,,,,,,,5f0ebcdf13efbf091b37c4b4,09:09:36,27/02/2024
html-button-response,33,444454,0.0-14.0,374480.0,"
  <div style=""display: flex; align-items: center; justify-content: center; height: 80vh;"">
  <div>
          <img src=""images/inst_demo_finish.png"" style=""width: 80vw; height:auto;"">
          <br><br>
      </div>
      <br><br>
  </div>",0,,,,Y0KbGNxWvyYVvdc8ai6wFQykIEk1,,,,,,,,,,,,,,,,,,,,,,,5f0ebcdf13efbf091b37c4b4,09:09:36,27/02/2024
html-keyboard-response,34,453162,0.0-15.0,8707.299999952316,"
  <div style=""display: flex; align-items: center; justify-content: center; height: 80vh;"">
  <div>
          <img src=""images/inst_6.png"" style=""width: 80vw; height:auto;"">
          <br><br>
      </div>
      <br><br>
  </div>",f,,,,Y0KbGNxWvyYVvdc8ai6wFQykIEk1,,,,,,,,,,,,,,,,,,,,,,,5f0ebcdf13efbf091b37c4b4,09:09:36,27/02/2024
html-keyboard-response,35,456169,0.0-16.0,,"<div style=""font-size:100px;"">+</div>",,delaylearn,learning,pre_fixation,Y0KbGNxWvyYVvdc8ai6wFQykIEk1,,,,,,,,,,,,,,,,,,,,,,,5f0ebcdf13efbf091b37c4b4,09:09:36,27/02/2024
html-keyboard-response,36,458524,0.0-17.0,,"<div style=""font-size:100px;"">+</div>",,delaylearn,learning,ITI,Y0KbGNxWvyYVvdc8ai6wFQykIEk1,Y0KbGNxWvyYVvdc8ai6wFQykIEk1,,,,,,,,,,,,,,,,,,,2352.0,,,5f0ebcdf13efbf091b37c4b4,09:09:36,27/02/2024
html-keyboard-response,37,459533,0.0-18.0-0.0,1005.6000000238419,"<div style=""display: flex; flex-direction: column; align-items: center; margin-top: -40px;""><img src=""images/pattern_3.png"" style=""width: 234px; height: 230px; margin-top: -50px;""><div style=""display: flex; justify-content: space-between; margin-top: 33px;""><img src=""images/choice_trial_13.png"" style=""width: 408px; height: 417px; margin-right: 200px;""><img src=""images/choice_trial_10.png"" style=""width: 408px; height: 417px;""></div></div>",f,delaylearn,learning,trial,Y0KbGNxWvyYVvdc8ai6wFQykIEk1,Y0KbGNxWvyYVvdc8ai6wFQykIEk1,3.0,images/choice_trial_13.png,images/choice_trial_10.png,images/pattern_3.png,f,f,7000.0,13.0,10.0,2.0,0.0,7.0,1.0,1.0,13.0,30.0,,,,,,5f0ebcdf13efbf091b37c4b4,09:09:36,27/02/2024
html-keyboard-response,38,460537,0.0-18.0-1.0,,"<div style=""display: flex; flex-direction: column; align-items: center; margin-top: -40px;""><img src=""images/pattern_3.png"" style=""width: 234px; height: 230px; margin-top: -50px;""><div style=""display: flex; justify-content: space-between; margin-top: 33px;""><img src=""images/choice_trial_13.png"" style=""width: 408px; height: 417px; margin-right: 608px;""></div></div>",,delaylearn,learning,display_response,Y0KbGNxWvyYVvdc8ai6wFQykIEk1,Y0KbGNxWvyYVvdc8ai6wFQykIEk1,,,,,,,,,,,,,,,,,chosen stimuli: images/choice_trial_13.png,,,,,5f0ebcdf13efbf091b37c4b4,09:09:36,27/02/2024
html-keyboard-response,39,467542,0.0-18.0-2.0,,,,delaylearn,learning,feedback_duration_window,Y0KbGNxWvyYVvdc8ai6wFQykIEk1,Y0KbGNxWvyYVvdc8ai6wFQykIEk1,,,,,,,,,,,,,,,,,,7000.0,,,,5f0ebcdf13efbf091b37c4b4,09:09:36,27/02/2024
html-keyboard-response,40,469050,0.0-18.0-3.0,,<div style='margin:auto;width: auto; font-size: 150%'><span style='font-weight: bold; font-size: 100px; color: green;'>+10 points!</span><br><br></div>,,delaylearn,learning,feedback_image_window,Y0KbGNxWvyYVvdc8ai6wFQykIEk1,Y0KbGNxWvyYVvdc8ai6wFQykIEk1,,,,,,,,,,,,,,,,,,,,,,5f0ebcdf13efbf091b37c4b4,09:09:36,27/02/2024
html-keyboard-response,41,470807,0.0-19.0,,"<div style=""font-size:100px;"">+</div>",,delaylearn,learning,ITI,Y0KbGNxWvyYVvdc8ai6wFQykIEk1,Y0KbGNxWvyYVvdc8ai6wFQykIEk1,,,,,,,,,,,,,,,,,,,1752.0,,,5f0ebcdf13efbf091b37c4b4,09:09:36,27/02/2024
html-keyboard-response,42,471733,0.0-20.0-0.0,924.0,"<div style=""display: flex; flex-direction: column; align-items: center; margin-top: -40px;""><img src=""images/pattern_7.png"" style=""width: 234px; height: 230px; margin-top: -50px;""><div style=""display: flex; justify-content: space-between; margin-top: 33px;""><img src=""images/choice_trial_12.png"" style=""width: 408px; height: 417px; margin-right: 200px;""><img src=""images/choice_trial_6.png"" style=""width: 408px; height: 417px;""></div></div>",j,delaylearn,learning,trial,Y0KbGNxWvyYVvdc8ai6wFQykIEk1,Y0KbGNxWvyYVvdc8ai6wFQykIEk1,3.0,images/choice_trial_12.png,images/choice_trial_6.png,images/pattern_7.png,j,j,750.0,12.0,6.0,6.0,1.0,8.0,1.0,1.0,6.0,40.0,,,,,,5f0ebcdf13efbf091b37c4b4,09:09:36,27/02/2024
html-keyboard-response,43,472739,0.0-20.0-1.0,,"<div style=""display: flex; flex-direction: column; align-items: center; margin-top: -40px;""><img src=""images/pattern_7.png"" style=""width: 234px; height: 230px; margin-top: -50px;""><div style=""display: flex; justify-content: space-between; margin-top: 33px;""><img src=""images/choice_trial_6.png"" style=""width: 408px; height: 417px; margin-left:608px;""></div></div>",,delaylearn,learning,display_response,Y0KbGNxWvyYVvdc8ai6wFQykIEk1,Y0KbGNxWvyYVvdc8ai6wFQykIEk1,,,,,,,,,,,,,,,,,chosen stimuli: images/choice_trial_6.png,,,,,5f0ebcdf13efbf091b37c4b4,09:09:36,27/02/2024
html-keyboard-response,44,473496,0.0-20.0-2.0,,,,delaylearn,learning,feedback_duration_window,Y0KbGNxWvyYVvdc8ai6wFQykIEk1,Y0KbGNxWvyYVvdc8ai6wFQykIEk1,,,,,,,,,,,,,,,,,,750.0,,,,5f0ebcdf13efbf091b37c4b4,09:09:36,27/02/2024
html-keyboard-response,45,475004,0.0-20.0-3.0,,<div style='margin:auto;width: auto; font-size: 150%'><span style='font-weight: bold; font-size: 100px; color: green;'>+10 points!</span><br><br></div>,,delaylearn,learning,feedback_image_window,Y0KbGNxWvyYVvdc8ai6wFQykIEk1,Y0KbGNxWvyYVvdc8ai6wFQykIEk1,,,,,,,,,,,,,,,,,,,,,,5f0ebcdf13efbf091b37c4b4,09:09:36,27/02/2024
html-keyboard-response,46,477016,0.0-21.0,,"<div style=""font-size:100px;"">+</div>",,delaylearn,learning,ITI,Y0KbGNxWvyYVvdc8ai6wFQykIEk1,Y0KbGNxWvyYVvdc8ai6wFQykIEk1,,,,,,,,,,,,,,,,,,,2005.0,,,5f0ebcdf13efbf091b37c4b4,09:09:36,27/02/2024
html-keyboard-response,47,478214,0.0-22.0-0.0,1194.6000000238419,"<div style=""display: flex; flex-direction: column; align-items: center; margin-top: -40px;""><img src=""images/pattern_4.png"" style=""width: 234px; height: 230px; margin-top: -50px;""><div style=""display: flex; justify-content: space-between; margin-top: 33px;""><img src=""images/choice_trial_15.png"" style=""width: 408px; height: 417px; margin-right: 200px;""><img src=""images/choice_trial_9.png"" style=""width: 408px; height: 417px;""></div></div>",j,delaylearn,learning,trial,Y0KbGNxWvyYVvdc8ai6wFQykIEk1,Y0KbGNxWvyYVvdc8ai6wFQykIEk1,3.0,images/choice_trial_15.png,images/choice_trial_9.png,images/pattern_4.png,f,f,7000.0,15.0,9.0,3.0,0.0,9.0,0.0,0.0,9.0,40.0,,,,,,5f0ebcdf13efbf091b37c4b4,09:09:36,27/02/2024
html-keyboard-response,48,479221,0.0-22.0-1.0,,"<div style=""display: flex; flex-direction: column; align-items: center; margin-top: -40px;""><img src=""images/pattern_4.png"" style=""width: 234px; height: 230px; margin-top: -50px;""><div style=""display: flex; justify-content: space-between; margin-top: 33px;""><img src=""images/choice_trial_9.png"" style=""width: 408px; height: 417px; margin-left:608px;""></div></div>",,delaylearn,learning,display_response,Y0KbGNxWvyYVvdc8ai6wFQykIEk1,Y0KbGNxWvyYVvdc8ai6wFQykIEk1,,,,,,,,,,,,,,,,,chosen stimuli: images/choice_trial_9.png,,,,,5f0ebcdf13efbf091b37c4b4,09:09:36,27/02/2024
html-keyboard-response,49,486227,0.0-22.0-2.0,,,,delaylearn,learning,feedback_duration_window,Y0KbGNxWvyYVvdc8ai6wFQykIEk1,Y0KbGNxWvyYVvdc8ai6wFQykIEk1,,,,,,,,,,,,,,,,,,7000.0,,,,5f0ebcdf13efbf091b37c4b4,09:09:36,27/02/2024
html-keyboard-response,50,487735,0.0-22.0-3.0,,<div style='margin:auto;width: auto; font-size: 150%'><span style='font-weight: bold; font-size: 100px; color: red;'>0 points!</span><br><br></div>,,delaylearn,learning,feedback_image_window,Y0KbGNxWvyYVvdc8ai6wFQykIEk1,Y0KbGNxWvyYVvdc8ai6wFQykIEk1,,,,,,,,,,,,,,,,,,,,,,5f0ebcdf13efbf091b37c4b4,09:09:36,27/02/2024
html-keyboard-response,51,489644,0.0-23.0,,"<div style=""font-size:100px;"">+</div>",,delaylearn,learning,ITI,Y0KbGNxWvyYVvdc8ai6wFQykIEk1,Y0KbGNxWvyYVvdc8ai6wFQykIEk1,,,,,,,,,,,,,,,,,,,1902.0,,,5f0ebcdf13efbf091b37c4b4,09:09:36,27/02/2024
html-keyboard-response,52,490894,0.0-24.0-0.0,1247.1000000238419,"<div style=""display: flex; flex-direction: column; align-items: center; margin-top: -40px;""><img src=""images/pattern_5.png"" style=""width: 234px; height: 230px; margin-top: -50px;""><div style=""display: flex; justify-content: space-between; margin-top: 33px;""><img src=""images/choice_trial_2.png"" style=""width: 408px; height: 417px; margin-right: 200px;""><img src=""images/choice_trial_11.png"" style=""width: 408px; height: 417px;""></div></div>",j,delaylearn,learning,trial,Y0KbGNxWvyYVvdc8ai6wFQykIEk1,Y0KbGNxWvyYVvdc8ai6wFQykIEk1,3.0,images/choice_trial_2.png,images/choice_trial_11.png,images/pattern_5.png,j,j,750.0,2.0,11.0,4.0,1.0,10.0,1.0,1.0,11.0,50.0,,,,,,5f0ebcdf13efbf091b37c4b4,09:09:36,27/02/2024
html-keyboard-response,53,491898,0.0-24.0-1.0,,"<div style=""display: flex; flex-direction: column; align-items: center; margin-top: -40px;""><img src=""images/pattern_5.png"" style=""width: 234px; height: 230px; margin-top: -50px;""><div style=""display: flex; justify-content: space-between; margin-top: 33px;""><img src=""images/choice_trial_11.png"" style=""width: 408px; height: 417px; margin-left:608px;""></div></div>",,delaylearn,learning,display_response,Y0KbGNxWvyYVvdc8ai6wFQykIEk1,Y0KbGNxWvyYVvdc8ai6wFQykIEk1,,,,,,,,,,,,,,,,,chosen stimuli: images/choice_trial_11.png,,,,,5f0ebcdf13efbf091b37c4b4,09:09:36,27/02/2024
html-keyboard-response,54,492655,0.0-24.0-2.0,,,,delaylearn,learning,feedback_duration_window,Y0KbGNxWvyYVvdc8ai6wFQykIEk1,Y0KbGNxWvyYVvdc8ai6wFQykIEk1,,,,,,,,,,,,,,,,,,750.0,,,,5f0ebcdf13efbf091b37c4b4,09:09:36,27/02/2024
html-keyboard-response,55,494163,0.0-24.0-3.0,,<div style='margin:auto;width: auto; font-size: 150%'><span style='font-weight: bold; font-size: 100px; color: green;'>+10 points!</span><br><br></div>,,delaylearn,learning,feedback_image_window,Y0KbGNxWvyYVvdc8ai6wFQykIEk1,Y0KbGNxWvyYVvdc8ai6wFQykIEk1,,,,,,,,,,,,,,,,,,,,,,5f0ebcdf13efbf091b37c4b4,09:09:36,27/02/2024
html-keyboard-response,56,496073,0.0-25.0,,"<div style=""font-size:100px;"">+</div>",,delaylearn,learning,ITI,Y0KbGNxWvyYVvdc8ai6wFQykIEk1,Y0KbGNxWvyYVvdc8ai6wFQykIEk1,,,,,,,,,,,,,,,,,,,1903.0,,,5f0ebcdf13efbf091b37c4b4,09:09:36,27/02/2024
html-keyboard-response,57,497365,0.0-26.0-0.0,1288.8999999761581,"<div style=""display: flex; flex-direction: column; align-items: center; margin-top: -40px;""><img src=""images/pattern_6.png"" style=""width: 234px; height: 230px; margin-top: -50px;""><div style=""display: flex; justify-content: space-between; margin-top: 33px;""><img src=""images/choice_trial_16.png"" style=""width: 408px; height: 417px; margin-right: 200px;""><img src=""images/choice_trial_3.png"" style=""width: 408px; height: 417px;""></div></div>",f,delaylearn,learning,trial,Y0KbGNxWvyYVvdc8ai6wFQykIEk1,Y0KbGNxWvyYVvdc8ai6wFQykIEk1,3.0,images/choice_trial_16.png,images/choice_trial_3.png,images/pattern_6.png,j,f,750.0,16.0,3.0,5.0,0.0,11.0,1.0,0.0,16.0,50.0,,,,,,5f0ebcdf13efbf091b37c4b4,09:09:36,27/02/2024
html-keyboard-response,58,498368,0.0-26.0-1.0,,"<div style=""display: flex; flex-direction: column; align-items: center; margin-top: -40px;""><img src=""images/pattern_6.png"" style=""width: 234px; height: 230px; margin-top: -50px;""><div style=""display: flex; justify-content: space-between; margin-top: 33px;""><img src=""images/choice_trial_16.png"" style=""width: 408px; height: 417px; margin-right: 608px;""></div></div>",,delaylearn,learning,display_response,Y0KbGNxWvyYVvdc8ai6wFQykIEk1,Y0KbGNxWvyYVvdc8ai6wFQykIEk1,,,,,,,,,,,,,,,,,chosen stimuli: images/choice_trial_16.png,,,,,5f0ebcdf13efbf091b37c4b4,09:09:36,27/02/2024
html-keyboard-response,59,499125,0.0-26.0-2.0,,,,delaylearn,learning,feedback_duration_window,Y0KbGNxWvyYVvdc8ai6wFQykIEk1,Y0KbGNxWvyYVvdc8ai6wFQykIEk1,,,,,,,,,,,,,,,,,,750.0,,,,5f0ebcdf13efbf091b37c4b4,09:09:36,27/02/2024
html-keyboard-response,60,500632,0.0-26.0-3.0,,<div style='margin:auto;width: auto; font-size: 150%'><span style='font-weight: bold; font-size: 100px; color: red;'>0 points!</span><br><br></div>,,delaylearn,learning,feedback_image_window,Y0KbGNxWvyYVvdc8ai6wFQykIEk1,Y0KbGNxWvyYVvdc8ai6wFQykIEk1,,,,,,,,,,,,,,,,,,,,,,5f0ebcdf13efbf091b37c4b4,09:09:36,27/02/2024
html-keyboard-response,61,501136,0.0-27.0-0.0,,,,,,mood_trial_fixation,Y0KbGNxWvyYVvdc8ai6wFQykIEk1,,,,,,,,,,,,,,,,,,,,,,,5f0ebcdf13efbf091b37c4b4,09:09:36,27/02/2024
lmdlab-html-vas-response,62,504594,0.0-27.0-1.0,2448.0,How happy are you right now?,0.8814814814814815,delaylearn,learning,mood_trial,Y0KbGNxWvyYVvdc8ai6wFQykIEk1,Y0KbGNxWvyYVvdc8ai6wFQykIEk1,,,,,,,,,,,,,,,,,,,,"['Very unhappy', 'Very happy']",,5f0ebcdf13efbf091b37c4b4,09:09:36,27/02/2024
html-keyboard-response,63,506531,0.0-28.0,,"<div style=""font-size:100px;"">+</div>",,delaylearn,learning,ITI,Y0KbGNxWvyYVvdc8ai6wFQykIEk1,Y0KbGNxWvyYVvdc8ai6wFQykIEk1,,,,,,,,,,,,,,,,,,,1935.0,,,5f0ebcdf13efbf091b37c4b4,09:09:36,27/02/2024
html-keyboard-response,64,507446,0.0-29.0-0.0,912.8999999761581,"<div style=""display: flex; flex-direction: column; align-items: center; margin-top: -40px;""><img src=""images/pattern_1.png"" style=""width: 234px; height: 230px; margin-top: -50px;""><div style=""display: flex; justify-content: space-between; margin-top: 33px;""><img src=""images/choice_trial_8.png"" style=""width: 408px; height: 417px; margin-right: 200px;""><img src=""images/choice_trial_14.png"" style=""width: 408px; height: 417px;""></div></div>",j,delaylearn,learning,trial,Y0KbGNxWvyYVvdc8ai6wFQykIEk1,Y0KbGNxWvyYVvdc8ai6wFQykIEk1,3.0,images/choice_trial_8.png,images/choice_trial_14.png,images/pattern_1.png,j,j,7000.0,8.0,14.0,1.0,1.0,12.0,1.0,1.0,14.0,60.0,,,,,,5f0ebcdf13efbf091b37c4b4,09:09:36,27/02/2024
html-keyboard-response,65,508453,0.0-29.0-1.0,,"<div style=""display: flex; flex-direction: column; align-items: center; margin-top: -40px;""><img src=""images/pattern_1.png"" style=""width: 234px; height: 230px; margin-top: -50px;""><div style=""display: flex; justify-content: space-between; margin-top: 33px;""><img src=""images/choice_trial_14.png"" style=""width: 408px; height: 417px; margin-left:608px;""></div></div>",,delaylearn,learning,display_response,Y0KbGNxWvyYVvdc8ai6wFQykIEk1,Y0KbGNxWvyYVvdc8ai6wFQykIEk1,,,,,,,,,,,,,,,,,chosen stimuli: images/choice_trial_14.png,,,,,5f0ebcdf13efbf091b37c4b4,09:09:36,27/02/2024
html-keyboard-response,66,515460,0.0-29.0-2.0,,,,delaylearn,learning,feedback_duration_window,Y0KbGNxWvyYVvdc8ai6wFQykIEk1,Y0KbGNxWvyYVvdc8ai6wFQykIEk1,,,,,,,,,,,,,,,,,,7000.0,,,,5f0ebcdf13efbf091b37c4b4,09:09:36,27/02/2024
html-keyboard-response,67,516966,0.0-29.0-3.0,,<div style='margin:auto;width: auto; font-size: 150%'><span style='font-weight: bold; font-size: 100px; color: green;'>+10 points!</span><br><br></div>,,delaylearn,learning,feedback_image_window,Y0KbGNxWvyYVvdc8ai6wFQykIEk1,Y0KbGNxWvyYVvdc8ai6wFQykIEk1,,,,,,,,,,,,,,,,,,,,,,5f0ebcdf13efbf091b37c4b4,09:09:36,27/02/2024
html-keyboard-response,68,518721,0.0-30.0,,"<div style=""font-size:100px;"">+</div>",,delaylearn,learning,ITI,Y0KbGNxWvyYVvdc8ai6wFQykIEk1,Y0KbGNxWvyYVvdc8ai6wFQykIEk1,,,,,,,,,,,,,,,,,,,1748.0,,,5f0ebcdf13efbf091b37c4b4,09:09:36,27/02/2024
html-keyboard-response,69,519981,0.0-31.0-0.0,1256.7999999523163,"<div style=""display: flex; flex-direction: column; align-items: center; margin-top: -40px;""><img src=""images/pattern_3.png"" style=""width: 234px; height: 230px; margin-top: -50px;""><div style=""display: flex; justify-content: space-between; margin-top: 33px;""><img src=""images/choice_trial_10.png"" style=""width: 408px; height: 417px; margin-right: 200px;""><img src=""images/choice_trial_13.png"" style=""width: 408px; height: 417px;""></div></div>",j,delaylearn,learning,trial,Y0KbGNxWvyYVvdc8ai6wFQykIEk1,Y0KbGNxWvyYVvdc8ai6wFQykIEk1,3.0,images/choice_trial_10.png,images/choice_trial_13.png,images/pattern_3.png,f,j,7000.0,10.0,13.0,2.0,1.0,13.0,1.0,0.0,13.0,60.0,,,,,,5f0ebcdf13efbf091b37c4b4,09:09:36,27/02/2024
html-keyboard-response,70,520988,0.0-31.0-1.0,,"<div style=""display: flex; flex-direction: column; align-items: center; margin-top: -40px;""><img src=""images/pattern_3.png"" style=""width: 234px; height: 230px; margin-top: -50px;""><div style=""display: flex; justify-content: space-between; margin-top: 33px;""><img src=""images/choice_trial_13.png"" style=""width: 408px; height: 417px; margin-left:608px;""></div></div>",,delaylearn,learning,display_response,Y0KbGNxWvyYVvdc8ai6wFQykIEk1,Y0KbGNxWvyYVvdc8ai6wFQykIEk1,,,,,,,,,,,,,,,,,chosen stimuli: images/choice_trial_13.png,,,,,5f0ebcdf13efbf091b37c4b4,09:09:36,27/02/2024
html-keyboard-response,71,527995,0.0-31.0-2.0,,,,delaylearn,learning,feedback_duration_window,Y0KbGNxWvyYVvdc8ai6wFQykIEk1,Y0KbGNxWvyYVvdc8ai6wFQykIEk1,,,,,,,,,,,,,,,,,,7000.0,,,,5f0ebcdf13efbf091b37c4b4,09:09:36,27/02/2024
html-keyboard-response,72,529503,0.0-31.0-3.0,,<div style='margin:auto;width: auto; font-size: 150%'><span style='font-weight: bold; font-size: 100px; color: red;'>0 points!</span><br><br></div>,,delaylearn,learning,feedback_image_window,Y0KbGNxWvyYVvdc8ai6wFQykIEk1,Y0KbGNxWvyYVvdc8ai6wFQykIEk1,,,,,,,,,,,,,,,,,,,,,,5f0ebcdf13efbf091b37c4b4,09:09:36,27/02/2024
html-keyboard-response,73,531939,0.0-32.0,,"<div style=""font-size:100px;"">+</div>",,delaylearn,learning,ITI,Y0KbGNxWvyYVvdc8ai6wFQykIEk1,Y0KbGNxWvyYVvdc8ai6wFQykIEk1,,,,,,,,,,,,,,,,,,,2429.0,,,5f0ebcdf13efbf091b37c4b4,09:09:36,27/02/2024
html-keyboard-response,74,533298,0.0-33.0-0.0,1355.6000000238419,"<div style=""display: flex; flex-direction: column; align-items: center; margin-top: -40px;""><img src=""images/pattern_5.png"" style=""width: 234px; height: 230px; margin-top: -50px;""><div style=""display: flex; justify-content: space-between; margin-top: 33px;""><img src=""images/choice_trial_11.png"" style=""width: 408px; height: 417px; margin-right: 200px;""><img src=""images/choice_trial_2.png"" style=""width: 408px; height: 417px;""></div></div>",f,delaylearn,learning,trial,Y0KbGNxWvyYVvdc8ai6wFQykIEk1,Y0KbGNxWvyYVvdc8ai6wFQykIEk1,3.0,images/choice_trial_11.png,images/choice_trial_2.png,images/pattern_5.png,f,f,750.0,11.0,2.0,4.0,0.0,14.0,1.0,1.0,11.0,70.0,,,,,,5f0ebcdf13efbf091b37c4b4,09:09:36,27/02/2024
html-keyboard-response,75,534306,0.0-33.0-1.0,,"<div style=""display: flex; flex-direction: column; align-items: center; margin-top: -40px;""><img src=""images/pattern_5.png"" style=""width: 234px; height: 230px; margin-top: -50px;""><div style=""display: flex; justify-content: space-between; margin-top: 33px;""><img src=""images/choice_trial_11.png"" style=""width: 408px; height: 417px; margin-right: 608px;""></div></div>",,delaylearn,learning,display_response,Y0KbGNxWvyYVvdc8ai6wFQykIEk1,Y0KbGNxWvyYVvdc8ai6wFQykIEk1,,,,,,,,,,,,,,,,,chosen stimuli: images/choice_trial_11.png,,,,,5f0ebcdf13efbf091b37c4b4,09:09:36,27/02/2024
html-keyboard-response,76,535063,0.0-33.0-2.0,,,,delaylearn,learning,feedback_duration_window,Y0KbGNxWvyYVvdc8ai6wFQykIEk1,Y0KbGNxWvyYVvdc8ai6wFQykIEk1,,,,,,,,,,,,,,,,,,750.0,,,,5f0ebcdf13efbf091b37c4b4,09:09:36,27/02/2024
html-keyboard-response,77,536570,0.0-33.0-3.0,,<div style='margin:auto;width: auto; font-size: 150%'><span style='font-weight: bold; font-size: 100px; color: green;'>+10 points!</span><br><br></div>,,delaylearn,learning,feedback_image_window,Y0KbGNxWvyYVvdc8ai6wFQykIEk1,Y0KbGNxWvyYVvdc8ai6wFQykIEk1,,,,,,,,,,,,,,,,,,,,,,5f0ebcdf13efbf091b37c4b4,09:09:36,27/02/2024
html-keyboard-response,78,537076,0.0-34.0-0.0,,,,,,mood_trial_fixation,Y0KbGNxWvyYVvdc8ai6wFQykIEk1,,,,,,,,,,,,,,,,,,,,,,,5f0ebcdf13efbf091b37c4b4,09:09:36,27/02/2024
lmdlab-html-vas-response,79,540476,0.0-34.0-1.0,2389.0,How happy are you right now?,0.8407407407407408,delaylearn,learning,mood_trial,Y0KbGNxWvyYVvdc8ai6wFQykIEk1,Y0KbGNxWvyYVvdc8ai6wFQykIEk1,,,,,,,,,,,,,,,,,,,,"['Very unhappy', 'Very happy']",,5f0ebcdf13efbf091b37c4b4,09:09:36,27/02/2024
html-keyboard-response,80,541986,0.0-35.0,,"<div style=""font-size:100px;"">+</div>",,delaylearn,learning,ITI,Y0KbGNxWvyYVvdc8ai6wFQykIEk1,Y0KbGNxWvyYVvdc8ai6wFQykIEk1,,,,,,,,,,,,,,,,,,,1503.0,,,5f0ebcdf13efbf091b37c4b4,09:09:36,27/02/2024
html-keyboard-response,81,543239,0.0-36.0-0.0,1250.3999999761581,"<div style=""display: flex; flex-direction: column; align-items: center; margin-top: -40px;""><img src=""images/pattern_6.png"" style=""width: 234px; height: 230px; margin-top: -50px;""><div style=""display: flex; justify-content: space-between; margin-top: 33px;""><img src=""images/choice_trial_16.png"" style=""width: 408px; height: 417px; margin-right: 200px;""><img src=""images/choice_trial_3.png"" style=""width: 408px; height: 417px;""></div></div>",j,delaylearn,learning,trial,Y0KbGNxWvyYVvdc8ai6wFQykIEk1,Y0KbGNxWvyYVvdc8ai6wFQykIEk1,3.0,images/choice_trial_16.png,images/choice_trial_3.png,images/pattern_6.png,f,f,750.0,16.0,3.0,5.0,0.0,15.0,0.0,0.0,3.0,70.0,,,,,,5f0ebcdf13efbf091b37c4b4,09:09:36,27/02/2024
html-keyboard-response,82,544248,0.0-36.0-1.0,,"<div style=""display: flex; flex-direction: column; align-items: center; margin-top: -40px;""><img src=""images/pattern_6.png"" style=""width: 234px; height: 230px; margin-top: -50px;""><div style=""display: flex; justify-content: space-between; margin-top: 33px;""><img src=""images/choice_trial_3.png"" style=""width: 408px; height: 417px; margin-left:608px;""></div></div>",,delaylearn,learning,display_response,Y0KbGNxWvyYVvdc8ai6wFQykIEk1,Y0KbGNxWvyYVvdc8ai6wFQykIEk1,,,,,,,,,,,,,,,,,chosen stimuli: images/choice_trial_3.png,,,,,5f0ebcdf13efbf091b37c4b4,09:09:36,27/02/2024
html-keyboard-response,83,545005,0.0-36.0-2.0,,,,delaylearn,learning,feedback_duration_window,Y0KbGNxWvyYVvdc8ai6wFQykIEk1,Y0KbGNxWvyYVvdc8ai6wFQykIEk1,,,,,,,,,,,,,,,,,,750.0,,,,5f0ebcdf13efbf091b37c4b4,09:09:36,27/02/2024
html-keyboard-response,84,546513,0.0-36.0-3.0,,<div style='margin:auto;width: auto; font-size: 150%'><span style='font-weight: bold; font-size: 100px; color: red;'>0 points!</span><br><br></div>,,delaylearn,learning,feedback_image_window,Y0KbGNxWvyYVvdc8ai6wFQykIEk1,Y0KbGNxWvyYVvdc8ai6wFQykIEk1,,,,,,,,,,,,,,,,,,,,,,5f0ebcdf13efbf091b37c4b4,09:09:36,27/02/2024
html-keyboard-response,85,548369,0.0-37.0,,"<div style=""font-size:100px;"">+</div>",,delaylearn,learning,ITI,Y0KbGNxWvyYVvdc8ai6wFQykIEk1,Y0KbGNxWvyYVvdc8ai6wFQykIEk1,,,,,,,,,,,,,,,,,,,1850.0,,,5f0ebcdf13efbf091b37c4b4,09:09:36,27/02/2024
html-keyboard-response,86,549299,0.0-38.0-0.0,925.8999999761581,"<div style=""display: flex; flex-direction: column; align-items: center; margin-top: -40px;""><img src=""images/pattern_4.png"" style=""width: 234px; height: 230px; margin-top: -50px;""><div style=""display: flex; justify-content: space-between; margin-top: 33px;""><img src=""images/choice_trial_9.png"" style=""width: 408px; height: 417px; margin-right: 200px;""><img src=""images/choice_trial_15.png"" style=""width: 408px; height: 417px;""></div></div>",j,delaylearn,learning,trial,Y0KbGNxWvyYVvdc8ai6wFQykIEk1,Y0KbGNxWvyYVvdc8ai6wFQykIEk1,3.0,images/choice_trial_9.png,images/choice_trial_15.png,images/pattern_4.png,j,j,7000.0,9.0,15.0,3.0,1.0,16.0,1.0,1.0,15.0,80.0,,,,,,5f0ebcdf13efbf091b37c4b4,09:09:36,27/02/2024
html-keyboard-response,87,550307,0.0-38.0-1.0,,"<div style=""display: flex; flex-direction: column; align-items: center; margin-top: -40px;""><img src=""images/pattern_4.png"" style=""width: 234px; height: 230px; margin-top: -50px;""><div style=""display: flex; justify-content: space-between; margin-top: 33px;""><img src=""images/choice_trial_15.png"" style=""width: 408px; height: 417px; margin-left:608px;""></div></div>",,delaylearn,learning,display_response,Y0KbGNxWvyYVvdc8ai6wFQykIEk1,Y0KbGNxWvyYVvdc8ai6wFQykIEk1,,,,,,,,,,,,,,,,,chosen stimuli: images/choice_trial_15.png,,,,,5f0ebcdf13efbf091b37c4b4,09:09:36,27/02/2024
html-keyboard-response,88,557314,0.0-38.0-2.0,,,,delaylearn,learning,feedback_duration_window,Y0KbGNxWvyYVvdc8ai6wFQykIEk1,Y0KbGNxWvyYVvdc8ai6wFQykIEk1,,,,,,,,,,,,,,,,,,7000.0,,,,5f0ebcdf13efbf091b37c4b4,09:09:36,27/02/2024
html-keyboard-response,89,558818,0.0-38.0-3.0,,<div style='margin:auto;width: auto; font-size: 150%'><span style='font-weight: bold; font-size: 100px; color: green;'>+10 points!</span><br><br></div>,,delaylearn,learning,feedback_image_window,Y0KbGNxWvyYVvdc8ai6wFQykIEk1,Y0KbGNxWvyYVvdc8ai6wFQykIEk1,,,,,,,,,,,,,,,,,,,,,,5f0ebcdf13efbf091b37c4b4,09:09:36,27/02/2024
html-keyboard-response,90,560984,0.0-39.0,,"<div style=""font-size:100px;"">+</div>",,delaylearn,learning,ITI,Y0KbGNxWvyYVvdc8ai6wFQykIEk1,Y0KbGNxWvyYVvdc8ai6wFQykIEk1,,,,,,,,,,,,,,,,,,,2160.0,,,5f0ebcdf13efbf091b37c4b4,09:09:36,27/02/2024
html-keyboard-response,91,562629,0.0-40.0-0.0,1641.8000000715256,"<div style=""display: flex; flex-direction: column; align-items: center; margin-top: -40px;""><img src=""images/pattern_7.png"" style=""width: 234px; height: 230px; margin-top: -50px;""><div style=""display: flex; justify-content: space-between; margin-top: 33px;""><img src=""images/choice_trial_6.png"" style=""width: 408px; height: 417px; margin-right: 200px;""><img src=""images/choice_trial_12.png"" style=""width: 408px; height: 417px;""></div></div>",f,delaylearn,learning,trial,Y0KbGNxWvyYVvdc8ai6wFQykIEk1,Y0KbGNxWvyYVvdc8ai6wFQykIEk1,3.0,images/choice_trial_6.png,images/choice_trial_12.png,images/pattern_7.png,j,f,750.0,6.0,12.0,6.0,0.0,17.0,1.0,0.0,6.0,80.0,,,,,,5f0ebcdf13efbf091b37c4b4,09:09:36,27/02/2024
html-keyboard-response,92,563634,0.0-40.0-1.0,,"<div style=""display: flex; flex-direction: column; align-items: center; margin-top: -40px;""><img src=""images/pattern_7.png"" style=""width: 234px; height: 230px; margin-top: -50px;""><div style=""display: flex; justify-content: space-between; margin-top: 33px;""><img src=""images/choice_trial_6.png"" style=""width: 408px; height: 417px; margin-right: 608px;""></div></div>",,delaylearn,learning,display_response,Y0KbGNxWvyYVvdc8ai6wFQykIEk1,Y0KbGNxWvyYVvdc8ai6wFQykIEk1,,,,,,,,,,,,,,,,,chosen stimuli: images/choice_trial_6.png,,,,,5f0ebcdf13efbf091b37c4b4,09:09:36,27/02/2024
html-keyboard-response,93,564391,0.0-40.0-2.0,,,,delaylearn,learning,feedback_duration_window,Y0KbGNxWvyYVvdc8ai6wFQykIEk1,Y0KbGNxWvyYVvdc8ai6wFQykIEk1,,,,,,,,,,,,,,,,,,750.0,,,,5f0ebcdf13efbf091b37c4b4,09:09:36,27/02/2024
html-keyboard-response,94,565899,0.0-40.0-3.0,,<div style='margin:auto;width: auto; font-size: 150%'><span style='font-weight: bold; font-size: 100px; color: red;'>0 points!</span><br><br></div>,,delaylearn,learning,feedback_image_window,Y0KbGNxWvyYVvdc8ai6wFQykIEk1,Y0KbGNxWvyYVvdc8ai6wFQykIEk1,,,,,,,,,,,,,,,,,,,,,,5f0ebcdf13efbf091b37c4b4,09:09:36,27/02/2024
html-keyboard-response,95,567946,0.0-41.0,,"<div style=""font-size:100px;"">+</div>",,delaylearn,learning,ITI,Y0KbGNxWvyYVvdc8ai6wFQykIEk1,Y0KbGNxWvyYVvdc8ai6wFQykIEk1,,,,,,,,,,,,,,,,,,,2040.0,,,5f0ebcdf13efbf091b37c4b4,09:09:36,27/02/2024
html-keyboard-response,96,569072,0.0-42.0-0.0,1122.6000000238419,"<div style=""display: flex; flex-direction: column; align-items: center; margin-top: -40px;""><img src=""images/pattern_1.png"" style=""width: 234px; height: 230px; margin-top: -50px;""><div style=""display: flex; justify-content: space-between; margin-top: 33px;""><img src=""images/choice_trial_14.png"" style=""width: 408px; height: 417px; margin-right: 200px;""><img src=""images/choice_trial_8.png"" style=""width: 408px; height: 417px;""></div></div>",j,delaylearn,learning,trial,Y0KbGNxWvyYVvdc8ai6wFQykIEk1,Y0KbGNxWvyYVvdc8ai6wFQykIEk1,3.0,images/choice_trial_14.png,images/choice_trial_8.png,images/pattern_1.png,f,f,7000.0,14.0,8.0,1.0,0.0,18.0,0.0,0.0,8.0,80.0,,,,,,5f0ebcdf13efbf091b37c4b4,09:09:36,27/02/2024
html-keyboard-response,97,570076,0.0-42.0-1.0,,"<div style=""display: flex; flex-direction: column; align-items: center; margin-top: -40px;""><img src=""images/pattern_1.png"" style=""width: 234px; height: 230px; margin-top: -50px;""><div style=""display: flex; justify-content: space-between; margin-top: 33px;""><img src=""images/choice_trial_8.png"" style=""width: 408px; height: 417px; margin-left:608px;""></div></div>",,delaylearn,learning,display_response,Y0KbGNxWvyYVvdc8ai6wFQykIEk1,Y0KbGNxWvyYVvdc8ai6wFQykIEk1,,,,,,,,,,,,,,,,,chosen stimuli: images/choice_trial_8.png,,,,,5f0ebcdf13efbf091b37c4b4,09:09:36,27/02/2024
html-keyboard-response,98,577083,0.0-42.0-2.0,,,,delaylearn,learning,feedback_duration_window,Y0KbGNxWvyYVvdc8ai6wFQykIEk1,Y0KbGNxWvyYVvdc8ai6wFQykIEk1,,,,,,,,,,,,,,,,,,7000.0,,,,5f0ebcdf13efbf091b37c4b4,09:09:36,27/02/2024
html-keyboard-response,99,578590,0.0-42.0-3.0,,<div style='margin:auto;width: auto; font-size: 150%'><span style='font-weight: bold; font-size: 100px; color: red;'>0 points!</span><br><br></div>,,delaylearn,learning,feedback_image_window,Y0KbGNxWvyYVvdc8ai6wFQykIEk1,Y0KbGNxWvyYVvdc8ai6wFQykIEk1,,,,,,,,,,,,,,,,,,,,,,5f0ebcdf13efbf091b37c4b4,09:09:36,27/02/2024
html-keyboard-response,100,580394,0.0-43.0,,"<div style=""font-size:100px;"">+</div>",,delaylearn,learning,ITI,Y0KbGNxWvyYVvdc8ai6wFQykIEk1,Y0KbGNxWvyYVvdc8ai6wFQykIEk1,,,,,,,,,,,,,,,,,,,1796.0,,,5f0ebcdf13efbf091b37c4b4,09:09:36,27/02/2024
html-keyboard-response,101,581697,0.0-44.0-0.0,1300.2000000476837,"<div style=""display: flex; flex-direction: column; align-items: center; margin-top: -40px;""><img src=""images/pattern_6.png"" style=""width: 234px; height: 230px; margin-top: -50px;""><div style=""display: flex; justify-content: space-between; margin-top: 33px;""><img src=""images/choice_trial_3.png"" style=""width: 408px; height: 417px; margin-right: 200px;""><img src=""images/choice_trial_16.png"" style=""width: 408px; height: 417px;""></div></div>",j,delaylearn,learning,trial,Y0KbGNxWvyYVvdc8ai6wFQykIEk1,Y0KbGNxWvyYVvdc8ai6wFQykIEk1,3.0,images/choice_trial_3.png,images/choice_trial_16.png,images/pattern_6.png,j,j,750.0,3.0,16.0,5.0,1.0,19.0,1.0,1.0,16.0,90.0,,,,,,5f0ebcdf13efbf091b37c4b4,09:09:36,27/02/2024
html-keyboard-response,102,582705,0.0-44.0-1.0,,"<div style=""display: flex; flex-direction: column; align-items: center; margin-top: -40px;""><img src=""images/pattern_6.png"" style=""width: 234px; height: 230px; margin-top: -50px;""><div style=""display: flex; justify-content: space-between; margin-top: 33px;""><img src=""images/choice_trial_16.png"" style=""width: 408px; height: 417px; margin-left:608px;""></div></div>",,delaylearn,learning,display_response,Y0KbGNxWvyYVvdc8ai6wFQykIEk1,Y0KbGNxWvyYVvdc8ai6wFQykIEk1,,,,,,,,,,,,,,,,,chosen stimuli: images/choice_trial_16.png,,,,,5f0ebcdf13efbf091b37c4b4,09:09:36,27/02/2024
html-keyboard-response,103,583462,0.0-44.0-2.0,,,,delaylearn,learning,feedback_duration_window,Y0KbGNxWvyYVvdc8ai6wFQykIEk1,Y0KbGNxWvyYVvdc8ai6wFQykIEk1,,,,,,,,,,,,,,,,,,750.0,,,,5f0ebcdf13efbf091b37c4b4,09:09:36,27/02/2024
html-keyboard-response,104,584970,0.0-44.0-3.0,,<div style='margin:auto;width: auto; font-size: 150%'><span style='font-weight: bold; font-size: 100px; color: green;'>+10 points!</span><br><br></div>,,delaylearn,learning,feedback_image_window,Y0KbGNxWvyYVvdc8ai6wFQykIEk1,Y0KbGNxWvyYVvdc8ai6wFQykIEk1,,,,,,,,,,,,,,,,,,,,,,5f0ebcdf13efbf091b37c4b4,09:09:36,27/02/2024
html-keyboard-response,105,587401,0.0-45.0,,"<div style=""font-size:100px;"">+</div>",,delaylearn,learning,ITI,Y0KbGNxWvyYVvdc8ai6wFQykIEk1,Y0KbGNxWvyYVvdc8ai6wFQykIEk1,,,,,,,,,,,,,,,,,,,2425.0,,,5f0ebcdf13efbf091b37c4b4,09:09:36,27/02/2024
html-keyboard-response,106,588511,0.0-46.0-0.0,1105.7999999523163,"<div style=""display: flex; flex-direction: column; align-items: center; margin-top: -40px;""><img src=""images/pattern_4.png"" style=""width: 234px; height: 230px; margin-top: -50px;""><div style=""display: flex; justify-content: space-between; margin-top: 33px;""><img src=""images/choice_trial_15.png"" style=""width: 408px; height: 417px; margin-right: 200px;""><img src=""images/choice_trial_9.png"" style=""width: 408px; height: 417px;""></div></div>",f,delaylearn,learning,trial,Y0KbGNxWvyYVvdc8ai6wFQykIEk1,Y0KbGNxWvyYVvdc8ai6wFQykIEk1,3.0,images/choice_trial_15.png,images/choice_trial_9.png,images/pattern_4.png,f,f,7000.0,15.0,9.0,3.0,0.0,20.0,1.0,1.0,15.0,100.0,,,,,,5f0ebcdf13efbf091b37c4b4,09:09:36,27/02/2024
html-keyboard-response,107,589519,0.0-46.0-1.0,,"<div style=""display: flex; flex-direction: column; align-items: center; margin-top: -40px;""><img src=""images/pattern_4.png"" style=""width: 234px; height: 230px; margin-top: -50px;""><div style=""display: flex; justify-content: space-between; margin-top: 33px;""><img src=""images/choice_trial_15.png"" style=""width: 408px; height: 417px; margin-right: 608px;""></div></div>",,delaylearn,learning,display_response,Y0KbGNxWvyYVvdc8ai6wFQykIEk1,Y0KbGNxWvyYVvdc8ai6wFQykIEk1,,,,,,,,,,,,,,,,,chosen stimuli: images/choice_trial_15.png,,,,,5f0ebcdf13efbf091b37c4b4,09:09:36,27/02/2024
html-keyboard-response,108,596526,0.0-46.0-2.0,,,,delaylearn,learning,feedback_duration_window,Y0KbGNxWvyYVvdc8ai6wFQykIEk1,Y0KbGNxWvyYVvdc8ai6wFQykIEk1,,,,,,,,,,,,,,,,,,7000.0,,,,5f0ebcdf13efbf091b37c4b4,09:09:36,27/02/2024
html-keyboard-response,109,598034,0.0-46.0-3.0,,<div style='margin:auto;width: auto; font-size: 150%'><span style='font-weight: bold; font-size: 100px; color: green;'>+10 points!</span><br><br></div>,,delaylearn,learning,feedback_image_window,Y0KbGNxWvyYVvdc8ai6wFQykIEk1,Y0KbGNxWvyYVvdc8ai6wFQykIEk1,,,,,,,,,,,,,,,,,,,,,,5f0ebcdf13efbf091b37c4b4,09:09:36,27/02/2024
html-keyboard-response,110,598538,0.0-47.0-0.0,,,,,,mood_trial_fixation,Y0KbGNxWvyYVvdc8ai6wFQykIEk1,,,,,,,,,,,,,,,,,,,,,,,5f0ebcdf13efbf091b37c4b4,09:09:36,27/02/2024
lmdlab-html-vas-response,111,601953,0.0-47.0-1.0,2402.0,How happy are you right now?,0.837037037037037,delaylearn,learning,mood_trial,Y0KbGNxWvyYVvdc8ai6wFQykIEk1,Y0KbGNxWvyYVvdc8ai6wFQykIEk1,,,,,,,,,,,,,,,,,,,,"['Very unhappy', 'Very happy']",,5f0ebcdf13efbf091b37c4b4,09:09:36,27/02/2024
html-keyboard-response,112,603539,0.0-48.0,,"<div style=""font-size:100px;"">+</div>",,delaylearn,learning,ITI,Y0KbGNxWvyYVvdc8ai6wFQykIEk1,Y0KbGNxWvyYVvdc8ai6wFQykIEk1,,,,,,,,,,,,,,,,,,,1579.0,,,5f0ebcdf13efbf091b37c4b4,09:09:36,27/02/2024
html-keyboard-response,113,604390,0.0-49.0-0.0,846.5,"<div style=""display: flex; flex-direction: column; align-items: center; margin-top: -40px;""><img src=""images/pattern_7.png"" style=""width: 234px; height: 230px; margin-top: -50px;""><div style=""display: flex; justify-content: space-between; margin-top: 33px;""><img src=""images/choice_trial_12.png"" style=""width: 408px; height: 417px; margin-right: 200px;""><img src=""images/choice_trial_6.png"" style=""width: 408px; height: 417px;""></div></div>",j,delaylearn,learning,trial,Y0KbGNxWvyYVvdc8ai6wFQykIEk1,Y0KbGNxWvyYVvdc8ai6wFQykIEk1,3.0,images/choice_trial_12.png,images/choice_trial_6.png,images/pattern_7.png,j,j,750.0,12.0,6.0,6.0,1.0,21.0,1.0,1.0,6.0,110.0,,,,,,5f0ebcdf13efbf091b37c4b4,09:09:36,27/02/2024
html-keyboard-response,114,605398,0.0-49.0-1.0,,"<div style=""display: flex; flex-direction: column; align-items: center; margin-top: -40px;""><img src=""images/pattern_7.png"" style=""width: 234px; height: 230px; margin-top: -50px;""><div style=""display: flex; justify-content: space-between; margin-top: 33px;""><img src=""images/choice_trial_6.png"" style=""width: 408px; height: 417px; margin-left:608px;""></div></div>",,delaylearn,learning,display_response,Y0KbGNxWvyYVvdc8ai6wFQykIEk1,Y0KbGNxWvyYVvdc8ai6wFQykIEk1,,,,,,,,,,,,,,,,,chosen stimuli: images/choice_trial_6.png,,,,,5f0ebcdf13efbf091b37c4b4,09:09:36,27/02/2024
html-keyboard-response,115,606155,0.0-49.0-2.0,,,,delaylearn,learning,feedback_duration_window,Y0KbGNxWvyYVvdc8ai6wFQykIEk1,Y0KbGNxWvyYVvdc8ai6wFQykIEk1,,,,,,,,,,,,,,,,,,750.0,,,,5f0ebcdf13efbf091b37c4b4,09:09:36,27/02/2024
html-keyboard-response,116,607660,0.0-49.0-3.0,,<div style='margin:auto;width: auto; font-size: 150%'><span style='font-weight: bold; font-size: 100px; color: green;'>+10 points!</span><br><br></div>,,delaylearn,learning,feedback_image_window,Y0KbGNxWvyYVvdc8ai6wFQykIEk1,Y0KbGNxWvyYVvdc8ai6wFQykIEk1,,,,,,,,,,,,,,,,,,,,,,5f0ebcdf13efbf091b37c4b4,09:09:36,27/02/2024
html-keyboard-response,117,609995,0.0-50.0,,"<div style=""font-size:100px;"">+</div>",,delaylearn,learning,ITI,Y0KbGNxWvyYVvdc8ai6wFQykIEk1,Y0KbGNxWvyYVvdc8ai6wFQykIEk1,,,,,,,,,,,,,,,,,,,2327.0,,,5f0ebcdf13efbf091b37c4b4,09:09:36,27/02/2024
html-keyboard-response,118,611172,0.0-51.0-0.0,1174.1000000238419,"<div style=""display: flex; flex-direction: column; align-items: center; margin-top: -40px;""><img src=""images/pattern_1.png"" style=""width: 234px; height: 230px; margin-top: -50px;""><div style=""display: flex; justify-content: space-between; margin-top: 33px;""><img src=""images/choice_trial_8.png"" style=""width: 408px; height: 417px; margin-right: 200px;""><img src=""images/choice_trial_14.png"" style=""width: 408px; height: 417px;""></div></div>",f,delaylearn,learning,trial,Y0KbGNxWvyYVvdc8ai6wFQykIEk1,Y0KbGNxWvyYVvdc8ai6wFQykIEk1,3.0,images/choice_trial_8.png,images/choice_trial_14.png,images/pattern_1.png,f,j,7000.0,8.0,14.0,1.0,1.0,22.0,0.0,1.0,8.0,120.0,,,,,,5f0ebcdf13efbf091b37c4b4,09:09:36,27/02/2024
html-keyboard-response,119,612180,0.0-51.0-1.0,,"<div style=""display: flex; flex-direction: column; align-items: center; margin-top: -40px;""><img src=""images/pattern_1.png"" style=""width: 234px; height: 230px; margin-top: -50px;""><div style=""display: flex; justify-content: space-between; margin-top: 33px;""><img src=""images/choice_trial_8.png"" style=""width: 408px; height: 417px; margin-right: 608px;""></div></div>",,delaylearn,learning,display_response,Y0KbGNxWvyYVvdc8ai6wFQykIEk1,Y0KbGNxWvyYVvdc8ai6wFQykIEk1,,,,,,,,,,,,,,,,,chosen stimuli: images/choice_trial_8.png,,,,,5f0ebcdf13efbf091b37c4b4,09:09:36,27/02/2024
html-keyboard-response,120,619188,0.0-51.0-2.0,,,,delaylearn,learning,feedback_duration_window,Y0KbGNxWvyYVvdc8ai6wFQykIEk1,Y0KbGNxWvyYVvdc8ai6wFQykIEk1,,,,,,,,,,,,,,,,,,7000.0,,,,5f0ebcdf13efbf091b37c4b4,09:09:36,27/02/2024
html-keyboard-response,121,620696,0.0-51.0-3.0,,<div style='margin:auto;width: auto; font-size: 150%'><span style='font-weight: bold; font-size: 100px; color: green;'>+10 points!</span><br><br></div>,,delaylearn,learning,feedback_image_window,Y0KbGNxWvyYVvdc8ai6wFQykIEk1,Y0KbGNxWvyYVvdc8ai6wFQykIEk1,,,,,,,,,,,,,,,,,,,,,,5f0ebcdf13efbf091b37c4b4,09:09:36,27/02/2024
html-keyboard-response,122,622684,0.0-52.0,,"<div style=""font-size:100px;"">+</div>",,delaylearn,learning,ITI,Y0KbGNxWvyYVvdc8ai6wFQykIEk1,Y0KbGNxWvyYVvdc8ai6wFQykIEk1,,,,,,,,,,,,,,,,,,,1981.0,,,5f0ebcdf13efbf091b37c4b4,09:09:36,27/02/2024
html-keyboard-response,123,623393,0.0-53.0-0.0,704.7999999523163,"<div style=""display: flex; flex-direction: column; align-items: center; margin-top: -40px;""><img src=""images/pattern_5.png"" style=""width: 234px; height: 230px; margin-top: -50px;""><div style=""display: flex; justify-content: space-between; margin-top: 33px;""><img src=""images/choice_trial_2.png"" style=""width: 408px; height: 417px; margin-right: 200px;""><img src=""images/choice_trial_11.png"" style=""width: 408px; height: 417px;""></div></div>",j,delaylearn,learning,trial,Y0KbGNxWvyYVvdc8ai6wFQykIEk1,Y0KbGNxWvyYVvdc8ai6wFQykIEk1,3.0,images/choice_trial_2.png,images/choice_trial_11.png,images/pattern_5.png,j,j,750.0,2.0,11.0,4.0,1.0,23.0,1.0,1.0,11.0,130.0,,,,,,5f0ebcdf13efbf091b37c4b4,09:09:36,27/02/2024
html-keyboard-response,124,624401,0.0-53.0-1.0,,"<div style=""display: flex; flex-direction: column; align-items: center; margin-top: -40px;""><img src=""images/pattern_5.png"" style=""width: 234px; height: 230px; margin-top: -50px;""><div style=""display: flex; justify-content: space-between; margin-top: 33px;""><img src=""images/choice_trial_11.png"" style=""width: 408px; height: 417px; margin-left:608px;""></div></div>",,delaylearn,learning,display_response,Y0KbGNxWvyYVvdc8ai6wFQykIEk1,Y0KbGNxWvyYVvdc8ai6wFQykIEk1,,,,,,,,,,,,,,,,,chosen stimuli: images/choice_trial_11.png,,,,,5f0ebcdf13efbf091b37c4b4,09:09:36,27/02/2024
html-keyboard-response,125,625158,0.0-53.0-2.0,,,,delaylearn,learning,feedback_duration_window,Y0KbGNxWvyYVvdc8ai6wFQykIEk1,Y0KbGNxWvyYVvdc8ai6wFQykIEk1,,,,,,,,,,,,,,,,,,750.0,,,,5f0ebcdf13efbf091b37c4b4,09:09:36,27/02/2024
html-keyboard-response,126,626665,0.0-53.0-3.0,,<div style='margin:auto;width: auto; font-size: 150%'><span style='font-weight: bold; font-size: 100px; color: green;'>+10 points!</span><br><br></div>,,delaylearn,learning,feedback_image_window,Y0KbGNxWvyYVvdc8ai6wFQykIEk1,Y0KbGNxWvyYVvdc8ai6wFQykIEk1,,,,,,,,,,,,,,,,,,,,,,5f0ebcdf13efbf091b37c4b4,09:09:36,27/02/2024
html-keyboard-response,127,628390,0.0-54.0,,"<div style=""font-size:100px;"">+</div>",,delaylearn,learning,ITI,Y0KbGNxWvyYVvdc8ai6wFQykIEk1,Y0KbGNxWvyYVvdc8ai6wFQykIEk1,,,,,,,,,,,,,,,,,,,1718.0,,,5f0ebcdf13efbf091b37c4b4,09:09:36,27/02/2024
html-keyboard-response,128,630046,0.0-55.0-0.0,1652.8999999761581,"<div style=""display: flex; flex-direction: column; align-items: center; margin-top: -40px;""><img src=""images/pattern_3.png"" style=""width: 234px; height: 230px; margin-top: -50px;""><div style=""display: flex; justify-content: space-between; margin-top: 33px;""><img src=""images/choice_trial_10.png"" style=""width: 408px; height: 417px; margin-right: 200px;""><img src=""images/choice_trial_13.png"" style=""width: 408px; height: 417px;""></div></div>",j,delaylearn,learning,trial,Y0KbGNxWvyYVvdc8ai6wFQykIEk1,Y0KbGNxWvyYVvdc8ai6wFQykIEk1,3.0,images/choice_trial_10.png,images/choice_trial_13.png,images/pattern_3.png,j,j,7000.0,10.0,13.0,2.0,1.0,24.0,1.0,1.0,13.0,140.0,,,,,,5f0ebcdf13efbf091b37c4b4,09:09:36,27/02/2024
html-keyboard-response,129,631051,0.0-55.0-1.0,,"<div style=""display: flex; flex-direction: column; align-items: center; margin-top: -40px;""><img src=""images/pattern_3.png"" style=""width: 234px; height: 230px; margin-top: -50px;""><div style=""display: flex; justify-content: space-between; margin-top: 33px;""><img src=""images/choice_trial_13.png"" style=""width: 408px; height: 417px; margin-left:608px;""></div></div>",,delaylearn,learning,display_response,Y0KbGNxWvyYVvdc8ai6wFQykIEk1,Y0KbGNxWvyYVvdc8ai6wFQykIEk1,,,,,,,,,,,,,,,,,chosen stimuli: images/choice_trial_13.png,,,,,5f0ebcdf13efbf091b37c4b4,09:09:36,27/02/2024
html-keyboard-response,130,638059,0.0-55.0-2.0,,,,delaylearn,learning,feedback_duration_window,Y0KbGNxWvyYVvdc8ai6wFQykIEk1,Y0KbGNxWvyYVvdc8ai6wFQykIEk1,,,,,,,,,,,,,,,,,,7000.0,,,,5f0ebcdf13efbf091b37c4b4,09:09:36,27/02/2024
html-keyboard-response,131,639567,0.0-55.0-3.0,,<div style='margin:auto;width: auto; font-size: 150%'><span style='font-weight: bold; font-size: 100px; color: green;'>+10 points!</span><br><br></div>,,delaylearn,learning,feedback_image_window,Y0KbGNxWvyYVvdc8ai6wFQykIEk1,Y0KbGNxWvyYVvdc8ai6wFQykIEk1,,,,,,,,,,,,,,,,,,,,,,5f0ebcdf13efbf091b37c4b4,09:09:36,27/02/2024
lmdlab-html-vas-response,132,643940,0.0-56.0-0.0,2860.0,*How <b><u>confident</u></b> are you feeling about your answers at this moment?*,0.8666666666666667,rewlearn,rate_confidence,,Y0KbGNxWvyYVvdc8ai6wFQykIEk1,Y0KbGNxWvyYVvdc8ai6wFQykIEk1,,,,,,,,,,,,,,,,,,,,"['No confidence', 'Complete confidence']",,5f0ebcdf13efbf091b37c4b4,09:09:36,27/02/2024
lmdlab-rest-trial-limit,133,654062,0.0-56.0-1.0,8611.5,"<div style=""font-size:40px;""><b>Please take a break!</b><br><br><br><br><p>Great work: you earned undefined points.<br><br><br><p>You have completed part(s) 1 of 6.<br><br><br><br>When you are ready to continue<br><br><br>please click the button.</p><br><br>",0,delaylearn,learning,break,Y0KbGNxWvyYVvdc8ai6wFQykIEk1,Y0KbGNxWvyYVvdc8ai6wFQykIEk1,,,,,,,,,,,,,,,,,,,,,0.0,5f0ebcdf13efbf091b37c4b4,09:09:36,27/02/2024
html-keyboard-response,134,657066,0.0-56.0-2.0,,"<div style=""font-size:100px;"">+</div>",,delaylearn,learning,pre_fixation,Y0KbGNxWvyYVvdc8ai6wFQykIEk1,,,,,,,,,,,,,,,,,,,,,,,5f0ebcdf13efbf091b37c4b4,09:09:36,27/02/2024
lmdlab-html-vas-response,135,660401,0.0-56.0-3.0-0.0,2326.0,How happy are you right now?,0.8351851851851851,delaylearn,learning,mood_baseline,Y0KbGNxWvyYVvdc8ai6wFQykIEk1,Y0KbGNxWvyYVvdc8ai6wFQykIEk1,,,,,,,,,,,,,,,,,,,,"['Very unhappy', 'Very happy']",,5f0ebcdf13efbf091b37c4b4,09:09:36,27/02/2024
html-keyboard-response,136,661908,0.0-56.0-3.0-1.0,,,,,,mood_baseline_fixation,Y0KbGNxWvyYVvdc8ai6wFQykIEk1,,,,,,,,,,,,,,,,,,,,,,,5f0ebcdf13efbf091b37c4b4,09:09:36,27/02/2024
html-keyboard-response,137,664097,0.0-57.0,,"<div style=""font-size:100px;"">+</div>",,delaylearn,learning,ITI,Y0KbGNxWvyYVvdc8ai6wFQykIEk1,Y0KbGNxWvyYVvdc8ai6wFQykIEk1,,,,,,,,,,,,,,,,,,,2185.0,,,5f0ebcdf13efbf091b37c4b4,09:09:36,27/02/2024
html-keyboard-response,138,664963,0.0-58.0-0.0,864.2999999523163,"<div style=""display: flex; flex-direction: column; align-items: center; margin-top: -40px;""><img src=""images/pattern_7.png"" style=""width: 234px; height: 230px; margin-top: -50px;""><div style=""display: flex; justify-content: space-between; margin-top: 33px;""><img src=""images/choice_trial_12.png"" style=""width: 408px; height: 417px; margin-right: 200px;""><img src=""images/choice_trial_6.png"" style=""width: 408px; height: 417px;""></div></div>",j,delaylearn,learning,trial,Y0KbGNxWvyYVvdc8ai6wFQykIEk1,Y0KbGNxWvyYVvdc8ai6wFQykIEk1,3.0,images/choice_trial_12.png,images/choice_trial_6.png,images/pattern_7.png,j,j,750.0,12.0,6.0,6.0,1.0,25.0,1.0,1.0,6.0,150.0,,,,,,5f0ebcdf13efbf091b37c4b4,09:09:36,27/02/2024
html-keyboard-response,139,665971,0.0-58.0-1.0,,"<div style=""display: flex; flex-direction: column; align-items: center; margin-top: -40px;""><img src=""images/pattern_7.png"" style=""width: 234px; height: 230px; margin-top: -50px;""><div style=""display: flex; justify-content: space-between; margin-top: 33px;""><img src=""images/choice_trial_6.png"" style=""width: 408px; height: 417px; margin-left:608px;""></div></div>",,delaylearn,learning,display_response,Y0KbGNxWvyYVvdc8ai6wFQykIEk1,Y0KbGNxWvyYVvdc8ai6wFQykIEk1,,,,,,,,,,,,,,,,,chosen stimuli: images/choice_trial_6.png,,,,,5f0ebcdf13efbf091b37c4b4,09:09:36,27/02/2024
html-keyboard-response,140,666726,0.0-58.0-2.0,,,,delaylearn,learning,feedback_duration_window,Y0KbGNxWvyYVvdc8ai6wFQykIEk1,Y0KbGNxWvyYVvdc8ai6wFQykIEk1,,,,,,,,,,,,,,,,,,750.0,,,,5f0ebcdf13efbf091b37c4b4,09:09:36,27/02/2024
html-keyboard-response,141,668234,0.0-58.0-3.0,,<div style='margin:auto;width: auto; font-size: 150%'><span style='font-weight: bold; font-size: 100px; color: green;'>+10 points!</span><br><br></div>,,delaylearn,learning,feedback_image_window,Y0KbGNxWvyYVvdc8ai6wFQykIEk1,Y0KbGNxWvyYVvdc8ai6wFQykIEk1,,,,,,,,,,,,,,,,,,,,,,5f0ebcdf13efbf091b37c4b4,09:09:36,27/02/2024
html-keyboard-response,142,668737,0.0-59.0-0.0,,,,,,mood_trial_fixation,Y0KbGNxWvyYVvdc8ai6wFQykIEk1,,,,,,,,,,,,,,,,,,,,,,,5f0ebcdf13efbf091b37c4b4,09:09:36,27/02/2024
lmdlab-html-vas-response,143,672230,0.0-59.0-1.0,2485.0,How happy are you right now?,0.9037037037037037,delaylearn,learning,mood_trial,Y0KbGNxWvyYVvdc8ai6wFQykIEk1,Y0KbGNxWvyYVvdc8ai6wFQykIEk1,,,,,,,,,,,,,,,,,,,,"['Very unhappy', 'Very happy']",,5f0ebcdf13efbf091b37c4b4,09:09:36,27/02/2024
html-keyboard-response,144,673769,0.0-60.0,,"<div style=""font-size:100px;"">+</div>",,delaylearn,learning,ITI,Y0KbGNxWvyYVvdc8ai6wFQykIEk1,Y0KbGNxWvyYVvdc8ai6wFQykIEk1,,,,,,,,,,,,,,,,,,,1535.0,,,5f0ebcdf13efbf091b37c4b4,09:09:36,27/02/2024
html-keyboard-response,145,674646,0.0-61.0-0.0,873.7000000476837,"<div style=""display: flex; flex-direction: column; align-items: center; margin-top: -40px;""><img src=""images/pattern_1.png"" style=""width: 234px; height: 230px; margin-top: -50px;""><div style=""display: flex; justify-content: space-between; margin-top: 33px;""><img src=""images/choice_trial_14.png"" style=""width: 408px; height: 417px; margin-right: 200px;""><img src=""images/choice_trial_8.png"" style=""width: 408px; height: 417px;""></div></div>",j,delaylearn,learning,trial,Y0KbGNxWvyYVvdc8ai6wFQykIEk1,Y0KbGNxWvyYVvdc8ai6wFQykIEk1,3.0,images/choice_trial_14.png,images/choice_trial_8.png,images/pattern_1.png,f,f,7000.0,14.0,8.0,1.0,0.0,26.0,0.0,0.0,8.0,150.0,,,,,,5f0ebcdf13efbf091b37c4b4,09:09:36,27/02/2024
html-keyboard-response,146,675655,0.0-61.0-1.0,,"<div style=""display: flex; flex-direction: column; align-items: center; margin-top: -40px;""><img src=""images/pattern_1.png"" style=""width: 234px; height: 230px; margin-top: -50px;""><div style=""display: flex; justify-content: space-between; margin-top: 33px;""><img src=""images/choice_trial_8.png"" style=""width: 408px; height: 417px; margin-left:608px;""></div></div>",,delaylearn,learning,display_response,Y0KbGNxWvyYVvdc8ai6wFQykIEk1,Y0KbGNxWvyYVvdc8ai6wFQykIEk1,,,,,,,,,,,,,,,,,chosen stimuli: images/choice_trial_8.png,,,,,5f0ebcdf13efbf091b37c4b4,09:09:36,27/02/2024
html-keyboard-response,147,682662,0.0-61.0-2.0,,,,delaylearn,learning,feedback_duration_window,Y0KbGNxWvyYVvdc8ai6wFQykIEk1,Y0KbGNxWvyYVvdc8ai6wFQykIEk1,,,,,,,,,,,,,,,,,,7000.0,,,,5f0ebcdf13efbf091b37c4b4,09:09:36,27/02/2024
html-keyboard-response,148,684169,0.0-61.0-3.0,,<div style='margin:auto;width: auto; font-size: 150%'><span style='font-weight: bold; font-size: 100px; color: red;'>0 points!</span><br><br></div>,,delaylearn,learning,feedback_image_window,Y0KbGNxWvyYVvdc8ai6wFQykIEk1,Y0KbGNxWvyYVvdc8ai6wFQykIEk1,,,,,,,,,,,,,,,,,,,,,,5f0ebcdf13efbf091b37c4b4,09:09:36,27/02/2024
html-keyboard-response,149,685872,0.0-62.0,,"<div style=""font-size:100px;"">+</div>",,delaylearn,learning,ITI,Y0KbGNxWvyYVvdc8ai6wFQykIEk1,Y0KbGNxWvyYVvdc8ai6wFQykIEk1,,,,,,,,,,,,,,,,,,,1695.0,,,5f0ebcdf13efbf091b37c4b4,09:09:36,27/02/2024
html-keyboard-response,150,687167,0.0-63.0-0.0,1291.6000000238419,"<div style=""display: flex; flex-direction: column; align-items: center; margin-top: -40px;""><img src=""images/pattern_5.png"" style=""width: 234px; height: 230px; margin-top: -50px;""><div style=""display: flex; justify-content: space-between; margin-top: 33px;""><img src=""images/choice_trial_11.png"" style=""width: 408px; height: 417px; margin-right: 200px;""><img src=""images/choice_trial_2.png"" style=""width: 408px; height: 417px;""></div></div>",f,delaylearn,learning,trial,Y0KbGNxWvyYVvdc8ai6wFQykIEk1,Y0KbGNxWvyYVvdc8ai6wFQykIEk1,3.0,images/choice_trial_11.png,images/choice_trial_2.png,images/pattern_5.png,f,f,750.0,11.0,2.0,4.0,0.0,27.0,1.0,1.0,11.0,160.0,,,,,,5f0ebcdf13efbf091b37c4b4,09:09:36,27/02/2024
html-keyboard-response,151,688175,0.0-63.0-1.0,,"<div style=""display: flex; flex-direction: column; align-items: center; margin-top: -40px;""><img src=""images/pattern_5.png"" style=""width: 234px; height: 230px; margin-top: -50px;""><div style=""display: flex; justify-content: space-between; margin-top: 33px;""><img src=""images/choice_trial_11.png"" style=""width: 408px; height: 417px; margin-right: 608px;""></div></div>",,delaylearn,learning,display_response,Y0KbGNxWvyYVvdc8ai6wFQykIEk1,Y0KbGNxWvyYVvdc8ai6wFQykIEk1,,,,,,,,,,,,,,,,,chosen stimuli: images/choice_trial_11.png,,,,,5f0ebcdf13efbf091b37c4b4,09:09:36,27/02/2024
html-keyboard-response,152,688932,0.0-63.0-2.0,,,,delaylearn,learning,feedback_duration_window,Y0KbGNxWvyYVvdc8ai6wFQykIEk1,Y0KbGNxWvyYVvdc8ai6wFQykIEk1,,,,,,,,,,,,,,,,,,750.0,,,,5f0ebcdf13efbf091b37c4b4,09:09:36,27/02/2024
html-keyboard-response,153,690440,0.0-63.0-3.0,,<div style='margin:auto;width: auto; font-size: 150%'><span style='font-weight: bold; font-size: 100px; color: green;'>+10 points!</span><br><br></div>,,delaylearn,learning,feedback_image_window,Y0KbGNxWvyYVvdc8ai6wFQykIEk1,Y0KbGNxWvyYVvdc8ai6wFQykIEk1,,,,,,,,,,,,,,,,,,,,,,5f0ebcdf13efbf091b37c4b4,09:09:36,27/02/2024
html-keyboard-response,154,691967,0.0-64.0,,"<div style=""font-size:100px;"">+</div>",,delaylearn,learning,ITI,Y0KbGNxWvyYVvdc8ai6wFQykIEk1,Y0KbGNxWvyYVvdc8ai6wFQykIEk1,,,,,,,,,,,,,,,,,,,1522.0,,,5f0ebcdf13efbf091b37c4b4,09:09:36,27/02/2024
html-keyboard-response,155,692763,0.0-65.0-0.0,792.6000000238419,"<div style=""display: flex; flex-direction: column; align-items: center; margin-top: -40px;""><img src=""images/pattern_6.png"" style=""width: 234px; height: 230px; margin-top: -50px;""><div style=""display: flex; justify-content: space-between; margin-top: 33px;""><img src=""images/choice_trial_3.png"" style=""width: 408px; height: 417px; margin-right: 200px;""><img src=""images/choice_trial_16.png"" style=""width: 408px; height: 417px;""></div></div>",j,delaylearn,learning,trial,Y0KbGNxWvyYVvdc8ai6wFQykIEk1,Y0KbGNxWvyYVvdc8ai6wFQykIEk1,3.0,images/choice_trial_3.png,images/choice_trial_16.png,images/pattern_6.png,j,j,750.0,3.0,16.0,5.0,1.0,28.0,1.0,1.0,16.0,170.0,,,,,,5f0ebcdf13efbf091b37c4b4,09:09:36,27/02/2024
html-keyboard-response,156,693771,0.0-65.0-1.0,,"<div style=""display: flex; flex-direction: column; align-items: center; margin-top: -40px;""><img src=""images/pattern_6.png"" style=""width: 234px; height: 230px; margin-top: -50px;""><div style=""display: flex; justify-content: space-between; margin-top: 33px;""><img src=""images/choice_trial_16.png"" style=""width: 408px; height: 417px; margin-left:608px;""></div></div>",,delaylearn,learning,display_response,Y0KbGNxWvyYVvdc8ai6wFQykIEk1,Y0KbGNxWvyYVvdc8ai6wFQykIEk1,,,,,,,,,,,,,,,,,chosen stimuli: images/choice_trial_16.png,,,,,5f0ebcdf13efbf091b37c4b4,09:09:36,27/02/2024
html-keyboard-response,157,694527,0.0-65.0-2.0,,,,delaylearn,learning,feedback_duration_window,Y0KbGNxWvyYVvdc8ai6wFQykIEk1,Y0KbGNxWvyYVvdc8ai6wFQykIEk1,,,,,,,,,,,,,,,,,,750.0,,,,5f0ebcdf13efbf091b37c4b4,09:09:36,27/02/2024
html-keyboard-response,158,696035,0.0-65.0-3.0,,<div style='margin:auto;width: auto; font-size: 150%'><span style='font-weight: bold; font-size: 100px; color: green;'>+10 points!</span><br><br></div>,,delaylearn,learning,feedback_image_window,Y0KbGNxWvyYVvdc8ai6wFQykIEk1,Y0KbGNxWvyYVvdc8ai6wFQykIEk1,,,,,,,,,,,,,,,,,,,,,,5f0ebcdf13efbf091b37c4b4,09:09:36,27/02/2024
html-keyboard-response,159,696538,0.0-66.0-0.0,,,,,,mood_trial_fixation,Y0KbGNxWvyYVvdc8ai6wFQykIEk1,,,,,,,,,,,,,,,,,,,,,,,5f0ebcdf13efbf091b37c4b4,09:09:36,27/02/2024
lmdlab-html-vas-response,160,699854,0.0-66.0-1.0,2305.0,How happy are you right now?,0.8777777777777778,delaylearn,learning,mood_trial,Y0KbGNxWvyYVvdc8ai6wFQykIEk1,Y0KbGNxWvyYVvdc8ai6wFQykIEk1,,,,,,,,,,,,,,,,,,,,"['Very unhappy', 'Very happy']",,5f0ebcdf13efbf091b37c4b4,09:09:36,27/02/2024
html-keyboard-response,161,701933,0.0-67.0,,"<div style=""font-size:100px;"">+</div>",,delaylearn,learning,ITI,Y0KbGNxWvyYVvdc8ai6wFQykIEk1,Y0KbGNxWvyYVvdc8ai6wFQykIEk1,,,,,,,,,,,,,,,,,,,2074.0,,,5f0ebcdf13efbf091b37c4b4,09:09:36,27/02/2024
html-keyboard-response,162,702818,0.0-68.0-0.0,880.2000000476837,"<div style=""display: flex; flex-direction: column; align-items: center; margin-top: -40px;""><img src=""images/pattern_4.png"" style=""width: 234px; height: 230px; margin-top: -50px;""><div style=""display: flex; justify-content: space-between; margin-top: 33px;""><img src=""images/choice_trial_9.png"" style=""width: 408px; height: 417px; margin-right: 200px;""><img src=""images/choice_trial_15.png"" style=""width: 408px; height: 417px;""></div></div>",j,delaylearn,learning,trial,Y0KbGNxWvyYVvdc8ai6wFQykIEk1,Y0KbGNxWvyYVvdc8ai6wFQykIEk1,3.0,images/choice_trial_9.png,images/choice_trial_15.png,images/pattern_4.png,j,j,7000.0,9.0,15.0,3.0,1.0,29.0,1.0,1.0,15.0,180.0,,,,,,5f0ebcdf13efbf091b37c4b4,09:09:36,27/02/2024
html-keyboard-response,163,703826,0.0-68.0-1.0,,"<div style=""display: flex; flex-direction: column; align-items: center; margin-top: -40px;""><img src=""images/pattern_4.png"" style=""width: 234px; height: 230px; margin-top: -50px;""><div style=""display: flex; justify-content: space-between; margin-top: 33px;""><img src=""images/choice_trial_15.png"" style=""width: 408px; height: 417px; margin-left:608px;""></div></div>",,delaylearn,learning,display_response,Y0KbGNxWvyYVvdc8ai6wFQykIEk1,Y0KbGNxWvyYVvdc8ai6wFQykIEk1,,,,,,,,,,,,,,,,,chosen stimuli: images/choice_trial_15.png,,,,,5f0ebcdf13efbf091b37c4b4,09:09:36,27/02/2024
html-keyboard-response,164,710833,0.0-68.0-2.0,,,,delaylearn,learning,feedback_duration_window,Y0KbGNxWvyYVvdc8ai6wFQykIEk1,Y0KbGNxWvyYVvdc8ai6wFQykIEk1,,,,,,,,,,,,,,,,,,7000.0,,,,5f0ebcdf13efbf091b37c4b4,09:09:36,27/02/2024
html-keyboard-response,165,712341,0.0-68.0-3.0,,<div style='margin:auto;width: auto; font-size: 150%'><span style='font-weight: bold; font-size: 100px; color: green;'>+10 points!</span><br><br></div>,,delaylearn,learning,feedback_image_window,Y0KbGNxWvyYVvdc8ai6wFQykIEk1,Y0KbGNxWvyYVvdc8ai6wFQykIEk1,,,,,,,,,,,,,,,,,,,,,,5f0ebcdf13efbf091b37c4b4,09:09:36,27/02/2024
html-keyboard-response,166,714551,0.0-69.0,,"<div style=""font-size:100px;"">+</div>",,delaylearn,learning,ITI,Y0KbGNxWvyYVvdc8ai6wFQykIEk1,Y0KbGNxWvyYVvdc8ai6wFQykIEk1,,,,,,,,,,,,,,,,,,,2207.0,,,5f0ebcdf13efbf091b37c4b4,09:09:36,27/02/2024
html-keyboard-response,167,715369,0.0-70.0-0.0,813.6000000238419,"<div style=""display: flex; flex-direction: column; align-items: center; margin-top: -40px;""><img src=""images/pattern_3.png"" style=""width: 234px; height: 230px; margin-top: -50px;""><div style=""display: flex; justify-content: space-between; margin-top: 33px;""><img src=""images/choice_trial_10.png"" style=""width: 408px; height: 417px; margin-right: 200px;""><img src=""images/choice_trial_13.png"" style=""width: 408px; height: 417px;""></div></div>",j,delaylearn,learning,trial,Y0KbGNxWvyYVvdc8ai6wFQykIEk1,Y0KbGNxWvyYVvdc8ai6wFQykIEk1,3.0,images/choice_trial_10.png,images/choice_trial_13.png,images/pattern_3.png,j,j,7000.0,10.0,13.0,2.0,1.0,30.0,1.0,1.0,13.0,190.0,,,,,,5f0ebcdf13efbf091b37c4b4,09:09:36,27/02/2024
html-keyboard-response,168,716375,0.0-70.0-1.0,,"<div style=""display: flex; flex-direction: column; align-items: center; margin-top: -40px;""><img src=""images/pattern_3.png"" style=""width: 234px; height: 230px; margin-top: -50px;""><div style=""display: flex; justify-content: space-between; margin-top: 33px;""><img src=""images/choice_trial_13.png"" style=""width: 408px; height: 417px; margin-left:608px;""></div></div>",,delaylearn,learning,display_response,Y0KbGNxWvyYVvdc8ai6wFQykIEk1,Y0KbGNxWvyYVvdc8ai6wFQykIEk1,,,,,,,,,,,,,,,,,chosen stimuli: images/choice_trial_13.png,,,,,5f0ebcdf13efbf091b37c4b4,09:09:36,27/02/2024
html-keyboard-response,169,723382,0.0-70.0-2.0,,,,delaylearn,learning,feedback_duration_window,Y0KbGNxWvyYVvdc8ai6wFQykIEk1,Y0KbGNxWvyYVvdc8ai6wFQykIEk1,,,,,,,,,,,,,,,,,,7000.0,,,,5f0ebcdf13efbf091b37c4b4,09:09:36,27/02/2024
html-keyboard-response,170,724889,0.0-70.0-3.0,,<div style='margin:auto;width: auto; font-size: 150%'><span style='font-weight: bold; font-size: 100px; color: green;'>+10 points!</span><br><br></div>,,delaylearn,learning,feedback_image_window,Y0KbGNxWvyYVvdc8ai6wFQykIEk1,Y0KbGNxWvyYVvdc8ai6wFQykIEk1,,,,,,,,,,,,,,,,,,,,,,5f0ebcdf13efbf091b37c4b4,09:09:36,27/02/2024
html-keyboard-response,171,727101,0.0-71.0,,"<div style=""font-size:100px;"">+</div>",,delaylearn,learning,ITI,Y0KbGNxWvyYVvdc8ai6wFQykIEk1,Y0KbGNxWvyYVvdc8ai6wFQykIEk1,,,,,,,,,,,,,,,,,,,2205.0,,,5f0ebcdf13efbf091b37c4b4,09:09:36,27/02/2024
html-keyboard-response,172,728088,0.0-72.0-0.0,983.1000000238419,"<div style=""display: flex; flex-direction: column; align-items: center; margin-top: -40px;""><img src=""images/pattern_5.png"" style=""width: 234px; height: 230px; margin-top: -50px;""><div style=""display: flex; justify-content: space-between; margin-top: 33px;""><img src=""images/choice_trial_11.png"" style=""width: 408px; height: 417px; margin-right: 200px;""><img src=""images/choice_trial_2.png"" style=""width: 408px; height: 417px;""></div></div>",f,delaylearn,learning,trial,Y0KbGNxWvyYVvdc8ai6wFQykIEk1,Y0KbGNxWvyYVvdc8ai6wFQykIEk1,3.0,images/choice_trial_11.png,images/choice_trial_2.png,images/pattern_5.png,j,f,750.0,11.0,2.0,4.0,0.0,31.0,1.0,0.0,11.0,190.0,,,,,,5f0ebcdf13efbf091b37c4b4,09:09:36,27/02/2024
html-keyboard-response,173,729092,0.0-72.0-1.0,,"<div style=""display: flex; flex-direction: column; align-items: center; margin-top: -40px;""><img src=""images/pattern_5.png"" style=""width: 234px; height: 230px; margin-top: -50px;""><div style=""display: flex; justify-content: space-between; margin-top: 33px;""><img src=""images/choice_trial_11.png"" style=""width: 408px; height: 417px; margin-right: 608px;""></div></div>",,delaylearn,learning,display_response,Y0KbGNxWvyYVvdc8ai6wFQykIEk1,Y0KbGNxWvyYVvdc8ai6wFQykIEk1,,,,,,,,,,,,,,,,,chosen stimuli: images/choice_trial_11.png,,,,,5f0ebcdf13efbf091b37c4b4,09:09:36,27/02/2024
html-keyboard-response,174,729848,0.0-72.0-2.0,,,,delaylearn,learning,feedback_duration_window,Y0KbGNxWvyYVvdc8ai6wFQykIEk1,Y0KbGNxWvyYVvdc8ai6wFQykIEk1,,,,,,,,,,,,,,,,,,750.0,,,,5f0ebcdf13efbf091b37c4b4,09:09:36,27/02/2024
html-keyboard-response,175,731355,0.0-72.0-3.0,,<div style='margin:auto;width: auto; font-size: 150%'><span style='font-weight: bold; font-size: 100px; color: red;'>0 points!</span><br><br></div>,,delaylearn,learning,feedback_image_window,Y0KbGNxWvyYVvdc8ai6wFQykIEk1,Y0KbGNxWvyYVvdc8ai6wFQykIEk1,,,,,,,,,,,,,,,,,,,,,,5f0ebcdf13efbf091b37c4b4,09:09:36,27/02/2024
html-keyboard-response,176,733288,0.0-73.0,,"<div style=""font-size:100px;"">+</div>",,delaylearn,learning,ITI,Y0KbGNxWvyYVvdc8ai6wFQykIEk1,Y0KbGNxWvyYVvdc8ai6wFQykIEk1,,,,,,,,,,,,,,,,,,,1928.0,,,5f0ebcdf13efbf091b37c4b4,09:09:36,27/02/2024
html-keyboard-response,177,734190,0.0-74.0-0.0,897.8999999761581,"<div style=""display: flex; flex-direction: column; align-items: center; margin-top: -40px;""><img src=""images/pattern_1.png"" style=""width: 234px; height: 230px; margin-top: -50px;""><div style=""display: flex; justify-content: space-between; margin-top: 33px;""><img src=""images/choice_trial_14.png"" style=""width: 408px; height: 417px; margin-right: 200px;""><img src=""images/choice_trial_8.png"" style=""width: 408px; height: 417px;""></div></div>",j,delaylearn,learning,trial,Y0KbGNxWvyYVvdc8ai6wFQykIEk1,Y0KbGNxWvyYVvdc8ai6wFQykIEk1,3.0,images/choice_trial_14.png,images/choice_trial_8.png,images/pattern_1.png,f,f,7000.0,14.0,8.0,1.0,0.0,32.0,0.0,0.0,8.0,190.0,,,,,,5f0ebcdf13efbf091b37c4b4,09:09:36,27/02/2024
html-keyboard-response,178,735197,0.0-74.0-1.0,,"<div style=""display: flex; flex-direction: column; align-items: center; margin-top: -40px;""><img src=""images/pattern_1.png"" style=""width: 234px; height: 230px; margin-top: -50px;""><div style=""display: flex; justify-content: space-between; margin-top: 33px;""><img src=""images/choice_trial_8.png"" style=""width: 408px; height: 417px; margin-left:608px;""></div></div>",,delaylearn,learning,display_response,Y0KbGNxWvyYVvdc8ai6wFQykIEk1,Y0KbGNxWvyYVvdc8ai6wFQykIEk1,,,,,,,,,,,,,,,,,chosen stimuli: images/choice_trial_8.png,,,,,5f0ebcdf13efbf091b37c4b4,09:09:36,27/02/2024
html-keyboard-response,179,742204,0.0-74.0-2.0,,,,delaylearn,learning,feedback_duration_window,Y0KbGNxWvyYVvdc8ai6wFQykIEk1,Y0KbGNxWvyYVvdc8ai6wFQykIEk1,,,,,,,,,,,,,,,,,,7000.0,,,,5f0ebcdf13efbf091b37c4b4,09:09:36,27/02/2024
html-keyboard-response,180,743713,0.0-74.0-3.0,,<div style='margin:auto;width: auto; font-size: 150%'><span style='font-weight: bold; font-size: 100px; color: red;'>0 points!</span><br><br></div>,,delaylearn,learning,feedback_image_window,Y0KbGNxWvyYVvdc8ai6wFQykIEk1,Y0KbGNxWvyYVvdc8ai6wFQykIEk1,,,,,,,,,,,,,,,,,,,,,,5f0ebcdf13efbf091b37c4b4,09:09:36,27/02/2024
html-keyboard-response,181,744216,0.0-75.0-0.0,,,,,,mood_trial_fixation,Y0KbGNxWvyYVvdc8ai6wFQykIEk1,,,,,,,,,,,,,,,,,,,,,,,5f0ebcdf13efbf091b37c4b4,09:09:36,27/02/2024
lmdlab-html-vas-response,182,747400,0.0-75.0-1.0,2173.0,How happy are you right now?,0.7981481481481482,delaylearn,learning,mood_trial,Y0KbGNxWvyYVvdc8ai6wFQykIEk1,Y0KbGNxWvyYVvdc8ai6wFQykIEk1,,,,,,,,,,,,,,,,,,,,"['Very unhappy', 'Very happy']",,5f0ebcdf13efbf091b37c4b4,09:09:36,27/02/2024
html-keyboard-response,183,749362,0.0-76.0,,"<div style=""font-size:100px;"">+</div>",,delaylearn,learning,ITI,Y0KbGNxWvyYVvdc8ai6wFQykIEk1,Y0KbGNxWvyYVvdc8ai6wFQykIEk1,,,,,,,,,,,,,,,,,,,1955.0,,,5f0ebcdf13efbf091b37c4b4,09:09:36,27/02/2024
html-keyboard-response,184,750411,0.0-77.0-0.0,1044.1000000238419,"<div style=""display: flex; flex-direction: column; align-items: center; margin-top: -40px;""><img src=""images/pattern_6.png"" style=""width: 234px; height: 230px; margin-top: -50px;""><div style=""display: flex; justify-content: space-between; margin-top: 33px;""><img src=""images/choice_trial_16.png"" style=""width: 408px; height: 417px; margin-right: 200px;""><img src=""images/choice_trial_3.png"" style=""width: 408px; height: 417px;""></div></div>",f,delaylearn,learning,trial,Y0KbGNxWvyYVvdc8ai6wFQykIEk1,Y0KbGNxWvyYVvdc8ai6wFQykIEk1,3.0,images/choice_trial_16.png,images/choice_trial_3.png,images/pattern_6.png,j,f,750.0,16.0,3.0,5.0,0.0,33.0,1.0,0.0,16.0,190.0,,,,,,5f0ebcdf13efbf091b37c4b4,09:09:36,27/02/2024
html-keyboard-response,185,751419,0.0-77.0-1.0,,"<div style=""display: flex; flex-direction: column; align-items: center; margin-top: -40px;""><img src=""images/pattern_6.png"" style=""width: 234px; height: 230px; margin-top: -50px;""><div style=""display: flex; justify-content: space-between; margin-top: 33px;""><img src=""images/choice_trial_16.png"" style=""width: 408px; height: 417px; margin-right: 608px;""></div></div>",,delaylearn,learning,display_response,Y0KbGNxWvyYVvdc8ai6wFQykIEk1,Y0KbGNxWvyYVvdc8ai6wFQykIEk1,,,,,,,,,,,,,,,,,chosen stimuli: images/choice_trial_16.png,,,,,5f0ebcdf13efbf091b37c4b4,09:09:36,27/02/2024
html-keyboard-response,186,752173,0.0-77.0-2.0,,,,delaylearn,learning,feedback_duration_window,Y0KbGNxWvyYVvdc8ai6wFQykIEk1,Y0KbGNxWvyYVvdc8ai6wFQykIEk1,,,,,,,,,,,,,,,,,,750.0,,,,5f0ebcdf13efbf091b37c4b4,09:09:36,27/02/2024
html-keyboard-response,187,753681,0.0-77.0-3.0,,<div style='margin:auto;width: auto; font-size: 150%'><span style='font-weight: bold; font-size: 100px; color: red;'>0 points!</span><br><br></div>,,delaylearn,learning,feedback_image_window,Y0KbGNxWvyYVvdc8ai6wFQykIEk1,Y0KbGNxWvyYVvdc8ai6wFQykIEk1,,,,,,,,,,,,,,,,,,,,,,5f0ebcdf13efbf091b37c4b4,09:09:36,27/02/2024
html-keyboard-response,188,755345,0.0-78.0,,"<div style=""font-size:100px;"">+</div>",,delaylearn,learning,ITI,Y0KbGNxWvyYVvdc8ai6wFQykIEk1,Y0KbGNxWvyYVvdc8ai6wFQykIEk1,,,,,,,,,,,,,,,,,,,1658.0,,,5f0ebcdf13efbf091b37c4b4,09:09:36,27/02/2024
html-keyboard-response,189,756377,0.0-79.0-0.0,1027.8999999761581,"<div style=""display: flex; flex-direction: column; align-items: center; margin-top: -40px;""><img src=""images/pattern_3.png"" style=""width: 234px; height: 230px; margin-top: -50px;""><div style=""display: flex; justify-content: space-between; margin-top: 33px;""><img src=""images/choice_trial_10.png"" style=""width: 408px; height: 417px; margin-right: 200px;""><img src=""images/choice_trial_13.png"" style=""width: 408px; height: 417px;""></div></div>",j,delaylearn,learning,trial,Y0KbGNxWvyYVvdc8ai6wFQykIEk1,Y0KbGNxWvyYVvdc8ai6wFQykIEk1,3.0,images/choice_trial_10.png,images/choice_trial_13.png,images/pattern_3.png,j,j,7000.0,10.0,13.0,2.0,1.0,34.0,1.0,1.0,13.0,200.0,,,,,,5f0ebcdf13efbf091b37c4b4,09:09:36,27/02/2024
html-keyboard-response,190,757385,0.0-79.0-1.0,,"<div style=""display: flex; flex-direction: column; align-items: center; margin-top: -40px;""><img src=""images/pattern_3.png"" style=""width: 234px; height: 230px; margin-top: -50px;""><div style=""display: flex; justify-content: space-between; margin-top: 33px;""><img src=""images/choice_trial_13.png"" style=""width: 408px; height: 417px; margin-left:608px;""></div></div>",,delaylearn,learning,display_response,Y0KbGNxWvyYVvdc8ai6wFQykIEk1,Y0KbGNxWvyYVvdc8ai6wFQykIEk1,,,,,,,,,,,,,,,,,chosen stimuli: images/choice_trial_13.png,,,,,5f0ebcdf13efbf091b37c4b4,09:09:36,27/02/2024
html-keyboard-response,191,764392,0.0-79.0-2.0,,,,delaylearn,learning,feedback_duration_window,Y0KbGNxWvyYVvdc8ai6wFQykIEk1,Y0KbGNxWvyYVvdc8ai6wFQykIEk1,,,,,,,,,,,,,,,,,,7000.0,,,,5f0ebcdf13efbf091b37c4b4,09:09:36,27/02/2024
html-keyboard-response,192,765900,0.0-79.0-3.0,,<div style='margin:auto;width: auto; font-size: 150%'><span style='font-weight: bold; font-size: 100px; color: green;'>+10 points!</span><br><br></div>,,delaylearn,learning,feedback_image_window,Y0KbGNxWvyYVvdc8ai6wFQykIEk1,Y0KbGNxWvyYVvdc8ai6wFQykIEk1,,,,,,,,,,,,,,,,,,,,,,5f0ebcdf13efbf091b37c4b4,09:09:36,27/02/2024
html-keyboard-response,193,768300,0.0-80.0,,"<div style=""font-size:100px;"">+</div>",,delaylearn,learning,ITI,Y0KbGNxWvyYVvdc8ai6wFQykIEk1,Y0KbGNxWvyYVvdc8ai6wFQykIEk1,,,,,,,,,,,,,,,,,,,2393.0,,,5f0ebcdf13efbf091b37c4b4,09:09:36,27/02/2024
html-keyboard-response,194,769188,0.0-81.0-0.0,884.2999999523163,"<div style=""display: flex; flex-direction: column; align-items: center; margin-top: -40px;""><img src=""images/pattern_4.png"" style=""width: 234px; height: 230px; margin-top: -50px;""><div style=""display: flex; justify-content: space-between; margin-top: 33px;""><img src=""images/choice_trial_9.png"" style=""width: 408px; height: 417px; margin-right: 200px;""><img src=""images/choice_trial_15.png"" style=""width: 408px; height: 417px;""></div></div>",j,delaylearn,learning,trial,Y0KbGNxWvyYVvdc8ai6wFQykIEk1,Y0KbGNxWvyYVvdc8ai6wFQykIEk1,3.0,images/choice_trial_9.png,images/choice_trial_15.png,images/pattern_4.png,f,j,7000.0,9.0,15.0,3.0,1.0,35.0,1.0,0.0,15.0,200.0,,,,,,5f0ebcdf13efbf091b37c4b4,09:09:36,27/02/2024
html-keyboard-response,195,770193,0.0-81.0-1.0,,"<div style=""display: flex; flex-direction: column; align-items: center; margin-top: -40px;""><img src=""images/pattern_4.png"" style=""width: 234px; height: 230px; margin-top: -50px;""><div style=""display: flex; justify-content: space-between; margin-top: 33px;""><img src=""images/choice_trial_15.png"" style=""width: 408px; height: 417px; margin-left:608px;""></div></div>",,delaylearn,learning,display_response,Y0KbGNxWvyYVvdc8ai6wFQykIEk1,Y0KbGNxWvyYVvdc8ai6wFQykIEk1,,,,,,,,,,,,,,,,,chosen stimuli: images/choice_trial_15.png,,,,,5f0ebcdf13efbf091b37c4b4,09:09:36,27/02/2024
html-keyboard-response,196,777200,0.0-81.0-2.0,,,,delaylearn,learning,feedback_duration_window,Y0KbGNxWvyYVvdc8ai6wFQykIEk1,Y0KbGNxWvyYVvdc8ai6wFQykIEk1,,,,,,,,,,,,,,,,,,7000.0,,,,5f0ebcdf13efbf091b37c4b4,09:09:36,27/02/2024
html-keyboard-response,197,778708,0.0-81.0-3.0,,<div style='margin:auto;width: auto; font-size: 150%'><span style='font-weight: bold; font-size: 100px; color: red;'>0 points!</span><br><br></div>,,delaylearn,learning,feedback_image_window,Y0KbGNxWvyYVvdc8ai6wFQykIEk1,Y0KbGNxWvyYVvdc8ai6wFQykIEk1,,,,,,,,,,,,,,,,,,,,,,5f0ebcdf13efbf091b37c4b4,09:09:36,27/02/2024
html-keyboard-response,198,780386,0.0-82.0,,"<div style=""font-size:100px;"">+</div>",,delaylearn,learning,ITI,Y0KbGNxWvyYVvdc8ai6wFQykIEk1,Y0KbGNxWvyYVvdc8ai6wFQykIEk1,,,,,,,,,,,,,,,,,,,1674.0,,,5f0ebcdf13efbf091b37c4b4,09:09:36,27/02/2024
html-keyboard-response,199,781438,0.0-83.0-0.0,1047.6000000238419,"<div style=""display: flex; flex-direction: column; align-items: center; margin-top: -40px;""><img src=""images/pattern_7.png"" style=""width: 234px; height: 230px; margin-top: -50px;""><div style=""display: flex; justify-content: space-between; margin-top: 33px;""><img src=""images/choice_trial_6.png"" style=""width: 408px; height: 417px; margin-right: 200px;""><img src=""images/choice_trial_12.png"" style=""width: 408px; height: 417px;""></div></div>",f,delaylearn,learning,trial,Y0KbGNxWvyYVvdc8ai6wFQykIEk1,Y0KbGNxWvyYVvdc8ai6wFQykIEk1,3.0,images/choice_trial_6.png,images/choice_trial_12.png,images/pattern_7.png,f,f,750.0,6.0,12.0,6.0,0.0,36.0,1.0,1.0,6.0,210.0,,,,,,5f0ebcdf13efbf091b37c4b4,09:09:36,27/02/2024
html-keyboard-response,200,782446,0.0-83.0-1.0,,"<div style=""display: flex; flex-direction: column; align-items: center; margin-top: -40px;""><img src=""images/pattern_7.png"" style=""width: 234px; height: 230px; margin-top: -50px;""><div style=""display: flex; justify-content: space-between; margin-top: 33px;""><img src=""images/choice_trial_6.png"" style=""width: 408px; height: 417px; margin-right: 608px;""></div></div>",,delaylearn,learning,display_response,Y0KbGNxWvyYVvdc8ai6wFQykIEk1,Y0KbGNxWvyYVvdc8ai6wFQykIEk1,,,,,,,,,,,,,,,,,chosen stimuli: images/choice_trial_6.png,,,,,5f0ebcdf13efbf091b37c4b4,09:09:36,27/02/2024
html-keyboard-response,201,783203,0.0-83.0-2.0,,,,delaylearn,learning,feedback_duration_window,Y0KbGNxWvyYVvdc8ai6wFQykIEk1,Y0KbGNxWvyYVvdc8ai6wFQykIEk1,,,,,,,,,,,,,,,,,,750.0,,,,5f0ebcdf13efbf091b37c4b4,09:09:36,27/02/2024
html-keyboard-response,202,784710,0.0-83.0-3.0,,<div style='margin:auto;width: auto; font-size: 150%'><span style='font-weight: bold; font-size: 100px; color: green;'>+10 points!</span><br><br></div>,,delaylearn,learning,feedback_image_window,Y0KbGNxWvyYVvdc8ai6wFQykIEk1,Y0KbGNxWvyYVvdc8ai6wFQykIEk1,,,,,,,,,,,,,,,,,,,,,,5f0ebcdf13efbf091b37c4b4,09:09:36,27/02/2024
html-keyboard-response,203,787139,0.0-84.0,,"<div style=""font-size:100px;"">+</div>",,delaylearn,learning,ITI,Y0KbGNxWvyYVvdc8ai6wFQykIEk1,Y0KbGNxWvyYVvdc8ai6wFQykIEk1,,,,,,,,,,,,,,,,,,,2422.0,,,5f0ebcdf13efbf091b37c4b4,09:09:36,27/02/2024
html-keyboard-response,204,788027,0.0-85.0-0.0,884.0,"<div style=""display: flex; flex-direction: column; align-items: center; margin-top: -40px;""><img src=""images/pattern_1.png"" style=""width: 234px; height: 230px; margin-top: -50px;""><div style=""display: flex; justify-content: space-between; margin-top: 33px;""><img src=""images/choice_trial_14.png"" style=""width: 408px; height: 417px; margin-right: 200px;""><img src=""images/choice_trial_8.png"" style=""width: 408px; height: 417px;""></div></div>",j,delaylearn,learning,trial,Y0KbGNxWvyYVvdc8ai6wFQykIEk1,Y0KbGNxWvyYVvdc8ai6wFQykIEk1,3.0,images/choice_trial_14.png,images/choice_trial_8.png,images/pattern_1.png,f,f,7000.0,14.0,8.0,1.0,0.0,37.0,0.0,0.0,8.0,210.0,,,,,,5f0ebcdf13efbf091b37c4b4,09:09:36,27/02/2024
html-keyboard-response,205,789033,0.0-85.0-1.0,,"<div style=""display: flex; flex-direction: column; align-items: center; margin-top: -40px;""><img src=""images/pattern_1.png"" style=""width: 234px; height: 230px; margin-top: -50px;""><div style=""display: flex; justify-content: space-between; margin-top: 33px;""><img src=""images/choice_trial_8.png"" style=""width: 408px; height: 417px; margin-left:608px;""></div></div>",,delaylearn,learning,display_response,Y0KbGNxWvyYVvdc8ai6wFQykIEk1,Y0KbGNxWvyYVvdc8ai6wFQykIEk1,,,,,,,,,,,,,,,,,chosen stimuli: images/choice_trial_8.png,,,,,5f0ebcdf13efbf091b37c4b4,09:09:36,27/02/2024
html-keyboard-response,206,796041,0.0-85.0-2.0,,,,delaylearn,learning,feedback_duration_window,Y0KbGNxWvyYVvdc8ai6wFQykIEk1,Y0KbGNxWvyYVvdc8ai6wFQykIEk1,,,,,,,,,,,,,,,,,,7000.0,,,,5f0ebcdf13efbf091b37c4b4,09:09:36,27/02/2024
html-keyboard-response,207,797548,0.0-85.0-3.0,,<div style='margin:auto;width: auto; font-size: 150%'><span style='font-weight: bold; font-size: 100px; color: red;'>0 points!</span><br><br></div>,,delaylearn,learning,feedback_image_window,Y0KbGNxWvyYVvdc8ai6wFQykIEk1,Y0KbGNxWvyYVvdc8ai6wFQykIEk1,,,,,,,,,,,,,,,,,,,,,,5f0ebcdf13efbf091b37c4b4,09:09:36,27/02/2024
html-keyboard-response,208,798053,0.0-86.0-0.0,,,,,,mood_trial_fixation,Y0KbGNxWvyYVvdc8ai6wFQykIEk1,,,,,,,,,,,,,,,,,,,,,,,5f0ebcdf13efbf091b37c4b4,09:09:36,27/02/2024
lmdlab-html-vas-response,209,801140,0.0-86.0-1.0,2076.0,How happy are you right now?,0.6759259259259259,delaylearn,learning,mood_trial,Y0KbGNxWvyYVvdc8ai6wFQykIEk1,Y0KbGNxWvyYVvdc8ai6wFQykIEk1,,,,,,,,,,,,,,,,,,,,"['Very unhappy', 'Very happy']",,5f0ebcdf13efbf091b37c4b4,09:09:36,27/02/2024
html-keyboard-response,210,803186,0.0-87.0,,"<div style=""font-size:100px;"">+</div>",,delaylearn,learning,ITI,Y0KbGNxWvyYVvdc8ai6wFQykIEk1,Y0KbGNxWvyYVvdc8ai6wFQykIEk1,,,,,,,,,,,,,,,,,,,2040.0,,,5f0ebcdf13efbf091b37c4b4,09:09:36,27/02/2024
html-keyboard-response,211,804463,0.0-88.0-0.0,1271.5,"<div style=""display: flex; flex-direction: column; align-items: center; margin-top: -40px;""><img src=""images/pattern_3.png"" style=""width: 234px; height: 230px; margin-top: -50px;""><div style=""display: flex; justify-content: space-between; margin-top: 33px;""><img src=""images/choice_trial_13.png"" style=""width: 408px; height: 417px; margin-right: 200px;""><img src=""images/choice_trial_10.png"" style=""width: 408px; height: 417px;""></div></div>",f,delaylearn,learning,trial,Y0KbGNxWvyYVvdc8ai6wFQykIEk1,Y0KbGNxWvyYVvdc8ai6wFQykIEk1,3.0,images/choice_trial_13.png,images/choice_trial_10.png,images/pattern_3.png,j,f,7000.0,13.0,10.0,2.0,0.0,38.0,1.0,0.0,13.0,210.0,,,,,,5f0ebcdf13efbf091b37c4b4,09:09:36,27/02/2024
html-keyboard-response,212,805472,0.0-88.0-1.0,,"<div style=""display: flex; flex-direction: column; align-items: center; margin-top: -40px;""><img src=""images/pattern_3.png"" style=""width: 234px; height: 230px; margin-top: -50px;""><div style=""display: flex; justify-content: space-between; margin-top: 33px;""><img src=""images/choice_trial_13.png"" style=""width: 408px; height: 417px; margin-right: 608px;""></div></div>",,delaylearn,learning,display_response,Y0KbGNxWvyYVvdc8ai6wFQykIEk1,Y0KbGNxWvyYVvdc8ai6wFQykIEk1,,,,,,,,,,,,,,,,,chosen stimuli: images/choice_trial_13.png,,,,,5f0ebcdf13efbf091b37c4b4,09:09:36,27/02/2024
html-keyboard-response,213,812479,0.0-88.0-2.0,,,,delaylearn,learning,feedback_duration_window,Y0KbGNxWvyYVvdc8ai6wFQykIEk1,Y0KbGNxWvyYVvdc8ai6wFQykIEk1,,,,,,,,,,,,,,,,,,7000.0,,,,5f0ebcdf13efbf091b37c4b4,09:09:36,27/02/2024
html-keyboard-response,214,813984,0.0-88.0-3.0,,<div style='margin:auto;width: auto; font-size: 150%'><span style='font-weight: bold; font-size: 100px; color: red;'>0 points!</span><br><br></div>,,delaylearn,learning,feedback_image_window,Y0KbGNxWvyYVvdc8ai6wFQykIEk1,Y0KbGNxWvyYVvdc8ai6wFQykIEk1,,,,,,,,,,,,,,,,,,,,,,5f0ebcdf13efbf091b37c4b4,09:09:36,27/02/2024
html-keyboard-response,215,816479,0.0-89.0,,"<div style=""font-size:100px;"">+</div>",,delaylearn,learning,ITI,Y0KbGNxWvyYVvdc8ai6wFQykIEk1,Y0KbGNxWvyYVvdc8ai6wFQykIEk1,,,,,,,,,,,,,,,,,,,2488.0,,,5f0ebcdf13efbf091b37c4b4,09:09:36,27/02/2024
html-keyboard-response,216,817464,0.0-90.0-0.0,980.6000000238419,"<div style=""display: flex; flex-direction: column; align-items: center; margin-top: -40px;""><img src=""images/pattern_7.png"" style=""width: 234px; height: 230px; margin-top: -50px;""><div style=""display: flex; justify-content: space-between; margin-top: 33px;""><img src=""images/choice_trial_12.png"" style=""width: 408px; height: 417px; margin-right: 200px;""><img src=""images/choice_trial_6.png"" style=""width: 408px; height: 417px;""></div></div>",j,delaylearn,learning,trial,Y0KbGNxWvyYVvdc8ai6wFQykIEk1,Y0KbGNxWvyYVvdc8ai6wFQykIEk1,3.0,images/choice_trial_12.png,images/choice_trial_6.png,images/pattern_7.png,j,j,750.0,12.0,6.0,6.0,1.0,39.0,1.0,1.0,6.0,220.0,,,,,,5f0ebcdf13efbf091b37c4b4,09:09:36,27/02/2024
html-keyboard-response,217,818469,0.0-90.0-1.0,,"<div style=""display: flex; flex-direction: column; align-items: center; margin-top: -40px;""><img src=""images/pattern_7.png"" style=""width: 234px; height: 230px; margin-top: -50px;""><div style=""display: flex; justify-content: space-between; margin-top: 33px;""><img src=""images/choice_trial_6.png"" style=""width: 408px; height: 417px; margin-left:608px;""></div></div>",,delaylearn,learning,display_response,Y0KbGNxWvyYVvdc8ai6wFQykIEk1,Y0KbGNxWvyYVvdc8ai6wFQykIEk1,,,,,,,,,,,,,,,,,chosen stimuli: images/choice_trial_6.png,,,,,5f0ebcdf13efbf091b37c4b4,09:09:36,27/02/2024
html-keyboard-response,218,819226,0.0-90.0-2.0,,,,delaylearn,learning,feedback_duration_window,Y0KbGNxWvyYVvdc8ai6wFQykIEk1,Y0KbGNxWvyYVvdc8ai6wFQykIEk1,,,,,,,,,,,,,,,,,,750.0,,,,5f0ebcdf13efbf091b37c4b4,09:09:36,27/02/2024
html-keyboard-response,219,820733,0.0-90.0-3.0,,<div style='margin:auto;width: auto; font-size: 150%'><span style='font-weight: bold; font-size: 100px; color: green;'>+10 points!</span><br><br></div>,,delaylearn,learning,feedback_image_window,Y0KbGNxWvyYVvdc8ai6wFQykIEk1,Y0KbGNxWvyYVvdc8ai6wFQykIEk1,,,,,,,,,,,,,,,,,,,,,,5f0ebcdf13efbf091b37c4b4,09:09:36,27/02/2024
html-keyboard-response,220,822582,0.0-91.0,,"<div style=""font-size:100px;"">+</div>",,delaylearn,learning,ITI,Y0KbGNxWvyYVvdc8ai6wFQykIEk1,Y0KbGNxWvyYVvdc8ai6wFQykIEk1,,,,,,,,,,,,,,,,,,,1842.0,,,5f0ebcdf13efbf091b37c4b4,09:09:36,27/02/2024
html-keyboard-response,221,823828,0.0-92.0-0.0,1243.2999999523163,"<div style=""display: flex; flex-direction: column; align-items: center; margin-top: -40px;""><img src=""images/pattern_5.png"" style=""width: 234px; height: 230px; margin-top: -50px;""><div style=""display: flex; justify-content: space-between; margin-top: 33px;""><img src=""images/choice_trial_2.png"" style=""width: 408px; height: 417px; margin-right: 200px;""><img src=""images/choice_trial_11.png"" style=""width: 408px; height: 417px;""></div></div>",j,delaylearn,learning,trial,Y0KbGNxWvyYVvdc8ai6wFQykIEk1,Y0KbGNxWvyYVvdc8ai6wFQykIEk1,3.0,images/choice_trial_2.png,images/choice_trial_11.png,images/pattern_5.png,j,j,750.0,2.0,11.0,4.0,1.0,40.0,1.0,1.0,11.0,230.0,,,,,,5f0ebcdf13efbf091b37c4b4,09:09:36,27/02/2024
html-keyboard-response,222,824835,0.0-92.0-1.0,,"<div style=""display: flex; flex-direction: column; align-items: center; margin-top: -40px;""><img src=""images/pattern_5.png"" style=""width: 234px; height: 230px; margin-top: -50px;""><div style=""display: flex; justify-content: space-between; margin-top: 33px;""><img src=""images/choice_trial_11.png"" style=""width: 408px; height: 417px; margin-left:608px;""></div></div>",,delaylearn,learning,display_response,Y0KbGNxWvyYVvdc8ai6wFQykIEk1,Y0KbGNxWvyYVvdc8ai6wFQykIEk1,,,,,,,,,,,,,,,,,chosen stimuli: images/choice_trial_11.png,,,,,5f0ebcdf13efbf091b37c4b4,09:09:36,27/02/2024
html-keyboard-response,223,825592,0.0-92.0-2.0,,,,delaylearn,learning,feedback_duration_window,Y0KbGNxWvyYVvdc8ai6wFQykIEk1,Y0KbGNxWvyYVvdc8ai6wFQykIEk1,,,,,,,,,,,,,,,,,,750.0,,,,5f0ebcdf13efbf091b37c4b4,09:09:36,27/02/2024
html-keyboard-response,224,827098,0.0-92.0-3.0,,<div style='margin:auto;width: auto; font-size: 150%'><span style='font-weight: bold; font-size: 100px; color: green;'>+10 points!</span><br><br></div>,,delaylearn,learning,feedback_image_window,Y0KbGNxWvyYVvdc8ai6wFQykIEk1,Y0KbGNxWvyYVvdc8ai6wFQykIEk1,,,,,,,,,,,,,,,,,,,,,,5f0ebcdf13efbf091b37c4b4,09:09:36,27/02/2024
html-keyboard-response,225,827602,0.0-93.0-0.0,,,,,,mood_trial_fixation,Y0KbGNxWvyYVvdc8ai6wFQykIEk1,,,,,,,,,,,,,,,,,,,,,,,5f0ebcdf13efbf091b37c4b4,09:09:36,27/02/2024
lmdlab-html-vas-response,226,831064,0.0-93.0-1.0,2456.0,How happy are you right now?,0.8018518518518518,delaylearn,learning,mood_trial,Y0KbGNxWvyYVvdc8ai6wFQykIEk1,Y0KbGNxWvyYVvdc8ai6wFQykIEk1,,,,,,,,,,,,,,,,,,,,"['Very unhappy', 'Very happy']",,5f0ebcdf13efbf091b37c4b4,09:09:36,27/02/2024
html-keyboard-response,227,832782,0.0-94.0,,"<div style=""font-size:100px;"">+</div>",,delaylearn,learning,ITI,Y0KbGNxWvyYVvdc8ai6wFQykIEk1,Y0KbGNxWvyYVvdc8ai6wFQykIEk1,,,,,,,,,,,,,,,,,,,1711.0,,,5f0ebcdf13efbf091b37c4b4,09:09:36,27/02/2024
html-keyboard-response,228,833675,0.0-95.0-0.0,889.0,"<div style=""display: flex; flex-direction: column; align-items: center; margin-top: -40px;""><img src=""images/pattern_4.png"" style=""width: 234px; height: 230px; margin-top: -50px;""><div style=""display: flex; justify-content: space-between; margin-top: 33px;""><img src=""images/choice_trial_15.png"" style=""width: 408px; height: 417px; margin-right: 200px;""><img src=""images/choice_trial_9.png"" style=""width: 408px; height: 417px;""></div></div>",f,delaylearn,learning,trial,Y0KbGNxWvyYVvdc8ai6wFQykIEk1,Y0KbGNxWvyYVvdc8ai6wFQykIEk1,3.0,images/choice_trial_15.png,images/choice_trial_9.png,images/pattern_4.png,f,f,7000.0,15.0,9.0,3.0,0.0,41.0,1.0,1.0,15.0,240.0,,,,,,5f0ebcdf13efbf091b37c4b4,09:09:36,27/02/2024
html-keyboard-response,229,834684,0.0-95.0-1.0,,"<div style=""display: flex; flex-direction: column; align-items: center; margin-top: -40px;""><img src=""images/pattern_4.png"" style=""width: 234px; height: 230px; margin-top: -50px;""><div style=""display: flex; justify-content: space-between; margin-top: 33px;""><img src=""images/choice_trial_15.png"" style=""width: 408px; height: 417px; margin-right: 608px;""></div></div>",,delaylearn,learning,display_response,Y0KbGNxWvyYVvdc8ai6wFQykIEk1,Y0KbGNxWvyYVvdc8ai6wFQykIEk1,,,,,,,,,,,,,,,,,chosen stimuli: images/choice_trial_15.png,,,,,5f0ebcdf13efbf091b37c4b4,09:09:36,27/02/2024
html-keyboard-response,230,841691,0.0-95.0-2.0,,,,delaylearn,learning,feedback_duration_window,Y0KbGNxWvyYVvdc8ai6wFQykIEk1,Y0KbGNxWvyYVvdc8ai6wFQykIEk1,,,,,,,,,,,,,,,,,,7000.0,,,,5f0ebcdf13efbf091b37c4b4,09:09:36,27/02/2024
html-keyboard-response,231,843197,0.0-95.0-3.0,,<div style='margin:auto;width: auto; font-size: 150%'><span style='font-weight: bold; font-size: 100px; color: green;'>+10 points!</span><br><br></div>,,delaylearn,learning,feedback_image_window,Y0KbGNxWvyYVvdc8ai6wFQykIEk1,Y0KbGNxWvyYVvdc8ai6wFQykIEk1,,,,,,,,,,,,,,,,,,,,,,5f0ebcdf13efbf091b37c4b4,09:09:36,27/02/2024
