rt,exp_name,exp_stage,subjectID,databaseID,trial_type,trial_index,time_elapsed,internal_node_id,block_curr,trial_curr,value_true,stimulus,text,response,userinteract,counterbal,delay,stim,rest_warning,stim1id,stim2id,stim1,stim2,leftright_counter,stim_left,stim_right,response_key,stim_selected,response_acc,confidence,rt_conf,iti_duration,pair,prolificID,start_time,date
37056.20000000001,delaylearn,test,fZ8DCpxJYdZe68Xk8SikmwPvHcn1,fZ8DCpxJYdZe68Xk8SikmwPvHcn1,lmdlab-instructions,4,40327,0.0-4.0,,,,,,,,,,,,,,,,,,,,,,,,,,638526640404d47424e281ff,08:53:59,03/04/2024
4158.0,delaylearn,test,fZ8DCpxJYdZe68Xk8SikmwPvHcn1,fZ8DCpxJYdZe68Xk8SikmwPvHcn1,option-scale-rating,6,48726,0.0-6.0,1.0,1.0,1.0,101,What percent of the time did you win when choosing this option?,0.5686728159586588,focus,3.0,0.5,101.0,,,,,,,,,,,,,,,,638526640404d47424e281ff,08:53:59,03/04/2024
1501.7999999999884,delaylearn,test,fZ8DCpxJYdZe68Xk8SikmwPvHcn1,fZ8DCpxJYdZe68Xk8SikmwPvHcn1,lmdlab-rest-trial-limit,7,50734,0.0-7.0,,,,"<p style='font-size: 4rem;'>Great! Next, you will start the real ratings!<br><br><br>Just try to remember how 'lucky' each picture was.<br><br>Guessing is ok!<br><br><br>When you are ready, press the button<br><br>to move on.</p><br><br><br><br>",,,,,,,0.0,,,,,,,,,,,,,,,638526640404d47424e281ff,08:53:59,03/04/2024
2275.0,delaylearn,test,fZ8DCpxJYdZe68Xk8SikmwPvHcn1,fZ8DCpxJYdZe68Xk8SikmwPvHcn1,lmdlab-html-vas-response,8,54539,0.0-8.0,,,,How <b>happy</b> are you right now?,,0.7962962962962963,,,,,,,,,,,,,,,,,,,,638526640404d47424e281ff,08:53:59,03/04/2024
8444.0,delaylearn,test,fZ8DCpxJYdZe68Xk8SikmwPvHcn1,fZ8DCpxJYdZe68Xk8SikmwPvHcn1,option-scale-rating,10,67406,0.0-10.0,1.0,1.0,0.23,10,What percent of the time did you win when choosing this option?,0.7008486620045559,focus,3.0,1.0,10.0,,,,,,,,,,,,,,,,638526640404d47424e281ff,08:53:59,03/04/2024
2562.0,delaylearn,test,fZ8DCpxJYdZe68Xk8SikmwPvHcn1,fZ8DCpxJYdZe68Xk8SikmwPvHcn1,option-scale-rating,11,72990,0.0-11.0,1.0,2.0,0.77,6,What percent of the time did you win when choosing this option?,0.8300153204590276,focus,3.0,0.0,6.0,,,,,,,,,,,,,,,,638526640404d47424e281ff,08:53:59,03/04/2024
2400.0,delaylearn,test,fZ8DCpxJYdZe68Xk8SikmwPvHcn1,fZ8DCpxJYdZe68Xk8SikmwPvHcn1,option-scale-rating,12,78406,0.0-12.0,1.0,3.0,0.23,9,What percent of the time did you win when choosing this option?,0.6716819971922559,focus,3.0,1.0,9.0,,,,,,,,,,,,,,,,638526640404d47424e281ff,08:53:59,03/04/2024
2937.0,delaylearn,test,fZ8DCpxJYdZe68Xk8SikmwPvHcn1,fZ8DCpxJYdZe68Xk8SikmwPvHcn1,option-scale-rating,13,84357,0.0-13.0,1.0,4.0,0.77,14,What percent of the time did you win when choosing this option?,0.4612653439035197,focus,3.0,1.0,14.0,,,,,,,,,,,,,,,,638526640404d47424e281ff,08:53:59,03/04/2024
2594.0,delaylearn,test,fZ8DCpxJYdZe68Xk8SikmwPvHcn1,fZ8DCpxJYdZe68Xk8SikmwPvHcn1,option-scale-rating,14,89951,0.0-14.0,1.0,5.0,0.23,12,What percent of the time did you win when choosing this option?,0.6237653335720486,focus,3.0,0.0,12.0,,,,,,,,,,,,,,,,638526640404d47424e281ff,08:53:59,03/04/2024
2844.0,delaylearn,test,fZ8DCpxJYdZe68Xk8SikmwPvHcn1,fZ8DCpxJYdZe68Xk8SikmwPvHcn1,option-scale-rating,15,95808,0.0-15.0,1.0,6.0,0.23,2,What percent of the time did you win when choosing this option?,0.2737653558244479,focus,3.0,0.0,2.0,,,,,,,,,,,,,,,,638526640404d47424e281ff,08:53:59,03/04/2024
2887.0,delaylearn,test,fZ8DCpxJYdZe68Xk8SikmwPvHcn1,fZ8DCpxJYdZe68Xk8SikmwPvHcn1,option-scale-rating,16,101703,0.0-16.0,1.0,7.0,0.77,15,What percent of the time did you win when choosing this option?,0.5550153379430556,focus,3.0,1.0,15.0,,,,,,,,,,,,,,,,638526640404d47424e281ff,08:53:59,03/04/2024
2745.0,delaylearn,test,fZ8DCpxJYdZe68Xk8SikmwPvHcn1,fZ8DCpxJYdZe68Xk8SikmwPvHcn1,option-scale-rating,17,107455,0.0-17.0,1.0,8.0,0.77,16,What percent of the time did you win when choosing this option?,0.1883486945884263,focus,3.0,0.0,16.0,,,,,,,,,,,,,,,,638526640404d47424e281ff,08:53:59,03/04/2024
2249.0,delaylearn,test,fZ8DCpxJYdZe68Xk8SikmwPvHcn1,fZ8DCpxJYdZe68Xk8SikmwPvHcn1,option-scale-rating,18,112711,0.0-18.0,1.0,9.0,0.23,3,What percent of the time did you win when choosing this option?,0.43001534589034107,focus,3.0,0.0,3.0,,,,,,,,,,,,,,,,638526640404d47424e281ff,08:53:59,03/04/2024
2326.0,delaylearn,test,fZ8DCpxJYdZe68Xk8SikmwPvHcn1,fZ8DCpxJYdZe68Xk8SikmwPvHcn1,option-scale-rating,19,118047,0.0-19.0,1.0,10.0,0.77,13,What percent of the time did you win when choosing this option?,0.8404319864634204,focus,3.0,1.0,13.0,,,,,,,,,,,,,,,,638526640404d47424e281ff,08:53:59,03/04/2024
2327.0,delaylearn,test,fZ8DCpxJYdZe68Xk8SikmwPvHcn1,fZ8DCpxJYdZe68Xk8SikmwPvHcn1,option-scale-rating,20,123383,0.0-20.0,1.0,11.0,0.77,11,What percent of the time did you win when choosing this option?,0.6487653319825915,focus,3.0,0.0,11.0,,,,,,,,,,,,,,,,638526640404d47424e281ff,08:53:59,03/04/2024
2039.0,delaylearn,test,fZ8DCpxJYdZe68Xk8SikmwPvHcn1,fZ8DCpxJYdZe68Xk8SikmwPvHcn1,option-scale-rating,21,128430,0.0-21.0,1.0,12.0,0.23,8,What percent of the time did you win when choosing this option?,0.19251536099018346,focus,3.0,1.0,8.0,,,,,,,,,,,,,,,,638526640404d47424e281ff,08:53:59,03/04/2024
16199.300000000047,delaylearn,test,fZ8DCpxJYdZe68Xk8SikmwPvHcn1,fZ8DCpxJYdZe68Xk8SikmwPvHcn1,lmdlab-instructions,22,144630,0.0-22.0,,,,,,,,,,,,,,,,,,,,,,,,,,638526640404d47424e281ff,08:53:59,03/04/2024
6994.900000000023,delaylearn,test,fZ8DCpxJYdZe68Xk8SikmwPvHcn1,fZ8DCpxJYdZe68Xk8SikmwPvHcn1,lmdlab-rest-trial-limit,25,169432,0.0-25.0,,,,"<p style='font-size: 4rem;'>Great! Next, you will start the real choices.<br><br><br>Just try to remember which picture was 'luckier'<br><br>and won you more points in session 1!<br><br><br>When you are ready, press the button<br><br>to move on.</p><br><br><br><br>",,,,,,,0.0,,,,,,,,,,,,,,,638526640404d47424e281ff,08:53:59,03/04/2024
1287.5,delaylearn,test,fZ8DCpxJYdZe68Xk8SikmwPvHcn1,fZ8DCpxJYdZe68Xk8SikmwPvHcn1,choice-confidence,27,184214,0.0-27.0,1.0,1.0,,,,2.0,focus,3.0,1.0,,,14.0,8.0,14.0,8.0,1.0,Stimuli/Image_Stimuli/14.png,Stimuli/Image_Stimuli/8.png,2.0,8.0,0.0,2.0,2379.100000000093,5845.0,1.0,638526640404d47424e281ff,08:53:59,03/04/2024
1147.9000000000233,delaylearn,test,fZ8DCpxJYdZe68Xk8SikmwPvHcn1,fZ8DCpxJYdZe68Xk8SikmwPvHcn1,choice-confidence,28,193722,0.0-28.0,1.0,2.0,,,,2.0,focus,3.0,0.0,,,6.0,12.0,6.0,12.0,2.0,Stimuli/Image_Stimuli/12.png,Stimuli/Image_Stimuli/6.png,1.0,12.0,0.0,3.0,1652.0999999999767,5409.0,6.0,638526640404d47424e281ff,08:53:59,03/04/2024
941.6999999999534,delaylearn,test,fZ8DCpxJYdZe68Xk8SikmwPvHcn1,fZ8DCpxJYdZe68Xk8SikmwPvHcn1,choice-confidence,29,202353,0.0-29.0,1.0,3.0,,,,2.0,focus,3.0,1.0,,,15.0,9.0,15.0,9.0,2.0,Stimuli/Image_Stimuli/9.png,Stimuli/Image_Stimuli/15.png,1.0,9.0,0.0,4.0,1683.0999999999767,4722.0,3.0,638526640404d47424e281ff,08:53:59,03/04/2024
3613.5999999999767,delaylearn,test,fZ8DCpxJYdZe68Xk8SikmwPvHcn1,fZ8DCpxJYdZe68Xk8SikmwPvHcn1,choice-confidence,30,213830,0.0-30.0,1.0,4.0,,,,2.0,focus,3.0,0.0,,,16.0,3.0,16.0,3.0,2.0,Stimuli/Image_Stimuli/3.png,Stimuli/Image_Stimuli/16.png,1.0,3.0,0.0,3.0,1225.0,5348.0,5.0,638526640404d47424e281ff,08:53:59,03/04/2024
883.0999999999767,delaylearn,test,fZ8DCpxJYdZe68Xk8SikmwPvHcn1,fZ8DCpxJYdZe68Xk8SikmwPvHcn1,choice-confidence,31,223138,0.0-31.0,1.0,5.0,,,,2.0,focus,3.0,0.0,,,11.0,2.0,11.0,2.0,1.0,Stimuli/Image_Stimuli/11.png,Stimuli/Image_Stimuli/2.png,2.0,2.0,0.0,3.0,2379.0,4750.0,4.0,638526640404d47424e281ff,08:53:59,03/04/2024
1103.4000000000233,delaylearn,test,fZ8DCpxJYdZe68Xk8SikmwPvHcn1,fZ8DCpxJYdZe68Xk8SikmwPvHcn1,choice-confidence,32,231005,0.0-32.0,1.0,6.0,,,,1.0,focus,3.0,1.0,,,13.0,10.0,13.0,10.0,1.0,Stimuli/Image_Stimuli/13.png,Stimuli/Image_Stimuli/10.png,1.0,13.0,1.0,4.0,1160.5999999999767,4307.0,2.0,638526640404d47424e281ff,08:53:59,03/04/2024
982.5999999999767,delaylearn,test,fZ8DCpxJYdZe68Xk8SikmwPvHcn1,fZ8DCpxJYdZe68Xk8SikmwPvHcn1,choice-confidence,33,239194,0.0-33.0,1.0,7.0,,,,1.0,focus,3.0,1.0,,,13.0,8.0,13.0,8.0,2.0,Stimuli/Image_Stimuli/8.png,Stimuli/Image_Stimuli/13.png,2.0,13.0,1.0,4.0,1430.5999999999767,4488.0,21.0,638526640404d47424e281ff,08:53:59,03/04/2024
820.5999999999767,delaylearn,test,fZ8DCpxJYdZe68Xk8SikmwPvHcn1,fZ8DCpxJYdZe68Xk8SikmwPvHcn1,choice-confidence,34,247130,0.0-34.0,1.0,8.0,,,,1.0,focus,3.0,0.0,,,11.0,12.0,11.0,12.0,2.0,Stimuli/Image_Stimuli/12.png,Stimuli/Image_Stimuli/11.png,2.0,11.0,1.0,4.0,1052.1999999999534,4774.0,46.0,638526640404d47424e281ff,08:53:59,03/04/2024
1421.5,delaylearn,test,fZ8DCpxJYdZe68Xk8SikmwPvHcn1,fZ8DCpxJYdZe68Xk8SikmwPvHcn1,choice-confidence,35,257182,0.0-35.0,1.0,9.0,,,,1.0,focus,3.0,1.0,,,15.0,10.0,15.0,10.0,2.0,Stimuli/Image_Stimuli/10.png,Stimuli/Image_Stimuli/15.png,2.0,15.0,1.0,2.0,1400.2999999999302,5938.0,32.0,638526640404d47424e281ff,08:53:59,03/04/2024
1120.5999999999767,delaylearn,test,fZ8DCpxJYdZe68Xk8SikmwPvHcn1,fZ8DCpxJYdZe68Xk8SikmwPvHcn1,choice-confidence,36,265948,0.0-36.0,1.0,10.0,,,,2.0,focus,3.0,0.0,,,16.0,2.0,16.0,2.0,1.0,Stimuli/Image_Stimuli/16.png,Stimuli/Image_Stimuli/2.png,2.0,2.0,0.0,3.0,1299.7000000000698,5049.0,54.0,638526640404d47424e281ff,08:53:59,03/04/2024
1749.2000000000698,delaylearn,test,fZ8DCpxJYdZe68Xk8SikmwPvHcn1,fZ8DCpxJYdZe68Xk8SikmwPvHcn1,choice-confidence,37,274278,0.0-37.0,1.0,11.0,,,,1.0,focus,3.0,1.0,,,14.0,9.0,14.0,9.0,1.0,Stimuli/Image_Stimuli/14.png,Stimuli/Image_Stimuli/9.png,1.0,14.0,1.0,2.0,437.70000000006985,4854.0,13.0,638526640404d47424e281ff,08:53:59,03/04/2024
1933.8000000000466,delaylearn,test,fZ8DCpxJYdZe68Xk8SikmwPvHcn1,fZ8DCpxJYdZe68Xk8SikmwPvHcn1,choice-confidence,38,282714,0.0-38.0,1.0,12.0,,,,1.0,blur,3.0,0.0,,,6.0,3.0,6.0,3.0,1.0,Stimuli/Image_Stimuli/6.png,Stimuli/Image_Stimuli/3.png,1.0,6.0,1.0,3.0,410.80000000004657,4802.0,65.0,638526640404d47424e281ff,08:53:59,03/04/2024
10266.400000000023,delaylearn,test,fZ8DCpxJYdZe68Xk8SikmwPvHcn1,fZ8DCpxJYdZe68Xk8SikmwPvHcn1,choice-confidence,39,300253,0.0-39.0,1.0,13.0,,,,2.0,focus,3.0,0.5,,,14.0,16.0,14.0,16.0,1.0,Stimuli/Image_Stimuli/14.png,Stimuli/Image_Stimuli/16.png,2.0,16.0,0.0,2.0,1127.0,4876.0,15.0,638526640404d47424e281ff,08:53:59,03/04/2024
3046.0,delaylearn,test,fZ8DCpxJYdZe68Xk8SikmwPvHcn1,fZ8DCpxJYdZe68Xk8SikmwPvHcn1,choice-confidence,40,311506,0.0-40.0,1.0,14.0,,,,2.0,focus,3.0,0.5,,,8.0,2.0,8.0,2.0,2.0,Stimuli/Image_Stimuli/2.png,Stimuli/Image_Stimuli/8.png,1.0,2.0,0.0,2.0,1920.7000000000698,5005.0,14.0,638526640404d47424e281ff,08:53:59,03/04/2024
1395.1000000000931,delaylearn,test,fZ8DCpxJYdZe68Xk8SikmwPvHcn1,fZ8DCpxJYdZe68Xk8SikmwPvHcn1,choice-confidence,41,319913,0.0-41.0,1.0,15.0,,,,1.0,focus,3.0,0.5,,,13.0,6.0,13.0,6.0,2.0,Stimuli/Image_Stimuli/6.png,Stimuli/Image_Stimuli/13.png,2.0,13.0,1.0,4.0,694.0,5029.0,26.0,638526640404d47424e281ff,08:53:59,03/04/2024
2552.9000000000233,delaylearn,test,fZ8DCpxJYdZe68Xk8SikmwPvHcn1,fZ8DCpxJYdZe68Xk8SikmwPvHcn1,choice-confidence,42,330682,0.0-42.0,1.0,16.0,,,,1.0,focus,3.0,0.5,,,10.0,3.0,10.0,3.0,2.0,Stimuli/Image_Stimuli/3.png,Stimuli/Image_Stimuli/10.png,2.0,10.0,1.0,4.0,1238.5999999999767,5700.0,25.0,638526640404d47424e281ff,08:53:59,03/04/2024
2956.29999999993,delaylearn,test,fZ8DCpxJYdZe68Xk8SikmwPvHcn1,fZ8DCpxJYdZe68Xk8SikmwPvHcn1,choice-confidence,43,341968,0.0-43.0,1.0,17.0,,,,2.0,focus,3.0,0.5,,,15.0,11.0,15.0,11.0,2.0,Stimuli/Image_Stimuli/11.png,Stimuli/Image_Stimuli/15.png,1.0,11.0,0.0,4.0,1319.7999999999302,5733.0,34.0,638526640404d47424e281ff,08:53:59,03/04/2024
1538.7000000000698,delaylearn,test,fZ8DCpxJYdZe68Xk8SikmwPvHcn1,fZ8DCpxJYdZe68Xk8SikmwPvHcn1,choice-confidence,44,351436,0.0-44.0,1.0,18.0,,,,2.0,focus,3.0,0.5,,,9.0,12.0,9.0,12.0,2.0,Stimuli/Image_Stimuli/12.png,Stimuli/Image_Stimuli/9.png,1.0,12.0,0.0,2.0,962.0999999999767,5675.0,36.0,638526640404d47424e281ff,08:53:59,03/04/2024
