rt,exp_name,exp_stage,subjectID,databaseID,trial_type,trial_index,time_elapsed,internal_node_id,block_curr,trial_curr,value_true,stimulus,text,response,userinteract,counterbal,delay,stim,rest_warning,stim1id,stim2id,stim1,stim2,leftright_counter,stim_left,stim_right,response_key,stim_selected,response_acc,confidence,rt_conf,iti_duration,pair,prolificID,start_time,date
38402,delaylearn,test,k06tA1K46mVKhs962UxfoQkO5NE3,k06tA1K46mVKhs962UxfoQkO5NE3,lmdlab-instructions,4,42854,0.0-4.0,,,,,,,,,,,,,,,,,,,,,,,,,,62ce9f115a24ca323371d2dc,14:17:10,06/03/2024
4774,delaylearn,test,k06tA1K46mVKhs962UxfoQkO5NE3,k06tA1K46mVKhs962UxfoQkO5NE3,option-scale-rating,6,52065,0.0-6.0,2.0,1.0,0.23,2,What percent of the time did you win when choosing this option?,0.8194701583297165,fullscreenenter,5.0,1.0,2.0,,,,,,,,,,,,,,,,62ce9f115a24ca323371d2dc,14:17:10,06/03/2024
8791,delaylearn,test,k06tA1K46mVKhs962UxfoQkO5NE3,k06tA1K46mVKhs962UxfoQkO5NE3,option-scale-rating,7,63865,0.0-7.0,2.0,2.0,0.77,8,What percent of the time did you win when choosing this option?,0.1574331212926794,fullscreenenter,5.0,0.0,8.0,,,,,,,,,,,,,,,,62ce9f115a24ca323371d2dc,14:17:10,06/03/2024
7394,delaylearn,test,k06tA1K46mVKhs962UxfoQkO5NE3,k06tA1K46mVKhs962UxfoQkO5NE3,option-scale-rating,8,74264,0.0-8.0,2.0,3.0,0.23,4,What percent of the time did you win when choosing this option?,0.14354423240379052,fullscreenenter,5.0,1.0,4.0,,,,,,,,,,,,,,,,62ce9f115a24ca323371d2dc,14:17:10,06/03/2024
2322,delaylearn,test,k06tA1K46mVKhs962UxfoQkO5NE3,k06tA1K46mVKhs962UxfoQkO5NE3,option-scale-rating,9,79591,0.0-9.0,2.0,4.0,0.77,6,What percent of the time did you win when choosing this option?,0.8302726274655189,fullscreenenter,5.0,1.0,6.0,,,,,,,,,,,,,,,,62ce9f115a24ca323371d2dc,14:17:10,06/03/2024
2195,delaylearn,test,k06tA1K46mVKhs962UxfoQkO5NE3,k06tA1K46mVKhs962UxfoQkO5NE3,option-scale-rating,10,84791,0.0-10.0,2.0,5.0,0.23,10,What percent of the time did you win when choosing this option?,0.8349022570951485,fullscreenenter,5.0,0.0,10.0,,,,,,,,,,,,,,,,62ce9f115a24ca323371d2dc,14:17:10,06/03/2024
5858,delaylearn,test,k06tA1K46mVKhs962UxfoQkO5NE3,k06tA1K46mVKhs962UxfoQkO5NE3,option-scale-rating,11,93655,0.0-11.0,2.0,6.0,0.23,13,What percent of the time did you win when choosing this option?,0.15126028178650655,fullscreenenter,5.0,0.0,13.0,,,,,,,,,,,,,,,,62ce9f115a24ca323371d2dc,14:17:10,06/03/2024
4125,delaylearn,test,k06tA1K46mVKhs962UxfoQkO5NE3,k06tA1K46mVKhs962UxfoQkO5NE3,option-scale-rating,12,100785,0.0-12.0,2.0,7.0,0.77,11,What percent of the time did you win when choosing this option?,0.14354423240379052,fullscreenenter,5.0,1.0,11.0,,,,,,,,,,,,,,,,62ce9f115a24ca323371d2dc,14:17:10,06/03/2024
4228,delaylearn,test,k06tA1K46mVKhs962UxfoQkO5NE3,k06tA1K46mVKhs962UxfoQkO5NE3,option-scale-rating,13,108018,0.0-13.0,2.0,8.0,0.77,14,What percent of the time did you win when choosing this option?,0.8364454669716918,fullscreenenter,5.0,0.0,14.0,,,,,,,,,,,,,,,,62ce9f115a24ca323371d2dc,14:17:10,06/03/2024
2314,delaylearn,test,k06tA1K46mVKhs962UxfoQkO5NE3,k06tA1K46mVKhs962UxfoQkO5NE3,option-scale-rating,14,113337,0.0-14.0,2.0,9.0,0.23,9,What percent of the time did you win when choosing this option?,0.8426183064778646,fullscreenenter,5.0,0.0,9.0,,,,,,,,,,,,,,,,62ce9f115a24ca323371d2dc,14:17:10,06/03/2024
2431,delaylearn,test,k06tA1K46mVKhs962UxfoQkO5NE3,k06tA1K46mVKhs962UxfoQkO5NE3,option-scale-rating,15,118773,0.0-15.0,2.0,10.0,0.77,16,What percent of the time did you win when choosing this option?,0.14354423240379052,fullscreenenter,5.0,1.0,16.0,,,,,,,,,,,,,,,,62ce9f115a24ca323371d2dc,14:17:10,06/03/2024
4207,delaylearn,test,k06tA1K46mVKhs962UxfoQkO5NE3,k06tA1K46mVKhs962UxfoQkO5NE3,option-scale-rating,16,125986,0.0-16.0,2.0,11.0,0.77,7,What percent of the time did you win when choosing this option?,0.8472479361074942,fullscreenenter,5.0,0.0,7.0,,,,,,,,,,,,,,,,62ce9f115a24ca323371d2dc,14:17:10,06/03/2024
7995,delaylearn,test,k06tA1K46mVKhs962UxfoQkO5NE3,k06tA1K46mVKhs962UxfoQkO5NE3,option-scale-rating,17,136986,0.0-17.0,2.0,12.0,0.23,15,What percent of the time did you win when choosing this option?,0.15126028178650655,fullscreenenter,5.0,1.0,15.0,,,,,,,,,,,,,,,,62ce9f115a24ca323371d2dc,14:17:10,06/03/2024
22030,delaylearn,test,k06tA1K46mVKhs962UxfoQkO5NE3,k06tA1K46mVKhs962UxfoQkO5NE3,lmdlab-instructions,18,159017,0.0-18.0,,,,,,,,,,,,,,,,,,,,,,,,,,62ce9f115a24ca323371d2dc,14:17:10,06/03/2024
5284,delaylearn,test,k06tA1K46mVKhs962UxfoQkO5NE3,k06tA1K46mVKhs962UxfoQkO5NE3,lmdlab-rest-trial-limit,21,183040,0.0-21.0,,,,"<p style='font-size: 4rem;'>Great.  Next, you will start the real choices.<br><br><br>Just try to remember which picture was 'luckier' and won you more points in session 1!<br><br>When you are ready, press the button<br><br>to move on.</p><br><br><br><br>",,,,,,,0.0,,,,,,,,,,,,,,,62ce9f115a24ca323371d2dc,14:17:10,06/03/2024
3793,delaylearn,test,k06tA1K46mVKhs962UxfoQkO5NE3,k06tA1K46mVKhs962UxfoQkO5NE3,lmdlab-html-vas-response,22,188339,0.0-22.0,,,,How <b>happy</b> are you right now?,,0.7098765432098766,,,,,,,,,,,,,,,,,,,,62ce9f115a24ca323371d2dc,14:17:10,06/03/2024
1490,delaylearn,test,k06tA1K46mVKhs962UxfoQkO5NE3,k06tA1K46mVKhs962UxfoQkO5NE3,choice-confidence,24,200886,0.0-24.0,1.0,1.0,,,,1.0,fullscreenenter,5.0,1.0,,,6.0,15.0,6.0,15.0,1.0,Stimuli/Image_Stimuli/6.png,Stimuli/Image_Stimuli/15.png,1.0,6.0,1.0,3.0,1425.0,4604.0,1.0,62ce9f115a24ca323371d2dc,14:17:10,06/03/2024
2262,delaylearn,test,k06tA1K46mVKhs962UxfoQkO5NE3,k06tA1K46mVKhs962UxfoQkO5NE3,choice-confidence,25,209478,0.0-25.0,1.0,2.0,,,,2.0,fullscreenenter,5.0,0.0,,,8.0,10.0,8.0,10.0,1.0,Stimuli/Image_Stimuli/8.png,Stimuli/Image_Stimuli/10.png,2.0,10.0,0.0,3.0,865.0,4196.0,6.0,62ce9f115a24ca323371d2dc,14:17:10,06/03/2024
3479,delaylearn,test,k06tA1K46mVKhs962UxfoQkO5NE3,k06tA1K46mVKhs962UxfoQkO5NE3,choice-confidence,26,220332,0.0-26.0,1.0,3.0,,,,1.0,fullscreenenter,5.0,1.0,,,11.0,4.0,11.0,4.0,2.0,Stimuli/Image_Stimuli/4.png,Stimuli/Image_Stimuli/11.png,2.0,11.0,1.0,3.0,868.0,5243.0,3.0,62ce9f115a24ca323371d2dc,14:17:10,06/03/2024
5649,delaylearn,test,k06tA1K46mVKhs962UxfoQkO5NE3,k06tA1K46mVKhs962UxfoQkO5NE3,choice-confidence,27,232239,0.0-27.0,1.0,4.0,,,,1.0,fullscreenenter,5.0,0.0,,,14.0,9.0,14.0,9.0,2.0,Stimuli/Image_Stimuli/9.png,Stimuli/Image_Stimuli/14.png,2.0,14.0,1.0,3.0,909.0,4080.0,5.0,62ce9f115a24ca323371d2dc,14:17:10,06/03/2024
1261,delaylearn,test,k06tA1K46mVKhs962UxfoQkO5NE3,k06tA1K46mVKhs962UxfoQkO5NE3,choice-confidence,28,241769,0.0-28.0,1.0,5.0,,,,1.0,fullscreenenter,5.0,0.0,,,7.0,13.0,7.0,13.0,1.0,Stimuli/Image_Stimuli/7.png,Stimuli/Image_Stimuli/13.png,1.0,7.0,1.0,3.0,1077.0,5931.0,4.0,62ce9f115a24ca323371d2dc,14:17:10,06/03/2024
1322,delaylearn,test,k06tA1K46mVKhs962UxfoQkO5NE3,k06tA1K46mVKhs962UxfoQkO5NE3,choice-confidence,29,249830,0.0-29.0,1.0,6.0,,,,2.0,fullscreenenter,5.0,1.0,,,16.0,2.0,16.0,2.0,1.0,Stimuli/Image_Stimuli/16.png,Stimuli/Image_Stimuli/2.png,2.0,2.0,0.0,3.0,445.0,5034.0,2.0,62ce9f115a24ca323371d2dc,14:17:10,06/03/2024
2628,delaylearn,test,k06tA1K46mVKhs962UxfoQkO5NE3,k06tA1K46mVKhs962UxfoQkO5NE3,choice-confidence,30,259501,0.0-30.0,1.0,7.0,,,,2.0,fullscreenenter,5.0,1.0,,,16.0,15.0,16.0,15.0,1.0,Stimuli/Image_Stimuli/16.png,Stimuli/Image_Stimuli/15.png,2.0,15.0,0.0,2.0,1069.0,4712.0,21.0,62ce9f115a24ca323371d2dc,14:17:10,06/03/2024
2765,delaylearn,test,k06tA1K46mVKhs962UxfoQkO5NE3,k06tA1K46mVKhs962UxfoQkO5NE3,choice-confidence,31,269718,0.0-31.0,1.0,8.0,,,,1.0,fullscreenenter,5.0,0.0,,,7.0,10.0,7.0,10.0,2.0,Stimuli/Image_Stimuli/10.png,Stimuli/Image_Stimuli/7.png,2.0,7.0,1.0,3.0,496.0,5695.0,46.0,62ce9f115a24ca323371d2dc,14:17:10,06/03/2024
1476,delaylearn,test,k06tA1K46mVKhs962UxfoQkO5NE3,k06tA1K46mVKhs962UxfoQkO5NE3,choice-confidence,32,278786,0.0-32.0,1.0,9.0,,,,2.0,fullscreenenter,5.0,1.0,,,11.0,2.0,11.0,2.0,2.0,Stimuli/Image_Stimuli/2.png,Stimuli/Image_Stimuli/11.png,1.0,2.0,0.0,3.0,589.0,5742.0,32.0,62ce9f115a24ca323371d2dc,14:17:10,06/03/2024
1351,delaylearn,test,k06tA1K46mVKhs962UxfoQkO5NE3,k06tA1K46mVKhs962UxfoQkO5NE3,choice-confidence,33,288930,0.0-33.0,1.0,10.0,,,,1.0,fullscreenenter,5.0,0.0,,,14.0,13.0,14.0,13.0,2.0,Stimuli/Image_Stimuli/13.png,Stimuli/Image_Stimuli/14.png,2.0,14.0,1.0,2.0,2805.0,4727.0,54.0,62ce9f115a24ca323371d2dc,14:17:10,06/03/2024
1439,delaylearn,test,k06tA1K46mVKhs962UxfoQkO5NE3,k06tA1K46mVKhs962UxfoQkO5NE3,choice-confidence,34,297163,0.0-34.0,1.0,11.0,,,,1.0,fullscreenenter,5.0,1.0,,,6.0,4.0,6.0,4.0,2.0,Stimuli/Image_Stimuli/4.png,Stimuli/Image_Stimuli/6.png,2.0,6.0,1.0,3.0,309.0,5222.0,13.0,62ce9f115a24ca323371d2dc,14:17:10,06/03/2024
2414,delaylearn,test,k06tA1K46mVKhs962UxfoQkO5NE3,k06tA1K46mVKhs962UxfoQkO5NE3,choice-confidence,35,306589,0.0-35.0,1.0,12.0,,,,2.0,fullscreenenter,5.0,0.0,,,8.0,9.0,8.0,9.0,1.0,Stimuli/Image_Stimuli/8.png,Stimuli/Image_Stimuli/9.png,2.0,9.0,0.0,2.0,379.0,5364.0,65.0,62ce9f115a24ca323371d2dc,14:17:10,06/03/2024
1261,delaylearn,test,k06tA1K46mVKhs962UxfoQkO5NE3,k06tA1K46mVKhs962UxfoQkO5NE3,choice-confidence,36,315302,0.0-36.0,1.0,13.0,,,,1.0,fullscreenenter,5.0,0.5,,,6.0,14.0,6.0,14.0,2.0,Stimuli/Image_Stimuli/14.png,Stimuli/Image_Stimuli/6.png,2.0,6.0,1.0,3.0,427.0,5759.0,15.0,62ce9f115a24ca323371d2dc,14:17:10,06/03/2024
3852,delaylearn,test,k06tA1K46mVKhs962UxfoQkO5NE3,k06tA1K46mVKhs962UxfoQkO5NE3,choice-confidence,37,326664,0.0-37.0,1.0,14.0,,,,1.0,fullscreenenter,5.0,0.5,,,15.0,13.0,15.0,13.0,2.0,Stimuli/Image_Stimuli/13.png,Stimuli/Image_Stimuli/15.png,2.0,15.0,1.0,2.0,430.0,5820.0,14.0,62ce9f115a24ca323371d2dc,14:17:10,06/03/2024
1552,delaylearn,test,k06tA1K46mVKhs962UxfoQkO5NE3,k06tA1K46mVKhs962UxfoQkO5NE3,choice-confidence,38,334583,0.0-38.0,1.0,15.0,,,,2.0,fullscreenenter,5.0,0.5,,,16.0,8.0,16.0,8.0,1.0,Stimuli/Image_Stimuli/16.png,Stimuli/Image_Stimuli/8.png,2.0,8.0,0.0,2.0,936.0,4169.0,26.0,62ce9f115a24ca323371d2dc,14:17:10,06/03/2024
2097,delaylearn,test,k06tA1K46mVKhs962UxfoQkO5NE3,k06tA1K46mVKhs962UxfoQkO5NE3,choice-confidence,39,342265,0.0-39.0,1.0,16.0,,,,1.0,fullscreenenter,5.0,0.5,,,2.0,9.0,2.0,9.0,1.0,Stimuli/Image_Stimuli/2.png,Stimuli/Image_Stimuli/9.png,1.0,2.0,1.0,3.0,303.0,4021.0,25.0,62ce9f115a24ca323371d2dc,14:17:10,06/03/2024
1279,delaylearn,test,k06tA1K46mVKhs962UxfoQkO5NE3,k06tA1K46mVKhs962UxfoQkO5NE3,choice-confidence,40,350919,0.0-40.0,1.0,17.0,,,,2.0,fullscreenenter,5.0,0.5,,,11.0,7.0,11.0,7.0,1.0,Stimuli/Image_Stimuli/11.png,Stimuli/Image_Stimuli/7.png,2.0,7.0,0.0,3.0,414.0,5700.0,34.0,62ce9f115a24ca323371d2dc,14:17:10,06/03/2024
3120,delaylearn,test,k06tA1K46mVKhs962UxfoQkO5NE3,k06tA1K46mVKhs962UxfoQkO5NE3,choice-confidence,41,359824,0.0-41.0,1.0,18.0,,,,1.0,fullscreenenter,5.0,0.5,,,4.0,10.0,4.0,10.0,1.0,Stimuli/Image_Stimuli/4.png,Stimuli/Image_Stimuli/10.png,1.0,4.0,1.0,3.0,468.0,4053.0,36.0,62ce9f115a24ca323371d2dc,14:17:10,06/03/2024
