rt,exp_name,exp_stage,subjectID,databaseID,trial_type,trial_index,time_elapsed,internal_node_id,block_curr,trial_curr,value_true,stimulus,text,response,userinteract,counterbal,delay,stim,rest_warning,stim1id,stim2id,stim1,stim2,leftright_counter,stim_left,stim_right,response_key,stim_selected,response_acc,confidence,rt_conf,iti_duration,pair,prolificID,start_time,date
67460.30000007153,delaylearn,test,fo5erlFfLBfgJV0DTIQg5lAAzRf2,fo5erlFfLBfgJV0DTIQg5lAAzRf2,lmdlab-instructions,4,76266,0.0-4.0,,,,,,,,,,,,,,,,,,,,,,,,,,5f0ebcdf13efbf091b37c4b4,15:35:57,06/03/2024
5009.0,delaylearn,test,fo5erlFfLBfgJV0DTIQg5lAAzRf2,fo5erlFfLBfgJV0DTIQg5lAAzRf2,option-scale-rating,6,85440,0.0-6.0,2.0,1.0,0.23,10,What percent of the time did you win when choosing this option?,0.1037037037037037,fullscreenenter,3.0,1.0,10.0,,,,,,,,,,,,,,,,5f0ebcdf13efbf091b37c4b4,15:35:57,06/03/2024
4724.0,delaylearn,test,fo5erlFfLBfgJV0DTIQg5lAAzRf2,fo5erlFfLBfgJV0DTIQg5lAAzRf2,option-scale-rating,7,93175,0.0-7.0,2.0,2.0,0.77,6,What percent of the time did you win when choosing this option?,0.7333333333333333,fullscreenenter,3.0,0.0,6.0,,,,,,,,,,,,,,,,5f0ebcdf13efbf091b37c4b4,15:35:57,06/03/2024
4183.0,delaylearn,test,fo5erlFfLBfgJV0DTIQg5lAAzRf2,fo5erlFfLBfgJV0DTIQg5lAAzRf2,option-scale-rating,8,100369,0.0-8.0,2.0,3.0,0.23,9,What percent of the time did you win when choosing this option?,0.007407407407407408,fullscreenenter,3.0,1.0,9.0,,,,,,,,,,,,,,,,5f0ebcdf13efbf091b37c4b4,15:35:57,06/03/2024
5503.0,delaylearn,test,fo5erlFfLBfgJV0DTIQg5lAAzRf2,fo5erlFfLBfgJV0DTIQg5lAAzRf2,option-scale-rating,9,108883,0.0-9.0,2.0,4.0,0.77,14,What percent of the time did you win when choosing this option?,0.003703703703703704,fullscreenenter,3.0,1.0,14.0,,,,,,,,,,,,,,,,5f0ebcdf13efbf091b37c4b4,15:35:57,06/03/2024
2841.0,delaylearn,test,fo5erlFfLBfgJV0DTIQg5lAAzRf2,fo5erlFfLBfgJV0DTIQg5lAAzRf2,option-scale-rating,10,114736,0.0-10.0,2.0,5.0,0.23,12,What percent of the time did you win when choosing this option?,0.8222222222222222,fullscreenenter,3.0,0.0,12.0,,,,,,,,,,,,,,,,5f0ebcdf13efbf091b37c4b4,15:35:57,06/03/2024
4054.0,delaylearn,test,fo5erlFfLBfgJV0DTIQg5lAAzRf2,fo5erlFfLBfgJV0DTIQg5lAAzRf2,option-scale-rating,11,121796,0.0-11.0,2.0,6.0,0.23,2,What percent of the time did you win when choosing this option?,0.22962962962962963,fullscreenenter,3.0,0.0,2.0,,,,,,,,,,,,,,,,5f0ebcdf13efbf091b37c4b4,15:35:57,06/03/2024
3002.0,delaylearn,test,fo5erlFfLBfgJV0DTIQg5lAAzRf2,fo5erlFfLBfgJV0DTIQg5lAAzRf2,option-scale-rating,12,127809,0.0-12.0,2.0,7.0,0.77,15,What percent of the time did you win when choosing this option?,0.012962962962962963,fullscreenenter,3.0,1.0,15.0,,,,,,,,,,,,,,,,5f0ebcdf13efbf091b37c4b4,15:35:57,06/03/2024
4374.0,delaylearn,test,fo5erlFfLBfgJV0DTIQg5lAAzRf2,fo5erlFfLBfgJV0DTIQg5lAAzRf2,option-scale-rating,13,135195,0.0-13.0,2.0,8.0,0.77,16,What percent of the time did you win when choosing this option?,0.09444444444444444,fullscreenenter,3.0,0.0,16.0,,,,,,,,,,,,,,,,5f0ebcdf13efbf091b37c4b4,15:35:57,06/03/2024
4558.0,delaylearn,test,fo5erlFfLBfgJV0DTIQg5lAAzRf2,fo5erlFfLBfgJV0DTIQg5lAAzRf2,option-scale-rating,14,142765,0.0-14.0,2.0,9.0,0.23,3,What percent of the time did you win when choosing this option?,0.3592592592592593,fullscreenenter,3.0,0.0,3.0,,,,,,,,,,,,,,,,5f0ebcdf13efbf091b37c4b4,15:35:57,06/03/2024
3525.0,delaylearn,test,fo5erlFfLBfgJV0DTIQg5lAAzRf2,fo5erlFfLBfgJV0DTIQg5lAAzRf2,option-scale-rating,15,149297,0.0-15.0,2.0,10.0,0.77,13,What percent of the time did you win when choosing this option?,0.011111111111111112,fullscreenenter,3.0,1.0,13.0,,,,,,,,,,,,,,,,5f0ebcdf13efbf091b37c4b4,15:35:57,06/03/2024
3650.0,delaylearn,test,fo5erlFfLBfgJV0DTIQg5lAAzRf2,fo5erlFfLBfgJV0DTIQg5lAAzRf2,option-scale-rating,16,155959,0.0-16.0,2.0,11.0,0.77,11,What percent of the time did you win when choosing this option?,0.7888888888888889,fullscreenenter,3.0,0.0,11.0,,,,,,,,,,,,,,,,5f0ebcdf13efbf091b37c4b4,15:35:57,06/03/2024
5259.0,delaylearn,test,fo5erlFfLBfgJV0DTIQg5lAAzRf2,fo5erlFfLBfgJV0DTIQg5lAAzRf2,option-scale-rating,17,164229,0.0-17.0,2.0,12.0,0.23,8,What percent of the time did you win when choosing this option?,0.5574074074074075,fullscreenenter,3.0,1.0,8.0,,,,,,,,,,,,,,,,5f0ebcdf13efbf091b37c4b4,15:35:57,06/03/2024
44738.60000002384,delaylearn,test,fo5erlFfLBfgJV0DTIQg5lAAzRf2,fo5erlFfLBfgJV0DTIQg5lAAzRf2,lmdlab-instructions,18,208968,0.0-18.0,,,,,,,,,,,,,,,,,,,,,,,,,,5f0ebcdf13efbf091b37c4b4,15:35:57,06/03/2024
8060.299999952316,delaylearn,test,fo5erlFfLBfgJV0DTIQg5lAAzRf2,fo5erlFfLBfgJV0DTIQg5lAAzRf2,lmdlab-rest-trial-limit,21,232587,0.0-21.0,,,,"<p style='font-size: 4rem;'>Great.  Next, you will start the real choices.<br><br><br>Just try to remember which picture was 'luckier' and won you more points in session 1!<br><br>When you are ready, press the button<br><br>to move on.</p><br><br><br><br>",,,,,,,0.0,,,,,,,,,,,,,,,5f0ebcdf13efbf091b37c4b4,15:35:57,06/03/2024
2804.0,delaylearn,test,fo5erlFfLBfgJV0DTIQg5lAAzRf2,fo5erlFfLBfgJV0DTIQg5lAAzRf2,lmdlab-html-vas-response,22,236909,0.0-22.0,,,,How <b>happy</b> are you right now?,,0.9425925925925925,,,,,,,,,,,,,,,,,,,,5f0ebcdf13efbf091b37c4b4,15:35:57,06/03/2024
1223.0,delaylearn,test,fo5erlFfLBfgJV0DTIQg5lAAzRf2,fo5erlFfLBfgJV0DTIQg5lAAzRf2,choice-confidence,24,250520,0.0-24.0,1.0,1.0,,,,2.0,fullscreenenter,3.0,1.0,,,14.0,8.0,14.0,8.0,2.0,Stimuli/Image_Stimuli/8.png,Stimuli/Image_Stimuli/14.png,1.0,8.0,0.0,3.0,1529.5999999046326,5593.0,1.0,5f0ebcdf13efbf091b37c4b4,15:35:57,06/03/2024
2931.5,delaylearn,test,fo5erlFfLBfgJV0DTIQg5lAAzRf2,fo5erlFfLBfgJV0DTIQg5lAAzRf2,choice-confidence,25,260222,0.0-25.0,1.0,2.0,,,,2.0,fullscreenenter,3.0,0.0,,,6.0,12.0,6.0,12.0,1.0,Stimuli/Image_Stimuli/6.png,Stimuli/Image_Stimuli/12.png,2.0,12.0,0.0,3.0,578.6999999284744,4912.0,6.0,5f0ebcdf13efbf091b37c4b4,15:35:57,06/03/2024
1312.2000000476837,delaylearn,test,fo5erlFfLBfgJV0DTIQg5lAAzRf2,fo5erlFfLBfgJV0DTIQg5lAAzRf2,choice-confidence,26,270163,0.0-26.0,1.0,3.0,,,,1.0,fullscreenenter,3.0,1.0,,,15.0,9.0,15.0,9.0,2.0,Stimuli/Image_Stimuli/9.png,Stimuli/Image_Stimuli/15.png,2.0,15.0,1.0,4.0,1636.6000000238419,5723.0,3.0,5f0ebcdf13efbf091b37c4b4,15:35:57,06/03/2024
2114.399999976158,delaylearn,test,fo5erlFfLBfgJV0DTIQg5lAAzRf2,fo5erlFfLBfgJV0DTIQg5lAAzRf2,choice-confidence,27,279956,0.0-27.0,1.0,4.0,,,,2.0,fullscreenenter,3.0,0.0,,,16.0,3.0,16.0,3.0,2.0,Stimuli/Image_Stimuli/3.png,Stimuli/Image_Stimuli/16.png,1.0,3.0,0.0,1.0,2071.100000023842,4331.0,5.0,5f0ebcdf13efbf091b37c4b4,15:35:57,06/03/2024
2003.2999999523163,delaylearn,test,fo5erlFfLBfgJV0DTIQg5lAAzRf2,fo5erlFfLBfgJV0DTIQg5lAAzRf2,choice-confidence,28,288504,0.0-28.0,1.0,5.0,,,,1.0,fullscreenenter,3.0,0.0,,,11.0,2.0,11.0,2.0,2.0,Stimuli/Image_Stimuli/2.png,Stimuli/Image_Stimuli/11.png,2.0,11.0,1.0,2.0,675.3000000715256,4597.0,4.0,5f0ebcdf13efbf091b37c4b4,15:35:57,06/03/2024
2567.600000023842,delaylearn,test,fo5erlFfLBfgJV0DTIQg5lAAzRf2,fo5erlFfLBfgJV0DTIQg5lAAzRf2,choice-confidence,29,298811,0.0-29.0,1.0,6.0,,,,2.0,fullscreenenter,3.0,1.0,,,13.0,10.0,13.0,10.0,2.0,Stimuli/Image_Stimuli/10.png,Stimuli/Image_Stimuli/13.png,1.0,10.0,0.0,3.0,1392.2999999523163,5070.0,2.0,5f0ebcdf13efbf091b37c4b4,15:35:57,06/03/2024
2616.5,delaylearn,test,fo5erlFfLBfgJV0DTIQg5lAAzRf2,fo5erlFfLBfgJV0DTIQg5lAAzRf2,choice-confidence,30,308749,0.0-30.0,1.0,7.0,,,,2.0,fullscreenenter,3.0,1.0,,,13.0,8.0,13.0,8.0,2.0,Stimuli/Image_Stimuli/8.png,Stimuli/Image_Stimuli/13.png,1.0,8.0,0.0,4.0,396.39999997615814,5647.0,21.0,5f0ebcdf13efbf091b37c4b4,15:35:57,06/03/2024
2067.8000000715256,delaylearn,test,fo5erlFfLBfgJV0DTIQg5lAAzRf2,fo5erlFfLBfgJV0DTIQg5lAAzRf2,choice-confidence,31,317609,0.0-31.0,1.0,8.0,,,,1.0,fullscreenenter,3.0,0.0,,,11.0,12.0,11.0,12.0,2.0,Stimuli/Image_Stimuli/12.png,Stimuli/Image_Stimuli/11.png,2.0,11.0,1.0,3.0,1056.7999999523163,4459.0,46.0,5f0ebcdf13efbf091b37c4b4,15:35:57,06/03/2024
3045.0,delaylearn,test,fo5erlFfLBfgJV0DTIQg5lAAzRf2,fo5erlFfLBfgJV0DTIQg5lAAzRf2,choice-confidence,32,327857,0.0-32.0,1.0,9.0,,,,1.0,fullscreenenter,3.0,1.0,,,15.0,10.0,15.0,10.0,1.0,Stimuli/Image_Stimuli/15.png,Stimuli/Image_Stimuli/10.png,1.0,15.0,1.0,2.0,789.6000000238419,5137.0,32.0,5f0ebcdf13efbf091b37c4b4,15:35:57,06/03/2024
2288.0,delaylearn,test,fo5erlFfLBfgJV0DTIQg5lAAzRf2,fo5erlFfLBfgJV0DTIQg5lAAzRf2,choice-confidence,33,337646,0.0-33.0,1.0,10.0,,,,2.0,fullscreenenter,3.0,0.0,,,16.0,2.0,16.0,2.0,1.0,Stimuli/Image_Stimuli/16.png,Stimuli/Image_Stimuli/2.png,2.0,2.0,0.0,2.0,434.0,5793.0,54.0,5f0ebcdf13efbf091b37c4b4,15:35:57,06/03/2024
2383.5,delaylearn,test,fo5erlFfLBfgJV0DTIQg5lAAzRf2,fo5erlFfLBfgJV0DTIQg5lAAzRf2,choice-confidence,34,346235,0.0-34.0,1.0,11.0,,,,1.0,fullscreenenter,3.0,1.0,,,14.0,9.0,14.0,9.0,1.0,Stimuli/Image_Stimuli/14.png,Stimuli/Image_Stimuli/9.png,1.0,14.0,1.0,2.0,377.89999997615814,4556.0,13.0,5f0ebcdf13efbf091b37c4b4,15:35:57,06/03/2024
1958.3999999761581,delaylearn,test,fo5erlFfLBfgJV0DTIQg5lAAzRf2,fo5erlFfLBfgJV0DTIQg5lAAzRf2,choice-confidence,35,355599,0.0-35.0,1.0,12.0,,,,1.0,fullscreenenter,3.0,0.0,,,6.0,3.0,6.0,3.0,2.0,Stimuli/Image_Stimuli/3.png,Stimuli/Image_Stimuli/6.png,2.0,6.0,1.0,3.0,511.60000002384186,5618.0,65.0,5f0ebcdf13efbf091b37c4b4,15:35:57,06/03/2024
1273.5,delaylearn,test,fo5erlFfLBfgJV0DTIQg5lAAzRf2,fo5erlFfLBfgJV0DTIQg5lAAzRf2,choice-confidence,36,363349,0.0-36.0,1.0,13.0,,,,2.0,fullscreenenter,3.0,0.5,,,14.0,16.0,14.0,16.0,1.0,Stimuli/Image_Stimuli/14.png,Stimuli/Image_Stimuli/16.png,2.0,16.0,0.0,2.0,375.2999999523163,4835.0,15.0,5f0ebcdf13efbf091b37c4b4,15:35:57,06/03/2024
1518.0,delaylearn,test,fo5erlFfLBfgJV0DTIQg5lAAzRf2,fo5erlFfLBfgJV0DTIQg5lAAzRf2,choice-confidence,37,372176,0.0-37.0,1.0,14.0,,,,1.0,fullscreenenter,3.0,0.5,,,8.0,2.0,8.0,2.0,2.0,Stimuli/Image_Stimuli/2.png,Stimuli/Image_Stimuli/8.png,2.0,8.0,1.0,2.0,273.3000000715256,5757.0,14.0,5f0ebcdf13efbf091b37c4b4,15:35:57,06/03/2024
1762.8999999761581,delaylearn,test,fo5erlFfLBfgJV0DTIQg5lAAzRf2,fo5erlFfLBfgJV0DTIQg5lAAzRf2,choice-confidence,38,381159,0.0-38.0,1.0,15.0,,,,2.0,fullscreenenter,3.0,0.5,,,13.0,6.0,13.0,6.0,1.0,Stimuli/Image_Stimuli/13.png,Stimuli/Image_Stimuli/6.png,2.0,6.0,0.0,2.0,465.6999999284744,5476.0,26.0,5f0ebcdf13efbf091b37c4b4,15:35:57,06/03/2024
4043.399999976158,delaylearn,test,fo5erlFfLBfgJV0DTIQg5lAAzRf2,fo5erlFfLBfgJV0DTIQg5lAAzRf2,choice-confidence,39,390825,0.0-39.0,1.0,16.0,,,,1.0,fullscreenenter,3.0,0.5,,,10.0,3.0,10.0,3.0,1.0,Stimuli/Image_Stimuli/10.png,Stimuli/Image_Stimuli/3.png,1.0,10.0,1.0,2.0,315.6999999284744,4032.0,25.0,5f0ebcdf13efbf091b37c4b4,15:35:57,06/03/2024
2623.899999976158,delaylearn,test,fo5erlFfLBfgJV0DTIQg5lAAzRf2,fo5erlFfLBfgJV0DTIQg5lAAzRf2,choice-confidence,40,399147,0.0-40.0,1.0,17.0,,,,2.0,fullscreenenter,3.0,0.5,,,15.0,11.0,15.0,11.0,2.0,Stimuli/Image_Stimuli/11.png,Stimuli/Image_Stimuli/15.png,1.0,11.0,0.0,2.0,380.2000000476837,4039.0,34.0,5f0ebcdf13efbf091b37c4b4,15:35:57,06/03/2024
1662.3999999761581,delaylearn,test,fo5erlFfLBfgJV0DTIQg5lAAzRf2,fo5erlFfLBfgJV0DTIQg5lAAzRf2,choice-confidence,41,407245,0.0-41.0,1.0,18.0,,,,2.0,fullscreenenter,3.0,0.5,,,9.0,12.0,9.0,12.0,2.0,Stimuli/Image_Stimuli/12.png,Stimuli/Image_Stimuli/9.png,1.0,12.0,0.0,3.0,311.2999999523163,4850.0,36.0,5f0ebcdf13efbf091b37c4b4,15:35:57,06/03/2024
