rt,exp_name,exp_stage,subjectID,databaseID,trial_type,trial_index,time_elapsed,internal_node_id,block_curr,trial_curr,value_true,stimulus,text,response,userinteract,counterbal,delay,stim,rest_warning,stim1id,stim2id,stim1,stim2,leftright_counter,stim_left,stim_right,response_key,stim_selected,response_acc,confidence,rt_conf,iti_duration,pair,prolificID,start_time,date
114337.39999997616,delaylearn,test,oWLmhi7Tjbhvfjrcliu8AePS8Uy2,oWLmhi7Tjbhvfjrcliu8AePS8Uy2,lmdlab-instructions,4,119831,0.0-4.0,,,,,,,,,,,,,,,,,,,,,,,,,,606f1462c3fcfaeb5c52bec8,16:30:31,03/04/2024
6489.0,delaylearn,test,oWLmhi7Tjbhvfjrcliu8AePS8Uy2,oWLmhi7Tjbhvfjrcliu8AePS8Uy2,option-scale-rating,6,130196,0.0-6.0,1.0,1.0,1.0,101,What percent of the time did you win when choosing this option?,0.7555555555555555,focus,2.0,0.5,101.0,,,,,,,,,,,,,,,,606f1462c3fcfaeb5c52bec8,16:30:31,03/04/2024
4373.100000023842,delaylearn,test,oWLmhi7Tjbhvfjrcliu8AePS8Uy2,oWLmhi7Tjbhvfjrcliu8AePS8Uy2,lmdlab-rest-trial-limit,7,135073,0.0-7.0,,,,"<p style='font-size: 4rem;'>Great! Next, you will start the real ratings!<br><br><br>Just try to remember how 'lucky' each picture was.<br><br>Guessing is ok!<br><br><br>When you are ready, press the button<br><br>to move on.</p><br><br><br><br>",,,,,,,0.0,,,,,,,,,,,,,,,606f1462c3fcfaeb5c52bec8,16:30:31,03/04/2024
3410.0,delaylearn,test,oWLmhi7Tjbhvfjrcliu8AePS8Uy2,oWLmhi7Tjbhvfjrcliu8AePS8Uy2,lmdlab-html-vas-response,8,140000,0.0-8.0,,,,How <b>happy</b> are you right now?,,0.7611111111111111,,,,,,,,,,,,,,,,,,,,606f1462c3fcfaeb5c52bec8,16:30:31,03/04/2024
27140.0,delaylearn,test,oWLmhi7Tjbhvfjrcliu8AePS8Uy2,oWLmhi7Tjbhvfjrcliu8AePS8Uy2,option-scale-rating,10,170985,0.0-10.0,1.0,1.0,0.23,14,What percent of the time did you win when choosing this option?,0.5029774305555555,focus,2.0,1.0,14.0,,,,,,,,,,,,,,,,606f1462c3fcfaeb5c52bec8,16:30:31,03/04/2024
3978.0,delaylearn,test,oWLmhi7Tjbhvfjrcliu8AePS8Uy2,oWLmhi7Tjbhvfjrcliu8AePS8Uy2,option-scale-rating,11,177969,0.0-11.0,1.0,2.0,0.77,8,What percent of the time did you win when choosing this option?,0.7281626157407407,focus,2.0,0.0,8.0,,,,,,,,,,,,,,,,606f1462c3fcfaeb5c52bec8,16:30:31,03/04/2024
4663.0,delaylearn,test,oWLmhi7Tjbhvfjrcliu8AePS8Uy2,oWLmhi7Tjbhvfjrcliu8AePS8Uy2,option-scale-rating,12,185638,0.0-12.0,1.0,3.0,0.23,16,What percent of the time did you win when choosing this option?,0.6422366898148149,focus,2.0,1.0,16.0,,,,,,,,,,,,,,,,606f1462c3fcfaeb5c52bec8,16:30:31,03/04/2024
4470.0,delaylearn,test,oWLmhi7Tjbhvfjrcliu8AePS8Uy2,oWLmhi7Tjbhvfjrcliu8AePS8Uy2,option-scale-rating,13,193116,0.0-13.0,1.0,4.0,0.77,3,What percent of the time did you win when choosing this option?,0.6511255787037037,focus,2.0,1.0,3.0,,,,,,,,,,,,,,,,606f1462c3fcfaeb5c52bec8,16:30:31,03/04/2024
3665.0,delaylearn,test,oWLmhi7Tjbhvfjrcliu8AePS8Uy2,oWLmhi7Tjbhvfjrcliu8AePS8Uy2,option-scale-rating,14,199788,0.0-14.0,1.0,5.0,0.23,15,What percent of the time did you win when choosing this option?,0.824458912037037,focus,2.0,0.0,15.0,,,,,,,,,,,,,,,,606f1462c3fcfaeb5c52bec8,16:30:31,03/04/2024
3826.0,delaylearn,test,oWLmhi7Tjbhvfjrcliu8AePS8Uy2,oWLmhi7Tjbhvfjrcliu8AePS8Uy2,option-scale-rating,15,206622,0.0-15.0,1.0,6.0,0.23,9,What percent of the time did you win when choosing this option?,0.8881626157407407,focus,2.0,0.0,9.0,,,,,,,,,,,,,,,,606f1462c3fcfaeb5c52bec8,16:30:31,03/04/2024
5069.0,delaylearn,test,oWLmhi7Tjbhvfjrcliu8AePS8Uy2,oWLmhi7Tjbhvfjrcliu8AePS8Uy2,option-scale-rating,16,214698,0.0-16.0,1.0,7.0,0.77,4,What percent of the time did you win when choosing this option?,0.3948292824074074,focus,2.0,1.0,4.0,,,,,,,,,,,,,,,,606f1462c3fcfaeb5c52bec8,16:30:31,03/04/2024
4591.0,delaylearn,test,oWLmhi7Tjbhvfjrcliu8AePS8Uy2,oWLmhi7Tjbhvfjrcliu8AePS8Uy2,option-scale-rating,17,222297,0.0-17.0,1.0,8.0,0.77,11,What percent of the time did you win when choosing this option?,0.6214959490740741,focus,2.0,0.0,11.0,,,,,,,,,,,,,,,,606f1462c3fcfaeb5c52bec8,16:30:31,03/04/2024
8654.0,delaylearn,test,oWLmhi7Tjbhvfjrcliu8AePS8Uy2,oWLmhi7Tjbhvfjrcliu8AePS8Uy2,option-scale-rating,18,233958,0.0-18.0,1.0,9.0,0.23,5,What percent of the time did you win when choosing this option?,0.07927372685185186,focus,2.0,0.0,5.0,,,,,,,,,,,,,,,,606f1462c3fcfaeb5c52bec8,16:30:31,03/04/2024
4316.0,delaylearn,test,oWLmhi7Tjbhvfjrcliu8AePS8Uy2,oWLmhi7Tjbhvfjrcliu8AePS8Uy2,option-scale-rating,19,241280,0.0-19.0,1.0,10.0,0.77,12,What percent of the time did you win when choosing this option?,0.9163107638888889,focus,2.0,1.0,12.0,,,,,,,,,,,,,,,,606f1462c3fcfaeb5c52bec8,16:30:31,03/04/2024
4476.0,delaylearn,test,oWLmhi7Tjbhvfjrcliu8AePS8Uy2,oWLmhi7Tjbhvfjrcliu8AePS8Uy2,option-scale-rating,20,248763,0.0-20.0,1.0,11.0,0.77,2,What percent of the time did you win when choosing this option?,0.8540885416666667,focus,2.0,0.0,2.0,,,,,,,,,,,,,,,,606f1462c3fcfaeb5c52bec8,16:30:31,03/04/2024
7204.0,delaylearn,test,oWLmhi7Tjbhvfjrcliu8AePS8Uy2,oWLmhi7Tjbhvfjrcliu8AePS8Uy2,option-scale-rating,21,258974,0.0-21.0,1.0,12.0,0.23,10,What percent of the time did you win when choosing this option?,0.40519965277777775,focus,2.0,1.0,10.0,,,,,,,,,,,,,,,,606f1462c3fcfaeb5c52bec8,16:30:31,03/04/2024
32079.199999928474,delaylearn,test,oWLmhi7Tjbhvfjrcliu8AePS8Uy2,oWLmhi7Tjbhvfjrcliu8AePS8Uy2,lmdlab-instructions,22,291055,0.0-22.0,,,,,,,,,,,,,,,,,,,,,,,,,,606f1462c3fcfaeb5c52bec8,16:30:31,03/04/2024
4213.100000023842,delaylearn,test,oWLmhi7Tjbhvfjrcliu8AePS8Uy2,oWLmhi7Tjbhvfjrcliu8AePS8Uy2,lmdlab-rest-trial-limit,25,310142,0.0-25.0,,,,"<p style='font-size: 4rem;'>Great! Next, you will start the real choices.<br><br><br>Just try to remember which picture was 'luckier'<br><br>and won you more points in session 1!<br><br><br>When you are ready, press the button<br><br>to move on.</p><br><br><br><br>",,,,,,,0.0,,,,,,,,,,,,,,,606f1462c3fcfaeb5c52bec8,16:30:31,03/04/2024
992.0,delaylearn,test,oWLmhi7Tjbhvfjrcliu8AePS8Uy2,oWLmhi7Tjbhvfjrcliu8AePS8Uy2,choice-confidence,27,322386,0.0-27.0,1.0,1.0,,,,1.0,focus,2.0,1.0,,,3.0,10.0,3.0,10.0,2.0,Stimuli/Image_Stimuli/10.png,Stimuli/Image_Stimuli/3.png,2.0,3.0,1.0,3.0,846.1000000238419,4992.0,1.0,606f1462c3fcfaeb5c52bec8,16:30:31,03/04/2024
1228.2999999523163,delaylearn,test,oWLmhi7Tjbhvfjrcliu8AePS8Uy2,oWLmhi7Tjbhvfjrcliu8AePS8Uy2,choice-confidence,28,331463,0.0-28.0,1.0,2.0,,,,1.0,focus,2.0,0.0,,,8.0,15.0,8.0,15.0,2.0,Stimuli/Image_Stimuli/15.png,Stimuli/Image_Stimuli/8.png,2.0,8.0,1.0,3.0,1340.4000000953674,5247.0,6.0,606f1462c3fcfaeb5c52bec8,16:30:31,03/04/2024
1657.3000000715256,delaylearn,test,oWLmhi7Tjbhvfjrcliu8AePS8Uy2,oWLmhi7Tjbhvfjrcliu8AePS8Uy2,choice-confidence,29,340852,0.0-29.0,1.0,3.0,,,,2.0,focus,2.0,1.0,,,4.0,16.0,4.0,16.0,2.0,Stimuli/Image_Stimuli/16.png,Stimuli/Image_Stimuli/4.png,1.0,16.0,0.0,2.0,641.2999999523163,5828.0,3.0,606f1462c3fcfaeb5c52bec8,16:30:31,03/04/2024
1109.0999999046326,delaylearn,test,oWLmhi7Tjbhvfjrcliu8AePS8Uy2,oWLmhi7Tjbhvfjrcliu8AePS8Uy2,choice-confidence,30,347669,0.0-30.0,1.0,4.0,,,,1.0,focus,2.0,0.0,,,11.0,5.0,11.0,5.0,1.0,Stimuli/Image_Stimuli/11.png,Stimuli/Image_Stimuli/5.png,1.0,11.0,1.0,4.0,412.59999990463257,4035.0,5.0,606f1462c3fcfaeb5c52bec8,16:30:31,03/04/2024
871.5,delaylearn,test,oWLmhi7Tjbhvfjrcliu8AePS8Uy2,oWLmhi7Tjbhvfjrcliu8AePS8Uy2,choice-confidence,31,354855,0.0-31.0,1.0,5.0,,,,2.0,focus,2.0,0.0,,,2.0,9.0,2.0,9.0,1.0,Stimuli/Image_Stimuli/2.png,Stimuli/Image_Stimuli/9.png,2.0,9.0,0.0,3.0,721.6000000238419,4330.0,4.0,606f1462c3fcfaeb5c52bec8,16:30:31,03/04/2024
998.7000000476837,delaylearn,test,oWLmhi7Tjbhvfjrcliu8AePS8Uy2,oWLmhi7Tjbhvfjrcliu8AePS8Uy2,choice-confidence,32,362272,0.0-32.0,1.0,6.0,,,,1.0,focus,2.0,1.0,,,12.0,14.0,12.0,14.0,1.0,Stimuli/Image_Stimuli/12.png,Stimuli/Image_Stimuli/14.png,1.0,12.0,1.0,4.0,636.6999999284744,4520.0,2.0,606f1462c3fcfaeb5c52bec8,16:30:31,03/04/2024
1039.1999999284744,delaylearn,test,oWLmhi7Tjbhvfjrcliu8AePS8Uy2,oWLmhi7Tjbhvfjrcliu8AePS8Uy2,choice-confidence,33,369314,0.0-33.0,1.0,7.0,,,,1.0,focus,2.0,1.0,,,12.0,10.0,12.0,10.0,2.0,Stimuli/Image_Stimuli/10.png,Stimuli/Image_Stimuli/12.png,2.0,12.0,1.0,4.0,669.8999999761581,4073.0,21.0,606f1462c3fcfaeb5c52bec8,16:30:31,03/04/2024
1577.3000000715256,delaylearn,test,oWLmhi7Tjbhvfjrcliu8AePS8Uy2,oWLmhi7Tjbhvfjrcliu8AePS8Uy2,choice-confidence,34,378380,0.0-34.0,1.0,8.0,,,,1.0,focus,2.0,0.0,,,2.0,15.0,2.0,15.0,2.0,Stimuli/Image_Stimuli/15.png,Stimuli/Image_Stimuli/2.png,2.0,2.0,1.0,2.0,680.5,5546.0,46.0,606f1462c3fcfaeb5c52bec8,16:30:31,03/04/2024
1383.7999999523163,delaylearn,test,oWLmhi7Tjbhvfjrcliu8AePS8Uy2,oWLmhi7Tjbhvfjrcliu8AePS8Uy2,choice-confidence,35,387290,0.0-35.0,1.0,9.0,,,,1.0,focus,2.0,1.0,,,4.0,14.0,4.0,14.0,1.0,Stimuli/Image_Stimuli/4.png,Stimuli/Image_Stimuli/14.png,1.0,4.0,1.0,3.0,632.2999999523163,5630.0,32.0,606f1462c3fcfaeb5c52bec8,16:30:31,03/04/2024
918.2999999523163,delaylearn,test,oWLmhi7Tjbhvfjrcliu8AePS8Uy2,oWLmhi7Tjbhvfjrcliu8AePS8Uy2,choice-confidence,36,395384,0.0-36.0,1.0,10.0,,,,2.0,focus,2.0,0.0,,,11.0,9.0,11.0,9.0,2.0,Stimuli/Image_Stimuli/9.png,Stimuli/Image_Stimuli/11.png,1.0,9.0,0.0,4.0,621.1000000238419,5294.0,54.0,606f1462c3fcfaeb5c52bec8,16:30:31,03/04/2024
978.0,delaylearn,test,oWLmhi7Tjbhvfjrcliu8AePS8Uy2,oWLmhi7Tjbhvfjrcliu8AePS8Uy2,choice-confidence,37,404621,0.0-37.0,1.0,11.0,,,,1.0,focus,2.0,1.0,,,3.0,16.0,3.0,16.0,1.0,Stimuli/Image_Stimuli/3.png,Stimuli/Image_Stimuli/16.png,1.0,3.0,1.0,3.0,1595.6000000238419,5404.0,13.0,606f1462c3fcfaeb5c52bec8,16:30:31,03/04/2024
1072.0,delaylearn,test,oWLmhi7Tjbhvfjrcliu8AePS8Uy2,oWLmhi7Tjbhvfjrcliu8AePS8Uy2,choice-confidence,38,413029,0.0-38.0,1.0,12.0,,,,1.0,focus,2.0,0.0,,,8.0,5.0,8.0,5.0,1.0,Stimuli/Image_Stimuli/8.png,Stimuli/Image_Stimuli/5.png,1.0,8.0,1.0,4.0,481.7999999523163,5592.0,65.0,606f1462c3fcfaeb5c52bec8,16:30:31,03/04/2024
908.2000000476837,delaylearn,test,oWLmhi7Tjbhvfjrcliu8AePS8Uy2,oWLmhi7Tjbhvfjrcliu8AePS8Uy2,choice-confidence,39,420152,0.0-39.0,1.0,13.0,,,,1.0,focus,2.0,0.5,,,3.0,11.0,3.0,11.0,1.0,Stimuli/Image_Stimuli/3.png,Stimuli/Image_Stimuli/11.png,1.0,3.0,1.0,3.0,421.90000009536743,4533.0,15.0,606f1462c3fcfaeb5c52bec8,16:30:31,03/04/2024
722.6999999284744,delaylearn,test,oWLmhi7Tjbhvfjrcliu8AePS8Uy2,oWLmhi7Tjbhvfjrcliu8AePS8Uy2,choice-confidence,40,427401,0.0-40.0,1.0,14.0,,,,2.0,focus,2.0,0.5,,,10.0,9.0,10.0,9.0,1.0,Stimuli/Image_Stimuli/10.png,Stimuli/Image_Stimuli/9.png,2.0,9.0,0.0,4.0,538.5999999046326,4727.0,14.0,606f1462c3fcfaeb5c52bec8,16:30:31,03/04/2024
757.8999999761581,delaylearn,test,oWLmhi7Tjbhvfjrcliu8AePS8Uy2,oWLmhi7Tjbhvfjrcliu8AePS8Uy2,choice-confidence,41,435135,0.0-41.0,1.0,15.0,,,,1.0,focus,2.0,0.5,,,12.0,8.0,12.0,8.0,2.0,Stimuli/Image_Stimuli/8.png,Stimuli/Image_Stimuli/12.png,2.0,12.0,1.0,4.0,605.0,5110.0,26.0,606f1462c3fcfaeb5c52bec8,16:30:31,03/04/2024
946.7999999523163,delaylearn,test,oWLmhi7Tjbhvfjrcliu8AePS8Uy2,oWLmhi7Tjbhvfjrcliu8AePS8Uy2,choice-confidence,42,441922,0.0-42.0,1.0,16.0,,,,1.0,focus,2.0,0.5,,,14.0,5.0,14.0,5.0,2.0,Stimuli/Image_Stimuli/5.png,Stimuli/Image_Stimuli/14.png,2.0,14.0,1.0,4.0,535.1000000238419,4045.0,25.0,606f1462c3fcfaeb5c52bec8,16:30:31,03/04/2024
1034.1000000238419,delaylearn,test,oWLmhi7Tjbhvfjrcliu8AePS8Uy2,oWLmhi7Tjbhvfjrcliu8AePS8Uy2,choice-confidence,43,449596,0.0-43.0,1.0,17.0,,,,2.0,focus,2.0,0.5,,,4.0,2.0,4.0,2.0,2.0,Stimuli/Image_Stimuli/2.png,Stimuli/Image_Stimuli/4.png,1.0,2.0,0.0,2.0,390.1999999284744,4989.0,34.0,606f1462c3fcfaeb5c52bec8,16:30:31,03/04/2024
1348.8999999761581,delaylearn,test,oWLmhi7Tjbhvfjrcliu8AePS8Uy2,oWLmhi7Tjbhvfjrcliu8AePS8Uy2,choice-confidence,44,457684,0.0-44.0,1.0,18.0,,,,1.0,focus,2.0,0.5,,,16.0,15.0,16.0,15.0,1.0,Stimuli/Image_Stimuli/16.png,Stimuli/Image_Stimuli/15.png,1.0,16.0,1.0,3.0,472.8000000715256,5007.0,36.0,606f1462c3fcfaeb5c52bec8,16:30:31,03/04/2024
