rt,exp_name,exp_stage,subjectID,databaseID,trial_type,trial_index,time_elapsed,internal_node_id,block_curr,trial_curr,value_true,stimulus,text,response,userinteract,counterbal,delay,stim,rest_warning,stim1id,stim2id,stim1,stim2,leftright_counter,stim_left,stim_right,response_key,stim_selected,response_acc,confidence,rt_conf,iti_duration,pair,prolificID,start_time,date
50591.90000009537,delaylearn,test,l3DjBvMKnegxFtUKcOY8BFnJwd22,l3DjBvMKnegxFtUKcOY8BFnJwd22,lmdlab-instructions,4,101722,0.0-4.0,,,,,,,,,,,,,,,,,,,,,,,,,,613b94b83b5cb4c72904f8b3,08:55:07,03/04/2024
5047.0,delaylearn,test,l3DjBvMKnegxFtUKcOY8BFnJwd22,l3DjBvMKnegxFtUKcOY8BFnJwd22,option-scale-rating,6,113396,0.0-6.0,1.0,1.0,1.0,101,What percent of the time did you win when choosing this option?,0.7620609852241804,fullscreenenter,2.0,0.5,101.0,,,,,,,,,,,,,,,,613b94b83b5cb4c72904f8b3,08:55:07,03/04/2024
2967.7999999523163,delaylearn,test,l3DjBvMKnegxFtUKcOY8BFnJwd22,l3DjBvMKnegxFtUKcOY8BFnJwd22,lmdlab-rest-trial-limit,7,116877,0.0-7.0,,,,"<p style='font-size: 4rem;'>Great! Next, you will start the real ratings!<br><br><br>Just try to remember how 'lucky' each picture was.<br><br>Guessing is ok!<br><br><br>When you are ready, press the button<br><br>to move on.</p><br><br><br><br>",,,,,,,0.0,,,,,,,,,,,,,,,613b94b83b5cb4c72904f8b3,08:55:07,03/04/2024
4177.0,delaylearn,test,l3DjBvMKnegxFtUKcOY8BFnJwd22,l3DjBvMKnegxFtUKcOY8BFnJwd22,lmdlab-html-vas-response,8,122595,0.0-8.0,,,,How <b>happy</b> are you right now?,,0.736018921187152,,,,,,,,,,,,,,,,,,,,613b94b83b5cb4c72904f8b3,08:55:07,03/04/2024
3048.0,delaylearn,test,l3DjBvMKnegxFtUKcOY8BFnJwd22,l3DjBvMKnegxFtUKcOY8BFnJwd22,option-scale-rating,10,129610,0.0-10.0,1.0,1.0,0.23,14,What percent of the time did you win when choosing this option?,0.33073929961089493,fullscreenenter,2.0,1.0,14.0,,,,,,,,,,,,,,,,613b94b83b5cb4c72904f8b3,08:55:07,03/04/2024
3664.0,delaylearn,test,l3DjBvMKnegxFtUKcOY8BFnJwd22,l3DjBvMKnegxFtUKcOY8BFnJwd22,option-scale-rating,11,136295,0.0-11.0,1.0,2.0,0.77,8,What percent of the time did you win when choosing this option?,0.4235141527428092,fullscreenenter,2.0,0.0,8.0,,,,,,,,,,,,,,,,613b94b83b5cb4c72904f8b3,08:55:07,03/04/2024
3425.0,delaylearn,test,l3DjBvMKnegxFtUKcOY8BFnJwd22,l3DjBvMKnegxFtUKcOY8BFnJwd22,option-scale-rating,12,142725,0.0-12.0,1.0,3.0,0.23,16,What percent of the time did you win when choosing this option?,0.22331578545815214,fullscreenenter,2.0,1.0,16.0,,,,,,,,,,,,,,,,613b94b83b5cb4c72904f8b3,08:55:07,03/04/2024
4682.0,delaylearn,test,l3DjBvMKnegxFtUKcOY8BFnJwd22,l3DjBvMKnegxFtUKcOY8BFnJwd22,option-scale-rating,13,150426,0.0-13.0,1.0,4.0,0.77,3,What percent of the time did you win when choosing this option?,0.5032679738562091,fullscreenenter,2.0,1.0,3.0,,,,,,,,,,,,,,,,613b94b83b5cb4c72904f8b3,08:55:07,03/04/2024
5880.0,delaylearn,test,l3DjBvMKnegxFtUKcOY8BFnJwd22,l3DjBvMKnegxFtUKcOY8BFnJwd22,option-scale-rating,14,159323,0.0-14.0,1.0,5.0,0.23,15,What percent of the time did you win when choosing this option?,0.5000127158515806,fullscreenenter,2.0,0.0,15.0,,,,,,,,,,,,,,,,613b94b83b5cb4c72904f8b3,08:55:07,03/04/2024
2743.0,delaylearn,test,l3DjBvMKnegxFtUKcOY8BFnJwd22,l3DjBvMKnegxFtUKcOY8BFnJwd22,option-scale-rating,15,165075,0.0-15.0,1.0,6.0,0.23,9,What percent of the time did you win when choosing this option?,0.16960402838178074,fullscreenenter,2.0,0.0,9.0,,,,,,,,,,,,,,,,613b94b83b5cb4c72904f8b3,08:55:07,03/04/2024
2253.0,delaylearn,test,l3DjBvMKnegxFtUKcOY8BFnJwd22,l3DjBvMKnegxFtUKcOY8BFnJwd22,option-scale-rating,16,170350,0.0-16.0,1.0,7.0,0.77,4,What percent of the time did you win when choosing this option?,0.9231962564532947,fullscreenenter,2.0,1.0,4.0,,,,,,,,,,,,,,,,613b94b83b5cb4c72904f8b3,08:55:07,03/04/2024
2820.0,delaylearn,test,l3DjBvMKnegxFtUKcOY8BFnJwd22,l3DjBvMKnegxFtUKcOY8BFnJwd22,option-scale-rating,17,176184,0.0-17.0,1.0,8.0,0.77,11,What percent of the time did you win when choosing this option?,0.28353805854378067,fullscreenenter,2.0,0.0,11.0,,,,,,,,,,,,,,,,613b94b83b5cb4c72904f8b3,08:55:07,03/04/2024
2606.0,delaylearn,test,l3DjBvMKnegxFtUKcOY8BFnJwd22,l3DjBvMKnegxFtUKcOY8BFnJwd22,option-scale-rating,18,181804,0.0-18.0,1.0,9.0,0.23,5,What percent of the time did you win when choosing this option?,0.27702754253452355,fullscreenenter,2.0,0.0,5.0,,,,,,,,,,,,,,,,613b94b83b5cb4c72904f8b3,08:55:07,03/04/2024
4537.0,delaylearn,test,l3DjBvMKnegxFtUKcOY8BFnJwd22,l3DjBvMKnegxFtUKcOY8BFnJwd22,option-scale-rating,19,189361,0.0-19.0,1.0,10.0,0.77,12,What percent of the time did you win when choosing this option?,0.014979273161923655,fullscreenenter,2.0,1.0,12.0,,,,,,,,,,,,,,,,613b94b83b5cb4c72904f8b3,08:55:07,03/04/2024
3174.0,delaylearn,test,l3DjBvMKnegxFtUKcOY8BFnJwd22,l3DjBvMKnegxFtUKcOY8BFnJwd22,option-scale-rating,20,195550,0.0-20.0,1.0,11.0,0.77,2,What percent of the time did you win when choosing this option?,0.44467332977289487,fullscreenenter,2.0,0.0,2.0,,,,,,,,,,,,,,,,613b94b83b5cb4c72904f8b3,08:55:07,03/04/2024
3278.0,delaylearn,test,l3DjBvMKnegxFtUKcOY8BFnJwd22,l3DjBvMKnegxFtUKcOY8BFnJwd22,option-scale-rating,21,201843,0.0-21.0,1.0,12.0,0.23,10,What percent of the time did you win when choosing this option?,0.22494341446046642,fullscreenenter,2.0,1.0,10.0,,,,,,,,,,,,,,,,613b94b83b5cb4c72904f8b3,08:55:07,03/04/2024
14997.899999856949,delaylearn,test,l3DjBvMKnegxFtUKcOY8BFnJwd22,l3DjBvMKnegxFtUKcOY8BFnJwd22,lmdlab-instructions,22,216842,0.0-22.0,,,,,,,,,,,,,,,,,,,,,,,,,,613b94b83b5cb4c72904f8b3,08:55:07,03/04/2024
3350.899999856949,delaylearn,test,l3DjBvMKnegxFtUKcOY8BFnJwd22,l3DjBvMKnegxFtUKcOY8BFnJwd22,lmdlab-rest-trial-limit,25,235167,0.0-25.0,,,,"<p style='font-size: 4rem;'>Great! Next, you will start the real choices.<br><br><br>Just try to remember which picture was 'luckier'<br><br>and won you more points in session 1!<br><br><br>When you are ready, press the button<br><br>to move on.</p><br><br><br><br>",,,,,,,0.0,,,,,,,,,,,,,,,613b94b83b5cb4c72904f8b3,08:55:07,03/04/2024
980.5999999046326,delaylearn,test,l3DjBvMKnegxFtUKcOY8BFnJwd22,l3DjBvMKnegxFtUKcOY8BFnJwd22,choice-confidence,27,248325,0.0-27.0,1.0,1.0,,,,1.0,fullscreenenter,2.0,1.0,,,3.0,10.0,3.0,10.0,2.0,Stimuli/Image_Stimuli/10.png,Stimuli/Image_Stimuli/3.png,2.0,3.0,1.0,3.0,2167.2000000476837,4769.0,1.0,613b94b83b5cb4c72904f8b3,08:55:07,03/04/2024
2002.0,delaylearn,test,l3DjBvMKnegxFtUKcOY8BFnJwd22,l3DjBvMKnegxFtUKcOY8BFnJwd22,choice-confidence,28,259043,0.0-28.0,1.0,2.0,,,,2.0,fullscreenenter,2.0,0.0,,,8.0,15.0,8.0,15.0,2.0,Stimuli/Image_Stimuli/15.png,Stimuli/Image_Stimuli/8.png,1.0,15.0,0.0,3.0,1839.9000000953674,5581.0,6.0,613b94b83b5cb4c72904f8b3,08:55:07,03/04/2024
683.2999999523163,delaylearn,test,l3DjBvMKnegxFtUKcOY8BFnJwd22,l3DjBvMKnegxFtUKcOY8BFnJwd22,choice-confidence,29,266761,0.0-29.0,1.0,3.0,,,,1.0,fullscreenenter,2.0,1.0,,,4.0,16.0,4.0,16.0,2.0,Stimuli/Image_Stimuli/16.png,Stimuli/Image_Stimuli/4.png,2.0,4.0,1.0,4.0,1266.6999998092651,4469.0,3.0,613b94b83b5cb4c72904f8b3,08:55:07,03/04/2024
2016.7000000476837,delaylearn,test,l3DjBvMKnegxFtUKcOY8BFnJwd22,l3DjBvMKnegxFtUKcOY8BFnJwd22,choice-confidence,30,275540,0.0-30.0,1.0,4.0,,,,2.0,fullscreenenter,2.0,0.0,,,11.0,5.0,11.0,5.0,1.0,Stimuli/Image_Stimuli/11.png,Stimuli/Image_Stimuli/5.png,2.0,5.0,0.0,2.0,1345.9000000953674,4133.0,5.0,613b94b83b5cb4c72904f8b3,08:55:07,03/04/2024
1340.7000000476837,delaylearn,test,l3DjBvMKnegxFtUKcOY8BFnJwd22,l3DjBvMKnegxFtUKcOY8BFnJwd22,choice-confidence,31,283803,0.0-31.0,1.0,5.0,,,,1.0,fullscreenenter,2.0,0.0,,,2.0,9.0,2.0,9.0,2.0,Stimuli/Image_Stimuli/9.png,Stimuli/Image_Stimuli/2.png,2.0,2.0,1.0,3.0,1559.0,4080.0,4.0,613b94b83b5cb4c72904f8b3,08:55:07,03/04/2024
1715.2000000476837,delaylearn,test,l3DjBvMKnegxFtUKcOY8BFnJwd22,l3DjBvMKnegxFtUKcOY8BFnJwd22,choice-confidence,32,292477,0.0-32.0,1.0,6.0,,,,2.0,fullscreenenter,2.0,1.0,,,12.0,14.0,12.0,14.0,2.0,Stimuli/Image_Stimuli/14.png,Stimuli/Image_Stimuli/12.png,1.0,14.0,0.0,2.0,944.6000001430511,4722.0,2.0,613b94b83b5cb4c72904f8b3,08:55:07,03/04/2024
1485.2999999523163,delaylearn,test,l3DjBvMKnegxFtUKcOY8BFnJwd22,l3DjBvMKnegxFtUKcOY8BFnJwd22,choice-confidence,33,300664,0.0-33.0,1.0,7.0,,,,2.0,fullscreenenter,2.0,1.0,,,12.0,10.0,12.0,10.0,2.0,Stimuli/Image_Stimuli/10.png,Stimuli/Image_Stimuli/12.png,1.0,10.0,0.0,2.0,733.9000000953674,4670.0,21.0,613b94b83b5cb4c72904f8b3,08:55:07,03/04/2024
1083.0,delaylearn,test,l3DjBvMKnegxFtUKcOY8BFnJwd22,l3DjBvMKnegxFtUKcOY8BFnJwd22,choice-confidence,34,309393,0.0-34.0,1.0,8.0,,,,2.0,fullscreenenter,2.0,0.0,,,2.0,15.0,2.0,15.0,2.0,Stimuli/Image_Stimuli/15.png,Stimuli/Image_Stimuli/2.png,1.0,15.0,0.0,2.0,1575.0999999046326,4787.0,46.0,613b94b83b5cb4c72904f8b3,08:55:07,03/04/2024
919.4000000953674,delaylearn,test,l3DjBvMKnegxFtUKcOY8BFnJwd22,l3DjBvMKnegxFtUKcOY8BFnJwd22,choice-confidence,35,316673,0.0-35.0,1.0,9.0,,,,1.0,fullscreenenter,2.0,1.0,,,4.0,14.0,4.0,14.0,1.0,Stimuli/Image_Stimuli/4.png,Stimuli/Image_Stimuli/14.png,1.0,4.0,1.0,4.0,842.2000000476837,4225.0,32.0,613b94b83b5cb4c72904f8b3,08:55:07,03/04/2024
2150.100000143051,delaylearn,test,l3DjBvMKnegxFtUKcOY8BFnJwd22,l3DjBvMKnegxFtUKcOY8BFnJwd22,choice-confidence,36,325114,0.0-36.0,1.0,10.0,,,,2.0,fullscreenenter,2.0,0.0,,,11.0,9.0,11.0,9.0,1.0,Stimuli/Image_Stimuli/11.png,Stimuli/Image_Stimuli/9.png,2.0,9.0,0.0,1.0,783.4000000953674,4222.0,54.0,613b94b83b5cb4c72904f8b3,08:55:07,03/04/2024
1196.6000001430511,delaylearn,test,l3DjBvMKnegxFtUKcOY8BFnJwd22,l3DjBvMKnegxFtUKcOY8BFnJwd22,choice-confidence,37,334192,0.0-37.0,1.0,11.0,,,,1.0,fullscreenenter,2.0,1.0,,,3.0,16.0,3.0,16.0,2.0,Stimuli/Image_Stimuli/16.png,Stimuli/Image_Stimuli/3.png,2.0,3.0,1.0,2.0,754.3000001907349,5830.0,13.0,613b94b83b5cb4c72904f8b3,08:55:07,03/04/2024
2229.5,delaylearn,test,l3DjBvMKnegxFtUKcOY8BFnJwd22,l3DjBvMKnegxFtUKcOY8BFnJwd22,choice-confidence,38,342581,0.0-38.0,1.0,12.0,,,,2.0,fullscreenenter,2.0,0.0,,,8.0,5.0,8.0,5.0,2.0,Stimuli/Image_Stimuli/5.png,Stimuli/Image_Stimuli/8.png,1.0,5.0,0.0,1.0,342.7000000476837,4516.0,65.0,613b94b83b5cb4c72904f8b3,08:55:07,03/04/2024
794.0,delaylearn,test,l3DjBvMKnegxFtUKcOY8BFnJwd22,l3DjBvMKnegxFtUKcOY8BFnJwd22,choice-confidence,39,350176,0.0-39.0,1.0,13.0,,,,1.0,fullscreenenter,2.0,0.5,,,3.0,11.0,3.0,11.0,1.0,Stimuli/Image_Stimuli/3.png,Stimuli/Image_Stimuli/11.png,1.0,3.0,1.0,2.0,824.8999998569489,4686.0,15.0,613b94b83b5cb4c72904f8b3,08:55:07,03/04/2024
2048.0,delaylearn,test,l3DjBvMKnegxFtUKcOY8BFnJwd22,l3DjBvMKnegxFtUKcOY8BFnJwd22,choice-confidence,40,359976,0.0-40.0,1.0,14.0,,,,2.0,fullscreenenter,2.0,0.5,,,10.0,9.0,10.0,9.0,1.0,Stimuli/Image_Stimuli/10.png,Stimuli/Image_Stimuli/9.png,2.0,9.0,0.0,2.0,917.1000001430511,5539.0,14.0,613b94b83b5cb4c72904f8b3,08:55:07,03/04/2024
1273.0,delaylearn,test,l3DjBvMKnegxFtUKcOY8BFnJwd22,l3DjBvMKnegxFtUKcOY8BFnJwd22,choice-confidence,41,367970,0.0-41.0,1.0,15.0,,,,2.0,fullscreenenter,2.0,0.5,,,12.0,8.0,12.0,8.0,1.0,Stimuli/Image_Stimuli/12.png,Stimuli/Image_Stimuli/8.png,2.0,8.0,0.0,3.0,1114.3999998569489,4311.0,26.0,613b94b83b5cb4c72904f8b3,08:55:07,03/04/2024
2326.0,delaylearn,test,l3DjBvMKnegxFtUKcOY8BFnJwd22,l3DjBvMKnegxFtUKcOY8BFnJwd22,choice-confidence,42,376447,0.0-42.0,1.0,16.0,,,,1.0,fullscreenenter,2.0,0.5,,,14.0,5.0,14.0,5.0,1.0,Stimuli/Image_Stimuli/14.png,Stimuli/Image_Stimuli/5.png,1.0,14.0,1.0,1.0,798.3999998569489,4080.0,25.0,613b94b83b5cb4c72904f8b3,08:55:07,03/04/2024
1324.5,delaylearn,test,l3DjBvMKnegxFtUKcOY8BFnJwd22,l3DjBvMKnegxFtUKcOY8BFnJwd22,choice-confidence,43,383919,0.0-43.0,1.0,17.0,,,,1.0,fullscreenenter,2.0,0.5,,,4.0,2.0,4.0,2.0,2.0,Stimuli/Image_Stimuli/2.png,Stimuli/Image_Stimuli/4.png,2.0,4.0,1.0,4.0,715.4000000953674,4153.0,34.0,613b94b83b5cb4c72904f8b3,08:55:07,03/04/2024
1358.2999999523163,delaylearn,test,l3DjBvMKnegxFtUKcOY8BFnJwd22,l3DjBvMKnegxFtUKcOY8BFnJwd22,choice-confidence,44,391987,0.0-44.0,1.0,18.0,,,,2.0,fullscreenenter,2.0,0.5,,,16.0,15.0,16.0,15.0,2.0,Stimuli/Image_Stimuli/15.png,Stimuli/Image_Stimuli/16.png,1.0,15.0,0.0,3.0,642.7999999523163,4765.0,36.0,613b94b83b5cb4c72904f8b3,08:55:07,03/04/2024
