rt,exp_name,exp_stage,subjectID,databaseID,trial_type,trial_index,time_elapsed,internal_node_id,block_curr,trial_curr,value_true,stimulus,text,response,userinteract,counterbal,delay,stim,rest_warning,stim1id,stim2id,stim1,stim2,leftright_counter,stim_left,stim_right,response_key,stim_selected,response_acc,confidence,rt_conf,iti_duration,pair,prolificID,start_time,date
8561.799999952316,delaylearn,test,UGYYcbnSNFXqruozRNRvZ9PKAOt1,UGYYcbnSNFXqruozRNRvZ9PKAOt1,lmdlab-instructions,4,16643,0.0-4.0,,,,,,,,,,,,,,,,,,,,,,,,,,59baf1a2178f1b0001828a26,20:18:09,06/03/2024
6197.0,delaylearn,test,UGYYcbnSNFXqruozRNRvZ9PKAOt1,UGYYcbnSNFXqruozRNRvZ9PKAOt1,option-scale-rating,6,27372,0.0-6.0,2.0,1.0,0.23,2,What percent of the time did you win when choosing this option?,0.29276728493438675,fullscreenenter,5.0,1.0,2.0,,,,,,,,,,,,,,,,59baf1a2178f1b0001828a26,20:18:09,06/03/2024
5087.0,delaylearn,test,UGYYcbnSNFXqruozRNRvZ9PKAOt1,UGYYcbnSNFXqruozRNRvZ9PKAOt1,option-scale-rating,7,35484,0.0-7.0,2.0,2.0,0.77,8,What percent of the time did you win when choosing this option?,0.635651554711607,fullscreenenter,5.0,0.0,8.0,,,,,,,,,,,,,,,,59baf1a2178f1b0001828a26,20:18:09,06/03/2024
10216.0,delaylearn,test,UGYYcbnSNFXqruozRNRvZ9PKAOt1,UGYYcbnSNFXqruozRNRvZ9PKAOt1,option-scale-rating,8,48734,0.0-8.0,2.0,3.0,0.23,4,What percent of the time did you win when choosing this option?,0.40127496524363365,fullscreenenter,5.0,1.0,4.0,,,,,,,,,,,,,,,,59baf1a2178f1b0001828a26,20:18:09,06/03/2024
5573.0,delaylearn,test,UGYYcbnSNFXqruozRNRvZ9PKAOt1,UGYYcbnSNFXqruozRNRvZ9PKAOt1,option-scale-rating,9,57332,0.0-9.0,2.0,4.0,0.77,6,What percent of the time did you win when choosing this option?,0.21681190871791395,fullscreenenter,5.0,1.0,6.0,,,,,,,,,,,,,,,,59baf1a2178f1b0001828a26,20:18:09,06/03/2024
3799.0,delaylearn,test,UGYYcbnSNFXqruozRNRvZ9PKAOt1,UGYYcbnSNFXqruozRNRvZ9PKAOt1,option-scale-rating,10,64154,0.0-10.0,2.0,5.0,0.23,10,What percent of the time did you win when choosing this option?,0.36004204672611984,fullscreenenter,5.0,0.0,10.0,,,,,,,,,,,,,,,,59baf1a2178f1b0001828a26,20:18:09,06/03/2024
3651.0,delaylearn,test,UGYYcbnSNFXqruozRNRvZ9PKAOt1,UGYYcbnSNFXqruozRNRvZ9PKAOt1,option-scale-rating,11,70827,0.0-11.0,2.0,6.0,0.23,13,What percent of the time did you win when choosing this option?,0.28408667050964703,fullscreenenter,5.0,0.0,13.0,,,,,,,,,,,,,,,,59baf1a2178f1b0001828a26,20:18:09,06/03/2024
2683.0,delaylearn,test,UGYYcbnSNFXqruozRNRvZ9PKAOt1,UGYYcbnSNFXqruozRNRvZ9PKAOt1,option-scale-rating,12,76530,0.0-12.0,2.0,7.0,0.77,11,What percent of the time did you win when choosing this option?,0.7853921535383677,fullscreenenter,5.0,1.0,11.0,,,,,,,,,,,,,,,,59baf1a2178f1b0001828a26,20:18:09,06/03/2024
2568.0,delaylearn,test,UGYYcbnSNFXqruozRNRvZ9PKAOt1,UGYYcbnSNFXqruozRNRvZ9PKAOt1,option-scale-rating,13,82123,0.0-13.0,2.0,8.0,0.77,14,What percent of the time did you win when choosing this option?,0.5032721847343258,fullscreenenter,5.0,0.0,14.0,,,,,,,,,,,,,,,,59baf1a2178f1b0001828a26,20:18:09,06/03/2024
2312.0,delaylearn,test,UGYYcbnSNFXqruozRNRvZ9PKAOt1,UGYYcbnSNFXqruozRNRvZ9PKAOt1,option-scale-rating,14,87468,0.0-14.0,2.0,9.0,0.23,9,What percent of the time did you win when choosing this option?,0.6747143196229358,fullscreenenter,5.0,0.0,9.0,,,,,,,,,,,,,,,,59baf1a2178f1b0001828a26,20:18:09,06/03/2024
2404.0,delaylearn,test,UGYYcbnSNFXqruozRNRvZ9PKAOt1,UGYYcbnSNFXqruozRNRvZ9PKAOt1,option-scale-rating,15,92898,0.0-15.0,2.0,10.0,0.77,16,What percent of the time did you win when choosing this option?,0.6030992506188328,fullscreenenter,5.0,1.0,16.0,,,,,,,,,,,,,,,,59baf1a2178f1b0001828a26,20:18:09,06/03/2024
2330.0,delaylearn,test,UGYYcbnSNFXqruozRNRvZ9PKAOt1,UGYYcbnSNFXqruozRNRvZ9PKAOt1,option-scale-rating,16,98260,0.0-16.0,2.0,11.0,0.77,7,What percent of the time did you win when choosing this option?,0.6161201722559425,fullscreenenter,5.0,0.0,7.0,,,,,,,,,,,,,,,,59baf1a2178f1b0001828a26,20:18:09,06/03/2024
2490.0,delaylearn,test,UGYYcbnSNFXqruozRNRvZ9PKAOt1,UGYYcbnSNFXqruozRNRvZ9PKAOt1,option-scale-rating,17,103786,0.0-17.0,2.0,12.0,0.23,15,What percent of the time did you win when choosing this option?,0.5076124919466956,fullscreenenter,5.0,1.0,15.0,,,,,,,,,,,,,,,,59baf1a2178f1b0001828a26,20:18:09,06/03/2024
4436.100000023842,delaylearn,test,UGYYcbnSNFXqruozRNRvZ9PKAOt1,UGYYcbnSNFXqruozRNRvZ9PKAOt1,lmdlab-instructions,18,108225,0.0-18.0,,,,,,,,,,,,,,,,,,,,,,,,,,59baf1a2178f1b0001828a26,20:18:09,06/03/2024
11317.299999952316,delaylearn,test,UGYYcbnSNFXqruozRNRvZ9PKAOt1,UGYYcbnSNFXqruozRNRvZ9PKAOt1,lmdlab-rest-trial-limit,21,177178,0.0-21.0,,,,"<p style='font-size: 4rem;'>Great.  Next, you will start the real choices.<br><br><br>Just try to remember which picture was 'luckier' and won you more points in session 1!<br><br>When you are ready, press the button<br><br>to move on.</p><br><br><br><br>",,,,,,,0.0,,,,,,,,,,,,,,,59baf1a2178f1b0001828a26,20:18:09,06/03/2024
3132.0,delaylearn,test,UGYYcbnSNFXqruozRNRvZ9PKAOt1,UGYYcbnSNFXqruozRNRvZ9PKAOt1,lmdlab-html-vas-response,22,181862,0.0-22.0,,,,How <b>happy</b> are you right now?,,0.5217184903868977,,,,,,,,,,,,,,,,,,,,59baf1a2178f1b0001828a26,20:18:09,06/03/2024
2807.5999999046326,delaylearn,test,UGYYcbnSNFXqruozRNRvZ9PKAOt1,UGYYcbnSNFXqruozRNRvZ9PKAOt1,choice-confidence,24,199851,0.0-24.0,1.0,1.0,,,,2.0,fullscreenenter,5.0,1.0,,,6.0,15.0,6.0,15.0,2.0,Stimuli/Image_Stimuli/15.png,Stimuli/Image_Stimuli/6.png,1.0,15.0,0.0,2.0,4049.8000000715256,5533.0,1.0,59baf1a2178f1b0001828a26,20:18:09,06/03/2024
869.5,delaylearn,test,UGYYcbnSNFXqruozRNRvZ9PKAOt1,UGYYcbnSNFXqruozRNRvZ9PKAOt1,choice-confidence,25,209285,0.0-25.0,1.0,2.0,,,,1.0,fullscreenenter,5.0,0.0,,,8.0,10.0,8.0,10.0,1.0,Stimuli/Image_Stimuli/8.png,Stimuli/Image_Stimuli/10.png,1.0,8.0,1.0,3.0,1676.1000000238419,5573.0,6.0,59baf1a2178f1b0001828a26,20:18:09,06/03/2024
1026.0999999046326,delaylearn,test,UGYYcbnSNFXqruozRNRvZ9PKAOt1,UGYYcbnSNFXqruozRNRvZ9PKAOt1,choice-confidence,26,217368,0.0-26.0,1.0,3.0,,,,1.0,fullscreenenter,5.0,1.0,,,11.0,4.0,11.0,4.0,1.0,Stimuli/Image_Stimuli/11.png,Stimuli/Image_Stimuli/4.png,1.0,11.0,1.0,4.0,1725.1999999284744,4025.0,3.0,59baf1a2178f1b0001828a26,20:18:09,06/03/2024
1614.0,delaylearn,test,UGYYcbnSNFXqruozRNRvZ9PKAOt1,UGYYcbnSNFXqruozRNRvZ9PKAOt1,choice-confidence,27,226130,0.0-27.0,1.0,4.0,,,,2.0,fullscreenenter,5.0,0.0,,,14.0,9.0,14.0,9.0,2.0,Stimuli/Image_Stimuli/9.png,Stimuli/Image_Stimuli/14.png,1.0,9.0,0.0,2.0,1731.7000000476837,4092.0,5.0,59baf1a2178f1b0001828a26,20:18:09,06/03/2024
1294.3999999761581,delaylearn,test,UGYYcbnSNFXqruozRNRvZ9PKAOt1,UGYYcbnSNFXqruozRNRvZ9PKAOt1,choice-confidence,28,236321,0.0-28.0,1.0,5.0,,,,1.0,fullscreenenter,5.0,0.0,,,7.0,13.0,7.0,13.0,1.0,Stimuli/Image_Stimuli/7.png,Stimuli/Image_Stimuli/13.png,1.0,7.0,1.0,3.0,1637.1999999284744,5923.0,4.0,59baf1a2178f1b0001828a26,20:18:09,06/03/2024
3234.2999999523163,delaylearn,test,UGYYcbnSNFXqruozRNRvZ9PKAOt1,UGYYcbnSNFXqruozRNRvZ9PKAOt1,choice-confidence,29,247744,0.0-29.0,1.0,6.0,,,,1.0,fullscreenenter,5.0,1.0,,,16.0,2.0,16.0,2.0,2.0,Stimuli/Image_Stimuli/2.png,Stimuli/Image_Stimuli/16.png,2.0,16.0,1.0,3.0,2037.0,4825.0,2.0,59baf1a2178f1b0001828a26,20:18:09,06/03/2024
792.5999999046326,delaylearn,test,UGYYcbnSNFXqruozRNRvZ9PKAOt1,UGYYcbnSNFXqruozRNRvZ9PKAOt1,choice-confidence,30,255466,0.0-30.0,1.0,7.0,,,,2.0,fullscreenenter,5.0,1.0,,,16.0,15.0,16.0,15.0,2.0,Stimuli/Image_Stimuli/15.png,Stimuli/Image_Stimuli/16.png,1.0,15.0,0.0,2.0,1620.2000000476837,4009.0,21.0,59baf1a2178f1b0001828a26,20:18:09,06/03/2024
1111.1000000238419,delaylearn,test,UGYYcbnSNFXqruozRNRvZ9PKAOt1,UGYYcbnSNFXqruozRNRvZ9PKAOt1,choice-confidence,31,264803,0.0-31.0,1.0,8.0,,,,1.0,fullscreenenter,5.0,0.0,,,7.0,10.0,7.0,10.0,2.0,Stimuli/Image_Stimuli/10.png,Stimuli/Image_Stimuli/7.png,2.0,7.0,1.0,3.0,982.0999999046326,5899.0,46.0,59baf1a2178f1b0001828a26,20:18:09,06/03/2024
900.2999999523163,delaylearn,test,UGYYcbnSNFXqruozRNRvZ9PKAOt1,UGYYcbnSNFXqruozRNRvZ9PKAOt1,choice-confidence,32,275417,0.0-32.0,1.0,9.0,,,,1.0,fullscreenenter,5.0,1.0,,,11.0,2.0,11.0,2.0,2.0,Stimuli/Image_Stimuli/2.png,Stimuli/Image_Stimuli/11.png,2.0,11.0,1.0,3.0,2543.0,5854.0,32.0,59baf1a2178f1b0001828a26,20:18:09,06/03/2024
1559.8999999761581,delaylearn,test,UGYYcbnSNFXqruozRNRvZ9PKAOt1,UGYYcbnSNFXqruozRNRvZ9PKAOt1,choice-confidence,33,284991,0.0-33.0,1.0,10.0,,,,2.0,fullscreenenter,5.0,0.0,,,14.0,13.0,14.0,13.0,2.0,Stimuli/Image_Stimuli/13.png,Stimuli/Image_Stimuli/14.png,1.0,13.0,0.0,2.0,1500.0,5182.0,54.0,59baf1a2178f1b0001828a26,20:18:09,06/03/2024
935.5,delaylearn,test,UGYYcbnSNFXqruozRNRvZ9PKAOt1,UGYYcbnSNFXqruozRNRvZ9PKAOt1,choice-confidence,34,293772,0.0-34.0,1.0,11.0,,,,2.0,fullscreenenter,5.0,1.0,,,6.0,4.0,6.0,4.0,1.0,Stimuli/Image_Stimuli/6.png,Stimuli/Image_Stimuli/4.png,2.0,4.0,0.0,3.0,1367.3000000715256,5155.0,13.0,59baf1a2178f1b0001828a26,20:18:09,06/03/2024
1039.7000000476837,delaylearn,test,UGYYcbnSNFXqruozRNRvZ9PKAOt1,UGYYcbnSNFXqruozRNRvZ9PKAOt1,choice-confidence,35,301901,0.0-35.0,1.0,12.0,,,,1.0,fullscreenenter,5.0,0.0,,,8.0,9.0,8.0,9.0,2.0,Stimuli/Image_Stimuli/9.png,Stimuli/Image_Stimuli/8.png,2.0,8.0,1.0,3.0,878.7999999523163,4894.0,65.0,59baf1a2178f1b0001828a26,20:18:09,06/03/2024
1108.6000000238419,delaylearn,test,UGYYcbnSNFXqruozRNRvZ9PKAOt1,UGYYcbnSNFXqruozRNRvZ9PKAOt1,choice-confidence,36,311299,0.0-36.0,1.0,13.0,,,,1.0,fullscreenenter,5.0,0.5,,,6.0,14.0,6.0,14.0,1.0,Stimuli/Image_Stimuli/6.png,Stimuli/Image_Stimuli/14.png,1.0,6.0,1.0,1.0,1119.2999999523163,5848.0,15.0,59baf1a2178f1b0001828a26,20:18:09,06/03/2024
1069.8000000715256,delaylearn,test,UGYYcbnSNFXqruozRNRvZ9PKAOt1,UGYYcbnSNFXqruozRNRvZ9PKAOt1,choice-confidence,37,319536,0.0-37.0,1.0,14.0,,,,1.0,fullscreenenter,5.0,0.5,,,15.0,13.0,15.0,13.0,1.0,Stimuli/Image_Stimuli/15.png,Stimuli/Image_Stimuli/13.png,1.0,15.0,1.0,2.0,712.1000000238419,5136.0,14.0,59baf1a2178f1b0001828a26,20:18:09,06/03/2024
1775.7000000476837,delaylearn,test,UGYYcbnSNFXqruozRNRvZ9PKAOt1,UGYYcbnSNFXqruozRNRvZ9PKAOt1,choice-confidence,38,328840,0.0-38.0,1.0,15.0,,,,2.0,fullscreenenter,5.0,0.5,,,16.0,8.0,16.0,8.0,2.0,Stimuli/Image_Stimuli/8.png,Stimuli/Image_Stimuli/16.png,1.0,8.0,0.0,2.0,547.0,5674.0,26.0,59baf1a2178f1b0001828a26,20:18:09,06/03/2024
843.2000000476837,delaylearn,test,UGYYcbnSNFXqruozRNRvZ9PKAOt1,UGYYcbnSNFXqruozRNRvZ9PKAOt1,choice-confidence,39,335879,0.0-39.0,1.0,16.0,,,,2.0,fullscreenenter,5.0,0.5,,,2.0,9.0,2.0,9.0,1.0,Stimuli/Image_Stimuli/2.png,Stimuli/Image_Stimuli/9.png,2.0,9.0,0.0,3.0,872.0,4000.0,25.0,59baf1a2178f1b0001828a26,20:18:09,06/03/2024
1220.4000000953674,delaylearn,test,UGYYcbnSNFXqruozRNRvZ9PKAOt1,UGYYcbnSNFXqruozRNRvZ9PKAOt1,choice-confidence,40,343722,0.0-40.0,1.0,17.0,,,,2.0,fullscreenenter,5.0,0.5,,,11.0,7.0,11.0,7.0,2.0,Stimuli/Image_Stimuli/7.png,Stimuli/Image_Stimuli/11.png,1.0,7.0,0.0,2.0,433.10000002384186,4873.0,34.0,59baf1a2178f1b0001828a26,20:18:09,06/03/2024
1728.5,delaylearn,test,UGYYcbnSNFXqruozRNRvZ9PKAOt1,UGYYcbnSNFXqruozRNRvZ9PKAOt1,choice-confidence,41,353687,0.0-41.0,1.0,18.0,,,,1.0,fullscreenenter,5.0,0.5,,,4.0,10.0,4.0,10.0,1.0,Stimuli/Image_Stimuli/4.png,Stimuli/Image_Stimuli/10.png,1.0,4.0,1.0,3.0,2561.600000023842,4342.0,36.0,59baf1a2178f1b0001828a26,20:18:09,06/03/2024
