rt,stimulus,response,exp_name,exp_stage,subjectID,trial_type,trial_index,time_elapsed,internal_node_id,ospan_shown,ospan_total,ospan_abs,length,resp_actual,resp_correct,full_correct,num_correct,feedback,accuracy,correct,math_acc,math_warning,databaseID,prolificID,start_time,date
2548.2999999970198,<div class = 'left_align' style='font-size: 3.25rem; line-height: 1.3;'><p class = 'center_align'><b>Welcome to the Symmetry and Memory Task</b><br><br><br><br></p>Press 'continue' to show the instructions.<br><br><br><br></div>,0,ospan,instruct,tgyJIug6XYM1SFXJT5EK8pEwjpl1,html-button-response,51,535267,0.0-43.0-0.0-0.0-0.0,,,,,,,,,,,,,,,614b90050a269c27f4746a37,10:54:22,05/03/2024
92014.59999999404,"<div class = 'left_align' style='font-size: 3.25rem; line-height: 1.3;'><p class = 'center_align'><b>Symmetry and Memory Task</b><br><br></p>In this task, you will try to memorize letters you see on the screen<br>while you also view black and white grid pictures.<br><br>In the next few minutes, you will have some practice to get you familiar<br>with how the task works.<br><br>It may be difficult sometimes, but please do not worry about making mistakes!<br><br>We will begin by practicing the letter part of the task.<br><br><br><br></div>",0,ospan,instruct,tgyJIug6XYM1SFXJT5EK8pEwjpl1,html-button-response,52,627534,0.0-43.0-0.0-0.0-1.0,,,,,,,,,,,,,,,614b90050a269c27f4746a37,10:54:22,05/03/2024
22107.70000000298,"<div class = 'left_align' style='font-size: 3.25rem; line-height: 1.3;'>For this practice part, letters will appear on the screen one at a time.<br><br>Try to remember each letter in the order presented.<br><br>After some letters have been shown, you will see a response screen. Your<br>goal is to report the letters you saw <b>in order</b>. If you do not remember<br>a particular letter, you will have the option to leave it blank.<br><br><br><br></div>",0,ospan,instruct,tgyJIug6XYM1SFXJT5EK8pEwjpl1,html-button-response,53,649895,0.0-43.0-0.0-0.0-2.0,,,,,,,,,,,,,,,614b90050a269c27f4746a37,10:54:22,05/03/2024
6249.0,"<div class = 'left_align' style='font-size: 3.25rem; line-height: 1.3;'>Remember, it is very important to get the letters in the same<br>order as you see them.<br><br>When you are ready, you may begin the letter practice.</div><br><br><br><br>",0,ospan,instruct,tgyJIug6XYM1SFXJT5EK8pEwjpl1,html-button-response,54,656397,0.0-43.0-0.0-0.0-3.0,,,,,,,,,,,,,,,614b90050a269c27f4746a37,10:54:22,05/03/2024
,"<p style=""font-size:75px;"">...</p>",,ospan,iti,tgyJIug6XYM1SFXJT5EK8pEwjpl1,html-keyboard-response,55,657650,0.0-43.0-0.0-1.0-0.0,,,,,,,,,,,,,,,614b90050a269c27f4746a37,10:54:22,05/03/2024
,"<div style=""font-size: 10rem; color: #0000FF"">P</div>",,ospan,letter,tgyJIug6XYM1SFXJT5EK8pEwjpl1,html-keyboard-response,56,658653,0.0-43.0-0.0-1.0-1.0,,,,,,,,,,,,,,,614b90050a269c27f4746a37,10:54:22,05/03/2024
,"<div style=""font-size: 10rem; color: #0000FF"">H</div>",,ospan,letter,tgyJIug6XYM1SFXJT5EK8pEwjpl1,html-keyboard-response,57,660405,0.0-43.0-0.0-1.0-2.0,,,,,,,,,,,,,,,614b90050a269c27f4746a37,10:54:22,05/03/2024
5709.699999988079,"<div class = numbox><p style=""font-size: 2.4rem"">Please recall the letters you saw to the best of your ability. If you do not remember a particular letter, use the SKIP button.<br><b>(When you are ready to lock in your answer, press ENTER)</b></p><button id = button_1 class = ""square num-button"" onclick = ""recordClick(this)""><div class = content><div class = numbers>C</div></div></button><button id = button_2 class = ""square num-button"" onclick = ""recordClick(this)""><div class = content><div class = numbers>G</div></div></button><button id = button_3 class = ""square num-button"" onclick = ""recordClick(this)""><div class = content><div class = numbers>H</div></div></button><button id = button_4 class = ""square num-button"" onclick = ""recordClick(this)""><div class = content><div class = numbers>J</div></div></button><button id = button_5 class = ""square num-button"" onclick = ""recordClick(this)""><div class = content><div class = numbers>K</div></div></button><button id = button_6 class = ""square num-button"" onclick = ""recordClick(this)""><div class = content><div class = numbers>L</div></div></button><button id = button_7 class = ""square num-button"" onclick = ""recordClick(this)""><div class = content><div class = numbers>N</div></div></button><button id = button_8 class = ""square num-button"" onclick = ""recordClick(this)""><div class = content><div class = numbers>P</div></div></button><button id = button_9 class = ""square num-button"" onclick = ""recordClick(this)""><div class = content><div class = numbers>Q</div></div></button><button id = button_10 class = ""square num-button"" onclick = ""recordClick(this)""><div class = content><div class = numbers>R</div></div></button><button id = button_11 class = ""square num-button"" onclick = ""recordClick(this)""><div class = content><div class = numbers>S</div></div></button><button id = button_12 class = ""square num-button"" onclick = ""recordClick(this)""><div class = content><div class = numbers>Y</div></div></button><button class = clear_button id = ""ClearButton"" onclick = ""clearResponse()"">BACKSPACE</button><button class = blank_button id = ""BlankButton"" onclick = ""blankResponse()"">SKIP</button><p style=""font-size: 2.4rem""><u><b>Current Answer:</b></u></p><br><br><div id=echoed_txt style=""font-size: 5rem; color:blue;""><b></b></div></div>",enter,ospan,retrieval,tgyJIug6XYM1SFXJT5EK8pEwjpl1,html-keyboard-response,58,666867,0.0-43.0-0.0-1.0-3.0,NA,NA,NA,2.0,"[""P"",""H""]","[""P"",""H""]",1.0,2.0,"['<font color=""green"">P</font>', '<font color=""green"">H</font>']",,,,,,614b90050a269c27f4746a37,10:54:22,05/03/2024
1559.9000000059605,"['<p style=""font-size:44px"">Letters:<br><br><br><font color=""green"">P</font> <font color=""green"">H</font></p><br><br>']",0,ospan,practice_feedback,tgyJIug6XYM1SFXJT5EK8pEwjpl1,html-button-response,59,668931,0.0-43.0-0.0-1.0-4.0,,,,,,,,,,,,,,,614b90050a269c27f4746a37,10:54:22,05/03/2024
,"<p style=""font-size:75px;"">...</p>",,ospan,iti,tgyJIug6XYM1SFXJT5EK8pEwjpl1,html-keyboard-response,60,669934,0.0-43.0-0.0-2.0-0.0,,,,,,,,,,,,,,,614b90050a269c27f4746a37,10:54:22,05/03/2024
,"<div style=""font-size: 10rem; color: #0000FF"">Q</div>",,ospan,letter,tgyJIug6XYM1SFXJT5EK8pEwjpl1,html-keyboard-response,61,670936,0.0-43.0-0.0-2.0-1.0,,,,,,,,,,,,,,,614b90050a269c27f4746a37,10:54:22,05/03/2024
,"<div style=""font-size: 10rem; color: #0000FF"">Y</div>",,ospan,letter,tgyJIug6XYM1SFXJT5EK8pEwjpl1,html-keyboard-response,62,672687,0.0-43.0-0.0-2.0-2.0,,,,,,,,,,,,,,,614b90050a269c27f4746a37,10:54:22,05/03/2024
,"<div style=""font-size: 10rem; color: #0000FF"">L</div>",,ospan,letter,tgyJIug6XYM1SFXJT5EK8pEwjpl1,html-keyboard-response,63,674439,0.0-43.0-0.0-2.0-3.0,,,,,,,,,,,,,,,614b90050a269c27f4746a37,10:54:22,05/03/2024
6498.79999999702,"<div class = numbox><p style=""font-size: 2.4rem"">Please recall the letters you saw to the best of your ability. If you do not remember a particular letter, use the SKIP button.<br><b>(When you are ready to lock in your answer, press ENTER)</b></p><button id = button_1 class = ""square num-button"" onclick = ""recordClick(this)""><div class = content><div class = numbers>C</div></div></button><button id = button_2 class = ""square num-button"" onclick = ""recordClick(this)""><div class = content><div class = numbers>G</div></div></button><button id = button_3 class = ""square num-button"" onclick = ""recordClick(this)""><div class = content><div class = numbers>H</div></div></button><button id = button_4 class = ""square num-button"" onclick = ""recordClick(this)""><div class = content><div class = numbers>J</div></div></button><button id = button_5 class = ""square num-button"" onclick = ""recordClick(this)""><div class = content><div class = numbers>K</div></div></button><button id = button_6 class = ""square num-button"" onclick = ""recordClick(this)""><div class = content><div class = numbers>L</div></div></button><button id = button_7 class = ""square num-button"" onclick = ""recordClick(this)""><div class = content><div class = numbers>N</div></div></button><button id = button_8 class = ""square num-button"" onclick = ""recordClick(this)""><div class = content><div class = numbers>P</div></div></button><button id = button_9 class = ""square num-button"" onclick = ""recordClick(this)""><div class = content><div class = numbers>Q</div></div></button><button id = button_10 class = ""square num-button"" onclick = ""recordClick(this)""><div class = content><div class = numbers>R</div></div></button><button id = button_11 class = ""square num-button"" onclick = ""recordClick(this)""><div class = content><div class = numbers>S</div></div></button><button id = button_12 class = ""square num-button"" onclick = ""recordClick(this)""><div class = content><div class = numbers>Y</div></div></button><button class = clear_button id = ""ClearButton"" onclick = ""clearResponse()"">BACKSPACE</button><button class = blank_button id = ""BlankButton"" onclick = ""blankResponse()"">SKIP</button><p style=""font-size: 2.4rem""><u><b>Current Answer:</b></u></p><br><br><div id=echoed_txt style=""font-size: 5rem; color:blue;""><b></b></div></div>",enter,ospan,retrieval,tgyJIug6XYM1SFXJT5EK8pEwjpl1,html-keyboard-response,64,681689,0.0-43.0-0.0-2.0-4.0,NA,NA,NA,3.0,"[""Q"",""Y"",""L""]","[""Q"",""Y"",""L""]",1.0,3.0,"['<font color=""green"">Q</font>', '<font color=""green"">Y</font>', '<font color=""green"">L</font>']",,,,,,614b90050a269c27f4746a37,10:54:22,05/03/2024
1425.0,"['<p style=""font-size:44px"">Letters:<br><br><br><font color=""green"">Q</font> <font color=""green"">Y</font> <font color=""green"">L</font></p><br><br>']",0,ospan,practice_feedback,tgyJIug6XYM1SFXJT5EK8pEwjpl1,html-button-response,65,683618,0.0-43.0-0.0-2.0-5.0,,,,,,,,,,,,,,,614b90050a269c27f4746a37,10:54:22,05/03/2024
31264.90000000596,"<div class = 'left_align' style='font-size: 3.25rem; line-height: 1.3;'>Now you will practice doing the <b>symmetry judgment part</b> of the experiment.<br><br>A black and white grid picture will appear on the screen and you have to judge if it is <br>symmetrical or asymetrical.<br><br>A picture is 'mirror' symmetrical if its left half is identical to the right half when flipped.<br>Here are examples of a symmetrical and an asymetrical picture:<br><br><center><img src='Stimuli/img/symm_instructions_extra.png' style='height:420px; width:900'></img></center><br>To judge symmetry, imagine you were to fold each picture down the middle, like a book –<br>would the left half match the right half when folded onto each other?<br><br></div><br>",0,ospan,instruct,tgyJIug6XYM1SFXJT5EK8pEwjpl1,html-button-response,66,714886,0.0-43.0-1.0-0.0-0.0,,,,,,,,,,,,,,,614b90050a269c27f4746a37,10:54:22,05/03/2024
2359.4000000059605,"<div class = 'left_align' style='font-size: 3.25rem; line-height: 1.3;'>When you have viewed the picture and determined whether it is symmetrical or not,<br>you can <b>click the Yes or No button</b> below to answer.<br><br>If you take longer than 15 seconds, it will continue automatically<br>and record the answer as an error.</div><br>",0,ospan,instruct,tgyJIug6XYM1SFXJT5EK8pEwjpl1,html-button-response,67,717497,0.0-43.0-1.0-0.0-1.0,,,,,,,,,,,,,,,614b90050a269c27f4746a37,10:54:22,05/03/2024
2106.7000000029802,"<div class = 'left_align' style='font-size: 3.25rem; line-height: 1.3;'>It is <b>very</b> important that you make the symmetry judgment correctly.<br><br>It is also important that you try and judge the picture as quickly as you can.<br><br>When you are ready, click on the button below to try some practice problems.</div><br><br><br><br>",0,ospan,instruct,tgyJIug6XYM1SFXJT5EK8pEwjpl1,html-button-response,68,719856,0.0-43.0-1.0-0.0-2.0,,,,,,,,,,,,,,,614b90050a269c27f4746a37,10:54:22,05/03/2024
3485.0,,,ospan,symmetry,tgyJIug6XYM1SFXJT5EK8pEwjpl1,symmetry-judgement-task,69,724209,0.0-43.0-1.0-1.0-0.0,,,,,,,,,,1.0,1.0,,,,614b90050a269c27f4746a37,10:54:22,05/03/2024
,"<p style=""color:green; font-size: 35px"">Correct</p>",,ospan,feedback,tgyJIug6XYM1SFXJT5EK8pEwjpl1,html-keyboard-response,70,724961,0.0-43.0-1.0-1.0-1.0,,,,,,,,,,,,,,,614b90050a269c27f4746a37,10:54:22,05/03/2024
2437.0,,,ospan,symmetry,tgyJIug6XYM1SFXJT5EK8pEwjpl1,symmetry-judgement-task,71,730013,0.0-43.0-1.0-1.0-2.0,,,,,,,,,,1.0,1.0,,,,614b90050a269c27f4746a37,10:54:22,05/03/2024
,"<p style=""color:green; font-size: 35px"">Correct</p>",,ospan,feedback,tgyJIug6XYM1SFXJT5EK8pEwjpl1,html-keyboard-response,72,730765,0.0-43.0-1.0-1.0-3.0,,,,,,,,,,,,,,,614b90050a269c27f4746a37,10:54:22,05/03/2024
2212.0,,,ospan,symmetry,tgyJIug6XYM1SFXJT5EK8pEwjpl1,symmetry-judgement-task,73,736078,0.0-43.0-1.0-1.0-4.0,,,,,,,,,,1.0,1.0,,,,614b90050a269c27f4746a37,10:54:22,05/03/2024
,"<p style=""color:green; font-size: 35px"">Correct</p>",,ospan,feedback,tgyJIug6XYM1SFXJT5EK8pEwjpl1,html-keyboard-response,74,736830,0.0-43.0-1.0-1.0-5.0,,,,,,,,,,,,,,,614b90050a269c27f4746a37,10:54:22,05/03/2024
1255.6000000089407,"<p style=""font-size: 3rem;"">You responded correctly on 3 of 3 symmetry judgments. Good job!</p><br><br>",0,ospan,practice,tgyJIug6XYM1SFXJT5EK8pEwjpl1,html-button-response,75,740090,0.0-43.0-1.0-2.0,,,,,,,,,,,,,,,614b90050a269c27f4746a37,10:54:22,05/03/2024
2290.0,"<div class = 'left_align' style='font-size: 3.25rem; line-height: 1.3;'>Now you will practice doing both parts of the experiment at the same time.<br><br>In the next practice set, you will be given one grid picture to judge.<br>Then letter will appear on the screen. Try to remember the letter.<br><br>It is <b>very important</b> to make the symmetry judgment as quickly and accurately as possible.<br><br>Just as before, once you have make the symmetry judgment, you can click Yes or No.<br><b>Note that you will no longer see Correct or Incorrect feedback.</div><br><br><br><br>",0,ospan,instruct,tgyJIug6XYM1SFXJT5EK8pEwjpl1,html-button-response,76,742632,0.0-43.0-2.0-0.0-0.0,,,,,,,,,,,,,,,614b90050a269c27f4746a37,10:54:22,05/03/2024
1753.2000000029802,"<div class = 'left_align' style='font-size: 3.25rem; line-height: 1.3;'>After the letter goes away, another grid picture will appear, and then<br>another letter.<br><br>At the end of each set of letters and grids, you will recall the letters to the best<br>of your ability. Remember, try your best to get the letters in the correct order.<br><br>It is important to <b>quickly</b> and <b>accurately</b> make the symmetry judgments.</div><br><br><br><br>",0,ospan,instruct,tgyJIug6XYM1SFXJT5EK8pEwjpl1,html-button-response,77,744638,0.0-43.0-2.0-0.0-1.0,,,,,,,,,,,,,,,614b90050a269c27f4746a37,10:54:22,05/03/2024
6111.9000000059605,"<div class = 'left_align' style='font-size: 3.25rem; line-height: 1.3;'>On the feedback screen, if you are not doing well at the symmetry judgments,<br>you will also see a warning in the middle. This indicates your percent <br>correct for the grid pictures for the entire experiment.<br><br>It is <b>very</b> important for you to keep accuracy at least at 85%: <u>We can only use<br>data where the participant was at least 85% accurate on the judgments.</u> Therefore,<br> please try your best to perform well on the symmetry judgments, <b>at the same time</b><br>doing your best to recall as many letters as possible.<br><br>Click the button to try some practice problems.</div><br><br><br><br>",0,ospan,instruct,tgyJIug6XYM1SFXJT5EK8pEwjpl1,html-button-response,78,751004,0.0-43.0-2.0-0.0-2.0,,,,,,,,,,,,,,,614b90050a269c27f4746a37,10:54:22,05/03/2024
,"<p style=""font-size:75px;"">...</p>",,ospan,iti,tgyJIug6XYM1SFXJT5EK8pEwjpl1,html-keyboard-response,79,752256,0.0-43.0-2.0-1.0-0.0,,,,,,,,,,,,,,,614b90050a269c27f4746a37,10:54:22,05/03/2024
2689.0,,,ospan,symmetry,tgyJIug6XYM1SFXJT5EK8pEwjpl1,symmetry-judgement-task,80,756483,0.0-43.0-2.0-1.0-1.0-0.0,,,,,,,,,,1.0,1.0,,,,614b90050a269c27f4746a37,10:54:22,05/03/2024
,"<div style=""font-size: 10rem; color: #0000FF"">C</div>",,ospan,letter,tgyJIug6XYM1SFXJT5EK8pEwjpl1,html-keyboard-response,81,757486,0.0-43.0-2.0-1.0-1.0-1.0,,,,,,,,,,,,,,,614b90050a269c27f4746a37,10:54:22,05/03/2024
2424.0,,,ospan,symmetry,tgyJIug6XYM1SFXJT5EK8pEwjpl1,symmetry-judgement-task,82,762228,0.0-43.0-2.0-1.0-1.0-2.0,,,,,,,,,,1.0,1.0,,,,614b90050a269c27f4746a37,10:54:22,05/03/2024
,"<div style=""font-size: 10rem; color: #0000FF"">K</div>",,ospan,letter,tgyJIug6XYM1SFXJT5EK8pEwjpl1,html-keyboard-response,83,763229,0.0-43.0-2.0-1.0-1.0-3.0,,,,,,,,,,,,,,,614b90050a269c27f4746a37,10:54:22,05/03/2024
1630.0,,,ospan,symmetry,tgyJIug6XYM1SFXJT5EK8pEwjpl1,symmetry-judgement-task,84,767186,0.0-43.0-2.0-1.0-1.0-4.0,,,,,,,,,,1.0,1.0,,,,614b90050a269c27f4746a37,10:54:22,05/03/2024
,"<div style=""font-size: 10rem; color: #0000FF"">S</div>",,ospan,letter,tgyJIug6XYM1SFXJT5EK8pEwjpl1,html-keyboard-response,85,768188,0.0-43.0-2.0-1.0-1.0-5.0,,,,,,,,,,,,,,,614b90050a269c27f4746a37,10:54:22,05/03/2024
4251.100000008941,"<div class = numbox><p style=""font-size: 2.4rem"">Please recall the letters you saw to the best of your ability. If you do not remember a particular letter, use the SKIP button.<br><b>(When you are ready to lock in your answer, press ENTER)</b></p><button id = button_1 class = ""square num-button"" onclick = ""recordClick(this)""><div class = content><div class = numbers>C</div></div></button><button id = button_2 class = ""square num-button"" onclick = ""recordClick(this)""><div class = content><div class = numbers>G</div></div></button><button id = button_3 class = ""square num-button"" onclick = ""recordClick(this)""><div class = content><div class = numbers>H</div></div></button><button id = button_4 class = ""square num-button"" onclick = ""recordClick(this)""><div class = content><div class = numbers>J</div></div></button><button id = button_5 class = ""square num-button"" onclick = ""recordClick(this)""><div class = content><div class = numbers>K</div></div></button><button id = button_6 class = ""square num-button"" onclick = ""recordClick(this)""><div class = content><div class = numbers>L</div></div></button><button id = button_7 class = ""square num-button"" onclick = ""recordClick(this)""><div class = content><div class = numbers>N</div></div></button><button id = button_8 class = ""square num-button"" onclick = ""recordClick(this)""><div class = content><div class = numbers>P</div></div></button><button id = button_9 class = ""square num-button"" onclick = ""recordClick(this)""><div class = content><div class = numbers>Q</div></div></button><button id = button_10 class = ""square num-button"" onclick = ""recordClick(this)""><div class = content><div class = numbers>R</div></div></button><button id = button_11 class = ""square num-button"" onclick = ""recordClick(this)""><div class = content><div class = numbers>S</div></div></button><button id = button_12 class = ""square num-button"" onclick = ""recordClick(this)""><div class = content><div class = numbers>Y</div></div></button><button class = clear_button id = ""ClearButton"" onclick = ""clearResponse()"">BACKSPACE</button><button class = blank_button id = ""BlankButton"" onclick = ""blankResponse()"">SKIP</button><p style=""font-size: 2.4rem""><u><b>Current Answer:</b></u></p><br><br><div id=echoed_txt style=""font-size: 5rem; color:blue;""><b></b></div></div>",enter,ospan,retrieval,tgyJIug6XYM1SFXJT5EK8pEwjpl1,html-keyboard-response,86,773192,0.0-43.0-2.0-1.0-2.0-0.0,NA,NA,NA,3.0,"[""C"",""K"",""S""]","[""C"",""K"",""S""]",1.0,3.0,"['<font color=""green"">C</font>', '<font color=""green"">K</font>', '<font color=""green"">S</font>']",,,,,,614b90050a269c27f4746a37,10:54:22,05/03/2024
1853.2999999970198,"['<p style=""font-size:44px"">Letters:<br><br><br><font color=""green"">C</font> <font color=""green"">K</font> <font color=""green"">S</font></p><br><br><p style=""font-size:30px"">Symmetry:<br><br><font color=""green"">100%</font></p><br><br>']",0,ospan,practice_feedback,tgyJIug6XYM1SFXJT5EK8pEwjpl1,html-button-response,87,775550,0.0-43.0-2.0-1.0-2.0-1.0,,,,,,,,,,,,,,,614b90050a269c27f4746a37,10:54:22,05/03/2024
,"<p style=""font-size:75px;"">...</p>",,ospan,iti,tgyJIug6XYM1SFXJT5EK8pEwjpl1,html-keyboard-response,88,776553,0.0-43.0-2.0-2.0-0.0,,,,,,,,,,,,,,,614b90050a269c27f4746a37,10:54:22,05/03/2024
1841.0,,,ospan,symmetry,tgyJIug6XYM1SFXJT5EK8pEwjpl1,symmetry-judgement-task,89,779927,0.0-43.0-2.0-2.0-1.0-0.0,,,,,,,,,,1.0,1.0,,,,614b90050a269c27f4746a37,10:54:22,05/03/2024
,"<div style=""font-size: 10rem; color: #0000FF"">G</div>",,ospan,letter,tgyJIug6XYM1SFXJT5EK8pEwjpl1,html-keyboard-response,90,780929,0.0-43.0-2.0-2.0-1.0-1.0,,,,,,,,,,,,,,,614b90050a269c27f4746a37,10:54:22,05/03/2024
1869.0,,,ospan,symmetry,tgyJIug6XYM1SFXJT5EK8pEwjpl1,symmetry-judgement-task,91,785122,0.0-43.0-2.0-2.0-1.0-2.0,,,,,,,,,,1.0,1.0,,,,614b90050a269c27f4746a37,10:54:22,05/03/2024
,"<div style=""font-size: 10rem; color: #0000FF"">N</div>",,ospan,letter,tgyJIug6XYM1SFXJT5EK8pEwjpl1,html-keyboard-response,92,786124,0.0-43.0-2.0-2.0-1.0-3.0,,,,,,,,,,,,,,,614b90050a269c27f4746a37,10:54:22,05/03/2024
1600.0,,,ospan,symmetry,tgyJIug6XYM1SFXJT5EK8pEwjpl1,symmetry-judgement-task,93,790030,0.0-43.0-2.0-2.0-1.0-4.0,,,,,,,,,,1.0,1.0,,,,614b90050a269c27f4746a37,10:54:22,05/03/2024
,"<div style=""font-size: 10rem; color: #0000FF"">L</div>",,ospan,letter,tgyJIug6XYM1SFXJT5EK8pEwjpl1,html-keyboard-response,94,791032,0.0-43.0-2.0-2.0-1.0-5.0,,,,,,,,,,,,,,,614b90050a269c27f4746a37,10:54:22,05/03/2024
4409.899999991059,"<div class = numbox><p style=""font-size: 2.4rem"">Please recall the letters you saw to the best of your ability. If you do not remember a particular letter, use the SKIP button.<br><b>(When you are ready to lock in your answer, press ENTER)</b></p><button id = button_1 class = ""square num-button"" onclick = ""recordClick(this)""><div class = content><div class = numbers>C</div></div></button><button id = button_2 class = ""square num-button"" onclick = ""recordClick(this)""><div class = content><div class = numbers>G</div></div></button><button id = button_3 class = ""square num-button"" onclick = ""recordClick(this)""><div class = content><div class = numbers>H</div></div></button><button id = button_4 class = ""square num-button"" onclick = ""recordClick(this)""><div class = content><div class = numbers>J</div></div></button><button id = button_5 class = ""square num-button"" onclick = ""recordClick(this)""><div class = content><div class = numbers>K</div></div></button><button id = button_6 class = ""square num-button"" onclick = ""recordClick(this)""><div class = content><div class = numbers>L</div></div></button><button id = button_7 class = ""square num-button"" onclick = ""recordClick(this)""><div class = content><div class = numbers>N</div></div></button><button id = button_8 class = ""square num-button"" onclick = ""recordClick(this)""><div class = content><div class = numbers>P</div></div></button><button id = button_9 class = ""square num-button"" onclick = ""recordClick(this)""><div class = content><div class = numbers>Q</div></div></button><button id = button_10 class = ""square num-button"" onclick = ""recordClick(this)""><div class = content><div class = numbers>R</div></div></button><button id = button_11 class = ""square num-button"" onclick = ""recordClick(this)""><div class = content><div class = numbers>S</div></div></button><button id = button_12 class = ""square num-button"" onclick = ""recordClick(this)""><div class = content><div class = numbers>Y</div></div></button><button class = clear_button id = ""ClearButton"" onclick = ""clearResponse()"">BACKSPACE</button><button class = blank_button id = ""BlankButton"" onclick = ""blankResponse()"">SKIP</button><p style=""font-size: 2.4rem""><u><b>Current Answer:</b></u></p><br><br><div id=echoed_txt style=""font-size: 5rem; color:blue;""><b></b></div></div>",enter,ospan,retrieval,tgyJIug6XYM1SFXJT5EK8pEwjpl1,html-keyboard-response,95,796195,0.0-43.0-2.0-2.0-2.0-0.0,NA,NA,NA,3.0,"[""G"",""N"",""L""]","[""G"",""N"",""L""]",1.0,3.0,"['<font color=""green"">G</font>', '<font color=""green"">N</font>', '<font color=""green"">L</font>']",,,,,,614b90050a269c27f4746a37,10:54:22,05/03/2024
1735.2000000029802,"['<p style=""font-size:44px"">Letters:<br><br><br><font color=""green"">G</font> <font color=""green"">N</font> <font color=""green"">L</font></p><br><br><p style=""font-size:30px"">Symmetry:<br><br><font color=""green"">100%</font></p><br><br>']",0,ospan,practice_feedback,tgyJIug6XYM1SFXJT5EK8pEwjpl1,html-button-response,96,798433,0.0-43.0-2.0-2.0-2.0-1.0,,,,,,,,,,,,,,,614b90050a269c27f4746a37,10:54:22,05/03/2024
10901.70000000298,"<div class = 'left_align' style='font-size: 3rem; line-height: 1.3;'><b>Great work! That is the end of practice.</b><br><br>The real trials will look just like the practice trials you just completed.<br><br><u>Here, you will not see feedback</u>. First, you will see an grid picture to judge,<br>then a letter to remember. When the recall screen appears, report the letters in the<br>order presented. If you forget a letter, remember to use the <b>blank</b> button to move to the<br>next letter. Some of the sets will have more symmetry grids and letters than others.<br><br>It is important that you do your best on both the symmetry judgments and the letter recall<br>parts of the experiment. For for the symmetry judgments, try to work as <b>quickly</b> and <br>as <b>accurately</b> as possible. Remember to keep your symmetry accuracy at 85% or above.<br><br><b>For the letters, do NOT use any external aid (e.g., writing on paper, electronic device).</b><br><br>It is <u>very important</u> to our experiment to have a <b>true</b> view of your real performance.<br><br>Do not worry if you miss some when it gets hard! This task is meant to be very challenging!<br><br>Click the button to begin.</div><br><br><br><br>",0,ospan,starting_real_here,tgyJIug6XYM1SFXJT5EK8pEwjpl1,html-button-response,97,809339,0.0-43.0-2.0-3.0,,,,,,,,,,,,,,,614b90050a269c27f4746a37,10:54:22,05/03/2024
,"<p style=""font-size:75px;"">...</p>",,ospan,iti,tgyJIug6XYM1SFXJT5EK8pEwjpl1,html-keyboard-response,98,810592,0.0-43.0-3.0-0.0-0.0,,,,,,,,,,,,,,,614b90050a269c27f4746a37,10:54:22,05/03/2024
1475.0,,,ospan,symmetry,tgyJIug6XYM1SFXJT5EK8pEwjpl1,symmetry-judgement-task,99,813639,0.0-43.0-3.0-0.0-1.0-0.0,,,,,,,,,,1.0,1.0,,,,614b90050a269c27f4746a37,10:54:22,05/03/2024
,"<div style=""font-size: 10rem; color: #0000FF"">J</div>",,ospan,letter,tgyJIug6XYM1SFXJT5EK8pEwjpl1,html-keyboard-response,100,814641,0.0-43.0-3.0-0.0-1.0-1.0,,,,,,,,,,,,,,,614b90050a269c27f4746a37,10:54:22,05/03/2024
1991.0,,,ospan,symmetry,tgyJIug6XYM1SFXJT5EK8pEwjpl1,symmetry-judgement-task,101,818915,0.0-43.0-3.0-0.0-1.0-2.0,,,,,,,,,,1.0,1.0,,,,614b90050a269c27f4746a37,10:54:22,05/03/2024
,"<div style=""font-size: 10rem; color: #0000FF"">R</div>",,ospan,letter,tgyJIug6XYM1SFXJT5EK8pEwjpl1,html-keyboard-response,102,819917,0.0-43.0-3.0-0.0-1.0-3.0,,,,,,,,,,,,,,,614b90050a269c27f4746a37,10:54:22,05/03/2024
3382.0,,,ospan,symmetry,tgyJIug6XYM1SFXJT5EK8pEwjpl1,symmetry-judgement-task,103,825604,0.0-43.0-3.0-0.0-1.0-4.0,,,,,,,,,,1.0,1.0,,,,614b90050a269c27f4746a37,10:54:22,05/03/2024
,"<div style=""font-size: 10rem; color: #0000FF"">Q</div>",,ospan,letter,tgyJIug6XYM1SFXJT5EK8pEwjpl1,html-keyboard-response,104,826606,0.0-43.0-3.0-0.0-1.0-5.0,,,,,,,,,,,,,,,614b90050a269c27f4746a37,10:54:22,05/03/2024
5573.899999991059,"<div class = numbox><p style=""font-size: 2.4rem"">Please recall the letters you saw to the best of your ability. If you do not remember a particular letter, use the SKIP button.<br><b>(When you are ready to lock in your answer, press ENTER)</b></p><button id = button_1 class = ""square num-button"" onclick = ""recordClick(this)""><div class = content><div class = numbers>C</div></div></button><button id = button_2 class = ""square num-button"" onclick = ""recordClick(this)""><div class = content><div class = numbers>G</div></div></button><button id = button_3 class = ""square num-button"" onclick = ""recordClick(this)""><div class = content><div class = numbers>H</div></div></button><button id = button_4 class = ""square num-button"" onclick = ""recordClick(this)""><div class = content><div class = numbers>J</div></div></button><button id = button_5 class = ""square num-button"" onclick = ""recordClick(this)""><div class = content><div class = numbers>K</div></div></button><button id = button_6 class = ""square num-button"" onclick = ""recordClick(this)""><div class = content><div class = numbers>L</div></div></button><button id = button_7 class = ""square num-button"" onclick = ""recordClick(this)""><div class = content><div class = numbers>N</div></div></button><button id = button_8 class = ""square num-button"" onclick = ""recordClick(this)""><div class = content><div class = numbers>P</div></div></button><button id = button_9 class = ""square num-button"" onclick = ""recordClick(this)""><div class = content><div class = numbers>Q</div></div></button><button id = button_10 class = ""square num-button"" onclick = ""recordClick(this)""><div class = content><div class = numbers>R</div></div></button><button id = button_11 class = ""square num-button"" onclick = ""recordClick(this)""><div class = content><div class = numbers>S</div></div></button><button id = button_12 class = ""square num-button"" onclick = ""recordClick(this)""><div class = content><div class = numbers>Y</div></div></button><button class = clear_button id = ""ClearButton"" onclick = ""clearResponse()"">BACKSPACE</button><button class = blank_button id = ""BlankButton"" onclick = ""blankResponse()"">SKIP</button><p style=""font-size: 2.4rem""><u><b>Current Answer:</b></u></p><br><br><div id=echoed_txt style=""font-size: 5rem; color:blue;""><b></b></div></div>",enter,ospan,retrieval,tgyJIug6XYM1SFXJT5EK8pEwjpl1,html-keyboard-response,105,832933,0.0-43.0-3.0-0.0-2.0,3,3,3,3.0,"[""J"",""R"",""Q""]","[""J"",""R"",""Q""]",1.0,3.0,,,,,,,614b90050a269c27f4746a37,10:54:22,05/03/2024
2147.0,[''],0,ospan,feedback,tgyJIug6XYM1SFXJT5EK8pEwjpl1,html-button-response,106,835583,0.0-43.0-3.0-0.0-3.0,,,,,,,,,,,,100.0,0.0,,614b90050a269c27f4746a37,10:54:22,05/03/2024
,"<p style=""font-size:75px;"">...</p>",,ospan,iti,tgyJIug6XYM1SFXJT5EK8pEwjpl1,html-keyboard-response,107,836586,0.0-43.0-4.0-0.0-0.0,,,,,,,,,,,,,,,614b90050a269c27f4746a37,10:54:22,05/03/2024
2538.0,,,ospan,symmetry,tgyJIug6XYM1SFXJT5EK8pEwjpl1,symmetry-judgement-task,108,840678,0.0-43.0-4.0-0.0-1.0-0.0,,,,,,,,,,1.0,1.0,,,,614b90050a269c27f4746a37,10:54:22,05/03/2024
,"<div style=""font-size: 10rem; color: #0000FF"">Q</div>",,ospan,letter,tgyJIug6XYM1SFXJT5EK8pEwjpl1,html-keyboard-response,109,841680,0.0-43.0-4.0-0.0-1.0-1.0,,,,,,,,,,,,,,,614b90050a269c27f4746a37,10:54:22,05/03/2024
1186.0,,,ospan,symmetry,tgyJIug6XYM1SFXJT5EK8pEwjpl1,symmetry-judgement-task,110,845144,0.0-43.0-4.0-0.0-1.0-2.0,,,,,,,,,,1.0,1.0,,,,614b90050a269c27f4746a37,10:54:22,05/03/2024
,"<div style=""font-size: 10rem; color: #0000FF"">H</div>",,ospan,letter,tgyJIug6XYM1SFXJT5EK8pEwjpl1,html-keyboard-response,111,846145,0.0-43.0-4.0-0.0-1.0-3.0,,,,,,,,,,,,,,,614b90050a269c27f4746a37,10:54:22,05/03/2024
1262.0,,,ospan,symmetry,tgyJIug6XYM1SFXJT5EK8pEwjpl1,symmetry-judgement-task,112,849757,0.0-43.0-4.0-0.0-1.0-4.0,,,,,,,,,,1.0,1.0,,,,614b90050a269c27f4746a37,10:54:22,05/03/2024
,"<div style=""font-size: 10rem; color: #0000FF"">L</div>",,ospan,letter,tgyJIug6XYM1SFXJT5EK8pEwjpl1,html-keyboard-response,113,850759,0.0-43.0-4.0-0.0-1.0-5.0,,,,,,,,,,,,,,,614b90050a269c27f4746a37,10:54:22,05/03/2024
1742.0,,,ospan,symmetry,tgyJIug6XYM1SFXJT5EK8pEwjpl1,symmetry-judgement-task,114,854825,0.0-43.0-4.0-0.0-1.0-6.0,,,,,,,,,,1.0,1.0,,,,614b90050a269c27f4746a37,10:54:22,05/03/2024
,"<div style=""font-size: 10rem; color: #0000FF"">P</div>",,ospan,letter,tgyJIug6XYM1SFXJT5EK8pEwjpl1,html-keyboard-response,115,855827,0.0-43.0-4.0-0.0-1.0-7.0,,,,,,,,,,,,,,,614b90050a269c27f4746a37,10:54:22,05/03/2024
4107.79999999702,"<div class = numbox><p style=""font-size: 2.4rem"">Please recall the letters you saw to the best of your ability. If you do not remember a particular letter, use the SKIP button.<br><b>(When you are ready to lock in your answer, press ENTER)</b></p><button id = button_1 class = ""square num-button"" onclick = ""recordClick(this)""><div class = content><div class = numbers>C</div></div></button><button id = button_2 class = ""square num-button"" onclick = ""recordClick(this)""><div class = content><div class = numbers>G</div></div></button><button id = button_3 class = ""square num-button"" onclick = ""recordClick(this)""><div class = content><div class = numbers>H</div></div></button><button id = button_4 class = ""square num-button"" onclick = ""recordClick(this)""><div class = content><div class = numbers>J</div></div></button><button id = button_5 class = ""square num-button"" onclick = ""recordClick(this)""><div class = content><div class = numbers>K</div></div></button><button id = button_6 class = ""square num-button"" onclick = ""recordClick(this)""><div class = content><div class = numbers>L</div></div></button><button id = button_7 class = ""square num-button"" onclick = ""recordClick(this)""><div class = content><div class = numbers>N</div></div></button><button id = button_8 class = ""square num-button"" onclick = ""recordClick(this)""><div class = content><div class = numbers>P</div></div></button><button id = button_9 class = ""square num-button"" onclick = ""recordClick(this)""><div class = content><div class = numbers>Q</div></div></button><button id = button_10 class = ""square num-button"" onclick = ""recordClick(this)""><div class = content><div class = numbers>R</div></div></button><button id = button_11 class = ""square num-button"" onclick = ""recordClick(this)""><div class = content><div class = numbers>S</div></div></button><button id = button_12 class = ""square num-button"" onclick = ""recordClick(this)""><div class = content><div class = numbers>Y</div></div></button><button class = clear_button id = ""ClearButton"" onclick = ""clearResponse()"">BACKSPACE</button><button class = blank_button id = ""BlankButton"" onclick = ""blankResponse()"">SKIP</button><p style=""font-size: 2.4rem""><u><b>Current Answer:</b></u></p><br><br><div id=echoed_txt style=""font-size: 5rem; color:blue;""><b></b></div></div>",enter,ospan,retrieval,tgyJIug6XYM1SFXJT5EK8pEwjpl1,html-keyboard-response,116,860687,0.0-43.0-4.0-0.0-2.0,7,7,7,4.0,"[""Q"",""H"",""L"",""P""]","[""Q"",""H"",""L"",""P""]",1.0,4.0,,,,,,,614b90050a269c27f4746a37,10:54:22,05/03/2024
1671.9000000059605,[''],0,ospan,feedback,tgyJIug6XYM1SFXJT5EK8pEwjpl1,html-button-response,117,862862,0.0-43.0-4.0-0.0-3.0,,,,,,,,,,,,100.0,0.0,,614b90050a269c27f4746a37,10:54:22,05/03/2024
,"<p style=""font-size:75px;"">...</p>",,ospan,iti,tgyJIug6XYM1SFXJT5EK8pEwjpl1,html-keyboard-response,118,863864,0.0-43.0-4.0-1.0-0.0,,,,,,,,,,,,,,,614b90050a269c27f4746a37,10:54:22,05/03/2024
1644.0,,,ospan,symmetry,tgyJIug6XYM1SFXJT5EK8pEwjpl1,symmetry-judgement-task,119,867041,0.0-43.0-4.0-1.0-1.0-0.0,,,,,,,,,,1.0,1.0,,,,614b90050a269c27f4746a37,10:54:22,05/03/2024
,"<div style=""font-size: 10rem; color: #0000FF"">J</div>",,ospan,letter,tgyJIug6XYM1SFXJT5EK8pEwjpl1,html-keyboard-response,120,868043,0.0-43.0-4.0-1.0-1.0-1.0,,,,,,,,,,,,,,,614b90050a269c27f4746a37,10:54:22,05/03/2024
899.0,,,ospan,symmetry,tgyJIug6XYM1SFXJT5EK8pEwjpl1,symmetry-judgement-task,121,871293,0.0-43.0-4.0-1.0-1.0-2.0,,,,,,,,,,1.0,1.0,,,,614b90050a269c27f4746a37,10:54:22,05/03/2024
,"<div style=""font-size: 10rem; color: #0000FF"">C</div>",,ospan,letter,tgyJIug6XYM1SFXJT5EK8pEwjpl1,html-keyboard-response,122,872294,0.0-43.0-4.0-1.0-1.0-3.0,,,,,,,,,,,,,,,614b90050a269c27f4746a37,10:54:22,05/03/2024
1659.0,,,ospan,symmetry,tgyJIug6XYM1SFXJT5EK8pEwjpl1,symmetry-judgement-task,123,876280,0.0-43.0-4.0-1.0-1.0-4.0,,,,,,,,,,1.0,1.0,,,,614b90050a269c27f4746a37,10:54:22,05/03/2024
,"<div style=""font-size: 10rem; color: #0000FF"">N</div>",,ospan,letter,tgyJIug6XYM1SFXJT5EK8pEwjpl1,html-keyboard-response,124,877282,0.0-43.0-4.0-1.0-1.0-5.0,,,,,,,,,,,,,,,614b90050a269c27f4746a37,10:54:22,05/03/2024
2422.0,,,ospan,symmetry,tgyJIug6XYM1SFXJT5EK8pEwjpl1,symmetry-judgement-task,125,882006,0.0-43.0-4.0-1.0-1.0-6.0,,,,,,,,,,1.0,1.0,,,,614b90050a269c27f4746a37,10:54:22,05/03/2024
,"<div style=""font-size: 10rem; color: #0000FF"">S</div>",,ospan,letter,tgyJIug6XYM1SFXJT5EK8pEwjpl1,html-keyboard-response,126,883008,0.0-43.0-4.0-1.0-1.0-7.0,,,,,,,,,,,,,,,614b90050a269c27f4746a37,10:54:22,05/03/2024
1737.0,,,ospan,symmetry,tgyJIug6XYM1SFXJT5EK8pEwjpl1,symmetry-judgement-task,127,887059,0.0-43.0-4.0-1.0-1.0-8.0,,,,,,,,,,1.0,1.0,,,,614b90050a269c27f4746a37,10:54:22,05/03/2024
,"<div style=""font-size: 10rem; color: #0000FF"">G</div>",,ospan,letter,tgyJIug6XYM1SFXJT5EK8pEwjpl1,html-keyboard-response,128,888062,0.0-43.0-4.0-1.0-1.0-9.0,,,,,,,,,,,,,,,614b90050a269c27f4746a37,10:54:22,05/03/2024
7323.399999991059,"<div class = numbox><p style=""font-size: 2.4rem"">Please recall the letters you saw to the best of your ability. If you do not remember a particular letter, use the SKIP button.<br><b>(When you are ready to lock in your answer, press ENTER)</b></p><button id = button_1 class = ""square num-button"" onclick = ""recordClick(this)""><div class = content><div class = numbers>C</div></div></button><button id = button_2 class = ""square num-button"" onclick = ""recordClick(this)""><div class = content><div class = numbers>G</div></div></button><button id = button_3 class = ""square num-button"" onclick = ""recordClick(this)""><div class = content><div class = numbers>H</div></div></button><button id = button_4 class = ""square num-button"" onclick = ""recordClick(this)""><div class = content><div class = numbers>J</div></div></button><button id = button_5 class = ""square num-button"" onclick = ""recordClick(this)""><div class = content><div class = numbers>K</div></div></button><button id = button_6 class = ""square num-button"" onclick = ""recordClick(this)""><div class = content><div class = numbers>L</div></div></button><button id = button_7 class = ""square num-button"" onclick = ""recordClick(this)""><div class = content><div class = numbers>N</div></div></button><button id = button_8 class = ""square num-button"" onclick = ""recordClick(this)""><div class = content><div class = numbers>P</div></div></button><button id = button_9 class = ""square num-button"" onclick = ""recordClick(this)""><div class = content><div class = numbers>Q</div></div></button><button id = button_10 class = ""square num-button"" onclick = ""recordClick(this)""><div class = content><div class = numbers>R</div></div></button><button id = button_11 class = ""square num-button"" onclick = ""recordClick(this)""><div class = content><div class = numbers>S</div></div></button><button id = button_12 class = ""square num-button"" onclick = ""recordClick(this)""><div class = content><div class = numbers>Y</div></div></button><button class = clear_button id = ""ClearButton"" onclick = ""clearResponse()"">BACKSPACE</button><button class = blank_button id = ""BlankButton"" onclick = ""blankResponse()"">SKIP</button><p style=""font-size: 2.4rem""><u><b>Current Answer:</b></u></p><br><br><div id=echoed_txt style=""font-size: 5rem; color:blue;""><b></b></div></div>",enter,ospan,retrieval,tgyJIug6XYM1SFXJT5EK8pEwjpl1,html-keyboard-response,129,896138,0.0-43.0-4.0-1.0-2.0,12,9,7,5.0,"[""J"",""C"",""S"",""G""]","[""J"",""C"",""N"",""S"",""G""]",0.0,2.0,,,,,,,614b90050a269c27f4746a37,10:54:22,05/03/2024
1421.5,[''],0,ospan,feedback,tgyJIug6XYM1SFXJT5EK8pEwjpl1,html-button-response,130,898062,0.0-43.0-4.0-1.0-3.0,,,,,,,,,,,,100.0,0.0,,614b90050a269c27f4746a37,10:54:22,05/03/2024
,"<p style=""font-size:75px;"">...</p>",,ospan,iti,tgyJIug6XYM1SFXJT5EK8pEwjpl1,html-keyboard-response,131,899066,0.0-43.0-4.0-2.0-0.0,,,,,,,,,,,,,,,614b90050a269c27f4746a37,10:54:22,05/03/2024
2042.0,,,ospan,symmetry,tgyJIug6XYM1SFXJT5EK8pEwjpl1,symmetry-judgement-task,132,902646,0.0-43.0-4.0-2.0-1.0-0.0,,,,,,,,,,1.0,1.0,,,,614b90050a269c27f4746a37,10:54:22,05/03/2024
,"<div style=""font-size: 10rem; color: #0000FF"">S</div>",,ospan,letter,tgyJIug6XYM1SFXJT5EK8pEwjpl1,html-keyboard-response,133,903648,0.0-43.0-4.0-2.0-1.0-1.0,,,,,,,,,,,,,,,614b90050a269c27f4746a37,10:54:22,05/03/2024
1142.0,,,ospan,symmetry,tgyJIug6XYM1SFXJT5EK8pEwjpl1,symmetry-judgement-task,134,907092,0.0-43.0-4.0-2.0-1.0-2.0,,,,,,,,,,1.0,1.0,,,,614b90050a269c27f4746a37,10:54:22,05/03/2024
,"<div style=""font-size: 10rem; color: #0000FF"">K</div>",,ospan,letter,tgyJIug6XYM1SFXJT5EK8pEwjpl1,html-keyboard-response,135,908094,0.0-43.0-4.0-2.0-1.0-3.0,,,,,,,,,,,,,,,614b90050a269c27f4746a37,10:54:22,05/03/2024
2034.0,,,ospan,symmetry,tgyJIug6XYM1SFXJT5EK8pEwjpl1,symmetry-judgement-task,136,912423,0.0-43.0-4.0-2.0-1.0-4.0,,,,,,,,,,1.0,1.0,,,,614b90050a269c27f4746a37,10:54:22,05/03/2024
,"<div style=""font-size: 10rem; color: #0000FF"">Q</div>",,ospan,letter,tgyJIug6XYM1SFXJT5EK8pEwjpl1,html-keyboard-response,137,913426,0.0-43.0-4.0-2.0-1.0-5.0,,,,,,,,,,,,,,,614b90050a269c27f4746a37,10:54:22,05/03/2024
3500.9000000059605,"<div class = numbox><p style=""font-size: 2.4rem"">Please recall the letters you saw to the best of your ability. If you do not remember a particular letter, use the SKIP button.<br><b>(When you are ready to lock in your answer, press ENTER)</b></p><button id = button_1 class = ""square num-button"" onclick = ""recordClick(this)""><div class = content><div class = numbers>C</div></div></button><button id = button_2 class = ""square num-button"" onclick = ""recordClick(this)""><div class = content><div class = numbers>G</div></div></button><button id = button_3 class = ""square num-button"" onclick = ""recordClick(this)""><div class = content><div class = numbers>H</div></div></button><button id = button_4 class = ""square num-button"" onclick = ""recordClick(this)""><div class = content><div class = numbers>J</div></div></button><button id = button_5 class = ""square num-button"" onclick = ""recordClick(this)""><div class = content><div class = numbers>K</div></div></button><button id = button_6 class = ""square num-button"" onclick = ""recordClick(this)""><div class = content><div class = numbers>L</div></div></button><button id = button_7 class = ""square num-button"" onclick = ""recordClick(this)""><div class = content><div class = numbers>N</div></div></button><button id = button_8 class = ""square num-button"" onclick = ""recordClick(this)""><div class = content><div class = numbers>P</div></div></button><button id = button_9 class = ""square num-button"" onclick = ""recordClick(this)""><div class = content><div class = numbers>Q</div></div></button><button id = button_10 class = ""square num-button"" onclick = ""recordClick(this)""><div class = content><div class = numbers>R</div></div></button><button id = button_11 class = ""square num-button"" onclick = ""recordClick(this)""><div class = content><div class = numbers>S</div></div></button><button id = button_12 class = ""square num-button"" onclick = ""recordClick(this)""><div class = content><div class = numbers>Y</div></div></button><button class = clear_button id = ""ClearButton"" onclick = ""clearResponse()"">BACKSPACE</button><button class = blank_button id = ""BlankButton"" onclick = ""blankResponse()"">SKIP</button><p style=""font-size: 2.4rem""><u><b>Current Answer:</b></u></p><br><br><div id=echoed_txt style=""font-size: 5rem; color:blue;""><b></b></div></div>",enter,ospan,retrieval,tgyJIug6XYM1SFXJT5EK8pEwjpl1,html-keyboard-response,138,917679,0.0-43.0-4.0-2.0-2.0,15,12,10,3.0,"[""S"",""K"",""Q""]","[""S"",""K"",""Q""]",1.0,3.0,,,,,,,614b90050a269c27f4746a37,10:54:22,05/03/2024
2221.4000000059605,[''],0,ospan,feedback,tgyJIug6XYM1SFXJT5EK8pEwjpl1,html-button-response,139,920403,0.0-43.0-4.0-2.0-3.0,,,,,,,,,,,,100.0,0.0,,614b90050a269c27f4746a37,10:54:22,05/03/2024
,"<p style=""font-size:75px;"">...</p>",,ospan,iti,tgyJIug6XYM1SFXJT5EK8pEwjpl1,html-keyboard-response,140,921405,0.0-43.0-5.0-0.0-0.0,,,,,,,,,,,,,,,614b90050a269c27f4746a37,10:54:22,05/03/2024
1644.0,,,ospan,symmetry,tgyJIug6XYM1SFXJT5EK8pEwjpl1,symmetry-judgement-task,141,924583,0.0-43.0-5.0-0.0-1.0-0.0,,,,,,,,,,1.0,1.0,,,,614b90050a269c27f4746a37,10:54:22,05/03/2024
,"<div style=""font-size: 10rem; color: #0000FF"">P</div>",,ospan,letter,tgyJIug6XYM1SFXJT5EK8pEwjpl1,html-keyboard-response,142,925585,0.0-43.0-5.0-0.0-1.0-1.0,,,,,,,,,,,,,,,614b90050a269c27f4746a37,10:54:22,05/03/2024
1331.0,,,ospan,symmetry,tgyJIug6XYM1SFXJT5EK8pEwjpl1,symmetry-judgement-task,143,929196,0.0-43.0-5.0-0.0-1.0-2.0,,,,,,,,,,1.0,1.0,,,,614b90050a269c27f4746a37,10:54:22,05/03/2024
,"<div style=""font-size: 10rem; color: #0000FF"">L</div>",,ospan,letter,tgyJIug6XYM1SFXJT5EK8pEwjpl1,html-keyboard-response,144,930198,0.0-43.0-5.0-0.0-1.0-3.0,,,,,,,,,,,,,,,614b90050a269c27f4746a37,10:54:22,05/03/2024
1554.0,,,ospan,symmetry,tgyJIug6XYM1SFXJT5EK8pEwjpl1,symmetry-judgement-task,145,934045,0.0-43.0-5.0-0.0-1.0-4.0,,,,,,,,,,1.0,1.0,,,,614b90050a269c27f4746a37,10:54:22,05/03/2024
,"<div style=""font-size: 10rem; color: #0000FF"">Y</div>",,ospan,letter,tgyJIug6XYM1SFXJT5EK8pEwjpl1,html-keyboard-response,146,935047,0.0-43.0-5.0-0.0-1.0-5.0,,,,,,,,,,,,,,,614b90050a269c27f4746a37,10:54:22,05/03/2024
819.0,,,ospan,symmetry,tgyJIug6XYM1SFXJT5EK8pEwjpl1,symmetry-judgement-task,147,938167,0.0-43.0-5.0-0.0-1.0-6.0,,,,,,,,,,1.0,1.0,,,,614b90050a269c27f4746a37,10:54:22,05/03/2024
,"<div style=""font-size: 10rem; color: #0000FF"">G</div>",,ospan,letter,tgyJIug6XYM1SFXJT5EK8pEwjpl1,html-keyboard-response,148,939169,0.0-43.0-5.0-0.0-1.0-7.0,,,,,,,,,,,,,,,614b90050a269c27f4746a37,10:54:22,05/03/2024
1338.0,,,ospan,symmetry,tgyJIug6XYM1SFXJT5EK8pEwjpl1,symmetry-judgement-task,149,942369,0.0-43.0-5.0-0.0-1.0-8.0,,,,,,,,,,1.0,1.0,,,,614b90050a269c27f4746a37,10:54:22,05/03/2024
,"<div style=""font-size: 10rem; color: #0000FF"">Q</div>",,ospan,letter,tgyJIug6XYM1SFXJT5EK8pEwjpl1,html-keyboard-response,150,943370,0.0-43.0-5.0-0.0-1.0-9.0,,,,,,,,,,,,,,,614b90050a269c27f4746a37,10:54:22,05/03/2024
2792.0,,,ospan,symmetry,tgyJIug6XYM1SFXJT5EK8pEwjpl1,symmetry-judgement-task,151,948497,0.0-43.0-5.0-0.0-1.0-10.0,,,,,,,,,,1.0,1.0,,,,614b90050a269c27f4746a37,10:54:22,05/03/2024
,"<div style=""font-size: 10rem; color: #0000FF"">C</div>",,ospan,letter,tgyJIug6XYM1SFXJT5EK8pEwjpl1,html-keyboard-response,152,949499,0.0-43.0-5.0-0.0-1.0-11.0,,,,,,,,,,,,,,,614b90050a269c27f4746a37,10:54:22,05/03/2024
6395.300000011921,"<div class = numbox><p style=""font-size: 2.4rem"">Please recall the letters you saw to the best of your ability. If you do not remember a particular letter, use the SKIP button.<br><b>(When you are ready to lock in your answer, press ENTER)</b></p><button id = button_1 class = ""square num-button"" onclick = ""recordClick(this)""><div class = content><div class = numbers>C</div></div></button><button id = button_2 class = ""square num-button"" onclick = ""recordClick(this)""><div class = content><div class = numbers>G</div></div></button><button id = button_3 class = ""square num-button"" onclick = ""recordClick(this)""><div class = content><div class = numbers>H</div></div></button><button id = button_4 class = ""square num-button"" onclick = ""recordClick(this)""><div class = content><div class = numbers>J</div></div></button><button id = button_5 class = ""square num-button"" onclick = ""recordClick(this)""><div class = content><div class = numbers>K</div></div></button><button id = button_6 class = ""square num-button"" onclick = ""recordClick(this)""><div class = content><div class = numbers>L</div></div></button><button id = button_7 class = ""square num-button"" onclick = ""recordClick(this)""><div class = content><div class = numbers>N</div></div></button><button id = button_8 class = ""square num-button"" onclick = ""recordClick(this)""><div class = content><div class = numbers>P</div></div></button><button id = button_9 class = ""square num-button"" onclick = ""recordClick(this)""><div class = content><div class = numbers>Q</div></div></button><button id = button_10 class = ""square num-button"" onclick = ""recordClick(this)""><div class = content><div class = numbers>R</div></div></button><button id = button_11 class = ""square num-button"" onclick = ""recordClick(this)""><div class = content><div class = numbers>S</div></div></button><button id = button_12 class = ""square num-button"" onclick = ""recordClick(this)""><div class = content><div class = numbers>Y</div></div></button><button class = clear_button id = ""ClearButton"" onclick = ""clearResponse()"">BACKSPACE</button><button class = blank_button id = ""BlankButton"" onclick = ""blankResponse()"">SKIP</button><p style=""font-size: 2.4rem""><u><b>Current Answer:</b></u></p><br><br><div id=echoed_txt style=""font-size: 5rem; color:blue;""><b></b></div></div>",enter,ospan,retrieval,tgyJIug6XYM1SFXJT5EK8pEwjpl1,html-keyboard-response,153,956647,0.0-43.0-5.0-0.0-2.0,21,17,10,6.0,"[""P"",""L"",""Y"",""J"",""Q"",""C""]","[""P"",""L"",""Y"",""G"",""Q"",""C""]",0.0,5.0,,,,,,,614b90050a269c27f4746a37,10:54:22,05/03/2024
2543.199999988079,[''],0,ospan,feedback,tgyJIug6XYM1SFXJT5EK8pEwjpl1,html-button-response,154,959692,0.0-43.0-5.0-0.0-3.0,,,,,,,,,,,,100.0,0.0,,614b90050a269c27f4746a37,10:54:22,05/03/2024
,"<p style=""font-size:75px;"">...</p>",,ospan,iti,tgyJIug6XYM1SFXJT5EK8pEwjpl1,html-keyboard-response,155,960696,0.0-43.0-5.0-1.0-0.0,,,,,,,,,,,,,,,614b90050a269c27f4746a37,10:54:22,05/03/2024
1496.0,,,ospan,symmetry,tgyJIug6XYM1SFXJT5EK8pEwjpl1,symmetry-judgement-task,156,963789,0.0-43.0-5.0-1.0-1.0-0.0,,,,,,,,,,1.0,1.0,,,,614b90050a269c27f4746a37,10:54:22,05/03/2024
,"<div style=""font-size: 10rem; color: #0000FF"">N</div>",,ospan,letter,tgyJIug6XYM1SFXJT5EK8pEwjpl1,html-keyboard-response,157,964791,0.0-43.0-5.0-1.0-1.0-1.0,,,,,,,,,,,,,,,614b90050a269c27f4746a37,10:54:22,05/03/2024
1501.0,,,ospan,symmetry,tgyJIug6XYM1SFXJT5EK8pEwjpl1,symmetry-judgement-task,158,968594,0.0-43.0-5.0-1.0-1.0-2.0,,,,,,,,,,1.0,1.0,,,,614b90050a269c27f4746a37,10:54:22,05/03/2024
,"<div style=""font-size: 10rem; color: #0000FF"">G</div>",,ospan,letter,tgyJIug6XYM1SFXJT5EK8pEwjpl1,html-keyboard-response,159,969596,0.0-43.0-5.0-1.0-1.0-3.0,,,,,,,,,,,,,,,614b90050a269c27f4746a37,10:54:22,05/03/2024
992.0,,,ospan,symmetry,tgyJIug6XYM1SFXJT5EK8pEwjpl1,symmetry-judgement-task,160,972883,0.0-43.0-5.0-1.0-1.0-4.0,,,,,,,,,,1.0,1.0,,,,614b90050a269c27f4746a37,10:54:22,05/03/2024
,"<div style=""font-size: 10rem; color: #0000FF"">R</div>",,ospan,letter,tgyJIug6XYM1SFXJT5EK8pEwjpl1,html-keyboard-response,161,973885,0.0-43.0-5.0-1.0-1.0-5.0,,,,,,,,,,,,,,,614b90050a269c27f4746a37,10:54:22,05/03/2024
1496.0,,,ospan,symmetry,tgyJIug6XYM1SFXJT5EK8pEwjpl1,symmetry-judgement-task,162,977686,0.0-43.0-5.0-1.0-1.0-6.0,,,,,,,,,,1.0,1.0,,,,614b90050a269c27f4746a37,10:54:22,05/03/2024
,"<div style=""font-size: 10rem; color: #0000FF"">C</div>",,ospan,letter,tgyJIug6XYM1SFXJT5EK8pEwjpl1,html-keyboard-response,163,978688,0.0-43.0-5.0-1.0-1.0-7.0,,,,,,,,,,,,,,,614b90050a269c27f4746a37,10:54:22,05/03/2024
1366.0,,,ospan,symmetry,tgyJIug6XYM1SFXJT5EK8pEwjpl1,symmetry-judgement-task,164,982337,0.0-43.0-5.0-1.0-1.0-8.0,,,,,,,,,,1.0,1.0,,,,614b90050a269c27f4746a37,10:54:22,05/03/2024
,"<div style=""font-size: 10rem; color: #0000FF"">J</div>",,ospan,letter,tgyJIug6XYM1SFXJT5EK8pEwjpl1,html-keyboard-response,165,983339,0.0-43.0-5.0-1.0-1.0-9.0,,,,,,,,,,,,,,,614b90050a269c27f4746a37,10:54:22,05/03/2024
1476.0,,,ospan,symmetry,tgyJIug6XYM1SFXJT5EK8pEwjpl1,symmetry-judgement-task,166,987147,0.0-43.0-5.0-1.0-1.0-10.0,,,,,,,,,,1.0,1.0,,,,614b90050a269c27f4746a37,10:54:22,05/03/2024
,"<div style=""font-size: 10rem; color: #0000FF"">L</div>",,ospan,letter,tgyJIug6XYM1SFXJT5EK8pEwjpl1,html-keyboard-response,167,988149,0.0-43.0-5.0-1.0-1.0-11.0,,,,,,,,,,,,,,,614b90050a269c27f4746a37,10:54:22,05/03/2024
1587.0,,,ospan,symmetry,tgyJIug6XYM1SFXJT5EK8pEwjpl1,symmetry-judgement-task,168,992057,0.0-43.0-5.0-1.0-1.0-12.0,,,,,,,,,,1.0,1.0,,,,614b90050a269c27f4746a37,10:54:22,05/03/2024
,"<div style=""font-size: 10rem; color: #0000FF"">K</div>",,ospan,letter,tgyJIug6XYM1SFXJT5EK8pEwjpl1,html-keyboard-response,169,993059,0.0-43.0-5.0-1.0-1.0-13.0,,,,,,,,,,,,,,,614b90050a269c27f4746a37,10:54:22,05/03/2024
11850.89999999106,"<div class = numbox><p style=""font-size: 2.4rem"">Please recall the letters you saw to the best of your ability. If you do not remember a particular letter, use the SKIP button.<br><b>(When you are ready to lock in your answer, press ENTER)</b></p><button id = button_1 class = ""square num-button"" onclick = ""recordClick(this)""><div class = content><div class = numbers>C</div></div></button><button id = button_2 class = ""square num-button"" onclick = ""recordClick(this)""><div class = content><div class = numbers>G</div></div></button><button id = button_3 class = ""square num-button"" onclick = ""recordClick(this)""><div class = content><div class = numbers>H</div></div></button><button id = button_4 class = ""square num-button"" onclick = ""recordClick(this)""><div class = content><div class = numbers>J</div></div></button><button id = button_5 class = ""square num-button"" onclick = ""recordClick(this)""><div class = content><div class = numbers>K</div></div></button><button id = button_6 class = ""square num-button"" onclick = ""recordClick(this)""><div class = content><div class = numbers>L</div></div></button><button id = button_7 class = ""square num-button"" onclick = ""recordClick(this)""><div class = content><div class = numbers>N</div></div></button><button id = button_8 class = ""square num-button"" onclick = ""recordClick(this)""><div class = content><div class = numbers>P</div></div></button><button id = button_9 class = ""square num-button"" onclick = ""recordClick(this)""><div class = content><div class = numbers>Q</div></div></button><button id = button_10 class = ""square num-button"" onclick = ""recordClick(this)""><div class = content><div class = numbers>R</div></div></button><button id = button_11 class = ""square num-button"" onclick = ""recordClick(this)""><div class = content><div class = numbers>S</div></div></button><button id = button_12 class = ""square num-button"" onclick = ""recordClick(this)""><div class = content><div class = numbers>Y</div></div></button><button class = clear_button id = ""ClearButton"" onclick = ""clearResponse()"">BACKSPACE</button><button class = blank_button id = ""BlankButton"" onclick = ""blankResponse()"">SKIP</button><p style=""font-size: 2.4rem""><u><b>Current Answer:</b></u></p><br><br><div id=echoed_txt style=""font-size: 5rem; color:blue;""><b></b></div></div>",enter,ospan,retrieval,tgyJIug6XYM1SFXJT5EK8pEwjpl1,html-keyboard-response,170,1005662,0.0-43.0-5.0-1.0-2.0,28,24,17,7.0,"[""N"",""G"",""R"",""C"",""J"",""L"",""K""]","[""N"",""G"",""R"",""C"",""J"",""L"",""K""]",1.0,7.0,,,,,,,614b90050a269c27f4746a37,10:54:22,05/03/2024
1898.5,[''],0,ospan,feedback,tgyJIug6XYM1SFXJT5EK8pEwjpl1,html-button-response,171,1008064,0.0-43.0-5.0-1.0-3.0,,,,,,,,,,,,100.0,0.0,,614b90050a269c27f4746a37,10:54:22,05/03/2024
,"<p style=""font-size:75px;"">...</p>",,ospan,iti,tgyJIug6XYM1SFXJT5EK8pEwjpl1,html-keyboard-response,172,1009070,0.0-43.0-6.0-0.0-0.0,,,,,,,,,,,,,,,614b90050a269c27f4746a37,10:54:22,05/03/2024
2269.0,,,ospan,symmetry,tgyJIug6XYM1SFXJT5EK8pEwjpl1,symmetry-judgement-task,173,1012448,0.0-43.0-6.0-0.0-1.0-0.0,,,,,,,,,,1.0,1.0,,,,614b90050a269c27f4746a37,10:54:22,05/03/2024
,"<div style=""font-size: 10rem; color: #0000FF"">Y</div>",,ospan,letter,tgyJIug6XYM1SFXJT5EK8pEwjpl1,html-keyboard-response,174,1013450,0.0-43.0-6.0-0.0-1.0-1.0,,,,,,,,,,,,,,,614b90050a269c27f4746a37,10:54:22,05/03/2024
2080.0,,,ospan,symmetry,tgyJIug6XYM1SFXJT5EK8pEwjpl1,symmetry-judgement-task,175,1017860,0.0-43.0-6.0-0.0-1.0-2.0,,,,,,,,,,1.0,1.0,,,,614b90050a269c27f4746a37,10:54:22,05/03/2024
,"<div style=""font-size: 10rem; color: #0000FF"">K</div>",,ospan,letter,tgyJIug6XYM1SFXJT5EK8pEwjpl1,html-keyboard-response,176,1018862,0.0-43.0-6.0-0.0-1.0-3.0,,,,,,,,,,,,,,,614b90050a269c27f4746a37,10:54:22,05/03/2024
1005.0,,,ospan,symmetry,tgyJIug6XYM1SFXJT5EK8pEwjpl1,symmetry-judgement-task,177,1022149,0.0-43.0-6.0-0.0-1.0-4.0,,,,,,,,,,1.0,1.0,,,,614b90050a269c27f4746a37,10:54:22,05/03/2024
,"<div style=""font-size: 10rem; color: #0000FF"">P</div>",,ospan,letter,tgyJIug6XYM1SFXJT5EK8pEwjpl1,html-keyboard-response,178,1023150,0.0-43.0-6.0-0.0-1.0-5.0,,,,,,,,,,,,,,,614b90050a269c27f4746a37,10:54:22,05/03/2024
1199.0,,,ospan,symmetry,tgyJIug6XYM1SFXJT5EK8pEwjpl1,symmetry-judgement-task,179,1026672,0.0-43.0-6.0-0.0-1.0-6.0,,,,,,,,,,1.0,1.0,,,,614b90050a269c27f4746a37,10:54:22,05/03/2024
,"<div style=""font-size: 10rem; color: #0000FF"">C</div>",,ospan,letter,tgyJIug6XYM1SFXJT5EK8pEwjpl1,html-keyboard-response,180,1027674,0.0-43.0-6.0-0.0-1.0-7.0,,,,,,,,,,,,,,,614b90050a269c27f4746a37,10:54:22,05/03/2024
1149.0,,,ospan,symmetry,tgyJIug6XYM1SFXJT5EK8pEwjpl1,symmetry-judgement-task,181,1031138,0.0-43.0-6.0-0.0-1.0-8.0,,,,,,,,,,1.0,1.0,,,,614b90050a269c27f4746a37,10:54:22,05/03/2024
,"<div style=""font-size: 10rem; color: #0000FF"">G</div>",,ospan,letter,tgyJIug6XYM1SFXJT5EK8pEwjpl1,html-keyboard-response,182,1032141,0.0-43.0-6.0-0.0-1.0-9.0,,,,,,,,,,,,,,,614b90050a269c27f4746a37,10:54:22,05/03/2024
5212.699999988079,"<div class = numbox><p style=""font-size: 2.4rem"">Please recall the letters you saw to the best of your ability. If you do not remember a particular letter, use the SKIP button.<br><b>(When you are ready to lock in your answer, press ENTER)</b></p><button id = button_1 class = ""square num-button"" onclick = ""recordClick(this)""><div class = content><div class = numbers>C</div></div></button><button id = button_2 class = ""square num-button"" onclick = ""recordClick(this)""><div class = content><div class = numbers>G</div></div></button><button id = button_3 class = ""square num-button"" onclick = ""recordClick(this)""><div class = content><div class = numbers>H</div></div></button><button id = button_4 class = ""square num-button"" onclick = ""recordClick(this)""><div class = content><div class = numbers>J</div></div></button><button id = button_5 class = ""square num-button"" onclick = ""recordClick(this)""><div class = content><div class = numbers>K</div></div></button><button id = button_6 class = ""square num-button"" onclick = ""recordClick(this)""><div class = content><div class = numbers>L</div></div></button><button id = button_7 class = ""square num-button"" onclick = ""recordClick(this)""><div class = content><div class = numbers>N</div></div></button><button id = button_8 class = ""square num-button"" onclick = ""recordClick(this)""><div class = content><div class = numbers>P</div></div></button><button id = button_9 class = ""square num-button"" onclick = ""recordClick(this)""><div class = content><div class = numbers>Q</div></div></button><button id = button_10 class = ""square num-button"" onclick = ""recordClick(this)""><div class = content><div class = numbers>R</div></div></button><button id = button_11 class = ""square num-button"" onclick = ""recordClick(this)""><div class = content><div class = numbers>S</div></div></button><button id = button_12 class = ""square num-button"" onclick = ""recordClick(this)""><div class = content><div class = numbers>Y</div></div></button><button class = clear_button id = ""ClearButton"" onclick = ""clearResponse()"">BACKSPACE</button><button class = blank_button id = ""BlankButton"" onclick = ""blankResponse()"">SKIP</button><p style=""font-size: 2.4rem""><u><b>Current Answer:</b></u></p><br><br><div id=echoed_txt style=""font-size: 5rem; color:blue;""><b></b></div></div>",enter,ospan,retrieval,tgyJIug6XYM1SFXJT5EK8pEwjpl1,html-keyboard-response,183,1038106,0.0-43.0-6.0-0.0-2.0,33,27,17,5.0,"[""Y"",""K"",""C"",""P"",""G""]","[""Y"",""K"",""P"",""C"",""G""]",0.0,3.0,,,,,,,614b90050a269c27f4746a37,10:54:22,05/03/2024
1522.0999999940395,[''],0,ospan,feedback,tgyJIug6XYM1SFXJT5EK8pEwjpl1,html-button-response,184,1040131,0.0-43.0-6.0-0.0-3.0,,,,,,,,,,,,100.0,0.0,,614b90050a269c27f4746a37,10:54:22,05/03/2024
,"<p style=""font-size:75px;"">...</p>",,ospan,iti,tgyJIug6XYM1SFXJT5EK8pEwjpl1,html-keyboard-response,185,1041134,0.0-43.0-6.0-1.0-0.0,,,,,,,,,,,,,,,614b90050a269c27f4746a37,10:54:22,05/03/2024
5666.0,,,ospan,symmetry,tgyJIug6XYM1SFXJT5EK8pEwjpl1,symmetry-judgement-task,186,1048334,0.0-43.0-6.0-1.0-1.0-0.0,,,,,,,,,,1.0,1.0,,,,614b90050a269c27f4746a37,10:54:22,05/03/2024
,"<div style=""font-size: 10rem; color: #0000FF"">R</div>",,ospan,letter,tgyJIug6XYM1SFXJT5EK8pEwjpl1,html-keyboard-response,187,1049335,0.0-43.0-6.0-1.0-1.0-1.0,,,,,,,,,,,,,,,614b90050a269c27f4746a37,10:54:22,05/03/2024
819.0,,,ospan,symmetry,tgyJIug6XYM1SFXJT5EK8pEwjpl1,symmetry-judgement-task,188,1052455,0.0-43.0-6.0-1.0-1.0-2.0,,,,,,,,,,1.0,1.0,,,,614b90050a269c27f4746a37,10:54:22,05/03/2024
,"<div style=""font-size: 10rem; color: #0000FF"">K</div>",,ospan,letter,tgyJIug6XYM1SFXJT5EK8pEwjpl1,html-keyboard-response,189,1053456,0.0-43.0-6.0-1.0-1.0-3.0,,,,,,,,,,,,,,,614b90050a269c27f4746a37,10:54:22,05/03/2024
1545.0,,,ospan,symmetry,tgyJIug6XYM1SFXJT5EK8pEwjpl1,symmetry-judgement-task,190,1057305,0.0-43.0-6.0-1.0-1.0-4.0,,,,,,,,,,1.0,1.0,,,,614b90050a269c27f4746a37,10:54:22,05/03/2024
,"<div style=""font-size: 10rem; color: #0000FF"">N</div>",,ospan,letter,tgyJIug6XYM1SFXJT5EK8pEwjpl1,html-keyboard-response,191,1058307,0.0-43.0-6.0-1.0-1.0-5.0,,,,,,,,,,,,,,,614b90050a269c27f4746a37,10:54:22,05/03/2024
1062.0,,,ospan,symmetry,tgyJIug6XYM1SFXJT5EK8pEwjpl1,symmetry-judgement-task,192,1061673,0.0-43.0-6.0-1.0-1.0-6.0,,,,,,,,,,1.0,1.0,,,,614b90050a269c27f4746a37,10:54:22,05/03/2024
,"<div style=""font-size: 10rem; color: #0000FF"">G</div>",,ospan,letter,tgyJIug6XYM1SFXJT5EK8pEwjpl1,html-keyboard-response,193,1062675,0.0-43.0-6.0-1.0-1.0-7.0,,,,,,,,,,,,,,,614b90050a269c27f4746a37,10:54:22,05/03/2024
1357.0,,,ospan,symmetry,tgyJIug6XYM1SFXJT5EK8pEwjpl1,symmetry-judgement-task,194,1066355,0.0-43.0-6.0-1.0-1.0-8.0,,,,,,,,,,1.0,1.0,,,,614b90050a269c27f4746a37,10:54:22,05/03/2024
,"<div style=""font-size: 10rem; color: #0000FF"">L</div>",,ospan,letter,tgyJIug6XYM1SFXJT5EK8pEwjpl1,html-keyboard-response,195,1067357,0.0-43.0-6.0-1.0-1.0-9.0,,,,,,,,,,,,,,,614b90050a269c27f4746a37,10:54:22,05/03/2024
1210.0,,,ospan,symmetry,tgyJIug6XYM1SFXJT5EK8pEwjpl1,symmetry-judgement-task,196,1070861,0.0-43.0-6.0-1.0-1.0-10.0,,,,,,,,,,1.0,1.0,,,,614b90050a269c27f4746a37,10:54:22,05/03/2024
,"<div style=""font-size: 10rem; color: #0000FF"">C</div>",,ospan,letter,tgyJIug6XYM1SFXJT5EK8pEwjpl1,html-keyboard-response,197,1071863,0.0-43.0-6.0-1.0-1.0-11.0,,,,,,,,,,,,,,,614b90050a269c27f4746a37,10:54:22,05/03/2024
2332.0,,,ospan,symmetry,tgyJIug6XYM1SFXJT5EK8pEwjpl1,symmetry-judgement-task,198,1076497,0.0-43.0-6.0-1.0-1.0-12.0,,,,,,,,,,1.0,1.0,,,,614b90050a269c27f4746a37,10:54:22,05/03/2024
,"<div style=""font-size: 10rem; color: #0000FF"">Q</div>",,ospan,letter,tgyJIug6XYM1SFXJT5EK8pEwjpl1,html-keyboard-response,199,1077499,0.0-43.0-6.0-1.0-1.0-13.0,,,,,,,,,,,,,,,614b90050a269c27f4746a37,10:54:22,05/03/2024
1257.0,,,ospan,symmetry,tgyJIug6XYM1SFXJT5EK8pEwjpl1,symmetry-judgement-task,200,1081060,0.0-43.0-6.0-1.0-1.0-14.0,,,,,,,,,,0.0,0.0,,,,614b90050a269c27f4746a37,10:54:22,05/03/2024
,"<div style=""font-size: 10rem; color: #0000FF"">H</div>",,ospan,letter,tgyJIug6XYM1SFXJT5EK8pEwjpl1,html-keyboard-response,201,1082061,0.0-43.0-6.0-1.0-1.0-15.0,,,,,,,,,,,,,,,614b90050a269c27f4746a37,10:54:22,05/03/2024
9152.79999999702,"<div class = numbox><p style=""font-size: 2.4rem"">Please recall the letters you saw to the best of your ability. If you do not remember a particular letter, use the SKIP button.<br><b>(When you are ready to lock in your answer, press ENTER)</b></p><button id = button_1 class = ""square num-button"" onclick = ""recordClick(this)""><div class = content><div class = numbers>C</div></div></button><button id = button_2 class = ""square num-button"" onclick = ""recordClick(this)""><div class = content><div class = numbers>G</div></div></button><button id = button_3 class = ""square num-button"" onclick = ""recordClick(this)""><div class = content><div class = numbers>H</div></div></button><button id = button_4 class = ""square num-button"" onclick = ""recordClick(this)""><div class = content><div class = numbers>J</div></div></button><button id = button_5 class = ""square num-button"" onclick = ""recordClick(this)""><div class = content><div class = numbers>K</div></div></button><button id = button_6 class = ""square num-button"" onclick = ""recordClick(this)""><div class = content><div class = numbers>L</div></div></button><button id = button_7 class = ""square num-button"" onclick = ""recordClick(this)""><div class = content><div class = numbers>N</div></div></button><button id = button_8 class = ""square num-button"" onclick = ""recordClick(this)""><div class = content><div class = numbers>P</div></div></button><button id = button_9 class = ""square num-button"" onclick = ""recordClick(this)""><div class = content><div class = numbers>Q</div></div></button><button id = button_10 class = ""square num-button"" onclick = ""recordClick(this)""><div class = content><div class = numbers>R</div></div></button><button id = button_11 class = ""square num-button"" onclick = ""recordClick(this)""><div class = content><div class = numbers>S</div></div></button><button id = button_12 class = ""square num-button"" onclick = ""recordClick(this)""><div class = content><div class = numbers>Y</div></div></button><button class = clear_button id = ""ClearButton"" onclick = ""clearResponse()"">BACKSPACE</button><button class = blank_button id = ""BlankButton"" onclick = ""blankResponse()"">SKIP</button><p style=""font-size: 2.4rem""><u><b>Current Answer:</b></u></p><br><br><div id=echoed_txt style=""font-size: 5rem; color:blue;""><b></b></div></div>",enter,ospan,retrieval,tgyJIug6XYM1SFXJT5EK8pEwjpl1,html-keyboard-response,202,1091966,0.0-43.0-6.0-1.0-2.0,41,31,17,8.0,"[""R"",""G"",""N"",""K"",""L"",""C"",""H""]","[""R"",""K"",""N"",""G"",""L"",""C"",""Q"",""H""]",0.0,4.0,,,,,,,614b90050a269c27f4746a37,10:54:22,05/03/2024
2400.699999988079,[''],0,ospan,feedback,tgyJIug6XYM1SFXJT5EK8pEwjpl1,html-button-response,203,1094870,0.0-43.0-6.0-1.0-3.0,,,,,,,,,,,,98.0,0.0,,614b90050a269c27f4746a37,10:54:22,05/03/2024
13898.40000000596,,{'Q0': 'last task was hrd but i think i did okay'},ospan,survey_ospan,tgyJIug6XYM1SFXJT5EK8pEwjpl1,lmdlab-survey-text,204,1109527,0.0-43.0-7.0,,,,,,,,,,,,,,tgyJIug6XYM1SFXJT5EK8pEwjpl1,614b90050a269c27f4746a37,10:54:22,05/03/2024
1342.199999988079,<p><p style='font-size: 3rem'>Great work!<br><br>This completes the symmetry and memory task.</p><br><br><br>,0,ospan,finish,tgyJIug6XYM1SFXJT5EK8pEwjpl1,html-button-response,205,1110874,0.0-43.0-8.0,41,31,17,,,,,,,,,98.0,,,614b90050a269c27f4746a37,10:54:22,05/03/2024
