rt,stimulus,response,exp_name,exp_stage,subjectID,trial_type,trial_index,time_elapsed,internal_node_id,ospan_shown,ospan_total,ospan_abs,length,resp_actual,resp_correct,full_correct,num_correct,feedback,accuracy,correct,math_acc,math_warning,databaseID,prolificID,start_time,date
1665.4000000022352,<div class = 'left_align' style='font-size: 3.25rem; line-height: 1.3;'><p class = 'center_align'><b>Welcome to the Symmetry and Memory Task</b><br><br><br><br></p>Press 'continue' to show the instructions.<br><br><br><br></div>,0,ospan,instruct,bKGy8ASGPwey1GjGJX9DZ63Zcdy2,html-button-response,51,345132,0.0-43.0-0.0-0.0-0.0,,,,,,,,,,,,,,,59e7232f24d7bf00012f112e,13:38:24,06/03/2024
2155.300000000745,"<div class = 'left_align' style='font-size: 3.25rem; line-height: 1.3;'><p class = 'center_align'><b>Symmetry and Memory Task</b><br><br></p>In this task, you will try to memorize letters you see on the screen<br>while you also view black and white grid pictures.<br><br>In the next few minutes, you will have some practice to get you familiar<br>with how the task works.<br><br>It may be difficult sometimes, but please do not worry about making mistakes!<br><br>We will begin by practicing the letter part of the task.<br><br><br><br></div>",0,ospan,instruct,bKGy8ASGPwey1GjGJX9DZ63Zcdy2,html-button-response,52,347548,0.0-43.0-0.0-0.0-1.0,,,,,,,,,,,,,,,59e7232f24d7bf00012f112e,13:38:24,06/03/2024
1817.3999999985099,"<div class = 'left_align' style='font-size: 3.25rem; line-height: 1.3;'>For this practice part, letters will appear on the screen one at a time.<br><br>Try to remember each letter in the order presented.<br><br>After some letters have been shown, you will see a response screen. Your<br>goal is to report the letters you saw <b>in order</b>. If you do not remember<br>a particular letter, you will have the option to leave it blank.<br><br><br><br></div>",0,ospan,instruct,bKGy8ASGPwey1GjGJX9DZ63Zcdy2,html-button-response,53,349631,0.0-43.0-0.0-0.0-2.0,,,,,,,,,,,,,,,59e7232f24d7bf00012f112e,13:38:24,06/03/2024
990.5999999977648,"<div class = 'left_align' style='font-size: 3.25rem; line-height: 1.3;'>Remember, it is very important to get the letters in the same<br>order as you see them.<br><br>When you are ready, you may begin the letter practice.</div><br><br><br><br>",0,ospan,instruct,bKGy8ASGPwey1GjGJX9DZ63Zcdy2,html-button-response,54,350893,0.0-43.0-0.0-0.0-3.0,,,,,,,,,,,,,,,59e7232f24d7bf00012f112e,13:38:24,06/03/2024
,"<p style=""font-size:75px;"">...</p>",,ospan,iti,bKGy8ASGPwey1GjGJX9DZ63Zcdy2,html-keyboard-response,55,352158,0.0-43.0-0.0-1.0-0.0,,,,,,,,,,,,,,,59e7232f24d7bf00012f112e,13:38:24,06/03/2024
,"<div style=""font-size: 10rem; color: #0000FF"">C</div>",,ospan,letter,bKGy8ASGPwey1GjGJX9DZ63Zcdy2,html-keyboard-response,56,353168,0.0-43.0-0.0-1.0-1.0,,,,,,,,,,,,,,,59e7232f24d7bf00012f112e,13:38:24,06/03/2024
,"<div style=""font-size: 10rem; color: #0000FF"">G</div>",,ospan,letter,bKGy8ASGPwey1GjGJX9DZ63Zcdy2,html-keyboard-response,57,354940,0.0-43.0-0.0-1.0-2.0,,,,,,,,,,,,,,,59e7232f24d7bf00012f112e,13:38:24,06/03/2024
5580.199999999255,"<div class = numbox><p style=""font-size: 2.4rem"">Please recall the letters you saw to the best of your ability. If you do not remember a particular letter, use the SKIP button.<br><b>(When you are ready to lock in your answer, press ENTER)</b></p><button id = button_1 class = ""square num-button"" onclick = ""recordClick(this)""><div class = content><div class = numbers>C</div></div></button><button id = button_2 class = ""square num-button"" onclick = ""recordClick(this)""><div class = content><div class = numbers>G</div></div></button><button id = button_3 class = ""square num-button"" onclick = ""recordClick(this)""><div class = content><div class = numbers>H</div></div></button><button id = button_4 class = ""square num-button"" onclick = ""recordClick(this)""><div class = content><div class = numbers>J</div></div></button><button id = button_5 class = ""square num-button"" onclick = ""recordClick(this)""><div class = content><div class = numbers>K</div></div></button><button id = button_6 class = ""square num-button"" onclick = ""recordClick(this)""><div class = content><div class = numbers>L</div></div></button><button id = button_7 class = ""square num-button"" onclick = ""recordClick(this)""><div class = content><div class = numbers>N</div></div></button><button id = button_8 class = ""square num-button"" onclick = ""recordClick(this)""><div class = content><div class = numbers>P</div></div></button><button id = button_9 class = ""square num-button"" onclick = ""recordClick(this)""><div class = content><div class = numbers>Q</div></div></button><button id = button_10 class = ""square num-button"" onclick = ""recordClick(this)""><div class = content><div class = numbers>R</div></div></button><button id = button_11 class = ""square num-button"" onclick = ""recordClick(this)""><div class = content><div class = numbers>S</div></div></button><button id = button_12 class = ""square num-button"" onclick = ""recordClick(this)""><div class = content><div class = numbers>Y</div></div></button><button class = clear_button id = ""ClearButton"" onclick = ""clearResponse()"">BACKSPACE</button><button class = blank_button id = ""BlankButton"" onclick = ""blankResponse()"">SKIP</button><p style=""font-size: 2.4rem""><u><b>Current Answer:</b></u></p><br><br><div id=echoed_txt style=""font-size: 5rem; color:blue;""><b></b></div></div>",enter,ospan,retrieval,bKGy8ASGPwey1GjGJX9DZ63Zcdy2,html-keyboard-response,58,361286,0.0-43.0-0.0-1.0-3.0,NA,NA,NA,2.0,"[""C"",""G""]","[""C"",""G""]",1.0,2.0,"['<font color=""green"">C</font>', '<font color=""green"">G</font>']",,,,,,59e7232f24d7bf00012f112e,13:38:24,06/03/2024
2231.199999999255,"['<p style=""font-size:44px"">Letters:<br><br><br><font color=""green"">C</font> <font color=""green"">G</font></p><br><br>']",0,ospan,practice_feedback,bKGy8ASGPwey1GjGJX9DZ63Zcdy2,html-button-response,59,364024,0.0-43.0-0.0-1.0-4.0,,,,,,,,,,,,,,,59e7232f24d7bf00012f112e,13:38:24,06/03/2024
,"<p style=""font-size:75px;"">...</p>",,ospan,iti,bKGy8ASGPwey1GjGJX9DZ63Zcdy2,html-keyboard-response,60,365035,0.0-43.0-0.0-2.0-0.0,,,,,,,,,,,,,,,59e7232f24d7bf00012f112e,13:38:24,06/03/2024
,"<div style=""font-size: 10rem; color: #0000FF"">K</div>",,ospan,letter,bKGy8ASGPwey1GjGJX9DZ63Zcdy2,html-keyboard-response,61,366039,0.0-43.0-0.0-2.0-1.0,,,,,,,,,,,,,,,59e7232f24d7bf00012f112e,13:38:24,06/03/2024
,"<div style=""font-size: 10rem; color: #0000FF"">Q</div>",,ospan,letter,bKGy8ASGPwey1GjGJX9DZ63Zcdy2,html-keyboard-response,62,367796,0.0-43.0-0.0-2.0-2.0,,,,,,,,,,,,,,,59e7232f24d7bf00012f112e,13:38:24,06/03/2024
,"<div style=""font-size: 10rem; color: #0000FF"">L</div>",,ospan,letter,bKGy8ASGPwey1GjGJX9DZ63Zcdy2,html-keyboard-response,63,369563,0.0-43.0-0.0-2.0-3.0,,,,,,,,,,,,,,,59e7232f24d7bf00012f112e,13:38:24,06/03/2024
3441.800000000745,"<div class = numbox><p style=""font-size: 2.4rem"">Please recall the letters you saw to the best of your ability. If you do not remember a particular letter, use the SKIP button.<br><b>(When you are ready to lock in your answer, press ENTER)</b></p><button id = button_1 class = ""square num-button"" onclick = ""recordClick(this)""><div class = content><div class = numbers>C</div></div></button><button id = button_2 class = ""square num-button"" onclick = ""recordClick(this)""><div class = content><div class = numbers>G</div></div></button><button id = button_3 class = ""square num-button"" onclick = ""recordClick(this)""><div class = content><div class = numbers>H</div></div></button><button id = button_4 class = ""square num-button"" onclick = ""recordClick(this)""><div class = content><div class = numbers>J</div></div></button><button id = button_5 class = ""square num-button"" onclick = ""recordClick(this)""><div class = content><div class = numbers>K</div></div></button><button id = button_6 class = ""square num-button"" onclick = ""recordClick(this)""><div class = content><div class = numbers>L</div></div></button><button id = button_7 class = ""square num-button"" onclick = ""recordClick(this)""><div class = content><div class = numbers>N</div></div></button><button id = button_8 class = ""square num-button"" onclick = ""recordClick(this)""><div class = content><div class = numbers>P</div></div></button><button id = button_9 class = ""square num-button"" onclick = ""recordClick(this)""><div class = content><div class = numbers>Q</div></div></button><button id = button_10 class = ""square num-button"" onclick = ""recordClick(this)""><div class = content><div class = numbers>R</div></div></button><button id = button_11 class = ""square num-button"" onclick = ""recordClick(this)""><div class = content><div class = numbers>S</div></div></button><button id = button_12 class = ""square num-button"" onclick = ""recordClick(this)""><div class = content><div class = numbers>Y</div></div></button><button class = clear_button id = ""ClearButton"" onclick = ""clearResponse()"">BACKSPACE</button><button class = blank_button id = ""BlankButton"" onclick = ""blankResponse()"">SKIP</button><p style=""font-size: 2.4rem""><u><b>Current Answer:</b></u></p><br><br><div id=echoed_txt style=""font-size: 5rem; color:blue;""><b></b></div></div>",enter,ospan,retrieval,bKGy8ASGPwey1GjGJX9DZ63Zcdy2,html-keyboard-response,64,373762,0.0-43.0-0.0-2.0-4.0,NA,NA,NA,3.0,"[""K"",""Q"",""L""]","[""K"",""Q"",""L""]",1.0,3.0,"['<font color=""green"">K</font>', '<font color=""green"">Q</font>', '<font color=""green"">L</font>']",,,,,,59e7232f24d7bf00012f112e,13:38:24,06/03/2024
714.3000000007451,"['<p style=""font-size:44px"">Letters:<br><br><br><font color=""green"">K</font> <font color=""green"">Q</font> <font color=""green"">L</font></p><br><br>']",0,ospan,practice_feedback,bKGy8ASGPwey1GjGJX9DZ63Zcdy2,html-button-response,65,374993,0.0-43.0-0.0-2.0-5.0,,,,,,,,,,,,,,,59e7232f24d7bf00012f112e,13:38:24,06/03/2024
5182.599999997765,"<div class = 'left_align' style='font-size: 3.25rem; line-height: 1.3;'>Now you will practice doing the <b>symmetry judgment part</b> of the experiment.<br><br>A black and white grid picture will appear on the screen and you have to judge if it is <br>symmetrical or asymetrical.<br><br>A picture is 'mirror' symmetrical if its left half is identical to the right half when flipped.<br>Here are examples of a symmetrical and an asymetrical picture:<br><br><center><img src='Stimuli/img/symm_instructions_extra.png' style='height:420px; width:900'></img></center><br>To judge symmetry, imagine you were to fold each picture down the middle, like a book –<br>would the left half match the right half when folded onto each other?<br><br></div><br>",0,ospan,instruct,bKGy8ASGPwey1GjGJX9DZ63Zcdy2,html-button-response,66,380178,0.0-43.0-1.0-0.0-0.0,,,,,,,,,,,,,,,59e7232f24d7bf00012f112e,13:38:24,06/03/2024
1169.0999999977648,"<div class = 'left_align' style='font-size: 3.25rem; line-height: 1.3;'>When you have viewed the picture and determined whether it is symmetrical or not,<br>you can <b>click the Yes or No button</b> below to answer.<br><br>If you take longer than 15 seconds, it will continue automatically<br>and record the answer as an error.</div><br>",0,ospan,instruct,bKGy8ASGPwey1GjGJX9DZ63Zcdy2,html-button-response,67,381603,0.0-43.0-1.0-0.0-1.0,,,,,,,,,,,,,,,59e7232f24d7bf00012f112e,13:38:24,06/03/2024
895.5,"<div class = 'left_align' style='font-size: 3.25rem; line-height: 1.3;'>It is <b>very</b> important that you make the symmetry judgment correctly.<br><br>It is also important that you try and judge the picture as quickly as you can.<br><br>When you are ready, click on the button below to try some practice problems.</div><br><br><br><br>",0,ospan,instruct,bKGy8ASGPwey1GjGJX9DZ63Zcdy2,html-button-response,68,382755,0.0-43.0-1.0-0.0-2.0,,,,,,,,,,,,,,,59e7232f24d7bf00012f112e,13:38:24,06/03/2024
1435.0,,,ospan,symmetry,bKGy8ASGPwey1GjGJX9DZ63Zcdy2,symmetry-judgement-task,69,385005,0.0-43.0-1.0-1.0-0.0,,,,,,,,,,1.0,1.0,,,,59e7232f24d7bf00012f112e,13:38:24,06/03/2024
,"<p style=""color:green; font-size: 35px"">Correct</p>",,ospan,feedback,bKGy8ASGPwey1GjGJX9DZ63Zcdy2,html-keyboard-response,70,385761,0.0-43.0-1.0-1.0-1.0,,,,,,,,,,,,,,,59e7232f24d7bf00012f112e,13:38:24,06/03/2024
1919.0,,,ospan,symmetry,bKGy8ASGPwey1GjGJX9DZ63Zcdy2,symmetry-judgement-task,71,390274,0.0-43.0-1.0-1.0-2.0,,,,,,,,,,1.0,1.0,,,,59e7232f24d7bf00012f112e,13:38:24,06/03/2024
,"<p style=""color:green; font-size: 35px"">Correct</p>",,ospan,feedback,bKGy8ASGPwey1GjGJX9DZ63Zcdy2,html-keyboard-response,72,391046,0.0-43.0-1.0-1.0-3.0,,,,,,,,,,,,,,,59e7232f24d7bf00012f112e,13:38:24,06/03/2024
2207.0,,,ospan,symmetry,bKGy8ASGPwey1GjGJX9DZ63Zcdy2,symmetry-judgement-task,73,395862,0.0-43.0-1.0-1.0-4.0,,,,,,,,,,1.0,1.0,,,,59e7232f24d7bf00012f112e,13:38:24,06/03/2024
,"<p style=""color:green; font-size: 35px"">Correct</p>",,ospan,feedback,bKGy8ASGPwey1GjGJX9DZ63Zcdy2,html-keyboard-response,74,396627,0.0-43.0-1.0-1.0-5.0,,,,,,,,,,,,,,,59e7232f24d7bf00012f112e,13:38:24,06/03/2024
1195.699999999255,"<p style=""font-size: 3rem;"">You responded correctly on 3 of 3 symmetry judgments. Good job!</p><br><br>",0,ospan,practice,bKGy8ASGPwey1GjGJX9DZ63Zcdy2,html-button-response,75,399829,0.0-43.0-1.0-2.0,,,,,,,,,,,,,,,59e7232f24d7bf00012f112e,13:38:24,06/03/2024
1898.4000000022352,"<div class = 'left_align' style='font-size: 3.25rem; line-height: 1.3;'>Now you will practice doing both parts of the experiment at the same time.<br><br>In the next practice set, you will be given one grid picture to judge.<br>Then letter will appear on the screen. Try to remember the letter.<br><br>It is <b>very important</b> to make the symmetry judgment as quickly and accurately as possible.<br><br>Just as before, once you have make the symmetry judgment, you can click Yes or No.<br><b>Note that you will no longer see Correct or Incorrect feedback.</div><br><br><br><br>",0,ospan,instruct,bKGy8ASGPwey1GjGJX9DZ63Zcdy2,html-button-response,76,401980,0.0-43.0-2.0-0.0-0.0,,,,,,,,,,,,,,,59e7232f24d7bf00012f112e,13:38:24,06/03/2024
1240.7000000029802,"<div class = 'left_align' style='font-size: 3.25rem; line-height: 1.3;'>After the letter goes away, another grid picture will appear, and then<br>another letter.<br><br>At the end of each set of letters and grids, you will recall the letters to the best<br>of your ability. Remember, try your best to get the letters in the correct order.<br><br>It is important to <b>quickly</b> and <b>accurately</b> make the symmetry judgments.</div><br><br><br><br>",0,ospan,instruct,bKGy8ASGPwey1GjGJX9DZ63Zcdy2,html-button-response,77,403486,0.0-43.0-2.0-0.0-1.0,,,,,,,,,,,,,,,59e7232f24d7bf00012f112e,13:38:24,06/03/2024
1463.800000000745,"<div class = 'left_align' style='font-size: 3.25rem; line-height: 1.3;'>On the feedback screen, if you are not doing well at the symmetry judgments,<br>you will also see a warning in the middle. This indicates your percent <br>correct for the grid pictures for the entire experiment.<br><br>It is <b>very</b> important for you to keep accuracy at least at 85%: <u>We can only use<br>data where the participant was at least 85% accurate on the judgments.</u> Therefore,<br> please try your best to perform well on the symmetry judgments, <b>at the same time</b><br>doing your best to recall as many letters as possible.<br><br>Click the button to try some practice problems.</div><br><br><br><br>",0,ospan,instruct,bKGy8ASGPwey1GjGJX9DZ63Zcdy2,html-button-response,78,405213,0.0-43.0-2.0-0.0-2.0,,,,,,,,,,,,,,,59e7232f24d7bf00012f112e,13:38:24,06/03/2024
,"<p style=""font-size:75px;"">...</p>",,ospan,iti,bKGy8ASGPwey1GjGJX9DZ63Zcdy2,html-keyboard-response,79,406468,0.0-43.0-2.0-1.0-0.0,,,,,,,,,,,,,,,59e7232f24d7bf00012f112e,13:38:24,06/03/2024
1760.0,,,ospan,symmetry,bKGy8ASGPwey1GjGJX9DZ63Zcdy2,symmetry-judgement-task,80,409313,0.0-43.0-2.0-1.0-1.0-0.0,,,,,,,,,,1.0,1.0,,,,59e7232f24d7bf00012f112e,13:38:24,06/03/2024
,"<div style=""font-size: 10rem; color: #0000FF"">C</div>",,ospan,letter,bKGy8ASGPwey1GjGJX9DZ63Zcdy2,html-keyboard-response,81,410317,0.0-43.0-2.0-1.0-1.0-1.0,,,,,,,,,,,,,,,59e7232f24d7bf00012f112e,13:38:24,06/03/2024
1824.0,,,ospan,symmetry,bKGy8ASGPwey1GjGJX9DZ63Zcdy2,symmetry-judgement-task,82,413992,0.0-43.0-2.0-1.0-1.0-2.0,,,,,,,,,,1.0,1.0,,,,59e7232f24d7bf00012f112e,13:38:24,06/03/2024
,"<div style=""font-size: 10rem; color: #0000FF"">K</div>",,ospan,letter,bKGy8ASGPwey1GjGJX9DZ63Zcdy2,html-keyboard-response,83,414994,0.0-43.0-2.0-1.0-1.0-3.0,,,,,,,,,,,,,,,59e7232f24d7bf00012f112e,13:38:24,06/03/2024
1551.0,,,ospan,symmetry,bKGy8ASGPwey1GjGJX9DZ63Zcdy2,symmetry-judgement-task,84,418402,0.0-43.0-2.0-1.0-1.0-4.0,,,,,,,,,,1.0,1.0,,,,59e7232f24d7bf00012f112e,13:38:24,06/03/2024
,"<div style=""font-size: 10rem; color: #0000FF"">G</div>",,ospan,letter,bKGy8ASGPwey1GjGJX9DZ63Zcdy2,html-keyboard-response,85,419406,0.0-43.0-2.0-1.0-1.0-5.0,,,,,,,,,,,,,,,59e7232f24d7bf00012f112e,13:38:24,06/03/2024
3134.7000000029802,"<div class = numbox><p style=""font-size: 2.4rem"">Please recall the letters you saw to the best of your ability. If you do not remember a particular letter, use the SKIP button.<br><b>(When you are ready to lock in your answer, press ENTER)</b></p><button id = button_1 class = ""square num-button"" onclick = ""recordClick(this)""><div class = content><div class = numbers>C</div></div></button><button id = button_2 class = ""square num-button"" onclick = ""recordClick(this)""><div class = content><div class = numbers>G</div></div></button><button id = button_3 class = ""square num-button"" onclick = ""recordClick(this)""><div class = content><div class = numbers>H</div></div></button><button id = button_4 class = ""square num-button"" onclick = ""recordClick(this)""><div class = content><div class = numbers>J</div></div></button><button id = button_5 class = ""square num-button"" onclick = ""recordClick(this)""><div class = content><div class = numbers>K</div></div></button><button id = button_6 class = ""square num-button"" onclick = ""recordClick(this)""><div class = content><div class = numbers>L</div></div></button><button id = button_7 class = ""square num-button"" onclick = ""recordClick(this)""><div class = content><div class = numbers>N</div></div></button><button id = button_8 class = ""square num-button"" onclick = ""recordClick(this)""><div class = content><div class = numbers>P</div></div></button><button id = button_9 class = ""square num-button"" onclick = ""recordClick(this)""><div class = content><div class = numbers>Q</div></div></button><button id = button_10 class = ""square num-button"" onclick = ""recordClick(this)""><div class = content><div class = numbers>R</div></div></button><button id = button_11 class = ""square num-button"" onclick = ""recordClick(this)""><div class = content><div class = numbers>S</div></div></button><button id = button_12 class = ""square num-button"" onclick = ""recordClick(this)""><div class = content><div class = numbers>Y</div></div></button><button class = clear_button id = ""ClearButton"" onclick = ""clearResponse()"">BACKSPACE</button><button class = blank_button id = ""BlankButton"" onclick = ""blankResponse()"">SKIP</button><p style=""font-size: 2.4rem""><u><b>Current Answer:</b></u></p><br><br><div id=echoed_txt style=""font-size: 5rem; color:blue;""><b></b></div></div>",enter,ospan,retrieval,bKGy8ASGPwey1GjGJX9DZ63Zcdy2,html-keyboard-response,86,423299,0.0-43.0-2.0-1.0-2.0-0.0,NA,NA,NA,3.0,"[""C"",""K"",""G""]","[""C"",""K"",""G""]",1.0,3.0,"['<font color=""green"">C</font>', '<font color=""green"">K</font>', '<font color=""green"">G</font>']",,,,,,59e7232f24d7bf00012f112e,13:38:24,06/03/2024
783.5,"['<p style=""font-size:44px"">Letters:<br><br><br><font color=""green"">C</font> <font color=""green"">K</font> <font color=""green"">G</font></p><br><br><p style=""font-size:30px"">Symmetry:<br><br><font color=""green"">100%</font></p><br><br>']",0,ospan,practice_feedback,bKGy8ASGPwey1GjGJX9DZ63Zcdy2,html-button-response,87,424602,0.0-43.0-2.0-1.0-2.0-1.0,,,,,,,,,,,,,,,59e7232f24d7bf00012f112e,13:38:24,06/03/2024
,"<p style=""font-size:75px;"">...</p>",,ospan,iti,bKGy8ASGPwey1GjGJX9DZ63Zcdy2,html-keyboard-response,88,425605,0.0-43.0-2.0-2.0-0.0,,,,,,,,,,,,,,,59e7232f24d7bf00012f112e,13:38:24,06/03/2024
1436.0,,,ospan,symmetry,bKGy8ASGPwey1GjGJX9DZ63Zcdy2,symmetry-judgement-task,89,428131,0.0-43.0-2.0-2.0-1.0-0.0,,,,,,,,,,1.0,1.0,,,,59e7232f24d7bf00012f112e,13:38:24,06/03/2024
,"<div style=""font-size: 10rem; color: #0000FF"">P</div>",,ospan,letter,bKGy8ASGPwey1GjGJX9DZ63Zcdy2,html-keyboard-response,90,429135,0.0-43.0-2.0-2.0-1.0-1.0,,,,,,,,,,,,,,,59e7232f24d7bf00012f112e,13:38:24,06/03/2024
965.0,,,ospan,symmetry,bKGy8ASGPwey1GjGJX9DZ63Zcdy2,symmetry-judgement-task,91,431975,0.0-43.0-2.0-2.0-1.0-2.0,,,,,,,,,,1.0,1.0,,,,59e7232f24d7bf00012f112e,13:38:24,06/03/2024
,"<div style=""font-size: 10rem; color: #0000FF"">N</div>",,ospan,letter,bKGy8ASGPwey1GjGJX9DZ63Zcdy2,html-keyboard-response,92,432981,0.0-43.0-2.0-2.0-1.0-3.0,,,,,,,,,,,,,,,59e7232f24d7bf00012f112e,13:38:24,06/03/2024
1396.0,,,ospan,symmetry,bKGy8ASGPwey1GjGJX9DZ63Zcdy2,symmetry-judgement-task,93,436230,0.0-43.0-2.0-2.0-1.0-4.0,,,,,,,,,,1.0,1.0,,,,59e7232f24d7bf00012f112e,13:38:24,06/03/2024
,"<div style=""font-size: 10rem; color: #0000FF"">Y</div>",,ospan,letter,bKGy8ASGPwey1GjGJX9DZ63Zcdy2,html-keyboard-response,94,437235,0.0-43.0-2.0-2.0-1.0-5.0,,,,,,,,,,,,,,,59e7232f24d7bf00012f112e,13:38:24,06/03/2024
3707.0,"<div class = numbox><p style=""font-size: 2.4rem"">Please recall the letters you saw to the best of your ability. If you do not remember a particular letter, use the SKIP button.<br><b>(When you are ready to lock in your answer, press ENTER)</b></p><button id = button_1 class = ""square num-button"" onclick = ""recordClick(this)""><div class = content><div class = numbers>C</div></div></button><button id = button_2 class = ""square num-button"" onclick = ""recordClick(this)""><div class = content><div class = numbers>G</div></div></button><button id = button_3 class = ""square num-button"" onclick = ""recordClick(this)""><div class = content><div class = numbers>H</div></div></button><button id = button_4 class = ""square num-button"" onclick = ""recordClick(this)""><div class = content><div class = numbers>J</div></div></button><button id = button_5 class = ""square num-button"" onclick = ""recordClick(this)""><div class = content><div class = numbers>K</div></div></button><button id = button_6 class = ""square num-button"" onclick = ""recordClick(this)""><div class = content><div class = numbers>L</div></div></button><button id = button_7 class = ""square num-button"" onclick = ""recordClick(this)""><div class = content><div class = numbers>N</div></div></button><button id = button_8 class = ""square num-button"" onclick = ""recordClick(this)""><div class = content><div class = numbers>P</div></div></button><button id = button_9 class = ""square num-button"" onclick = ""recordClick(this)""><div class = content><div class = numbers>Q</div></div></button><button id = button_10 class = ""square num-button"" onclick = ""recordClick(this)""><div class = content><div class = numbers>R</div></div></button><button id = button_11 class = ""square num-button"" onclick = ""recordClick(this)""><div class = content><div class = numbers>S</div></div></button><button id = button_12 class = ""square num-button"" onclick = ""recordClick(this)""><div class = content><div class = numbers>Y</div></div></button><button class = clear_button id = ""ClearButton"" onclick = ""clearResponse()"">BACKSPACE</button><button class = blank_button id = ""BlankButton"" onclick = ""blankResponse()"">SKIP</button><p style=""font-size: 2.4rem""><u><b>Current Answer:</b></u></p><br><br><div id=echoed_txt style=""font-size: 5rem; color:blue;""><b></b></div></div>",enter,ospan,retrieval,bKGy8ASGPwey1GjGJX9DZ63Zcdy2,html-keyboard-response,95,441706,0.0-43.0-2.0-2.0-2.0-0.0,NA,NA,NA,3.0,"[""P"",""N"",""Y""]","[""P"",""N"",""Y""]",1.0,3.0,"['<font color=""green"">P</font>', '<font color=""green"">N</font>', '<font color=""green"">Y</font>']",,,,,,59e7232f24d7bf00012f112e,13:38:24,06/03/2024
716.5999999977648,"['<p style=""font-size:44px"">Letters:<br><br><br><font color=""green"">P</font> <font color=""green"">N</font> <font color=""green"">Y</font></p><br><br><p style=""font-size:30px"">Symmetry:<br><br><font color=""green"">100%</font></p><br><br>']",0,ospan,practice_feedback,bKGy8ASGPwey1GjGJX9DZ63Zcdy2,html-button-response,96,442927,0.0-43.0-2.0-2.0-2.0-1.0,,,,,,,,,,,,,,,59e7232f24d7bf00012f112e,13:38:24,06/03/2024
2115.5,"<div class = 'left_align' style='font-size: 3rem; line-height: 1.3;'><b>Great work! That is the end of practice.</b><br><br>The real trials will look just like the practice trials you just completed.<br><br><u>Here, you will not see feedback</u>. First, you will see an grid picture to judge,<br>then a letter to remember. When the recall screen appears, report the letters in the<br>order presented. If you forget a letter, remember to use the <b>blank</b> button to move to the<br>next letter. Some of the sets will have more symmetry grids and letters than others.<br><br>It is important that you do your best on both the symmetry judgments and the letter recall<br>parts of the experiment. For for the symmetry judgments, try to work as <b>quickly</b> and <br>as <b>accurately</b> as possible. Remember to keep your symmetry accuracy at 85% or above.<br><br><b>For the letters, do NOT use any external aid (e.g., writing on paper, electronic device).</b><br><br>It is <u>very important</u> to our experiment to have a <b>true</b> view of your real performance.<br><br>Do not worry if you miss some when it gets hard! This task is meant to be very challenging!<br><br>Click the button to begin.</div><br><br><br><br>",0,ospan,starting_real_here,bKGy8ASGPwey1GjGJX9DZ63Zcdy2,html-button-response,97,445043,0.0-43.0-2.0-3.0,,,,,,,,,,,,,,,59e7232f24d7bf00012f112e,13:38:24,06/03/2024
,"<p style=""font-size:75px;"">...</p>",,ospan,iti,bKGy8ASGPwey1GjGJX9DZ63Zcdy2,html-keyboard-response,98,446299,0.0-43.0-3.0-0.0-0.0,,,,,,,,,,,,,,,59e7232f24d7bf00012f112e,13:38:24,06/03/2024
1335.0,,,ospan,symmetry,bKGy8ASGPwey1GjGJX9DZ63Zcdy2,symmetry-judgement-task,99,448675,0.0-43.0-3.0-0.0-1.0-0.0,,,,,,,,,,1.0,1.0,,,,59e7232f24d7bf00012f112e,13:38:24,06/03/2024
,"<div style=""font-size: 10rem; color: #0000FF"">N</div>",,ospan,letter,bKGy8ASGPwey1GjGJX9DZ63Zcdy2,html-keyboard-response,100,449691,0.0-43.0-3.0-0.0-1.0-1.0,,,,,,,,,,,,,,,59e7232f24d7bf00012f112e,13:38:24,06/03/2024
888.0,,,ospan,symmetry,bKGy8ASGPwey1GjGJX9DZ63Zcdy2,symmetry-judgement-task,101,452443,0.0-43.0-3.0-0.0-1.0-2.0,,,,,,,,,,1.0,1.0,,,,59e7232f24d7bf00012f112e,13:38:24,06/03/2024
,"<div style=""font-size: 10rem; color: #0000FF"">H</div>",,ospan,letter,bKGy8ASGPwey1GjGJX9DZ63Zcdy2,html-keyboard-response,102,453447,0.0-43.0-3.0-0.0-1.0-3.0,,,,,,,,,,,,,,,59e7232f24d7bf00012f112e,13:38:24,06/03/2024
1020.0,,,ospan,symmetry,bKGy8ASGPwey1GjGJX9DZ63Zcdy2,symmetry-judgement-task,103,456320,0.0-43.0-3.0-0.0-1.0-4.0,,,,,,,,,,1.0,1.0,,,,59e7232f24d7bf00012f112e,13:38:24,06/03/2024
,"<div style=""font-size: 10rem; color: #0000FF"">J</div>",,ospan,letter,bKGy8ASGPwey1GjGJX9DZ63Zcdy2,html-keyboard-response,104,457328,0.0-43.0-3.0-0.0-1.0-5.0,,,,,,,,,,,,,,,59e7232f24d7bf00012f112e,13:38:24,06/03/2024
3473.89999999851,"<div class = numbox><p style=""font-size: 2.4rem"">Please recall the letters you saw to the best of your ability. If you do not remember a particular letter, use the SKIP button.<br><b>(When you are ready to lock in your answer, press ENTER)</b></p><button id = button_1 class = ""square num-button"" onclick = ""recordClick(this)""><div class = content><div class = numbers>C</div></div></button><button id = button_2 class = ""square num-button"" onclick = ""recordClick(this)""><div class = content><div class = numbers>G</div></div></button><button id = button_3 class = ""square num-button"" onclick = ""recordClick(this)""><div class = content><div class = numbers>H</div></div></button><button id = button_4 class = ""square num-button"" onclick = ""recordClick(this)""><div class = content><div class = numbers>J</div></div></button><button id = button_5 class = ""square num-button"" onclick = ""recordClick(this)""><div class = content><div class = numbers>K</div></div></button><button id = button_6 class = ""square num-button"" onclick = ""recordClick(this)""><div class = content><div class = numbers>L</div></div></button><button id = button_7 class = ""square num-button"" onclick = ""recordClick(this)""><div class = content><div class = numbers>N</div></div></button><button id = button_8 class = ""square num-button"" onclick = ""recordClick(this)""><div class = content><div class = numbers>P</div></div></button><button id = button_9 class = ""square num-button"" onclick = ""recordClick(this)""><div class = content><div class = numbers>Q</div></div></button><button id = button_10 class = ""square num-button"" onclick = ""recordClick(this)""><div class = content><div class = numbers>R</div></div></button><button id = button_11 class = ""square num-button"" onclick = ""recordClick(this)""><div class = content><div class = numbers>S</div></div></button><button id = button_12 class = ""square num-button"" onclick = ""recordClick(this)""><div class = content><div class = numbers>Y</div></div></button><button class = clear_button id = ""ClearButton"" onclick = ""clearResponse()"">BACKSPACE</button><button class = blank_button id = ""BlankButton"" onclick = ""blankResponse()"">SKIP</button><p style=""font-size: 2.4rem""><u><b>Current Answer:</b></u></p><br><br><div id=echoed_txt style=""font-size: 5rem; color:blue;""><b></b></div></div>",enter,ospan,retrieval,bKGy8ASGPwey1GjGJX9DZ63Zcdy2,html-keyboard-response,105,461576,0.0-43.0-3.0-0.0-2.0,3,3,3,3.0,"[""N"",""H"",""J""]","[""N"",""H"",""J""]",1.0,3.0,,,,,,,59e7232f24d7bf00012f112e,13:38:24,06/03/2024
863.8000000007451,[''],0,ospan,feedback,bKGy8ASGPwey1GjGJX9DZ63Zcdy2,html-button-response,106,462942,0.0-43.0-3.0-0.0-3.0,,,,,,,,,,,,100.0,0.0,,59e7232f24d7bf00012f112e,13:38:24,06/03/2024
,"<p style=""font-size:75px;"">...</p>",,ospan,iti,bKGy8ASGPwey1GjGJX9DZ63Zcdy2,html-keyboard-response,107,463958,0.0-43.0-4.0-0.0-0.0,,,,,,,,,,,,,,,59e7232f24d7bf00012f112e,13:38:24,06/03/2024
1100.0,,,ospan,symmetry,bKGy8ASGPwey1GjGJX9DZ63Zcdy2,symmetry-judgement-task,108,466160,0.0-43.0-4.0-0.0-1.0-0.0,,,,,,,,,,1.0,1.0,,,,59e7232f24d7bf00012f112e,13:38:24,06/03/2024
,"<div style=""font-size: 10rem; color: #0000FF"">S</div>",,ospan,letter,bKGy8ASGPwey1GjGJX9DZ63Zcdy2,html-keyboard-response,109,467163,0.0-43.0-4.0-0.0-1.0-1.0,,,,,,,,,,,,,,,59e7232f24d7bf00012f112e,13:38:24,06/03/2024
1757.0,,,ospan,symmetry,bKGy8ASGPwey1GjGJX9DZ63Zcdy2,symmetry-judgement-task,110,470773,0.0-43.0-4.0-0.0-1.0-2.0,,,,,,,,,,1.0,1.0,,,,59e7232f24d7bf00012f112e,13:38:24,06/03/2024
,"<div style=""font-size: 10rem; color: #0000FF"">Y</div>",,ospan,letter,bKGy8ASGPwey1GjGJX9DZ63Zcdy2,html-keyboard-response,111,471791,0.0-43.0-4.0-0.0-1.0-3.0,,,,,,,,,,,,,,,59e7232f24d7bf00012f112e,13:38:24,06/03/2024
1072.0,,,ospan,symmetry,bKGy8ASGPwey1GjGJX9DZ63Zcdy2,symmetry-judgement-task,112,474714,0.0-43.0-4.0-0.0-1.0-4.0,,,,,,,,,,1.0,1.0,,,,59e7232f24d7bf00012f112e,13:38:24,06/03/2024
,"<div style=""font-size: 10rem; color: #0000FF"">H</div>",,ospan,letter,bKGy8ASGPwey1GjGJX9DZ63Zcdy2,html-keyboard-response,113,475718,0.0-43.0-4.0-0.0-1.0-5.0,,,,,,,,,,,,,,,59e7232f24d7bf00012f112e,13:38:24,06/03/2024
969.0,,,ospan,symmetry,bKGy8ASGPwey1GjGJX9DZ63Zcdy2,symmetry-judgement-task,114,478547,0.0-43.0-4.0-0.0-1.0-6.0,,,,,,,,,,1.0,1.0,,,,59e7232f24d7bf00012f112e,13:38:24,06/03/2024
,"<div style=""font-size: 10rem; color: #0000FF"">C</div>",,ospan,letter,bKGy8ASGPwey1GjGJX9DZ63Zcdy2,html-keyboard-response,115,479550,0.0-43.0-4.0-0.0-1.0-7.0,,,,,,,,,,,,,,,59e7232f24d7bf00012f112e,13:38:24,06/03/2024
4158.10000000149,"<div class = numbox><p style=""font-size: 2.4rem"">Please recall the letters you saw to the best of your ability. If you do not remember a particular letter, use the SKIP button.<br><b>(When you are ready to lock in your answer, press ENTER)</b></p><button id = button_1 class = ""square num-button"" onclick = ""recordClick(this)""><div class = content><div class = numbers>C</div></div></button><button id = button_2 class = ""square num-button"" onclick = ""recordClick(this)""><div class = content><div class = numbers>G</div></div></button><button id = button_3 class = ""square num-button"" onclick = ""recordClick(this)""><div class = content><div class = numbers>H</div></div></button><button id = button_4 class = ""square num-button"" onclick = ""recordClick(this)""><div class = content><div class = numbers>J</div></div></button><button id = button_5 class = ""square num-button"" onclick = ""recordClick(this)""><div class = content><div class = numbers>K</div></div></button><button id = button_6 class = ""square num-button"" onclick = ""recordClick(this)""><div class = content><div class = numbers>L</div></div></button><button id = button_7 class = ""square num-button"" onclick = ""recordClick(this)""><div class = content><div class = numbers>N</div></div></button><button id = button_8 class = ""square num-button"" onclick = ""recordClick(this)""><div class = content><div class = numbers>P</div></div></button><button id = button_9 class = ""square num-button"" onclick = ""recordClick(this)""><div class = content><div class = numbers>Q</div></div></button><button id = button_10 class = ""square num-button"" onclick = ""recordClick(this)""><div class = content><div class = numbers>R</div></div></button><button id = button_11 class = ""square num-button"" onclick = ""recordClick(this)""><div class = content><div class = numbers>S</div></div></button><button id = button_12 class = ""square num-button"" onclick = ""recordClick(this)""><div class = content><div class = numbers>Y</div></div></button><button class = clear_button id = ""ClearButton"" onclick = ""clearResponse()"">BACKSPACE</button><button class = blank_button id = ""BlankButton"" onclick = ""blankResponse()"">SKIP</button><p style=""font-size: 2.4rem""><u><b>Current Answer:</b></u></p><br><br><div id=echoed_txt style=""font-size: 5rem; color:blue;""><b></b></div></div>",enter,ospan,retrieval,bKGy8ASGPwey1GjGJX9DZ63Zcdy2,html-keyboard-response,116,484482,0.0-43.0-4.0-0.0-2.0,7,7,7,4.0,"[""S"",""Y"",""H"",""C""]","[""S"",""Y"",""H"",""C""]",1.0,4.0,,,,,,,59e7232f24d7bf00012f112e,13:38:24,06/03/2024
781.5,[''],0,ospan,feedback,bKGy8ASGPwey1GjGJX9DZ63Zcdy2,html-button-response,117,485777,0.0-43.0-4.0-0.0-3.0,,,,,,,,,,,,100.0,0.0,,59e7232f24d7bf00012f112e,13:38:24,06/03/2024
,"<p style=""font-size:75px;"">...</p>",,ospan,iti,bKGy8ASGPwey1GjGJX9DZ63Zcdy2,html-keyboard-response,118,486787,0.0-43.0-4.0-1.0-0.0,,,,,,,,,,,,,,,59e7232f24d7bf00012f112e,13:38:24,06/03/2024
1139.0,,,ospan,symmetry,bKGy8ASGPwey1GjGJX9DZ63Zcdy2,symmetry-judgement-task,119,489023,0.0-43.0-4.0-1.0-1.0-0.0,,,,,,,,,,1.0,1.0,,,,59e7232f24d7bf00012f112e,13:38:24,06/03/2024
,"<div style=""font-size: 10rem; color: #0000FF"">R</div>",,ospan,letter,bKGy8ASGPwey1GjGJX9DZ63Zcdy2,html-keyboard-response,120,490026,0.0-43.0-4.0-1.0-1.0-1.0,,,,,,,,,,,,,,,59e7232f24d7bf00012f112e,13:38:24,06/03/2024
837.0,,,ospan,symmetry,bKGy8ASGPwey1GjGJX9DZ63Zcdy2,symmetry-judgement-task,121,492705,0.0-43.0-4.0-1.0-1.0-2.0,,,,,,,,,,1.0,1.0,,,,59e7232f24d7bf00012f112e,13:38:24,06/03/2024
,"<div style=""font-size: 10rem; color: #0000FF"">N</div>",,ospan,letter,bKGy8ASGPwey1GjGJX9DZ63Zcdy2,html-keyboard-response,122,493712,0.0-43.0-4.0-1.0-1.0-3.0,,,,,,,,,,,,,,,59e7232f24d7bf00012f112e,13:38:24,06/03/2024
950.0,,,ospan,symmetry,bKGy8ASGPwey1GjGJX9DZ63Zcdy2,symmetry-judgement-task,123,496521,0.0-43.0-4.0-1.0-1.0-4.0,,,,,,,,,,1.0,1.0,,,,59e7232f24d7bf00012f112e,13:38:24,06/03/2024
,"<div style=""font-size: 10rem; color: #0000FF"">J</div>",,ospan,letter,bKGy8ASGPwey1GjGJX9DZ63Zcdy2,html-keyboard-response,124,497525,0.0-43.0-4.0-1.0-1.0-5.0,,,,,,,,,,,,,,,59e7232f24d7bf00012f112e,13:38:24,06/03/2024
955.0,,,ospan,symmetry,bKGy8ASGPwey1GjGJX9DZ63Zcdy2,symmetry-judgement-task,125,500341,0.0-43.0-4.0-1.0-1.0-6.0,,,,,,,,,,1.0,1.0,,,,59e7232f24d7bf00012f112e,13:38:24,06/03/2024
,"<div style=""font-size: 10rem; color: #0000FF"">G</div>",,ospan,letter,bKGy8ASGPwey1GjGJX9DZ63Zcdy2,html-keyboard-response,126,501343,0.0-43.0-4.0-1.0-1.0-7.0,,,,,,,,,,,,,,,59e7232f24d7bf00012f112e,13:38:24,06/03/2024
1183.0,,,ospan,symmetry,bKGy8ASGPwey1GjGJX9DZ63Zcdy2,symmetry-judgement-task,127,504391,0.0-43.0-4.0-1.0-1.0-8.0,,,,,,,,,,1.0,1.0,,,,59e7232f24d7bf00012f112e,13:38:24,06/03/2024
,"<div style=""font-size: 10rem; color: #0000FF"">Q</div>",,ospan,letter,bKGy8ASGPwey1GjGJX9DZ63Zcdy2,html-keyboard-response,128,505395,0.0-43.0-4.0-1.0-1.0-9.0,,,,,,,,,,,,,,,59e7232f24d7bf00012f112e,13:38:24,06/03/2024
5488.599999997765,"<div class = numbox><p style=""font-size: 2.4rem"">Please recall the letters you saw to the best of your ability. If you do not remember a particular letter, use the SKIP button.<br><b>(When you are ready to lock in your answer, press ENTER)</b></p><button id = button_1 class = ""square num-button"" onclick = ""recordClick(this)""><div class = content><div class = numbers>C</div></div></button><button id = button_2 class = ""square num-button"" onclick = ""recordClick(this)""><div class = content><div class = numbers>G</div></div></button><button id = button_3 class = ""square num-button"" onclick = ""recordClick(this)""><div class = content><div class = numbers>H</div></div></button><button id = button_4 class = ""square num-button"" onclick = ""recordClick(this)""><div class = content><div class = numbers>J</div></div></button><button id = button_5 class = ""square num-button"" onclick = ""recordClick(this)""><div class = content><div class = numbers>K</div></div></button><button id = button_6 class = ""square num-button"" onclick = ""recordClick(this)""><div class = content><div class = numbers>L</div></div></button><button id = button_7 class = ""square num-button"" onclick = ""recordClick(this)""><div class = content><div class = numbers>N</div></div></button><button id = button_8 class = ""square num-button"" onclick = ""recordClick(this)""><div class = content><div class = numbers>P</div></div></button><button id = button_9 class = ""square num-button"" onclick = ""recordClick(this)""><div class = content><div class = numbers>Q</div></div></button><button id = button_10 class = ""square num-button"" onclick = ""recordClick(this)""><div class = content><div class = numbers>R</div></div></button><button id = button_11 class = ""square num-button"" onclick = ""recordClick(this)""><div class = content><div class = numbers>S</div></div></button><button id = button_12 class = ""square num-button"" onclick = ""recordClick(this)""><div class = content><div class = numbers>Y</div></div></button><button class = clear_button id = ""ClearButton"" onclick = ""clearResponse()"">BACKSPACE</button><button class = blank_button id = ""BlankButton"" onclick = ""blankResponse()"">SKIP</button><p style=""font-size: 2.4rem""><u><b>Current Answer:</b></u></p><br><br><div id=echoed_txt style=""font-size: 5rem; color:blue;""><b></b></div></div>",enter,ospan,retrieval,bKGy8ASGPwey1GjGJX9DZ63Zcdy2,html-keyboard-response,129,511651,0.0-43.0-4.0-1.0-2.0,12,12,12,5.0,"[""R"",""N"",""J"",""G"",""Q""]","[""R"",""N"",""J"",""G"",""Q""]",1.0,5.0,,,,,,,59e7232f24d7bf00012f112e,13:38:24,06/03/2024
536.5,[''],0,ospan,feedback,bKGy8ASGPwey1GjGJX9DZ63Zcdy2,html-button-response,130,512700,0.0-43.0-4.0-1.0-3.0,,,,,,,,,,,,100.0,0.0,,59e7232f24d7bf00012f112e,13:38:24,06/03/2024
,"<p style=""font-size:75px;"">...</p>",,ospan,iti,bKGy8ASGPwey1GjGJX9DZ63Zcdy2,html-keyboard-response,131,513707,0.0-43.0-4.0-2.0-0.0,,,,,,,,,,,,,,,59e7232f24d7bf00012f112e,13:38:24,06/03/2024
1210.0,,,ospan,symmetry,bKGy8ASGPwey1GjGJX9DZ63Zcdy2,symmetry-judgement-task,132,516016,0.0-43.0-4.0-2.0-1.0-0.0,,,,,,,,,,1.0,1.0,,,,59e7232f24d7bf00012f112e,13:38:24,06/03/2024
,"<div style=""font-size: 10rem; color: #0000FF"">P</div>",,ospan,letter,bKGy8ASGPwey1GjGJX9DZ63Zcdy2,html-keyboard-response,133,517019,0.0-43.0-4.0-2.0-1.0-1.0,,,,,,,,,,,,,,,59e7232f24d7bf00012f112e,13:38:24,06/03/2024
1179.0,,,ospan,symmetry,bKGy8ASGPwey1GjGJX9DZ63Zcdy2,symmetry-judgement-task,134,520030,0.0-43.0-4.0-2.0-1.0-2.0,,,,,,,,,,1.0,1.0,,,,59e7232f24d7bf00012f112e,13:38:24,06/03/2024
,"<div style=""font-size: 10rem; color: #0000FF"">L</div>",,ospan,letter,bKGy8ASGPwey1GjGJX9DZ63Zcdy2,html-keyboard-response,135,521034,0.0-43.0-4.0-2.0-1.0-3.0,,,,,,,,,,,,,,,59e7232f24d7bf00012f112e,13:38:24,06/03/2024
1004.0,,,ospan,symmetry,bKGy8ASGPwey1GjGJX9DZ63Zcdy2,symmetry-judgement-task,136,523885,0.0-43.0-4.0-2.0-1.0-4.0,,,,,,,,,,1.0,1.0,,,,59e7232f24d7bf00012f112e,13:38:24,06/03/2024
,"<div style=""font-size: 10rem; color: #0000FF"">K</div>",,ospan,letter,bKGy8ASGPwey1GjGJX9DZ63Zcdy2,html-keyboard-response,137,524887,0.0-43.0-4.0-2.0-1.0-5.0,,,,,,,,,,,,,,,59e7232f24d7bf00012f112e,13:38:24,06/03/2024
3764.199999999255,"<div class = numbox><p style=""font-size: 2.4rem"">Please recall the letters you saw to the best of your ability. If you do not remember a particular letter, use the SKIP button.<br><b>(When you are ready to lock in your answer, press ENTER)</b></p><button id = button_1 class = ""square num-button"" onclick = ""recordClick(this)""><div class = content><div class = numbers>C</div></div></button><button id = button_2 class = ""square num-button"" onclick = ""recordClick(this)""><div class = content><div class = numbers>G</div></div></button><button id = button_3 class = ""square num-button"" onclick = ""recordClick(this)""><div class = content><div class = numbers>H</div></div></button><button id = button_4 class = ""square num-button"" onclick = ""recordClick(this)""><div class = content><div class = numbers>J</div></div></button><button id = button_5 class = ""square num-button"" onclick = ""recordClick(this)""><div class = content><div class = numbers>K</div></div></button><button id = button_6 class = ""square num-button"" onclick = ""recordClick(this)""><div class = content><div class = numbers>L</div></div></button><button id = button_7 class = ""square num-button"" onclick = ""recordClick(this)""><div class = content><div class = numbers>N</div></div></button><button id = button_8 class = ""square num-button"" onclick = ""recordClick(this)""><div class = content><div class = numbers>P</div></div></button><button id = button_9 class = ""square num-button"" onclick = ""recordClick(this)""><div class = content><div class = numbers>Q</div></div></button><button id = button_10 class = ""square num-button"" onclick = ""recordClick(this)""><div class = content><div class = numbers>R</div></div></button><button id = button_11 class = ""square num-button"" onclick = ""recordClick(this)""><div class = content><div class = numbers>S</div></div></button><button id = button_12 class = ""square num-button"" onclick = ""recordClick(this)""><div class = content><div class = numbers>Y</div></div></button><button class = clear_button id = ""ClearButton"" onclick = ""clearResponse()"">BACKSPACE</button><button class = blank_button id = ""BlankButton"" onclick = ""blankResponse()"">SKIP</button><p style=""font-size: 2.4rem""><u><b>Current Answer:</b></u></p><br><br><div id=echoed_txt style=""font-size: 5rem; color:blue;""><b></b></div></div>",enter,ospan,retrieval,bKGy8ASGPwey1GjGJX9DZ63Zcdy2,html-keyboard-response,138,529418,0.0-43.0-4.0-2.0-2.0,15,15,15,3.0,"[""P"",""L"",""K""]","[""P"",""L"",""K""]",1.0,3.0,,,,,,,59e7232f24d7bf00012f112e,13:38:24,06/03/2024
496.30000000074506,[''],0,ospan,feedback,bKGy8ASGPwey1GjGJX9DZ63Zcdy2,html-button-response,139,530417,0.0-43.0-4.0-2.0-3.0,,,,,,,,,,,,100.0,0.0,,59e7232f24d7bf00012f112e,13:38:24,06/03/2024
,"<p style=""font-size:75px;"">...</p>",,ospan,iti,bKGy8ASGPwey1GjGJX9DZ63Zcdy2,html-keyboard-response,140,531422,0.0-43.0-5.0-0.0-0.0,,,,,,,,,,,,,,,59e7232f24d7bf00012f112e,13:38:24,06/03/2024
978.0,,,ospan,symmetry,bKGy8ASGPwey1GjGJX9DZ63Zcdy2,symmetry-judgement-task,141,533485,0.0-43.0-5.0-0.0-1.0-0.0,,,,,,,,,,1.0,1.0,,,,59e7232f24d7bf00012f112e,13:38:24,06/03/2024
,"<div style=""font-size: 10rem; color: #0000FF"">N</div>",,ospan,letter,bKGy8ASGPwey1GjGJX9DZ63Zcdy2,html-keyboard-response,142,534493,0.0-43.0-5.0-0.0-1.0-1.0,,,,,,,,,,,,,,,59e7232f24d7bf00012f112e,13:38:24,06/03/2024
1071.0,,,ospan,symmetry,bKGy8ASGPwey1GjGJX9DZ63Zcdy2,symmetry-judgement-task,143,537405,0.0-43.0-5.0-0.0-1.0-2.0,,,,,,,,,,1.0,1.0,,,,59e7232f24d7bf00012f112e,13:38:24,06/03/2024
,"<div style=""font-size: 10rem; color: #0000FF"">Q</div>",,ospan,letter,bKGy8ASGPwey1GjGJX9DZ63Zcdy2,html-keyboard-response,144,538418,0.0-43.0-5.0-0.0-1.0-3.0,,,,,,,,,,,,,,,59e7232f24d7bf00012f112e,13:38:24,06/03/2024
1535.0,,,ospan,symmetry,bKGy8ASGPwey1GjGJX9DZ63Zcdy2,symmetry-judgement-task,145,541811,0.0-43.0-5.0-0.0-1.0-4.0,,,,,,,,,,1.0,1.0,,,,59e7232f24d7bf00012f112e,13:38:24,06/03/2024
,"<div style=""font-size: 10rem; color: #0000FF"">K</div>",,ospan,letter,bKGy8ASGPwey1GjGJX9DZ63Zcdy2,html-keyboard-response,146,542815,0.0-43.0-5.0-0.0-1.0-5.0,,,,,,,,,,,,,,,59e7232f24d7bf00012f112e,13:38:24,06/03/2024
894.0,,,ospan,symmetry,bKGy8ASGPwey1GjGJX9DZ63Zcdy2,symmetry-judgement-task,147,545560,0.0-43.0-5.0-0.0-1.0-6.0,,,,,,,,,,1.0,1.0,,,,59e7232f24d7bf00012f112e,13:38:24,06/03/2024
,"<div style=""font-size: 10rem; color: #0000FF"">Y</div>",,ospan,letter,bKGy8ASGPwey1GjGJX9DZ63Zcdy2,html-keyboard-response,148,546564,0.0-43.0-5.0-0.0-1.0-7.0,,,,,,,,,,,,,,,59e7232f24d7bf00012f112e,13:38:24,06/03/2024
904.0,,,ospan,symmetry,bKGy8ASGPwey1GjGJX9DZ63Zcdy2,symmetry-judgement-task,149,549325,0.0-43.0-5.0-0.0-1.0-8.0,,,,,,,,,,1.0,1.0,,,,59e7232f24d7bf00012f112e,13:38:24,06/03/2024
,"<div style=""font-size: 10rem; color: #0000FF"">J</div>",,ospan,letter,bKGy8ASGPwey1GjGJX9DZ63Zcdy2,html-keyboard-response,150,550341,0.0-43.0-5.0-0.0-1.0-9.0,,,,,,,,,,,,,,,59e7232f24d7bf00012f112e,13:38:24,06/03/2024
805.0,,,ospan,symmetry,bKGy8ASGPwey1GjGJX9DZ63Zcdy2,symmetry-judgement-task,151,553003,0.0-43.0-5.0-0.0-1.0-10.0,,,,,,,,,,1.0,1.0,,,,59e7232f24d7bf00012f112e,13:38:24,06/03/2024
,"<div style=""font-size: 10rem; color: #0000FF"">P</div>",,ospan,letter,bKGy8ASGPwey1GjGJX9DZ63Zcdy2,html-keyboard-response,152,554006,0.0-43.0-5.0-0.0-1.0-11.0,,,,,,,,,,,,,,,59e7232f24d7bf00012f112e,13:38:24,06/03/2024
9240.300000000745,"<div class = numbox><p style=""font-size: 2.4rem"">Please recall the letters you saw to the best of your ability. If you do not remember a particular letter, use the SKIP button.<br><b>(When you are ready to lock in your answer, press ENTER)</b></p><button id = button_1 class = ""square num-button"" onclick = ""recordClick(this)""><div class = content><div class = numbers>C</div></div></button><button id = button_2 class = ""square num-button"" onclick = ""recordClick(this)""><div class = content><div class = numbers>G</div></div></button><button id = button_3 class = ""square num-button"" onclick = ""recordClick(this)""><div class = content><div class = numbers>H</div></div></button><button id = button_4 class = ""square num-button"" onclick = ""recordClick(this)""><div class = content><div class = numbers>J</div></div></button><button id = button_5 class = ""square num-button"" onclick = ""recordClick(this)""><div class = content><div class = numbers>K</div></div></button><button id = button_6 class = ""square num-button"" onclick = ""recordClick(this)""><div class = content><div class = numbers>L</div></div></button><button id = button_7 class = ""square num-button"" onclick = ""recordClick(this)""><div class = content><div class = numbers>N</div></div></button><button id = button_8 class = ""square num-button"" onclick = ""recordClick(this)""><div class = content><div class = numbers>P</div></div></button><button id = button_9 class = ""square num-button"" onclick = ""recordClick(this)""><div class = content><div class = numbers>Q</div></div></button><button id = button_10 class = ""square num-button"" onclick = ""recordClick(this)""><div class = content><div class = numbers>R</div></div></button><button id = button_11 class = ""square num-button"" onclick = ""recordClick(this)""><div class = content><div class = numbers>S</div></div></button><button id = button_12 class = ""square num-button"" onclick = ""recordClick(this)""><div class = content><div class = numbers>Y</div></div></button><button class = clear_button id = ""ClearButton"" onclick = ""clearResponse()"">BACKSPACE</button><button class = blank_button id = ""BlankButton"" onclick = ""blankResponse()"">SKIP</button><p style=""font-size: 2.4rem""><u><b>Current Answer:</b></u></p><br><br><div id=echoed_txt style=""font-size: 5rem; color:blue;""><b></b></div></div>",enter,ospan,retrieval,bKGy8ASGPwey1GjGJX9DZ63Zcdy2,html-keyboard-response,153,564002,0.0-43.0-5.0-0.0-2.0,21,18,15,6.0,"[""N"",""Y"",""K"",""Q"",""J"",""G""]","[""N"",""Q"",""K"",""Y"",""J"",""P""]",0.0,3.0,,,,,,,59e7232f24d7bf00012f112e,13:38:24,06/03/2024
736.1000000014901,[''],0,ospan,feedback,bKGy8ASGPwey1GjGJX9DZ63Zcdy2,html-button-response,154,565254,0.0-43.0-5.0-0.0-3.0,,,,,,,,,,,,100.0,0.0,,59e7232f24d7bf00012f112e,13:38:24,06/03/2024
,"<p style=""font-size:75px;"">...</p>",,ospan,iti,bKGy8ASGPwey1GjGJX9DZ63Zcdy2,html-keyboard-response,155,566260,0.0-43.0-5.0-1.0-0.0,,,,,,,,,,,,,,,59e7232f24d7bf00012f112e,13:38:24,06/03/2024
1934.0,,,ospan,symmetry,bKGy8ASGPwey1GjGJX9DZ63Zcdy2,symmetry-judgement-task,156,569241,0.0-43.0-5.0-1.0-1.0-0.0,,,,,,,,,,1.0,1.0,,,,59e7232f24d7bf00012f112e,13:38:24,06/03/2024
,"<div style=""font-size: 10rem; color: #0000FF"">S</div>",,ospan,letter,bKGy8ASGPwey1GjGJX9DZ63Zcdy2,html-keyboard-response,157,570256,0.0-43.0-5.0-1.0-1.0-1.0,,,,,,,,,,,,,,,59e7232f24d7bf00012f112e,13:38:24,06/03/2024
2876.0,,,ospan,symmetry,bKGy8ASGPwey1GjGJX9DZ63Zcdy2,symmetry-judgement-task,158,575001,0.0-43.0-5.0-1.0-1.0-2.0,,,,,,,,,,1.0,1.0,,,,59e7232f24d7bf00012f112e,13:38:24,06/03/2024
,"<div style=""font-size: 10rem; color: #0000FF"">P</div>",,ospan,letter,bKGy8ASGPwey1GjGJX9DZ63Zcdy2,html-keyboard-response,159,576009,0.0-43.0-5.0-1.0-1.0-3.0,,,,,,,,,,,,,,,59e7232f24d7bf00012f112e,13:38:24,06/03/2024
1640.0,,,ospan,symmetry,bKGy8ASGPwey1GjGJX9DZ63Zcdy2,symmetry-judgement-task,160,579497,0.0-43.0-5.0-1.0-1.0-4.0,,,,,,,,,,1.0,1.0,,,,59e7232f24d7bf00012f112e,13:38:24,06/03/2024
,"<div style=""font-size: 10rem; color: #0000FF"">J</div>",,ospan,letter,bKGy8ASGPwey1GjGJX9DZ63Zcdy2,html-keyboard-response,161,580501,0.0-43.0-5.0-1.0-1.0-5.0,,,,,,,,,,,,,,,59e7232f24d7bf00012f112e,13:38:24,06/03/2024
1020.0,,,ospan,symmetry,bKGy8ASGPwey1GjGJX9DZ63Zcdy2,symmetry-judgement-task,162,583338,0.0-43.0-5.0-1.0-1.0-6.0,,,,,,,,,,1.0,1.0,,,,59e7232f24d7bf00012f112e,13:38:24,06/03/2024
,"<div style=""font-size: 10rem; color: #0000FF"">L</div>",,ospan,letter,bKGy8ASGPwey1GjGJX9DZ63Zcdy2,html-keyboard-response,163,584352,0.0-43.0-5.0-1.0-1.0-7.0,,,,,,,,,,,,,,,59e7232f24d7bf00012f112e,13:38:24,06/03/2024
1252.0,,,ospan,symmetry,bKGy8ASGPwey1GjGJX9DZ63Zcdy2,symmetry-judgement-task,164,587468,0.0-43.0-5.0-1.0-1.0-8.0,,,,,,,,,,1.0,1.0,,,,59e7232f24d7bf00012f112e,13:38:24,06/03/2024
,"<div style=""font-size: 10rem; color: #0000FF"">Q</div>",,ospan,letter,bKGy8ASGPwey1GjGJX9DZ63Zcdy2,html-keyboard-response,165,588472,0.0-43.0-5.0-1.0-1.0-9.0,,,,,,,,,,,,,,,59e7232f24d7bf00012f112e,13:38:24,06/03/2024
1365.0,,,ospan,symmetry,bKGy8ASGPwey1GjGJX9DZ63Zcdy2,symmetry-judgement-task,166,591699,0.0-43.0-5.0-1.0-1.0-10.0,,,,,,,,,,1.0,1.0,,,,59e7232f24d7bf00012f112e,13:38:24,06/03/2024
,"<div style=""font-size: 10rem; color: #0000FF"">H</div>",,ospan,letter,bKGy8ASGPwey1GjGJX9DZ63Zcdy2,html-keyboard-response,167,592703,0.0-43.0-5.0-1.0-1.0-11.0,,,,,,,,,,,,,,,59e7232f24d7bf00012f112e,13:38:24,06/03/2024
1305.0,,,ospan,symmetry,bKGy8ASGPwey1GjGJX9DZ63Zcdy2,symmetry-judgement-task,168,595866,0.0-43.0-5.0-1.0-1.0-12.0,,,,,,,,,,1.0,1.0,,,,59e7232f24d7bf00012f112e,13:38:24,06/03/2024
,"<div style=""font-size: 10rem; color: #0000FF"">C</div>",,ospan,letter,bKGy8ASGPwey1GjGJX9DZ63Zcdy2,html-keyboard-response,169,596869,0.0-43.0-5.0-1.0-1.0-13.0,,,,,,,,,,,,,,,59e7232f24d7bf00012f112e,13:38:24,06/03/2024
6651.300000000745,"<div class = numbox><p style=""font-size: 2.4rem"">Please recall the letters you saw to the best of your ability. If you do not remember a particular letter, use the SKIP button.<br><b>(When you are ready to lock in your answer, press ENTER)</b></p><button id = button_1 class = ""square num-button"" onclick = ""recordClick(this)""><div class = content><div class = numbers>C</div></div></button><button id = button_2 class = ""square num-button"" onclick = ""recordClick(this)""><div class = content><div class = numbers>G</div></div></button><button id = button_3 class = ""square num-button"" onclick = ""recordClick(this)""><div class = content><div class = numbers>H</div></div></button><button id = button_4 class = ""square num-button"" onclick = ""recordClick(this)""><div class = content><div class = numbers>J</div></div></button><button id = button_5 class = ""square num-button"" onclick = ""recordClick(this)""><div class = content><div class = numbers>K</div></div></button><button id = button_6 class = ""square num-button"" onclick = ""recordClick(this)""><div class = content><div class = numbers>L</div></div></button><button id = button_7 class = ""square num-button"" onclick = ""recordClick(this)""><div class = content><div class = numbers>N</div></div></button><button id = button_8 class = ""square num-button"" onclick = ""recordClick(this)""><div class = content><div class = numbers>P</div></div></button><button id = button_9 class = ""square num-button"" onclick = ""recordClick(this)""><div class = content><div class = numbers>Q</div></div></button><button id = button_10 class = ""square num-button"" onclick = ""recordClick(this)""><div class = content><div class = numbers>R</div></div></button><button id = button_11 class = ""square num-button"" onclick = ""recordClick(this)""><div class = content><div class = numbers>S</div></div></button><button id = button_12 class = ""square num-button"" onclick = ""recordClick(this)""><div class = content><div class = numbers>Y</div></div></button><button class = clear_button id = ""ClearButton"" onclick = ""clearResponse()"">BACKSPACE</button><button class = blank_button id = ""BlankButton"" onclick = ""blankResponse()"">SKIP</button><p style=""font-size: 2.4rem""><u><b>Current Answer:</b></u></p><br><br><div id=echoed_txt style=""font-size: 5rem; color:blue;""><b></b></div></div>",enter,ospan,retrieval,bKGy8ASGPwey1GjGJX9DZ63Zcdy2,html-keyboard-response,170,604281,0.0-43.0-5.0-1.0-2.0,28,25,22,7.0,"[""S"",""P"",""J"",""L"",""Q"",""H"",""C""]","[""S"",""P"",""J"",""L"",""Q"",""H"",""C""]",1.0,7.0,,,,,,,59e7232f24d7bf00012f112e,13:38:24,06/03/2024
716.8999999985099,[''],0,ospan,feedback,bKGy8ASGPwey1GjGJX9DZ63Zcdy2,html-button-response,171,605510,0.0-43.0-5.0-1.0-3.0,,,,,,,,,,,,100.0,0.0,,59e7232f24d7bf00012f112e,13:38:24,06/03/2024
,"<p style=""font-size:75px;"">...</p>",,ospan,iti,bKGy8ASGPwey1GjGJX9DZ63Zcdy2,html-keyboard-response,172,606527,0.0-43.0-6.0-0.0-0.0,,,,,,,,,,,,,,,59e7232f24d7bf00012f112e,13:38:24,06/03/2024
1127.0,,,ospan,symmetry,bKGy8ASGPwey1GjGJX9DZ63Zcdy2,symmetry-judgement-task,173,608702,0.0-43.0-6.0-0.0-1.0-0.0,,,,,,,,,,1.0,1.0,,,,59e7232f24d7bf00012f112e,13:38:24,06/03/2024
,"<div style=""font-size: 10rem; color: #0000FF"">L</div>",,ospan,letter,bKGy8ASGPwey1GjGJX9DZ63Zcdy2,html-keyboard-response,174,609720,0.0-43.0-6.0-0.0-1.0-1.0,,,,,,,,,,,,,,,59e7232f24d7bf00012f112e,13:38:24,06/03/2024
1614.0,,,ospan,symmetry,bKGy8ASGPwey1GjGJX9DZ63Zcdy2,symmetry-judgement-task,175,613210,0.0-43.0-6.0-0.0-1.0-2.0,,,,,,,,,,1.0,1.0,,,,59e7232f24d7bf00012f112e,13:38:24,06/03/2024
,"<div style=""font-size: 10rem; color: #0000FF"">C</div>",,ospan,letter,bKGy8ASGPwey1GjGJX9DZ63Zcdy2,html-keyboard-response,176,614214,0.0-43.0-6.0-0.0-1.0-3.0,,,,,,,,,,,,,,,59e7232f24d7bf00012f112e,13:38:24,06/03/2024
1663.0,,,ospan,symmetry,bKGy8ASGPwey1GjGJX9DZ63Zcdy2,symmetry-judgement-task,177,617724,0.0-43.0-6.0-0.0-1.0-4.0,,,,,,,,,,1.0,1.0,,,,59e7232f24d7bf00012f112e,13:38:24,06/03/2024
,"<div style=""font-size: 10rem; color: #0000FF"">P</div>",,ospan,letter,bKGy8ASGPwey1GjGJX9DZ63Zcdy2,html-keyboard-response,178,618747,0.0-43.0-6.0-0.0-1.0-5.0,,,,,,,,,,,,,,,59e7232f24d7bf00012f112e,13:38:24,06/03/2024
1259.0,,,ospan,symmetry,bKGy8ASGPwey1GjGJX9DZ63Zcdy2,symmetry-judgement-task,179,621855,0.0-43.0-6.0-0.0-1.0-6.0,,,,,,,,,,1.0,1.0,,,,59e7232f24d7bf00012f112e,13:38:24,06/03/2024
,"<div style=""font-size: 10rem; color: #0000FF"">K</div>",,ospan,letter,bKGy8ASGPwey1GjGJX9DZ63Zcdy2,html-keyboard-response,180,622869,0.0-43.0-6.0-0.0-1.0-7.0,,,,,,,,,,,,,,,59e7232f24d7bf00012f112e,13:38:24,06/03/2024
802.0,,,ospan,symmetry,bKGy8ASGPwey1GjGJX9DZ63Zcdy2,symmetry-judgement-task,181,625537,0.0-43.0-6.0-0.0-1.0-8.0,,,,,,,,,,1.0,1.0,,,,59e7232f24d7bf00012f112e,13:38:24,06/03/2024
,"<div style=""font-size: 10rem; color: #0000FF"">Q</div>",,ospan,letter,bKGy8ASGPwey1GjGJX9DZ63Zcdy2,html-keyboard-response,182,626539,0.0-43.0-6.0-0.0-1.0-9.0,,,,,,,,,,,,,,,59e7232f24d7bf00012f112e,13:38:24,06/03/2024
5401.900000002235,"<div class = numbox><p style=""font-size: 2.4rem"">Please recall the letters you saw to the best of your ability. If you do not remember a particular letter, use the SKIP button.<br><b>(When you are ready to lock in your answer, press ENTER)</b></p><button id = button_1 class = ""square num-button"" onclick = ""recordClick(this)""><div class = content><div class = numbers>C</div></div></button><button id = button_2 class = ""square num-button"" onclick = ""recordClick(this)""><div class = content><div class = numbers>G</div></div></button><button id = button_3 class = ""square num-button"" onclick = ""recordClick(this)""><div class = content><div class = numbers>H</div></div></button><button id = button_4 class = ""square num-button"" onclick = ""recordClick(this)""><div class = content><div class = numbers>J</div></div></button><button id = button_5 class = ""square num-button"" onclick = ""recordClick(this)""><div class = content><div class = numbers>K</div></div></button><button id = button_6 class = ""square num-button"" onclick = ""recordClick(this)""><div class = content><div class = numbers>L</div></div></button><button id = button_7 class = ""square num-button"" onclick = ""recordClick(this)""><div class = content><div class = numbers>N</div></div></button><button id = button_8 class = ""square num-button"" onclick = ""recordClick(this)""><div class = content><div class = numbers>P</div></div></button><button id = button_9 class = ""square num-button"" onclick = ""recordClick(this)""><div class = content><div class = numbers>Q</div></div></button><button id = button_10 class = ""square num-button"" onclick = ""recordClick(this)""><div class = content><div class = numbers>R</div></div></button><button id = button_11 class = ""square num-button"" onclick = ""recordClick(this)""><div class = content><div class = numbers>S</div></div></button><button id = button_12 class = ""square num-button"" onclick = ""recordClick(this)""><div class = content><div class = numbers>Y</div></div></button><button class = clear_button id = ""ClearButton"" onclick = ""clearResponse()"">BACKSPACE</button><button class = blank_button id = ""BlankButton"" onclick = ""blankResponse()"">SKIP</button><p style=""font-size: 2.4rem""><u><b>Current Answer:</b></u></p><br><br><div id=echoed_txt style=""font-size: 5rem; color:blue;""><b></b></div></div>",enter,ospan,retrieval,bKGy8ASGPwey1GjGJX9DZ63Zcdy2,html-keyboard-response,183,632709,0.0-43.0-6.0-0.0-2.0,33,30,27,5.0,"[""L"",""C"",""P"",""K"",""Q""]","[""L"",""C"",""P"",""K"",""Q""]",1.0,5.0,,,,,,,59e7232f24d7bf00012f112e,13:38:24,06/03/2024
512.0,[''],0,ospan,feedback,bKGy8ASGPwey1GjGJX9DZ63Zcdy2,html-button-response,184,633731,0.0-43.0-6.0-0.0-3.0,,,,,,,,,,,,100.0,0.0,,59e7232f24d7bf00012f112e,13:38:24,06/03/2024
,"<p style=""font-size:75px;"">...</p>",,ospan,iti,bKGy8ASGPwey1GjGJX9DZ63Zcdy2,html-keyboard-response,185,634739,0.0-43.0-6.0-1.0-0.0,,,,,,,,,,,,,,,59e7232f24d7bf00012f112e,13:38:24,06/03/2024
923.0,,,ospan,symmetry,bKGy8ASGPwey1GjGJX9DZ63Zcdy2,symmetry-judgement-task,186,636771,0.0-43.0-6.0-1.0-1.0-0.0,,,,,,,,,,1.0,1.0,,,,59e7232f24d7bf00012f112e,13:38:24,06/03/2024
,"<div style=""font-size: 10rem; color: #0000FF"">G</div>",,ospan,letter,bKGy8ASGPwey1GjGJX9DZ63Zcdy2,html-keyboard-response,187,637775,0.0-43.0-6.0-1.0-1.0-1.0,,,,,,,,,,,,,,,59e7232f24d7bf00012f112e,13:38:24,06/03/2024
999.0,,,ospan,symmetry,bKGy8ASGPwey1GjGJX9DZ63Zcdy2,symmetry-judgement-task,188,640622,0.0-43.0-6.0-1.0-1.0-2.0,,,,,,,,,,1.0,1.0,,,,59e7232f24d7bf00012f112e,13:38:24,06/03/2024
,"<div style=""font-size: 10rem; color: #0000FF"">J</div>",,ospan,letter,bKGy8ASGPwey1GjGJX9DZ63Zcdy2,html-keyboard-response,189,641625,0.0-43.0-6.0-1.0-1.0-3.0,,,,,,,,,,,,,,,59e7232f24d7bf00012f112e,13:38:24,06/03/2024
1666.0,,,ospan,symmetry,bKGy8ASGPwey1GjGJX9DZ63Zcdy2,symmetry-judgement-task,190,645150,0.0-43.0-6.0-1.0-1.0-4.0,,,,,,,,,,1.0,1.0,,,,59e7232f24d7bf00012f112e,13:38:24,06/03/2024
,"<div style=""font-size: 10rem; color: #0000FF"">R</div>",,ospan,letter,bKGy8ASGPwey1GjGJX9DZ63Zcdy2,html-keyboard-response,191,646155,0.0-43.0-6.0-1.0-1.0-5.0,,,,,,,,,,,,,,,59e7232f24d7bf00012f112e,13:38:24,06/03/2024
1414.0,,,ospan,symmetry,bKGy8ASGPwey1GjGJX9DZ63Zcdy2,symmetry-judgement-task,192,649426,0.0-43.0-6.0-1.0-1.0-6.0,,,,,,,,,,1.0,1.0,,,,59e7232f24d7bf00012f112e,13:38:24,06/03/2024
,"<div style=""font-size: 10rem; color: #0000FF"">K</div>",,ospan,letter,bKGy8ASGPwey1GjGJX9DZ63Zcdy2,html-keyboard-response,193,650430,0.0-43.0-6.0-1.0-1.0-7.0,,,,,,,,,,,,,,,59e7232f24d7bf00012f112e,13:38:24,06/03/2024
893.0,,,ospan,symmetry,bKGy8ASGPwey1GjGJX9DZ63Zcdy2,symmetry-judgement-task,194,653189,0.0-43.0-6.0-1.0-1.0-8.0,,,,,,,,,,1.0,1.0,,,,59e7232f24d7bf00012f112e,13:38:24,06/03/2024
,"<div style=""font-size: 10rem; color: #0000FF"">C</div>",,ospan,letter,bKGy8ASGPwey1GjGJX9DZ63Zcdy2,html-keyboard-response,195,654191,0.0-43.0-6.0-1.0-1.0-9.0,,,,,,,,,,,,,,,59e7232f24d7bf00012f112e,13:38:24,06/03/2024
1016.0,,,ospan,symmetry,bKGy8ASGPwey1GjGJX9DZ63Zcdy2,symmetry-judgement-task,196,657053,0.0-43.0-6.0-1.0-1.0-10.0,,,,,,,,,,1.0,1.0,,,,59e7232f24d7bf00012f112e,13:38:24,06/03/2024
,"<div style=""font-size: 10rem; color: #0000FF"">S</div>",,ospan,letter,bKGy8ASGPwey1GjGJX9DZ63Zcdy2,html-keyboard-response,197,658057,0.0-43.0-6.0-1.0-1.0-11.0,,,,,,,,,,,,,,,59e7232f24d7bf00012f112e,13:38:24,06/03/2024
1121.0,,,ospan,symmetry,bKGy8ASGPwey1GjGJX9DZ63Zcdy2,symmetry-judgement-task,198,661042,0.0-43.0-6.0-1.0-1.0-12.0,,,,,,,,,,1.0,1.0,,,,59e7232f24d7bf00012f112e,13:38:24,06/03/2024
,"<div style=""font-size: 10rem; color: #0000FF"">N</div>",,ospan,letter,bKGy8ASGPwey1GjGJX9DZ63Zcdy2,html-keyboard-response,199,662045,0.0-43.0-6.0-1.0-1.0-13.0,,,,,,,,,,,,,,,59e7232f24d7bf00012f112e,13:38:24,06/03/2024
1181.0,,,ospan,symmetry,bKGy8ASGPwey1GjGJX9DZ63Zcdy2,symmetry-judgement-task,200,665066,0.0-43.0-6.0-1.0-1.0-14.0,,,,,,,,,,1.0,1.0,,,,59e7232f24d7bf00012f112e,13:38:24,06/03/2024
,"<div style=""font-size: 10rem; color: #0000FF"">L</div>",,ospan,letter,bKGy8ASGPwey1GjGJX9DZ63Zcdy2,html-keyboard-response,201,666068,0.0-43.0-6.0-1.0-1.0-15.0,,,,,,,,,,,,,,,59e7232f24d7bf00012f112e,13:38:24,06/03/2024
9963.10000000149,"<div class = numbox><p style=""font-size: 2.4rem"">Please recall the letters you saw to the best of your ability. If you do not remember a particular letter, use the SKIP button.<br><b>(When you are ready to lock in your answer, press ENTER)</b></p><button id = button_1 class = ""square num-button"" onclick = ""recordClick(this)""><div class = content><div class = numbers>C</div></div></button><button id = button_2 class = ""square num-button"" onclick = ""recordClick(this)""><div class = content><div class = numbers>G</div></div></button><button id = button_3 class = ""square num-button"" onclick = ""recordClick(this)""><div class = content><div class = numbers>H</div></div></button><button id = button_4 class = ""square num-button"" onclick = ""recordClick(this)""><div class = content><div class = numbers>J</div></div></button><button id = button_5 class = ""square num-button"" onclick = ""recordClick(this)""><div class = content><div class = numbers>K</div></div></button><button id = button_6 class = ""square num-button"" onclick = ""recordClick(this)""><div class = content><div class = numbers>L</div></div></button><button id = button_7 class = ""square num-button"" onclick = ""recordClick(this)""><div class = content><div class = numbers>N</div></div></button><button id = button_8 class = ""square num-button"" onclick = ""recordClick(this)""><div class = content><div class = numbers>P</div></div></button><button id = button_9 class = ""square num-button"" onclick = ""recordClick(this)""><div class = content><div class = numbers>Q</div></div></button><button id = button_10 class = ""square num-button"" onclick = ""recordClick(this)""><div class = content><div class = numbers>R</div></div></button><button id = button_11 class = ""square num-button"" onclick = ""recordClick(this)""><div class = content><div class = numbers>S</div></div></button><button id = button_12 class = ""square num-button"" onclick = ""recordClick(this)""><div class = content><div class = numbers>Y</div></div></button><button class = clear_button id = ""ClearButton"" onclick = ""clearResponse()"">BACKSPACE</button><button class = blank_button id = ""BlankButton"" onclick = ""blankResponse()"">SKIP</button><p style=""font-size: 2.4rem""><u><b>Current Answer:</b></u></p><br><br><div id=echoed_txt style=""font-size: 5rem; color:blue;""><b></b></div></div>",enter,ospan,retrieval,bKGy8ASGPwey1GjGJX9DZ63Zcdy2,html-keyboard-response,202,676790,0.0-43.0-6.0-1.0-2.0,41,31,27,8.0,"[""G"",""Q"",""C"",""R"",""S"",""N"",""H""]","[""G"",""J"",""R"",""K"",""C"",""S"",""N"",""L""]",0.0,1.0,,,,,,,59e7232f24d7bf00012f112e,13:38:24,06/03/2024
530.4000000022352,[''],0,ospan,feedback,bKGy8ASGPwey1GjGJX9DZ63Zcdy2,html-button-response,203,677828,0.0-43.0-6.0-1.0-3.0,,,,,,,,,,,,100.0,0.0,,59e7232f24d7bf00012f112e,13:38:24,06/03/2024
6693.20000000298,,{'Q0': 'Found it fun!'},ospan,survey_ospan,bKGy8ASGPwey1GjGJX9DZ63Zcdy2,lmdlab-survey-text,204,685277,0.0-43.0-7.0,,,,,,,,,,,,,,bKGy8ASGPwey1GjGJX9DZ63Zcdy2,59e7232f24d7bf00012f112e,13:38:24,06/03/2024
819.0999999977648,<p><p style='font-size: 3rem'>Great work!<br><br>This completes the symmetry and memory task.</p><br><br><br>,0,ospan,finish,bKGy8ASGPwey1GjGJX9DZ63Zcdy2,html-button-response,205,686101,0.0-43.0-8.0,41,31,27,,,,,,,,,100.0,,,59e7232f24d7bf00012f112e,13:38:24,06/03/2024
