rt,stimulus,response,exp_name,exp_stage,subjectID,trial_type,trial_index,time_elapsed,internal_node_id,ospan_shown,ospan_total,ospan_abs,length,resp_actual,resp_correct,full_correct,num_correct,feedback,accuracy,correct,math_acc,math_warning,databaseID,prolificID,start_time,date
2143.800000011921,<div class = 'left_align' style='font-size: 3.25rem; line-height: 1.3;'><p class = 'center_align'><b>Welcome to the Symmetry and Memory Task</b><br><br><br><br></p>Press 'continue' to show the instructions.<br><br><br><br></div>,0,ospan,instruct,nG2BbkvULnPjhDtk6cUtDJFaT8d2,html-button-response,51,586709,0.0-43.0-0.0-0.0-0.0,,,,,,,,,,,,,,,5aeabf2c15a9c300011acbc3,14:40:23,06/03/2024
12864.0,"<div class = 'left_align' style='font-size: 3.25rem; line-height: 1.3;'><p class = 'center_align'><b>Symmetry and Memory Task</b><br><br></p>In this task, you will try to memorize letters you see on the screen<br>while you also view black and white grid pictures.<br><br>In the next few minutes, you will have some practice to get you familiar<br>with how the task works.<br><br>It may be difficult sometimes, but please do not worry about making mistakes!<br><br>We will begin by practicing the letter part of the task.<br><br><br><br></div>",0,ospan,instruct,nG2BbkvULnPjhDtk6cUtDJFaT8d2,html-button-response,52,599830,0.0-43.0-0.0-0.0-1.0,,,,,,,,,,,,,,,5aeabf2c15a9c300011acbc3,14:40:23,06/03/2024
9636.5,"<div class = 'left_align' style='font-size: 3.25rem; line-height: 1.3;'>For this practice part, letters will appear on the screen one at a time.<br><br>Try to remember each letter in the order presented.<br><br>After some letters have been shown, you will see a response screen. Your<br>goal is to report the letters you saw <b>in order</b>. If you do not remember<br>a particular letter, you will have the option to leave it blank.<br><br><br><br></div>",0,ospan,instruct,nG2BbkvULnPjhDtk6cUtDJFaT8d2,html-button-response,53,609723,0.0-43.0-0.0-0.0-2.0,,,,,,,,,,,,,,,5aeabf2c15a9c300011acbc3,14:40:23,06/03/2024
3039.600000023842,"<div class = 'left_align' style='font-size: 3.25rem; line-height: 1.3;'>Remember, it is very important to get the letters in the same<br>order as you see them.<br><br>When you are ready, you may begin the letter practice.</div><br><br><br><br>",0,ospan,instruct,nG2BbkvULnPjhDtk6cUtDJFaT8d2,html-button-response,54,613025,0.0-43.0-0.0-0.0-3.0,,,,,,,,,,,,,,,5aeabf2c15a9c300011acbc3,14:40:23,06/03/2024
,"<p style=""font-size:75px;"">...</p>",,ospan,iti,nG2BbkvULnPjhDtk6cUtDJFaT8d2,html-keyboard-response,55,614286,0.0-43.0-0.0-1.0-0.0,,,,,,,,,,,,,,,5aeabf2c15a9c300011acbc3,14:40:23,06/03/2024
,"<div style=""font-size: 10rem; color: #0000FF"">G</div>",,ospan,letter,nG2BbkvULnPjhDtk6cUtDJFaT8d2,html-keyboard-response,56,615303,0.0-43.0-0.0-1.0-1.0,,,,,,,,,,,,,,,5aeabf2c15a9c300011acbc3,14:40:23,06/03/2024
,"<div style=""font-size: 10rem; color: #0000FF"">N</div>",,ospan,letter,nG2BbkvULnPjhDtk6cUtDJFaT8d2,html-keyboard-response,57,617076,0.0-43.0-0.0-1.0-2.0,,,,,,,,,,,,,,,5aeabf2c15a9c300011acbc3,14:40:23,06/03/2024
8237.200000047684,"<div class = numbox><p style=""font-size: 2.4rem"">Please recall the letters you saw to the best of your ability. If you do not remember a particular letter, use the SKIP button.<br><b>(When you are ready to lock in your answer, press ENTER)</b></p><button id = button_1 class = ""square num-button"" onclick = ""recordClick(this)""><div class = content><div class = numbers>C</div></div></button><button id = button_2 class = ""square num-button"" onclick = ""recordClick(this)""><div class = content><div class = numbers>G</div></div></button><button id = button_3 class = ""square num-button"" onclick = ""recordClick(this)""><div class = content><div class = numbers>H</div></div></button><button id = button_4 class = ""square num-button"" onclick = ""recordClick(this)""><div class = content><div class = numbers>J</div></div></button><button id = button_5 class = ""square num-button"" onclick = ""recordClick(this)""><div class = content><div class = numbers>K</div></div></button><button id = button_6 class = ""square num-button"" onclick = ""recordClick(this)""><div class = content><div class = numbers>L</div></div></button><button id = button_7 class = ""square num-button"" onclick = ""recordClick(this)""><div class = content><div class = numbers>N</div></div></button><button id = button_8 class = ""square num-button"" onclick = ""recordClick(this)""><div class = content><div class = numbers>P</div></div></button><button id = button_9 class = ""square num-button"" onclick = ""recordClick(this)""><div class = content><div class = numbers>Q</div></div></button><button id = button_10 class = ""square num-button"" onclick = ""recordClick(this)""><div class = content><div class = numbers>R</div></div></button><button id = button_11 class = ""square num-button"" onclick = ""recordClick(this)""><div class = content><div class = numbers>S</div></div></button><button id = button_12 class = ""square num-button"" onclick = ""recordClick(this)""><div class = content><div class = numbers>Y</div></div></button><button class = clear_button id = ""ClearButton"" onclick = ""clearResponse()"">BACKSPACE</button><button class = blank_button id = ""BlankButton"" onclick = ""blankResponse()"">SKIP</button><p style=""font-size: 2.4rem""><u><b>Current Answer:</b></u></p><br><br><div id=echoed_txt style=""font-size: 5rem; color:blue;""><b></b></div></div>",enter,ospan,retrieval,nG2BbkvULnPjhDtk6cUtDJFaT8d2,html-keyboard-response,58,626071,0.0-43.0-0.0-1.0-3.0,NA,NA,NA,2.0,"[""G"",""N""]","[""G"",""N""]",1.0,2.0,"['<font color=""green"">G</font>', '<font color=""green"">N</font>']",,,,,,5aeabf2c15a9c300011acbc3,14:40:23,06/03/2024
1619.300000011921,"['<p style=""font-size:44px"">Letters:<br><br><br><font color=""green"">G</font> <font color=""green"">N</font></p><br><br>']",0,ospan,practice_feedback,nG2BbkvULnPjhDtk6cUtDJFaT8d2,html-button-response,59,628202,0.0-43.0-0.0-1.0-4.0,,,,,,,,,,,,,,,5aeabf2c15a9c300011acbc3,14:40:23,06/03/2024
,"<p style=""font-size:75px;"">...</p>",,ospan,iti,nG2BbkvULnPjhDtk6cUtDJFaT8d2,html-keyboard-response,60,629218,0.0-43.0-0.0-2.0-0.0,,,,,,,,,,,,,,,5aeabf2c15a9c300011acbc3,14:40:23,06/03/2024
,"<div style=""font-size: 10rem; color: #0000FF"">H</div>",,ospan,letter,nG2BbkvULnPjhDtk6cUtDJFaT8d2,html-keyboard-response,61,630232,0.0-43.0-0.0-2.0-1.0,,,,,,,,,,,,,,,5aeabf2c15a9c300011acbc3,14:40:23,06/03/2024
,"<div style=""font-size: 10rem; color: #0000FF"">L</div>",,ospan,letter,nG2BbkvULnPjhDtk6cUtDJFaT8d2,html-keyboard-response,62,632003,0.0-43.0-0.0-2.0-2.0,,,,,,,,,,,,,,,5aeabf2c15a9c300011acbc3,14:40:23,06/03/2024
,"<div style=""font-size: 10rem; color: #0000FF"">N</div>",,ospan,letter,nG2BbkvULnPjhDtk6cUtDJFaT8d2,html-keyboard-response,63,633781,0.0-43.0-0.0-2.0-3.0,,,,,,,,,,,,,,,5aeabf2c15a9c300011acbc3,14:40:23,06/03/2024
4117.699999988079,"<div class = numbox><p style=""font-size: 2.4rem"">Please recall the letters you saw to the best of your ability. If you do not remember a particular letter, use the SKIP button.<br><b>(When you are ready to lock in your answer, press ENTER)</b></p><button id = button_1 class = ""square num-button"" onclick = ""recordClick(this)""><div class = content><div class = numbers>C</div></div></button><button id = button_2 class = ""square num-button"" onclick = ""recordClick(this)""><div class = content><div class = numbers>G</div></div></button><button id = button_3 class = ""square num-button"" onclick = ""recordClick(this)""><div class = content><div class = numbers>H</div></div></button><button id = button_4 class = ""square num-button"" onclick = ""recordClick(this)""><div class = content><div class = numbers>J</div></div></button><button id = button_5 class = ""square num-button"" onclick = ""recordClick(this)""><div class = content><div class = numbers>K</div></div></button><button id = button_6 class = ""square num-button"" onclick = ""recordClick(this)""><div class = content><div class = numbers>L</div></div></button><button id = button_7 class = ""square num-button"" onclick = ""recordClick(this)""><div class = content><div class = numbers>N</div></div></button><button id = button_8 class = ""square num-button"" onclick = ""recordClick(this)""><div class = content><div class = numbers>P</div></div></button><button id = button_9 class = ""square num-button"" onclick = ""recordClick(this)""><div class = content><div class = numbers>Q</div></div></button><button id = button_10 class = ""square num-button"" onclick = ""recordClick(this)""><div class = content><div class = numbers>R</div></div></button><button id = button_11 class = ""square num-button"" onclick = ""recordClick(this)""><div class = content><div class = numbers>S</div></div></button><button id = button_12 class = ""square num-button"" onclick = ""recordClick(this)""><div class = content><div class = numbers>Y</div></div></button><button class = clear_button id = ""ClearButton"" onclick = ""clearResponse()"">BACKSPACE</button><button class = blank_button id = ""BlankButton"" onclick = ""blankResponse()"">SKIP</button><p style=""font-size: 2.4rem""><u><b>Current Answer:</b></u></p><br><br><div id=echoed_txt style=""font-size: 5rem; color:blue;""><b></b></div></div>",enter,ospan,retrieval,nG2BbkvULnPjhDtk6cUtDJFaT8d2,html-keyboard-response,64,638665,0.0-43.0-0.0-2.0-4.0,NA,NA,NA,3.0,"[""H"",""L"",""N""]","[""H"",""L"",""N""]",1.0,3.0,"['<font color=""green"">H</font>', '<font color=""green"">L</font>', '<font color=""green"">N</font>']",,,,,,5aeabf2c15a9c300011acbc3,14:40:23,06/03/2024
2307.100000023842,"['<p style=""font-size:44px"">Letters:<br><br><br><font color=""green"">H</font> <font color=""green"">L</font> <font color=""green"">N</font></p><br><br>']",0,ospan,practice_feedback,nG2BbkvULnPjhDtk6cUtDJFaT8d2,html-button-response,65,641487,0.0-43.0-0.0-2.0-5.0,,,,,,,,,,,,,,,5aeabf2c15a9c300011acbc3,14:40:23,06/03/2024
17979.5,"<div class = 'left_align' style='font-size: 3.25rem; line-height: 1.3;'>Now you will practice doing the <b>symmetry judgment part</b> of the experiment.<br><br>A black and white grid picture will appear on the screen and you have to judge if it is <br>symmetrical or asymetrical.<br><br>A picture is 'mirror' symmetrical if its left half is identical to the right half when flipped.<br>Here are examples of a symmetrical and an asymetrical picture:<br><br><center><img src='Stimuli/img/symm_instructions_extra.png' style='height:420px; width:900'></img></center><br>To judge symmetry, imagine you were to fold each picture down the middle, like a book –<br>would the left half match the right half when folded onto each other?<br><br></div><br>",0,ospan,instruct,nG2BbkvULnPjhDtk6cUtDJFaT8d2,html-button-response,66,659472,0.0-43.0-1.0-0.0-0.0,,,,,,,,,,,,,,,5aeabf2c15a9c300011acbc3,14:40:23,06/03/2024
12999.100000023842,"<div class = 'left_align' style='font-size: 3.25rem; line-height: 1.3;'>When you have viewed the picture and determined whether it is symmetrical or not,<br>you can <b>click the Yes or No button</b> below to answer.<br><br>If you take longer than 15 seconds, it will continue automatically<br>and record the answer as an error.</div><br>",0,ospan,instruct,nG2BbkvULnPjhDtk6cUtDJFaT8d2,html-button-response,67,672729,0.0-43.0-1.0-0.0-1.0,,,,,,,,,,,,,,,5aeabf2c15a9c300011acbc3,14:40:23,06/03/2024
4944.199999988079,"<div class = 'left_align' style='font-size: 3.25rem; line-height: 1.3;'>It is <b>very</b> important that you make the symmetry judgment correctly.<br><br>It is also important that you try and judge the picture as quickly as you can.<br><br>When you are ready, click on the button below to try some practice problems.</div><br><br><br><br>",0,ospan,instruct,nG2BbkvULnPjhDtk6cUtDJFaT8d2,html-button-response,68,677940,0.0-43.0-1.0-0.0-2.0,,,,,,,,,,,,,,,5aeabf2c15a9c300011acbc3,14:40:23,06/03/2024
5326.0,,,ospan,symmetry,nG2BbkvULnPjhDtk6cUtDJFaT8d2,symmetry-judgement-task,69,684081,0.0-43.0-1.0-1.0-0.0,,,,,,,,,,1.0,1.0,,,,5aeabf2c15a9c300011acbc3,14:40:23,06/03/2024
,"<p style=""color:green; font-size: 35px"">Correct</p>",,ospan,feedback,nG2BbkvULnPjhDtk6cUtDJFaT8d2,html-keyboard-response,70,684843,0.0-43.0-1.0-1.0-1.0,,,,,,,,,,,,,,,5aeabf2c15a9c300011acbc3,14:40:23,06/03/2024
2070.0,,,ospan,symmetry,nG2BbkvULnPjhDtk6cUtDJFaT8d2,symmetry-judgement-task,71,689588,0.0-43.0-1.0-1.0-2.0,,,,,,,,,,1.0,1.0,,,,5aeabf2c15a9c300011acbc3,14:40:23,06/03/2024
,"<p style=""color:green; font-size: 35px"">Correct</p>",,ospan,feedback,nG2BbkvULnPjhDtk6cUtDJFaT8d2,html-keyboard-response,72,690344,0.0-43.0-1.0-1.0-3.0,,,,,,,,,,,,,,,5aeabf2c15a9c300011acbc3,14:40:23,06/03/2024
4135.0,,,ospan,symmetry,nG2BbkvULnPjhDtk6cUtDJFaT8d2,symmetry-judgement-task,73,697030,0.0-43.0-1.0-1.0-4.0,,,,,,,,,,1.0,1.0,,,,5aeabf2c15a9c300011acbc3,14:40:23,06/03/2024
,"<p style=""color:green; font-size: 35px"">Correct</p>",,ospan,feedback,nG2BbkvULnPjhDtk6cUtDJFaT8d2,html-keyboard-response,74,697789,0.0-43.0-1.0-1.0-5.0,,,,,,,,,,,,,,,5aeabf2c15a9c300011acbc3,14:40:23,06/03/2024
2260.099999964237,"<p style=""font-size: 3rem;"">You responded correctly on 3 of 3 symmetry judgments. Good job!</p><br><br>",0,ospan,practice,nG2BbkvULnPjhDtk6cUtDJFaT8d2,html-button-response,75,702064,0.0-43.0-1.0-2.0,,,,,,,,,,,,,,,5aeabf2c15a9c300011acbc3,14:40:23,06/03/2024
5002.0,"<div class = 'left_align' style='font-size: 3.25rem; line-height: 1.3;'>Now you will practice doing both parts of the experiment at the same time.<br><br>In the next practice set, you will be given one grid picture to judge.<br>Then letter will appear on the screen. Try to remember the letter.<br><br>It is <b>very important</b> to make the symmetry judgment as quickly and accurately as possible.<br><br>Just as before, once you have make the symmetry judgment, you can click Yes or No.<br><b>Note that you will no longer see Correct or Incorrect feedback.</div><br><br><br><br>",0,ospan,instruct,nG2BbkvULnPjhDtk6cUtDJFaT8d2,html-button-response,76,707319,0.0-43.0-2.0-0.0-0.0,,,,,,,,,,,,,,,5aeabf2c15a9c300011acbc3,14:40:23,06/03/2024
4263.300000011921,"<div class = 'left_align' style='font-size: 3.25rem; line-height: 1.3;'>After the letter goes away, another grid picture will appear, and then<br>another letter.<br><br>At the end of each set of letters and grids, you will recall the letters to the best<br>of your ability. Remember, try your best to get the letters in the correct order.<br><br>It is important to <b>quickly</b> and <b>accurately</b> make the symmetry judgments.</div><br><br><br><br>",0,ospan,instruct,nG2BbkvULnPjhDtk6cUtDJFaT8d2,html-button-response,77,711840,0.0-43.0-2.0-0.0-1.0,,,,,,,,,,,,,,,5aeabf2c15a9c300011acbc3,14:40:23,06/03/2024
16693.399999976158,"<div class = 'left_align' style='font-size: 3.25rem; line-height: 1.3;'>On the feedback screen, if you are not doing well at the symmetry judgments,<br>you will also see a warning in the middle. This indicates your percent <br>correct for the grid pictures for the entire experiment.<br><br>It is <b>very</b> important for you to keep accuracy at least at 85%: <u>We can only use<br>data where the participant was at least 85% accurate on the judgments.</u> Therefore,<br> please try your best to perform well on the symmetry judgments, <b>at the same time</b><br>doing your best to recall as many letters as possible.<br><br>Click the button to try some practice problems.</div><br><br><br><br>",0,ospan,instruct,nG2BbkvULnPjhDtk6cUtDJFaT8d2,html-button-response,78,728798,0.0-43.0-2.0-0.0-2.0,,,,,,,,,,,,,,,5aeabf2c15a9c300011acbc3,14:40:23,06/03/2024
,"<p style=""font-size:75px;"">...</p>",,ospan,iti,nG2BbkvULnPjhDtk6cUtDJFaT8d2,html-keyboard-response,79,730083,0.0-43.0-2.0-1.0-0.0,,,,,,,,,,,,,,,5aeabf2c15a9c300011acbc3,14:40:23,06/03/2024
4823.0,,,ospan,symmetry,nG2BbkvULnPjhDtk6cUtDJFaT8d2,symmetry-judgement-task,80,735944,0.0-43.0-2.0-1.0-1.0-0.0,,,,,,,,,,1.0,1.0,,,,5aeabf2c15a9c300011acbc3,14:40:23,06/03/2024
,"<div style=""font-size: 10rem; color: #0000FF"">N</div>",,ospan,letter,nG2BbkvULnPjhDtk6cUtDJFaT8d2,html-keyboard-response,81,736954,0.0-43.0-2.0-1.0-1.0-1.0,,,,,,,,,,,,,,,5aeabf2c15a9c300011acbc3,14:40:23,06/03/2024
7066.0,,,ospan,symmetry,nG2BbkvULnPjhDtk6cUtDJFaT8d2,symmetry-judgement-task,82,745935,0.0-43.0-2.0-1.0-1.0-2.0,,,,,,,,,,1.0,1.0,,,,5aeabf2c15a9c300011acbc3,14:40:23,06/03/2024
,"<div style=""font-size: 10rem; color: #0000FF"">L</div>",,ospan,letter,nG2BbkvULnPjhDtk6cUtDJFaT8d2,html-keyboard-response,83,746950,0.0-43.0-2.0-1.0-1.0-3.0,,,,,,,,,,,,,,,5aeabf2c15a9c300011acbc3,14:40:23,06/03/2024
2435.0,,,ospan,symmetry,nG2BbkvULnPjhDtk6cUtDJFaT8d2,symmetry-judgement-task,84,751306,0.0-43.0-2.0-1.0-1.0-4.0,,,,,,,,,,1.0,1.0,,,,5aeabf2c15a9c300011acbc3,14:40:23,06/03/2024
,"<div style=""font-size: 10rem; color: #0000FF"">K</div>",,ospan,letter,nG2BbkvULnPjhDtk6cUtDJFaT8d2,html-keyboard-response,85,752322,0.0-43.0-2.0-1.0-1.0-5.0,,,,,,,,,,,,,,,5aeabf2c15a9c300011acbc3,14:40:23,06/03/2024
5610.400000035763,"<div class = numbox><p style=""font-size: 2.4rem"">Please recall the letters you saw to the best of your ability. If you do not remember a particular letter, use the SKIP button.<br><b>(When you are ready to lock in your answer, press ENTER)</b></p><button id = button_1 class = ""square num-button"" onclick = ""recordClick(this)""><div class = content><div class = numbers>C</div></div></button><button id = button_2 class = ""square num-button"" onclick = ""recordClick(this)""><div class = content><div class = numbers>G</div></div></button><button id = button_3 class = ""square num-button"" onclick = ""recordClick(this)""><div class = content><div class = numbers>H</div></div></button><button id = button_4 class = ""square num-button"" onclick = ""recordClick(this)""><div class = content><div class = numbers>J</div></div></button><button id = button_5 class = ""square num-button"" onclick = ""recordClick(this)""><div class = content><div class = numbers>K</div></div></button><button id = button_6 class = ""square num-button"" onclick = ""recordClick(this)""><div class = content><div class = numbers>L</div></div></button><button id = button_7 class = ""square num-button"" onclick = ""recordClick(this)""><div class = content><div class = numbers>N</div></div></button><button id = button_8 class = ""square num-button"" onclick = ""recordClick(this)""><div class = content><div class = numbers>P</div></div></button><button id = button_9 class = ""square num-button"" onclick = ""recordClick(this)""><div class = content><div class = numbers>Q</div></div></button><button id = button_10 class = ""square num-button"" onclick = ""recordClick(this)""><div class = content><div class = numbers>R</div></div></button><button id = button_11 class = ""square num-button"" onclick = ""recordClick(this)""><div class = content><div class = numbers>S</div></div></button><button id = button_12 class = ""square num-button"" onclick = ""recordClick(this)""><div class = content><div class = numbers>Y</div></div></button><button class = clear_button id = ""ClearButton"" onclick = ""clearResponse()"">BACKSPACE</button><button class = blank_button id = ""BlankButton"" onclick = ""blankResponse()"">SKIP</button><p style=""font-size: 2.4rem""><u><b>Current Answer:</b></u></p><br><br><div id=echoed_txt style=""font-size: 5rem; color:blue;""><b></b></div></div>",enter,ospan,retrieval,nG2BbkvULnPjhDtk6cUtDJFaT8d2,html-keyboard-response,86,758697,0.0-43.0-2.0-1.0-2.0-0.0,NA,NA,NA,3.0,"[""N"",""L"",""K""]","[""N"",""L"",""K""]",1.0,3.0,"['<font color=""green"">N</font>', '<font color=""green"">L</font>', '<font color=""green"">K</font>']",,,,,,5aeabf2c15a9c300011acbc3,14:40:23,06/03/2024
5716.800000011921,"['<p style=""font-size:44px"">Letters:<br><br><br><font color=""green"">N</font> <font color=""green"">L</font> <font color=""green"">K</font></p><br><br><p style=""font-size:30px"">Symmetry:<br><br><font color=""green"">100%</font></p><br><br>']",0,ospan,practice_feedback,nG2BbkvULnPjhDtk6cUtDJFaT8d2,html-button-response,87,764923,0.0-43.0-2.0-1.0-2.0-1.0,,,,,,,,,,,,,,,5aeabf2c15a9c300011acbc3,14:40:23,06/03/2024
,"<p style=""font-size:75px;"">...</p>",,ospan,iti,nG2BbkvULnPjhDtk6cUtDJFaT8d2,html-keyboard-response,88,765938,0.0-43.0-2.0-2.0-0.0,,,,,,,,,,,,,,,5aeabf2c15a9c300011acbc3,14:40:23,06/03/2024
4072.0,,,ospan,symmetry,nG2BbkvULnPjhDtk6cUtDJFaT8d2,symmetry-judgement-task,89,771046,0.0-43.0-2.0-2.0-1.0-0.0,,,,,,,,,,1.0,1.0,,,,5aeabf2c15a9c300011acbc3,14:40:23,06/03/2024
,"<div style=""font-size: 10rem; color: #0000FF"">P</div>",,ospan,letter,nG2BbkvULnPjhDtk6cUtDJFaT8d2,html-keyboard-response,90,772054,0.0-43.0-2.0-2.0-1.0-1.0,,,,,,,,,,,,,,,5aeabf2c15a9c300011acbc3,14:40:23,06/03/2024
2149.0,,,ospan,symmetry,nG2BbkvULnPjhDtk6cUtDJFaT8d2,symmetry-judgement-task,91,776119,0.0-43.0-2.0-2.0-1.0-2.0,,,,,,,,,,1.0,1.0,,,,5aeabf2c15a9c300011acbc3,14:40:23,06/03/2024
,"<div style=""font-size: 10rem; color: #0000FF"">Q</div>",,ospan,letter,nG2BbkvULnPjhDtk6cUtDJFaT8d2,html-keyboard-response,92,777122,0.0-43.0-2.0-2.0-1.0-3.0,,,,,,,,,,,,,,,5aeabf2c15a9c300011acbc3,14:40:23,06/03/2024
3964.0,,,ospan,symmetry,nG2BbkvULnPjhDtk6cUtDJFaT8d2,symmetry-judgement-task,93,782997,0.0-43.0-2.0-2.0-1.0-4.0,,,,,,,,,,1.0,1.0,,,,5aeabf2c15a9c300011acbc3,14:40:23,06/03/2024
,"<div style=""font-size: 10rem; color: #0000FF"">Y</div>",,ospan,letter,nG2BbkvULnPjhDtk6cUtDJFaT8d2,html-keyboard-response,94,784005,0.0-43.0-2.0-2.0-1.0-5.0,,,,,,,,,,,,,,,5aeabf2c15a9c300011acbc3,14:40:23,06/03/2024
5052.400000035763,"<div class = numbox><p style=""font-size: 2.4rem"">Please recall the letters you saw to the best of your ability. If you do not remember a particular letter, use the SKIP button.<br><b>(When you are ready to lock in your answer, press ENTER)</b></p><button id = button_1 class = ""square num-button"" onclick = ""recordClick(this)""><div class = content><div class = numbers>C</div></div></button><button id = button_2 class = ""square num-button"" onclick = ""recordClick(this)""><div class = content><div class = numbers>G</div></div></button><button id = button_3 class = ""square num-button"" onclick = ""recordClick(this)""><div class = content><div class = numbers>H</div></div></button><button id = button_4 class = ""square num-button"" onclick = ""recordClick(this)""><div class = content><div class = numbers>J</div></div></button><button id = button_5 class = ""square num-button"" onclick = ""recordClick(this)""><div class = content><div class = numbers>K</div></div></button><button id = button_6 class = ""square num-button"" onclick = ""recordClick(this)""><div class = content><div class = numbers>L</div></div></button><button id = button_7 class = ""square num-button"" onclick = ""recordClick(this)""><div class = content><div class = numbers>N</div></div></button><button id = button_8 class = ""square num-button"" onclick = ""recordClick(this)""><div class = content><div class = numbers>P</div></div></button><button id = button_9 class = ""square num-button"" onclick = ""recordClick(this)""><div class = content><div class = numbers>Q</div></div></button><button id = button_10 class = ""square num-button"" onclick = ""recordClick(this)""><div class = content><div class = numbers>R</div></div></button><button id = button_11 class = ""square num-button"" onclick = ""recordClick(this)""><div class = content><div class = numbers>S</div></div></button><button id = button_12 class = ""square num-button"" onclick = ""recordClick(this)""><div class = content><div class = numbers>Y</div></div></button><button class = clear_button id = ""ClearButton"" onclick = ""clearResponse()"">BACKSPACE</button><button class = blank_button id = ""BlankButton"" onclick = ""blankResponse()"">SKIP</button><p style=""font-size: 2.4rem""><u><b>Current Answer:</b></u></p><br><br><div id=echoed_txt style=""font-size: 5rem; color:blue;""><b></b></div></div>",enter,ospan,retrieval,nG2BbkvULnPjhDtk6cUtDJFaT8d2,html-keyboard-response,95,789814,0.0-43.0-2.0-2.0-2.0-0.0,NA,NA,NA,3.0,"[""P"",""Q"",""Y""]","[""P"",""Q"",""Y""]",1.0,3.0,"['<font color=""green"">P</font>', '<font color=""green"">Q</font>', '<font color=""green"">Y</font>']",,,,,,5aeabf2c15a9c300011acbc3,14:40:23,06/03/2024
5533.700000047684,"['<p style=""font-size:44px"">Letters:<br><br><br><font color=""green"">P</font> <font color=""green"">Q</font> <font color=""green"">Y</font></p><br><br><p style=""font-size:30px"">Symmetry:<br><br><font color=""green"">100%</font></p><br><br>']",0,ospan,practice_feedback,nG2BbkvULnPjhDtk6cUtDJFaT8d2,html-button-response,96,795865,0.0-43.0-2.0-2.0-2.0-1.0,,,,,,,,,,,,,,,5aeabf2c15a9c300011acbc3,14:40:23,06/03/2024
15583.700000047684,"<div class = 'left_align' style='font-size: 3rem; line-height: 1.3;'><b>Great work! That is the end of practice.</b><br><br>The real trials will look just like the practice trials you just completed.<br><br><u>Here, you will not see feedback</u>. First, you will see an grid picture to judge,<br>then a letter to remember. When the recall screen appears, report the letters in the<br>order presented. If you forget a letter, remember to use the <b>blank</b> button to move to the<br>next letter. Some of the sets will have more symmetry grids and letters than others.<br><br>It is important that you do your best on both the symmetry judgments and the letter recall<br>parts of the experiment. For for the symmetry judgments, try to work as <b>quickly</b> and <br>as <b>accurately</b> as possible. Remember to keep your symmetry accuracy at 85% or above.<br><br><b>For the letters, do NOT use any external aid (e.g., writing on paper, electronic device).</b><br><br>It is <u>very important</u> to our experiment to have a <b>true</b> view of your real performance.<br><br>Do not worry if you miss some when it gets hard! This task is meant to be very challenging!<br><br>Click the button to begin.</div><br><br><br><br>",0,ospan,starting_real_here,nG2BbkvULnPjhDtk6cUtDJFaT8d2,html-button-response,97,811454,0.0-43.0-2.0-3.0,,,,,,,,,,,,,,,5aeabf2c15a9c300011acbc3,14:40:23,06/03/2024
,"<p style=""font-size:75px;"">...</p>",,ospan,iti,nG2BbkvULnPjhDtk6cUtDJFaT8d2,html-keyboard-response,98,812727,0.0-43.0-3.0-0.0-0.0,,,,,,,,,,,,,,,5aeabf2c15a9c300011acbc3,14:40:23,06/03/2024
3160.0,,,ospan,symmetry,nG2BbkvULnPjhDtk6cUtDJFaT8d2,symmetry-judgement-task,99,816930,0.0-43.0-3.0-0.0-1.0-0.0,,,,,,,,,,1.0,1.0,,,,5aeabf2c15a9c300011acbc3,14:40:23,06/03/2024
,"<div style=""font-size: 10rem; color: #0000FF"">J</div>",,ospan,letter,nG2BbkvULnPjhDtk6cUtDJFaT8d2,html-keyboard-response,100,817946,0.0-43.0-3.0-0.0-1.0-1.0,,,,,,,,,,,,,,,5aeabf2c15a9c300011acbc3,14:40:23,06/03/2024
4135.0,,,ospan,symmetry,nG2BbkvULnPjhDtk6cUtDJFaT8d2,symmetry-judgement-task,101,824020,0.0-43.0-3.0-0.0-1.0-2.0,,,,,,,,,,1.0,1.0,,,,5aeabf2c15a9c300011acbc3,14:40:23,06/03/2024
,"<div style=""font-size: 10rem; color: #0000FF"">N</div>",,ospan,letter,nG2BbkvULnPjhDtk6cUtDJFaT8d2,html-keyboard-response,102,825028,0.0-43.0-3.0-0.0-1.0-3.0,,,,,,,,,,,,,,,5aeabf2c15a9c300011acbc3,14:40:23,06/03/2024
5006.0,,,ospan,symmetry,nG2BbkvULnPjhDtk6cUtDJFaT8d2,symmetry-judgement-task,103,831961,0.0-43.0-3.0-0.0-1.0-4.0,,,,,,,,,,1.0,1.0,,,,5aeabf2c15a9c300011acbc3,14:40:23,06/03/2024
,"<div style=""font-size: 10rem; color: #0000FF"">L</div>",,ospan,letter,nG2BbkvULnPjhDtk6cUtDJFaT8d2,html-keyboard-response,104,832965,0.0-43.0-3.0-0.0-1.0-5.0,,,,,,,,,,,,,,,5aeabf2c15a9c300011acbc3,14:40:23,06/03/2024
4230.0,"<div class = numbox><p style=""font-size: 2.4rem"">Please recall the letters you saw to the best of your ability. If you do not remember a particular letter, use the SKIP button.<br><b>(When you are ready to lock in your answer, press ENTER)</b></p><button id = button_1 class = ""square num-button"" onclick = ""recordClick(this)""><div class = content><div class = numbers>C</div></div></button><button id = button_2 class = ""square num-button"" onclick = ""recordClick(this)""><div class = content><div class = numbers>G</div></div></button><button id = button_3 class = ""square num-button"" onclick = ""recordClick(this)""><div class = content><div class = numbers>H</div></div></button><button id = button_4 class = ""square num-button"" onclick = ""recordClick(this)""><div class = content><div class = numbers>J</div></div></button><button id = button_5 class = ""square num-button"" onclick = ""recordClick(this)""><div class = content><div class = numbers>K</div></div></button><button id = button_6 class = ""square num-button"" onclick = ""recordClick(this)""><div class = content><div class = numbers>L</div></div></button><button id = button_7 class = ""square num-button"" onclick = ""recordClick(this)""><div class = content><div class = numbers>N</div></div></button><button id = button_8 class = ""square num-button"" onclick = ""recordClick(this)""><div class = content><div class = numbers>P</div></div></button><button id = button_9 class = ""square num-button"" onclick = ""recordClick(this)""><div class = content><div class = numbers>Q</div></div></button><button id = button_10 class = ""square num-button"" onclick = ""recordClick(this)""><div class = content><div class = numbers>R</div></div></button><button id = button_11 class = ""square num-button"" onclick = ""recordClick(this)""><div class = content><div class = numbers>S</div></div></button><button id = button_12 class = ""square num-button"" onclick = ""recordClick(this)""><div class = content><div class = numbers>Y</div></div></button><button class = clear_button id = ""ClearButton"" onclick = ""clearResponse()"">BACKSPACE</button><button class = blank_button id = ""BlankButton"" onclick = ""blankResponse()"">SKIP</button><p style=""font-size: 2.4rem""><u><b>Current Answer:</b></u></p><br><br><div id=echoed_txt style=""font-size: 5rem; color:blue;""><b></b></div></div>",enter,ospan,retrieval,nG2BbkvULnPjhDtk6cUtDJFaT8d2,html-keyboard-response,105,837964,0.0-43.0-3.0-0.0-2.0,3,3,3,3.0,"[""J"",""N"",""L""]","[""J"",""N"",""L""]",1.0,3.0,,,,,,,5aeabf2c15a9c300011acbc3,14:40:23,06/03/2024
1049.7000000476837,[''],0,ospan,feedback,nG2BbkvULnPjhDtk6cUtDJFaT8d2,html-button-response,106,839519,0.0-43.0-3.0-0.0-3.0,,,,,,,,,,,,100.0,0.0,,5aeabf2c15a9c300011acbc3,14:40:23,06/03/2024
,"<p style=""font-size:75px;"">...</p>",,ospan,iti,nG2BbkvULnPjhDtk6cUtDJFaT8d2,html-keyboard-response,107,840531,0.0-43.0-4.0-0.0-0.0,,,,,,,,,,,,,,,5aeabf2c15a9c300011acbc3,14:40:23,06/03/2024
2237.0,,,ospan,symmetry,nG2BbkvULnPjhDtk6cUtDJFaT8d2,symmetry-judgement-task,108,843818,0.0-43.0-4.0-0.0-1.0-0.0,,,,,,,,,,1.0,1.0,,,,5aeabf2c15a9c300011acbc3,14:40:23,06/03/2024
,"<div style=""font-size: 10rem; color: #0000FF"">Y</div>",,ospan,letter,nG2BbkvULnPjhDtk6cUtDJFaT8d2,html-keyboard-response,109,844827,0.0-43.0-4.0-0.0-1.0-1.0,,,,,,,,,,,,,,,5aeabf2c15a9c300011acbc3,14:40:23,06/03/2024
4323.0,,,ospan,symmetry,nG2BbkvULnPjhDtk6cUtDJFaT8d2,symmetry-judgement-task,110,851065,0.0-43.0-4.0-0.0-1.0-2.0,,,,,,,,,,1.0,1.0,,,,5aeabf2c15a9c300011acbc3,14:40:23,06/03/2024
,"<div style=""font-size: 10rem; color: #0000FF"">R</div>",,ospan,letter,nG2BbkvULnPjhDtk6cUtDJFaT8d2,html-keyboard-response,111,852073,0.0-43.0-4.0-0.0-1.0-3.0,,,,,,,,,,,,,,,5aeabf2c15a9c300011acbc3,14:40:23,06/03/2024
3479.0,,,ospan,symmetry,nG2BbkvULnPjhDtk6cUtDJFaT8d2,symmetry-judgement-task,112,857467,0.0-43.0-4.0-0.0-1.0-4.0,,,,,,,,,,1.0,1.0,,,,5aeabf2c15a9c300011acbc3,14:40:23,06/03/2024
,"<div style=""font-size: 10rem; color: #0000FF"">N</div>",,ospan,letter,nG2BbkvULnPjhDtk6cUtDJFaT8d2,html-keyboard-response,113,858480,0.0-43.0-4.0-0.0-1.0-5.0,,,,,,,,,,,,,,,5aeabf2c15a9c300011acbc3,14:40:23,06/03/2024
5872.0,,,ospan,symmetry,nG2BbkvULnPjhDtk6cUtDJFaT8d2,symmetry-judgement-task,114,866284,0.0-43.0-4.0-0.0-1.0-6.0,,,,,,,,,,1.0,1.0,,,,5aeabf2c15a9c300011acbc3,14:40:23,06/03/2024
,"<div style=""font-size: 10rem; color: #0000FF"">P</div>",,ospan,letter,nG2BbkvULnPjhDtk6cUtDJFaT8d2,html-keyboard-response,115,867300,0.0-43.0-4.0-0.0-1.0-7.0,,,,,,,,,,,,,,,5aeabf2c15a9c300011acbc3,14:40:23,06/03/2024
12376.400000035763,"<div class = numbox><p style=""font-size: 2.4rem"">Please recall the letters you saw to the best of your ability. If you do not remember a particular letter, use the SKIP button.<br><b>(When you are ready to lock in your answer, press ENTER)</b></p><button id = button_1 class = ""square num-button"" onclick = ""recordClick(this)""><div class = content><div class = numbers>C</div></div></button><button id = button_2 class = ""square num-button"" onclick = ""recordClick(this)""><div class = content><div class = numbers>G</div></div></button><button id = button_3 class = ""square num-button"" onclick = ""recordClick(this)""><div class = content><div class = numbers>H</div></div></button><button id = button_4 class = ""square num-button"" onclick = ""recordClick(this)""><div class = content><div class = numbers>J</div></div></button><button id = button_5 class = ""square num-button"" onclick = ""recordClick(this)""><div class = content><div class = numbers>K</div></div></button><button id = button_6 class = ""square num-button"" onclick = ""recordClick(this)""><div class = content><div class = numbers>L</div></div></button><button id = button_7 class = ""square num-button"" onclick = ""recordClick(this)""><div class = content><div class = numbers>N</div></div></button><button id = button_8 class = ""square num-button"" onclick = ""recordClick(this)""><div class = content><div class = numbers>P</div></div></button><button id = button_9 class = ""square num-button"" onclick = ""recordClick(this)""><div class = content><div class = numbers>Q</div></div></button><button id = button_10 class = ""square num-button"" onclick = ""recordClick(this)""><div class = content><div class = numbers>R</div></div></button><button id = button_11 class = ""square num-button"" onclick = ""recordClick(this)""><div class = content><div class = numbers>S</div></div></button><button id = button_12 class = ""square num-button"" onclick = ""recordClick(this)""><div class = content><div class = numbers>Y</div></div></button><button class = clear_button id = ""ClearButton"" onclick = ""clearResponse()"">BACKSPACE</button><button class = blank_button id = ""BlankButton"" onclick = ""blankResponse()"">SKIP</button><p style=""font-size: 2.4rem""><u><b>Current Answer:</b></u></p><br><br><div id=echoed_txt style=""font-size: 5rem; color:blue;""><b></b></div></div>",enter,ospan,retrieval,nG2BbkvULnPjhDtk6cUtDJFaT8d2,html-keyboard-response,116,880436,0.0-43.0-4.0-0.0-2.0,7,7,7,4.0,"[""Y"",""R"",""N"",""P""]","[""Y"",""R"",""N"",""P""]",1.0,4.0,,,,,,,5aeabf2c15a9c300011acbc3,14:40:23,06/03/2024
1502.300000011921,[''],0,ospan,feedback,nG2BbkvULnPjhDtk6cUtDJFaT8d2,html-button-response,117,882453,0.0-43.0-4.0-0.0-3.0,,,,,,,,,,,,100.0,0.0,,5aeabf2c15a9c300011acbc3,14:40:23,06/03/2024
,"<p style=""font-size:75px;"">...</p>",,ospan,iti,nG2BbkvULnPjhDtk6cUtDJFaT8d2,html-keyboard-response,118,883459,0.0-43.0-4.0-1.0-0.0,,,,,,,,,,,,,,,5aeabf2c15a9c300011acbc3,14:40:23,06/03/2024
6237.0,,,ospan,symmetry,nG2BbkvULnPjhDtk6cUtDJFaT8d2,symmetry-judgement-task,119,890854,0.0-43.0-4.0-1.0-1.0-0.0,,,,,,,,,,1.0,1.0,,,,5aeabf2c15a9c300011acbc3,14:40:23,06/03/2024
,"<div style=""font-size: 10rem; color: #0000FF"">C</div>",,ospan,letter,nG2BbkvULnPjhDtk6cUtDJFaT8d2,html-keyboard-response,120,891860,0.0-43.0-4.0-1.0-1.0-1.0,,,,,,,,,,,,,,,5aeabf2c15a9c300011acbc3,14:40:23,06/03/2024
5066.0,,,ospan,symmetry,nG2BbkvULnPjhDtk6cUtDJFaT8d2,symmetry-judgement-task,121,898837,0.0-43.0-4.0-1.0-1.0-2.0,,,,,,,,,,1.0,1.0,,,,5aeabf2c15a9c300011acbc3,14:40:23,06/03/2024
,"<div style=""font-size: 10rem; color: #0000FF"">G</div>",,ospan,letter,nG2BbkvULnPjhDtk6cUtDJFaT8d2,html-keyboard-response,122,899844,0.0-43.0-4.0-1.0-1.0-3.0,,,,,,,,,,,,,,,5aeabf2c15a9c300011acbc3,14:40:23,06/03/2024
6704.0,,,ospan,symmetry,nG2BbkvULnPjhDtk6cUtDJFaT8d2,symmetry-judgement-task,123,908472,0.0-43.0-4.0-1.0-1.0-4.0,,,,,,,,,,1.0,1.0,,,,5aeabf2c15a9c300011acbc3,14:40:23,06/03/2024
,"<div style=""font-size: 10rem; color: #0000FF"">Q</div>",,ospan,letter,nG2BbkvULnPjhDtk6cUtDJFaT8d2,html-keyboard-response,124,909487,0.0-43.0-4.0-1.0-1.0-5.0,,,,,,,,,,,,,,,5aeabf2c15a9c300011acbc3,14:40:23,06/03/2024
6119.0,,,ospan,symmetry,nG2BbkvULnPjhDtk6cUtDJFaT8d2,symmetry-judgement-task,125,917523,0.0-43.0-4.0-1.0-1.0-6.0,,,,,,,,,,1.0,1.0,,,,5aeabf2c15a9c300011acbc3,14:40:23,06/03/2024
,"<div style=""font-size: 10rem; color: #0000FF"">R</div>",,ospan,letter,nG2BbkvULnPjhDtk6cUtDJFaT8d2,html-keyboard-response,126,918541,0.0-43.0-4.0-1.0-1.0-7.0,,,,,,,,,,,,,,,5aeabf2c15a9c300011acbc3,14:40:23,06/03/2024
6191.0,,,ospan,symmetry,nG2BbkvULnPjhDtk6cUtDJFaT8d2,symmetry-judgement-task,127,926662,0.0-43.0-4.0-1.0-1.0-8.0,,,,,,,,,,1.0,1.0,,,,5aeabf2c15a9c300011acbc3,14:40:23,06/03/2024
,"<div style=""font-size: 10rem; color: #0000FF"">K</div>",,ospan,letter,nG2BbkvULnPjhDtk6cUtDJFaT8d2,html-keyboard-response,128,927674,0.0-43.0-4.0-1.0-1.0-9.0,,,,,,,,,,,,,,,5aeabf2c15a9c300011acbc3,14:40:23,06/03/2024
5857.299999952316,"<div class = numbox><p style=""font-size: 2.4rem"">Please recall the letters you saw to the best of your ability. If you do not remember a particular letter, use the SKIP button.<br><b>(When you are ready to lock in your answer, press ENTER)</b></p><button id = button_1 class = ""square num-button"" onclick = ""recordClick(this)""><div class = content><div class = numbers>C</div></div></button><button id = button_2 class = ""square num-button"" onclick = ""recordClick(this)""><div class = content><div class = numbers>G</div></div></button><button id = button_3 class = ""square num-button"" onclick = ""recordClick(this)""><div class = content><div class = numbers>H</div></div></button><button id = button_4 class = ""square num-button"" onclick = ""recordClick(this)""><div class = content><div class = numbers>J</div></div></button><button id = button_5 class = ""square num-button"" onclick = ""recordClick(this)""><div class = content><div class = numbers>K</div></div></button><button id = button_6 class = ""square num-button"" onclick = ""recordClick(this)""><div class = content><div class = numbers>L</div></div></button><button id = button_7 class = ""square num-button"" onclick = ""recordClick(this)""><div class = content><div class = numbers>N</div></div></button><button id = button_8 class = ""square num-button"" onclick = ""recordClick(this)""><div class = content><div class = numbers>P</div></div></button><button id = button_9 class = ""square num-button"" onclick = ""recordClick(this)""><div class = content><div class = numbers>Q</div></div></button><button id = button_10 class = ""square num-button"" onclick = ""recordClick(this)""><div class = content><div class = numbers>R</div></div></button><button id = button_11 class = ""square num-button"" onclick = ""recordClick(this)""><div class = content><div class = numbers>S</div></div></button><button id = button_12 class = ""square num-button"" onclick = ""recordClick(this)""><div class = content><div class = numbers>Y</div></div></button><button class = clear_button id = ""ClearButton"" onclick = ""clearResponse()"">BACKSPACE</button><button class = blank_button id = ""BlankButton"" onclick = ""blankResponse()"">SKIP</button><p style=""font-size: 2.4rem""><u><b>Current Answer:</b></u></p><br><br><div id=echoed_txt style=""font-size: 5rem; color:blue;""><b></b></div></div>",enter,ospan,retrieval,nG2BbkvULnPjhDtk6cUtDJFaT8d2,html-keyboard-response,129,934288,0.0-43.0-4.0-1.0-2.0,12,12,12,5.0,"[""C"",""G"",""Q"",""R"",""K""]","[""C"",""G"",""Q"",""R"",""K""]",1.0,5.0,,,,,,,5aeabf2c15a9c300011acbc3,14:40:23,06/03/2024
2688.800000011921,[''],0,ospan,feedback,nG2BbkvULnPjhDtk6cUtDJFaT8d2,html-button-response,130,937490,0.0-43.0-4.0-1.0-3.0,,,,,,,,,,,,100.0,0.0,,5aeabf2c15a9c300011acbc3,14:40:23,06/03/2024
,"<p style=""font-size:75px;"">...</p>",,ospan,iti,nG2BbkvULnPjhDtk6cUtDJFaT8d2,html-keyboard-response,131,938495,0.0-43.0-4.0-2.0-0.0,,,,,,,,,,,,,,,5aeabf2c15a9c300011acbc3,14:40:23,06/03/2024
8289.0,,,ospan,symmetry,nG2BbkvULnPjhDtk6cUtDJFaT8d2,symmetry-judgement-task,132,947952,0.0-43.0-4.0-2.0-1.0-0.0,,,,,,,,,,1.0,1.0,,,,5aeabf2c15a9c300011acbc3,14:40:23,06/03/2024
,"<div style=""font-size: 10rem; color: #0000FF"">K</div>",,ospan,letter,nG2BbkvULnPjhDtk6cUtDJFaT8d2,html-keyboard-response,133,948960,0.0-43.0-4.0-2.0-1.0-1.0,,,,,,,,,,,,,,,5aeabf2c15a9c300011acbc3,14:40:23,06/03/2024
5033.0,,,ospan,symmetry,nG2BbkvULnPjhDtk6cUtDJFaT8d2,symmetry-judgement-task,134,955913,0.0-43.0-4.0-2.0-1.0-2.0,,,,,,,,,,1.0,1.0,,,,5aeabf2c15a9c300011acbc3,14:40:23,06/03/2024
,"<div style=""font-size: 10rem; color: #0000FF"">P</div>",,ospan,letter,nG2BbkvULnPjhDtk6cUtDJFaT8d2,html-keyboard-response,135,956920,0.0-43.0-4.0-2.0-1.0-3.0,,,,,,,,,,,,,,,5aeabf2c15a9c300011acbc3,14:40:23,06/03/2024
3341.0,,,ospan,symmetry,nG2BbkvULnPjhDtk6cUtDJFaT8d2,symmetry-judgement-task,136,962186,0.0-43.0-4.0-2.0-1.0-4.0,,,,,,,,,,1.0,1.0,,,,5aeabf2c15a9c300011acbc3,14:40:23,06/03/2024
,"<div style=""font-size: 10rem; color: #0000FF"">N</div>",,ospan,letter,nG2BbkvULnPjhDtk6cUtDJFaT8d2,html-keyboard-response,137,963201,0.0-43.0-4.0-2.0-1.0-5.0,,,,,,,,,,,,,,,5aeabf2c15a9c300011acbc3,14:40:23,06/03/2024
4041.099999964237,"<div class = numbox><p style=""font-size: 2.4rem"">Please recall the letters you saw to the best of your ability. If you do not remember a particular letter, use the SKIP button.<br><b>(When you are ready to lock in your answer, press ENTER)</b></p><button id = button_1 class = ""square num-button"" onclick = ""recordClick(this)""><div class = content><div class = numbers>C</div></div></button><button id = button_2 class = ""square num-button"" onclick = ""recordClick(this)""><div class = content><div class = numbers>G</div></div></button><button id = button_3 class = ""square num-button"" onclick = ""recordClick(this)""><div class = content><div class = numbers>H</div></div></button><button id = button_4 class = ""square num-button"" onclick = ""recordClick(this)""><div class = content><div class = numbers>J</div></div></button><button id = button_5 class = ""square num-button"" onclick = ""recordClick(this)""><div class = content><div class = numbers>K</div></div></button><button id = button_6 class = ""square num-button"" onclick = ""recordClick(this)""><div class = content><div class = numbers>L</div></div></button><button id = button_7 class = ""square num-button"" onclick = ""recordClick(this)""><div class = content><div class = numbers>N</div></div></button><button id = button_8 class = ""square num-button"" onclick = ""recordClick(this)""><div class = content><div class = numbers>P</div></div></button><button id = button_9 class = ""square num-button"" onclick = ""recordClick(this)""><div class = content><div class = numbers>Q</div></div></button><button id = button_10 class = ""square num-button"" onclick = ""recordClick(this)""><div class = content><div class = numbers>R</div></div></button><button id = button_11 class = ""square num-button"" onclick = ""recordClick(this)""><div class = content><div class = numbers>S</div></div></button><button id = button_12 class = ""square num-button"" onclick = ""recordClick(this)""><div class = content><div class = numbers>Y</div></div></button><button class = clear_button id = ""ClearButton"" onclick = ""clearResponse()"">BACKSPACE</button><button class = blank_button id = ""BlankButton"" onclick = ""blankResponse()"">SKIP</button><p style=""font-size: 2.4rem""><u><b>Current Answer:</b></u></p><br><br><div id=echoed_txt style=""font-size: 5rem; color:blue;""><b></b></div></div>",enter,ospan,retrieval,nG2BbkvULnPjhDtk6cUtDJFaT8d2,html-keyboard-response,138,968001,0.0-43.0-4.0-2.0-2.0,15,15,15,3.0,"[""K"",""P"",""N""]","[""K"",""P"",""N""]",1.0,3.0,,,,,,,5aeabf2c15a9c300011acbc3,14:40:23,06/03/2024
2281.900000035763,[''],0,ospan,feedback,nG2BbkvULnPjhDtk6cUtDJFaT8d2,html-button-response,139,970800,0.0-43.0-4.0-2.0-3.0,,,,,,,,,,,,100.0,0.0,,5aeabf2c15a9c300011acbc3,14:40:23,06/03/2024
,"<p style=""font-size:75px;"">...</p>",,ospan,iti,nG2BbkvULnPjhDtk6cUtDJFaT8d2,html-keyboard-response,140,971815,0.0-43.0-5.0-0.0-0.0,,,,,,,,,,,,,,,5aeabf2c15a9c300011acbc3,14:40:23,06/03/2024
3742.0,,,ospan,symmetry,nG2BbkvULnPjhDtk6cUtDJFaT8d2,symmetry-judgement-task,141,976732,0.0-43.0-5.0-0.0-1.0-0.0,,,,,,,,,,1.0,1.0,,,,5aeabf2c15a9c300011acbc3,14:40:23,06/03/2024
,"<div style=""font-size: 10rem; color: #0000FF"">N</div>",,ospan,letter,nG2BbkvULnPjhDtk6cUtDJFaT8d2,html-keyboard-response,142,977740,0.0-43.0-5.0-0.0-1.0-1.0,,,,,,,,,,,,,,,5aeabf2c15a9c300011acbc3,14:40:23,06/03/2024
2303.0,,,ospan,symmetry,nG2BbkvULnPjhDtk6cUtDJFaT8d2,symmetry-judgement-task,143,981850,0.0-43.0-5.0-0.0-1.0-2.0,,,,,,,,,,1.0,1.0,,,,5aeabf2c15a9c300011acbc3,14:40:23,06/03/2024
,"<div style=""font-size: 10rem; color: #0000FF"">J</div>",,ospan,letter,nG2BbkvULnPjhDtk6cUtDJFaT8d2,html-keyboard-response,144,982865,0.0-43.0-5.0-0.0-1.0-3.0,,,,,,,,,,,,,,,5aeabf2c15a9c300011acbc3,14:40:23,06/03/2024
3812.0,,,ospan,symmetry,nG2BbkvULnPjhDtk6cUtDJFaT8d2,symmetry-judgement-task,145,988597,0.0-43.0-5.0-0.0-1.0-4.0,,,,,,,,,,1.0,1.0,,,,5aeabf2c15a9c300011acbc3,14:40:23,06/03/2024
,"<div style=""font-size: 10rem; color: #0000FF"">R</div>",,ospan,letter,nG2BbkvULnPjhDtk6cUtDJFaT8d2,html-keyboard-response,146,989608,0.0-43.0-5.0-0.0-1.0-5.0,,,,,,,,,,,,,,,5aeabf2c15a9c300011acbc3,14:40:23,06/03/2024
3199.0,,,ospan,symmetry,nG2BbkvULnPjhDtk6cUtDJFaT8d2,symmetry-judgement-task,147,994719,0.0-43.0-5.0-0.0-1.0-6.0,,,,,,,,,,1.0,1.0,,,,5aeabf2c15a9c300011acbc3,14:40:23,06/03/2024
,"<div style=""font-size: 10rem; color: #0000FF"">K</div>",,ospan,letter,nG2BbkvULnPjhDtk6cUtDJFaT8d2,html-keyboard-response,148,995725,0.0-43.0-5.0-0.0-1.0-7.0,,,,,,,,,,,,,,,5aeabf2c15a9c300011acbc3,14:40:23,06/03/2024
6097.0,,,ospan,symmetry,nG2BbkvULnPjhDtk6cUtDJFaT8d2,symmetry-judgement-task,149,1003736,0.0-43.0-5.0-0.0-1.0-8.0,,,,,,,,,,1.0,1.0,,,,5aeabf2c15a9c300011acbc3,14:40:23,06/03/2024
,"<div style=""font-size: 10rem; color: #0000FF"">C</div>",,ospan,letter,nG2BbkvULnPjhDtk6cUtDJFaT8d2,html-keyboard-response,150,1004752,0.0-43.0-5.0-0.0-1.0-9.0,,,,,,,,,,,,,,,5aeabf2c15a9c300011acbc3,14:40:23,06/03/2024
6984.0,,,ospan,symmetry,nG2BbkvULnPjhDtk6cUtDJFaT8d2,symmetry-judgement-task,151,1013701,0.0-43.0-5.0-0.0-1.0-10.0,,,,,,,,,,1.0,1.0,,,,5aeabf2c15a9c300011acbc3,14:40:23,06/03/2024
,"<div style=""font-size: 10rem; color: #0000FF"">Q</div>",,ospan,letter,nG2BbkvULnPjhDtk6cUtDJFaT8d2,html-keyboard-response,152,1014713,0.0-43.0-5.0-0.0-1.0-11.0,,,,,,,,,,,,,,,5aeabf2c15a9c300011acbc3,14:40:23,06/03/2024
13603.5,"<div class = numbox><p style=""font-size: 2.4rem"">Please recall the letters you saw to the best of your ability. If you do not remember a particular letter, use the SKIP button.<br><b>(When you are ready to lock in your answer, press ENTER)</b></p><button id = button_1 class = ""square num-button"" onclick = ""recordClick(this)""><div class = content><div class = numbers>C</div></div></button><button id = button_2 class = ""square num-button"" onclick = ""recordClick(this)""><div class = content><div class = numbers>G</div></div></button><button id = button_3 class = ""square num-button"" onclick = ""recordClick(this)""><div class = content><div class = numbers>H</div></div></button><button id = button_4 class = ""square num-button"" onclick = ""recordClick(this)""><div class = content><div class = numbers>J</div></div></button><button id = button_5 class = ""square num-button"" onclick = ""recordClick(this)""><div class = content><div class = numbers>K</div></div></button><button id = button_6 class = ""square num-button"" onclick = ""recordClick(this)""><div class = content><div class = numbers>L</div></div></button><button id = button_7 class = ""square num-button"" onclick = ""recordClick(this)""><div class = content><div class = numbers>N</div></div></button><button id = button_8 class = ""square num-button"" onclick = ""recordClick(this)""><div class = content><div class = numbers>P</div></div></button><button id = button_9 class = ""square num-button"" onclick = ""recordClick(this)""><div class = content><div class = numbers>Q</div></div></button><button id = button_10 class = ""square num-button"" onclick = ""recordClick(this)""><div class = content><div class = numbers>R</div></div></button><button id = button_11 class = ""square num-button"" onclick = ""recordClick(this)""><div class = content><div class = numbers>S</div></div></button><button id = button_12 class = ""square num-button"" onclick = ""recordClick(this)""><div class = content><div class = numbers>Y</div></div></button><button class = clear_button id = ""ClearButton"" onclick = ""clearResponse()"">BACKSPACE</button><button class = blank_button id = ""BlankButton"" onclick = ""blankResponse()"">SKIP</button><p style=""font-size: 2.4rem""><u><b>Current Answer:</b></u></p><br><br><div id=echoed_txt style=""font-size: 5rem; color:blue;""><b></b></div></div>",enter,ospan,retrieval,nG2BbkvULnPjhDtk6cUtDJFaT8d2,html-keyboard-response,153,1029071,0.0-43.0-5.0-0.0-2.0,21,20,15,6.0,"[""N"",""J"",""R"",""K"",""C"",""_""]","[""N"",""J"",""R"",""K"",""C"",""Q""]",0.0,5.0,,,,,,,5aeabf2c15a9c300011acbc3,14:40:23,06/03/2024
1374.9000000357628,[''],0,ospan,feedback,nG2BbkvULnPjhDtk6cUtDJFaT8d2,html-button-response,154,1030950,0.0-43.0-5.0-0.0-3.0,,,,,,,,,,,,100.0,0.0,,5aeabf2c15a9c300011acbc3,14:40:23,06/03/2024
,"<p style=""font-size:75px;"">...</p>",,ospan,iti,nG2BbkvULnPjhDtk6cUtDJFaT8d2,html-keyboard-response,155,1031962,0.0-43.0-5.0-1.0-0.0,,,,,,,,,,,,,,,5aeabf2c15a9c300011acbc3,14:40:23,06/03/2024
5028.0,,,ospan,symmetry,nG2BbkvULnPjhDtk6cUtDJFaT8d2,symmetry-judgement-task,156,1038157,0.0-43.0-5.0-1.0-1.0-0.0,,,,,,,,,,1.0,1.0,,,,5aeabf2c15a9c300011acbc3,14:40:23,06/03/2024
,"<div style=""font-size: 10rem; color: #0000FF"">C</div>",,ospan,letter,nG2BbkvULnPjhDtk6cUtDJFaT8d2,html-keyboard-response,157,1039174,0.0-43.0-5.0-1.0-1.0-1.0,,,,,,,,,,,,,,,5aeabf2c15a9c300011acbc3,14:40:23,06/03/2024
4896.0,,,ospan,symmetry,nG2BbkvULnPjhDtk6cUtDJFaT8d2,symmetry-judgement-task,158,1045984,0.0-43.0-5.0-1.0-1.0-2.0,,,,,,,,,,1.0,1.0,,,,5aeabf2c15a9c300011acbc3,14:40:23,06/03/2024
,"<div style=""font-size: 10rem; color: #0000FF"">K</div>",,ospan,letter,nG2BbkvULnPjhDtk6cUtDJFaT8d2,html-keyboard-response,159,1047003,0.0-43.0-5.0-1.0-1.0-3.0,,,,,,,,,,,,,,,5aeabf2c15a9c300011acbc3,14:40:23,06/03/2024
1462.0,,,ospan,symmetry,nG2BbkvULnPjhDtk6cUtDJFaT8d2,symmetry-judgement-task,160,1050379,0.0-43.0-5.0-1.0-1.0-4.0,,,,,,,,,,1.0,1.0,,,,5aeabf2c15a9c300011acbc3,14:40:23,06/03/2024
,"<div style=""font-size: 10rem; color: #0000FF"">N</div>",,ospan,letter,nG2BbkvULnPjhDtk6cUtDJFaT8d2,html-keyboard-response,161,1051393,0.0-43.0-5.0-1.0-1.0-5.0,,,,,,,,,,,,,,,5aeabf2c15a9c300011acbc3,14:40:23,06/03/2024
5407.0,,,ospan,symmetry,nG2BbkvULnPjhDtk6cUtDJFaT8d2,symmetry-judgement-task,162,1058717,0.0-43.0-5.0-1.0-1.0-6.0,,,,,,,,,,1.0,1.0,,,,5aeabf2c15a9c300011acbc3,14:40:23,06/03/2024
,"<div style=""font-size: 10rem; color: #0000FF"">Y</div>",,ospan,letter,nG2BbkvULnPjhDtk6cUtDJFaT8d2,html-keyboard-response,163,1059733,0.0-43.0-5.0-1.0-1.0-7.0,,,,,,,,,,,,,,,5aeabf2c15a9c300011acbc3,14:40:23,06/03/2024
2227.0,,,ospan,symmetry,nG2BbkvULnPjhDtk6cUtDJFaT8d2,symmetry-judgement-task,164,1063880,0.0-43.0-5.0-1.0-1.0-8.0,,,,,,,,,,1.0,1.0,,,,5aeabf2c15a9c300011acbc3,14:40:23,06/03/2024
,"<div style=""font-size: 10rem; color: #0000FF"">J</div>",,ospan,letter,nG2BbkvULnPjhDtk6cUtDJFaT8d2,html-keyboard-response,165,1064893,0.0-43.0-5.0-1.0-1.0-9.0,,,,,,,,,,,,,,,5aeabf2c15a9c300011acbc3,14:40:23,06/03/2024
2744.0,,,ospan,symmetry,nG2BbkvULnPjhDtk6cUtDJFaT8d2,symmetry-judgement-task,166,1069554,0.0-43.0-5.0-1.0-1.0-10.0,,,,,,,,,,1.0,1.0,,,,5aeabf2c15a9c300011acbc3,14:40:23,06/03/2024
,"<div style=""font-size: 10rem; color: #0000FF"">Q</div>",,ospan,letter,nG2BbkvULnPjhDtk6cUtDJFaT8d2,html-keyboard-response,167,1070569,0.0-43.0-5.0-1.0-1.0-11.0,,,,,,,,,,,,,,,5aeabf2c15a9c300011acbc3,14:40:23,06/03/2024
2225.0,,,ospan,symmetry,nG2BbkvULnPjhDtk6cUtDJFaT8d2,symmetry-judgement-task,168,1074727,0.0-43.0-5.0-1.0-1.0-12.0,,,,,,,,,,1.0,1.0,,,,5aeabf2c15a9c300011acbc3,14:40:23,06/03/2024
,"<div style=""font-size: 10rem; color: #0000FF"">S</div>",,ospan,letter,nG2BbkvULnPjhDtk6cUtDJFaT8d2,html-keyboard-response,169,1075742,0.0-43.0-5.0-1.0-1.0-13.0,,,,,,,,,,,,,,,5aeabf2c15a9c300011acbc3,14:40:23,06/03/2024
9120.800000011921,"<div class = numbox><p style=""font-size: 2.4rem"">Please recall the letters you saw to the best of your ability. If you do not remember a particular letter, use the SKIP button.<br><b>(When you are ready to lock in your answer, press ENTER)</b></p><button id = button_1 class = ""square num-button"" onclick = ""recordClick(this)""><div class = content><div class = numbers>C</div></div></button><button id = button_2 class = ""square num-button"" onclick = ""recordClick(this)""><div class = content><div class = numbers>G</div></div></button><button id = button_3 class = ""square num-button"" onclick = ""recordClick(this)""><div class = content><div class = numbers>H</div></div></button><button id = button_4 class = ""square num-button"" onclick = ""recordClick(this)""><div class = content><div class = numbers>J</div></div></button><button id = button_5 class = ""square num-button"" onclick = ""recordClick(this)""><div class = content><div class = numbers>K</div></div></button><button id = button_6 class = ""square num-button"" onclick = ""recordClick(this)""><div class = content><div class = numbers>L</div></div></button><button id = button_7 class = ""square num-button"" onclick = ""recordClick(this)""><div class = content><div class = numbers>N</div></div></button><button id = button_8 class = ""square num-button"" onclick = ""recordClick(this)""><div class = content><div class = numbers>P</div></div></button><button id = button_9 class = ""square num-button"" onclick = ""recordClick(this)""><div class = content><div class = numbers>Q</div></div></button><button id = button_10 class = ""square num-button"" onclick = ""recordClick(this)""><div class = content><div class = numbers>R</div></div></button><button id = button_11 class = ""square num-button"" onclick = ""recordClick(this)""><div class = content><div class = numbers>S</div></div></button><button id = button_12 class = ""square num-button"" onclick = ""recordClick(this)""><div class = content><div class = numbers>Y</div></div></button><button class = clear_button id = ""ClearButton"" onclick = ""clearResponse()"">BACKSPACE</button><button class = blank_button id = ""BlankButton"" onclick = ""blankResponse()"">SKIP</button><p style=""font-size: 2.4rem""><u><b>Current Answer:</b></u></p><br><br><div id=echoed_txt style=""font-size: 5rem; color:blue;""><b></b></div></div>",enter,ospan,retrieval,nG2BbkvULnPjhDtk6cUtDJFaT8d2,html-keyboard-response,170,1085616,0.0-43.0-5.0-1.0-2.0,28,25,15,7.0,"[""C"",""K"",""N"",""Y"",""G"",""Q"",""_""]","[""C"",""K"",""N"",""Y"",""J"",""Q"",""S""]",0.0,5.0,,,,,,,5aeabf2c15a9c300011acbc3,14:40:23,06/03/2024
5558.800000011921,[''],0,ospan,feedback,nG2BbkvULnPjhDtk6cUtDJFaT8d2,html-button-response,171,1091685,0.0-43.0-5.0-1.0-3.0,,,,,,,,,,,,100.0,0.0,,5aeabf2c15a9c300011acbc3,14:40:23,06/03/2024
,"<p style=""font-size:75px;"">...</p>",,ospan,iti,nG2BbkvULnPjhDtk6cUtDJFaT8d2,html-keyboard-response,172,1092702,0.0-43.0-6.0-0.0-0.0,,,,,,,,,,,,,,,5aeabf2c15a9c300011acbc3,14:40:23,06/03/2024
2711.0,,,ospan,symmetry,nG2BbkvULnPjhDtk6cUtDJFaT8d2,symmetry-judgement-task,173,1096566,0.0-43.0-6.0-0.0-1.0-0.0,,,,,,,,,,1.0,1.0,,,,5aeabf2c15a9c300011acbc3,14:40:23,06/03/2024
,"<div style=""font-size: 10rem; color: #0000FF"">N</div>",,ospan,letter,nG2BbkvULnPjhDtk6cUtDJFaT8d2,html-keyboard-response,174,1097576,0.0-43.0-6.0-0.0-1.0-1.0,,,,,,,,,,,,,,,5aeabf2c15a9c300011acbc3,14:40:23,06/03/2024
6125.0,,,ospan,symmetry,nG2BbkvULnPjhDtk6cUtDJFaT8d2,symmetry-judgement-task,175,1105617,0.0-43.0-6.0-0.0-1.0-2.0,,,,,,,,,,1.0,1.0,,,,5aeabf2c15a9c300011acbc3,14:40:23,06/03/2024
,"<div style=""font-size: 10rem; color: #0000FF"">G</div>",,ospan,letter,nG2BbkvULnPjhDtk6cUtDJFaT8d2,html-keyboard-response,176,1106635,0.0-43.0-6.0-0.0-1.0-3.0,,,,,,,,,,,,,,,5aeabf2c15a9c300011acbc3,14:40:23,06/03/2024
1717.0,,,ospan,symmetry,nG2BbkvULnPjhDtk6cUtDJFaT8d2,symmetry-judgement-task,177,1110278,0.0-43.0-6.0-0.0-1.0-4.0,,,,,,,,,,1.0,1.0,,,,5aeabf2c15a9c300011acbc3,14:40:23,06/03/2024
,"<div style=""font-size: 10rem; color: #0000FF"">P</div>",,ospan,letter,nG2BbkvULnPjhDtk6cUtDJFaT8d2,html-keyboard-response,178,1111284,0.0-43.0-6.0-0.0-1.0-5.0,,,,,,,,,,,,,,,5aeabf2c15a9c300011acbc3,14:40:23,06/03/2024
6357.0,,,ospan,symmetry,nG2BbkvULnPjhDtk6cUtDJFaT8d2,symmetry-judgement-task,179,1119561,0.0-43.0-6.0-0.0-1.0-6.0,,,,,,,,,,1.0,1.0,,,,5aeabf2c15a9c300011acbc3,14:40:23,06/03/2024
,"<div style=""font-size: 10rem; color: #0000FF"">J</div>",,ospan,letter,nG2BbkvULnPjhDtk6cUtDJFaT8d2,html-keyboard-response,180,1120567,0.0-43.0-6.0-0.0-1.0-7.0,,,,,,,,,,,,,,,5aeabf2c15a9c300011acbc3,14:40:23,06/03/2024
5632.0,,,ospan,symmetry,nG2BbkvULnPjhDtk6cUtDJFaT8d2,symmetry-judgement-task,181,1128133,0.0-43.0-6.0-0.0-1.0-8.0,,,,,,,,,,1.0,1.0,,,,5aeabf2c15a9c300011acbc3,14:40:23,06/03/2024
,"<div style=""font-size: 10rem; color: #0000FF"">C</div>",,ospan,letter,nG2BbkvULnPjhDtk6cUtDJFaT8d2,html-keyboard-response,182,1129138,0.0-43.0-6.0-0.0-1.0-9.0,,,,,,,,,,,,,,,5aeabf2c15a9c300011acbc3,14:40:23,06/03/2024
6173.900000035763,"<div class = numbox><p style=""font-size: 2.4rem"">Please recall the letters you saw to the best of your ability. If you do not remember a particular letter, use the SKIP button.<br><b>(When you are ready to lock in your answer, press ENTER)</b></p><button id = button_1 class = ""square num-button"" onclick = ""recordClick(this)""><div class = content><div class = numbers>C</div></div></button><button id = button_2 class = ""square num-button"" onclick = ""recordClick(this)""><div class = content><div class = numbers>G</div></div></button><button id = button_3 class = ""square num-button"" onclick = ""recordClick(this)""><div class = content><div class = numbers>H</div></div></button><button id = button_4 class = ""square num-button"" onclick = ""recordClick(this)""><div class = content><div class = numbers>J</div></div></button><button id = button_5 class = ""square num-button"" onclick = ""recordClick(this)""><div class = content><div class = numbers>K</div></div></button><button id = button_6 class = ""square num-button"" onclick = ""recordClick(this)""><div class = content><div class = numbers>L</div></div></button><button id = button_7 class = ""square num-button"" onclick = ""recordClick(this)""><div class = content><div class = numbers>N</div></div></button><button id = button_8 class = ""square num-button"" onclick = ""recordClick(this)""><div class = content><div class = numbers>P</div></div></button><button id = button_9 class = ""square num-button"" onclick = ""recordClick(this)""><div class = content><div class = numbers>Q</div></div></button><button id = button_10 class = ""square num-button"" onclick = ""recordClick(this)""><div class = content><div class = numbers>R</div></div></button><button id = button_11 class = ""square num-button"" onclick = ""recordClick(this)""><div class = content><div class = numbers>S</div></div></button><button id = button_12 class = ""square num-button"" onclick = ""recordClick(this)""><div class = content><div class = numbers>Y</div></div></button><button class = clear_button id = ""ClearButton"" onclick = ""clearResponse()"">BACKSPACE</button><button class = blank_button id = ""BlankButton"" onclick = ""blankResponse()"">SKIP</button><p style=""font-size: 2.4rem""><u><b>Current Answer:</b></u></p><br><br><div id=echoed_txt style=""font-size: 5rem; color:blue;""><b></b></div></div>",enter,ospan,retrieval,nG2BbkvULnPjhDtk6cUtDJFaT8d2,html-keyboard-response,183,1136070,0.0-43.0-6.0-0.0-2.0,33,29,15,5.0,"[""N"",""G"",""P"",""J"",""_""]","[""N"",""G"",""P"",""J"",""C""]",0.0,4.0,,,,,,,5aeabf2c15a9c300011acbc3,14:40:23,06/03/2024
2252.099999964237,[''],0,ospan,feedback,nG2BbkvULnPjhDtk6cUtDJFaT8d2,html-button-response,184,1138833,0.0-43.0-6.0-0.0-3.0,,,,,,,,,,,,100.0,0.0,,5aeabf2c15a9c300011acbc3,14:40:23,06/03/2024
,"<p style=""font-size:75px;"">...</p>",,ospan,iti,nG2BbkvULnPjhDtk6cUtDJFaT8d2,html-keyboard-response,185,1139843,0.0-43.0-6.0-1.0-0.0,,,,,,,,,,,,,,,5aeabf2c15a9c300011acbc3,14:40:23,06/03/2024
3153.0,,,ospan,symmetry,nG2BbkvULnPjhDtk6cUtDJFaT8d2,symmetry-judgement-task,186,1144147,0.0-43.0-6.0-1.0-1.0-0.0,,,,,,,,,,1.0,1.0,,,,5aeabf2c15a9c300011acbc3,14:40:23,06/03/2024
,"<div style=""font-size: 10rem; color: #0000FF"">P</div>",,ospan,letter,nG2BbkvULnPjhDtk6cUtDJFaT8d2,html-keyboard-response,187,1145158,0.0-43.0-6.0-1.0-1.0-1.0,,,,,,,,,,,,,,,5aeabf2c15a9c300011acbc3,14:40:23,06/03/2024
8807.0,,,ospan,symmetry,nG2BbkvULnPjhDtk6cUtDJFaT8d2,symmetry-judgement-task,188,1155883,0.0-43.0-6.0-1.0-1.0-2.0,,,,,,,,,,1.0,1.0,,,,5aeabf2c15a9c300011acbc3,14:40:23,06/03/2024
,"<div style=""font-size: 10rem; color: #0000FF"">S</div>",,ospan,letter,nG2BbkvULnPjhDtk6cUtDJFaT8d2,html-keyboard-response,189,1156891,0.0-43.0-6.0-1.0-1.0-3.0,,,,,,,,,,,,,,,5aeabf2c15a9c300011acbc3,14:40:23,06/03/2024
1491.0,,,ospan,symmetry,nG2BbkvULnPjhDtk6cUtDJFaT8d2,symmetry-judgement-task,190,1160304,0.0-43.0-6.0-1.0-1.0-4.0,,,,,,,,,,1.0,1.0,,,,5aeabf2c15a9c300011acbc3,14:40:23,06/03/2024
,"<div style=""font-size: 10rem; color: #0000FF"">N</div>",,ospan,letter,nG2BbkvULnPjhDtk6cUtDJFaT8d2,html-keyboard-response,191,1161322,0.0-43.0-6.0-1.0-1.0-5.0,,,,,,,,,,,,,,,5aeabf2c15a9c300011acbc3,14:40:23,06/03/2024
4363.0,,,ospan,symmetry,nG2BbkvULnPjhDtk6cUtDJFaT8d2,symmetry-judgement-task,192,1167609,0.0-43.0-6.0-1.0-1.0-6.0,,,,,,,,,,1.0,1.0,,,,5aeabf2c15a9c300011acbc3,14:40:23,06/03/2024
,"<div style=""font-size: 10rem; color: #0000FF"">K</div>",,ospan,letter,nG2BbkvULnPjhDtk6cUtDJFaT8d2,html-keyboard-response,193,1168625,0.0-43.0-6.0-1.0-1.0-7.0,,,,,,,,,,,,,,,5aeabf2c15a9c300011acbc3,14:40:23,06/03/2024
1482.0,,,ospan,symmetry,nG2BbkvULnPjhDtk6cUtDJFaT8d2,symmetry-judgement-task,194,1172035,0.0-43.0-6.0-1.0-1.0-8.0,,,,,,,,,,1.0,1.0,,,,5aeabf2c15a9c300011acbc3,14:40:23,06/03/2024
,"<div style=""font-size: 10rem; color: #0000FF"">C</div>",,ospan,letter,nG2BbkvULnPjhDtk6cUtDJFaT8d2,html-keyboard-response,195,1173054,0.0-43.0-6.0-1.0-1.0-9.0,,,,,,,,,,,,,,,5aeabf2c15a9c300011acbc3,14:40:23,06/03/2024
3411.0,,,ospan,symmetry,nG2BbkvULnPjhDtk6cUtDJFaT8d2,symmetry-judgement-task,196,1178391,0.0-43.0-6.0-1.0-1.0-10.0,,,,,,,,,,1.0,1.0,,,,5aeabf2c15a9c300011acbc3,14:40:23,06/03/2024
,"<div style=""font-size: 10rem; color: #0000FF"">H</div>",,ospan,letter,nG2BbkvULnPjhDtk6cUtDJFaT8d2,html-keyboard-response,197,1179401,0.0-43.0-6.0-1.0-1.0-11.0,,,,,,,,,,,,,,,5aeabf2c15a9c300011acbc3,14:40:23,06/03/2024
5636.0,,,ospan,symmetry,nG2BbkvULnPjhDtk6cUtDJFaT8d2,symmetry-judgement-task,198,1186953,0.0-43.0-6.0-1.0-1.0-12.0,,,,,,,,,,1.0,1.0,,,,5aeabf2c15a9c300011acbc3,14:40:23,06/03/2024
,"<div style=""font-size: 10rem; color: #0000FF"">G</div>",,ospan,letter,nG2BbkvULnPjhDtk6cUtDJFaT8d2,html-keyboard-response,199,1187969,0.0-43.0-6.0-1.0-1.0-13.0,,,,,,,,,,,,,,,5aeabf2c15a9c300011acbc3,14:40:23,06/03/2024
7523.0,,,ospan,symmetry,nG2BbkvULnPjhDtk6cUtDJFaT8d2,symmetry-judgement-task,200,1197398,0.0-43.0-6.0-1.0-1.0-14.0,,,,,,,,,,0.0,0.0,,,,5aeabf2c15a9c300011acbc3,14:40:23,06/03/2024
,"<div style=""font-size: 10rem; color: #0000FF"">L</div>",,ospan,letter,nG2BbkvULnPjhDtk6cUtDJFaT8d2,html-keyboard-response,201,1198407,0.0-43.0-6.0-1.0-1.0-15.0,,,,,,,,,,,,,,,5aeabf2c15a9c300011acbc3,14:40:23,06/03/2024
10539.700000047684,"<div class = numbox><p style=""font-size: 2.4rem"">Please recall the letters you saw to the best of your ability. If you do not remember a particular letter, use the SKIP button.<br><b>(When you are ready to lock in your answer, press ENTER)</b></p><button id = button_1 class = ""square num-button"" onclick = ""recordClick(this)""><div class = content><div class = numbers>C</div></div></button><button id = button_2 class = ""square num-button"" onclick = ""recordClick(this)""><div class = content><div class = numbers>G</div></div></button><button id = button_3 class = ""square num-button"" onclick = ""recordClick(this)""><div class = content><div class = numbers>H</div></div></button><button id = button_4 class = ""square num-button"" onclick = ""recordClick(this)""><div class = content><div class = numbers>J</div></div></button><button id = button_5 class = ""square num-button"" onclick = ""recordClick(this)""><div class = content><div class = numbers>K</div></div></button><button id = button_6 class = ""square num-button"" onclick = ""recordClick(this)""><div class = content><div class = numbers>L</div></div></button><button id = button_7 class = ""square num-button"" onclick = ""recordClick(this)""><div class = content><div class = numbers>N</div></div></button><button id = button_8 class = ""square num-button"" onclick = ""recordClick(this)""><div class = content><div class = numbers>P</div></div></button><button id = button_9 class = ""square num-button"" onclick = ""recordClick(this)""><div class = content><div class = numbers>Q</div></div></button><button id = button_10 class = ""square num-button"" onclick = ""recordClick(this)""><div class = content><div class = numbers>R</div></div></button><button id = button_11 class = ""square num-button"" onclick = ""recordClick(this)""><div class = content><div class = numbers>S</div></div></button><button id = button_12 class = ""square num-button"" onclick = ""recordClick(this)""><div class = content><div class = numbers>Y</div></div></button><button class = clear_button id = ""ClearButton"" onclick = ""clearResponse()"">BACKSPACE</button><button class = blank_button id = ""BlankButton"" onclick = ""blankResponse()"">SKIP</button><p style=""font-size: 2.4rem""><u><b>Current Answer:</b></u></p><br><br><div id=echoed_txt style=""font-size: 5rem; color:blue;""><b></b></div></div>",enter,ospan,retrieval,nG2BbkvULnPjhDtk6cUtDJFaT8d2,html-keyboard-response,202,1209706,0.0-43.0-6.0-1.0-2.0,41,34,15,8.0,"[""P"",""S"",""N"",""K"",""H"",""J"",""G"",""_""]","[""P"",""S"",""N"",""K"",""C"",""H"",""G"",""L""]",0.0,5.0,,,,,,,5aeabf2c15a9c300011acbc3,14:40:23,06/03/2024
903.6999999880791,[''],0,ospan,feedback,nG2BbkvULnPjhDtk6cUtDJFaT8d2,html-button-response,203,1211114,0.0-43.0-6.0-1.0-3.0,,,,,,,,,,,,98.0,0.0,,5aeabf2c15a9c300011acbc3,14:40:23,06/03/2024
22185.299999952316,,{'Q0': 'It was all clear and enjoyable to complete. I do not think anything could be improved on this part.'},ospan,survey_ospan,nG2BbkvULnPjhDtk6cUtDJFaT8d2,lmdlab-survey-text,204,1234060,0.0-43.0-7.0,,,,,,,,,,,,,,nG2BbkvULnPjhDtk6cUtDJFaT8d2,5aeabf2c15a9c300011acbc3,14:40:23,06/03/2024
1692.2999999523163,<p><p style='font-size: 3rem'>Great work!<br><br>This completes the symmetry and memory task.</p><br><br><br>,0,ospan,finish,nG2BbkvULnPjhDtk6cUtDJFaT8d2,html-button-response,205,1235758,0.0-43.0-8.0,41,34,15,,,,,,,,,98.0,,,5aeabf2c15a9c300011acbc3,14:40:23,06/03/2024
