rt,stimulus,response,exp_name,exp_stage,subjectID,trial_type,trial_index,time_elapsed,internal_node_id,ospan_shown,ospan_total,ospan_abs,length,resp_actual,resp_correct,full_correct,num_correct,feedback,accuracy,correct,math_acc,math_warning,databaseID,prolificID,start_time,date
1840.5999999940395,<div class = 'left_align' style='font-size: 3.25rem; line-height: 1.3;'><p class = 'center_align'><b>Welcome to the Symmetry and Memory Task</b><br><br><br><br></p>Press 'continue' to show the instructions.<br><br><br><br></div>,0,ospan,instruct,JMQykHIUxXO8NIg4fJxTp98esJQ2,html-button-response,51,669690,0.0-43.0-0.0-0.0-0.0,,,,,,,,,,,,,,,5dbe90f8965e863667a79ca8,18:14:45,06/03/2024
6272.20000000298,"<div class = 'left_align' style='font-size: 3.25rem; line-height: 1.3;'><p class = 'center_align'><b>Symmetry and Memory Task</b><br><br></p>In this task, you will try to memorize letters you see on the screen<br>while you also view black and white grid pictures.<br><br>In the next few minutes, you will have some practice to get you familiar<br>with how the task works.<br><br>It may be difficult sometimes, but please do not worry about making mistakes!<br><br>We will begin by practicing the letter part of the task.<br><br><br><br></div>",0,ospan,instruct,JMQykHIUxXO8NIg4fJxTp98esJQ2,html-button-response,52,676228,0.0-43.0-0.0-0.0-1.0,,,,,,,,,,,,,,,5dbe90f8965e863667a79ca8,18:14:45,06/03/2024
8134.9000000059605,"<div class = 'left_align' style='font-size: 3.25rem; line-height: 1.3;'>For this practice part, letters will appear on the screen one at a time.<br><br>Try to remember each letter in the order presented.<br><br>After some letters have been shown, you will see a response screen. Your<br>goal is to report the letters you saw <b>in order</b>. If you do not remember<br>a particular letter, you will have the option to leave it blank.<br><br><br><br></div>",0,ospan,instruct,JMQykHIUxXO8NIg4fJxTp98esJQ2,html-button-response,53,684625,0.0-43.0-0.0-0.0-2.0,,,,,,,,,,,,,,,5dbe90f8965e863667a79ca8,18:14:45,06/03/2024
3726.0,"<div class = 'left_align' style='font-size: 3.25rem; line-height: 1.3;'>Remember, it is very important to get the letters in the same<br>order as you see them.<br><br>When you are ready, you may begin the letter practice.</div><br><br><br><br>",0,ospan,instruct,JMQykHIUxXO8NIg4fJxTp98esJQ2,html-button-response,54,688616,0.0-43.0-0.0-0.0-3.0,,,,,,,,,,,,,,,5dbe90f8965e863667a79ca8,18:14:45,06/03/2024
,"<p style=""font-size:75px;"">...</p>",,ospan,iti,JMQykHIUxXO8NIg4fJxTp98esJQ2,html-keyboard-response,55,689891,0.0-43.0-0.0-1.0-0.0,,,,,,,,,,,,,,,5dbe90f8965e863667a79ca8,18:14:45,06/03/2024
,"<div style=""font-size: 10rem; color: #0000FF"">Y</div>",,ospan,letter,JMQykHIUxXO8NIg4fJxTp98esJQ2,html-keyboard-response,56,690906,0.0-43.0-0.0-1.0-1.0,,,,,,,,,,,,,,,5dbe90f8965e863667a79ca8,18:14:45,06/03/2024
,"<div style=""font-size: 10rem; color: #0000FF"">S</div>",,ospan,letter,JMQykHIUxXO8NIg4fJxTp98esJQ2,html-keyboard-response,57,692671,0.0-43.0-0.0-1.0-2.0,,,,,,,,,,,,,,,5dbe90f8965e863667a79ca8,18:14:45,06/03/2024
5473.800000011921,"<div class = numbox><p style=""font-size: 2.4rem"">Please recall the letters you saw to the best of your ability. If you do not remember a particular letter, use the SKIP button.<br><b>(When you are ready to lock in your answer, press ENTER)</b></p><button id = button_1 class = ""square num-button"" onclick = ""recordClick(this)""><div class = content><div class = numbers>C</div></div></button><button id = button_2 class = ""square num-button"" onclick = ""recordClick(this)""><div class = content><div class = numbers>G</div></div></button><button id = button_3 class = ""square num-button"" onclick = ""recordClick(this)""><div class = content><div class = numbers>H</div></div></button><button id = button_4 class = ""square num-button"" onclick = ""recordClick(this)""><div class = content><div class = numbers>J</div></div></button><button id = button_5 class = ""square num-button"" onclick = ""recordClick(this)""><div class = content><div class = numbers>K</div></div></button><button id = button_6 class = ""square num-button"" onclick = ""recordClick(this)""><div class = content><div class = numbers>L</div></div></button><button id = button_7 class = ""square num-button"" onclick = ""recordClick(this)""><div class = content><div class = numbers>N</div></div></button><button id = button_8 class = ""square num-button"" onclick = ""recordClick(this)""><div class = content><div class = numbers>P</div></div></button><button id = button_9 class = ""square num-button"" onclick = ""recordClick(this)""><div class = content><div class = numbers>Q</div></div></button><button id = button_10 class = ""square num-button"" onclick = ""recordClick(this)""><div class = content><div class = numbers>R</div></div></button><button id = button_11 class = ""square num-button"" onclick = ""recordClick(this)""><div class = content><div class = numbers>S</div></div></button><button id = button_12 class = ""square num-button"" onclick = ""recordClick(this)""><div class = content><div class = numbers>Y</div></div></button><button class = clear_button id = ""ClearButton"" onclick = ""clearResponse()"">BACKSPACE</button><button class = blank_button id = ""BlankButton"" onclick = ""blankResponse()"">SKIP</button><p style=""font-size: 2.4rem""><u><b>Current Answer:</b></u></p><br><br><div id=echoed_txt style=""font-size: 5rem; color:blue;""><b></b></div></div>",enter,ospan,retrieval,JMQykHIUxXO8NIg4fJxTp98esJQ2,html-keyboard-response,58,698903,0.0-43.0-0.0-1.0-3.0,NA,NA,NA,2.0,"[""Y"",""S""]","[""Y"",""S""]",1.0,2.0,"['<font color=""green"">Y</font>', '<font color=""green"">S</font>']",,,,,,5dbe90f8965e863667a79ca8,18:14:45,06/03/2024
1711.2000000029802,"['<p style=""font-size:44px"">Letters:<br><br><br><font color=""green"">Y</font> <font color=""green"">S</font></p><br><br>']",0,ospan,practice_feedback,JMQykHIUxXO8NIg4fJxTp98esJQ2,html-button-response,59,701117,0.0-43.0-0.0-1.0-4.0,,,,,,,,,,,,,,,5dbe90f8965e863667a79ca8,18:14:45,06/03/2024
,"<p style=""font-size:75px;"">...</p>",,ospan,iti,JMQykHIUxXO8NIg4fJxTp98esJQ2,html-keyboard-response,60,702130,0.0-43.0-0.0-2.0-0.0,,,,,,,,,,,,,,,5dbe90f8965e863667a79ca8,18:14:45,06/03/2024
,"<div style=""font-size: 10rem; color: #0000FF"">Q</div>",,ospan,letter,JMQykHIUxXO8NIg4fJxTp98esJQ2,html-keyboard-response,61,703145,0.0-43.0-0.0-2.0-1.0,,,,,,,,,,,,,,,5dbe90f8965e863667a79ca8,18:14:45,06/03/2024
,"<div style=""font-size: 10rem; color: #0000FF"">L</div>",,ospan,letter,JMQykHIUxXO8NIg4fJxTp98esJQ2,html-keyboard-response,62,704910,0.0-43.0-0.0-2.0-2.0,,,,,,,,,,,,,,,5dbe90f8965e863667a79ca8,18:14:45,06/03/2024
,"<div style=""font-size: 10rem; color: #0000FF"">H</div>",,ospan,letter,JMQykHIUxXO8NIg4fJxTp98esJQ2,html-keyboard-response,63,706681,0.0-43.0-0.0-2.0-3.0,,,,,,,,,,,,,,,5dbe90f8965e863667a79ca8,18:14:45,06/03/2024
5849.0,"<div class = numbox><p style=""font-size: 2.4rem"">Please recall the letters you saw to the best of your ability. If you do not remember a particular letter, use the SKIP button.<br><b>(When you are ready to lock in your answer, press ENTER)</b></p><button id = button_1 class = ""square num-button"" onclick = ""recordClick(this)""><div class = content><div class = numbers>C</div></div></button><button id = button_2 class = ""square num-button"" onclick = ""recordClick(this)""><div class = content><div class = numbers>G</div></div></button><button id = button_3 class = ""square num-button"" onclick = ""recordClick(this)""><div class = content><div class = numbers>H</div></div></button><button id = button_4 class = ""square num-button"" onclick = ""recordClick(this)""><div class = content><div class = numbers>J</div></div></button><button id = button_5 class = ""square num-button"" onclick = ""recordClick(this)""><div class = content><div class = numbers>K</div></div></button><button id = button_6 class = ""square num-button"" onclick = ""recordClick(this)""><div class = content><div class = numbers>L</div></div></button><button id = button_7 class = ""square num-button"" onclick = ""recordClick(this)""><div class = content><div class = numbers>N</div></div></button><button id = button_8 class = ""square num-button"" onclick = ""recordClick(this)""><div class = content><div class = numbers>P</div></div></button><button id = button_9 class = ""square num-button"" onclick = ""recordClick(this)""><div class = content><div class = numbers>Q</div></div></button><button id = button_10 class = ""square num-button"" onclick = ""recordClick(this)""><div class = content><div class = numbers>R</div></div></button><button id = button_11 class = ""square num-button"" onclick = ""recordClick(this)""><div class = content><div class = numbers>S</div></div></button><button id = button_12 class = ""square num-button"" onclick = ""recordClick(this)""><div class = content><div class = numbers>Y</div></div></button><button class = clear_button id = ""ClearButton"" onclick = ""clearResponse()"">BACKSPACE</button><button class = blank_button id = ""BlankButton"" onclick = ""blankResponse()"">SKIP</button><p style=""font-size: 2.4rem""><u><b>Current Answer:</b></u></p><br><br><div id=echoed_txt style=""font-size: 5rem; color:blue;""><b></b></div></div>",enter,ospan,retrieval,JMQykHIUxXO8NIg4fJxTp98esJQ2,html-keyboard-response,64,713286,0.0-43.0-0.0-2.0-4.0,NA,NA,NA,3.0,"[""Q"",""L"",""H""]","[""Q"",""L"",""H""]",1.0,3.0,"['<font color=""green"">Q</font>', '<font color=""green"">L</font>', '<font color=""green"">H</font>']",,,,,,5dbe90f8965e863667a79ca8,18:14:45,06/03/2024
1562.0999999940395,"['<p style=""font-size:44px"">Letters:<br><br><br><font color=""green"">Q</font> <font color=""green"">L</font> <font color=""green"">H</font></p><br><br>']",0,ospan,practice_feedback,JMQykHIUxXO8NIg4fJxTp98esJQ2,html-button-response,65,715350,0.0-43.0-0.0-2.0-5.0,,,,,,,,,,,,,,,5dbe90f8965e863667a79ca8,18:14:45,06/03/2024
8406.60000000894,"<div class = 'left_align' style='font-size: 3.25rem; line-height: 1.3;'>Now you will practice doing the <b>symmetry judgment part</b> of the experiment.<br><br>A black and white grid picture will appear on the screen and you have to judge if it is <br>symmetrical or asymetrical.<br><br>A picture is 'mirror' symmetrical if its left half is identical to the right half when flipped.<br>Here are examples of a symmetrical and an asymetrical picture:<br><br><center><img src='Stimuli/img/symm_instructions_extra.png' style='height:420px; width:900'></img></center><br>To judge symmetry, imagine you were to fold each picture down the middle, like a book –<br>would the left half match the right half when folded onto each other?<br><br></div><br>",0,ospan,instruct,JMQykHIUxXO8NIg4fJxTp98esJQ2,html-button-response,66,723758,0.0-43.0-1.0-0.0-0.0,,,,,,,,,,,,,,,5dbe90f8965e863667a79ca8,18:14:45,06/03/2024
1950.300000011921,"<div class = 'left_align' style='font-size: 3.25rem; line-height: 1.3;'>When you have viewed the picture and determined whether it is symmetrical or not,<br>you can <b>click the Yes or No button</b> below to answer.<br><br>If you take longer than 15 seconds, it will continue automatically<br>and record the answer as an error.</div><br>",0,ospan,instruct,JMQykHIUxXO8NIg4fJxTp98esJQ2,html-button-response,67,725971,0.0-43.0-1.0-0.0-1.0,,,,,,,,,,,,,,,5dbe90f8965e863667a79ca8,18:14:45,06/03/2024
3805.6000000089407,"<div class = 'left_align' style='font-size: 3.25rem; line-height: 1.3;'>It is <b>very</b> important that you make the symmetry judgment correctly.<br><br>It is also important that you try and judge the picture as quickly as you can.<br><br>When you are ready, click on the button below to try some practice problems.</div><br><br><br><br>",0,ospan,instruct,JMQykHIUxXO8NIg4fJxTp98esJQ2,html-button-response,68,730027,0.0-43.0-1.0-0.0-2.0,,,,,,,,,,,,,,,5dbe90f8965e863667a79ca8,18:14:45,06/03/2024
2215.0,,,ospan,symmetry,JMQykHIUxXO8NIg4fJxTp98esJQ2,symmetry-judgement-task,69,733049,0.0-43.0-1.0-1.0-0.0,,,,,,,,,,1.0,1.0,,,,5dbe90f8965e863667a79ca8,18:14:45,06/03/2024
,"<p style=""color:green; font-size: 35px"">Correct</p>",,ospan,feedback,JMQykHIUxXO8NIg4fJxTp98esJQ2,html-keyboard-response,70,733803,0.0-43.0-1.0-1.0-1.0,,,,,,,,,,,,,,,5dbe90f8965e863667a79ca8,18:14:45,06/03/2024
1753.0,,,ospan,symmetry,JMQykHIUxXO8NIg4fJxTp98esJQ2,symmetry-judgement-task,71,738286,0.0-43.0-1.0-1.0-2.0,,,,,,,,,,1.0,1.0,,,,5dbe90f8965e863667a79ca8,18:14:45,06/03/2024
,"<p style=""color:green; font-size: 35px"">Correct</p>",,ospan,feedback,JMQykHIUxXO8NIg4fJxTp98esJQ2,html-keyboard-response,72,739050,0.0-43.0-1.0-1.0-3.0,,,,,,,,,,,,,,,5dbe90f8965e863667a79ca8,18:14:45,06/03/2024
1869.0,,,ospan,symmetry,JMQykHIUxXO8NIg4fJxTp98esJQ2,symmetry-judgement-task,73,743623,0.0-43.0-1.0-1.0-4.0,,,,,,,,,,1.0,1.0,,,,5dbe90f8965e863667a79ca8,18:14:45,06/03/2024
,"<p style=""color:green; font-size: 35px"">Correct</p>",,ospan,feedback,JMQykHIUxXO8NIg4fJxTp98esJQ2,html-keyboard-response,74,744386,0.0-43.0-1.0-1.0-5.0,,,,,,,,,,,,,,,5dbe90f8965e863667a79ca8,18:14:45,06/03/2024
1067.3999999910593,"<p style=""font-size: 3rem;"">You responded correctly on 3 of 3 symmetry judgments. Good job!</p><br><br>",0,ospan,practice,JMQykHIUxXO8NIg4fJxTp98esJQ2,html-button-response,75,747461,0.0-43.0-1.0-2.0,,,,,,,,,,,,,,,5dbe90f8965e863667a79ca8,18:14:45,06/03/2024
1875.0,"<div class = 'left_align' style='font-size: 3.25rem; line-height: 1.3;'>Now you will practice doing both parts of the experiment at the same time.<br><br>In the next practice set, you will be given one grid picture to judge.<br>Then letter will appear on the screen. Try to remember the letter.<br><br>It is <b>very important</b> to make the symmetry judgment as quickly and accurately as possible.<br><br>Just as before, once you have make the symmetry judgment, you can click Yes or No.<br><b>Note that you will no longer see Correct or Incorrect feedback.</div><br><br><br><br>",0,ospan,instruct,JMQykHIUxXO8NIg4fJxTp98esJQ2,html-button-response,76,749600,0.0-43.0-2.0-0.0-0.0,,,,,,,,,,,,,,,5dbe90f8965e863667a79ca8,18:14:45,06/03/2024
2153.0999999940395,"<div class = 'left_align' style='font-size: 3.25rem; line-height: 1.3;'>After the letter goes away, another grid picture will appear, and then<br>another letter.<br><br>At the end of each set of letters and grids, you will recall the letters to the best<br>of your ability. Remember, try your best to get the letters in the correct order.<br><br>It is important to <b>quickly</b> and <b>accurately</b> make the symmetry judgments.</div><br><br><br><br>",0,ospan,instruct,JMQykHIUxXO8NIg4fJxTp98esJQ2,html-button-response,77,752019,0.0-43.0-2.0-0.0-1.0,,,,,,,,,,,,,,,5dbe90f8965e863667a79ca8,18:14:45,06/03/2024
2099.9000000059605,"<div class = 'left_align' style='font-size: 3.25rem; line-height: 1.3;'>On the feedback screen, if you are not doing well at the symmetry judgments,<br>you will also see a warning in the middle. This indicates your percent <br>correct for the grid pictures for the entire experiment.<br><br>It is <b>very</b> important for you to keep accuracy at least at 85%: <u>We can only use<br>data where the participant was at least 85% accurate on the judgments.</u> Therefore,<br> please try your best to perform well on the symmetry judgments, <b>at the same time</b><br>doing your best to recall as many letters as possible.<br><br>Click the button to try some practice problems.</div><br><br><br><br>",0,ospan,instruct,JMQykHIUxXO8NIg4fJxTp98esJQ2,html-button-response,78,754383,0.0-43.0-2.0-0.0-2.0,,,,,,,,,,,,,,,5dbe90f8965e863667a79ca8,18:14:45,06/03/2024
,"<p style=""font-size:75px;"">...</p>",,ospan,iti,JMQykHIUxXO8NIg4fJxTp98esJQ2,html-keyboard-response,79,755661,0.0-43.0-2.0-1.0-0.0,,,,,,,,,,,,,,,5dbe90f8965e863667a79ca8,18:14:45,06/03/2024
2033.0,,,ospan,symmetry,JMQykHIUxXO8NIg4fJxTp98esJQ2,symmetry-judgement-task,80,758867,0.0-43.0-2.0-1.0-1.0-0.0,,,,,,,,,,1.0,1.0,,,,5dbe90f8965e863667a79ca8,18:14:45,06/03/2024
,"<div style=""font-size: 10rem; color: #0000FF"">N</div>",,ospan,letter,JMQykHIUxXO8NIg4fJxTp98esJQ2,html-keyboard-response,81,759882,0.0-43.0-2.0-1.0-1.0-1.0,,,,,,,,,,,,,,,5dbe90f8965e863667a79ca8,18:14:45,06/03/2024
2467.0,,,ospan,symmetry,JMQykHIUxXO8NIg4fJxTp98esJQ2,symmetry-judgement-task,82,764287,0.0-43.0-2.0-1.0-1.0-2.0,,,,,,,,,,1.0,1.0,,,,5dbe90f8965e863667a79ca8,18:14:45,06/03/2024
,"<div style=""font-size: 10rem; color: #0000FF"">S</div>",,ospan,letter,JMQykHIUxXO8NIg4fJxTp98esJQ2,html-keyboard-response,83,765300,0.0-43.0-2.0-1.0-1.0-3.0,,,,,,,,,,,,,,,5dbe90f8965e863667a79ca8,18:14:45,06/03/2024
2367.0,,,ospan,symmetry,JMQykHIUxXO8NIg4fJxTp98esJQ2,symmetry-judgement-task,84,769611,0.0-43.0-2.0-1.0-1.0-4.0,,,,,,,,,,1.0,1.0,,,,5dbe90f8965e863667a79ca8,18:14:45,06/03/2024
,"<div style=""font-size: 10rem; color: #0000FF"">C</div>",,ospan,letter,JMQykHIUxXO8NIg4fJxTp98esJQ2,html-keyboard-response,85,770624,0.0-43.0-2.0-1.0-1.0-5.0,,,,,,,,,,,,,,,5dbe90f8965e863667a79ca8,18:14:45,06/03/2024
5414.29999999702,"<div class = numbox><p style=""font-size: 2.4rem"">Please recall the letters you saw to the best of your ability. If you do not remember a particular letter, use the SKIP button.<br><b>(When you are ready to lock in your answer, press ENTER)</b></p><button id = button_1 class = ""square num-button"" onclick = ""recordClick(this)""><div class = content><div class = numbers>C</div></div></button><button id = button_2 class = ""square num-button"" onclick = ""recordClick(this)""><div class = content><div class = numbers>G</div></div></button><button id = button_3 class = ""square num-button"" onclick = ""recordClick(this)""><div class = content><div class = numbers>H</div></div></button><button id = button_4 class = ""square num-button"" onclick = ""recordClick(this)""><div class = content><div class = numbers>J</div></div></button><button id = button_5 class = ""square num-button"" onclick = ""recordClick(this)""><div class = content><div class = numbers>K</div></div></button><button id = button_6 class = ""square num-button"" onclick = ""recordClick(this)""><div class = content><div class = numbers>L</div></div></button><button id = button_7 class = ""square num-button"" onclick = ""recordClick(this)""><div class = content><div class = numbers>N</div></div></button><button id = button_8 class = ""square num-button"" onclick = ""recordClick(this)""><div class = content><div class = numbers>P</div></div></button><button id = button_9 class = ""square num-button"" onclick = ""recordClick(this)""><div class = content><div class = numbers>Q</div></div></button><button id = button_10 class = ""square num-button"" onclick = ""recordClick(this)""><div class = content><div class = numbers>R</div></div></button><button id = button_11 class = ""square num-button"" onclick = ""recordClick(this)""><div class = content><div class = numbers>S</div></div></button><button id = button_12 class = ""square num-button"" onclick = ""recordClick(this)""><div class = content><div class = numbers>Y</div></div></button><button class = clear_button id = ""ClearButton"" onclick = ""clearResponse()"">BACKSPACE</button><button class = blank_button id = ""BlankButton"" onclick = ""blankResponse()"">SKIP</button><p style=""font-size: 2.4rem""><u><b>Current Answer:</b></u></p><br><br><div id=echoed_txt style=""font-size: 5rem; color:blue;""><b></b></div></div>",enter,ospan,retrieval,JMQykHIUxXO8NIg4fJxTp98esJQ2,html-keyboard-response,86,776804,0.0-43.0-2.0-1.0-2.0-0.0,NA,NA,NA,3.0,"[""N"",""S"",""C""]","[""N"",""S"",""C""]",1.0,3.0,"['<font color=""green"">N</font>', '<font color=""green"">S</font>', '<font color=""green"">C</font>']",,,,,,5dbe90f8965e863667a79ca8,18:14:45,06/03/2024
1995.0999999940395,"['<p style=""font-size:44px"">Letters:<br><br><br><font color=""green"">N</font> <font color=""green"">S</font> <font color=""green"">C</font></p><br><br><p style=""font-size:30px"">Symmetry:<br><br><font color=""green"">100%</font></p><br><br>']",0,ospan,practice_feedback,JMQykHIUxXO8NIg4fJxTp98esJQ2,html-button-response,87,779314,0.0-43.0-2.0-1.0-2.0-1.0,,,,,,,,,,,,,,,5dbe90f8965e863667a79ca8,18:14:45,06/03/2024
,"<p style=""font-size:75px;"">...</p>",,ospan,iti,JMQykHIUxXO8NIg4fJxTp98esJQ2,html-keyboard-response,88,780325,0.0-43.0-2.0-2.0-0.0,,,,,,,,,,,,,,,5dbe90f8965e863667a79ca8,18:14:45,06/03/2024
2302.0,,,ospan,symmetry,JMQykHIUxXO8NIg4fJxTp98esJQ2,symmetry-judgement-task,89,783818,0.0-43.0-2.0-2.0-1.0-0.0,,,,,,,,,,1.0,1.0,,,,5dbe90f8965e863667a79ca8,18:14:45,06/03/2024
,"<div style=""font-size: 10rem; color: #0000FF"">H</div>",,ospan,letter,JMQykHIUxXO8NIg4fJxTp98esJQ2,html-keyboard-response,90,784829,0.0-43.0-2.0-2.0-1.0-1.0,,,,,,,,,,,,,,,5dbe90f8965e863667a79ca8,18:14:45,06/03/2024
2378.0,,,ospan,symmetry,JMQykHIUxXO8NIg4fJxTp98esJQ2,symmetry-judgement-task,91,789154,0.0-43.0-2.0-2.0-1.0-2.0,,,,,,,,,,1.0,1.0,,,,5dbe90f8965e863667a79ca8,18:14:45,06/03/2024
,"<div style=""font-size: 10rem; color: #0000FF"">N</div>",,ospan,letter,JMQykHIUxXO8NIg4fJxTp98esJQ2,html-keyboard-response,92,790168,0.0-43.0-2.0-2.0-1.0-3.0,,,,,,,,,,,,,,,5dbe90f8965e863667a79ca8,18:14:45,06/03/2024
2513.0,,,ospan,symmetry,JMQykHIUxXO8NIg4fJxTp98esJQ2,symmetry-judgement-task,93,794627,0.0-43.0-2.0-2.0-1.0-4.0,,,,,,,,,,1.0,1.0,,,,5dbe90f8965e863667a79ca8,18:14:45,06/03/2024
,"<div style=""font-size: 10rem; color: #0000FF"">J</div>",,ospan,letter,JMQykHIUxXO8NIg4fJxTp98esJQ2,html-keyboard-response,94,795629,0.0-43.0-2.0-2.0-1.0-5.0,,,,,,,,,,,,,,,5dbe90f8965e863667a79ca8,18:14:45,06/03/2024
6420.399999991059,"<div class = numbox><p style=""font-size: 2.4rem"">Please recall the letters you saw to the best of your ability. If you do not remember a particular letter, use the SKIP button.<br><b>(When you are ready to lock in your answer, press ENTER)</b></p><button id = button_1 class = ""square num-button"" onclick = ""recordClick(this)""><div class = content><div class = numbers>C</div></div></button><button id = button_2 class = ""square num-button"" onclick = ""recordClick(this)""><div class = content><div class = numbers>G</div></div></button><button id = button_3 class = ""square num-button"" onclick = ""recordClick(this)""><div class = content><div class = numbers>H</div></div></button><button id = button_4 class = ""square num-button"" onclick = ""recordClick(this)""><div class = content><div class = numbers>J</div></div></button><button id = button_5 class = ""square num-button"" onclick = ""recordClick(this)""><div class = content><div class = numbers>K</div></div></button><button id = button_6 class = ""square num-button"" onclick = ""recordClick(this)""><div class = content><div class = numbers>L</div></div></button><button id = button_7 class = ""square num-button"" onclick = ""recordClick(this)""><div class = content><div class = numbers>N</div></div></button><button id = button_8 class = ""square num-button"" onclick = ""recordClick(this)""><div class = content><div class = numbers>P</div></div></button><button id = button_9 class = ""square num-button"" onclick = ""recordClick(this)""><div class = content><div class = numbers>Q</div></div></button><button id = button_10 class = ""square num-button"" onclick = ""recordClick(this)""><div class = content><div class = numbers>R</div></div></button><button id = button_11 class = ""square num-button"" onclick = ""recordClick(this)""><div class = content><div class = numbers>S</div></div></button><button id = button_12 class = ""square num-button"" onclick = ""recordClick(this)""><div class = content><div class = numbers>Y</div></div></button><button class = clear_button id = ""ClearButton"" onclick = ""clearResponse()"">BACKSPACE</button><button class = blank_button id = ""BlankButton"" onclick = ""blankResponse()"">SKIP</button><p style=""font-size: 2.4rem""><u><b>Current Answer:</b></u></p><br><br><div id=echoed_txt style=""font-size: 5rem; color:blue;""><b></b></div></div>",enter,ospan,retrieval,JMQykHIUxXO8NIg4fJxTp98esJQ2,html-keyboard-response,95,802815,0.0-43.0-2.0-2.0-2.0-0.0,NA,NA,NA,3.0,"[""H"",""N"",""J""]","[""H"",""N"",""J""]",1.0,3.0,"['<font color=""green"">H</font>', '<font color=""green"">N</font>', '<font color=""green"">J</font>']",,,,,,5dbe90f8965e863667a79ca8,18:14:45,06/03/2024
1300.5,"['<p style=""font-size:44px"">Letters:<br><br><br><font color=""green"">H</font> <font color=""green"">N</font> <font color=""green"">J</font></p><br><br><p style=""font-size:30px"">Symmetry:<br><br><font color=""green"">100%</font></p><br><br>']",0,ospan,practice_feedback,JMQykHIUxXO8NIg4fJxTp98esJQ2,html-button-response,96,804619,0.0-43.0-2.0-2.0-2.0-1.0,,,,,,,,,,,,,,,5dbe90f8965e863667a79ca8,18:14:45,06/03/2024
4688.5,"<div class = 'left_align' style='font-size: 3rem; line-height: 1.3;'><b>Great work! That is the end of practice.</b><br><br>The real trials will look just like the practice trials you just completed.<br><br><u>Here, you will not see feedback</u>. First, you will see an grid picture to judge,<br>then a letter to remember. When the recall screen appears, report the letters in the<br>order presented. If you forget a letter, remember to use the <b>blank</b> button to move to the<br>next letter. Some of the sets will have more symmetry grids and letters than others.<br><br>It is important that you do your best on both the symmetry judgments and the letter recall<br>parts of the experiment. For for the symmetry judgments, try to work as <b>quickly</b> and <br>as <b>accurately</b> as possible. Remember to keep your symmetry accuracy at 85% or above.<br><br><b>For the letters, do NOT use any external aid (e.g., writing on paper, electronic device).</b><br><br>It is <u>very important</u> to our experiment to have a <b>true</b> view of your real performance.<br><br>Do not worry if you miss some when it gets hard! This task is meant to be very challenging!<br><br>Click the button to begin.</div><br><br><br><br>",0,ospan,starting_real_here,JMQykHIUxXO8NIg4fJxTp98esJQ2,html-button-response,97,809309,0.0-43.0-2.0-3.0,,,,,,,,,,,,,,,5dbe90f8965e863667a79ca8,18:14:45,06/03/2024
,"<p style=""font-size:75px;"">...</p>",,ospan,iti,JMQykHIUxXO8NIg4fJxTp98esJQ2,html-keyboard-response,98,810584,0.0-43.0-3.0-0.0-0.0,,,,,,,,,,,,,,,5dbe90f8965e863667a79ca8,18:14:45,06/03/2024
2265.0,,,ospan,symmetry,JMQykHIUxXO8NIg4fJxTp98esJQ2,symmetry-judgement-task,99,814029,0.0-43.0-3.0-0.0-1.0-0.0,,,,,,,,,,1.0,1.0,,,,5dbe90f8965e863667a79ca8,18:14:45,06/03/2024
,"<div style=""font-size: 10rem; color: #0000FF"">Q</div>",,ospan,letter,JMQykHIUxXO8NIg4fJxTp98esJQ2,html-keyboard-response,100,815042,0.0-43.0-3.0-0.0-1.0-1.0,,,,,,,,,,,,,,,5dbe90f8965e863667a79ca8,18:14:45,06/03/2024
3473.0,,,ospan,symmetry,JMQykHIUxXO8NIg4fJxTp98esJQ2,symmetry-judgement-task,101,820459,0.0-43.0-3.0-0.0-1.0-2.0,,,,,,,,,,1.0,1.0,,,,5dbe90f8965e863667a79ca8,18:14:45,06/03/2024
,"<div style=""font-size: 10rem; color: #0000FF"">L</div>",,ospan,letter,JMQykHIUxXO8NIg4fJxTp98esJQ2,html-keyboard-response,102,821471,0.0-43.0-3.0-0.0-1.0-3.0,,,,,,,,,,,,,,,5dbe90f8965e863667a79ca8,18:14:45,06/03/2024
1928.0,,,ospan,symmetry,JMQykHIUxXO8NIg4fJxTp98esJQ2,symmetry-judgement-task,103,825344,0.0-43.0-3.0-0.0-1.0-4.0,,,,,,,,,,1.0,1.0,,,,5dbe90f8965e863667a79ca8,18:14:45,06/03/2024
,"<div style=""font-size: 10rem; color: #0000FF"">K</div>",,ospan,letter,JMQykHIUxXO8NIg4fJxTp98esJQ2,html-keyboard-response,104,826349,0.0-43.0-3.0-0.0-1.0-5.0,,,,,,,,,,,,,,,5dbe90f8965e863667a79ca8,18:14:45,06/03/2024
4984.399999991059,"<div class = numbox><p style=""font-size: 2.4rem"">Please recall the letters you saw to the best of your ability. If you do not remember a particular letter, use the SKIP button.<br><b>(When you are ready to lock in your answer, press ENTER)</b></p><button id = button_1 class = ""square num-button"" onclick = ""recordClick(this)""><div class = content><div class = numbers>C</div></div></button><button id = button_2 class = ""square num-button"" onclick = ""recordClick(this)""><div class = content><div class = numbers>G</div></div></button><button id = button_3 class = ""square num-button"" onclick = ""recordClick(this)""><div class = content><div class = numbers>H</div></div></button><button id = button_4 class = ""square num-button"" onclick = ""recordClick(this)""><div class = content><div class = numbers>J</div></div></button><button id = button_5 class = ""square num-button"" onclick = ""recordClick(this)""><div class = content><div class = numbers>K</div></div></button><button id = button_6 class = ""square num-button"" onclick = ""recordClick(this)""><div class = content><div class = numbers>L</div></div></button><button id = button_7 class = ""square num-button"" onclick = ""recordClick(this)""><div class = content><div class = numbers>N</div></div></button><button id = button_8 class = ""square num-button"" onclick = ""recordClick(this)""><div class = content><div class = numbers>P</div></div></button><button id = button_9 class = ""square num-button"" onclick = ""recordClick(this)""><div class = content><div class = numbers>Q</div></div></button><button id = button_10 class = ""square num-button"" onclick = ""recordClick(this)""><div class = content><div class = numbers>R</div></div></button><button id = button_11 class = ""square num-button"" onclick = ""recordClick(this)""><div class = content><div class = numbers>S</div></div></button><button id = button_12 class = ""square num-button"" onclick = ""recordClick(this)""><div class = content><div class = numbers>Y</div></div></button><button class = clear_button id = ""ClearButton"" onclick = ""clearResponse()"">BACKSPACE</button><button class = blank_button id = ""BlankButton"" onclick = ""blankResponse()"">SKIP</button><p style=""font-size: 2.4rem""><u><b>Current Answer:</b></u></p><br><br><div id=echoed_txt style=""font-size: 5rem; color:blue;""><b></b></div></div>",enter,ospan,retrieval,JMQykHIUxXO8NIg4fJxTp98esJQ2,html-keyboard-response,105,832098,0.0-43.0-3.0-0.0-2.0,3,3,3,3.0,"[""Q"",""L"",""K""]","[""Q"",""L"",""K""]",1.0,3.0,,,,,,,5dbe90f8965e863667a79ca8,18:14:45,06/03/2024
1296.199999988079,[''],0,ospan,feedback,JMQykHIUxXO8NIg4fJxTp98esJQ2,html-button-response,106,833903,0.0-43.0-3.0-0.0-3.0,,,,,,,,,,,,100.0,0.0,,5dbe90f8965e863667a79ca8,18:14:45,06/03/2024
,"<p style=""font-size:75px;"">...</p>",,ospan,iti,JMQykHIUxXO8NIg4fJxTp98esJQ2,html-keyboard-response,107,834915,0.0-43.0-4.0-0.0-0.0,,,,,,,,,,,,,,,5dbe90f8965e863667a79ca8,18:14:45,06/03/2024
3312.0,,,ospan,symmetry,JMQykHIUxXO8NIg4fJxTp98esJQ2,symmetry-judgement-task,108,839409,0.0-43.0-4.0-0.0-1.0-0.0,,,,,,,,,,1.0,1.0,,,,5dbe90f8965e863667a79ca8,18:14:45,06/03/2024
,"<div style=""font-size: 10rem; color: #0000FF"">C</div>",,ospan,letter,JMQykHIUxXO8NIg4fJxTp98esJQ2,html-keyboard-response,109,840420,0.0-43.0-4.0-0.0-1.0-1.0,,,,,,,,,,,,,,,5dbe90f8965e863667a79ca8,18:14:45,06/03/2024
2468.0,,,ospan,symmetry,JMQykHIUxXO8NIg4fJxTp98esJQ2,symmetry-judgement-task,110,844826,0.0-43.0-4.0-0.0-1.0-2.0,,,,,,,,,,1.0,1.0,,,,5dbe90f8965e863667a79ca8,18:14:45,06/03/2024
,"<div style=""font-size: 10rem; color: #0000FF"">N</div>",,ospan,letter,JMQykHIUxXO8NIg4fJxTp98esJQ2,html-keyboard-response,111,845835,0.0-43.0-4.0-0.0-1.0-3.0,,,,,,,,,,,,,,,5dbe90f8965e863667a79ca8,18:14:45,06/03/2024
2776.0,,,ospan,symmetry,JMQykHIUxXO8NIg4fJxTp98esJQ2,symmetry-judgement-task,112,850552,0.0-43.0-4.0-0.0-1.0-4.0,,,,,,,,,,1.0,1.0,,,,5dbe90f8965e863667a79ca8,18:14:45,06/03/2024
,"<div style=""font-size: 10rem; color: #0000FF"">H</div>",,ospan,letter,JMQykHIUxXO8NIg4fJxTp98esJQ2,html-keyboard-response,113,851565,0.0-43.0-4.0-0.0-1.0-5.0,,,,,,,,,,,,,,,5dbe90f8965e863667a79ca8,18:14:45,06/03/2024
2393.0,,,ospan,symmetry,JMQykHIUxXO8NIg4fJxTp98esJQ2,symmetry-judgement-task,114,855911,0.0-43.0-4.0-0.0-1.0-6.0,,,,,,,,,,1.0,1.0,,,,5dbe90f8965e863667a79ca8,18:14:45,06/03/2024
,"<div style=""font-size: 10rem; color: #0000FF"">R</div>",,ospan,letter,JMQykHIUxXO8NIg4fJxTp98esJQ2,html-keyboard-response,115,856926,0.0-43.0-4.0-0.0-1.0-7.0,,,,,,,,,,,,,,,5dbe90f8965e863667a79ca8,18:14:45,06/03/2024
5729.600000008941,"<div class = numbox><p style=""font-size: 2.4rem"">Please recall the letters you saw to the best of your ability. If you do not remember a particular letter, use the SKIP button.<br><b>(When you are ready to lock in your answer, press ENTER)</b></p><button id = button_1 class = ""square num-button"" onclick = ""recordClick(this)""><div class = content><div class = numbers>C</div></div></button><button id = button_2 class = ""square num-button"" onclick = ""recordClick(this)""><div class = content><div class = numbers>G</div></div></button><button id = button_3 class = ""square num-button"" onclick = ""recordClick(this)""><div class = content><div class = numbers>H</div></div></button><button id = button_4 class = ""square num-button"" onclick = ""recordClick(this)""><div class = content><div class = numbers>J</div></div></button><button id = button_5 class = ""square num-button"" onclick = ""recordClick(this)""><div class = content><div class = numbers>K</div></div></button><button id = button_6 class = ""square num-button"" onclick = ""recordClick(this)""><div class = content><div class = numbers>L</div></div></button><button id = button_7 class = ""square num-button"" onclick = ""recordClick(this)""><div class = content><div class = numbers>N</div></div></button><button id = button_8 class = ""square num-button"" onclick = ""recordClick(this)""><div class = content><div class = numbers>P</div></div></button><button id = button_9 class = ""square num-button"" onclick = ""recordClick(this)""><div class = content><div class = numbers>Q</div></div></button><button id = button_10 class = ""square num-button"" onclick = ""recordClick(this)""><div class = content><div class = numbers>R</div></div></button><button id = button_11 class = ""square num-button"" onclick = ""recordClick(this)""><div class = content><div class = numbers>S</div></div></button><button id = button_12 class = ""square num-button"" onclick = ""recordClick(this)""><div class = content><div class = numbers>Y</div></div></button><button class = clear_button id = ""ClearButton"" onclick = ""clearResponse()"">BACKSPACE</button><button class = blank_button id = ""BlankButton"" onclick = ""blankResponse()"">SKIP</button><p style=""font-size: 2.4rem""><u><b>Current Answer:</b></u></p><br><br><div id=echoed_txt style=""font-size: 5rem; color:blue;""><b></b></div></div>",enter,ospan,retrieval,JMQykHIUxXO8NIg4fJxTp98esJQ2,html-keyboard-response,116,863421,0.0-43.0-4.0-0.0-2.0,7,7,7,4.0,"[""C"",""N"",""H"",""R""]","[""C"",""N"",""H"",""R""]",1.0,4.0,,,,,,,5dbe90f8965e863667a79ca8,18:14:45,06/03/2024
28358.79999999702,[''],0,ospan,feedback,JMQykHIUxXO8NIg4fJxTp98esJQ2,html-button-response,117,892284,0.0-43.0-4.0-0.0-3.0,,,,,,,,,,,,100.0,0.0,,5dbe90f8965e863667a79ca8,18:14:45,06/03/2024
,"<p style=""font-size:75px;"">...</p>",,ospan,iti,JMQykHIUxXO8NIg4fJxTp98esJQ2,html-keyboard-response,118,893294,0.0-43.0-4.0-1.0-0.0,,,,,,,,,,,,,,,5dbe90f8965e863667a79ca8,18:14:45,06/03/2024
1908.0,,,ospan,symmetry,JMQykHIUxXO8NIg4fJxTp98esJQ2,symmetry-judgement-task,119,896245,0.0-43.0-4.0-1.0-1.0-0.0,,,,,,,,,,1.0,1.0,,,,5dbe90f8965e863667a79ca8,18:14:45,06/03/2024
,"<div style=""font-size: 10rem; color: #0000FF"">R</div>",,ospan,letter,JMQykHIUxXO8NIg4fJxTp98esJQ2,html-keyboard-response,120,897255,0.0-43.0-4.0-1.0-1.0-1.0,,,,,,,,,,,,,,,5dbe90f8965e863667a79ca8,18:14:45,06/03/2024
2264.0,,,ospan,symmetry,JMQykHIUxXO8NIg4fJxTp98esJQ2,symmetry-judgement-task,121,901472,0.0-43.0-4.0-1.0-1.0-2.0,,,,,,,,,,1.0,1.0,,,,5dbe90f8965e863667a79ca8,18:14:45,06/03/2024
,"<div style=""font-size: 10rem; color: #0000FF"">N</div>",,ospan,letter,JMQykHIUxXO8NIg4fJxTp98esJQ2,html-keyboard-response,122,902474,0.0-43.0-4.0-1.0-1.0-3.0,,,,,,,,,,,,,,,5dbe90f8965e863667a79ca8,18:14:45,06/03/2024
1498.0,,,ospan,symmetry,JMQykHIUxXO8NIg4fJxTp98esJQ2,symmetry-judgement-task,123,905895,0.0-43.0-4.0-1.0-1.0-4.0,,,,,,,,,,1.0,1.0,,,,5dbe90f8965e863667a79ca8,18:14:45,06/03/2024
,"<div style=""font-size: 10rem; color: #0000FF"">H</div>",,ospan,letter,JMQykHIUxXO8NIg4fJxTp98esJQ2,html-keyboard-response,124,906907,0.0-43.0-4.0-1.0-1.0-5.0,,,,,,,,,,,,,,,5dbe90f8965e863667a79ca8,18:14:45,06/03/2024
1911.0,,,ospan,symmetry,JMQykHIUxXO8NIg4fJxTp98esJQ2,symmetry-judgement-task,125,910757,0.0-43.0-4.0-1.0-1.0-6.0,,,,,,,,,,1.0,1.0,,,,5dbe90f8965e863667a79ca8,18:14:45,06/03/2024
,"<div style=""font-size: 10rem; color: #0000FF"">G</div>",,ospan,letter,JMQykHIUxXO8NIg4fJxTp98esJQ2,html-keyboard-response,126,911766,0.0-43.0-4.0-1.0-1.0-7.0,,,,,,,,,,,,,,,5dbe90f8965e863667a79ca8,18:14:45,06/03/2024
1418.0,,,ospan,symmetry,JMQykHIUxXO8NIg4fJxTp98esJQ2,symmetry-judgement-task,127,915125,0.0-43.0-4.0-1.0-1.0-8.0,,,,,,,,,,1.0,1.0,,,,5dbe90f8965e863667a79ca8,18:14:45,06/03/2024
,"<div style=""font-size: 10rem; color: #0000FF"">K</div>",,ospan,letter,JMQykHIUxXO8NIg4fJxTp98esJQ2,html-keyboard-response,128,916128,0.0-43.0-4.0-1.0-1.0-9.0,,,,,,,,,,,,,,,5dbe90f8965e863667a79ca8,18:14:45,06/03/2024
6128.0999999940395,"<div class = numbox><p style=""font-size: 2.4rem"">Please recall the letters you saw to the best of your ability. If you do not remember a particular letter, use the SKIP button.<br><b>(When you are ready to lock in your answer, press ENTER)</b></p><button id = button_1 class = ""square num-button"" onclick = ""recordClick(this)""><div class = content><div class = numbers>C</div></div></button><button id = button_2 class = ""square num-button"" onclick = ""recordClick(this)""><div class = content><div class = numbers>G</div></div></button><button id = button_3 class = ""square num-button"" onclick = ""recordClick(this)""><div class = content><div class = numbers>H</div></div></button><button id = button_4 class = ""square num-button"" onclick = ""recordClick(this)""><div class = content><div class = numbers>J</div></div></button><button id = button_5 class = ""square num-button"" onclick = ""recordClick(this)""><div class = content><div class = numbers>K</div></div></button><button id = button_6 class = ""square num-button"" onclick = ""recordClick(this)""><div class = content><div class = numbers>L</div></div></button><button id = button_7 class = ""square num-button"" onclick = ""recordClick(this)""><div class = content><div class = numbers>N</div></div></button><button id = button_8 class = ""square num-button"" onclick = ""recordClick(this)""><div class = content><div class = numbers>P</div></div></button><button id = button_9 class = ""square num-button"" onclick = ""recordClick(this)""><div class = content><div class = numbers>Q</div></div></button><button id = button_10 class = ""square num-button"" onclick = ""recordClick(this)""><div class = content><div class = numbers>R</div></div></button><button id = button_11 class = ""square num-button"" onclick = ""recordClick(this)""><div class = content><div class = numbers>S</div></div></button><button id = button_12 class = ""square num-button"" onclick = ""recordClick(this)""><div class = content><div class = numbers>Y</div></div></button><button class = clear_button id = ""ClearButton"" onclick = ""clearResponse()"">BACKSPACE</button><button class = blank_button id = ""BlankButton"" onclick = ""blankResponse()"">SKIP</button><p style=""font-size: 2.4rem""><u><b>Current Answer:</b></u></p><br><br><div id=echoed_txt style=""font-size: 5rem; color:blue;""><b></b></div></div>",enter,ospan,retrieval,JMQykHIUxXO8NIg4fJxTp98esJQ2,html-keyboard-response,129,923010,0.0-43.0-4.0-1.0-2.0,12,12,12,5.0,"[""R"",""N"",""H"",""G"",""K""]","[""R"",""N"",""H"",""G"",""K""]",1.0,5.0,,,,,,,5dbe90f8965e863667a79ca8,18:14:45,06/03/2024
4110.20000000298,[''],0,ospan,feedback,JMQykHIUxXO8NIg4fJxTp98esJQ2,html-button-response,130,927625,0.0-43.0-4.0-1.0-3.0,,,,,,,,,,,,100.0,0.0,,5dbe90f8965e863667a79ca8,18:14:45,06/03/2024
,"<p style=""font-size:75px;"">...</p>",,ospan,iti,JMQykHIUxXO8NIg4fJxTp98esJQ2,html-keyboard-response,131,928638,0.0-43.0-4.0-2.0-0.0,,,,,,,,,,,,,,,5dbe90f8965e863667a79ca8,18:14:45,06/03/2024
2073.0,,,ospan,symmetry,JMQykHIUxXO8NIg4fJxTp98esJQ2,symmetry-judgement-task,132,931756,0.0-43.0-4.0-2.0-1.0-0.0,,,,,,,,,,1.0,1.0,,,,5dbe90f8965e863667a79ca8,18:14:45,06/03/2024
,"<div style=""font-size: 10rem; color: #0000FF"">S</div>",,ospan,letter,JMQykHIUxXO8NIg4fJxTp98esJQ2,html-keyboard-response,133,932759,0.0-43.0-4.0-2.0-1.0-1.0,,,,,,,,,,,,,,,5dbe90f8965e863667a79ca8,18:14:45,06/03/2024
1381.0,,,ospan,symmetry,JMQykHIUxXO8NIg4fJxTp98esJQ2,symmetry-judgement-task,134,936102,0.0-43.0-4.0-2.0-1.0-2.0,,,,,,,,,,1.0,1.0,,,,5dbe90f8965e863667a79ca8,18:14:45,06/03/2024
,"<div style=""font-size: 10rem; color: #0000FF"">K</div>",,ospan,letter,JMQykHIUxXO8NIg4fJxTp98esJQ2,html-keyboard-response,135,937114,0.0-43.0-4.0-2.0-1.0-3.0,,,,,,,,,,,,,,,5dbe90f8965e863667a79ca8,18:14:45,06/03/2024
1590.0,,,ospan,symmetry,JMQykHIUxXO8NIg4fJxTp98esJQ2,symmetry-judgement-task,136,940641,0.0-43.0-4.0-2.0-1.0-4.0,,,,,,,,,,1.0,1.0,,,,5dbe90f8965e863667a79ca8,18:14:45,06/03/2024
,"<div style=""font-size: 10rem; color: #0000FF"">Q</div>",,ospan,letter,JMQykHIUxXO8NIg4fJxTp98esJQ2,html-keyboard-response,137,941643,0.0-43.0-4.0-2.0-1.0-5.0,,,,,,,,,,,,,,,5dbe90f8965e863667a79ca8,18:14:45,06/03/2024
4676.79999999702,"<div class = numbox><p style=""font-size: 2.4rem"">Please recall the letters you saw to the best of your ability. If you do not remember a particular letter, use the SKIP button.<br><b>(When you are ready to lock in your answer, press ENTER)</b></p><button id = button_1 class = ""square num-button"" onclick = ""recordClick(this)""><div class = content><div class = numbers>C</div></div></button><button id = button_2 class = ""square num-button"" onclick = ""recordClick(this)""><div class = content><div class = numbers>G</div></div></button><button id = button_3 class = ""square num-button"" onclick = ""recordClick(this)""><div class = content><div class = numbers>H</div></div></button><button id = button_4 class = ""square num-button"" onclick = ""recordClick(this)""><div class = content><div class = numbers>J</div></div></button><button id = button_5 class = ""square num-button"" onclick = ""recordClick(this)""><div class = content><div class = numbers>K</div></div></button><button id = button_6 class = ""square num-button"" onclick = ""recordClick(this)""><div class = content><div class = numbers>L</div></div></button><button id = button_7 class = ""square num-button"" onclick = ""recordClick(this)""><div class = content><div class = numbers>N</div></div></button><button id = button_8 class = ""square num-button"" onclick = ""recordClick(this)""><div class = content><div class = numbers>P</div></div></button><button id = button_9 class = ""square num-button"" onclick = ""recordClick(this)""><div class = content><div class = numbers>Q</div></div></button><button id = button_10 class = ""square num-button"" onclick = ""recordClick(this)""><div class = content><div class = numbers>R</div></div></button><button id = button_11 class = ""square num-button"" onclick = ""recordClick(this)""><div class = content><div class = numbers>S</div></div></button><button id = button_12 class = ""square num-button"" onclick = ""recordClick(this)""><div class = content><div class = numbers>Y</div></div></button><button class = clear_button id = ""ClearButton"" onclick = ""clearResponse()"">BACKSPACE</button><button class = blank_button id = ""BlankButton"" onclick = ""blankResponse()"">SKIP</button><p style=""font-size: 2.4rem""><u><b>Current Answer:</b></u></p><br><br><div id=echoed_txt style=""font-size: 5rem; color:blue;""><b></b></div></div>",enter,ospan,retrieval,JMQykHIUxXO8NIg4fJxTp98esJQ2,html-keyboard-response,138,947086,0.0-43.0-4.0-2.0-2.0,15,15,15,3.0,"[""S"",""K"",""Q""]","[""S"",""K"",""Q""]",1.0,3.0,,,,,,,5dbe90f8965e863667a79ca8,18:14:45,06/03/2024
1450.5999999940395,[''],0,ospan,feedback,JMQykHIUxXO8NIg4fJxTp98esJQ2,html-button-response,139,949052,0.0-43.0-4.0-2.0-3.0,,,,,,,,,,,,100.0,0.0,,5dbe90f8965e863667a79ca8,18:14:45,06/03/2024
,"<p style=""font-size:75px;"">...</p>",,ospan,iti,JMQykHIUxXO8NIg4fJxTp98esJQ2,html-keyboard-response,140,950067,0.0-43.0-5.0-0.0-0.0,,,,,,,,,,,,,,,5dbe90f8965e863667a79ca8,18:14:45,06/03/2024
1700.0,,,ospan,symmetry,JMQykHIUxXO8NIg4fJxTp98esJQ2,symmetry-judgement-task,141,952812,0.0-43.0-5.0-0.0-1.0-0.0,,,,,,,,,,1.0,1.0,,,,5dbe90f8965e863667a79ca8,18:14:45,06/03/2024
,"<div style=""font-size: 10rem; color: #0000FF"">P</div>",,ospan,letter,JMQykHIUxXO8NIg4fJxTp98esJQ2,html-keyboard-response,142,953828,0.0-43.0-5.0-0.0-1.0-1.0,,,,,,,,,,,,,,,5dbe90f8965e863667a79ca8,18:14:45,06/03/2024
1433.0,,,ospan,symmetry,JMQykHIUxXO8NIg4fJxTp98esJQ2,symmetry-judgement-task,143,957215,0.0-43.0-5.0-0.0-1.0-2.0,,,,,,,,,,1.0,1.0,,,,5dbe90f8965e863667a79ca8,18:14:45,06/03/2024
,"<div style=""font-size: 10rem; color: #0000FF"">S</div>",,ospan,letter,JMQykHIUxXO8NIg4fJxTp98esJQ2,html-keyboard-response,144,958230,0.0-43.0-5.0-0.0-1.0-3.0,,,,,,,,,,,,,,,5dbe90f8965e863667a79ca8,18:14:45,06/03/2024
1462.0,,,ospan,symmetry,JMQykHIUxXO8NIg4fJxTp98esJQ2,symmetry-judgement-task,145,961632,0.0-43.0-5.0-0.0-1.0-4.0,,,,,,,,,,1.0,1.0,,,,5dbe90f8965e863667a79ca8,18:14:45,06/03/2024
,"<div style=""font-size: 10rem; color: #0000FF"">K</div>",,ospan,letter,JMQykHIUxXO8NIg4fJxTp98esJQ2,html-keyboard-response,146,962645,0.0-43.0-5.0-0.0-1.0-5.0,,,,,,,,,,,,,,,5dbe90f8965e863667a79ca8,18:14:45,06/03/2024
1940.0,,,ospan,symmetry,JMQykHIUxXO8NIg4fJxTp98esJQ2,symmetry-judgement-task,147,966535,0.0-43.0-5.0-0.0-1.0-6.0,,,,,,,,,,1.0,1.0,,,,5dbe90f8965e863667a79ca8,18:14:45,06/03/2024
,"<div style=""font-size: 10rem; color: #0000FF"">R</div>",,ospan,letter,JMQykHIUxXO8NIg4fJxTp98esJQ2,html-keyboard-response,148,967538,0.0-43.0-5.0-0.0-1.0-7.0,,,,,,,,,,,,,,,5dbe90f8965e863667a79ca8,18:14:45,06/03/2024
1258.0,,,ospan,symmetry,JMQykHIUxXO8NIg4fJxTp98esJQ2,symmetry-judgement-task,149,970749,0.0-43.0-5.0-0.0-1.0-8.0,,,,,,,,,,1.0,1.0,,,,5dbe90f8965e863667a79ca8,18:14:45,06/03/2024
,"<div style=""font-size: 10rem; color: #0000FF"">Y</div>",,ospan,letter,JMQykHIUxXO8NIg4fJxTp98esJQ2,html-keyboard-response,150,971763,0.0-43.0-5.0-0.0-1.0-9.0,,,,,,,,,,,,,,,5dbe90f8965e863667a79ca8,18:14:45,06/03/2024
1911.0,,,ospan,symmetry,JMQykHIUxXO8NIg4fJxTp98esJQ2,symmetry-judgement-task,151,975619,0.0-43.0-5.0-0.0-1.0-10.0,,,,,,,,,,1.0,1.0,,,,5dbe90f8965e863667a79ca8,18:14:45,06/03/2024
,"<div style=""font-size: 10rem; color: #0000FF"">L</div>",,ospan,letter,JMQykHIUxXO8NIg4fJxTp98esJQ2,html-keyboard-response,152,976629,0.0-43.0-5.0-0.0-1.0-11.0,,,,,,,,,,,,,,,5dbe90f8965e863667a79ca8,18:14:45,06/03/2024
7498.70000000298,"<div class = numbox><p style=""font-size: 2.4rem"">Please recall the letters you saw to the best of your ability. If you do not remember a particular letter, use the SKIP button.<br><b>(When you are ready to lock in your answer, press ENTER)</b></p><button id = button_1 class = ""square num-button"" onclick = ""recordClick(this)""><div class = content><div class = numbers>C</div></div></button><button id = button_2 class = ""square num-button"" onclick = ""recordClick(this)""><div class = content><div class = numbers>G</div></div></button><button id = button_3 class = ""square num-button"" onclick = ""recordClick(this)""><div class = content><div class = numbers>H</div></div></button><button id = button_4 class = ""square num-button"" onclick = ""recordClick(this)""><div class = content><div class = numbers>J</div></div></button><button id = button_5 class = ""square num-button"" onclick = ""recordClick(this)""><div class = content><div class = numbers>K</div></div></button><button id = button_6 class = ""square num-button"" onclick = ""recordClick(this)""><div class = content><div class = numbers>L</div></div></button><button id = button_7 class = ""square num-button"" onclick = ""recordClick(this)""><div class = content><div class = numbers>N</div></div></button><button id = button_8 class = ""square num-button"" onclick = ""recordClick(this)""><div class = content><div class = numbers>P</div></div></button><button id = button_9 class = ""square num-button"" onclick = ""recordClick(this)""><div class = content><div class = numbers>Q</div></div></button><button id = button_10 class = ""square num-button"" onclick = ""recordClick(this)""><div class = content><div class = numbers>R</div></div></button><button id = button_11 class = ""square num-button"" onclick = ""recordClick(this)""><div class = content><div class = numbers>S</div></div></button><button id = button_12 class = ""square num-button"" onclick = ""recordClick(this)""><div class = content><div class = numbers>Y</div></div></button><button class = clear_button id = ""ClearButton"" onclick = ""clearResponse()"">BACKSPACE</button><button class = blank_button id = ""BlankButton"" onclick = ""blankResponse()"">SKIP</button><p style=""font-size: 2.4rem""><u><b>Current Answer:</b></u></p><br><br><div id=echoed_txt style=""font-size: 5rem; color:blue;""><b></b></div></div>",enter,ospan,retrieval,JMQykHIUxXO8NIg4fJxTp98esJQ2,html-keyboard-response,153,984890,0.0-43.0-5.0-0.0-2.0,21,21,21,6.0,"[""P"",""S"",""K"",""R"",""Y"",""L""]","[""P"",""S"",""K"",""R"",""Y"",""L""]",1.0,6.0,,,,,,,5dbe90f8965e863667a79ca8,18:14:45,06/03/2024
1200.9000000059605,[''],0,ospan,feedback,JMQykHIUxXO8NIg4fJxTp98esJQ2,html-button-response,154,986598,0.0-43.0-5.0-0.0-3.0,,,,,,,,,,,,100.0,0.0,,5dbe90f8965e863667a79ca8,18:14:45,06/03/2024
,"<p style=""font-size:75px;"">...</p>",,ospan,iti,JMQykHIUxXO8NIg4fJxTp98esJQ2,html-keyboard-response,155,987612,0.0-43.0-5.0-1.0-0.0,,,,,,,,,,,,,,,5dbe90f8965e863667a79ca8,18:14:45,06/03/2024
1715.0,,,ospan,symmetry,JMQykHIUxXO8NIg4fJxTp98esJQ2,symmetry-judgement-task,156,990501,0.0-43.0-5.0-1.0-1.0-0.0,,,,,,,,,,1.0,1.0,,,,5dbe90f8965e863667a79ca8,18:14:45,06/03/2024
,"<div style=""font-size: 10rem; color: #0000FF"">J</div>",,ospan,letter,JMQykHIUxXO8NIg4fJxTp98esJQ2,html-keyboard-response,157,991515,0.0-43.0-5.0-1.0-1.0-1.0,,,,,,,,,,,,,,,5dbe90f8965e863667a79ca8,18:14:45,06/03/2024
1167.0,,,ospan,symmetry,JMQykHIUxXO8NIg4fJxTp98esJQ2,symmetry-judgement-task,158,994600,0.0-43.0-5.0-1.0-1.0-2.0,,,,,,,,,,1.0,1.0,,,,5dbe90f8965e863667a79ca8,18:14:45,06/03/2024
,"<div style=""font-size: 10rem; color: #0000FF"">L</div>",,ospan,letter,JMQykHIUxXO8NIg4fJxTp98esJQ2,html-keyboard-response,159,995615,0.0-43.0-5.0-1.0-1.0-3.0,,,,,,,,,,,,,,,5dbe90f8965e863667a79ca8,18:14:45,06/03/2024
1361.0,,,ospan,symmetry,JMQykHIUxXO8NIg4fJxTp98esJQ2,symmetry-judgement-task,160,998933,0.0-43.0-5.0-1.0-1.0-4.0,,,,,,,,,,1.0,1.0,,,,5dbe90f8965e863667a79ca8,18:14:45,06/03/2024
,"<div style=""font-size: 10rem; color: #0000FF"">H</div>",,ospan,letter,JMQykHIUxXO8NIg4fJxTp98esJQ2,html-keyboard-response,161,999949,0.0-43.0-5.0-1.0-1.0-5.0,,,,,,,,,,,,,,,5dbe90f8965e863667a79ca8,18:14:45,06/03/2024
882.0,,,ospan,symmetry,JMQykHIUxXO8NIg4fJxTp98esJQ2,symmetry-judgement-task,162,1002784,0.0-43.0-5.0-1.0-1.0-6.0,,,,,,,,,,1.0,1.0,,,,5dbe90f8965e863667a79ca8,18:14:45,06/03/2024
,"<div style=""font-size: 10rem; color: #0000FF"">K</div>",,ospan,letter,JMQykHIUxXO8NIg4fJxTp98esJQ2,html-keyboard-response,163,1003792,0.0-43.0-5.0-1.0-1.0-7.0,,,,,,,,,,,,,,,5dbe90f8965e863667a79ca8,18:14:45,06/03/2024
1940.0,,,ospan,symmetry,JMQykHIUxXO8NIg4fJxTp98esJQ2,symmetry-judgement-task,164,1007698,0.0-43.0-5.0-1.0-1.0-8.0,,,,,,,,,,1.0,1.0,,,,5dbe90f8965e863667a79ca8,18:14:45,06/03/2024
,"<div style=""font-size: 10rem; color: #0000FF"">C</div>",,ospan,letter,JMQykHIUxXO8NIg4fJxTp98esJQ2,html-keyboard-response,165,1008715,0.0-43.0-5.0-1.0-1.0-9.0,,,,,,,,,,,,,,,5dbe90f8965e863667a79ca8,18:14:45,06/03/2024
1238.0,,,ospan,symmetry,JMQykHIUxXO8NIg4fJxTp98esJQ2,symmetry-judgement-task,166,1011886,0.0-43.0-5.0-1.0-1.0-10.0,,,,,,,,,,1.0,1.0,,,,5dbe90f8965e863667a79ca8,18:14:45,06/03/2024
,"<div style=""font-size: 10rem; color: #0000FF"">S</div>",,ospan,letter,JMQykHIUxXO8NIg4fJxTp98esJQ2,html-keyboard-response,167,1012893,0.0-43.0-5.0-1.0-1.0-11.0,,,,,,,,,,,,,,,5dbe90f8965e863667a79ca8,18:14:45,06/03/2024
1061.0,,,ospan,symmetry,JMQykHIUxXO8NIg4fJxTp98esJQ2,symmetry-judgement-task,168,1015910,0.0-43.0-5.0-1.0-1.0-12.0,,,,,,,,,,1.0,1.0,,,,5dbe90f8965e863667a79ca8,18:14:45,06/03/2024
,"<div style=""font-size: 10rem; color: #0000FF"">Y</div>",,ospan,letter,JMQykHIUxXO8NIg4fJxTp98esJQ2,html-keyboard-response,169,1016911,0.0-43.0-5.0-1.0-1.0-13.0,,,,,,,,,,,,,,,5dbe90f8965e863667a79ca8,18:14:45,06/03/2024
9233.90000000596,"<div class = numbox><p style=""font-size: 2.4rem"">Please recall the letters you saw to the best of your ability. If you do not remember a particular letter, use the SKIP button.<br><b>(When you are ready to lock in your answer, press ENTER)</b></p><button id = button_1 class = ""square num-button"" onclick = ""recordClick(this)""><div class = content><div class = numbers>C</div></div></button><button id = button_2 class = ""square num-button"" onclick = ""recordClick(this)""><div class = content><div class = numbers>G</div></div></button><button id = button_3 class = ""square num-button"" onclick = ""recordClick(this)""><div class = content><div class = numbers>H</div></div></button><button id = button_4 class = ""square num-button"" onclick = ""recordClick(this)""><div class = content><div class = numbers>J</div></div></button><button id = button_5 class = ""square num-button"" onclick = ""recordClick(this)""><div class = content><div class = numbers>K</div></div></button><button id = button_6 class = ""square num-button"" onclick = ""recordClick(this)""><div class = content><div class = numbers>L</div></div></button><button id = button_7 class = ""square num-button"" onclick = ""recordClick(this)""><div class = content><div class = numbers>N</div></div></button><button id = button_8 class = ""square num-button"" onclick = ""recordClick(this)""><div class = content><div class = numbers>P</div></div></button><button id = button_9 class = ""square num-button"" onclick = ""recordClick(this)""><div class = content><div class = numbers>Q</div></div></button><button id = button_10 class = ""square num-button"" onclick = ""recordClick(this)""><div class = content><div class = numbers>R</div></div></button><button id = button_11 class = ""square num-button"" onclick = ""recordClick(this)""><div class = content><div class = numbers>S</div></div></button><button id = button_12 class = ""square num-button"" onclick = ""recordClick(this)""><div class = content><div class = numbers>Y</div></div></button><button class = clear_button id = ""ClearButton"" onclick = ""clearResponse()"">BACKSPACE</button><button class = blank_button id = ""BlankButton"" onclick = ""blankResponse()"">SKIP</button><p style=""font-size: 2.4rem""><u><b>Current Answer:</b></u></p><br><br><div id=echoed_txt style=""font-size: 5rem; color:blue;""><b></b></div></div>",enter,ospan,retrieval,JMQykHIUxXO8NIg4fJxTp98esJQ2,html-keyboard-response,170,1026905,0.0-43.0-5.0-1.0-2.0,28,28,28,7.0,"[""J"",""L"",""H"",""K"",""C"",""S"",""Y""]","[""J"",""L"",""H"",""K"",""C"",""S"",""Y""]",1.0,7.0,,,,,,,5dbe90f8965e863667a79ca8,18:14:45,06/03/2024
2517.0,[''],0,ospan,feedback,JMQykHIUxXO8NIg4fJxTp98esJQ2,html-button-response,171,1029928,0.0-43.0-5.0-1.0-3.0,,,,,,,,,,,,100.0,0.0,,5dbe90f8965e863667a79ca8,18:14:45,06/03/2024
,"<p style=""font-size:75px;"">...</p>",,ospan,iti,JMQykHIUxXO8NIg4fJxTp98esJQ2,html-keyboard-response,172,1030942,0.0-43.0-6.0-0.0-0.0,,,,,,,,,,,,,,,5dbe90f8965e863667a79ca8,18:14:45,06/03/2024
1956.0,,,ospan,symmetry,JMQykHIUxXO8NIg4fJxTp98esJQ2,symmetry-judgement-task,173,1034083,0.0-43.0-6.0-0.0-1.0-0.0,,,,,,,,,,1.0,1.0,,,,5dbe90f8965e863667a79ca8,18:14:45,06/03/2024
,"<div style=""font-size: 10rem; color: #0000FF"">R</div>",,ospan,letter,JMQykHIUxXO8NIg4fJxTp98esJQ2,html-keyboard-response,174,1035099,0.0-43.0-6.0-0.0-1.0-1.0,,,,,,,,,,,,,,,5dbe90f8965e863667a79ca8,18:14:45,06/03/2024
1131.0,,,ospan,symmetry,JMQykHIUxXO8NIg4fJxTp98esJQ2,symmetry-judgement-task,175,1038223,0.0-43.0-6.0-0.0-1.0-2.0,,,,,,,,,,1.0,1.0,,,,5dbe90f8965e863667a79ca8,18:14:45,06/03/2024
,"<div style=""font-size: 10rem; color: #0000FF"">L</div>",,ospan,letter,JMQykHIUxXO8NIg4fJxTp98esJQ2,html-keyboard-response,176,1039225,0.0-43.0-6.0-0.0-1.0-3.0,,,,,,,,,,,,,,,5dbe90f8965e863667a79ca8,18:14:45,06/03/2024
1009.0,,,ospan,symmetry,JMQykHIUxXO8NIg4fJxTp98esJQ2,symmetry-judgement-task,177,1042191,0.0-43.0-6.0-0.0-1.0-4.0,,,,,,,,,,1.0,1.0,,,,5dbe90f8965e863667a79ca8,18:14:45,06/03/2024
,"<div style=""font-size: 10rem; color: #0000FF"">H</div>",,ospan,letter,JMQykHIUxXO8NIg4fJxTp98esJQ2,html-keyboard-response,178,1043193,0.0-43.0-6.0-0.0-1.0-5.0,,,,,,,,,,,,,,,5dbe90f8965e863667a79ca8,18:14:45,06/03/2024
1464.0,,,ospan,symmetry,JMQykHIUxXO8NIg4fJxTp98esJQ2,symmetry-judgement-task,179,1046596,0.0-43.0-6.0-0.0-1.0-6.0,,,,,,,,,,1.0,1.0,,,,5dbe90f8965e863667a79ca8,18:14:45,06/03/2024
,"<div style=""font-size: 10rem; color: #0000FF"">N</div>",,ospan,letter,JMQykHIUxXO8NIg4fJxTp98esJQ2,html-keyboard-response,180,1047597,0.0-43.0-6.0-0.0-1.0-7.0,,,,,,,,,,,,,,,5dbe90f8965e863667a79ca8,18:14:45,06/03/2024
1939.0,,,ospan,symmetry,JMQykHIUxXO8NIg4fJxTp98esJQ2,symmetry-judgement-task,181,1051506,0.0-43.0-6.0-0.0-1.0-8.0,,,,,,,,,,1.0,1.0,,,,5dbe90f8965e863667a79ca8,18:14:45,06/03/2024
,"<div style=""font-size: 10rem; color: #0000FF"">P</div>",,ospan,letter,JMQykHIUxXO8NIg4fJxTp98esJQ2,html-keyboard-response,182,1052522,0.0-43.0-6.0-0.0-1.0-9.0,,,,,,,,,,,,,,,5dbe90f8965e863667a79ca8,18:14:45,06/03/2024
7882.0,"<div class = numbox><p style=""font-size: 2.4rem"">Please recall the letters you saw to the best of your ability. If you do not remember a particular letter, use the SKIP button.<br><b>(When you are ready to lock in your answer, press ENTER)</b></p><button id = button_1 class = ""square num-button"" onclick = ""recordClick(this)""><div class = content><div class = numbers>C</div></div></button><button id = button_2 class = ""square num-button"" onclick = ""recordClick(this)""><div class = content><div class = numbers>G</div></div></button><button id = button_3 class = ""square num-button"" onclick = ""recordClick(this)""><div class = content><div class = numbers>H</div></div></button><button id = button_4 class = ""square num-button"" onclick = ""recordClick(this)""><div class = content><div class = numbers>J</div></div></button><button id = button_5 class = ""square num-button"" onclick = ""recordClick(this)""><div class = content><div class = numbers>K</div></div></button><button id = button_6 class = ""square num-button"" onclick = ""recordClick(this)""><div class = content><div class = numbers>L</div></div></button><button id = button_7 class = ""square num-button"" onclick = ""recordClick(this)""><div class = content><div class = numbers>N</div></div></button><button id = button_8 class = ""square num-button"" onclick = ""recordClick(this)""><div class = content><div class = numbers>P</div></div></button><button id = button_9 class = ""square num-button"" onclick = ""recordClick(this)""><div class = content><div class = numbers>Q</div></div></button><button id = button_10 class = ""square num-button"" onclick = ""recordClick(this)""><div class = content><div class = numbers>R</div></div></button><button id = button_11 class = ""square num-button"" onclick = ""recordClick(this)""><div class = content><div class = numbers>S</div></div></button><button id = button_12 class = ""square num-button"" onclick = ""recordClick(this)""><div class = content><div class = numbers>Y</div></div></button><button class = clear_button id = ""ClearButton"" onclick = ""clearResponse()"">BACKSPACE</button><button class = blank_button id = ""BlankButton"" onclick = ""blankResponse()"">SKIP</button><p style=""font-size: 2.4rem""><u><b>Current Answer:</b></u></p><br><br><div id=echoed_txt style=""font-size: 5rem; color:blue;""><b></b></div></div>",enter,ospan,retrieval,JMQykHIUxXO8NIg4fJxTp98esJQ2,html-keyboard-response,183,1061167,0.0-43.0-6.0-0.0-2.0,33,33,33,5.0,"[""R"",""L"",""H"",""N"",""P""]","[""R"",""L"",""H"",""N"",""P""]",1.0,5.0,,,,,,,5dbe90f8965e863667a79ca8,18:14:45,06/03/2024
11178.300000011921,[''],0,ospan,feedback,JMQykHIUxXO8NIg4fJxTp98esJQ2,html-button-response,184,1072853,0.0-43.0-6.0-0.0-3.0,,,,,,,,,,,,100.0,0.0,,5dbe90f8965e863667a79ca8,18:14:45,06/03/2024
,"<p style=""font-size:75px;"">...</p>",,ospan,iti,JMQykHIUxXO8NIg4fJxTp98esJQ2,html-keyboard-response,185,1073866,0.0-43.0-6.0-1.0-0.0,,,,,,,,,,,,,,,5dbe90f8965e863667a79ca8,18:14:45,06/03/2024
1929.0,,,ospan,symmetry,JMQykHIUxXO8NIg4fJxTp98esJQ2,symmetry-judgement-task,186,1076971,0.0-43.0-6.0-1.0-1.0-0.0,,,,,,,,,,1.0,1.0,,,,5dbe90f8965e863667a79ca8,18:14:45,06/03/2024
,"<div style=""font-size: 10rem; color: #0000FF"">G</div>",,ospan,letter,JMQykHIUxXO8NIg4fJxTp98esJQ2,html-keyboard-response,187,1077980,0.0-43.0-6.0-1.0-1.0-1.0,,,,,,,,,,,,,,,5dbe90f8965e863667a79ca8,18:14:45,06/03/2024
1706.0,,,ospan,symmetry,JMQykHIUxXO8NIg4fJxTp98esJQ2,symmetry-judgement-task,188,1081656,0.0-43.0-6.0-1.0-1.0-2.0,,,,,,,,,,1.0,1.0,,,,5dbe90f8965e863667a79ca8,18:14:45,06/03/2024
,"<div style=""font-size: 10rem; color: #0000FF"">Y</div>",,ospan,letter,JMQykHIUxXO8NIg4fJxTp98esJQ2,html-keyboard-response,189,1082668,0.0-43.0-6.0-1.0-1.0-3.0,,,,,,,,,,,,,,,5dbe90f8965e863667a79ca8,18:14:45,06/03/2024
1750.0,,,ospan,symmetry,JMQykHIUxXO8NIg4fJxTp98esJQ2,symmetry-judgement-task,190,1086376,0.0-43.0-6.0-1.0-1.0-4.0,,,,,,,,,,1.0,1.0,,,,5dbe90f8965e863667a79ca8,18:14:45,06/03/2024
,"<div style=""font-size: 10rem; color: #0000FF"">K</div>",,ospan,letter,JMQykHIUxXO8NIg4fJxTp98esJQ2,html-keyboard-response,191,1087378,0.0-43.0-6.0-1.0-1.0-5.0,,,,,,,,,,,,,,,5dbe90f8965e863667a79ca8,18:14:45,06/03/2024
1406.0,,,ospan,symmetry,JMQykHIUxXO8NIg4fJxTp98esJQ2,symmetry-judgement-task,192,1090738,0.0-43.0-6.0-1.0-1.0-6.0,,,,,,,,,,1.0,1.0,,,,5dbe90f8965e863667a79ca8,18:14:45,06/03/2024
,"<div style=""font-size: 10rem; color: #0000FF"">Q</div>",,ospan,letter,JMQykHIUxXO8NIg4fJxTp98esJQ2,html-keyboard-response,193,1091742,0.0-43.0-6.0-1.0-1.0-7.0,,,,,,,,,,,,,,,5dbe90f8965e863667a79ca8,18:14:45,06/03/2024
1072.0,,,ospan,symmetry,JMQykHIUxXO8NIg4fJxTp98esJQ2,symmetry-judgement-task,194,1094781,0.0-43.0-6.0-1.0-1.0-8.0,,,,,,,,,,1.0,1.0,,,,5dbe90f8965e863667a79ca8,18:14:45,06/03/2024
,"<div style=""font-size: 10rem; color: #0000FF"">C</div>",,ospan,letter,JMQykHIUxXO8NIg4fJxTp98esJQ2,html-keyboard-response,195,1095784,0.0-43.0-6.0-1.0-1.0-9.0,,,,,,,,,,,,,,,5dbe90f8965e863667a79ca8,18:14:45,06/03/2024
1978.0,,,ospan,symmetry,JMQykHIUxXO8NIg4fJxTp98esJQ2,symmetry-judgement-task,196,1099697,0.0-43.0-6.0-1.0-1.0-10.0,,,,,,,,,,1.0,1.0,,,,5dbe90f8965e863667a79ca8,18:14:45,06/03/2024
,"<div style=""font-size: 10rem; color: #0000FF"">H</div>",,ospan,letter,JMQykHIUxXO8NIg4fJxTp98esJQ2,html-keyboard-response,197,1100705,0.0-43.0-6.0-1.0-1.0-11.0,,,,,,,,,,,,,,,5dbe90f8965e863667a79ca8,18:14:45,06/03/2024
1213.0,,,ospan,symmetry,JMQykHIUxXO8NIg4fJxTp98esJQ2,symmetry-judgement-task,198,1103857,0.0-43.0-6.0-1.0-1.0-12.0,,,,,,,,,,1.0,1.0,,,,5dbe90f8965e863667a79ca8,18:14:45,06/03/2024
,"<div style=""font-size: 10rem; color: #0000FF"">L</div>",,ospan,letter,JMQykHIUxXO8NIg4fJxTp98esJQ2,html-keyboard-response,199,1104872,0.0-43.0-6.0-1.0-1.0-13.0,,,,,,,,,,,,,,,5dbe90f8965e863667a79ca8,18:14:45,06/03/2024
1157.0,,,ospan,symmetry,JMQykHIUxXO8NIg4fJxTp98esJQ2,symmetry-judgement-task,200,1107980,0.0-43.0-6.0-1.0-1.0-14.0,,,,,,,,,,1.0,1.0,,,,5dbe90f8965e863667a79ca8,18:14:45,06/03/2024
,"<div style=""font-size: 10rem; color: #0000FF"">J</div>",,ospan,letter,JMQykHIUxXO8NIg4fJxTp98esJQ2,html-keyboard-response,201,1108982,0.0-43.0-6.0-1.0-1.0-15.0,,,,,,,,,,,,,,,5dbe90f8965e863667a79ca8,18:14:45,06/03/2024
13852.79999999702,"<div class = numbox><p style=""font-size: 2.4rem"">Please recall the letters you saw to the best of your ability. If you do not remember a particular letter, use the SKIP button.<br><b>(When you are ready to lock in your answer, press ENTER)</b></p><button id = button_1 class = ""square num-button"" onclick = ""recordClick(this)""><div class = content><div class = numbers>C</div></div></button><button id = button_2 class = ""square num-button"" onclick = ""recordClick(this)""><div class = content><div class = numbers>G</div></div></button><button id = button_3 class = ""square num-button"" onclick = ""recordClick(this)""><div class = content><div class = numbers>H</div></div></button><button id = button_4 class = ""square num-button"" onclick = ""recordClick(this)""><div class = content><div class = numbers>J</div></div></button><button id = button_5 class = ""square num-button"" onclick = ""recordClick(this)""><div class = content><div class = numbers>K</div></div></button><button id = button_6 class = ""square num-button"" onclick = ""recordClick(this)""><div class = content><div class = numbers>L</div></div></button><button id = button_7 class = ""square num-button"" onclick = ""recordClick(this)""><div class = content><div class = numbers>N</div></div></button><button id = button_8 class = ""square num-button"" onclick = ""recordClick(this)""><div class = content><div class = numbers>P</div></div></button><button id = button_9 class = ""square num-button"" onclick = ""recordClick(this)""><div class = content><div class = numbers>Q</div></div></button><button id = button_10 class = ""square num-button"" onclick = ""recordClick(this)""><div class = content><div class = numbers>R</div></div></button><button id = button_11 class = ""square num-button"" onclick = ""recordClick(this)""><div class = content><div class = numbers>S</div></div></button><button id = button_12 class = ""square num-button"" onclick = ""recordClick(this)""><div class = content><div class = numbers>Y</div></div></button><button class = clear_button id = ""ClearButton"" onclick = ""clearResponse()"">BACKSPACE</button><button class = blank_button id = ""BlankButton"" onclick = ""blankResponse()"">SKIP</button><p style=""font-size: 2.4rem""><u><b>Current Answer:</b></u></p><br><br><div id=echoed_txt style=""font-size: 5rem; color:blue;""><b></b></div></div>",enter,ospan,retrieval,JMQykHIUxXO8NIg4fJxTp98esJQ2,html-keyboard-response,202,1123600,0.0-43.0-6.0-1.0-2.0,41,33,33,8.0,"[""_"",""L"",""C"",""H"",""Q"",""J""]","[""G"",""Y"",""K"",""Q"",""C"",""H"",""L"",""J""]",0.0,0.0,,,,,,,5dbe90f8965e863667a79ca8,18:14:45,06/03/2024
1844.7999999970198,[''],0,ospan,feedback,JMQykHIUxXO8NIg4fJxTp98esJQ2,html-button-response,203,1125958,0.0-43.0-6.0-1.0-3.0,,,,,,,,,,,,100.0,0.0,,5dbe90f8965e863667a79ca8,18:14:45,06/03/2024
17794.89999999106,,"{'Q0': 'Very interesting, I dont think that there is anything that could be improved '}",ospan,survey_ospan,JMQykHIUxXO8NIg4fJxTp98esJQ2,lmdlab-survey-text,204,1144519,0.0-43.0-7.0,,,,,,,,,,,,,,JMQykHIUxXO8NIg4fJxTp98esJQ2,5dbe90f8965e863667a79ca8,18:14:45,06/03/2024
1622.699999988079,<p><p style='font-size: 3rem'>Great work!<br><br>This completes the symmetry and memory task.</p><br><br><br>,0,ospan,finish,JMQykHIUxXO8NIg4fJxTp98esJQ2,html-button-response,205,1146144,0.0-43.0-8.0,41,33,33,,,,,,,,,100.0,,,5dbe90f8965e863667a79ca8,18:14:45,06/03/2024
