rt,stimulus,response,exp_name,exp_stage,subjectID,trial_type,trial_index,time_elapsed,internal_node_id,ospan_shown,ospan_total,ospan_abs,length,resp_actual,resp_correct,full_correct,num_correct,feedback,accuracy,correct,math_acc,math_warning,databaseID,prolificID,start_time,date
4825.9000000059605,<div class = 'left_align' style='font-size: 3.25rem; line-height: 1.3;'><p class = 'center_align'><b>Welcome to the Symmetry and Memory Task</b><br><br><br><br></p>Press 'continue' to show the instructions.<br><br><br><br></div>,0,ospan,instruct,d7KhxOFXsygmQkLYYpCkCGg2WOi2,html-button-response,51,1154171,0.0-43.0-0.0-0.0-0.0,,,,,,,,,,,,,,,656514f9443092badedb7003,09:50:28,07/03/2024
43097.69999998808,"<div class = 'left_align' style='font-size: 3.25rem; line-height: 1.3;'><p class = 'center_align'><b>Symmetry and Memory Task</b><br><br></p>In this task, you will try to memorize letters you see on the screen<br>while you also view black and white grid pictures.<br><br>In the next few minutes, you will have some practice to get you familiar<br>with how the task works.<br><br>It may be difficult sometimes, but please do not worry about making mistakes!<br><br>We will begin by practicing the letter part of the task.<br><br><br><br></div>",0,ospan,instruct,d7KhxOFXsygmQkLYYpCkCGg2WOi2,html-button-response,52,1197536,0.0-43.0-0.0-0.0-1.0,,,,,,,,,,,,,,,656514f9443092badedb7003,09:50:28,07/03/2024
80485.80000001192,"<div class = 'left_align' style='font-size: 3.25rem; line-height: 1.3;'>For this practice part, letters will appear on the screen one at a time.<br><br>Try to remember each letter in the order presented.<br><br>After some letters have been shown, you will see a response screen. Your<br>goal is to report the letters you saw <b>in order</b>. If you do not remember<br>a particular letter, you will have the option to leave it blank.<br><br><br><br></div>",0,ospan,instruct,d7KhxOFXsygmQkLYYpCkCGg2WOi2,html-button-response,53,1278288,0.0-43.0-0.0-0.0-2.0,,,,,,,,,,,,,,,656514f9443092badedb7003,09:50:28,07/03/2024
5071.600000023842,"<div class = 'left_align' style='font-size: 3.25rem; line-height: 1.3;'>Remember, it is very important to get the letters in the same<br>order as you see them.<br><br>When you are ready, you may begin the letter practice.</div><br><br><br><br>",0,ospan,instruct,d7KhxOFXsygmQkLYYpCkCGg2WOi2,html-button-response,54,1283625,0.0-43.0-0.0-0.0-3.0,,,,,,,,,,,,,,,656514f9443092badedb7003,09:50:28,07/03/2024
,"<p style=""font-size:75px;"">...</p>",,ospan,iti,d7KhxOFXsygmQkLYYpCkCGg2WOi2,html-keyboard-response,55,1284895,0.0-43.0-0.0-1.0-0.0,,,,,,,,,,,,,,,656514f9443092badedb7003,09:50:28,07/03/2024
,"<div style=""font-size: 10rem; color: #0000FF"">Y</div>",,ospan,letter,d7KhxOFXsygmQkLYYpCkCGg2WOi2,html-keyboard-response,56,1285907,0.0-43.0-0.0-1.0-1.0,,,,,,,,,,,,,,,656514f9443092badedb7003,09:50:28,07/03/2024
,"<div style=""font-size: 10rem; color: #0000FF"">N</div>",,ospan,letter,d7KhxOFXsygmQkLYYpCkCGg2WOi2,html-keyboard-response,57,1287684,0.0-43.0-0.0-1.0-2.0,,,,,,,,,,,,,,,656514f9443092badedb7003,09:50:28,07/03/2024
26108.70000001788,"<div class = numbox><p style=""font-size: 2.4rem"">Please recall the letters you saw to the best of your ability. If you do not remember a particular letter, use the SKIP button.<br><b>(When you are ready to lock in your answer, press ENTER)</b></p><button id = button_1 class = ""square num-button"" onclick = ""recordClick(this)""><div class = content><div class = numbers>C</div></div></button><button id = button_2 class = ""square num-button"" onclick = ""recordClick(this)""><div class = content><div class = numbers>G</div></div></button><button id = button_3 class = ""square num-button"" onclick = ""recordClick(this)""><div class = content><div class = numbers>H</div></div></button><button id = button_4 class = ""square num-button"" onclick = ""recordClick(this)""><div class = content><div class = numbers>J</div></div></button><button id = button_5 class = ""square num-button"" onclick = ""recordClick(this)""><div class = content><div class = numbers>K</div></div></button><button id = button_6 class = ""square num-button"" onclick = ""recordClick(this)""><div class = content><div class = numbers>L</div></div></button><button id = button_7 class = ""square num-button"" onclick = ""recordClick(this)""><div class = content><div class = numbers>N</div></div></button><button id = button_8 class = ""square num-button"" onclick = ""recordClick(this)""><div class = content><div class = numbers>P</div></div></button><button id = button_9 class = ""square num-button"" onclick = ""recordClick(this)""><div class = content><div class = numbers>Q</div></div></button><button id = button_10 class = ""square num-button"" onclick = ""recordClick(this)""><div class = content><div class = numbers>R</div></div></button><button id = button_11 class = ""square num-button"" onclick = ""recordClick(this)""><div class = content><div class = numbers>S</div></div></button><button id = button_12 class = ""square num-button"" onclick = ""recordClick(this)""><div class = content><div class = numbers>Y</div></div></button><button class = clear_button id = ""ClearButton"" onclick = ""clearResponse()"">BACKSPACE</button><button class = blank_button id = ""BlankButton"" onclick = ""blankResponse()"">SKIP</button><p style=""font-size: 2.4rem""><u><b>Current Answer:</b></u></p><br><br><div id=echoed_txt style=""font-size: 5rem; color:blue;""><b></b></div></div>",enter,ospan,retrieval,d7KhxOFXsygmQkLYYpCkCGg2WOi2,html-keyboard-response,58,1314552,0.0-43.0-0.0-1.0-3.0,NA,NA,NA,2.0,"[""Y"",""N""]","[""Y"",""N""]",1.0,2.0,"['<font color=""green"">Y</font>', '<font color=""green"">N</font>']",,,,,,656514f9443092badedb7003,09:50:28,07/03/2024
4009.4000000059605,"['<p style=""font-size:44px"">Letters:<br><br><br><font color=""green"">Y</font> <font color=""green"">N</font></p><br><br>']",0,ospan,practice_feedback,d7KhxOFXsygmQkLYYpCkCGg2WOi2,html-button-response,59,1319067,0.0-43.0-0.0-1.0-4.0,,,,,,,,,,,,,,,656514f9443092badedb7003,09:50:28,07/03/2024
,"<p style=""font-size:75px;"">...</p>",,ospan,iti,d7KhxOFXsygmQkLYYpCkCGg2WOi2,html-keyboard-response,60,1320082,0.0-43.0-0.0-2.0-0.0,,,,,,,,,,,,,,,656514f9443092badedb7003,09:50:28,07/03/2024
,"<div style=""font-size: 10rem; color: #0000FF"">Q</div>",,ospan,letter,d7KhxOFXsygmQkLYYpCkCGg2WOi2,html-keyboard-response,61,1321100,0.0-43.0-0.0-2.0-1.0,,,,,,,,,,,,,,,656514f9443092badedb7003,09:50:28,07/03/2024
,"<div style=""font-size: 10rem; color: #0000FF"">R</div>",,ospan,letter,d7KhxOFXsygmQkLYYpCkCGg2WOi2,html-keyboard-response,62,1322870,0.0-43.0-0.0-2.0-2.0,,,,,,,,,,,,,,,656514f9443092badedb7003,09:50:28,07/03/2024
,"<div style=""font-size: 10rem; color: #0000FF"">L</div>",,ospan,letter,d7KhxOFXsygmQkLYYpCkCGg2WOi2,html-keyboard-response,63,1324647,0.0-43.0-0.0-2.0-3.0,,,,,,,,,,,,,,,656514f9443092badedb7003,09:50:28,07/03/2024
6494.5999999940395,"<div class = numbox><p style=""font-size: 2.4rem"">Please recall the letters you saw to the best of your ability. If you do not remember a particular letter, use the SKIP button.<br><b>(When you are ready to lock in your answer, press ENTER)</b></p><button id = button_1 class = ""square num-button"" onclick = ""recordClick(this)""><div class = content><div class = numbers>C</div></div></button><button id = button_2 class = ""square num-button"" onclick = ""recordClick(this)""><div class = content><div class = numbers>G</div></div></button><button id = button_3 class = ""square num-button"" onclick = ""recordClick(this)""><div class = content><div class = numbers>H</div></div></button><button id = button_4 class = ""square num-button"" onclick = ""recordClick(this)""><div class = content><div class = numbers>J</div></div></button><button id = button_5 class = ""square num-button"" onclick = ""recordClick(this)""><div class = content><div class = numbers>K</div></div></button><button id = button_6 class = ""square num-button"" onclick = ""recordClick(this)""><div class = content><div class = numbers>L</div></div></button><button id = button_7 class = ""square num-button"" onclick = ""recordClick(this)""><div class = content><div class = numbers>N</div></div></button><button id = button_8 class = ""square num-button"" onclick = ""recordClick(this)""><div class = content><div class = numbers>P</div></div></button><button id = button_9 class = ""square num-button"" onclick = ""recordClick(this)""><div class = content><div class = numbers>Q</div></div></button><button id = button_10 class = ""square num-button"" onclick = ""recordClick(this)""><div class = content><div class = numbers>R</div></div></button><button id = button_11 class = ""square num-button"" onclick = ""recordClick(this)""><div class = content><div class = numbers>S</div></div></button><button id = button_12 class = ""square num-button"" onclick = ""recordClick(this)""><div class = content><div class = numbers>Y</div></div></button><button class = clear_button id = ""ClearButton"" onclick = ""clearResponse()"">BACKSPACE</button><button class = blank_button id = ""BlankButton"" onclick = ""blankResponse()"">SKIP</button><p style=""font-size: 2.4rem""><u><b>Current Answer:</b></u></p><br><br><div id=echoed_txt style=""font-size: 5rem; color:blue;""><b></b></div></div>",enter,ospan,retrieval,d7KhxOFXsygmQkLYYpCkCGg2WOi2,html-keyboard-response,64,1331907,0.0-43.0-0.0-2.0-4.0,NA,NA,NA,3.0,"[""Q"",""R"",""L""]","[""Q"",""R"",""L""]",1.0,3.0,"['<font color=""green"">Q</font>', '<font color=""green"">R</font>', '<font color=""green"">L</font>']",,,,,,656514f9443092badedb7003,09:50:28,07/03/2024
1477.5,"['<p style=""font-size:44px"">Letters:<br><br><br><font color=""green"">Q</font> <font color=""green"">R</font> <font color=""green"">L</font></p><br><br>']",0,ospan,practice_feedback,d7KhxOFXsygmQkLYYpCkCGg2WOi2,html-button-response,65,1333890,0.0-43.0-0.0-2.0-5.0,,,,,,,,,,,,,,,656514f9443092badedb7003,09:50:28,07/03/2024
28741.29999998212,"<div class = 'left_align' style='font-size: 3.25rem; line-height: 1.3;'>Now you will practice doing the <b>symmetry judgment part</b> of the experiment.<br><br>A black and white grid picture will appear on the screen and you have to judge if it is <br>symmetrical or asymetrical.<br><br>A picture is 'mirror' symmetrical if its left half is identical to the right half when flipped.<br>Here are examples of a symmetrical and an asymetrical picture:<br><br><center><img src='Stimuli/img/symm_instructions_extra.png' style='height:420px; width:900'></img></center><br>To judge symmetry, imagine you were to fold each picture down the middle, like a book –<br>would the left half match the right half when folded onto each other?<br><br></div><br>",0,ospan,instruct,d7KhxOFXsygmQkLYYpCkCGg2WOi2,html-button-response,66,1362636,0.0-43.0-1.0-0.0-0.0,,,,,,,,,,,,,,,656514f9443092badedb7003,09:50:28,07/03/2024
9743.09999999404,"<div class = 'left_align' style='font-size: 3.25rem; line-height: 1.3;'>When you have viewed the picture and determined whether it is symmetrical or not,<br>you can <b>click the Yes or No button</b> below to answer.<br><br>If you take longer than 15 seconds, it will continue automatically<br>and record the answer as an error.</div><br>",0,ospan,instruct,d7KhxOFXsygmQkLYYpCkCGg2WOi2,html-button-response,67,1372634,0.0-43.0-1.0-0.0-1.0,,,,,,,,,,,,,,,656514f9443092badedb7003,09:50:28,07/03/2024
12211.300000011921,"<div class = 'left_align' style='font-size: 3.25rem; line-height: 1.3;'>It is <b>very</b> important that you make the symmetry judgment correctly.<br><br>It is also important that you try and judge the picture as quickly as you can.<br><br>When you are ready, click on the button below to try some practice problems.</div><br><br><br><br>",0,ospan,instruct,d7KhxOFXsygmQkLYYpCkCGg2WOi2,html-button-response,68,1385108,0.0-43.0-1.0-0.0-2.0,,,,,,,,,,,,,,,656514f9443092badedb7003,09:50:28,07/03/2024
8559.0,,,ospan,symmetry,d7KhxOFXsygmQkLYYpCkCGg2WOi2,symmetry-judgement-task,69,1394517,0.0-43.0-1.0-1.0-0.0,,,,,,,,,,0.0,0.0,,,,656514f9443092badedb7003,09:50:28,07/03/2024
,"<p style=""color:red; font-size: 35px"">Incorrect</p>",,ospan,feedback,d7KhxOFXsygmQkLYYpCkCGg2WOi2,html-keyboard-response,70,1395284,0.0-43.0-1.0-1.0-1.0,,,,,,,,,,,,,,,656514f9443092badedb7003,09:50:28,07/03/2024
12062.0,,,ospan,symmetry,d7KhxOFXsygmQkLYYpCkCGg2WOi2,symmetry-judgement-task,71,1409963,0.0-43.0-1.0-1.0-2.0,,,,,,,,,,1.0,1.0,,,,656514f9443092badedb7003,09:50:28,07/03/2024
,"<p style=""color:green; font-size: 35px"">Correct</p>",,ospan,feedback,d7KhxOFXsygmQkLYYpCkCGg2WOi2,html-keyboard-response,72,1410729,0.0-43.0-1.0-1.0-3.0,,,,,,,,,,,,,,,656514f9443092badedb7003,09:50:28,07/03/2024
10037.0,,,ospan,symmetry,d7KhxOFXsygmQkLYYpCkCGg2WOi2,symmetry-judgement-task,73,1423366,0.0-43.0-1.0-1.0-4.0,,,,,,,,,,1.0,1.0,,,,656514f9443092badedb7003,09:50:28,07/03/2024
,"<p style=""color:green; font-size: 35px"">Correct</p>",,ospan,feedback,d7KhxOFXsygmQkLYYpCkCGg2WOi2,html-keyboard-response,74,1424122,0.0-43.0-1.0-1.0-5.0,,,,,,,,,,,,,,,656514f9443092badedb7003,09:50:28,07/03/2024
5627.700000017881,"<p style=""font-size: 3rem;"">You only responded correctly on 2 of 3 symmetry judgments.<br><br><b>In the main task, you must try harder to answer accurately.</b></p><br><br>",0,ospan,practice,d7KhxOFXsygmQkLYYpCkCGg2WOi2,html-button-response,75,1431767,0.0-43.0-1.0-2.0,,,,,,,,,,,,,,,656514f9443092badedb7003,09:50:28,07/03/2024
20423.40000000596,"<div class = 'left_align' style='font-size: 3.25rem; line-height: 1.3;'>Now you will practice doing both parts of the experiment at the same time.<br><br>In the next practice set, you will be given one grid picture to judge.<br>Then letter will appear on the screen. Try to remember the letter.<br><br>It is <b>very important</b> to make the symmetry judgment as quickly and accurately as possible.<br><br>Just as before, once you have make the symmetry judgment, you can click Yes or No.<br><b>Note that you will no longer see Correct or Incorrect feedback.</div><br><br><br><br>",0,ospan,instruct,d7KhxOFXsygmQkLYYpCkCGg2WOi2,html-button-response,76,1452447,0.0-43.0-2.0-0.0-0.0,,,,,,,,,,,,,,,656514f9443092badedb7003,09:50:28,07/03/2024
209167.89999997616,"<div class = 'left_align' style='font-size: 3.25rem; line-height: 1.3;'>After the letter goes away, another grid picture will appear, and then<br>another letter.<br><br>At the end of each set of letters and grids, you will recall the letters to the best<br>of your ability. Remember, try your best to get the letters in the correct order.<br><br>It is important to <b>quickly</b> and <b>accurately</b> make the symmetry judgments.</div><br><br><br><br>",0,ospan,instruct,d7KhxOFXsygmQkLYYpCkCGg2WOi2,html-button-response,77,1661882,0.0-43.0-2.0-0.0-1.0,,,,,,,,,,,,,,,656514f9443092badedb7003,09:50:28,07/03/2024
83036.0,"<div class = 'left_align' style='font-size: 3.25rem; line-height: 1.3;'>On the feedback screen, if you are not doing well at the symmetry judgments,<br>you will also see a warning in the middle. This indicates your percent <br>correct for the grid pictures for the entire experiment.<br><br>It is <b>very</b> important for you to keep accuracy at least at 85%: <u>We can only use<br>data where the participant was at least 85% accurate on the judgments.</u> Therefore,<br> please try your best to perform well on the symmetry judgments, <b>at the same time</b><br>doing your best to recall as many letters as possible.<br><br>Click the button to try some practice problems.</div><br><br><br><br>",0,ospan,instruct,d7KhxOFXsygmQkLYYpCkCGg2WOi2,html-button-response,78,1745172,0.0-43.0-2.0-0.0-2.0,,,,,,,,,,,,,,,656514f9443092badedb7003,09:50:28,07/03/2024
,"<p style=""font-size:75px;"">...</p>",,ospan,iti,d7KhxOFXsygmQkLYYpCkCGg2WOi2,html-keyboard-response,79,1746443,0.0-43.0-2.0-1.0-0.0,,,,,,,,,,,,,,,656514f9443092badedb7003,09:50:28,07/03/2024
3520.0,,,ospan,symmetry,d7KhxOFXsygmQkLYYpCkCGg2WOi2,symmetry-judgement-task,80,1751080,0.0-43.0-2.0-1.0-1.0-0.0,,,,,,,,,,0.0,0.0,,,,656514f9443092badedb7003,09:50:28,07/03/2024
,"<div style=""font-size: 10rem; color: #0000FF"">L</div>",,ospan,letter,d7KhxOFXsygmQkLYYpCkCGg2WOi2,html-keyboard-response,81,1752098,0.0-43.0-2.0-1.0-1.0-1.0,,,,,,,,,,,,,,,656514f9443092badedb7003,09:50:28,07/03/2024
11612.0,,,ospan,symmetry,d7KhxOFXsygmQkLYYpCkCGg2WOi2,symmetry-judgement-task,82,1765749,0.0-43.0-2.0-1.0-1.0-2.0,,,,,,,,,,1.0,1.0,,,,656514f9443092badedb7003,09:50:28,07/03/2024
,"<div style=""font-size: 10rem; color: #0000FF"">G</div>",,ospan,letter,d7KhxOFXsygmQkLYYpCkCGg2WOi2,html-keyboard-response,83,1766754,0.0-43.0-2.0-1.0-1.0-3.0,,,,,,,,,,,,,,,656514f9443092badedb7003,09:50:28,07/03/2024
7625.0,,,ospan,symmetry,d7KhxOFXsygmQkLYYpCkCGg2WOi2,symmetry-judgement-task,84,1776382,0.0-43.0-2.0-1.0-1.0-4.0,,,,,,,,,,1.0,1.0,,,,656514f9443092badedb7003,09:50:28,07/03/2024
,"<div style=""font-size: 10rem; color: #0000FF"">P</div>",,ospan,letter,d7KhxOFXsygmQkLYYpCkCGg2WOi2,html-keyboard-response,85,1777394,0.0-43.0-2.0-1.0-1.0-5.0,,,,,,,,,,,,,,,656514f9443092badedb7003,09:50:28,07/03/2024
10798.300000011921,"<div class = numbox><p style=""font-size: 2.4rem"">Please recall the letters you saw to the best of your ability. If you do not remember a particular letter, use the SKIP button.<br><b>(When you are ready to lock in your answer, press ENTER)</b></p><button id = button_1 class = ""square num-button"" onclick = ""recordClick(this)""><div class = content><div class = numbers>C</div></div></button><button id = button_2 class = ""square num-button"" onclick = ""recordClick(this)""><div class = content><div class = numbers>G</div></div></button><button id = button_3 class = ""square num-button"" onclick = ""recordClick(this)""><div class = content><div class = numbers>H</div></div></button><button id = button_4 class = ""square num-button"" onclick = ""recordClick(this)""><div class = content><div class = numbers>J</div></div></button><button id = button_5 class = ""square num-button"" onclick = ""recordClick(this)""><div class = content><div class = numbers>K</div></div></button><button id = button_6 class = ""square num-button"" onclick = ""recordClick(this)""><div class = content><div class = numbers>L</div></div></button><button id = button_7 class = ""square num-button"" onclick = ""recordClick(this)""><div class = content><div class = numbers>N</div></div></button><button id = button_8 class = ""square num-button"" onclick = ""recordClick(this)""><div class = content><div class = numbers>P</div></div></button><button id = button_9 class = ""square num-button"" onclick = ""recordClick(this)""><div class = content><div class = numbers>Q</div></div></button><button id = button_10 class = ""square num-button"" onclick = ""recordClick(this)""><div class = content><div class = numbers>R</div></div></button><button id = button_11 class = ""square num-button"" onclick = ""recordClick(this)""><div class = content><div class = numbers>S</div></div></button><button id = button_12 class = ""square num-button"" onclick = ""recordClick(this)""><div class = content><div class = numbers>Y</div></div></button><button class = clear_button id = ""ClearButton"" onclick = ""clearResponse()"">BACKSPACE</button><button class = blank_button id = ""BlankButton"" onclick = ""blankResponse()"">SKIP</button><p style=""font-size: 2.4rem""><u><b>Current Answer:</b></u></p><br><br><div id=echoed_txt style=""font-size: 5rem; color:blue;""><b></b></div></div>",enter,ospan,retrieval,d7KhxOFXsygmQkLYYpCkCGg2WOi2,html-keyboard-response,86,1788956,0.0-43.0-2.0-1.0-2.0-0.0,NA,NA,NA,3.0,"[""L"",""G"",""P""]","[""L"",""G"",""P""]",1.0,3.0,"['<font color=""green"">L</font>', '<font color=""green"">G</font>', '<font color=""green"">P</font>']",,,,,,656514f9443092badedb7003,09:50:28,07/03/2024
5342.5,"['<p style=""font-size:44px"">Letters:<br><br><br><font color=""green"">L</font> <font color=""green"">G</font> <font color=""green"">P</font></p><br><br><p style=""font-size:30px"">Symmetry:<br><br><font color=""red"">67%</font></p><br><br>']",0,ospan,practice_feedback,d7KhxOFXsygmQkLYYpCkCGg2WOi2,html-button-response,87,1794804,0.0-43.0-2.0-1.0-2.0-1.0,,,,,,,,,,,,,,,656514f9443092badedb7003,09:50:28,07/03/2024
,"<p style=""font-size:75px;"">...</p>",,ospan,iti,d7KhxOFXsygmQkLYYpCkCGg2WOi2,html-keyboard-response,88,1795813,0.0-43.0-2.0-2.0-0.0,,,,,,,,,,,,,,,656514f9443092badedb7003,09:50:28,07/03/2024
6139.0,,,ospan,symmetry,d7KhxOFXsygmQkLYYpCkCGg2WOi2,symmetry-judgement-task,89,1803034,0.0-43.0-2.0-2.0-1.0-0.0,,,,,,,,,,1.0,1.0,,,,656514f9443092badedb7003,09:50:28,07/03/2024
,"<div style=""font-size: 10rem; color: #0000FF"">G</div>",,ospan,letter,d7KhxOFXsygmQkLYYpCkCGg2WOi2,html-keyboard-response,90,1804045,0.0-43.0-2.0-2.0-1.0-1.0,,,,,,,,,,,,,,,656514f9443092badedb7003,09:50:28,07/03/2024
7143.0,,,ospan,symmetry,d7KhxOFXsygmQkLYYpCkCGg2WOi2,symmetry-judgement-task,91,1813204,0.0-43.0-2.0-2.0-1.0-2.0,,,,,,,,,,1.0,1.0,,,,656514f9443092badedb7003,09:50:28,07/03/2024
,"<div style=""font-size: 10rem; color: #0000FF"">H</div>",,ospan,letter,d7KhxOFXsygmQkLYYpCkCGg2WOi2,html-keyboard-response,92,1814219,0.0-43.0-2.0-2.0-1.0-3.0,,,,,,,,,,,,,,,656514f9443092badedb7003,09:50:28,07/03/2024
5184.0,,,ospan,symmetry,d7KhxOFXsygmQkLYYpCkCGg2WOi2,symmetry-judgement-task,93,1821381,0.0-43.0-2.0-2.0-1.0-4.0,,,,,,,,,,1.0,1.0,,,,656514f9443092badedb7003,09:50:28,07/03/2024
,"<div style=""font-size: 10rem; color: #0000FF"">R</div>",,ospan,letter,d7KhxOFXsygmQkLYYpCkCGg2WOi2,html-keyboard-response,94,1822385,0.0-43.0-2.0-2.0-1.0-5.0,,,,,,,,,,,,,,,656514f9443092badedb7003,09:50:28,07/03/2024
6412.4000000059605,"<div class = numbox><p style=""font-size: 2.4rem"">Please recall the letters you saw to the best of your ability. If you do not remember a particular letter, use the SKIP button.<br><b>(When you are ready to lock in your answer, press ENTER)</b></p><button id = button_1 class = ""square num-button"" onclick = ""recordClick(this)""><div class = content><div class = numbers>C</div></div></button><button id = button_2 class = ""square num-button"" onclick = ""recordClick(this)""><div class = content><div class = numbers>G</div></div></button><button id = button_3 class = ""square num-button"" onclick = ""recordClick(this)""><div class = content><div class = numbers>H</div></div></button><button id = button_4 class = ""square num-button"" onclick = ""recordClick(this)""><div class = content><div class = numbers>J</div></div></button><button id = button_5 class = ""square num-button"" onclick = ""recordClick(this)""><div class = content><div class = numbers>K</div></div></button><button id = button_6 class = ""square num-button"" onclick = ""recordClick(this)""><div class = content><div class = numbers>L</div></div></button><button id = button_7 class = ""square num-button"" onclick = ""recordClick(this)""><div class = content><div class = numbers>N</div></div></button><button id = button_8 class = ""square num-button"" onclick = ""recordClick(this)""><div class = content><div class = numbers>P</div></div></button><button id = button_9 class = ""square num-button"" onclick = ""recordClick(this)""><div class = content><div class = numbers>Q</div></div></button><button id = button_10 class = ""square num-button"" onclick = ""recordClick(this)""><div class = content><div class = numbers>R</div></div></button><button id = button_11 class = ""square num-button"" onclick = ""recordClick(this)""><div class = content><div class = numbers>S</div></div></button><button id = button_12 class = ""square num-button"" onclick = ""recordClick(this)""><div class = content><div class = numbers>Y</div></div></button><button class = clear_button id = ""ClearButton"" onclick = ""clearResponse()"">BACKSPACE</button><button class = blank_button id = ""BlankButton"" onclick = ""blankResponse()"">SKIP</button><p style=""font-size: 2.4rem""><u><b>Current Answer:</b></u></p><br><br><div id=echoed_txt style=""font-size: 5rem; color:blue;""><b></b></div></div>",enter,ospan,retrieval,d7KhxOFXsygmQkLYYpCkCGg2WOi2,html-keyboard-response,95,1829564,0.0-43.0-2.0-2.0-2.0-0.0,NA,NA,NA,3.0,"[""G"",""H"",""R""]","[""G"",""H"",""R""]",1.0,3.0,"['<font color=""green"">G</font>', '<font color=""green"">H</font>', '<font color=""green"">R</font>']",,,,,,656514f9443092badedb7003,09:50:28,07/03/2024
2032.0,"['<p style=""font-size:44px"">Letters:<br><br><br><font color=""green"">G</font> <font color=""green"">H</font> <font color=""green"">R</font></p><br><br><p style=""font-size:30px"">Symmetry:<br><br><font color=""red"">83%</font></p><br><br>']",0,ospan,practice_feedback,d7KhxOFXsygmQkLYYpCkCGg2WOi2,html-button-response,96,1832117,0.0-43.0-2.0-2.0-2.0-1.0,,,,,,,,,,,,,,,656514f9443092badedb7003,09:50:28,07/03/2024
46286.5,"<div class = 'left_align' style='font-size: 3rem; line-height: 1.3;'><b>Great work! That is the end of practice.</b><br><br>The real trials will look just like the practice trials you just completed.<br><br><u>Here, you will not see feedback</u>. First, you will see an grid picture to judge,<br>then a letter to remember. When the recall screen appears, report the letters in the<br>order presented. If you forget a letter, remember to use the <b>blank</b> button to move to the<br>next letter. Some of the sets will have more symmetry grids and letters than others.<br><br>It is important that you do your best on both the symmetry judgments and the letter recall<br>parts of the experiment. For for the symmetry judgments, try to work as <b>quickly</b> and <br>as <b>accurately</b> as possible. Remember to keep your symmetry accuracy at 85% or above.<br><br><b>For the letters, do NOT use any external aid (e.g., writing on paper, electronic device).</b><br><br>It is <u>very important</u> to our experiment to have a <b>true</b> view of your real performance.<br><br>Do not worry if you miss some when it gets hard! This task is meant to be very challenging!<br><br>Click the button to begin.</div><br><br><br><br>",0,ospan,starting_real_here,d7KhxOFXsygmQkLYYpCkCGg2WOi2,html-button-response,97,1878409,0.0-43.0-2.0-3.0,,,,,,,,,,,,,,,656514f9443092badedb7003,09:50:28,07/03/2024
,"<p style=""font-size:75px;"">...</p>",,ospan,iti,d7KhxOFXsygmQkLYYpCkCGg2WOi2,html-keyboard-response,98,1879679,0.0-43.0-3.0-0.0-0.0,,,,,,,,,,,,,,,656514f9443092badedb7003,09:50:28,07/03/2024
3765.0,,,ospan,symmetry,d7KhxOFXsygmQkLYYpCkCGg2WOi2,symmetry-judgement-task,99,1884548,0.0-43.0-3.0-0.0-1.0-0.0,,,,,,,,,,1.0,1.0,,,,656514f9443092badedb7003,09:50:28,07/03/2024
,"<div style=""font-size: 10rem; color: #0000FF"">N</div>",,ospan,letter,d7KhxOFXsygmQkLYYpCkCGg2WOi2,html-keyboard-response,100,1885556,0.0-43.0-3.0-0.0-1.0-1.0,,,,,,,,,,,,,,,656514f9443092badedb7003,09:50:28,07/03/2024
4497.0,,,ospan,symmetry,d7KhxOFXsygmQkLYYpCkCGg2WOi2,symmetry-judgement-task,101,1892044,0.0-43.0-3.0-0.0-1.0-2.0,,,,,,,,,,1.0,1.0,,,,656514f9443092badedb7003,09:50:28,07/03/2024
,"<div style=""font-size: 10rem; color: #0000FF"">G</div>",,ospan,letter,d7KhxOFXsygmQkLYYpCkCGg2WOi2,html-keyboard-response,102,1893060,0.0-43.0-3.0-0.0-1.0-3.0,,,,,,,,,,,,,,,656514f9443092badedb7003,09:50:28,07/03/2024
5474.0,,,ospan,symmetry,d7KhxOFXsygmQkLYYpCkCGg2WOi2,symmetry-judgement-task,103,1900506,0.0-43.0-3.0-0.0-1.0-4.0,,,,,,,,,,1.0,1.0,,,,656514f9443092badedb7003,09:50:28,07/03/2024
,"<div style=""font-size: 10rem; color: #0000FF"">L</div>",,ospan,letter,d7KhxOFXsygmQkLYYpCkCGg2WOi2,html-keyboard-response,104,1901518,0.0-43.0-3.0-0.0-1.0-5.0,,,,,,,,,,,,,,,656514f9443092badedb7003,09:50:28,07/03/2024
6177.9000000059605,"<div class = numbox><p style=""font-size: 2.4rem"">Please recall the letters you saw to the best of your ability. If you do not remember a particular letter, use the SKIP button.<br><b>(When you are ready to lock in your answer, press ENTER)</b></p><button id = button_1 class = ""square num-button"" onclick = ""recordClick(this)""><div class = content><div class = numbers>C</div></div></button><button id = button_2 class = ""square num-button"" onclick = ""recordClick(this)""><div class = content><div class = numbers>G</div></div></button><button id = button_3 class = ""square num-button"" onclick = ""recordClick(this)""><div class = content><div class = numbers>H</div></div></button><button id = button_4 class = ""square num-button"" onclick = ""recordClick(this)""><div class = content><div class = numbers>J</div></div></button><button id = button_5 class = ""square num-button"" onclick = ""recordClick(this)""><div class = content><div class = numbers>K</div></div></button><button id = button_6 class = ""square num-button"" onclick = ""recordClick(this)""><div class = content><div class = numbers>L</div></div></button><button id = button_7 class = ""square num-button"" onclick = ""recordClick(this)""><div class = content><div class = numbers>N</div></div></button><button id = button_8 class = ""square num-button"" onclick = ""recordClick(this)""><div class = content><div class = numbers>P</div></div></button><button id = button_9 class = ""square num-button"" onclick = ""recordClick(this)""><div class = content><div class = numbers>Q</div></div></button><button id = button_10 class = ""square num-button"" onclick = ""recordClick(this)""><div class = content><div class = numbers>R</div></div></button><button id = button_11 class = ""square num-button"" onclick = ""recordClick(this)""><div class = content><div class = numbers>S</div></div></button><button id = button_12 class = ""square num-button"" onclick = ""recordClick(this)""><div class = content><div class = numbers>Y</div></div></button><button class = clear_button id = ""ClearButton"" onclick = ""clearResponse()"">BACKSPACE</button><button class = blank_button id = ""BlankButton"" onclick = ""blankResponse()"">SKIP</button><p style=""font-size: 2.4rem""><u><b>Current Answer:</b></u></p><br><br><div id=echoed_txt style=""font-size: 5rem; color:blue;""><b></b></div></div>",enter,ospan,retrieval,d7KhxOFXsygmQkLYYpCkCGg2WOi2,html-keyboard-response,105,1908461,0.0-43.0-3.0-0.0-2.0,3,3,3,3.0,"[""N"",""G"",""L""]","[""N"",""G"",""L""]",1.0,3.0,,,,,,,656514f9443092badedb7003,09:50:28,07/03/2024
1893.0999999940395,[''],0,ospan,feedback,d7KhxOFXsygmQkLYYpCkCGg2WOi2,html-button-response,106,1910864,0.0-43.0-3.0-0.0-3.0,,,,,,,,,,,,100.0,0.0,,656514f9443092badedb7003,09:50:28,07/03/2024
,"<p style=""font-size:75px;"">...</p>",,ospan,iti,d7KhxOFXsygmQkLYYpCkCGg2WOi2,html-keyboard-response,107,1911874,0.0-43.0-4.0-0.0-0.0,,,,,,,,,,,,,,,656514f9443092badedb7003,09:50:28,07/03/2024
5679.0,,,ospan,symmetry,d7KhxOFXsygmQkLYYpCkCGg2WOi2,symmetry-judgement-task,108,1918642,0.0-43.0-4.0-0.0-1.0-0.0,,,,,,,,,,1.0,1.0,,,,656514f9443092badedb7003,09:50:28,07/03/2024
,"<div style=""font-size: 10rem; color: #0000FF"">J</div>",,ospan,letter,d7KhxOFXsygmQkLYYpCkCGg2WOi2,html-keyboard-response,109,1919648,0.0-43.0-4.0-0.0-1.0-1.0,,,,,,,,,,,,,,,656514f9443092badedb7003,09:50:28,07/03/2024
4536.0,,,ospan,symmetry,d7KhxOFXsygmQkLYYpCkCGg2WOi2,symmetry-judgement-task,110,1926284,0.0-43.0-4.0-0.0-1.0-2.0,,,,,,,,,,1.0,1.0,,,,656514f9443092badedb7003,09:50:28,07/03/2024
,"<div style=""font-size: 10rem; color: #0000FF"">Q</div>",,ospan,letter,d7KhxOFXsygmQkLYYpCkCGg2WOi2,html-keyboard-response,111,1927295,0.0-43.0-4.0-0.0-1.0-3.0,,,,,,,,,,,,,,,656514f9443092badedb7003,09:50:28,07/03/2024
6317.0,,,ospan,symmetry,d7KhxOFXsygmQkLYYpCkCGg2WOi2,symmetry-judgement-task,112,1935624,0.0-43.0-4.0-0.0-1.0-4.0,,,,,,,,,,1.0,1.0,,,,656514f9443092badedb7003,09:50:28,07/03/2024
,"<div style=""font-size: 10rem; color: #0000FF"">P</div>",,ospan,letter,d7KhxOFXsygmQkLYYpCkCGg2WOi2,html-keyboard-response,113,1936637,0.0-43.0-4.0-0.0-1.0-5.0,,,,,,,,,,,,,,,656514f9443092badedb7003,09:50:28,07/03/2024
4657.0,,,ospan,symmetry,d7KhxOFXsygmQkLYYpCkCGg2WOi2,symmetry-judgement-task,114,1943332,0.0-43.0-4.0-0.0-1.0-6.0,,,,,,,,,,1.0,1.0,,,,656514f9443092badedb7003,09:50:28,07/03/2024
,"<div style=""font-size: 10rem; color: #0000FF"">K</div>",,ospan,letter,d7KhxOFXsygmQkLYYpCkCGg2WOi2,html-keyboard-response,115,1944338,0.0-43.0-4.0-0.0-1.0-7.0,,,,,,,,,,,,,,,656514f9443092badedb7003,09:50:28,07/03/2024
7579.200000017881,"<div class = numbox><p style=""font-size: 2.4rem"">Please recall the letters you saw to the best of your ability. If you do not remember a particular letter, use the SKIP button.<br><b>(When you are ready to lock in your answer, press ENTER)</b></p><button id = button_1 class = ""square num-button"" onclick = ""recordClick(this)""><div class = content><div class = numbers>C</div></div></button><button id = button_2 class = ""square num-button"" onclick = ""recordClick(this)""><div class = content><div class = numbers>G</div></div></button><button id = button_3 class = ""square num-button"" onclick = ""recordClick(this)""><div class = content><div class = numbers>H</div></div></button><button id = button_4 class = ""square num-button"" onclick = ""recordClick(this)""><div class = content><div class = numbers>J</div></div></button><button id = button_5 class = ""square num-button"" onclick = ""recordClick(this)""><div class = content><div class = numbers>K</div></div></button><button id = button_6 class = ""square num-button"" onclick = ""recordClick(this)""><div class = content><div class = numbers>L</div></div></button><button id = button_7 class = ""square num-button"" onclick = ""recordClick(this)""><div class = content><div class = numbers>N</div></div></button><button id = button_8 class = ""square num-button"" onclick = ""recordClick(this)""><div class = content><div class = numbers>P</div></div></button><button id = button_9 class = ""square num-button"" onclick = ""recordClick(this)""><div class = content><div class = numbers>Q</div></div></button><button id = button_10 class = ""square num-button"" onclick = ""recordClick(this)""><div class = content><div class = numbers>R</div></div></button><button id = button_11 class = ""square num-button"" onclick = ""recordClick(this)""><div class = content><div class = numbers>S</div></div></button><button id = button_12 class = ""square num-button"" onclick = ""recordClick(this)""><div class = content><div class = numbers>Y</div></div></button><button class = clear_button id = ""ClearButton"" onclick = ""clearResponse()"">BACKSPACE</button><button class = blank_button id = ""BlankButton"" onclick = ""blankResponse()"">SKIP</button><p style=""font-size: 2.4rem""><u><b>Current Answer:</b></u></p><br><br><div id=echoed_txt style=""font-size: 5rem; color:blue;""><b></b></div></div>",enter,ospan,retrieval,d7KhxOFXsygmQkLYYpCkCGg2WOi2,html-keyboard-response,116,1952687,0.0-43.0-4.0-0.0-2.0,7,6,3,4.0,"[""G"",""Q"",""P"",""K""]","[""J"",""Q"",""P"",""K""]",0.0,3.0,,,,,,,656514f9443092badedb7003,09:50:28,07/03/2024
1487.8999999761581,[''],0,ospan,feedback,d7KhxOFXsygmQkLYYpCkCGg2WOi2,html-button-response,117,1954691,0.0-43.0-4.0-0.0-3.0,,,,,,,,,,,,100.0,0.0,,656514f9443092badedb7003,09:50:28,07/03/2024
,"<p style=""font-size:75px;"">...</p>",,ospan,iti,d7KhxOFXsygmQkLYYpCkCGg2WOi2,html-keyboard-response,118,1955697,0.0-43.0-4.0-1.0-0.0,,,,,,,,,,,,,,,656514f9443092badedb7003,09:50:28,07/03/2024
4325.0,,,ospan,symmetry,d7KhxOFXsygmQkLYYpCkCGg2WOi2,symmetry-judgement-task,119,1961298,0.0-43.0-4.0-1.0-1.0-0.0,,,,,,,,,,1.0,1.0,,,,656514f9443092badedb7003,09:50:28,07/03/2024
,"<div style=""font-size: 10rem; color: #0000FF"">N</div>",,ospan,letter,d7KhxOFXsygmQkLYYpCkCGg2WOi2,html-keyboard-response,120,1962311,0.0-43.0-4.0-1.0-1.0-1.0,,,,,,,,,,,,,,,656514f9443092badedb7003,09:50:28,07/03/2024
4998.0,,,ospan,symmetry,d7KhxOFXsygmQkLYYpCkCGg2WOi2,symmetry-judgement-task,121,1969345,0.0-43.0-4.0-1.0-1.0-2.0,,,,,,,,,,1.0,1.0,,,,656514f9443092badedb7003,09:50:28,07/03/2024
,"<div style=""font-size: 10rem; color: #0000FF"">Q</div>",,ospan,letter,d7KhxOFXsygmQkLYYpCkCGg2WOi2,html-keyboard-response,122,1970353,0.0-43.0-4.0-1.0-1.0-3.0,,,,,,,,,,,,,,,656514f9443092badedb7003,09:50:28,07/03/2024
3776.0,,,ospan,symmetry,d7KhxOFXsygmQkLYYpCkCGg2WOi2,symmetry-judgement-task,123,1976144,0.0-43.0-4.0-1.0-1.0-4.0,,,,,,,,,,1.0,1.0,,,,656514f9443092badedb7003,09:50:28,07/03/2024
,"<div style=""font-size: 10rem; color: #0000FF"">Y</div>",,ospan,letter,d7KhxOFXsygmQkLYYpCkCGg2WOi2,html-keyboard-response,124,1977154,0.0-43.0-4.0-1.0-1.0-5.0,,,,,,,,,,,,,,,656514f9443092badedb7003,09:50:28,07/03/2024
3795.0,,,ospan,symmetry,d7KhxOFXsygmQkLYYpCkCGg2WOi2,symmetry-judgement-task,125,1983030,0.0-43.0-4.0-1.0-1.0-6.0,,,,,,,,,,1.0,1.0,,,,656514f9443092badedb7003,09:50:28,07/03/2024
,"<div style=""font-size: 10rem; color: #0000FF"">H</div>",,ospan,letter,d7KhxOFXsygmQkLYYpCkCGg2WOi2,html-keyboard-response,126,1984038,0.0-43.0-4.0-1.0-1.0-7.0,,,,,,,,,,,,,,,656514f9443092badedb7003,09:50:28,07/03/2024
3349.0,,,ospan,symmetry,d7KhxOFXsygmQkLYYpCkCGg2WOi2,symmetry-judgement-task,127,1989400,0.0-43.0-4.0-1.0-1.0-8.0,,,,,,,,,,1.0,1.0,,,,656514f9443092badedb7003,09:50:28,07/03/2024
,"<div style=""font-size: 10rem; color: #0000FF"">K</div>",,ospan,letter,d7KhxOFXsygmQkLYYpCkCGg2WOi2,html-keyboard-response,128,1990407,0.0-43.0-4.0-1.0-1.0-9.0,,,,,,,,,,,,,,,656514f9443092badedb7003,09:50:28,07/03/2024
8805.300000011921,"<div class = numbox><p style=""font-size: 2.4rem"">Please recall the letters you saw to the best of your ability. If you do not remember a particular letter, use the SKIP button.<br><b>(When you are ready to lock in your answer, press ENTER)</b></p><button id = button_1 class = ""square num-button"" onclick = ""recordClick(this)""><div class = content><div class = numbers>C</div></div></button><button id = button_2 class = ""square num-button"" onclick = ""recordClick(this)""><div class = content><div class = numbers>G</div></div></button><button id = button_3 class = ""square num-button"" onclick = ""recordClick(this)""><div class = content><div class = numbers>H</div></div></button><button id = button_4 class = ""square num-button"" onclick = ""recordClick(this)""><div class = content><div class = numbers>J</div></div></button><button id = button_5 class = ""square num-button"" onclick = ""recordClick(this)""><div class = content><div class = numbers>K</div></div></button><button id = button_6 class = ""square num-button"" onclick = ""recordClick(this)""><div class = content><div class = numbers>L</div></div></button><button id = button_7 class = ""square num-button"" onclick = ""recordClick(this)""><div class = content><div class = numbers>N</div></div></button><button id = button_8 class = ""square num-button"" onclick = ""recordClick(this)""><div class = content><div class = numbers>P</div></div></button><button id = button_9 class = ""square num-button"" onclick = ""recordClick(this)""><div class = content><div class = numbers>Q</div></div></button><button id = button_10 class = ""square num-button"" onclick = ""recordClick(this)""><div class = content><div class = numbers>R</div></div></button><button id = button_11 class = ""square num-button"" onclick = ""recordClick(this)""><div class = content><div class = numbers>S</div></div></button><button id = button_12 class = ""square num-button"" onclick = ""recordClick(this)""><div class = content><div class = numbers>Y</div></div></button><button class = clear_button id = ""ClearButton"" onclick = ""clearResponse()"">BACKSPACE</button><button class = blank_button id = ""BlankButton"" onclick = ""blankResponse()"">SKIP</button><p style=""font-size: 2.4rem""><u><b>Current Answer:</b></u></p><br><br><div id=echoed_txt style=""font-size: 5rem; color:blue;""><b></b></div></div>",enter,ospan,retrieval,d7KhxOFXsygmQkLYYpCkCGg2WOi2,html-keyboard-response,129,1999977,0.0-43.0-4.0-1.0-2.0,12,11,8,5.0,"[""N"",""Q"",""Y"",""H"",""K""]","[""N"",""Q"",""Y"",""H"",""K""]",1.0,5.0,,,,,,,656514f9443092badedb7003,09:50:28,07/03/2024
2453.5999999940395,[''],0,ospan,feedback,d7KhxOFXsygmQkLYYpCkCGg2WOi2,html-button-response,130,2002939,0.0-43.0-4.0-1.0-3.0,,,,,,,,,,,,100.0,0.0,,656514f9443092badedb7003,09:50:28,07/03/2024
,"<p style=""font-size:75px;"">...</p>",,ospan,iti,d7KhxOFXsygmQkLYYpCkCGg2WOi2,html-keyboard-response,131,2003945,0.0-43.0-4.0-2.0-0.0,,,,,,,,,,,,,,,656514f9443092badedb7003,09:50:28,07/03/2024
3210.0,,,ospan,symmetry,d7KhxOFXsygmQkLYYpCkCGg2WOi2,symmetry-judgement-task,132,2008477,0.0-43.0-4.0-2.0-1.0-0.0,,,,,,,,,,1.0,1.0,,,,656514f9443092badedb7003,09:50:28,07/03/2024
,"<div style=""font-size: 10rem; color: #0000FF"">H</div>",,ospan,letter,d7KhxOFXsygmQkLYYpCkCGg2WOi2,html-keyboard-response,133,2009489,0.0-43.0-4.0-2.0-1.0-1.0,,,,,,,,,,,,,,,656514f9443092badedb7003,09:50:28,07/03/2024
4873.0,,,ospan,symmetry,d7KhxOFXsygmQkLYYpCkCGg2WOi2,symmetry-judgement-task,134,2016391,0.0-43.0-4.0-2.0-1.0-2.0,,,,,,,,,,1.0,1.0,,,,656514f9443092badedb7003,09:50:28,07/03/2024
,"<div style=""font-size: 10rem; color: #0000FF"">N</div>",,ospan,letter,d7KhxOFXsygmQkLYYpCkCGg2WOi2,html-keyboard-response,135,2017400,0.0-43.0-4.0-2.0-1.0-3.0,,,,,,,,,,,,,,,656514f9443092badedb7003,09:50:28,07/03/2024
3678.0,,,ospan,symmetry,d7KhxOFXsygmQkLYYpCkCGg2WOi2,symmetry-judgement-task,136,2023117,0.0-43.0-4.0-2.0-1.0-4.0,,,,,,,,,,1.0,1.0,,,,656514f9443092badedb7003,09:50:28,07/03/2024
,"<div style=""font-size: 10rem; color: #0000FF"">K</div>",,ospan,letter,d7KhxOFXsygmQkLYYpCkCGg2WOi2,html-keyboard-response,137,2024121,0.0-43.0-4.0-2.0-1.0-5.0,,,,,,,,,,,,,,,656514f9443092badedb7003,09:50:28,07/03/2024
5613.5999999940395,"<div class = numbox><p style=""font-size: 2.4rem"">Please recall the letters you saw to the best of your ability. If you do not remember a particular letter, use the SKIP button.<br><b>(When you are ready to lock in your answer, press ENTER)</b></p><button id = button_1 class = ""square num-button"" onclick = ""recordClick(this)""><div class = content><div class = numbers>C</div></div></button><button id = button_2 class = ""square num-button"" onclick = ""recordClick(this)""><div class = content><div class = numbers>G</div></div></button><button id = button_3 class = ""square num-button"" onclick = ""recordClick(this)""><div class = content><div class = numbers>H</div></div></button><button id = button_4 class = ""square num-button"" onclick = ""recordClick(this)""><div class = content><div class = numbers>J</div></div></button><button id = button_5 class = ""square num-button"" onclick = ""recordClick(this)""><div class = content><div class = numbers>K</div></div></button><button id = button_6 class = ""square num-button"" onclick = ""recordClick(this)""><div class = content><div class = numbers>L</div></div></button><button id = button_7 class = ""square num-button"" onclick = ""recordClick(this)""><div class = content><div class = numbers>N</div></div></button><button id = button_8 class = ""square num-button"" onclick = ""recordClick(this)""><div class = content><div class = numbers>P</div></div></button><button id = button_9 class = ""square num-button"" onclick = ""recordClick(this)""><div class = content><div class = numbers>Q</div></div></button><button id = button_10 class = ""square num-button"" onclick = ""recordClick(this)""><div class = content><div class = numbers>R</div></div></button><button id = button_11 class = ""square num-button"" onclick = ""recordClick(this)""><div class = content><div class = numbers>S</div></div></button><button id = button_12 class = ""square num-button"" onclick = ""recordClick(this)""><div class = content><div class = numbers>Y</div></div></button><button class = clear_button id = ""ClearButton"" onclick = ""clearResponse()"">BACKSPACE</button><button class = blank_button id = ""BlankButton"" onclick = ""blankResponse()"">SKIP</button><p style=""font-size: 2.4rem""><u><b>Current Answer:</b></u></p><br><br><div id=echoed_txt style=""font-size: 5rem; color:blue;""><b></b></div></div>",enter,ospan,retrieval,d7KhxOFXsygmQkLYYpCkCGg2WOi2,html-keyboard-response,138,2030493,0.0-43.0-4.0-2.0-2.0,15,14,11,3.0,"[""H"",""N"",""K""]","[""H"",""N"",""K""]",1.0,3.0,,,,,,,656514f9443092badedb7003,09:50:28,07/03/2024
1325.800000011921,[''],0,ospan,feedback,d7KhxOFXsygmQkLYYpCkCGg2WOi2,html-button-response,139,2032325,0.0-43.0-4.0-2.0-3.0,,,,,,,,,,,,100.0,0.0,,656514f9443092badedb7003,09:50:28,07/03/2024
,"<p style=""font-size:75px;"">...</p>",,ospan,iti,d7KhxOFXsygmQkLYYpCkCGg2WOi2,html-keyboard-response,140,2033343,0.0-43.0-5.0-0.0-0.0,,,,,,,,,,,,,,,656514f9443092badedb7003,09:50:28,07/03/2024
4021.0,,,ospan,symmetry,d7KhxOFXsygmQkLYYpCkCGg2WOi2,symmetry-judgement-task,141,2038678,0.0-43.0-5.0-0.0-1.0-0.0,,,,,,,,,,1.0,1.0,,,,656514f9443092badedb7003,09:50:28,07/03/2024
,"<div style=""font-size: 10rem; color: #0000FF"">L</div>",,ospan,letter,d7KhxOFXsygmQkLYYpCkCGg2WOi2,html-keyboard-response,142,2039684,0.0-43.0-5.0-0.0-1.0-1.0,,,,,,,,,,,,,,,656514f9443092badedb7003,09:50:28,07/03/2024
2672.0,,,ospan,symmetry,d7KhxOFXsygmQkLYYpCkCGg2WOi2,symmetry-judgement-task,143,2044383,0.0-43.0-5.0-0.0-1.0-2.0,,,,,,,,,,1.0,1.0,,,,656514f9443092badedb7003,09:50:28,07/03/2024
,"<div style=""font-size: 10rem; color: #0000FF"">C</div>",,ospan,letter,d7KhxOFXsygmQkLYYpCkCGg2WOi2,html-keyboard-response,144,2045388,0.0-43.0-5.0-0.0-1.0-3.0,,,,,,,,,,,,,,,656514f9443092badedb7003,09:50:28,07/03/2024
3433.0,,,ospan,symmetry,d7KhxOFXsygmQkLYYpCkCGg2WOi2,symmetry-judgement-task,145,2050701,0.0-43.0-5.0-0.0-1.0-4.0,,,,,,,,,,1.0,1.0,,,,656514f9443092badedb7003,09:50:28,07/03/2024
,"<div style=""font-size: 10rem; color: #0000FF"">Q</div>",,ospan,letter,d7KhxOFXsygmQkLYYpCkCGg2WOi2,html-keyboard-response,146,2051718,0.0-43.0-5.0-0.0-1.0-5.0,,,,,,,,,,,,,,,656514f9443092badedb7003,09:50:28,07/03/2024
5063.0,,,ospan,symmetry,d7KhxOFXsygmQkLYYpCkCGg2WOi2,symmetry-judgement-task,147,2058648,0.0-43.0-5.0-0.0-1.0-6.0,,,,,,,,,,1.0,1.0,,,,656514f9443092badedb7003,09:50:28,07/03/2024
,"<div style=""font-size: 10rem; color: #0000FF"">G</div>",,ospan,letter,d7KhxOFXsygmQkLYYpCkCGg2WOi2,html-keyboard-response,148,2059666,0.0-43.0-5.0-0.0-1.0-7.0,,,,,,,,,,,,,,,656514f9443092badedb7003,09:50:28,07/03/2024
3916.0,,,ospan,symmetry,d7KhxOFXsygmQkLYYpCkCGg2WOi2,symmetry-judgement-task,149,2065599,0.0-43.0-5.0-0.0-1.0-8.0,,,,,,,,,,1.0,1.0,,,,656514f9443092badedb7003,09:50:28,07/03/2024
,"<div style=""font-size: 10rem; color: #0000FF"">J</div>",,ospan,letter,d7KhxOFXsygmQkLYYpCkCGg2WOi2,html-keyboard-response,150,2066616,0.0-43.0-5.0-0.0-1.0-9.0,,,,,,,,,,,,,,,656514f9443092badedb7003,09:50:28,07/03/2024
4390.0,,,ospan,symmetry,d7KhxOFXsygmQkLYYpCkCGg2WOi2,symmetry-judgement-task,151,2073045,0.0-43.0-5.0-0.0-1.0-10.0,,,,,,,,,,1.0,1.0,,,,656514f9443092badedb7003,09:50:28,07/03/2024
,"<div style=""font-size: 10rem; color: #0000FF"">Y</div>",,ospan,letter,d7KhxOFXsygmQkLYYpCkCGg2WOi2,html-keyboard-response,152,2074061,0.0-43.0-5.0-0.0-1.0-11.0,,,,,,,,,,,,,,,656514f9443092badedb7003,09:50:28,07/03/2024
9713.09999999404,"<div class = numbox><p style=""font-size: 2.4rem"">Please recall the letters you saw to the best of your ability. If you do not remember a particular letter, use the SKIP button.<br><b>(When you are ready to lock in your answer, press ENTER)</b></p><button id = button_1 class = ""square num-button"" onclick = ""recordClick(this)""><div class = content><div class = numbers>C</div></div></button><button id = button_2 class = ""square num-button"" onclick = ""recordClick(this)""><div class = content><div class = numbers>G</div></div></button><button id = button_3 class = ""square num-button"" onclick = ""recordClick(this)""><div class = content><div class = numbers>H</div></div></button><button id = button_4 class = ""square num-button"" onclick = ""recordClick(this)""><div class = content><div class = numbers>J</div></div></button><button id = button_5 class = ""square num-button"" onclick = ""recordClick(this)""><div class = content><div class = numbers>K</div></div></button><button id = button_6 class = ""square num-button"" onclick = ""recordClick(this)""><div class = content><div class = numbers>L</div></div></button><button id = button_7 class = ""square num-button"" onclick = ""recordClick(this)""><div class = content><div class = numbers>N</div></div></button><button id = button_8 class = ""square num-button"" onclick = ""recordClick(this)""><div class = content><div class = numbers>P</div></div></button><button id = button_9 class = ""square num-button"" onclick = ""recordClick(this)""><div class = content><div class = numbers>Q</div></div></button><button id = button_10 class = ""square num-button"" onclick = ""recordClick(this)""><div class = content><div class = numbers>R</div></div></button><button id = button_11 class = ""square num-button"" onclick = ""recordClick(this)""><div class = content><div class = numbers>S</div></div></button><button id = button_12 class = ""square num-button"" onclick = ""recordClick(this)""><div class = content><div class = numbers>Y</div></div></button><button class = clear_button id = ""ClearButton"" onclick = ""clearResponse()"">BACKSPACE</button><button class = blank_button id = ""BlankButton"" onclick = ""blankResponse()"">SKIP</button><p style=""font-size: 2.4rem""><u><b>Current Answer:</b></u></p><br><br><div id=echoed_txt style=""font-size: 5rem; color:blue;""><b></b></div></div>",enter,ospan,retrieval,d7KhxOFXsygmQkLYYpCkCGg2WOi2,html-keyboard-response,153,2084529,0.0-43.0-5.0-0.0-2.0,21,20,17,6.0,"[""L"",""C"",""Q"",""G"",""J"",""Y""]","[""L"",""C"",""Q"",""G"",""J"",""Y""]",1.0,6.0,,,,,,,656514f9443092badedb7003,09:50:28,07/03/2024
1534.4000000059605,[''],0,ospan,feedback,d7KhxOFXsygmQkLYYpCkCGg2WOi2,html-button-response,154,2086583,0.0-43.0-5.0-0.0-3.0,,,,,,,,,,,,100.0,0.0,,656514f9443092badedb7003,09:50:28,07/03/2024
,"<p style=""font-size:75px;"">...</p>",,ospan,iti,d7KhxOFXsygmQkLYYpCkCGg2WOi2,html-keyboard-response,155,2087591,0.0-43.0-5.0-1.0-0.0,,,,,,,,,,,,,,,656514f9443092badedb7003,09:50:28,07/03/2024
4151.0,,,ospan,symmetry,d7KhxOFXsygmQkLYYpCkCGg2WOi2,symmetry-judgement-task,156,2093008,0.0-43.0-5.0-1.0-1.0-0.0,,,,,,,,,,1.0,1.0,,,,656514f9443092badedb7003,09:50:28,07/03/2024
,"<div style=""font-size: 10rem; color: #0000FF"">H</div>",,ospan,letter,d7KhxOFXsygmQkLYYpCkCGg2WOi2,html-keyboard-response,157,2094026,0.0-43.0-5.0-1.0-1.0-1.0,,,,,,,,,,,,,,,656514f9443092badedb7003,09:50:28,07/03/2024
6776.0,,,ospan,symmetry,d7KhxOFXsygmQkLYYpCkCGg2WOi2,symmetry-judgement-task,158,2102845,0.0-43.0-5.0-1.0-1.0-2.0,,,,,,,,,,1.0,1.0,,,,656514f9443092badedb7003,09:50:28,07/03/2024
,"<div style=""font-size: 10rem; color: #0000FF"">L</div>",,ospan,letter,d7KhxOFXsygmQkLYYpCkCGg2WOi2,html-keyboard-response,159,2103853,0.0-43.0-5.0-1.0-1.0-3.0,,,,,,,,,,,,,,,656514f9443092badedb7003,09:50:28,07/03/2024
3388.0,,,ospan,symmetry,d7KhxOFXsygmQkLYYpCkCGg2WOi2,symmetry-judgement-task,160,2109236,0.0-43.0-5.0-1.0-1.0-4.0,,,,,,,,,,1.0,1.0,,,,656514f9443092badedb7003,09:50:28,07/03/2024
,"<div style=""font-size: 10rem; color: #0000FF"">K</div>",,ospan,letter,d7KhxOFXsygmQkLYYpCkCGg2WOi2,html-keyboard-response,161,2110246,0.0-43.0-5.0-1.0-1.0-5.0,,,,,,,,,,,,,,,656514f9443092badedb7003,09:50:28,07/03/2024
2499.0,,,ospan,symmetry,d7KhxOFXsygmQkLYYpCkCGg2WOi2,symmetry-judgement-task,162,2114770,0.0-43.0-5.0-1.0-1.0-6.0,,,,,,,,,,1.0,1.0,,,,656514f9443092badedb7003,09:50:28,07/03/2024
,"<div style=""font-size: 10rem; color: #0000FF"">Y</div>",,ospan,letter,d7KhxOFXsygmQkLYYpCkCGg2WOi2,html-keyboard-response,163,2115788,0.0-43.0-5.0-1.0-1.0-7.0,,,,,,,,,,,,,,,656514f9443092badedb7003,09:50:28,07/03/2024
2136.0,,,ospan,symmetry,d7KhxOFXsygmQkLYYpCkCGg2WOi2,symmetry-judgement-task,164,2120000,0.0-43.0-5.0-1.0-1.0-8.0,,,,,,,,,,1.0,1.0,,,,656514f9443092badedb7003,09:50:28,07/03/2024
,"<div style=""font-size: 10rem; color: #0000FF"">R</div>",,ospan,letter,d7KhxOFXsygmQkLYYpCkCGg2WOi2,html-keyboard-response,165,2121008,0.0-43.0-5.0-1.0-1.0-9.0,,,,,,,,,,,,,,,656514f9443092badedb7003,09:50:28,07/03/2024
8755.0,,,ospan,symmetry,d7KhxOFXsygmQkLYYpCkCGg2WOi2,symmetry-judgement-task,166,2131790,0.0-43.0-5.0-1.0-1.0-10.0,,,,,,,,,,1.0,1.0,,,,656514f9443092badedb7003,09:50:28,07/03/2024
,"<div style=""font-size: 10rem; color: #0000FF"">G</div>",,ospan,letter,d7KhxOFXsygmQkLYYpCkCGg2WOi2,html-keyboard-response,167,2132793,0.0-43.0-5.0-1.0-1.0-11.0,,,,,,,,,,,,,,,656514f9443092badedb7003,09:50:28,07/03/2024
2474.0,,,ospan,symmetry,d7KhxOFXsygmQkLYYpCkCGg2WOi2,symmetry-judgement-task,168,2137267,0.0-43.0-5.0-1.0-1.0-12.0,,,,,,,,,,1.0,1.0,,,,656514f9443092badedb7003,09:50:28,07/03/2024
,"<div style=""font-size: 10rem; color: #0000FF"">Q</div>",,ospan,letter,d7KhxOFXsygmQkLYYpCkCGg2WOi2,html-keyboard-response,169,2138275,0.0-43.0-5.0-1.0-1.0-13.0,,,,,,,,,,,,,,,656514f9443092badedb7003,09:50:28,07/03/2024
13280.90000000596,"<div class = numbox><p style=""font-size: 2.4rem"">Please recall the letters you saw to the best of your ability. If you do not remember a particular letter, use the SKIP button.<br><b>(When you are ready to lock in your answer, press ENTER)</b></p><button id = button_1 class = ""square num-button"" onclick = ""recordClick(this)""><div class = content><div class = numbers>C</div></div></button><button id = button_2 class = ""square num-button"" onclick = ""recordClick(this)""><div class = content><div class = numbers>G</div></div></button><button id = button_3 class = ""square num-button"" onclick = ""recordClick(this)""><div class = content><div class = numbers>H</div></div></button><button id = button_4 class = ""square num-button"" onclick = ""recordClick(this)""><div class = content><div class = numbers>J</div></div></button><button id = button_5 class = ""square num-button"" onclick = ""recordClick(this)""><div class = content><div class = numbers>K</div></div></button><button id = button_6 class = ""square num-button"" onclick = ""recordClick(this)""><div class = content><div class = numbers>L</div></div></button><button id = button_7 class = ""square num-button"" onclick = ""recordClick(this)""><div class = content><div class = numbers>N</div></div></button><button id = button_8 class = ""square num-button"" onclick = ""recordClick(this)""><div class = content><div class = numbers>P</div></div></button><button id = button_9 class = ""square num-button"" onclick = ""recordClick(this)""><div class = content><div class = numbers>Q</div></div></button><button id = button_10 class = ""square num-button"" onclick = ""recordClick(this)""><div class = content><div class = numbers>R</div></div></button><button id = button_11 class = ""square num-button"" onclick = ""recordClick(this)""><div class = content><div class = numbers>S</div></div></button><button id = button_12 class = ""square num-button"" onclick = ""recordClick(this)""><div class = content><div class = numbers>Y</div></div></button><button class = clear_button id = ""ClearButton"" onclick = ""clearResponse()"">BACKSPACE</button><button class = blank_button id = ""BlankButton"" onclick = ""blankResponse()"">SKIP</button><p style=""font-size: 2.4rem""><u><b>Current Answer:</b></u></p><br><br><div id=echoed_txt style=""font-size: 5rem; color:blue;""><b></b></div></div>",enter,ospan,retrieval,d7KhxOFXsygmQkLYYpCkCGg2WOi2,html-keyboard-response,170,2152310,0.0-43.0-5.0-1.0-2.0,28,27,24,7.0,"[""H"",""L"",""K"",""Y"",""R"",""G"",""Q""]","[""H"",""L"",""K"",""Y"",""R"",""G"",""Q""]",1.0,7.0,,,,,,,656514f9443092badedb7003,09:50:28,07/03/2024
3011.199999988079,[''],0,ospan,feedback,d7KhxOFXsygmQkLYYpCkCGg2WOi2,html-button-response,171,2155826,0.0-43.0-5.0-1.0-3.0,,,,,,,,,,,,100.0,0.0,,656514f9443092badedb7003,09:50:28,07/03/2024
,"<p style=""font-size:75px;"">...</p>",,ospan,iti,d7KhxOFXsygmQkLYYpCkCGg2WOi2,html-keyboard-response,172,2156839,0.0-43.0-6.0-0.0-0.0,,,,,,,,,,,,,,,656514f9443092badedb7003,09:50:28,07/03/2024
5500.0,,,ospan,symmetry,d7KhxOFXsygmQkLYYpCkCGg2WOi2,symmetry-judgement-task,173,2163434,0.0-43.0-6.0-0.0-1.0-0.0,,,,,,,,,,1.0,1.0,,,,656514f9443092badedb7003,09:50:28,07/03/2024
,"<div style=""font-size: 10rem; color: #0000FF"">L</div>",,ospan,letter,d7KhxOFXsygmQkLYYpCkCGg2WOi2,html-keyboard-response,174,2164441,0.0-43.0-6.0-0.0-1.0-1.0,,,,,,,,,,,,,,,656514f9443092badedb7003,09:50:28,07/03/2024
3230.0,,,ospan,symmetry,d7KhxOFXsygmQkLYYpCkCGg2WOi2,symmetry-judgement-task,175,2169763,0.0-43.0-6.0-0.0-1.0-2.0,,,,,,,,,,1.0,1.0,,,,656514f9443092badedb7003,09:50:28,07/03/2024
,"<div style=""font-size: 10rem; color: #0000FF"">G</div>",,ospan,letter,d7KhxOFXsygmQkLYYpCkCGg2WOi2,html-keyboard-response,176,2170782,0.0-43.0-6.0-0.0-1.0-3.0,,,,,,,,,,,,,,,656514f9443092badedb7003,09:50:28,07/03/2024
2177.0,,,ospan,symmetry,d7KhxOFXsygmQkLYYpCkCGg2WOi2,symmetry-judgement-task,177,2174957,0.0-43.0-6.0-0.0-1.0-4.0,,,,,,,,,,1.0,1.0,,,,656514f9443092badedb7003,09:50:28,07/03/2024
,"<div style=""font-size: 10rem; color: #0000FF"">P</div>",,ospan,letter,d7KhxOFXsygmQkLYYpCkCGg2WOi2,html-keyboard-response,178,2175974,0.0-43.0-6.0-0.0-1.0-5.0,,,,,,,,,,,,,,,656514f9443092badedb7003,09:50:28,07/03/2024
1914.0,,,ospan,symmetry,d7KhxOFXsygmQkLYYpCkCGg2WOi2,symmetry-judgement-task,179,2179875,0.0-43.0-6.0-0.0-1.0-6.0,,,,,,,,,,1.0,1.0,,,,656514f9443092badedb7003,09:50:28,07/03/2024
,"<div style=""font-size: 10rem; color: #0000FF"">K</div>",,ospan,letter,d7KhxOFXsygmQkLYYpCkCGg2WOi2,html-keyboard-response,180,2180884,0.0-43.0-6.0-0.0-1.0-7.0,,,,,,,,,,,,,,,656514f9443092badedb7003,09:50:28,07/03/2024
1996.0,,,ospan,symmetry,d7KhxOFXsygmQkLYYpCkCGg2WOi2,symmetry-judgement-task,181,2184915,0.0-43.0-6.0-0.0-1.0-8.0,,,,,,,,,,1.0,1.0,,,,656514f9443092badedb7003,09:50:28,07/03/2024
,"<div style=""font-size: 10rem; color: #0000FF"">S</div>",,ospan,letter,d7KhxOFXsygmQkLYYpCkCGg2WOi2,html-keyboard-response,182,2185922,0.0-43.0-6.0-0.0-1.0-9.0,,,,,,,,,,,,,,,656514f9443092badedb7003,09:50:28,07/03/2024
8299.699999988079,"<div class = numbox><p style=""font-size: 2.4rem"">Please recall the letters you saw to the best of your ability. If you do not remember a particular letter, use the SKIP button.<br><b>(When you are ready to lock in your answer, press ENTER)</b></p><button id = button_1 class = ""square num-button"" onclick = ""recordClick(this)""><div class = content><div class = numbers>C</div></div></button><button id = button_2 class = ""square num-button"" onclick = ""recordClick(this)""><div class = content><div class = numbers>G</div></div></button><button id = button_3 class = ""square num-button"" onclick = ""recordClick(this)""><div class = content><div class = numbers>H</div></div></button><button id = button_4 class = ""square num-button"" onclick = ""recordClick(this)""><div class = content><div class = numbers>J</div></div></button><button id = button_5 class = ""square num-button"" onclick = ""recordClick(this)""><div class = content><div class = numbers>K</div></div></button><button id = button_6 class = ""square num-button"" onclick = ""recordClick(this)""><div class = content><div class = numbers>L</div></div></button><button id = button_7 class = ""square num-button"" onclick = ""recordClick(this)""><div class = content><div class = numbers>N</div></div></button><button id = button_8 class = ""square num-button"" onclick = ""recordClick(this)""><div class = content><div class = numbers>P</div></div></button><button id = button_9 class = ""square num-button"" onclick = ""recordClick(this)""><div class = content><div class = numbers>Q</div></div></button><button id = button_10 class = ""square num-button"" onclick = ""recordClick(this)""><div class = content><div class = numbers>R</div></div></button><button id = button_11 class = ""square num-button"" onclick = ""recordClick(this)""><div class = content><div class = numbers>S</div></div></button><button id = button_12 class = ""square num-button"" onclick = ""recordClick(this)""><div class = content><div class = numbers>Y</div></div></button><button class = clear_button id = ""ClearButton"" onclick = ""clearResponse()"">BACKSPACE</button><button class = blank_button id = ""BlankButton"" onclick = ""blankResponse()"">SKIP</button><p style=""font-size: 2.4rem""><u><b>Current Answer:</b></u></p><br><br><div id=echoed_txt style=""font-size: 5rem; color:blue;""><b></b></div></div>",enter,ospan,retrieval,d7KhxOFXsygmQkLYYpCkCGg2WOi2,html-keyboard-response,183,2194984,0.0-43.0-6.0-0.0-2.0,33,32,29,5.0,"[""L"",""G"",""P"",""K"",""S""]","[""L"",""G"",""P"",""K"",""S""]",1.0,5.0,,,,,,,656514f9443092badedb7003,09:50:28,07/03/2024
3319.4000000059605,[''],0,ospan,feedback,d7KhxOFXsygmQkLYYpCkCGg2WOi2,html-button-response,184,2198817,0.0-43.0-6.0-0.0-3.0,,,,,,,,,,,,100.0,0.0,,656514f9443092badedb7003,09:50:28,07/03/2024
,"<p style=""font-size:75px;"">...</p>",,ospan,iti,d7KhxOFXsygmQkLYYpCkCGg2WOi2,html-keyboard-response,185,2199836,0.0-43.0-6.0-1.0-0.0,,,,,,,,,,,,,,,656514f9443092badedb7003,09:50:28,07/03/2024
3117.0,,,ospan,symmetry,d7KhxOFXsygmQkLYYpCkCGg2WOi2,symmetry-judgement-task,186,2204217,0.0-43.0-6.0-1.0-1.0-0.0,,,,,,,,,,1.0,1.0,,,,656514f9443092badedb7003,09:50:28,07/03/2024
,"<div style=""font-size: 10rem; color: #0000FF"">R</div>",,ospan,letter,d7KhxOFXsygmQkLYYpCkCGg2WOi2,html-keyboard-response,187,2205235,0.0-43.0-6.0-1.0-1.0-1.0,,,,,,,,,,,,,,,656514f9443092badedb7003,09:50:28,07/03/2024
2394.0,,,ospan,symmetry,d7KhxOFXsygmQkLYYpCkCGg2WOi2,symmetry-judgement-task,188,2209644,0.0-43.0-6.0-1.0-1.0-2.0,,,,,,,,,,1.0,1.0,,,,656514f9443092badedb7003,09:50:28,07/03/2024
,"<div style=""font-size: 10rem; color: #0000FF"">C</div>",,ospan,letter,d7KhxOFXsygmQkLYYpCkCGg2WOi2,html-keyboard-response,189,2210648,0.0-43.0-6.0-1.0-1.0-3.0,,,,,,,,,,,,,,,656514f9443092badedb7003,09:50:28,07/03/2024
3319.0,,,ospan,symmetry,d7KhxOFXsygmQkLYYpCkCGg2WOi2,symmetry-judgement-task,190,2215997,0.0-43.0-6.0-1.0-1.0-4.0,,,,,,,,,,1.0,1.0,,,,656514f9443092badedb7003,09:50:28,07/03/2024
,"<div style=""font-size: 10rem; color: #0000FF"">Q</div>",,ospan,letter,d7KhxOFXsygmQkLYYpCkCGg2WOi2,html-keyboard-response,191,2217009,0.0-43.0-6.0-1.0-1.0-5.0,,,,,,,,,,,,,,,656514f9443092badedb7003,09:50:28,07/03/2024
3364.0,,,ospan,symmetry,d7KhxOFXsygmQkLYYpCkCGg2WOi2,symmetry-judgement-task,192,2222401,0.0-43.0-6.0-1.0-1.0-6.0,,,,,,,,,,1.0,1.0,,,,656514f9443092badedb7003,09:50:28,07/03/2024
,"<div style=""font-size: 10rem; color: #0000FF"">Y</div>",,ospan,letter,d7KhxOFXsygmQkLYYpCkCGg2WOi2,html-keyboard-response,193,2223409,0.0-43.0-6.0-1.0-1.0-7.0,,,,,,,,,,,,,,,656514f9443092badedb7003,09:50:28,07/03/2024
2046.0,,,ospan,symmetry,d7KhxOFXsygmQkLYYpCkCGg2WOi2,symmetry-judgement-task,194,2227460,0.0-43.0-6.0-1.0-1.0-8.0,,,,,,,,,,1.0,1.0,,,,656514f9443092badedb7003,09:50:28,07/03/2024
,"<div style=""font-size: 10rem; color: #0000FF"">J</div>",,ospan,letter,d7KhxOFXsygmQkLYYpCkCGg2WOi2,html-keyboard-response,195,2228476,0.0-43.0-6.0-1.0-1.0-9.0,,,,,,,,,,,,,,,656514f9443092badedb7003,09:50:28,07/03/2024
2165.0,,,ospan,symmetry,d7KhxOFXsygmQkLYYpCkCGg2WOi2,symmetry-judgement-task,196,2232676,0.0-43.0-6.0-1.0-1.0-10.0,,,,,,,,,,1.0,1.0,,,,656514f9443092badedb7003,09:50:28,07/03/2024
,"<div style=""font-size: 10rem; color: #0000FF"">L</div>",,ospan,letter,d7KhxOFXsygmQkLYYpCkCGg2WOi2,html-keyboard-response,197,2233683,0.0-43.0-6.0-1.0-1.0-11.0,,,,,,,,,,,,,,,656514f9443092badedb7003,09:50:28,07/03/2024
3658.0,,,ospan,symmetry,d7KhxOFXsygmQkLYYpCkCGg2WOi2,symmetry-judgement-task,198,2239382,0.0-43.0-6.0-1.0-1.0-12.0,,,,,,,,,,1.0,1.0,,,,656514f9443092badedb7003,09:50:28,07/03/2024
,"<div style=""font-size: 10rem; color: #0000FF"">S</div>",,ospan,letter,d7KhxOFXsygmQkLYYpCkCGg2WOi2,html-keyboard-response,199,2240385,0.0-43.0-6.0-1.0-1.0-13.0,,,,,,,,,,,,,,,656514f9443092badedb7003,09:50:28,07/03/2024
2588.0,,,ospan,symmetry,d7KhxOFXsygmQkLYYpCkCGg2WOi2,symmetry-judgement-task,200,2245049,0.0-43.0-6.0-1.0-1.0-14.0,,,,,,,,,,1.0,1.0,,,,656514f9443092badedb7003,09:50:28,07/03/2024
,"<div style=""font-size: 10rem; color: #0000FF"">K</div>",,ospan,letter,d7KhxOFXsygmQkLYYpCkCGg2WOi2,html-keyboard-response,201,2246051,0.0-43.0-6.0-1.0-1.0-15.0,,,,,,,,,,,,,,,656514f9443092badedb7003,09:50:28,07/03/2024
13480.100000023842,"<div class = numbox><p style=""font-size: 2.4rem"">Please recall the letters you saw to the best of your ability. If you do not remember a particular letter, use the SKIP button.<br><b>(When you are ready to lock in your answer, press ENTER)</b></p><button id = button_1 class = ""square num-button"" onclick = ""recordClick(this)""><div class = content><div class = numbers>C</div></div></button><button id = button_2 class = ""square num-button"" onclick = ""recordClick(this)""><div class = content><div class = numbers>G</div></div></button><button id = button_3 class = ""square num-button"" onclick = ""recordClick(this)""><div class = content><div class = numbers>H</div></div></button><button id = button_4 class = ""square num-button"" onclick = ""recordClick(this)""><div class = content><div class = numbers>J</div></div></button><button id = button_5 class = ""square num-button"" onclick = ""recordClick(this)""><div class = content><div class = numbers>K</div></div></button><button id = button_6 class = ""square num-button"" onclick = ""recordClick(this)""><div class = content><div class = numbers>L</div></div></button><button id = button_7 class = ""square num-button"" onclick = ""recordClick(this)""><div class = content><div class = numbers>N</div></div></button><button id = button_8 class = ""square num-button"" onclick = ""recordClick(this)""><div class = content><div class = numbers>P</div></div></button><button id = button_9 class = ""square num-button"" onclick = ""recordClick(this)""><div class = content><div class = numbers>Q</div></div></button><button id = button_10 class = ""square num-button"" onclick = ""recordClick(this)""><div class = content><div class = numbers>R</div></div></button><button id = button_11 class = ""square num-button"" onclick = ""recordClick(this)""><div class = content><div class = numbers>S</div></div></button><button id = button_12 class = ""square num-button"" onclick = ""recordClick(this)""><div class = content><div class = numbers>Y</div></div></button><button class = clear_button id = ""ClearButton"" onclick = ""clearResponse()"">BACKSPACE</button><button class = blank_button id = ""BlankButton"" onclick = ""blankResponse()"">SKIP</button><p style=""font-size: 2.4rem""><u><b>Current Answer:</b></u></p><br><br><div id=echoed_txt style=""font-size: 5rem; color:blue;""><b></b></div></div>",enter,ospan,retrieval,d7KhxOFXsygmQkLYYpCkCGg2WOi2,html-keyboard-response,202,2260295,0.0-43.0-6.0-1.0-2.0,41,40,37,8.0,"[""R"",""C"",""Q"",""Y"",""J"",""L"",""S"",""K""]","[""R"",""C"",""Q"",""Y"",""J"",""L"",""S"",""K""]",1.0,8.0,,,,,,,656514f9443092badedb7003,09:50:28,07/03/2024
21158.90000000596,[''],0,ospan,feedback,d7KhxOFXsygmQkLYYpCkCGg2WOi2,html-button-response,203,2281959,0.0-43.0-6.0-1.0-3.0,,,,,,,,,,,,100.0,0.0,,656514f9443092badedb7003,09:50:28,07/03/2024
55414.79999998212,,{'Q0': 'I enjoyed the challange to remember vividly'},ospan,survey_ospan,d7KhxOFXsygmQkLYYpCkCGg2WOi2,lmdlab-survey-text,204,2338149,0.0-43.0-7.0,,,,,,,,,,,,,,d7KhxOFXsygmQkLYYpCkCGg2WOi2,656514f9443092badedb7003,09:50:28,07/03/2024
2624.2999999821186,<p><p style='font-size: 3rem'>Great work!<br><br>This completes the symmetry and memory task.</p><br><br><br>,0,ospan,finish,d7KhxOFXsygmQkLYYpCkCGg2WOi2,html-button-response,205,2340782,0.0-43.0-8.0,41,40,37,,,,,,,,,100.0,,,656514f9443092badedb7003,09:50:28,07/03/2024
