rt,stimulus,response,exp_name,exp_stage,subjectID,trial_type,trial_index,time_elapsed,internal_node_id,ospan_shown,ospan_total,ospan_abs,length,resp_actual,resp_correct,full_correct,num_correct,feedback,accuracy,correct,math_acc,math_warning,databaseID,prolificID,start_time,date
28556.39999999851,<div class = 'left_align' style='font-size: 3.25rem; line-height: 1.3;'><p class = 'center_align'><b>Welcome to the Symmetry and Memory Task</b><br><br><br><br></p>Press 'continue' to show the instructions.<br><br><br><br></div>,0,ospan,instruct,Zxbd6Cbf47RdOqXuNUaRfFoMZ6o2,html-button-response,54,483783,0.0-46.0-0.0-0.0-0.0,,,,,,,,,,,,,,,62cfee5a0c2e87501bfb10bc,12:20:56,03/04/2024
12729.39999999851,"<div class = 'left_align' style='font-size: 3.25rem; line-height: 1.3;'><p class = 'center_align'><b>Symmetry and Memory Task</b><br><br></p>In this task, you will try to memorize letters you see on the screen<br>while you also view black and white grid pictures.<br><br>In the next few minutes, you will have some practice to get you familiar<br>with how the task works.<br><br>It may be difficult sometimes, but please do not worry about making mistakes!<br><br>We will begin by practicing the letter part of the task.<br><br><br><br></div>",0,ospan,instruct,Zxbd6Cbf47RdOqXuNUaRfFoMZ6o2,html-button-response,55,496769,0.0-46.0-0.0-0.0-1.0,,,,,,,,,,,,,,,62cfee5a0c2e87501bfb10bc,12:20:56,03/04/2024
10104.89999999851,"<div class = 'left_align' style='font-size: 3.25rem; line-height: 1.3;'>For this practice part, letters will appear on the screen one at a time.<br><br>Try to remember each letter in the order presented.<br><br>After some letters have been shown, you will see a response screen. Your<br>goal is to report the letters you saw <b>in order</b>. If you do not remember<br>a particular letter, you will have the option to leave it blank.<br><br><br><br></div>",0,ospan,instruct,Zxbd6Cbf47RdOqXuNUaRfFoMZ6o2,html-button-response,56,507126,0.0-46.0-0.0-0.0-2.0,,,,,,,,,,,,,,,62cfee5a0c2e87501bfb10bc,12:20:56,03/04/2024
5398.19999999553,"<div class = 'left_align' style='font-size: 3.25rem; line-height: 1.3;'>Remember, it is very important to get the letters in the same<br>order as you see them.<br><br>When you are ready, you may begin the letter practice.</div><br><br><br><br>",0,ospan,instruct,Zxbd6Cbf47RdOqXuNUaRfFoMZ6o2,html-button-response,57,512788,0.0-46.0-0.0-0.0-3.0,,,,,,,,,,,,,,,62cfee5a0c2e87501bfb10bc,12:20:56,03/04/2024
,"<p style=""font-size:75px;"">...</p>",,ospan,iti,Zxbd6Cbf47RdOqXuNUaRfFoMZ6o2,html-keyboard-response,58,514060,0.0-46.0-0.0-1.0-0.0,,,,,,,,,,,,,,,62cfee5a0c2e87501bfb10bc,12:20:56,03/04/2024
,"<div style=""font-size: 10rem; color: #0000FF"">Y</div>",,ospan,letter,Zxbd6Cbf47RdOqXuNUaRfFoMZ6o2,html-keyboard-response,59,515065,0.0-46.0-0.0-1.0-1.0,,,,,,,,,,,,,,,62cfee5a0c2e87501bfb10bc,12:20:56,03/04/2024
,"<div style=""font-size: 10rem; color: #0000FF"">Q</div>",,ospan,letter,Zxbd6Cbf47RdOqXuNUaRfFoMZ6o2,html-keyboard-response,60,516833,0.0-46.0-0.0-1.0-2.0,,,,,,,,,,,,,,,62cfee5a0c2e87501bfb10bc,12:20:56,03/04/2024
10319.80000000447,"<div class = numbox><p style=""font-size: 2.4rem"">Please recall the letters you saw to the best of your ability. If you do not remember a particular letter, use the SKIP button.<br><b>(When you are ready to lock in your answer, press ENTER)</b></p><button id = button_1 class = ""square num-button"" onclick = ""recordClick(this)""><div class = content><div class = numbers>C</div></div></button><button id = button_2 class = ""square num-button"" onclick = ""recordClick(this)""><div class = content><div class = numbers>G</div></div></button><button id = button_3 class = ""square num-button"" onclick = ""recordClick(this)""><div class = content><div class = numbers>H</div></div></button><button id = button_4 class = ""square num-button"" onclick = ""recordClick(this)""><div class = content><div class = numbers>J</div></div></button><button id = button_5 class = ""square num-button"" onclick = ""recordClick(this)""><div class = content><div class = numbers>K</div></div></button><button id = button_6 class = ""square num-button"" onclick = ""recordClick(this)""><div class = content><div class = numbers>L</div></div></button><button id = button_7 class = ""square num-button"" onclick = ""recordClick(this)""><div class = content><div class = numbers>N</div></div></button><button id = button_8 class = ""square num-button"" onclick = ""recordClick(this)""><div class = content><div class = numbers>P</div></div></button><button id = button_9 class = ""square num-button"" onclick = ""recordClick(this)""><div class = content><div class = numbers>Q</div></div></button><button id = button_10 class = ""square num-button"" onclick = ""recordClick(this)""><div class = content><div class = numbers>R</div></div></button><button id = button_11 class = ""square num-button"" onclick = ""recordClick(this)""><div class = content><div class = numbers>S</div></div></button><button id = button_12 class = ""square num-button"" onclick = ""recordClick(this)""><div class = content><div class = numbers>Y</div></div></button><button class = clear_button id = ""ClearButton"" onclick = ""clearResponse()"">BACKSPACE</button><button class = blank_button id = ""BlankButton"" onclick = ""blankResponse()"">SKIP</button><p style=""font-size: 2.4rem""><u><b>Current Answer:</b></u></p><br><br><div id=echoed_txt style=""font-size: 5rem; color:blue;""><b></b></div></div>",enter,ospan,retrieval,Zxbd6Cbf47RdOqXuNUaRfFoMZ6o2,html-keyboard-response,61,527915,0.0-46.0-0.0-1.0-3.0,NA,NA,NA,2.0,"[""Y"",""Q""]","[""Y"",""Q""]",1.0,2.0,"['<font color=""green"">Y</font>', '<font color=""green"">Q</font>']",,,,,,62cfee5a0c2e87501bfb10bc,12:20:56,03/04/2024
1334.6000000014901,"['<p style=""font-size:44px"">Letters:<br><br><br><font color=""green"">Y</font> <font color=""green"">Q</font></p><br><br>']",0,ospan,practice_feedback,Zxbd6Cbf47RdOqXuNUaRfFoMZ6o2,html-button-response,62,529759,0.0-46.0-0.0-1.0-4.0,,,,,,,,,,,,,,,62cfee5a0c2e87501bfb10bc,12:20:56,03/04/2024
,"<p style=""font-size:75px;"">...</p>",,ospan,iti,Zxbd6Cbf47RdOqXuNUaRfFoMZ6o2,html-keyboard-response,63,530771,0.0-46.0-0.0-2.0-0.0,,,,,,,,,,,,,,,62cfee5a0c2e87501bfb10bc,12:20:56,03/04/2024
,"<div style=""font-size: 10rem; color: #0000FF"">N</div>",,ospan,letter,Zxbd6Cbf47RdOqXuNUaRfFoMZ6o2,html-keyboard-response,64,531779,0.0-46.0-0.0-2.0-1.0,,,,,,,,,,,,,,,62cfee5a0c2e87501bfb10bc,12:20:56,03/04/2024
,"<div style=""font-size: 10rem; color: #0000FF"">L</div>",,ospan,letter,Zxbd6Cbf47RdOqXuNUaRfFoMZ6o2,html-keyboard-response,65,533555,0.0-46.0-0.0-2.0-2.0,,,,,,,,,,,,,,,62cfee5a0c2e87501bfb10bc,12:20:56,03/04/2024
,"<div style=""font-size: 10rem; color: #0000FF"">P</div>",,ospan,letter,Zxbd6Cbf47RdOqXuNUaRfFoMZ6o2,html-keyboard-response,66,535321,0.0-46.0-0.0-2.0-3.0,,,,,,,,,,,,,,,62cfee5a0c2e87501bfb10bc,12:20:56,03/04/2024
3032.3000000044703,"<div class = numbox><p style=""font-size: 2.4rem"">Please recall the letters you saw to the best of your ability. If you do not remember a particular letter, use the SKIP button.<br><b>(When you are ready to lock in your answer, press ENTER)</b></p><button id = button_1 class = ""square num-button"" onclick = ""recordClick(this)""><div class = content><div class = numbers>C</div></div></button><button id = button_2 class = ""square num-button"" onclick = ""recordClick(this)""><div class = content><div class = numbers>G</div></div></button><button id = button_3 class = ""square num-button"" onclick = ""recordClick(this)""><div class = content><div class = numbers>H</div></div></button><button id = button_4 class = ""square num-button"" onclick = ""recordClick(this)""><div class = content><div class = numbers>J</div></div></button><button id = button_5 class = ""square num-button"" onclick = ""recordClick(this)""><div class = content><div class = numbers>K</div></div></button><button id = button_6 class = ""square num-button"" onclick = ""recordClick(this)""><div class = content><div class = numbers>L</div></div></button><button id = button_7 class = ""square num-button"" onclick = ""recordClick(this)""><div class = content><div class = numbers>N</div></div></button><button id = button_8 class = ""square num-button"" onclick = ""recordClick(this)""><div class = content><div class = numbers>P</div></div></button><button id = button_9 class = ""square num-button"" onclick = ""recordClick(this)""><div class = content><div class = numbers>Q</div></div></button><button id = button_10 class = ""square num-button"" onclick = ""recordClick(this)""><div class = content><div class = numbers>R</div></div></button><button id = button_11 class = ""square num-button"" onclick = ""recordClick(this)""><div class = content><div class = numbers>S</div></div></button><button id = button_12 class = ""square num-button"" onclick = ""recordClick(this)""><div class = content><div class = numbers>Y</div></div></button><button class = clear_button id = ""ClearButton"" onclick = ""clearResponse()"">BACKSPACE</button><button class = blank_button id = ""BlankButton"" onclick = ""blankResponse()"">SKIP</button><p style=""font-size: 2.4rem""><u><b>Current Answer:</b></u></p><br><br><div id=echoed_txt style=""font-size: 5rem; color:blue;""><b></b></div></div>",enter,ospan,retrieval,Zxbd6Cbf47RdOqXuNUaRfFoMZ6o2,html-keyboard-response,67,539116,0.0-46.0-0.0-2.0-4.0,NA,NA,NA,3.0,"[""N"",""L"",""P""]","[""N"",""L"",""P""]",1.0,3.0,"['<font color=""green"">N</font>', '<font color=""green"">L</font>', '<font color=""green"">P</font>']",,,,,,62cfee5a0c2e87501bfb10bc,12:20:56,03/04/2024
1254.8999999985099,"['<p style=""font-size:44px"">Letters:<br><br><br><font color=""green"">N</font> <font color=""green"">L</font> <font color=""green"">P</font></p><br><br>']",0,ospan,practice_feedback,Zxbd6Cbf47RdOqXuNUaRfFoMZ6o2,html-button-response,68,540881,0.0-46.0-0.0-2.0-5.0,,,,,,,,,,,,,,,62cfee5a0c2e87501bfb10bc,12:20:56,03/04/2024
16788.39999999851,"<div class = 'left_align' style='font-size: 3.25rem; line-height: 1.3;'>Now you will practice doing the <b>symmetry judgment part</b> of the experiment.<br><br>A black and white grid picture will appear on the screen and you have to judge if it is <br>symmetrical or asymetrical.<br><br>A picture is 'mirror' symmetrical if its left half is identical to the right half when flipped.<br>Here are examples of a symmetrical and an asymetrical picture:<br><br><center><img src='Stimuli/img/symm_instructions_extra.png' style='height:420px; width:900'></img></center><br>To judge symmetry, imagine you were to fold each picture down the middle, like a book –<br>would the left half match the right half when folded onto each other?<br><br></div><br>",0,ospan,instruct,Zxbd6Cbf47RdOqXuNUaRfFoMZ6o2,html-button-response,69,557671,0.0-46.0-1.0-0.0-0.0,,,,,,,,,,,,,,,62cfee5a0c2e87501bfb10bc,12:20:56,03/04/2024
4265.39999999851,"<div class = 'left_align' style='font-size: 3.25rem; line-height: 1.3;'>When you have viewed the picture and determined whether it is symmetrical or not,<br>you can <b>click the Yes or No button</b> below to answer.<br><br>If you take longer than 15 seconds, it will continue automatically<br>and record the answer as an error.</div><br>",0,ospan,instruct,Zxbd6Cbf47RdOqXuNUaRfFoMZ6o2,html-button-response,70,562189,0.0-46.0-1.0-0.0-1.0,,,,,,,,,,,,,,,62cfee5a0c2e87501bfb10bc,12:20:56,03/04/2024
6491.89999999851,"<div class = 'left_align' style='font-size: 3.25rem; line-height: 1.3;'>It is <b>very</b> important that you make the symmetry judgment correctly.<br><br>It is also important that you try and judge the picture as quickly as you can.<br><br>When you are ready, click on the button below to try some practice problems.</div><br><br><br><br>",0,ospan,instruct,Zxbd6Cbf47RdOqXuNUaRfFoMZ6o2,html-button-response,71,568933,0.0-46.0-1.0-0.0-2.0,,,,,,,,,,,,,,,62cfee5a0c2e87501bfb10bc,12:20:56,03/04/2024
2139.0,,,ospan,symmetry,Zxbd6Cbf47RdOqXuNUaRfFoMZ6o2,symmetry-judgement-task,72,571880,0.0-46.0-1.0-1.0-0.0,,,,,,,,,,1.0,1.0,,,,62cfee5a0c2e87501bfb10bc,12:20:56,03/04/2024
,"<p style=""color:green; font-size: 35px"">Correct</p>",,ospan,feedback,Zxbd6Cbf47RdOqXuNUaRfFoMZ6o2,html-keyboard-response,73,572641,0.0-46.0-1.0-1.0-1.0,,,,,,,,,,,,,,,62cfee5a0c2e87501bfb10bc,12:20:56,03/04/2024
1040.0,,,ospan,symmetry,Zxbd6Cbf47RdOqXuNUaRfFoMZ6o2,symmetry-judgement-task,74,576322,0.0-46.0-1.0-1.0-2.0,,,,,,,,,,1.0,1.0,,,,62cfee5a0c2e87501bfb10bc,12:20:56,03/04/2024
,"<p style=""color:green; font-size: 35px"">Correct</p>",,ospan,feedback,Zxbd6Cbf47RdOqXuNUaRfFoMZ6o2,html-keyboard-response,75,577084,0.0-46.0-1.0-1.0-3.0,,,,,,,,,,,,,,,62cfee5a0c2e87501bfb10bc,12:20:56,03/04/2024
967.0,,,ospan,symmetry,Zxbd6Cbf47RdOqXuNUaRfFoMZ6o2,symmetry-judgement-task,76,580671,0.0-46.0-1.0-1.0-4.0,,,,,,,,,,1.0,1.0,,,,62cfee5a0c2e87501bfb10bc,12:20:56,03/04/2024
,"<p style=""color:green; font-size: 35px"">Correct</p>",,ospan,feedback,Zxbd6Cbf47RdOqXuNUaRfFoMZ6o2,html-keyboard-response,77,581432,0.0-46.0-1.0-1.0-5.0,,,,,,,,,,,,,,,62cfee5a0c2e87501bfb10bc,12:20:56,03/04/2024
2081.60000000149,"<p style=""font-size: 3rem;"">You responded correctly on 3 of 3 symmetry judgments. Good job!</p><br><br>",0,ospan,practice,Zxbd6Cbf47RdOqXuNUaRfFoMZ6o2,html-button-response,78,585516,0.0-46.0-1.0-2.0,,,,,,,,,,,,,,,62cfee5a0c2e87501bfb10bc,12:20:56,03/04/2024
19124.0,"<div class = 'left_align' style='font-size: 3.25rem; line-height: 1.3;'>Now you will practice doing both parts of the experiment at the same time.<br><br>In the next practice set, you will be given one grid picture to judge.<br>Then letter will appear on the screen. Try to remember the letter.<br><br>It is <b>very important</b> to make the symmetry judgment as quickly and accurately as possible.<br><br>Just as before, once you have make the symmetry judgment, you can click Yes or No.<br><b>Note that you will no longer see Correct or Incorrect feedback.</div><br><br><br><br>",0,ospan,instruct,Zxbd6Cbf47RdOqXuNUaRfFoMZ6o2,html-button-response,79,604894,0.0-46.0-2.0-0.0-0.0,,,,,,,,,,,,,,,62cfee5a0c2e87501bfb10bc,12:20:56,03/04/2024
9623.60000000149,"<div class = 'left_align' style='font-size: 3.25rem; line-height: 1.3;'>After the letter goes away, another grid picture will appear, and then<br>another letter.<br><br>At the end of each set of letters and grids, you will recall the letters to the best<br>of your ability. Remember, try your best to get the letters in the correct order.<br><br>It is important to <b>quickly</b> and <b>accurately</b> make the symmetry judgments.</div><br><br><br><br>",0,ospan,instruct,Zxbd6Cbf47RdOqXuNUaRfFoMZ6o2,html-button-response,80,614768,0.0-46.0-2.0-0.0-1.0,,,,,,,,,,,,,,,62cfee5a0c2e87501bfb10bc,12:20:56,03/04/2024
13281.5,"<div class = 'left_align' style='font-size: 3.25rem; line-height: 1.3;'>On the feedback screen, if you are not doing well at the symmetry judgments,<br>you will also see a warning in the middle. This indicates your percent <br>correct for the grid pictures for the entire experiment.<br><br>It is <b>very</b> important for you to keep accuracy at least at 85%: <u>We can only use<br>data where the participant was at least 85% accurate on the judgments.</u> Therefore,<br> please try your best to perform well on the symmetry judgments, <b>at the same time</b><br>doing your best to recall as many letters as possible.<br><br>Click the button to try some practice problems.</div><br><br><br><br>",0,ospan,instruct,Zxbd6Cbf47RdOqXuNUaRfFoMZ6o2,html-button-response,81,628307,0.0-46.0-2.0-0.0-2.0,,,,,,,,,,,,,,,62cfee5a0c2e87501bfb10bc,12:20:56,03/04/2024
,"<p style=""font-size:75px;"">...</p>",,ospan,iti,Zxbd6Cbf47RdOqXuNUaRfFoMZ6o2,html-keyboard-response,82,629563,0.0-46.0-2.0-1.0-0.0,,,,,,,,,,,,,,,62cfee5a0c2e87501bfb10bc,12:20:56,03/04/2024
894.0,,,ospan,symmetry,Zxbd6Cbf47RdOqXuNUaRfFoMZ6o2,symmetry-judgement-task,83,631579,0.0-46.0-2.0-1.0-1.0-0.0,,,,,,,,,,1.0,1.0,,,,62cfee5a0c2e87501bfb10bc,12:20:56,03/04/2024
,"<div style=""font-size: 10rem; color: #0000FF"">K</div>",,ospan,letter,Zxbd6Cbf47RdOqXuNUaRfFoMZ6o2,html-keyboard-response,84,632593,0.0-46.0-2.0-1.0-1.0-1.0,,,,,,,,,,,,,,,62cfee5a0c2e87501bfb10bc,12:20:56,03/04/2024
1406.0,,,ospan,symmetry,Zxbd6Cbf47RdOqXuNUaRfFoMZ6o2,symmetry-judgement-task,85,635868,0.0-46.0-2.0-1.0-1.0-2.0,,,,,,,,,,1.0,1.0,,,,62cfee5a0c2e87501bfb10bc,12:20:56,03/04/2024
,"<div style=""font-size: 10rem; color: #0000FF"">R</div>",,ospan,letter,Zxbd6Cbf47RdOqXuNUaRfFoMZ6o2,html-keyboard-response,86,636878,0.0-46.0-2.0-1.0-1.0-3.0,,,,,,,,,,,,,,,62cfee5a0c2e87501bfb10bc,12:20:56,03/04/2024
927.0,,,ospan,symmetry,Zxbd6Cbf47RdOqXuNUaRfFoMZ6o2,symmetry-judgement-task,87,639664,0.0-46.0-2.0-1.0-1.0-4.0,,,,,,,,,,1.0,1.0,,,,62cfee5a0c2e87501bfb10bc,12:20:56,03/04/2024
,"<div style=""font-size: 10rem; color: #0000FF"">N</div>",,ospan,letter,Zxbd6Cbf47RdOqXuNUaRfFoMZ6o2,html-keyboard-response,88,640675,0.0-46.0-2.0-1.0-1.0-5.0,,,,,,,,,,,,,,,62cfee5a0c2e87501bfb10bc,12:20:56,03/04/2024
3174.2000000029802,"<div class = numbox><p style=""font-size: 2.4rem"">Please recall the letters you saw to the best of your ability. If you do not remember a particular letter, use the SKIP button.<br><b>(When you are ready to lock in your answer, press ENTER)</b></p><button id = button_1 class = ""square num-button"" onclick = ""recordClick(this)""><div class = content><div class = numbers>C</div></div></button><button id = button_2 class = ""square num-button"" onclick = ""recordClick(this)""><div class = content><div class = numbers>G</div></div></button><button id = button_3 class = ""square num-button"" onclick = ""recordClick(this)""><div class = content><div class = numbers>H</div></div></button><button id = button_4 class = ""square num-button"" onclick = ""recordClick(this)""><div class = content><div class = numbers>J</div></div></button><button id = button_5 class = ""square num-button"" onclick = ""recordClick(this)""><div class = content><div class = numbers>K</div></div></button><button id = button_6 class = ""square num-button"" onclick = ""recordClick(this)""><div class = content><div class = numbers>L</div></div></button><button id = button_7 class = ""square num-button"" onclick = ""recordClick(this)""><div class = content><div class = numbers>N</div></div></button><button id = button_8 class = ""square num-button"" onclick = ""recordClick(this)""><div class = content><div class = numbers>P</div></div></button><button id = button_9 class = ""square num-button"" onclick = ""recordClick(this)""><div class = content><div class = numbers>Q</div></div></button><button id = button_10 class = ""square num-button"" onclick = ""recordClick(this)""><div class = content><div class = numbers>R</div></div></button><button id = button_11 class = ""square num-button"" onclick = ""recordClick(this)""><div class = content><div class = numbers>S</div></div></button><button id = button_12 class = ""square num-button"" onclick = ""recordClick(this)""><div class = content><div class = numbers>Y</div></div></button><button class = clear_button id = ""ClearButton"" onclick = ""clearResponse()"">BACKSPACE</button><button class = blank_button id = ""BlankButton"" onclick = ""blankResponse()"">SKIP</button><p style=""font-size: 2.4rem""><u><b>Current Answer:</b></u></p><br><br><div id=echoed_txt style=""font-size: 5rem; color:blue;""><b></b></div></div>",enter,ospan,retrieval,Zxbd6Cbf47RdOqXuNUaRfFoMZ6o2,html-keyboard-response,89,644612,0.0-46.0-2.0-1.0-2.0-0.0,NA,NA,NA,3.0,"[""K"",""R"",""N""]","[""K"",""R"",""N""]",1.0,3.0,"['<font color=""green"">K</font>', '<font color=""green"">R</font>', '<font color=""green"">N</font>']",,,,,,62cfee5a0c2e87501bfb10bc,12:20:56,03/04/2024
2715.0,"['<p style=""font-size:44px"">Letters:<br><br><br><font color=""green"">K</font> <font color=""green"">R</font> <font color=""green"">N</font></p><br><br><p style=""font-size:30px"">Symmetry:<br><br><font color=""green"">100%</font></p><br><br>']",0,ospan,practice_feedback,Zxbd6Cbf47RdOqXuNUaRfFoMZ6o2,html-button-response,90,647834,0.0-46.0-2.0-1.0-2.0-1.0,,,,,,,,,,,,,,,62cfee5a0c2e87501bfb10bc,12:20:56,03/04/2024
,"<p style=""font-size:75px;"">...</p>",,ospan,iti,Zxbd6Cbf47RdOqXuNUaRfFoMZ6o2,html-keyboard-response,91,648847,0.0-46.0-2.0-2.0-0.0,,,,,,,,,,,,,,,62cfee5a0c2e87501bfb10bc,12:20:56,03/04/2024
789.0,,,ospan,symmetry,Zxbd6Cbf47RdOqXuNUaRfFoMZ6o2,symmetry-judgement-task,92,650747,0.0-46.0-2.0-2.0-1.0-0.0,,,,,,,,,,1.0,1.0,,,,62cfee5a0c2e87501bfb10bc,12:20:56,03/04/2024
,"<div style=""font-size: 10rem; color: #0000FF"">R</div>",,ospan,letter,Zxbd6Cbf47RdOqXuNUaRfFoMZ6o2,html-keyboard-response,93,651752,0.0-46.0-2.0-2.0-1.0-1.0,,,,,,,,,,,,,,,62cfee5a0c2e87501bfb10bc,12:20:56,03/04/2024
1007.0,,,ospan,symmetry,Zxbd6Cbf47RdOqXuNUaRfFoMZ6o2,symmetry-judgement-task,94,654637,0.0-46.0-2.0-2.0-1.0-2.0,,,,,,,,,,1.0,1.0,,,,62cfee5a0c2e87501bfb10bc,12:20:56,03/04/2024
,"<div style=""font-size: 10rem; color: #0000FF"">Q</div>",,ospan,letter,Zxbd6Cbf47RdOqXuNUaRfFoMZ6o2,html-keyboard-response,95,655645,0.0-46.0-2.0-2.0-1.0-3.0,,,,,,,,,,,,,,,62cfee5a0c2e87501bfb10bc,12:20:56,03/04/2024
1029.0,,,ospan,symmetry,Zxbd6Cbf47RdOqXuNUaRfFoMZ6o2,symmetry-judgement-task,96,658550,0.0-46.0-2.0-2.0-1.0-4.0,,,,,,,,,,1.0,1.0,,,,62cfee5a0c2e87501bfb10bc,12:20:56,03/04/2024
,"<div style=""font-size: 10rem; color: #0000FF"">L</div>",,ospan,letter,Zxbd6Cbf47RdOqXuNUaRfFoMZ6o2,html-keyboard-response,97,659558,0.0-46.0-2.0-2.0-1.0-5.0,,,,,,,,,,,,,,,62cfee5a0c2e87501bfb10bc,12:20:56,03/04/2024
3716.7000000029802,"<div class = numbox><p style=""font-size: 2.4rem"">Please recall the letters you saw to the best of your ability. If you do not remember a particular letter, use the SKIP button.<br><b>(When you are ready to lock in your answer, press ENTER)</b></p><button id = button_1 class = ""square num-button"" onclick = ""recordClick(this)""><div class = content><div class = numbers>C</div></div></button><button id = button_2 class = ""square num-button"" onclick = ""recordClick(this)""><div class = content><div class = numbers>G</div></div></button><button id = button_3 class = ""square num-button"" onclick = ""recordClick(this)""><div class = content><div class = numbers>H</div></div></button><button id = button_4 class = ""square num-button"" onclick = ""recordClick(this)""><div class = content><div class = numbers>J</div></div></button><button id = button_5 class = ""square num-button"" onclick = ""recordClick(this)""><div class = content><div class = numbers>K</div></div></button><button id = button_6 class = ""square num-button"" onclick = ""recordClick(this)""><div class = content><div class = numbers>L</div></div></button><button id = button_7 class = ""square num-button"" onclick = ""recordClick(this)""><div class = content><div class = numbers>N</div></div></button><button id = button_8 class = ""square num-button"" onclick = ""recordClick(this)""><div class = content><div class = numbers>P</div></div></button><button id = button_9 class = ""square num-button"" onclick = ""recordClick(this)""><div class = content><div class = numbers>Q</div></div></button><button id = button_10 class = ""square num-button"" onclick = ""recordClick(this)""><div class = content><div class = numbers>R</div></div></button><button id = button_11 class = ""square num-button"" onclick = ""recordClick(this)""><div class = content><div class = numbers>S</div></div></button><button id = button_12 class = ""square num-button"" onclick = ""recordClick(this)""><div class = content><div class = numbers>Y</div></div></button><button class = clear_button id = ""ClearButton"" onclick = ""clearResponse()"">BACKSPACE</button><button class = blank_button id = ""BlankButton"" onclick = ""blankResponse()"">SKIP</button><p style=""font-size: 2.4rem""><u><b>Current Answer:</b></u></p><br><br><div id=echoed_txt style=""font-size: 5rem; color:blue;""><b></b></div></div>",enter,ospan,retrieval,Zxbd6Cbf47RdOqXuNUaRfFoMZ6o2,html-keyboard-response,98,664034,0.0-46.0-2.0-2.0-2.0-0.0,NA,NA,NA,3.0,"[""R"",""Q"",""L""]","[""R"",""Q"",""L""]",1.0,3.0,"['<font color=""green"">R</font>', '<font color=""green"">Q</font>', '<font color=""green"">L</font>']",,,,,,62cfee5a0c2e87501bfb10bc,12:20:56,03/04/2024
1478.5,"['<p style=""font-size:44px"">Letters:<br><br><br><font color=""green"">R</font> <font color=""green"">Q</font> <font color=""green"">L</font></p><br><br><p style=""font-size:30px"">Symmetry:<br><br><font color=""green"">100%</font></p><br><br>']",0,ospan,practice_feedback,Zxbd6Cbf47RdOqXuNUaRfFoMZ6o2,html-button-response,99,666016,0.0-46.0-2.0-2.0-2.0-1.0,,,,,,,,,,,,,,,62cfee5a0c2e87501bfb10bc,12:20:56,03/04/2024
16498.5,"<div class = 'left_align' style='font-size: 3rem; line-height: 1.3;'><b>Great work! That is the end of practice.</b><br><br>The real trials will look just like the practice trials you just completed.<br><br><u>Here, you will not see feedback</u>. First, you will see an grid picture to judge,<br>then a letter to remember. When the recall screen appears, report the letters in the<br>order presented. If you forget a letter, remember to use the <b>blank</b> button to move to the<br>next letter. Some of the sets will have more symmetry grids and letters than others.<br><br>It is important that you do your best on both the symmetry judgments and the letter recall<br>parts of the experiment. For for the symmetry judgments, try to work as <b>quickly</b> and <br>as <b>accurately</b> as possible. Remember to keep your symmetry accuracy at 85% or above.<br><br><b>For the letters, do NOT use any external aid (e.g., writing on paper, electronic device).</b><br><br>It is <u>very important</u> to our experiment to have a <b>true</b> view of your real performance.<br><br>Do not worry if you miss some when it gets hard! This task is meant to be very challenging!<br><br>Click the button to begin.</div><br><br><br><br>",0,ospan,starting_real_here,Zxbd6Cbf47RdOqXuNUaRfFoMZ6o2,html-button-response,100,682516,0.0-46.0-2.0-3.0,,,,,,,,,,,,,,,62cfee5a0c2e87501bfb10bc,12:20:56,03/04/2024
,"<p style=""font-size:75px;"">...</p>",,ospan,iti,Zxbd6Cbf47RdOqXuNUaRfFoMZ6o2,html-keyboard-response,101,683775,0.0-46.0-3.0-0.0-0.0,,,,,,,,,,,,,,,62cfee5a0c2e87501bfb10bc,12:20:56,03/04/2024
754.0,,,ospan,symmetry,Zxbd6Cbf47RdOqXuNUaRfFoMZ6o2,symmetry-judgement-task,102,685555,0.0-46.0-3.0-0.0-1.0-0.0,,,,,,,,,,1.0,1.0,,,,62cfee5a0c2e87501bfb10bc,12:20:56,03/04/2024
,"<div style=""font-size: 10rem; color: #0000FF"">Y</div>",,ospan,letter,Zxbd6Cbf47RdOqXuNUaRfFoMZ6o2,html-keyboard-response,103,686565,0.0-46.0-3.0-0.0-1.0-1.0,,,,,,,,,,,,,,,62cfee5a0c2e87501bfb10bc,12:20:56,03/04/2024
773.0,,,ospan,symmetry,Zxbd6Cbf47RdOqXuNUaRfFoMZ6o2,symmetry-judgement-task,104,689208,0.0-46.0-3.0-0.0-1.0-2.0,,,,,,,,,,1.0,1.0,,,,62cfee5a0c2e87501bfb10bc,12:20:56,03/04/2024
,"<div style=""font-size: 10rem; color: #0000FF"">C</div>",,ospan,letter,Zxbd6Cbf47RdOqXuNUaRfFoMZ6o2,html-keyboard-response,105,690218,0.0-46.0-3.0-0.0-1.0-3.0,,,,,,,,,,,,,,,62cfee5a0c2e87501bfb10bc,12:20:56,03/04/2024
928.0,,,ospan,symmetry,Zxbd6Cbf47RdOqXuNUaRfFoMZ6o2,symmetry-judgement-task,106,693021,0.0-46.0-3.0-0.0-1.0-4.0,,,,,,,,,,1.0,1.0,,,,62cfee5a0c2e87501bfb10bc,12:20:56,03/04/2024
,"<div style=""font-size: 10rem; color: #0000FF"">K</div>",,ospan,letter,Zxbd6Cbf47RdOqXuNUaRfFoMZ6o2,html-keyboard-response,107,694033,0.0-46.0-3.0-0.0-1.0-5.0,,,,,,,,,,,,,,,62cfee5a0c2e87501bfb10bc,12:20:56,03/04/2024
3350.2000000029802,"<div class = numbox><p style=""font-size: 2.4rem"">Please recall the letters you saw to the best of your ability. If you do not remember a particular letter, use the SKIP button.<br><b>(When you are ready to lock in your answer, press ENTER)</b></p><button id = button_1 class = ""square num-button"" onclick = ""recordClick(this)""><div class = content><div class = numbers>C</div></div></button><button id = button_2 class = ""square num-button"" onclick = ""recordClick(this)""><div class = content><div class = numbers>G</div></div></button><button id = button_3 class = ""square num-button"" onclick = ""recordClick(this)""><div class = content><div class = numbers>H</div></div></button><button id = button_4 class = ""square num-button"" onclick = ""recordClick(this)""><div class = content><div class = numbers>J</div></div></button><button id = button_5 class = ""square num-button"" onclick = ""recordClick(this)""><div class = content><div class = numbers>K</div></div></button><button id = button_6 class = ""square num-button"" onclick = ""recordClick(this)""><div class = content><div class = numbers>L</div></div></button><button id = button_7 class = ""square num-button"" onclick = ""recordClick(this)""><div class = content><div class = numbers>N</div></div></button><button id = button_8 class = ""square num-button"" onclick = ""recordClick(this)""><div class = content><div class = numbers>P</div></div></button><button id = button_9 class = ""square num-button"" onclick = ""recordClick(this)""><div class = content><div class = numbers>Q</div></div></button><button id = button_10 class = ""square num-button"" onclick = ""recordClick(this)""><div class = content><div class = numbers>R</div></div></button><button id = button_11 class = ""square num-button"" onclick = ""recordClick(this)""><div class = content><div class = numbers>S</div></div></button><button id = button_12 class = ""square num-button"" onclick = ""recordClick(this)""><div class = content><div class = numbers>Y</div></div></button><button class = clear_button id = ""ClearButton"" onclick = ""clearResponse()"">BACKSPACE</button><button class = blank_button id = ""BlankButton"" onclick = ""blankResponse()"">SKIP</button><p style=""font-size: 2.4rem""><u><b>Current Answer:</b></u></p><br><br><div id=echoed_txt style=""font-size: 5rem; color:blue;""><b></b></div></div>",enter,ospan,retrieval,Zxbd6Cbf47RdOqXuNUaRfFoMZ6o2,html-keyboard-response,108,698143,0.0-46.0-3.0-0.0-2.0,3,3,3,3.0,"[""Y"",""C"",""K""]","[""Y"",""C"",""K""]",1.0,3.0,,,,,,,62cfee5a0c2e87501bfb10bc,12:20:56,03/04/2024
770.6999999955297,[''],0,ospan,feedback,Zxbd6Cbf47RdOqXuNUaRfFoMZ6o2,html-button-response,109,699417,0.0-46.0-3.0-0.0-3.0,,,,,,,,,,,,100.0,0.0,,62cfee5a0c2e87501bfb10bc,12:20:56,03/04/2024
,"<p style=""font-size:75px;"">...</p>",,ospan,iti,Zxbd6Cbf47RdOqXuNUaRfFoMZ6o2,html-keyboard-response,110,700424,0.0-46.0-4.0-0.0-0.0,,,,,,,,,,,,,,,62cfee5a0c2e87501bfb10bc,12:20:56,03/04/2024
955.0,,,ospan,symmetry,Zxbd6Cbf47RdOqXuNUaRfFoMZ6o2,symmetry-judgement-task,111,702501,0.0-46.0-4.0-0.0-1.0-0.0,,,,,,,,,,1.0,1.0,,,,62cfee5a0c2e87501bfb10bc,12:20:56,03/04/2024
,"<div style=""font-size: 10rem; color: #0000FF"">N</div>",,ospan,letter,Zxbd6Cbf47RdOqXuNUaRfFoMZ6o2,html-keyboard-response,112,703512,0.0-46.0-4.0-0.0-1.0-1.0,,,,,,,,,,,,,,,62cfee5a0c2e87501bfb10bc,12:20:56,03/04/2024
773.0,,,ospan,symmetry,Zxbd6Cbf47RdOqXuNUaRfFoMZ6o2,symmetry-judgement-task,113,706167,0.0-46.0-4.0-0.0-1.0-2.0,,,,,,,,,,1.0,1.0,,,,62cfee5a0c2e87501bfb10bc,12:20:56,03/04/2024
,"<div style=""font-size: 10rem; color: #0000FF"">K</div>",,ospan,letter,Zxbd6Cbf47RdOqXuNUaRfFoMZ6o2,html-keyboard-response,114,707175,0.0-46.0-4.0-0.0-1.0-3.0,,,,,,,,,,,,,,,62cfee5a0c2e87501bfb10bc,12:20:56,03/04/2024
843.0,,,ospan,symmetry,Zxbd6Cbf47RdOqXuNUaRfFoMZ6o2,symmetry-judgement-task,115,709872,0.0-46.0-4.0-0.0-1.0-4.0,,,,,,,,,,1.0,1.0,,,,62cfee5a0c2e87501bfb10bc,12:20:56,03/04/2024
,"<div style=""font-size: 10rem; color: #0000FF"">P</div>",,ospan,letter,Zxbd6Cbf47RdOqXuNUaRfFoMZ6o2,html-keyboard-response,116,710884,0.0-46.0-4.0-0.0-1.0-5.0,,,,,,,,,,,,,,,62cfee5a0c2e87501bfb10bc,12:20:56,03/04/2024
812.0,,,ospan,symmetry,Zxbd6Cbf47RdOqXuNUaRfFoMZ6o2,symmetry-judgement-task,117,713499,0.0-46.0-4.0-0.0-1.0-6.0,,,,,,,,,,1.0,1.0,,,,62cfee5a0c2e87501bfb10bc,12:20:56,03/04/2024
,"<div style=""font-size: 10rem; color: #0000FF"">H</div>",,ospan,letter,Zxbd6Cbf47RdOqXuNUaRfFoMZ6o2,html-keyboard-response,118,714505,0.0-46.0-4.0-0.0-1.0-7.0,,,,,,,,,,,,,,,62cfee5a0c2e87501bfb10bc,12:20:56,03/04/2024
5602.79999999702,"<div class = numbox><p style=""font-size: 2.4rem"">Please recall the letters you saw to the best of your ability. If you do not remember a particular letter, use the SKIP button.<br><b>(When you are ready to lock in your answer, press ENTER)</b></p><button id = button_1 class = ""square num-button"" onclick = ""recordClick(this)""><div class = content><div class = numbers>C</div></div></button><button id = button_2 class = ""square num-button"" onclick = ""recordClick(this)""><div class = content><div class = numbers>G</div></div></button><button id = button_3 class = ""square num-button"" onclick = ""recordClick(this)""><div class = content><div class = numbers>H</div></div></button><button id = button_4 class = ""square num-button"" onclick = ""recordClick(this)""><div class = content><div class = numbers>J</div></div></button><button id = button_5 class = ""square num-button"" onclick = ""recordClick(this)""><div class = content><div class = numbers>K</div></div></button><button id = button_6 class = ""square num-button"" onclick = ""recordClick(this)""><div class = content><div class = numbers>L</div></div></button><button id = button_7 class = ""square num-button"" onclick = ""recordClick(this)""><div class = content><div class = numbers>N</div></div></button><button id = button_8 class = ""square num-button"" onclick = ""recordClick(this)""><div class = content><div class = numbers>P</div></div></button><button id = button_9 class = ""square num-button"" onclick = ""recordClick(this)""><div class = content><div class = numbers>Q</div></div></button><button id = button_10 class = ""square num-button"" onclick = ""recordClick(this)""><div class = content><div class = numbers>R</div></div></button><button id = button_11 class = ""square num-button"" onclick = ""recordClick(this)""><div class = content><div class = numbers>S</div></div></button><button id = button_12 class = ""square num-button"" onclick = ""recordClick(this)""><div class = content><div class = numbers>Y</div></div></button><button class = clear_button id = ""ClearButton"" onclick = ""clearResponse()"">BACKSPACE</button><button class = blank_button id = ""BlankButton"" onclick = ""blankResponse()"">SKIP</button><p style=""font-size: 2.4rem""><u><b>Current Answer:</b></u></p><br><br><div id=echoed_txt style=""font-size: 5rem; color:blue;""><b></b></div></div>",enter,ospan,retrieval,Zxbd6Cbf47RdOqXuNUaRfFoMZ6o2,html-keyboard-response,119,720872,0.0-46.0-4.0-0.0-2.0,7,7,7,4.0,"[""N"",""K"",""P"",""H""]","[""N"",""K"",""P"",""H""]",1.0,4.0,,,,,,,62cfee5a0c2e87501bfb10bc,12:20:56,03/04/2024
752.5,[''],0,ospan,feedback,Zxbd6Cbf47RdOqXuNUaRfFoMZ6o2,html-button-response,120,722136,0.0-46.0-4.0-0.0-3.0,,,,,,,,,,,,100.0,0.0,,62cfee5a0c2e87501bfb10bc,12:20:56,03/04/2024
,"<p style=""font-size:75px;"">...</p>",,ospan,iti,Zxbd6Cbf47RdOqXuNUaRfFoMZ6o2,html-keyboard-response,121,723146,0.0-46.0-4.0-1.0-0.0,,,,,,,,,,,,,,,62cfee5a0c2e87501bfb10bc,12:20:56,03/04/2024
1010.0,,,ospan,symmetry,Zxbd6Cbf47RdOqXuNUaRfFoMZ6o2,symmetry-judgement-task,122,725280,0.0-46.0-4.0-1.0-1.0-0.0,,,,,,,,,,1.0,1.0,,,,62cfee5a0c2e87501bfb10bc,12:20:56,03/04/2024
,"<div style=""font-size: 10rem; color: #0000FF"">J</div>",,ospan,letter,Zxbd6Cbf47RdOqXuNUaRfFoMZ6o2,html-keyboard-response,123,726290,0.0-46.0-4.0-1.0-1.0-1.0,,,,,,,,,,,,,,,62cfee5a0c2e87501bfb10bc,12:20:56,03/04/2024
768.0,,,ospan,symmetry,Zxbd6Cbf47RdOqXuNUaRfFoMZ6o2,symmetry-judgement-task,124,728930,0.0-46.0-4.0-1.0-1.0-2.0,,,,,,,,,,1.0,1.0,,,,62cfee5a0c2e87501bfb10bc,12:20:56,03/04/2024
,"<div style=""font-size: 10rem; color: #0000FF"">H</div>",,ospan,letter,Zxbd6Cbf47RdOqXuNUaRfFoMZ6o2,html-keyboard-response,125,729937,0.0-46.0-4.0-1.0-1.0-3.0,,,,,,,,,,,,,,,62cfee5a0c2e87501bfb10bc,12:20:56,03/04/2024
1126.0,,,ospan,symmetry,Zxbd6Cbf47RdOqXuNUaRfFoMZ6o2,symmetry-judgement-task,126,732940,0.0-46.0-4.0-1.0-1.0-4.0,,,,,,,,,,1.0,1.0,,,,62cfee5a0c2e87501bfb10bc,12:20:56,03/04/2024
,"<div style=""font-size: 10rem; color: #0000FF"">G</div>",,ospan,letter,Zxbd6Cbf47RdOqXuNUaRfFoMZ6o2,html-keyboard-response,127,733946,0.0-46.0-4.0-1.0-1.0-5.0,,,,,,,,,,,,,,,62cfee5a0c2e87501bfb10bc,12:20:56,03/04/2024
904.0,,,ospan,symmetry,Zxbd6Cbf47RdOqXuNUaRfFoMZ6o2,symmetry-judgement-task,128,736719,0.0-46.0-4.0-1.0-1.0-6.0,,,,,,,,,,1.0,1.0,,,,62cfee5a0c2e87501bfb10bc,12:20:56,03/04/2024
,"<div style=""font-size: 10rem; color: #0000FF"">L</div>",,ospan,letter,Zxbd6Cbf47RdOqXuNUaRfFoMZ6o2,html-keyboard-response,129,737729,0.0-46.0-4.0-1.0-1.0-7.0,,,,,,,,,,,,,,,62cfee5a0c2e87501bfb10bc,12:20:56,03/04/2024
1235.0,,,ospan,symmetry,Zxbd6Cbf47RdOqXuNUaRfFoMZ6o2,symmetry-judgement-task,130,740833,0.0-46.0-4.0-1.0-1.0-8.0,,,,,,,,,,1.0,1.0,,,,62cfee5a0c2e87501bfb10bc,12:20:56,03/04/2024
,"<div style=""font-size: 10rem; color: #0000FF"">P</div>",,ospan,letter,Zxbd6Cbf47RdOqXuNUaRfFoMZ6o2,html-keyboard-response,131,741840,0.0-46.0-4.0-1.0-1.0-9.0,,,,,,,,,,,,,,,62cfee5a0c2e87501bfb10bc,12:20:56,03/04/2024
4773.5999999940395,"<div class = numbox><p style=""font-size: 2.4rem"">Please recall the letters you saw to the best of your ability. If you do not remember a particular letter, use the SKIP button.<br><b>(When you are ready to lock in your answer, press ENTER)</b></p><button id = button_1 class = ""square num-button"" onclick = ""recordClick(this)""><div class = content><div class = numbers>C</div></div></button><button id = button_2 class = ""square num-button"" onclick = ""recordClick(this)""><div class = content><div class = numbers>G</div></div></button><button id = button_3 class = ""square num-button"" onclick = ""recordClick(this)""><div class = content><div class = numbers>H</div></div></button><button id = button_4 class = ""square num-button"" onclick = ""recordClick(this)""><div class = content><div class = numbers>J</div></div></button><button id = button_5 class = ""square num-button"" onclick = ""recordClick(this)""><div class = content><div class = numbers>K</div></div></button><button id = button_6 class = ""square num-button"" onclick = ""recordClick(this)""><div class = content><div class = numbers>L</div></div></button><button id = button_7 class = ""square num-button"" onclick = ""recordClick(this)""><div class = content><div class = numbers>N</div></div></button><button id = button_8 class = ""square num-button"" onclick = ""recordClick(this)""><div class = content><div class = numbers>P</div></div></button><button id = button_9 class = ""square num-button"" onclick = ""recordClick(this)""><div class = content><div class = numbers>Q</div></div></button><button id = button_10 class = ""square num-button"" onclick = ""recordClick(this)""><div class = content><div class = numbers>R</div></div></button><button id = button_11 class = ""square num-button"" onclick = ""recordClick(this)""><div class = content><div class = numbers>S</div></div></button><button id = button_12 class = ""square num-button"" onclick = ""recordClick(this)""><div class = content><div class = numbers>Y</div></div></button><button class = clear_button id = ""ClearButton"" onclick = ""clearResponse()"">BACKSPACE</button><button class = blank_button id = ""BlankButton"" onclick = ""blankResponse()"">SKIP</button><p style=""font-size: 2.4rem""><u><b>Current Answer:</b></u></p><br><br><div id=echoed_txt style=""font-size: 5rem; color:blue;""><b></b></div></div>",enter,ospan,retrieval,Zxbd6Cbf47RdOqXuNUaRfFoMZ6o2,html-keyboard-response,132,747377,0.0-46.0-4.0-1.0-2.0,12,12,12,5.0,"[""J"",""H"",""G"",""L"",""P""]","[""J"",""H"",""G"",""L"",""P""]",1.0,5.0,,,,,,,62cfee5a0c2e87501bfb10bc,12:20:56,03/04/2024
820.1000000014901,[''],0,ospan,feedback,Zxbd6Cbf47RdOqXuNUaRfFoMZ6o2,html-button-response,133,748707,0.0-46.0-4.0-1.0-3.0,,,,,,,,,,,,100.0,0.0,,62cfee5a0c2e87501bfb10bc,12:20:56,03/04/2024
,"<p style=""font-size:75px;"">...</p>",,ospan,iti,Zxbd6Cbf47RdOqXuNUaRfFoMZ6o2,html-keyboard-response,134,749711,0.0-46.0-4.0-2.0-0.0,,,,,,,,,,,,,,,62cfee5a0c2e87501bfb10bc,12:20:56,03/04/2024
942.0,,,ospan,symmetry,Zxbd6Cbf47RdOqXuNUaRfFoMZ6o2,symmetry-judgement-task,135,751765,0.0-46.0-4.0-2.0-1.0-0.0,,,,,,,,,,1.0,1.0,,,,62cfee5a0c2e87501bfb10bc,12:20:56,03/04/2024
,"<div style=""font-size: 10rem; color: #0000FF"">S</div>",,ospan,letter,Zxbd6Cbf47RdOqXuNUaRfFoMZ6o2,html-keyboard-response,136,752773,0.0-46.0-4.0-2.0-1.0-1.0,,,,,,,,,,,,,,,62cfee5a0c2e87501bfb10bc,12:20:56,03/04/2024
812.0,,,ospan,symmetry,Zxbd6Cbf47RdOqXuNUaRfFoMZ6o2,symmetry-judgement-task,137,755456,0.0-46.0-4.0-2.0-1.0-2.0,,,,,,,,,,1.0,1.0,,,,62cfee5a0c2e87501bfb10bc,12:20:56,03/04/2024
,"<div style=""font-size: 10rem; color: #0000FF"">Q</div>",,ospan,letter,Zxbd6Cbf47RdOqXuNUaRfFoMZ6o2,html-keyboard-response,138,756464,0.0-46.0-4.0-2.0-1.0-3.0,,,,,,,,,,,,,,,62cfee5a0c2e87501bfb10bc,12:20:56,03/04/2024
696.0,,,ospan,symmetry,Zxbd6Cbf47RdOqXuNUaRfFoMZ6o2,symmetry-judgement-task,139,759033,0.0-46.0-4.0-2.0-1.0-4.0,,,,,,,,,,1.0,1.0,,,,62cfee5a0c2e87501bfb10bc,12:20:56,03/04/2024
,"<div style=""font-size: 10rem; color: #0000FF"">N</div>",,ospan,letter,Zxbd6Cbf47RdOqXuNUaRfFoMZ6o2,html-keyboard-response,140,760044,0.0-46.0-4.0-2.0-1.0-5.0,,,,,,,,,,,,,,,62cfee5a0c2e87501bfb10bc,12:20:56,03/04/2024
4225.60000000149,"<div class = numbox><p style=""font-size: 2.4rem"">Please recall the letters you saw to the best of your ability. If you do not remember a particular letter, use the SKIP button.<br><b>(When you are ready to lock in your answer, press ENTER)</b></p><button id = button_1 class = ""square num-button"" onclick = ""recordClick(this)""><div class = content><div class = numbers>C</div></div></button><button id = button_2 class = ""square num-button"" onclick = ""recordClick(this)""><div class = content><div class = numbers>G</div></div></button><button id = button_3 class = ""square num-button"" onclick = ""recordClick(this)""><div class = content><div class = numbers>H</div></div></button><button id = button_4 class = ""square num-button"" onclick = ""recordClick(this)""><div class = content><div class = numbers>J</div></div></button><button id = button_5 class = ""square num-button"" onclick = ""recordClick(this)""><div class = content><div class = numbers>K</div></div></button><button id = button_6 class = ""square num-button"" onclick = ""recordClick(this)""><div class = content><div class = numbers>L</div></div></button><button id = button_7 class = ""square num-button"" onclick = ""recordClick(this)""><div class = content><div class = numbers>N</div></div></button><button id = button_8 class = ""square num-button"" onclick = ""recordClick(this)""><div class = content><div class = numbers>P</div></div></button><button id = button_9 class = ""square num-button"" onclick = ""recordClick(this)""><div class = content><div class = numbers>Q</div></div></button><button id = button_10 class = ""square num-button"" onclick = ""recordClick(this)""><div class = content><div class = numbers>R</div></div></button><button id = button_11 class = ""square num-button"" onclick = ""recordClick(this)""><div class = content><div class = numbers>S</div></div></button><button id = button_12 class = ""square num-button"" onclick = ""recordClick(this)""><div class = content><div class = numbers>Y</div></div></button><button class = clear_button id = ""ClearButton"" onclick = ""clearResponse()"">BACKSPACE</button><button class = blank_button id = ""BlankButton"" onclick = ""blankResponse()"">SKIP</button><p style=""font-size: 2.4rem""><u><b>Current Answer:</b></u></p><br><br><div id=echoed_txt style=""font-size: 5rem; color:blue;""><b></b></div></div>",enter,ospan,retrieval,Zxbd6Cbf47RdOqXuNUaRfFoMZ6o2,html-keyboard-response,141,765024,0.0-46.0-4.0-2.0-2.0,15,15,15,3.0,"[""S"",""Q"",""N""]","[""S"",""Q"",""N""]",1.0,3.0,,,,,,,62cfee5a0c2e87501bfb10bc,12:20:56,03/04/2024
820.5,[''],0,ospan,feedback,Zxbd6Cbf47RdOqXuNUaRfFoMZ6o2,html-button-response,142,766355,0.0-46.0-4.0-2.0-3.0,,,,,,,,,,,,100.0,0.0,,62cfee5a0c2e87501bfb10bc,12:20:56,03/04/2024
,"<p style=""font-size:75px;"">...</p>",,ospan,iti,Zxbd6Cbf47RdOqXuNUaRfFoMZ6o2,html-keyboard-response,143,767361,0.0-46.0-5.0-0.0-0.0,,,,,,,,,,,,,,,62cfee5a0c2e87501bfb10bc,12:20:56,03/04/2024
735.0,,,ospan,symmetry,Zxbd6Cbf47RdOqXuNUaRfFoMZ6o2,symmetry-judgement-task,144,769221,0.0-46.0-5.0-0.0-1.0-0.0,,,,,,,,,,1.0,1.0,,,,62cfee5a0c2e87501bfb10bc,12:20:56,03/04/2024
,"<div style=""font-size: 10rem; color: #0000FF"">S</div>",,ospan,letter,Zxbd6Cbf47RdOqXuNUaRfFoMZ6o2,html-keyboard-response,145,770232,0.0-46.0-5.0-0.0-1.0-1.0,,,,,,,,,,,,,,,62cfee5a0c2e87501bfb10bc,12:20:56,03/04/2024
989.0,,,ospan,symmetry,Zxbd6Cbf47RdOqXuNUaRfFoMZ6o2,symmetry-judgement-task,146,773104,0.0-46.0-5.0-0.0-1.0-2.0,,,,,,,,,,1.0,1.0,,,,62cfee5a0c2e87501bfb10bc,12:20:56,03/04/2024
,"<div style=""font-size: 10rem; color: #0000FF"">H</div>",,ospan,letter,Zxbd6Cbf47RdOqXuNUaRfFoMZ6o2,html-keyboard-response,147,774112,0.0-46.0-5.0-0.0-1.0-3.0,,,,,,,,,,,,,,,62cfee5a0c2e87501bfb10bc,12:20:56,03/04/2024
961.0,,,ospan,symmetry,Zxbd6Cbf47RdOqXuNUaRfFoMZ6o2,symmetry-judgement-task,148,776952,0.0-46.0-5.0-0.0-1.0-4.0,,,,,,,,,,1.0,1.0,,,,62cfee5a0c2e87501bfb10bc,12:20:56,03/04/2024
,"<div style=""font-size: 10rem; color: #0000FF"">C</div>",,ospan,letter,Zxbd6Cbf47RdOqXuNUaRfFoMZ6o2,html-keyboard-response,149,777955,0.0-46.0-5.0-0.0-1.0-5.0,,,,,,,,,,,,,,,62cfee5a0c2e87501bfb10bc,12:20:56,03/04/2024
805.0,,,ospan,symmetry,Zxbd6Cbf47RdOqXuNUaRfFoMZ6o2,symmetry-judgement-task,150,780640,0.0-46.0-5.0-0.0-1.0-6.0,,,,,,,,,,1.0,1.0,,,,62cfee5a0c2e87501bfb10bc,12:20:56,03/04/2024
,"<div style=""font-size: 10rem; color: #0000FF"">Q</div>",,ospan,letter,Zxbd6Cbf47RdOqXuNUaRfFoMZ6o2,html-keyboard-response,151,781647,0.0-46.0-5.0-0.0-1.0-7.0,,,,,,,,,,,,,,,62cfee5a0c2e87501bfb10bc,12:20:56,03/04/2024
1142.0,,,ospan,symmetry,Zxbd6Cbf47RdOqXuNUaRfFoMZ6o2,symmetry-judgement-task,152,784667,0.0-46.0-5.0-0.0-1.0-8.0,,,,,,,,,,1.0,1.0,,,,62cfee5a0c2e87501bfb10bc,12:20:56,03/04/2024
,"<div style=""font-size: 10rem; color: #0000FF"">P</div>",,ospan,letter,Zxbd6Cbf47RdOqXuNUaRfFoMZ6o2,html-keyboard-response,153,785677,0.0-46.0-5.0-0.0-1.0-9.0,,,,,,,,,,,,,,,62cfee5a0c2e87501bfb10bc,12:20:56,03/04/2024
1689.0,,,ospan,symmetry,Zxbd6Cbf47RdOqXuNUaRfFoMZ6o2,symmetry-judgement-task,154,789250,0.0-46.0-5.0-0.0-1.0-10.0,,,,,,,,,,1.0,1.0,,,,62cfee5a0c2e87501bfb10bc,12:20:56,03/04/2024
,"<div style=""font-size: 10rem; color: #0000FF"">L</div>",,ospan,letter,Zxbd6Cbf47RdOqXuNUaRfFoMZ6o2,html-keyboard-response,155,790263,0.0-46.0-5.0-0.0-1.0-11.0,,,,,,,,,,,,,,,62cfee5a0c2e87501bfb10bc,12:20:56,03/04/2024
8264.60000000149,"<div class = numbox><p style=""font-size: 2.4rem"">Please recall the letters you saw to the best of your ability. If you do not remember a particular letter, use the SKIP button.<br><b>(When you are ready to lock in your answer, press ENTER)</b></p><button id = button_1 class = ""square num-button"" onclick = ""recordClick(this)""><div class = content><div class = numbers>C</div></div></button><button id = button_2 class = ""square num-button"" onclick = ""recordClick(this)""><div class = content><div class = numbers>G</div></div></button><button id = button_3 class = ""square num-button"" onclick = ""recordClick(this)""><div class = content><div class = numbers>H</div></div></button><button id = button_4 class = ""square num-button"" onclick = ""recordClick(this)""><div class = content><div class = numbers>J</div></div></button><button id = button_5 class = ""square num-button"" onclick = ""recordClick(this)""><div class = content><div class = numbers>K</div></div></button><button id = button_6 class = ""square num-button"" onclick = ""recordClick(this)""><div class = content><div class = numbers>L</div></div></button><button id = button_7 class = ""square num-button"" onclick = ""recordClick(this)""><div class = content><div class = numbers>N</div></div></button><button id = button_8 class = ""square num-button"" onclick = ""recordClick(this)""><div class = content><div class = numbers>P</div></div></button><button id = button_9 class = ""square num-button"" onclick = ""recordClick(this)""><div class = content><div class = numbers>Q</div></div></button><button id = button_10 class = ""square num-button"" onclick = ""recordClick(this)""><div class = content><div class = numbers>R</div></div></button><button id = button_11 class = ""square num-button"" onclick = ""recordClick(this)""><div class = content><div class = numbers>S</div></div></button><button id = button_12 class = ""square num-button"" onclick = ""recordClick(this)""><div class = content><div class = numbers>Y</div></div></button><button class = clear_button id = ""ClearButton"" onclick = ""clearResponse()"">BACKSPACE</button><button class = blank_button id = ""BlankButton"" onclick = ""blankResponse()"">SKIP</button><p style=""font-size: 2.4rem""><u><b>Current Answer:</b></u></p><br><br><div id=echoed_txt style=""font-size: 5rem; color:blue;""><b></b></div></div>",enter,ospan,retrieval,Zxbd6Cbf47RdOqXuNUaRfFoMZ6o2,html-keyboard-response,156,799291,0.0-46.0-5.0-0.0-2.0,21,19,15,6.0,"[""S"",""H"",""Q"",""C"",""P"",""L""]","[""S"",""H"",""C"",""Q"",""P"",""L""]",0.0,4.0,,,,,,,62cfee5a0c2e87501bfb10bc,12:20:56,03/04/2024
887.0999999940395,[''],0,ospan,feedback,Zxbd6Cbf47RdOqXuNUaRfFoMZ6o2,html-button-response,157,800686,0.0-46.0-5.0-0.0-3.0,,,,,,,,,,,,100.0,0.0,,62cfee5a0c2e87501bfb10bc,12:20:56,03/04/2024
,"<p style=""font-size:75px;"">...</p>",,ospan,iti,Zxbd6Cbf47RdOqXuNUaRfFoMZ6o2,html-keyboard-response,158,801691,0.0-46.0-5.0-1.0-0.0,,,,,,,,,,,,,,,62cfee5a0c2e87501bfb10bc,12:20:56,03/04/2024
864.0,,,ospan,symmetry,Zxbd6Cbf47RdOqXuNUaRfFoMZ6o2,symmetry-judgement-task,159,803669,0.0-46.0-5.0-1.0-1.0-0.0,,,,,,,,,,1.0,1.0,,,,62cfee5a0c2e87501bfb10bc,12:20:56,03/04/2024
,"<div style=""font-size: 10rem; color: #0000FF"">J</div>",,ospan,letter,Zxbd6Cbf47RdOqXuNUaRfFoMZ6o2,html-keyboard-response,160,804679,0.0-46.0-5.0-1.0-1.0-1.0,,,,,,,,,,,,,,,62cfee5a0c2e87501bfb10bc,12:20:56,03/04/2024
1695.0,,,ospan,symmetry,Zxbd6Cbf47RdOqXuNUaRfFoMZ6o2,symmetry-judgement-task,161,808239,0.0-46.0-5.0-1.0-1.0-2.0,,,,,,,,,,1.0,1.0,,,,62cfee5a0c2e87501bfb10bc,12:20:56,03/04/2024
,"<div style=""font-size: 10rem; color: #0000FF"">H</div>",,ospan,letter,Zxbd6Cbf47RdOqXuNUaRfFoMZ6o2,html-keyboard-response,162,809252,0.0-46.0-5.0-1.0-1.0-3.0,,,,,,,,,,,,,,,62cfee5a0c2e87501bfb10bc,12:20:56,03/04/2024
885.0,,,ospan,symmetry,Zxbd6Cbf47RdOqXuNUaRfFoMZ6o2,symmetry-judgement-task,163,812019,0.0-46.0-5.0-1.0-1.0-4.0,,,,,,,,,,1.0,1.0,,,,62cfee5a0c2e87501bfb10bc,12:20:56,03/04/2024
,"<div style=""font-size: 10rem; color: #0000FF"">Y</div>",,ospan,letter,Zxbd6Cbf47RdOqXuNUaRfFoMZ6o2,html-keyboard-response,164,813027,0.0-46.0-5.0-1.0-1.0-5.0,,,,,,,,,,,,,,,62cfee5a0c2e87501bfb10bc,12:20:56,03/04/2024
912.0,,,ospan,symmetry,Zxbd6Cbf47RdOqXuNUaRfFoMZ6o2,symmetry-judgement-task,165,815820,0.0-46.0-5.0-1.0-1.0-6.0,,,,,,,,,,1.0,1.0,,,,62cfee5a0c2e87501bfb10bc,12:20:56,03/04/2024
,"<div style=""font-size: 10rem; color: #0000FF"">S</div>",,ospan,letter,Zxbd6Cbf47RdOqXuNUaRfFoMZ6o2,html-keyboard-response,166,816832,0.0-46.0-5.0-1.0-1.0-7.0,,,,,,,,,,,,,,,62cfee5a0c2e87501bfb10bc,12:20:56,03/04/2024
1229.0,,,ospan,symmetry,Zxbd6Cbf47RdOqXuNUaRfFoMZ6o2,symmetry-judgement-task,167,819924,0.0-46.0-5.0-1.0-1.0-8.0,,,,,,,,,,1.0,1.0,,,,62cfee5a0c2e87501bfb10bc,12:20:56,03/04/2024
,"<div style=""font-size: 10rem; color: #0000FF"">P</div>",,ospan,letter,Zxbd6Cbf47RdOqXuNUaRfFoMZ6o2,html-keyboard-response,168,820929,0.0-46.0-5.0-1.0-1.0-9.0,,,,,,,,,,,,,,,62cfee5a0c2e87501bfb10bc,12:20:56,03/04/2024
1358.0,,,ospan,symmetry,Zxbd6Cbf47RdOqXuNUaRfFoMZ6o2,symmetry-judgement-task,169,824158,0.0-46.0-5.0-1.0-1.0-10.0,,,,,,,,,,1.0,1.0,,,,62cfee5a0c2e87501bfb10bc,12:20:56,03/04/2024
,"<div style=""font-size: 10rem; color: #0000FF"">G</div>",,ospan,letter,Zxbd6Cbf47RdOqXuNUaRfFoMZ6o2,html-keyboard-response,170,825166,0.0-46.0-5.0-1.0-1.0-11.0,,,,,,,,,,,,,,,62cfee5a0c2e87501bfb10bc,12:20:56,03/04/2024
1116.0,,,ospan,symmetry,Zxbd6Cbf47RdOqXuNUaRfFoMZ6o2,symmetry-judgement-task,171,828152,0.0-46.0-5.0-1.0-1.0-12.0,,,,,,,,,,1.0,1.0,,,,62cfee5a0c2e87501bfb10bc,12:20:56,03/04/2024
,"<div style=""font-size: 10rem; color: #0000FF"">N</div>",,ospan,letter,Zxbd6Cbf47RdOqXuNUaRfFoMZ6o2,html-keyboard-response,172,829159,0.0-46.0-5.0-1.0-1.0-13.0,,,,,,,,,,,,,,,62cfee5a0c2e87501bfb10bc,12:20:56,03/04/2024
8675.79999999702,"<div class = numbox><p style=""font-size: 2.4rem"">Please recall the letters you saw to the best of your ability. If you do not remember a particular letter, use the SKIP button.<br><b>(When you are ready to lock in your answer, press ENTER)</b></p><button id = button_1 class = ""square num-button"" onclick = ""recordClick(this)""><div class = content><div class = numbers>C</div></div></button><button id = button_2 class = ""square num-button"" onclick = ""recordClick(this)""><div class = content><div class = numbers>G</div></div></button><button id = button_3 class = ""square num-button"" onclick = ""recordClick(this)""><div class = content><div class = numbers>H</div></div></button><button id = button_4 class = ""square num-button"" onclick = ""recordClick(this)""><div class = content><div class = numbers>J</div></div></button><button id = button_5 class = ""square num-button"" onclick = ""recordClick(this)""><div class = content><div class = numbers>K</div></div></button><button id = button_6 class = ""square num-button"" onclick = ""recordClick(this)""><div class = content><div class = numbers>L</div></div></button><button id = button_7 class = ""square num-button"" onclick = ""recordClick(this)""><div class = content><div class = numbers>N</div></div></button><button id = button_8 class = ""square num-button"" onclick = ""recordClick(this)""><div class = content><div class = numbers>P</div></div></button><button id = button_9 class = ""square num-button"" onclick = ""recordClick(this)""><div class = content><div class = numbers>Q</div></div></button><button id = button_10 class = ""square num-button"" onclick = ""recordClick(this)""><div class = content><div class = numbers>R</div></div></button><button id = button_11 class = ""square num-button"" onclick = ""recordClick(this)""><div class = content><div class = numbers>S</div></div></button><button id = button_12 class = ""square num-button"" onclick = ""recordClick(this)""><div class = content><div class = numbers>Y</div></div></button><button class = clear_button id = ""ClearButton"" onclick = ""clearResponse()"">BACKSPACE</button><button class = blank_button id = ""BlankButton"" onclick = ""blankResponse()"">SKIP</button><p style=""font-size: 2.4rem""><u><b>Current Answer:</b></u></p><br><br><div id=echoed_txt style=""font-size: 5rem; color:blue;""><b></b></div></div>",enter,ospan,retrieval,Zxbd6Cbf47RdOqXuNUaRfFoMZ6o2,html-keyboard-response,173,838598,0.0-46.0-5.0-1.0-2.0,28,25,15,7.0,"[""J"",""H"",""Y"",""S"",""P"",""G""]","[""J"",""H"",""Y"",""S"",""P"",""G"",""N""]",0.0,6.0,,,,,,,62cfee5a0c2e87501bfb10bc,12:20:56,03/04/2024
844.0,[''],0,ospan,feedback,Zxbd6Cbf47RdOqXuNUaRfFoMZ6o2,html-button-response,174,839945,0.0-46.0-5.0-1.0-3.0,,,,,,,,,,,,100.0,0.0,,62cfee5a0c2e87501bfb10bc,12:20:56,03/04/2024
,"<p style=""font-size:75px;"">...</p>",,ospan,iti,Zxbd6Cbf47RdOqXuNUaRfFoMZ6o2,html-keyboard-response,175,840950,0.0-46.0-6.0-0.0-0.0,,,,,,,,,,,,,,,62cfee5a0c2e87501bfb10bc,12:20:56,03/04/2024
1026.0,,,ospan,symmetry,Zxbd6Cbf47RdOqXuNUaRfFoMZ6o2,symmetry-judgement-task,176,842999,0.0-46.0-6.0-0.0-1.0-0.0,,,,,,,,,,1.0,1.0,,,,62cfee5a0c2e87501bfb10bc,12:20:56,03/04/2024
,"<div style=""font-size: 10rem; color: #0000FF"">S</div>",,ospan,letter,Zxbd6Cbf47RdOqXuNUaRfFoMZ6o2,html-keyboard-response,177,844008,0.0-46.0-6.0-0.0-1.0-1.0,,,,,,,,,,,,,,,62cfee5a0c2e87501bfb10bc,12:20:56,03/04/2024
930.0,,,ospan,symmetry,Zxbd6Cbf47RdOqXuNUaRfFoMZ6o2,symmetry-judgement-task,178,846805,0.0-46.0-6.0-0.0-1.0-2.0,,,,,,,,,,1.0,1.0,,,,62cfee5a0c2e87501bfb10bc,12:20:56,03/04/2024
,"<div style=""font-size: 10rem; color: #0000FF"">K</div>",,ospan,letter,Zxbd6Cbf47RdOqXuNUaRfFoMZ6o2,html-keyboard-response,179,847814,0.0-46.0-6.0-0.0-1.0-3.0,,,,,,,,,,,,,,,62cfee5a0c2e87501bfb10bc,12:20:56,03/04/2024
1282.0,,,ospan,symmetry,Zxbd6Cbf47RdOqXuNUaRfFoMZ6o2,symmetry-judgement-task,180,850972,0.0-46.0-6.0-0.0-1.0-4.0,,,,,,,,,,1.0,1.0,,,,62cfee5a0c2e87501bfb10bc,12:20:56,03/04/2024
,"<div style=""font-size: 10rem; color: #0000FF"">H</div>",,ospan,letter,Zxbd6Cbf47RdOqXuNUaRfFoMZ6o2,html-keyboard-response,181,851983,0.0-46.0-6.0-0.0-1.0-5.0,,,,,,,,,,,,,,,62cfee5a0c2e87501bfb10bc,12:20:56,03/04/2024
1632.0,,,ospan,symmetry,Zxbd6Cbf47RdOqXuNUaRfFoMZ6o2,symmetry-judgement-task,182,855483,0.0-46.0-6.0-0.0-1.0-6.0,,,,,,,,,,1.0,1.0,,,,62cfee5a0c2e87501bfb10bc,12:20:56,03/04/2024
,"<div style=""font-size: 10rem; color: #0000FF"">L</div>",,ospan,letter,Zxbd6Cbf47RdOqXuNUaRfFoMZ6o2,html-keyboard-response,183,856499,0.0-46.0-6.0-0.0-1.0-7.0,,,,,,,,,,,,,,,62cfee5a0c2e87501bfb10bc,12:20:56,03/04/2024
943.0,,,ospan,symmetry,Zxbd6Cbf47RdOqXuNUaRfFoMZ6o2,symmetry-judgement-task,184,859350,0.0-46.0-6.0-0.0-1.0-8.0,,,,,,,,,,1.0,1.0,,,,62cfee5a0c2e87501bfb10bc,12:20:56,03/04/2024
,"<div style=""font-size: 10rem; color: #0000FF"">J</div>",,ospan,letter,Zxbd6Cbf47RdOqXuNUaRfFoMZ6o2,html-keyboard-response,185,860356,0.0-46.0-6.0-0.0-1.0-9.0,,,,,,,,,,,,,,,62cfee5a0c2e87501bfb10bc,12:20:56,03/04/2024
5041.9000000059605,"<div class = numbox><p style=""font-size: 2.4rem"">Please recall the letters you saw to the best of your ability. If you do not remember a particular letter, use the SKIP button.<br><b>(When you are ready to lock in your answer, press ENTER)</b></p><button id = button_1 class = ""square num-button"" onclick = ""recordClick(this)""><div class = content><div class = numbers>C</div></div></button><button id = button_2 class = ""square num-button"" onclick = ""recordClick(this)""><div class = content><div class = numbers>G</div></div></button><button id = button_3 class = ""square num-button"" onclick = ""recordClick(this)""><div class = content><div class = numbers>H</div></div></button><button id = button_4 class = ""square num-button"" onclick = ""recordClick(this)""><div class = content><div class = numbers>J</div></div></button><button id = button_5 class = ""square num-button"" onclick = ""recordClick(this)""><div class = content><div class = numbers>K</div></div></button><button id = button_6 class = ""square num-button"" onclick = ""recordClick(this)""><div class = content><div class = numbers>L</div></div></button><button id = button_7 class = ""square num-button"" onclick = ""recordClick(this)""><div class = content><div class = numbers>N</div></div></button><button id = button_8 class = ""square num-button"" onclick = ""recordClick(this)""><div class = content><div class = numbers>P</div></div></button><button id = button_9 class = ""square num-button"" onclick = ""recordClick(this)""><div class = content><div class = numbers>Q</div></div></button><button id = button_10 class = ""square num-button"" onclick = ""recordClick(this)""><div class = content><div class = numbers>R</div></div></button><button id = button_11 class = ""square num-button"" onclick = ""recordClick(this)""><div class = content><div class = numbers>S</div></div></button><button id = button_12 class = ""square num-button"" onclick = ""recordClick(this)""><div class = content><div class = numbers>Y</div></div></button><button class = clear_button id = ""ClearButton"" onclick = ""clearResponse()"">BACKSPACE</button><button class = blank_button id = ""BlankButton"" onclick = ""blankResponse()"">SKIP</button><p style=""font-size: 2.4rem""><u><b>Current Answer:</b></u></p><br><br><div id=echoed_txt style=""font-size: 5rem; color:blue;""><b></b></div></div>",enter,ospan,retrieval,Zxbd6Cbf47RdOqXuNUaRfFoMZ6o2,html-keyboard-response,186,866155,0.0-46.0-6.0-0.0-2.0,33,30,20,5.0,"[""S"",""K"",""H"",""L"",""J""]","[""S"",""K"",""H"",""L"",""J""]",1.0,5.0,,,,,,,62cfee5a0c2e87501bfb10bc,12:20:56,03/04/2024
920.8999999985099,[''],0,ospan,feedback,Zxbd6Cbf47RdOqXuNUaRfFoMZ6o2,html-button-response,187,867587,0.0-46.0-6.0-0.0-3.0,,,,,,,,,,,,100.0,0.0,,62cfee5a0c2e87501bfb10bc,12:20:56,03/04/2024
,"<p style=""font-size:75px;"">...</p>",,ospan,iti,Zxbd6Cbf47RdOqXuNUaRfFoMZ6o2,html-keyboard-response,188,868593,0.0-46.0-6.0-1.0-0.0,,,,,,,,,,,,,,,62cfee5a0c2e87501bfb10bc,12:20:56,03/04/2024
1469.0,,,ospan,symmetry,Zxbd6Cbf47RdOqXuNUaRfFoMZ6o2,symmetry-judgement-task,189,871190,0.0-46.0-6.0-1.0-1.0-0.0,,,,,,,,,,1.0,1.0,,,,62cfee5a0c2e87501bfb10bc,12:20:56,03/04/2024
,"<div style=""font-size: 10rem; color: #0000FF"">J</div>",,ospan,letter,Zxbd6Cbf47RdOqXuNUaRfFoMZ6o2,html-keyboard-response,190,872198,0.0-46.0-6.0-1.0-1.0-1.0,,,,,,,,,,,,,,,62cfee5a0c2e87501bfb10bc,12:20:56,03/04/2024
898.0,,,ospan,symmetry,Zxbd6Cbf47RdOqXuNUaRfFoMZ6o2,symmetry-judgement-task,191,874967,0.0-46.0-6.0-1.0-1.0-2.0,,,,,,,,,,1.0,1.0,,,,62cfee5a0c2e87501bfb10bc,12:20:56,03/04/2024
,"<div style=""font-size: 10rem; color: #0000FF"">R</div>",,ospan,letter,Zxbd6Cbf47RdOqXuNUaRfFoMZ6o2,html-keyboard-response,192,875976,0.0-46.0-6.0-1.0-1.0-3.0,,,,,,,,,,,,,,,62cfee5a0c2e87501bfb10bc,12:20:56,03/04/2024
930.0,,,ospan,symmetry,Zxbd6Cbf47RdOqXuNUaRfFoMZ6o2,symmetry-judgement-task,193,878774,0.0-46.0-6.0-1.0-1.0-4.0,,,,,,,,,,1.0,1.0,,,,62cfee5a0c2e87501bfb10bc,12:20:56,03/04/2024
,"<div style=""font-size: 10rem; color: #0000FF"">G</div>",,ospan,letter,Zxbd6Cbf47RdOqXuNUaRfFoMZ6o2,html-keyboard-response,194,879782,0.0-46.0-6.0-1.0-1.0-5.0,,,,,,,,,,,,,,,62cfee5a0c2e87501bfb10bc,12:20:56,03/04/2024
1116.0,,,ospan,symmetry,Zxbd6Cbf47RdOqXuNUaRfFoMZ6o2,symmetry-judgement-task,195,882765,0.0-46.0-6.0-1.0-1.0-6.0,,,,,,,,,,1.0,1.0,,,,62cfee5a0c2e87501bfb10bc,12:20:56,03/04/2024
,"<div style=""font-size: 10rem; color: #0000FF"">H</div>",,ospan,letter,Zxbd6Cbf47RdOqXuNUaRfFoMZ6o2,html-keyboard-response,196,883774,0.0-46.0-6.0-1.0-1.0-7.0,,,,,,,,,,,,,,,62cfee5a0c2e87501bfb10bc,12:20:56,03/04/2024
1245.0,,,ospan,symmetry,Zxbd6Cbf47RdOqXuNUaRfFoMZ6o2,symmetry-judgement-task,197,886887,0.0-46.0-6.0-1.0-1.0-8.0,,,,,,,,,,1.0,1.0,,,,62cfee5a0c2e87501bfb10bc,12:20:56,03/04/2024
,"<div style=""font-size: 10rem; color: #0000FF"">L</div>",,ospan,letter,Zxbd6Cbf47RdOqXuNUaRfFoMZ6o2,html-keyboard-response,198,887894,0.0-46.0-6.0-1.0-1.0-9.0,,,,,,,,,,,,,,,62cfee5a0c2e87501bfb10bc,12:20:56,03/04/2024
1380.0,,,ospan,symmetry,Zxbd6Cbf47RdOqXuNUaRfFoMZ6o2,symmetry-judgement-task,199,891150,0.0-46.0-6.0-1.0-1.0-10.0,,,,,,,,,,1.0,1.0,,,,62cfee5a0c2e87501bfb10bc,12:20:56,03/04/2024
,"<div style=""font-size: 10rem; color: #0000FF"">N</div>",,ospan,letter,Zxbd6Cbf47RdOqXuNUaRfFoMZ6o2,html-keyboard-response,200,892158,0.0-46.0-6.0-1.0-1.0-11.0,,,,,,,,,,,,,,,62cfee5a0c2e87501bfb10bc,12:20:56,03/04/2024
1063.0,,,ospan,symmetry,Zxbd6Cbf47RdOqXuNUaRfFoMZ6o2,symmetry-judgement-task,201,895097,0.0-46.0-6.0-1.0-1.0-12.0,,,,,,,,,,1.0,1.0,,,,62cfee5a0c2e87501bfb10bc,12:20:56,03/04/2024
,"<div style=""font-size: 10rem; color: #0000FF"">P</div>",,ospan,letter,Zxbd6Cbf47RdOqXuNUaRfFoMZ6o2,html-keyboard-response,202,896107,0.0-46.0-6.0-1.0-1.0-13.0,,,,,,,,,,,,,,,62cfee5a0c2e87501bfb10bc,12:20:56,03/04/2024
1203.0,,,ospan,symmetry,Zxbd6Cbf47RdOqXuNUaRfFoMZ6o2,symmetry-judgement-task,203,899186,0.0-46.0-6.0-1.0-1.0-14.0,,,,,,,,,,1.0,1.0,,,,62cfee5a0c2e87501bfb10bc,12:20:56,03/04/2024
,"<div style=""font-size: 10rem; color: #0000FF"">Q</div>",,ospan,letter,Zxbd6Cbf47RdOqXuNUaRfFoMZ6o2,html-keyboard-response,204,900189,0.0-46.0-6.0-1.0-1.0-15.0,,,,,,,,,,,,,,,62cfee5a0c2e87501bfb10bc,12:20:56,03/04/2024
10264.29999999702,"<div class = numbox><p style=""font-size: 2.4rem"">Please recall the letters you saw to the best of your ability. If you do not remember a particular letter, use the SKIP button.<br><b>(When you are ready to lock in your answer, press ENTER)</b></p><button id = button_1 class = ""square num-button"" onclick = ""recordClick(this)""><div class = content><div class = numbers>C</div></div></button><button id = button_2 class = ""square num-button"" onclick = ""recordClick(this)""><div class = content><div class = numbers>G</div></div></button><button id = button_3 class = ""square num-button"" onclick = ""recordClick(this)""><div class = content><div class = numbers>H</div></div></button><button id = button_4 class = ""square num-button"" onclick = ""recordClick(this)""><div class = content><div class = numbers>J</div></div></button><button id = button_5 class = ""square num-button"" onclick = ""recordClick(this)""><div class = content><div class = numbers>K</div></div></button><button id = button_6 class = ""square num-button"" onclick = ""recordClick(this)""><div class = content><div class = numbers>L</div></div></button><button id = button_7 class = ""square num-button"" onclick = ""recordClick(this)""><div class = content><div class = numbers>N</div></div></button><button id = button_8 class = ""square num-button"" onclick = ""recordClick(this)""><div class = content><div class = numbers>P</div></div></button><button id = button_9 class = ""square num-button"" onclick = ""recordClick(this)""><div class = content><div class = numbers>Q</div></div></button><button id = button_10 class = ""square num-button"" onclick = ""recordClick(this)""><div class = content><div class = numbers>R</div></div></button><button id = button_11 class = ""square num-button"" onclick = ""recordClick(this)""><div class = content><div class = numbers>S</div></div></button><button id = button_12 class = ""square num-button"" onclick = ""recordClick(this)""><div class = content><div class = numbers>Y</div></div></button><button class = clear_button id = ""ClearButton"" onclick = ""clearResponse()"">BACKSPACE</button><button class = blank_button id = ""BlankButton"" onclick = ""blankResponse()"">SKIP</button><p style=""font-size: 2.4rem""><u><b>Current Answer:</b></u></p><br><br><div id=echoed_txt style=""font-size: 5rem; color:blue;""><b></b></div></div>",enter,ospan,retrieval,Zxbd6Cbf47RdOqXuNUaRfFoMZ6o2,html-keyboard-response,205,911216,0.0-46.0-6.0-1.0-2.0,41,32,20,8.0,"[""J"",""R"",""Q"",""L"",""H""]","[""J"",""R"",""G"",""H"",""L"",""N"",""P"",""Q""]",0.0,2.0,,,,,,,62cfee5a0c2e87501bfb10bc,12:20:56,03/04/2024
1053.3999999985099,[''],0,ospan,feedback,Zxbd6Cbf47RdOqXuNUaRfFoMZ6o2,html-button-response,206,912777,0.0-46.0-6.0-1.0-3.0,,,,,,,,,,,,100.0,0.0,,62cfee5a0c2e87501bfb10bc,12:20:56,03/04/2024
15398.09999999404,,{'Q0': 'Everything was alright'},ospan,survey_ospan,Zxbd6Cbf47RdOqXuNUaRfFoMZ6o2,lmdlab-survey-text,207,928936,0.0-46.0-7.0,,,,,,,,,,,,,,Zxbd6Cbf47RdOqXuNUaRfFoMZ6o2,62cfee5a0c2e87501bfb10bc,12:20:56,03/04/2024
1471.2999999970198,<p><p style='font-size: 3rem'>Great work!<br><br>This completes the symmetry and memory task.</p><br><br><br>,0,ospan,finish,Zxbd6Cbf47RdOqXuNUaRfFoMZ6o2,html-button-response,208,930409,0.0-46.0-8.0,41,32,20,,,,,,,,,100.0,,,62cfee5a0c2e87501bfb10bc,12:20:56,03/04/2024
