rt,stimulus,response,exp_name,exp_stage,subjectID,trial_type,trial_index,time_elapsed,internal_node_id,ospan_shown,ospan_total,ospan_abs,length,resp_actual,resp_correct,full_correct,num_correct,feedback,accuracy,correct,math_acc,math_warning,databaseID,prolificID,start_time,date
2236.0,<div class = 'left_align' style='font-size: 3.25rem; line-height: 1.3;'><p class = 'center_align'><b>Welcome to the Symmetry and Memory Task</b><br><br><br><br></p>Press 'continue' to show the instructions.<br><br><br><br></div>,0,ospan,instruct,NKGTce1BayU3In8BkEciZkYezVf2,html-button-response,51,461950,0.0-43.0-0.0-0.0-0.0,,,,,,,,,,,,,,,6599e58d1011e10041695c0a,13:42:49,06/03/2024
14495.799999952316,"<div class = 'left_align' style='font-size: 3.25rem; line-height: 1.3;'><p class = 'center_align'><b>Symmetry and Memory Task</b><br><br></p>In this task, you will try to memorize letters you see on the screen<br>while you also view black and white grid pictures.<br><br>In the next few minutes, you will have some practice to get you familiar<br>with how the task works.<br><br>It may be difficult sometimes, but please do not worry about making mistakes!<br><br>We will begin by practicing the letter part of the task.<br><br><br><br></div>",0,ospan,instruct,NKGTce1BayU3In8BkEciZkYezVf2,html-button-response,52,476700,0.0-43.0-0.0-0.0-1.0,,,,,,,,,,,,,,,6599e58d1011e10041695c0a,13:42:49,06/03/2024
11549.799999952316,"<div class = 'left_align' style='font-size: 3.25rem; line-height: 1.3;'>For this practice part, letters will appear on the screen one at a time.<br><br>Try to remember each letter in the order presented.<br><br>After some letters have been shown, you will see a response screen. Your<br>goal is to report the letters you saw <b>in order</b>. If you do not remember<br>a particular letter, you will have the option to leave it blank.<br><br><br><br></div>",0,ospan,instruct,NKGTce1BayU3In8BkEciZkYezVf2,html-button-response,53,488503,0.0-43.0-0.0-0.0-2.0,,,,,,,,,,,,,,,6599e58d1011e10041695c0a,13:42:49,06/03/2024
4366.400000095367,"<div class = 'left_align' style='font-size: 3.25rem; line-height: 1.3;'>Remember, it is very important to get the letters in the same<br>order as you see them.<br><br>When you are ready, you may begin the letter practice.</div><br><br><br><br>",0,ospan,instruct,NKGTce1BayU3In8BkEciZkYezVf2,html-button-response,54,493122,0.0-43.0-0.0-0.0-3.0,,,,,,,,,,,,,,,6599e58d1011e10041695c0a,13:42:49,06/03/2024
,"<p style=""font-size:75px;"">...</p>",,ospan,iti,NKGTce1BayU3In8BkEciZkYezVf2,html-keyboard-response,55,494376,0.0-43.0-0.0-1.0-0.0,,,,,,,,,,,,,,,6599e58d1011e10041695c0a,13:42:49,06/03/2024
,"<div style=""font-size: 10rem; color: #0000FF"">N</div>",,ospan,letter,NKGTce1BayU3In8BkEciZkYezVf2,html-keyboard-response,56,495380,0.0-43.0-0.0-1.0-1.0,,,,,,,,,,,,,,,6599e58d1011e10041695c0a,13:42:49,06/03/2024
,"<div style=""font-size: 10rem; color: #0000FF"">G</div>",,ospan,letter,NKGTce1BayU3In8BkEciZkYezVf2,html-keyboard-response,57,497134,0.0-43.0-0.0-1.0-2.0,,,,,,,,,,,,,,,6599e58d1011e10041695c0a,13:42:49,06/03/2024
9564.900000095367,"<div class = numbox><p style=""font-size: 2.4rem"">Please recall the letters you saw to the best of your ability. If you do not remember a particular letter, use the SKIP button.<br><b>(When you are ready to lock in your answer, press ENTER)</b></p><button id = button_1 class = ""square num-button"" onclick = ""recordClick(this)""><div class = content><div class = numbers>C</div></div></button><button id = button_2 class = ""square num-button"" onclick = ""recordClick(this)""><div class = content><div class = numbers>G</div></div></button><button id = button_3 class = ""square num-button"" onclick = ""recordClick(this)""><div class = content><div class = numbers>H</div></div></button><button id = button_4 class = ""square num-button"" onclick = ""recordClick(this)""><div class = content><div class = numbers>J</div></div></button><button id = button_5 class = ""square num-button"" onclick = ""recordClick(this)""><div class = content><div class = numbers>K</div></div></button><button id = button_6 class = ""square num-button"" onclick = ""recordClick(this)""><div class = content><div class = numbers>L</div></div></button><button id = button_7 class = ""square num-button"" onclick = ""recordClick(this)""><div class = content><div class = numbers>N</div></div></button><button id = button_8 class = ""square num-button"" onclick = ""recordClick(this)""><div class = content><div class = numbers>P</div></div></button><button id = button_9 class = ""square num-button"" onclick = ""recordClick(this)""><div class = content><div class = numbers>Q</div></div></button><button id = button_10 class = ""square num-button"" onclick = ""recordClick(this)""><div class = content><div class = numbers>R</div></div></button><button id = button_11 class = ""square num-button"" onclick = ""recordClick(this)""><div class = content><div class = numbers>S</div></div></button><button id = button_12 class = ""square num-button"" onclick = ""recordClick(this)""><div class = content><div class = numbers>Y</div></div></button><button class = clear_button id = ""ClearButton"" onclick = ""clearResponse()"">BACKSPACE</button><button class = blank_button id = ""BlankButton"" onclick = ""blankResponse()"">SKIP</button><p style=""font-size: 2.4rem""><u><b>Current Answer:</b></u></p><br><br><div id=echoed_txt style=""font-size: 5rem; color:blue;""><b></b></div></div>",enter,ospan,retrieval,NKGTce1BayU3In8BkEciZkYezVf2,html-keyboard-response,58,507454,0.0-43.0-0.0-1.0-3.0,NA,NA,NA,2.0,"[""N"",""G""]","[""N"",""G""]",1.0,2.0,"['<font color=""green"">N</font>', '<font color=""green"">G</font>']",,,,,,6599e58d1011e10041695c0a,13:42:49,06/03/2024
1520.2000000476837,"['<p style=""font-size:44px"">Letters:<br><br><br><font color=""green"">N</font> <font color=""green"">G</font></p><br><br>']",0,ospan,practice_feedback,NKGTce1BayU3In8BkEciZkYezVf2,html-button-response,59,509481,0.0-43.0-0.0-1.0-4.0,,,,,,,,,,,,,,,6599e58d1011e10041695c0a,13:42:49,06/03/2024
,"<p style=""font-size:75px;"">...</p>",,ospan,iti,NKGTce1BayU3In8BkEciZkYezVf2,html-keyboard-response,60,510485,0.0-43.0-0.0-2.0-0.0,,,,,,,,,,,,,,,6599e58d1011e10041695c0a,13:42:49,06/03/2024
,"<div style=""font-size: 10rem; color: #0000FF"">Y</div>",,ospan,letter,NKGTce1BayU3In8BkEciZkYezVf2,html-keyboard-response,61,511489,0.0-43.0-0.0-2.0-1.0,,,,,,,,,,,,,,,6599e58d1011e10041695c0a,13:42:49,06/03/2024
,"<div style=""font-size: 10rem; color: #0000FF"">L</div>",,ospan,letter,NKGTce1BayU3In8BkEciZkYezVf2,html-keyboard-response,62,513245,0.0-43.0-0.0-2.0-2.0,,,,,,,,,,,,,,,6599e58d1011e10041695c0a,13:42:49,06/03/2024
,"<div style=""font-size: 10rem; color: #0000FF"">Q</div>",,ospan,letter,NKGTce1BayU3In8BkEciZkYezVf2,html-keyboard-response,63,514999,0.0-43.0-0.0-2.0-3.0,,,,,,,,,,,,,,,6599e58d1011e10041695c0a,13:42:49,06/03/2024
6846.599999904633,"<div class = numbox><p style=""font-size: 2.4rem"">Please recall the letters you saw to the best of your ability. If you do not remember a particular letter, use the SKIP button.<br><b>(When you are ready to lock in your answer, press ENTER)</b></p><button id = button_1 class = ""square num-button"" onclick = ""recordClick(this)""><div class = content><div class = numbers>C</div></div></button><button id = button_2 class = ""square num-button"" onclick = ""recordClick(this)""><div class = content><div class = numbers>G</div></div></button><button id = button_3 class = ""square num-button"" onclick = ""recordClick(this)""><div class = content><div class = numbers>H</div></div></button><button id = button_4 class = ""square num-button"" onclick = ""recordClick(this)""><div class = content><div class = numbers>J</div></div></button><button id = button_5 class = ""square num-button"" onclick = ""recordClick(this)""><div class = content><div class = numbers>K</div></div></button><button id = button_6 class = ""square num-button"" onclick = ""recordClick(this)""><div class = content><div class = numbers>L</div></div></button><button id = button_7 class = ""square num-button"" onclick = ""recordClick(this)""><div class = content><div class = numbers>N</div></div></button><button id = button_8 class = ""square num-button"" onclick = ""recordClick(this)""><div class = content><div class = numbers>P</div></div></button><button id = button_9 class = ""square num-button"" onclick = ""recordClick(this)""><div class = content><div class = numbers>Q</div></div></button><button id = button_10 class = ""square num-button"" onclick = ""recordClick(this)""><div class = content><div class = numbers>R</div></div></button><button id = button_11 class = ""square num-button"" onclick = ""recordClick(this)""><div class = content><div class = numbers>S</div></div></button><button id = button_12 class = ""square num-button"" onclick = ""recordClick(this)""><div class = content><div class = numbers>Y</div></div></button><button class = clear_button id = ""ClearButton"" onclick = ""clearResponse()"">BACKSPACE</button><button class = blank_button id = ""BlankButton"" onclick = ""blankResponse()"">SKIP</button><p style=""font-size: 2.4rem""><u><b>Current Answer:</b></u></p><br><br><div id=echoed_txt style=""font-size: 5rem; color:blue;""><b></b></div></div>",enter,ospan,retrieval,NKGTce1BayU3In8BkEciZkYezVf2,html-keyboard-response,64,522601,0.0-43.0-0.0-2.0-4.0,NA,NA,NA,3.0,"[""Y"",""L"",""Q""]","[""Y"",""L"",""Q""]",1.0,3.0,"['<font color=""green"">Y</font>', '<font color=""green"">L</font>', '<font color=""green"">Q</font>']",,,,,,6599e58d1011e10041695c0a,13:42:49,06/03/2024
1120.1000001430511,"['<p style=""font-size:44px"">Letters:<br><br><br><font color=""green"">Y</font> <font color=""green"">L</font> <font color=""green"">Q</font></p><br><br>']",0,ospan,practice_feedback,NKGTce1BayU3In8BkEciZkYezVf2,html-button-response,65,524225,0.0-43.0-0.0-2.0-5.0,,,,,,,,,,,,,,,6599e58d1011e10041695c0a,13:42:49,06/03/2024
19720.599999904633,"<div class = 'left_align' style='font-size: 3.25rem; line-height: 1.3;'>Now you will practice doing the <b>symmetry judgment part</b> of the experiment.<br><br>A black and white grid picture will appear on the screen and you have to judge if it is <br>symmetrical or asymetrical.<br><br>A picture is 'mirror' symmetrical if its left half is identical to the right half when flipped.<br>Here are examples of a symmetrical and an asymetrical picture:<br><br><center><img src='Stimuli/img/symm_instructions_extra.png' style='height:420px; width:900'></img></center><br>To judge symmetry, imagine you were to fold each picture down the middle, like a book –<br>would the left half match the right half when folded onto each other?<br><br></div><br>",0,ospan,instruct,NKGTce1BayU3In8BkEciZkYezVf2,html-button-response,66,543947,0.0-43.0-1.0-0.0-0.0,,,,,,,,,,,,,,,6599e58d1011e10041695c0a,13:42:49,06/03/2024
9338.299999952316,"<div class = 'left_align' style='font-size: 3.25rem; line-height: 1.3;'>When you have viewed the picture and determined whether it is symmetrical or not,<br>you can <b>click the Yes or No button</b> below to answer.<br><br>If you take longer than 15 seconds, it will continue automatically<br>and record the answer as an error.</div><br>",0,ospan,instruct,NKGTce1BayU3In8BkEciZkYezVf2,html-button-response,67,553539,0.0-43.0-1.0-0.0-1.0,,,,,,,,,,,,,,,6599e58d1011e10041695c0a,13:42:49,06/03/2024
5358.099999904633,"<div class = 'left_align' style='font-size: 3.25rem; line-height: 1.3;'>It is <b>very</b> important that you make the symmetry judgment correctly.<br><br>It is also important that you try and judge the picture as quickly as you can.<br><br>When you are ready, click on the button below to try some practice problems.</div><br><br><br><br>",0,ospan,instruct,NKGTce1BayU3In8BkEciZkYezVf2,html-button-response,68,559151,0.0-43.0-1.0-0.0-2.0,,,,,,,,,,,,,,,6599e58d1011e10041695c0a,13:42:49,06/03/2024
3503.0,,,ospan,symmetry,NKGTce1BayU3In8BkEciZkYezVf2,symmetry-judgement-task,69,563450,0.0-43.0-1.0-1.0-0.0,,,,,,,,,,1.0,1.0,,,,6599e58d1011e10041695c0a,13:42:49,06/03/2024
,"<p style=""color:green; font-size: 35px"">Correct</p>",,ospan,feedback,NKGTce1BayU3In8BkEciZkYezVf2,html-keyboard-response,70,564203,0.0-43.0-1.0-1.0-1.0,,,,,,,,,,,,,,,6599e58d1011e10041695c0a,13:42:49,06/03/2024
2250.0,,,ospan,symmetry,NKGTce1BayU3In8BkEciZkYezVf2,symmetry-judgement-task,71,569066,0.0-43.0-1.0-1.0-2.0,,,,,,,,,,1.0,1.0,,,,6599e58d1011e10041695c0a,13:42:49,06/03/2024
,"<p style=""color:green; font-size: 35px"">Correct</p>",,ospan,feedback,NKGTce1BayU3In8BkEciZkYezVf2,html-keyboard-response,72,569821,0.0-43.0-1.0-1.0-3.0,,,,,,,,,,,,,,,6599e58d1011e10041695c0a,13:42:49,06/03/2024
1993.0,,,ospan,symmetry,NKGTce1BayU3In8BkEciZkYezVf2,symmetry-judgement-task,73,574418,0.0-43.0-1.0-1.0-4.0,,,,,,,,,,1.0,1.0,,,,6599e58d1011e10041695c0a,13:42:49,06/03/2024
,"<p style=""color:green; font-size: 35px"">Correct</p>",,ospan,feedback,NKGTce1BayU3In8BkEciZkYezVf2,html-keyboard-response,74,575172,0.0-43.0-1.0-1.0-5.0,,,,,,,,,,,,,,,6599e58d1011e10041695c0a,13:42:49,06/03/2024
1636.1999998092651,"<p style=""font-size: 3rem;"">You responded correctly on 3 of 3 symmetry judgments. Good job!</p><br><br>",0,ospan,practice,NKGTce1BayU3In8BkEciZkYezVf2,html-button-response,75,578812,0.0-43.0-1.0-2.0,,,,,,,,,,,,,,,6599e58d1011e10041695c0a,13:42:49,06/03/2024
11663.799999952316,"<div class = 'left_align' style='font-size: 3.25rem; line-height: 1.3;'>Now you will practice doing both parts of the experiment at the same time.<br><br>In the next practice set, you will be given one grid picture to judge.<br>Then letter will appear on the screen. Try to remember the letter.<br><br>It is <b>very important</b> to make the symmetry judgment as quickly and accurately as possible.<br><br>Just as before, once you have make the symmetry judgment, you can click Yes or No.<br><b>Note that you will no longer see Correct or Incorrect feedback.</div><br><br><br><br>",0,ospan,instruct,NKGTce1BayU3In8BkEciZkYezVf2,html-button-response,76,590729,0.0-43.0-2.0-0.0-0.0,,,,,,,,,,,,,,,6599e58d1011e10041695c0a,13:42:49,06/03/2024
6587.5,"<div class = 'left_align' style='font-size: 3.25rem; line-height: 1.3;'>After the letter goes away, another grid picture will appear, and then<br>another letter.<br><br>At the end of each set of letters and grids, you will recall the letters to the best<br>of your ability. Remember, try your best to get the letters in the correct order.<br><br>It is important to <b>quickly</b> and <b>accurately</b> make the symmetry judgments.</div><br><br><br><br>",0,ospan,instruct,NKGTce1BayU3In8BkEciZkYezVf2,html-button-response,77,597571,0.0-43.0-2.0-0.0-1.0,,,,,,,,,,,,,,,6599e58d1011e10041695c0a,13:42:49,06/03/2024
15771.700000047684,"<div class = 'left_align' style='font-size: 3.25rem; line-height: 1.3;'>On the feedback screen, if you are not doing well at the symmetry judgments,<br>you will also see a warning in the middle. This indicates your percent <br>correct for the grid pictures for the entire experiment.<br><br>It is <b>very</b> important for you to keep accuracy at least at 85%: <u>We can only use<br>data where the participant was at least 85% accurate on the judgments.</u> Therefore,<br> please try your best to perform well on the symmetry judgments, <b>at the same time</b><br>doing your best to recall as many letters as possible.<br><br>Click the button to try some practice problems.</div><br><br><br><br>",0,ospan,instruct,NKGTce1BayU3In8BkEciZkYezVf2,html-button-response,78,613597,0.0-43.0-2.0-0.0-2.0,,,,,,,,,,,,,,,6599e58d1011e10041695c0a,13:42:49,06/03/2024
,"<p style=""font-size:75px;"">...</p>",,ospan,iti,NKGTce1BayU3In8BkEciZkYezVf2,html-keyboard-response,79,614852,0.0-43.0-2.0-1.0-0.0,,,,,,,,,,,,,,,6599e58d1011e10041695c0a,13:42:49,06/03/2024
2097.0,,,ospan,symmetry,NKGTce1BayU3In8BkEciZkYezVf2,symmetry-judgement-task,80,617980,0.0-43.0-2.0-1.0-1.0-0.0,,,,,,,,,,1.0,1.0,,,,6599e58d1011e10041695c0a,13:42:49,06/03/2024
,"<div style=""font-size: 10rem; color: #0000FF"">R</div>",,ospan,letter,NKGTce1BayU3In8BkEciZkYezVf2,html-keyboard-response,81,618985,0.0-43.0-2.0-1.0-1.0-1.0,,,,,,,,,,,,,,,6599e58d1011e10041695c0a,13:42:49,06/03/2024
1592.0,,,ospan,symmetry,NKGTce1BayU3In8BkEciZkYezVf2,symmetry-judgement-task,82,622441,0.0-43.0-2.0-1.0-1.0-2.0,,,,,,,,,,1.0,1.0,,,,6599e58d1011e10041695c0a,13:42:49,06/03/2024
,"<div style=""font-size: 10rem; color: #0000FF"">L</div>",,ospan,letter,NKGTce1BayU3In8BkEciZkYezVf2,html-keyboard-response,83,623445,0.0-43.0-2.0-1.0-1.0-3.0,,,,,,,,,,,,,,,6599e58d1011e10041695c0a,13:42:49,06/03/2024
1309.0,,,ospan,symmetry,NKGTce1BayU3In8BkEciZkYezVf2,symmetry-judgement-task,84,626614,0.0-43.0-2.0-1.0-1.0-4.0,,,,,,,,,,1.0,1.0,,,,6599e58d1011e10041695c0a,13:42:49,06/03/2024
,"<div style=""font-size: 10rem; color: #0000FF"">P</div>",,ospan,letter,NKGTce1BayU3In8BkEciZkYezVf2,html-keyboard-response,85,627617,0.0-43.0-2.0-1.0-1.0-5.0,,,,,,,,,,,,,,,6599e58d1011e10041695c0a,13:42:49,06/03/2024
3633.7000000476837,"<div class = numbox><p style=""font-size: 2.4rem"">Please recall the letters you saw to the best of your ability. If you do not remember a particular letter, use the SKIP button.<br><b>(When you are ready to lock in your answer, press ENTER)</b></p><button id = button_1 class = ""square num-button"" onclick = ""recordClick(this)""><div class = content><div class = numbers>C</div></div></button><button id = button_2 class = ""square num-button"" onclick = ""recordClick(this)""><div class = content><div class = numbers>G</div></div></button><button id = button_3 class = ""square num-button"" onclick = ""recordClick(this)""><div class = content><div class = numbers>H</div></div></button><button id = button_4 class = ""square num-button"" onclick = ""recordClick(this)""><div class = content><div class = numbers>J</div></div></button><button id = button_5 class = ""square num-button"" onclick = ""recordClick(this)""><div class = content><div class = numbers>K</div></div></button><button id = button_6 class = ""square num-button"" onclick = ""recordClick(this)""><div class = content><div class = numbers>L</div></div></button><button id = button_7 class = ""square num-button"" onclick = ""recordClick(this)""><div class = content><div class = numbers>N</div></div></button><button id = button_8 class = ""square num-button"" onclick = ""recordClick(this)""><div class = content><div class = numbers>P</div></div></button><button id = button_9 class = ""square num-button"" onclick = ""recordClick(this)""><div class = content><div class = numbers>Q</div></div></button><button id = button_10 class = ""square num-button"" onclick = ""recordClick(this)""><div class = content><div class = numbers>R</div></div></button><button id = button_11 class = ""square num-button"" onclick = ""recordClick(this)""><div class = content><div class = numbers>S</div></div></button><button id = button_12 class = ""square num-button"" onclick = ""recordClick(this)""><div class = content><div class = numbers>Y</div></div></button><button class = clear_button id = ""ClearButton"" onclick = ""clearResponse()"">BACKSPACE</button><button class = blank_button id = ""BlankButton"" onclick = ""blankResponse()"">SKIP</button><p style=""font-size: 2.4rem""><u><b>Current Answer:</b></u></p><br><br><div id=echoed_txt style=""font-size: 5rem; color:blue;""><b></b></div></div>",enter,ospan,retrieval,NKGTce1BayU3In8BkEciZkYezVf2,html-keyboard-response,86,632006,0.0-43.0-2.0-1.0-2.0-0.0,NA,NA,NA,3.0,"[""R"",""L"",""P""]","[""R"",""L"",""P""]",1.0,3.0,"['<font color=""green"">R</font>', '<font color=""green"">L</font>', '<font color=""green"">P</font>']",,,,,,6599e58d1011e10041695c0a,13:42:49,06/03/2024
1546.0999999046326,"['<p style=""font-size:44px"">Letters:<br><br><br><font color=""green"">R</font> <font color=""green"">L</font> <font color=""green"">P</font></p><br><br><p style=""font-size:30px"">Symmetry:<br><br><font color=""green"">100%</font></p><br><br>']",0,ospan,practice_feedback,NKGTce1BayU3In8BkEciZkYezVf2,html-button-response,87,634056,0.0-43.0-2.0-1.0-2.0-1.0,,,,,,,,,,,,,,,6599e58d1011e10041695c0a,13:42:49,06/03/2024
,"<p style=""font-size:75px;"">...</p>",,ospan,iti,NKGTce1BayU3In8BkEciZkYezVf2,html-keyboard-response,88,635059,0.0-43.0-2.0-2.0-0.0,,,,,,,,,,,,,,,6599e58d1011e10041695c0a,13:42:49,06/03/2024
1905.0,,,ospan,symmetry,NKGTce1BayU3In8BkEciZkYezVf2,symmetry-judgement-task,89,638076,0.0-43.0-2.0-2.0-1.0-0.0,,,,,,,,,,1.0,1.0,,,,6599e58d1011e10041695c0a,13:42:49,06/03/2024
,"<div style=""font-size: 10rem; color: #0000FF"">H</div>",,ospan,letter,NKGTce1BayU3In8BkEciZkYezVf2,html-keyboard-response,90,639081,0.0-43.0-2.0-2.0-1.0-1.0,,,,,,,,,,,,,,,6599e58d1011e10041695c0a,13:42:49,06/03/2024
1475.0,,,ospan,symmetry,NKGTce1BayU3In8BkEciZkYezVf2,symmetry-judgement-task,91,642412,0.0-43.0-2.0-2.0-1.0-2.0,,,,,,,,,,1.0,1.0,,,,6599e58d1011e10041695c0a,13:42:49,06/03/2024
,"<div style=""font-size: 10rem; color: #0000FF"">G</div>",,ospan,letter,NKGTce1BayU3In8BkEciZkYezVf2,html-keyboard-response,92,643416,0.0-43.0-2.0-2.0-1.0-3.0,,,,,,,,,,,,,,,6599e58d1011e10041695c0a,13:42:49,06/03/2024
1384.0,,,ospan,symmetry,NKGTce1BayU3In8BkEciZkYezVf2,symmetry-judgement-task,93,646662,0.0-43.0-2.0-2.0-1.0-4.0,,,,,,,,,,1.0,1.0,,,,6599e58d1011e10041695c0a,13:42:49,06/03/2024
,"<div style=""font-size: 10rem; color: #0000FF"">S</div>",,ospan,letter,NKGTce1BayU3In8BkEciZkYezVf2,html-keyboard-response,94,647665,0.0-43.0-2.0-2.0-1.0-5.0,,,,,,,,,,,,,,,6599e58d1011e10041695c0a,13:42:49,06/03/2024
4963.400000095367,"<div class = numbox><p style=""font-size: 2.4rem"">Please recall the letters you saw to the best of your ability. If you do not remember a particular letter, use the SKIP button.<br><b>(When you are ready to lock in your answer, press ENTER)</b></p><button id = button_1 class = ""square num-button"" onclick = ""recordClick(this)""><div class = content><div class = numbers>C</div></div></button><button id = button_2 class = ""square num-button"" onclick = ""recordClick(this)""><div class = content><div class = numbers>G</div></div></button><button id = button_3 class = ""square num-button"" onclick = ""recordClick(this)""><div class = content><div class = numbers>H</div></div></button><button id = button_4 class = ""square num-button"" onclick = ""recordClick(this)""><div class = content><div class = numbers>J</div></div></button><button id = button_5 class = ""square num-button"" onclick = ""recordClick(this)""><div class = content><div class = numbers>K</div></div></button><button id = button_6 class = ""square num-button"" onclick = ""recordClick(this)""><div class = content><div class = numbers>L</div></div></button><button id = button_7 class = ""square num-button"" onclick = ""recordClick(this)""><div class = content><div class = numbers>N</div></div></button><button id = button_8 class = ""square num-button"" onclick = ""recordClick(this)""><div class = content><div class = numbers>P</div></div></button><button id = button_9 class = ""square num-button"" onclick = ""recordClick(this)""><div class = content><div class = numbers>Q</div></div></button><button id = button_10 class = ""square num-button"" onclick = ""recordClick(this)""><div class = content><div class = numbers>R</div></div></button><button id = button_11 class = ""square num-button"" onclick = ""recordClick(this)""><div class = content><div class = numbers>S</div></div></button><button id = button_12 class = ""square num-button"" onclick = ""recordClick(this)""><div class = content><div class = numbers>Y</div></div></button><button class = clear_button id = ""ClearButton"" onclick = ""clearResponse()"">BACKSPACE</button><button class = blank_button id = ""BlankButton"" onclick = ""blankResponse()"">SKIP</button><p style=""font-size: 2.4rem""><u><b>Current Answer:</b></u></p><br><br><div id=echoed_txt style=""font-size: 5rem; color:blue;""><b></b></div></div>",enter,ospan,retrieval,NKGTce1BayU3In8BkEciZkYezVf2,html-keyboard-response,95,653384,0.0-43.0-2.0-2.0-2.0-0.0,NA,NA,NA,3.0,"[""H"",""G"",""S""]","[""H"",""G"",""S""]",1.0,3.0,"['<font color=""green"">H</font>', '<font color=""green"">G</font>', '<font color=""green"">S</font>']",,,,,,6599e58d1011e10041695c0a,13:42:49,06/03/2024
871.6999998092651,"['<p style=""font-size:44px"">Letters:<br><br><br><font color=""green"">H</font> <font color=""green"">G</font> <font color=""green"">S</font></p><br><br><p style=""font-size:30px"">Symmetry:<br><br><font color=""green"">100%</font></p><br><br>']",0,ospan,practice_feedback,NKGTce1BayU3In8BkEciZkYezVf2,html-button-response,96,654759,0.0-43.0-2.0-2.0-2.0-1.0,,,,,,,,,,,,,,,6599e58d1011e10041695c0a,13:42:49,06/03/2024
23460.799999952316,"<div class = 'left_align' style='font-size: 3rem; line-height: 1.3;'><b>Great work! That is the end of practice.</b><br><br>The real trials will look just like the practice trials you just completed.<br><br><u>Here, you will not see feedback</u>. First, you will see an grid picture to judge,<br>then a letter to remember. When the recall screen appears, report the letters in the<br>order presented. If you forget a letter, remember to use the <b>blank</b> button to move to the<br>next letter. Some of the sets will have more symmetry grids and letters than others.<br><br>It is important that you do your best on both the symmetry judgments and the letter recall<br>parts of the experiment. For for the symmetry judgments, try to work as <b>quickly</b> and <br>as <b>accurately</b> as possible. Remember to keep your symmetry accuracy at 85% or above.<br><br><b>For the letters, do NOT use any external aid (e.g., writing on paper, electronic device).</b><br><br>It is <u>very important</u> to our experiment to have a <b>true</b> view of your real performance.<br><br>Do not worry if you miss some when it gets hard! This task is meant to be very challenging!<br><br>Click the button to begin.</div><br><br><br><br>",0,ospan,starting_real_here,NKGTce1BayU3In8BkEciZkYezVf2,html-button-response,97,678221,0.0-43.0-2.0-3.0,,,,,,,,,,,,,,,6599e58d1011e10041695c0a,13:42:49,06/03/2024
,"<p style=""font-size:75px;"">...</p>",,ospan,iti,NKGTce1BayU3In8BkEciZkYezVf2,html-keyboard-response,98,679477,0.0-43.0-3.0-0.0-0.0,,,,,,,,,,,,,,,6599e58d1011e10041695c0a,13:42:49,06/03/2024
1688.0,,,ospan,symmetry,NKGTce1BayU3In8BkEciZkYezVf2,symmetry-judgement-task,99,682273,0.0-43.0-3.0-0.0-1.0-0.0,,,,,,,,,,1.0,1.0,,,,6599e58d1011e10041695c0a,13:42:49,06/03/2024
,"<div style=""font-size: 10rem; color: #0000FF"">Y</div>",,ospan,letter,NKGTce1BayU3In8BkEciZkYezVf2,html-keyboard-response,100,683277,0.0-43.0-3.0-0.0-1.0-1.0,,,,,,,,,,,,,,,6599e58d1011e10041695c0a,13:42:49,06/03/2024
1420.0,,,ospan,symmetry,NKGTce1BayU3In8BkEciZkYezVf2,symmetry-judgement-task,101,686556,0.0-43.0-3.0-0.0-1.0-2.0,,,,,,,,,,1.0,1.0,,,,6599e58d1011e10041695c0a,13:42:49,06/03/2024
,"<div style=""font-size: 10rem; color: #0000FF"">J</div>",,ospan,letter,NKGTce1BayU3In8BkEciZkYezVf2,html-keyboard-response,102,687561,0.0-43.0-3.0-0.0-1.0-3.0,,,,,,,,,,,,,,,6599e58d1011e10041695c0a,13:42:49,06/03/2024
1477.0,,,ospan,symmetry,NKGTce1BayU3In8BkEciZkYezVf2,symmetry-judgement-task,103,690906,0.0-43.0-3.0-0.0-1.0-4.0,,,,,,,,,,1.0,1.0,,,,6599e58d1011e10041695c0a,13:42:49,06/03/2024
,"<div style=""font-size: 10rem; color: #0000FF"">N</div>",,ospan,letter,NKGTce1BayU3In8BkEciZkYezVf2,html-keyboard-response,104,691910,0.0-43.0-3.0-0.0-1.0-5.0,,,,,,,,,,,,,,,6599e58d1011e10041695c0a,13:42:49,06/03/2024
4410.299999952316,"<div class = numbox><p style=""font-size: 2.4rem"">Please recall the letters you saw to the best of your ability. If you do not remember a particular letter, use the SKIP button.<br><b>(When you are ready to lock in your answer, press ENTER)</b></p><button id = button_1 class = ""square num-button"" onclick = ""recordClick(this)""><div class = content><div class = numbers>C</div></div></button><button id = button_2 class = ""square num-button"" onclick = ""recordClick(this)""><div class = content><div class = numbers>G</div></div></button><button id = button_3 class = ""square num-button"" onclick = ""recordClick(this)""><div class = content><div class = numbers>H</div></div></button><button id = button_4 class = ""square num-button"" onclick = ""recordClick(this)""><div class = content><div class = numbers>J</div></div></button><button id = button_5 class = ""square num-button"" onclick = ""recordClick(this)""><div class = content><div class = numbers>K</div></div></button><button id = button_6 class = ""square num-button"" onclick = ""recordClick(this)""><div class = content><div class = numbers>L</div></div></button><button id = button_7 class = ""square num-button"" onclick = ""recordClick(this)""><div class = content><div class = numbers>N</div></div></button><button id = button_8 class = ""square num-button"" onclick = ""recordClick(this)""><div class = content><div class = numbers>P</div></div></button><button id = button_9 class = ""square num-button"" onclick = ""recordClick(this)""><div class = content><div class = numbers>Q</div></div></button><button id = button_10 class = ""square num-button"" onclick = ""recordClick(this)""><div class = content><div class = numbers>R</div></div></button><button id = button_11 class = ""square num-button"" onclick = ""recordClick(this)""><div class = content><div class = numbers>S</div></div></button><button id = button_12 class = ""square num-button"" onclick = ""recordClick(this)""><div class = content><div class = numbers>Y</div></div></button><button class = clear_button id = ""ClearButton"" onclick = ""clearResponse()"">BACKSPACE</button><button class = blank_button id = ""BlankButton"" onclick = ""blankResponse()"">SKIP</button><p style=""font-size: 2.4rem""><u><b>Current Answer:</b></u></p><br><br><div id=echoed_txt style=""font-size: 5rem; color:blue;""><b></b></div></div>",enter,ospan,retrieval,NKGTce1BayU3In8BkEciZkYezVf2,html-keyboard-response,105,697074,0.0-43.0-3.0-0.0-2.0,3,3,3,3.0,"[""Y"",""J"",""N""]","[""Y"",""J"",""N""]",1.0,3.0,,,,,,,6599e58d1011e10041695c0a,13:42:49,06/03/2024
1479.7000000476837,[''],0,ospan,feedback,NKGTce1BayU3In8BkEciZkYezVf2,html-button-response,106,699057,0.0-43.0-3.0-0.0-3.0,,,,,,,,,,,,100.0,0.0,,6599e58d1011e10041695c0a,13:42:49,06/03/2024
,"<p style=""font-size:75px;"">...</p>",,ospan,iti,NKGTce1BayU3In8BkEciZkYezVf2,html-keyboard-response,107,700060,0.0-43.0-4.0-0.0-0.0,,,,,,,,,,,,,,,6599e58d1011e10041695c0a,13:42:49,06/03/2024
1445.0,,,ospan,symmetry,NKGTce1BayU3In8BkEciZkYezVf2,symmetry-judgement-task,108,702621,0.0-43.0-4.0-0.0-1.0-0.0,,,,,,,,,,1.0,1.0,,,,6599e58d1011e10041695c0a,13:42:49,06/03/2024
,"<div style=""font-size: 10rem; color: #0000FF"">N</div>",,ospan,letter,NKGTce1BayU3In8BkEciZkYezVf2,html-keyboard-response,109,703629,0.0-43.0-4.0-0.0-1.0-1.0,,,,,,,,,,,,,,,6599e58d1011e10041695c0a,13:42:49,06/03/2024
2060.0,,,ospan,symmetry,NKGTce1BayU3In8BkEciZkYezVf2,symmetry-judgement-task,110,707535,0.0-43.0-4.0-0.0-1.0-2.0,,,,,,,,,,1.0,1.0,,,,6599e58d1011e10041695c0a,13:42:49,06/03/2024
,"<div style=""font-size: 10rem; color: #0000FF"">G</div>",,ospan,letter,NKGTce1BayU3In8BkEciZkYezVf2,html-keyboard-response,111,708538,0.0-43.0-4.0-0.0-1.0-3.0,,,,,,,,,,,,,,,6599e58d1011e10041695c0a,13:42:49,06/03/2024
1241.0,,,ospan,symmetry,NKGTce1BayU3In8BkEciZkYezVf2,symmetry-judgement-task,112,711645,0.0-43.0-4.0-0.0-1.0-4.0,,,,,,,,,,1.0,1.0,,,,6599e58d1011e10041695c0a,13:42:49,06/03/2024
,"<div style=""font-size: 10rem; color: #0000FF"">S</div>",,ospan,letter,NKGTce1BayU3In8BkEciZkYezVf2,html-keyboard-response,113,712648,0.0-43.0-4.0-0.0-1.0-5.0,,,,,,,,,,,,,,,6599e58d1011e10041695c0a,13:42:49,06/03/2024
1332.0,,,ospan,symmetry,NKGTce1BayU3In8BkEciZkYezVf2,symmetry-judgement-task,114,715839,0.0-43.0-4.0-0.0-1.0-6.0,,,,,,,,,,1.0,1.0,,,,6599e58d1011e10041695c0a,13:42:49,06/03/2024
,"<div style=""font-size: 10rem; color: #0000FF"">Q</div>",,ospan,letter,NKGTce1BayU3In8BkEciZkYezVf2,html-keyboard-response,115,716844,0.0-43.0-4.0-0.0-1.0-7.0,,,,,,,,,,,,,,,6599e58d1011e10041695c0a,13:42:49,06/03/2024
4242.400000095367,"<div class = numbox><p style=""font-size: 2.4rem"">Please recall the letters you saw to the best of your ability. If you do not remember a particular letter, use the SKIP button.<br><b>(When you are ready to lock in your answer, press ENTER)</b></p><button id = button_1 class = ""square num-button"" onclick = ""recordClick(this)""><div class = content><div class = numbers>C</div></div></button><button id = button_2 class = ""square num-button"" onclick = ""recordClick(this)""><div class = content><div class = numbers>G</div></div></button><button id = button_3 class = ""square num-button"" onclick = ""recordClick(this)""><div class = content><div class = numbers>H</div></div></button><button id = button_4 class = ""square num-button"" onclick = ""recordClick(this)""><div class = content><div class = numbers>J</div></div></button><button id = button_5 class = ""square num-button"" onclick = ""recordClick(this)""><div class = content><div class = numbers>K</div></div></button><button id = button_6 class = ""square num-button"" onclick = ""recordClick(this)""><div class = content><div class = numbers>L</div></div></button><button id = button_7 class = ""square num-button"" onclick = ""recordClick(this)""><div class = content><div class = numbers>N</div></div></button><button id = button_8 class = ""square num-button"" onclick = ""recordClick(this)""><div class = content><div class = numbers>P</div></div></button><button id = button_9 class = ""square num-button"" onclick = ""recordClick(this)""><div class = content><div class = numbers>Q</div></div></button><button id = button_10 class = ""square num-button"" onclick = ""recordClick(this)""><div class = content><div class = numbers>R</div></div></button><button id = button_11 class = ""square num-button"" onclick = ""recordClick(this)""><div class = content><div class = numbers>S</div></div></button><button id = button_12 class = ""square num-button"" onclick = ""recordClick(this)""><div class = content><div class = numbers>Y</div></div></button><button class = clear_button id = ""ClearButton"" onclick = ""clearResponse()"">BACKSPACE</button><button class = blank_button id = ""BlankButton"" onclick = ""blankResponse()"">SKIP</button><p style=""font-size: 2.4rem""><u><b>Current Answer:</b></u></p><br><br><div id=echoed_txt style=""font-size: 5rem; color:blue;""><b></b></div></div>",enter,ospan,retrieval,NKGTce1BayU3In8BkEciZkYezVf2,html-keyboard-response,116,721841,0.0-43.0-4.0-0.0-2.0,7,7,7,4.0,"[""N"",""G"",""S"",""Q""]","[""N"",""G"",""S"",""Q""]",1.0,4.0,,,,,,,6599e58d1011e10041695c0a,13:42:49,06/03/2024
891.0999999046326,[''],0,ospan,feedback,NKGTce1BayU3In8BkEciZkYezVf2,html-button-response,117,723235,0.0-43.0-4.0-0.0-3.0,,,,,,,,,,,,100.0,0.0,,6599e58d1011e10041695c0a,13:42:49,06/03/2024
,"<p style=""font-size:75px;"">...</p>",,ospan,iti,NKGTce1BayU3In8BkEciZkYezVf2,html-keyboard-response,118,724239,0.0-43.0-4.0-1.0-0.0,,,,,,,,,,,,,,,6599e58d1011e10041695c0a,13:42:49,06/03/2024
1253.0,,,ospan,symmetry,NKGTce1BayU3In8BkEciZkYezVf2,symmetry-judgement-task,119,726593,0.0-43.0-4.0-1.0-1.0-0.0,,,,,,,,,,1.0,1.0,,,,6599e58d1011e10041695c0a,13:42:49,06/03/2024
,"<div style=""font-size: 10rem; color: #0000FF"">C</div>",,ospan,letter,NKGTce1BayU3In8BkEciZkYezVf2,html-keyboard-response,120,727597,0.0-43.0-4.0-1.0-1.0-1.0,,,,,,,,,,,,,,,6599e58d1011e10041695c0a,13:42:49,06/03/2024
1414.0,,,ospan,symmetry,NKGTce1BayU3In8BkEciZkYezVf2,symmetry-judgement-task,121,730877,0.0-43.0-4.0-1.0-1.0-2.0,,,,,,,,,,1.0,1.0,,,,6599e58d1011e10041695c0a,13:42:49,06/03/2024
,"<div style=""font-size: 10rem; color: #0000FF"">R</div>",,ospan,letter,NKGTce1BayU3In8BkEciZkYezVf2,html-keyboard-response,122,731881,0.0-43.0-4.0-1.0-1.0-3.0,,,,,,,,,,,,,,,6599e58d1011e10041695c0a,13:42:49,06/03/2024
1278.0,,,ospan,symmetry,NKGTce1BayU3In8BkEciZkYezVf2,symmetry-judgement-task,123,735026,0.0-43.0-4.0-1.0-1.0-4.0,,,,,,,,,,1.0,1.0,,,,6599e58d1011e10041695c0a,13:42:49,06/03/2024
,"<div style=""font-size: 10rem; color: #0000FF"">S</div>",,ospan,letter,NKGTce1BayU3In8BkEciZkYezVf2,html-keyboard-response,124,736030,0.0-43.0-4.0-1.0-1.0-5.0,,,,,,,,,,,,,,,6599e58d1011e10041695c0a,13:42:49,06/03/2024
1021.0,,,ospan,symmetry,NKGTce1BayU3In8BkEciZkYezVf2,symmetry-judgement-task,125,738911,0.0-43.0-4.0-1.0-1.0-6.0,,,,,,,,,,1.0,1.0,,,,6599e58d1011e10041695c0a,13:42:49,06/03/2024
,"<div style=""font-size: 10rem; color: #0000FF"">G</div>",,ospan,letter,NKGTce1BayU3In8BkEciZkYezVf2,html-keyboard-response,126,739916,0.0-43.0-4.0-1.0-1.0-7.0,,,,,,,,,,,,,,,6599e58d1011e10041695c0a,13:42:49,06/03/2024
1274.0,,,ospan,symmetry,NKGTce1BayU3In8BkEciZkYezVf2,symmetry-judgement-task,127,743055,0.0-43.0-4.0-1.0-1.0-8.0,,,,,,,,,,1.0,1.0,,,,6599e58d1011e10041695c0a,13:42:49,06/03/2024
,"<div style=""font-size: 10rem; color: #0000FF"">H</div>",,ospan,letter,NKGTce1BayU3In8BkEciZkYezVf2,html-keyboard-response,128,744057,0.0-43.0-4.0-1.0-1.0-9.0,,,,,,,,,,,,,,,6599e58d1011e10041695c0a,13:42:49,06/03/2024
7981.200000047684,"<div class = numbox><p style=""font-size: 2.4rem"">Please recall the letters you saw to the best of your ability. If you do not remember a particular letter, use the SKIP button.<br><b>(When you are ready to lock in your answer, press ENTER)</b></p><button id = button_1 class = ""square num-button"" onclick = ""recordClick(this)""><div class = content><div class = numbers>C</div></div></button><button id = button_2 class = ""square num-button"" onclick = ""recordClick(this)""><div class = content><div class = numbers>G</div></div></button><button id = button_3 class = ""square num-button"" onclick = ""recordClick(this)""><div class = content><div class = numbers>H</div></div></button><button id = button_4 class = ""square num-button"" onclick = ""recordClick(this)""><div class = content><div class = numbers>J</div></div></button><button id = button_5 class = ""square num-button"" onclick = ""recordClick(this)""><div class = content><div class = numbers>K</div></div></button><button id = button_6 class = ""square num-button"" onclick = ""recordClick(this)""><div class = content><div class = numbers>L</div></div></button><button id = button_7 class = ""square num-button"" onclick = ""recordClick(this)""><div class = content><div class = numbers>N</div></div></button><button id = button_8 class = ""square num-button"" onclick = ""recordClick(this)""><div class = content><div class = numbers>P</div></div></button><button id = button_9 class = ""square num-button"" onclick = ""recordClick(this)""><div class = content><div class = numbers>Q</div></div></button><button id = button_10 class = ""square num-button"" onclick = ""recordClick(this)""><div class = content><div class = numbers>R</div></div></button><button id = button_11 class = ""square num-button"" onclick = ""recordClick(this)""><div class = content><div class = numbers>S</div></div></button><button id = button_12 class = ""square num-button"" onclick = ""recordClick(this)""><div class = content><div class = numbers>Y</div></div></button><button class = clear_button id = ""ClearButton"" onclick = ""clearResponse()"">BACKSPACE</button><button class = blank_button id = ""BlankButton"" onclick = ""blankResponse()"">SKIP</button><p style=""font-size: 2.4rem""><u><b>Current Answer:</b></u></p><br><br><div id=echoed_txt style=""font-size: 5rem; color:blue;""><b></b></div></div>",enter,ospan,retrieval,NKGTce1BayU3In8BkEciZkYezVf2,html-keyboard-response,129,752793,0.0-43.0-4.0-1.0-2.0,12,12,12,5.0,"[""C"",""R"",""S"",""G"",""H""]","[""C"",""R"",""S"",""G"",""H""]",1.0,5.0,,,,,,,6599e58d1011e10041695c0a,13:42:49,06/03/2024
2076.0,[''],0,ospan,feedback,NKGTce1BayU3In8BkEciZkYezVf2,html-button-response,130,755372,0.0-43.0-4.0-1.0-3.0,,,,,,,,,,,,100.0,0.0,,6599e58d1011e10041695c0a,13:42:49,06/03/2024
,"<p style=""font-size:75px;"">...</p>",,ospan,iti,NKGTce1BayU3In8BkEciZkYezVf2,html-keyboard-response,131,756376,0.0-43.0-4.0-2.0-0.0,,,,,,,,,,,,,,,6599e58d1011e10041695c0a,13:42:49,06/03/2024
1824.0,,,ospan,symmetry,NKGTce1BayU3In8BkEciZkYezVf2,symmetry-judgement-task,132,759238,0.0-43.0-4.0-2.0-1.0-0.0,,,,,,,,,,1.0,1.0,,,,6599e58d1011e10041695c0a,13:42:49,06/03/2024
,"<div style=""font-size: 10rem; color: #0000FF"">G</div>",,ospan,letter,NKGTce1BayU3In8BkEciZkYezVf2,html-keyboard-response,133,760242,0.0-43.0-4.0-2.0-1.0-1.0,,,,,,,,,,,,,,,6599e58d1011e10041695c0a,13:42:49,06/03/2024
1479.0,,,ospan,symmetry,NKGTce1BayU3In8BkEciZkYezVf2,symmetry-judgement-task,134,763575,0.0-43.0-4.0-2.0-1.0-2.0,,,,,,,,,,1.0,1.0,,,,6599e58d1011e10041695c0a,13:42:49,06/03/2024
,"<div style=""font-size: 10rem; color: #0000FF"">Q</div>",,ospan,letter,NKGTce1BayU3In8BkEciZkYezVf2,html-keyboard-response,135,764579,0.0-43.0-4.0-2.0-1.0-3.0,,,,,,,,,,,,,,,6599e58d1011e10041695c0a,13:42:49,06/03/2024
1824.0,,,ospan,symmetry,NKGTce1BayU3In8BkEciZkYezVf2,symmetry-judgement-task,136,768271,0.0-43.0-4.0-2.0-1.0-4.0,,,,,,,,,,1.0,1.0,,,,6599e58d1011e10041695c0a,13:42:49,06/03/2024
,"<div style=""font-size: 10rem; color: #0000FF"">N</div>",,ospan,letter,NKGTce1BayU3In8BkEciZkYezVf2,html-keyboard-response,137,769275,0.0-43.0-4.0-2.0-1.0-5.0,,,,,,,,,,,,,,,6599e58d1011e10041695c0a,13:42:49,06/03/2024
3328.5999999046326,"<div class = numbox><p style=""font-size: 2.4rem"">Please recall the letters you saw to the best of your ability. If you do not remember a particular letter, use the SKIP button.<br><b>(When you are ready to lock in your answer, press ENTER)</b></p><button id = button_1 class = ""square num-button"" onclick = ""recordClick(this)""><div class = content><div class = numbers>C</div></div></button><button id = button_2 class = ""square num-button"" onclick = ""recordClick(this)""><div class = content><div class = numbers>G</div></div></button><button id = button_3 class = ""square num-button"" onclick = ""recordClick(this)""><div class = content><div class = numbers>H</div></div></button><button id = button_4 class = ""square num-button"" onclick = ""recordClick(this)""><div class = content><div class = numbers>J</div></div></button><button id = button_5 class = ""square num-button"" onclick = ""recordClick(this)""><div class = content><div class = numbers>K</div></div></button><button id = button_6 class = ""square num-button"" onclick = ""recordClick(this)""><div class = content><div class = numbers>L</div></div></button><button id = button_7 class = ""square num-button"" onclick = ""recordClick(this)""><div class = content><div class = numbers>N</div></div></button><button id = button_8 class = ""square num-button"" onclick = ""recordClick(this)""><div class = content><div class = numbers>P</div></div></button><button id = button_9 class = ""square num-button"" onclick = ""recordClick(this)""><div class = content><div class = numbers>Q</div></div></button><button id = button_10 class = ""square num-button"" onclick = ""recordClick(this)""><div class = content><div class = numbers>R</div></div></button><button id = button_11 class = ""square num-button"" onclick = ""recordClick(this)""><div class = content><div class = numbers>S</div></div></button><button id = button_12 class = ""square num-button"" onclick = ""recordClick(this)""><div class = content><div class = numbers>Y</div></div></button><button class = clear_button id = ""ClearButton"" onclick = ""clearResponse()"">BACKSPACE</button><button class = blank_button id = ""BlankButton"" onclick = ""blankResponse()"">SKIP</button><p style=""font-size: 2.4rem""><u><b>Current Answer:</b></u></p><br><br><div id=echoed_txt style=""font-size: 5rem; color:blue;""><b></b></div></div>",enter,ospan,retrieval,NKGTce1BayU3In8BkEciZkYezVf2,html-keyboard-response,138,773359,0.0-43.0-4.0-2.0-2.0,15,15,15,3.0,"[""G"",""Q"",""N""]","[""G"",""Q"",""N""]",1.0,3.0,,,,,,,6599e58d1011e10041695c0a,13:42:49,06/03/2024
1393.2000000476837,[''],0,ospan,feedback,NKGTce1BayU3In8BkEciZkYezVf2,html-button-response,139,775256,0.0-43.0-4.0-2.0-3.0,,,,,,,,,,,,100.0,0.0,,6599e58d1011e10041695c0a,13:42:49,06/03/2024
,"<p style=""font-size:75px;"">...</p>",,ospan,iti,NKGTce1BayU3In8BkEciZkYezVf2,html-keyboard-response,140,776260,0.0-43.0-5.0-0.0-0.0,,,,,,,,,,,,,,,6599e58d1011e10041695c0a,13:42:49,06/03/2024
2532.0,,,ospan,symmetry,NKGTce1BayU3In8BkEciZkYezVf2,symmetry-judgement-task,141,779903,0.0-43.0-5.0-0.0-1.0-0.0,,,,,,,,,,1.0,1.0,,,,6599e58d1011e10041695c0a,13:42:49,06/03/2024
,"<div style=""font-size: 10rem; color: #0000FF"">H</div>",,ospan,letter,NKGTce1BayU3In8BkEciZkYezVf2,html-keyboard-response,142,780909,0.0-43.0-5.0-0.0-1.0-1.0,,,,,,,,,,,,,,,6599e58d1011e10041695c0a,13:42:49,06/03/2024
1188.0,,,ospan,symmetry,NKGTce1BayU3In8BkEciZkYezVf2,symmetry-judgement-task,143,783952,0.0-43.0-5.0-0.0-1.0-2.0,,,,,,,,,,1.0,1.0,,,,6599e58d1011e10041695c0a,13:42:49,06/03/2024
,"<div style=""font-size: 10rem; color: #0000FF"">S</div>",,ospan,letter,NKGTce1BayU3In8BkEciZkYezVf2,html-keyboard-response,144,784955,0.0-43.0-5.0-0.0-1.0-3.0,,,,,,,,,,,,,,,6599e58d1011e10041695c0a,13:42:49,06/03/2024
1332.0,,,ospan,symmetry,NKGTce1BayU3In8BkEciZkYezVf2,symmetry-judgement-task,145,788141,0.0-43.0-5.0-0.0-1.0-4.0,,,,,,,,,,1.0,1.0,,,,6599e58d1011e10041695c0a,13:42:49,06/03/2024
,"<div style=""font-size: 10rem; color: #0000FF"">L</div>",,ospan,letter,NKGTce1BayU3In8BkEciZkYezVf2,html-keyboard-response,146,789145,0.0-43.0-5.0-0.0-1.0-5.0,,,,,,,,,,,,,,,6599e58d1011e10041695c0a,13:42:49,06/03/2024
1196.0,,,ospan,symmetry,NKGTce1BayU3In8BkEciZkYezVf2,symmetry-judgement-task,147,792207,0.0-43.0-5.0-0.0-1.0-6.0,,,,,,,,,,1.0,1.0,,,,6599e58d1011e10041695c0a,13:42:49,06/03/2024
,"<div style=""font-size: 10rem; color: #0000FF"">Y</div>",,ospan,letter,NKGTce1BayU3In8BkEciZkYezVf2,html-keyboard-response,148,793214,0.0-43.0-5.0-0.0-1.0-7.0,,,,,,,,,,,,,,,6599e58d1011e10041695c0a,13:42:49,06/03/2024
1075.0,,,ospan,symmetry,NKGTce1BayU3In8BkEciZkYezVf2,symmetry-judgement-task,149,796140,0.0-43.0-5.0-0.0-1.0-8.0,,,,,,,,,,1.0,1.0,,,,6599e58d1011e10041695c0a,13:42:49,06/03/2024
,"<div style=""font-size: 10rem; color: #0000FF"">C</div>",,ospan,letter,NKGTce1BayU3In8BkEciZkYezVf2,html-keyboard-response,150,797143,0.0-43.0-5.0-0.0-1.0-9.0,,,,,,,,,,,,,,,6599e58d1011e10041695c0a,13:42:49,06/03/2024
1286.0,,,ospan,symmetry,NKGTce1BayU3In8BkEciZkYezVf2,symmetry-judgement-task,151,800291,0.0-43.0-5.0-0.0-1.0-10.0,,,,,,,,,,1.0,1.0,,,,6599e58d1011e10041695c0a,13:42:49,06/03/2024
,"<div style=""font-size: 10rem; color: #0000FF"">P</div>",,ospan,letter,NKGTce1BayU3In8BkEciZkYezVf2,html-keyboard-response,152,801294,0.0-43.0-5.0-0.0-1.0-11.0,,,,,,,,,,,,,,,6599e58d1011e10041695c0a,13:42:49,06/03/2024
10314.599999904633,"<div class = numbox><p style=""font-size: 2.4rem"">Please recall the letters you saw to the best of your ability. If you do not remember a particular letter, use the SKIP button.<br><b>(When you are ready to lock in your answer, press ENTER)</b></p><button id = button_1 class = ""square num-button"" onclick = ""recordClick(this)""><div class = content><div class = numbers>C</div></div></button><button id = button_2 class = ""square num-button"" onclick = ""recordClick(this)""><div class = content><div class = numbers>G</div></div></button><button id = button_3 class = ""square num-button"" onclick = ""recordClick(this)""><div class = content><div class = numbers>H</div></div></button><button id = button_4 class = ""square num-button"" onclick = ""recordClick(this)""><div class = content><div class = numbers>J</div></div></button><button id = button_5 class = ""square num-button"" onclick = ""recordClick(this)""><div class = content><div class = numbers>K</div></div></button><button id = button_6 class = ""square num-button"" onclick = ""recordClick(this)""><div class = content><div class = numbers>L</div></div></button><button id = button_7 class = ""square num-button"" onclick = ""recordClick(this)""><div class = content><div class = numbers>N</div></div></button><button id = button_8 class = ""square num-button"" onclick = ""recordClick(this)""><div class = content><div class = numbers>P</div></div></button><button id = button_9 class = ""square num-button"" onclick = ""recordClick(this)""><div class = content><div class = numbers>Q</div></div></button><button id = button_10 class = ""square num-button"" onclick = ""recordClick(this)""><div class = content><div class = numbers>R</div></div></button><button id = button_11 class = ""square num-button"" onclick = ""recordClick(this)""><div class = content><div class = numbers>S</div></div></button><button id = button_12 class = ""square num-button"" onclick = ""recordClick(this)""><div class = content><div class = numbers>Y</div></div></button><button class = clear_button id = ""ClearButton"" onclick = ""clearResponse()"">BACKSPACE</button><button class = blank_button id = ""BlankButton"" onclick = ""blankResponse()"">SKIP</button><p style=""font-size: 2.4rem""><u><b>Current Answer:</b></u></p><br><br><div id=echoed_txt style=""font-size: 5rem; color:blue;""><b></b></div></div>",enter,ospan,retrieval,NKGTce1BayU3In8BkEciZkYezVf2,html-keyboard-response,153,812364,0.0-43.0-5.0-0.0-2.0,21,19,15,6.0,"[""H"",""S"",""L"",""Y"",""P""]","[""H"",""S"",""L"",""Y"",""C"",""P""]",0.0,4.0,,,,,,,6599e58d1011e10041695c0a,13:42:49,06/03/2024
1174.1000001430511,[''],0,ospan,feedback,NKGTce1BayU3In8BkEciZkYezVf2,html-button-response,154,814041,0.0-43.0-5.0-0.0-3.0,,,,,,,,,,,,100.0,0.0,,6599e58d1011e10041695c0a,13:42:49,06/03/2024
,"<p style=""font-size:75px;"">...</p>",,ospan,iti,NKGTce1BayU3In8BkEciZkYezVf2,html-keyboard-response,155,815045,0.0-43.0-5.0-1.0-0.0,,,,,,,,,,,,,,,6599e58d1011e10041695c0a,13:42:49,06/03/2024
2071.0,,,ospan,symmetry,NKGTce1BayU3In8BkEciZkYezVf2,symmetry-judgement-task,156,818235,0.0-43.0-5.0-1.0-1.0-0.0,,,,,,,,,,1.0,1.0,,,,6599e58d1011e10041695c0a,13:42:49,06/03/2024
,"<div style=""font-size: 10rem; color: #0000FF"">H</div>",,ospan,letter,NKGTce1BayU3In8BkEciZkYezVf2,html-keyboard-response,157,819239,0.0-43.0-5.0-1.0-1.0-1.0,,,,,,,,,,,,,,,6599e58d1011e10041695c0a,13:42:49,06/03/2024
1561.0,,,ospan,symmetry,NKGTce1BayU3In8BkEciZkYezVf2,symmetry-judgement-task,158,822657,0.0-43.0-5.0-1.0-1.0-2.0,,,,,,,,,,1.0,1.0,,,,6599e58d1011e10041695c0a,13:42:49,06/03/2024
,"<div style=""font-size: 10rem; color: #0000FF"">R</div>",,ospan,letter,NKGTce1BayU3In8BkEciZkYezVf2,html-keyboard-response,159,823661,0.0-43.0-5.0-1.0-1.0-3.0,,,,,,,,,,,,,,,6599e58d1011e10041695c0a,13:42:49,06/03/2024
1016.0,,,ospan,symmetry,NKGTce1BayU3In8BkEciZkYezVf2,symmetry-judgement-task,160,826541,0.0-43.0-5.0-1.0-1.0-4.0,,,,,,,,,,1.0,1.0,,,,6599e58d1011e10041695c0a,13:42:49,06/03/2024
,"<div style=""font-size: 10rem; color: #0000FF"">P</div>",,ospan,letter,NKGTce1BayU3In8BkEciZkYezVf2,html-keyboard-response,161,827544,0.0-43.0-5.0-1.0-1.0-5.0,,,,,,,,,,,,,,,6599e58d1011e10041695c0a,13:42:49,06/03/2024
1188.0,,,ospan,symmetry,NKGTce1BayU3In8BkEciZkYezVf2,symmetry-judgement-task,162,830593,0.0-43.0-5.0-1.0-1.0-6.0,,,,,,,,,,1.0,1.0,,,,6599e58d1011e10041695c0a,13:42:49,06/03/2024
,"<div style=""font-size: 10rem; color: #0000FF"">K</div>",,ospan,letter,NKGTce1BayU3In8BkEciZkYezVf2,html-keyboard-response,163,831598,0.0-43.0-5.0-1.0-1.0-7.0,,,,,,,,,,,,,,,6599e58d1011e10041695c0a,13:42:49,06/03/2024
1284.0,,,ospan,symmetry,NKGTce1BayU3In8BkEciZkYezVf2,symmetry-judgement-task,164,834735,0.0-43.0-5.0-1.0-1.0-8.0,,,,,,,,,,1.0,1.0,,,,6599e58d1011e10041695c0a,13:42:49,06/03/2024
,"<div style=""font-size: 10rem; color: #0000FF"">G</div>",,ospan,letter,NKGTce1BayU3In8BkEciZkYezVf2,html-keyboard-response,165,835739,0.0-43.0-5.0-1.0-1.0-9.0,,,,,,,,,,,,,,,6599e58d1011e10041695c0a,13:42:49,06/03/2024
898.0,,,ospan,symmetry,NKGTce1BayU3In8BkEciZkYezVf2,symmetry-judgement-task,166,838506,0.0-43.0-5.0-1.0-1.0-10.0,,,,,,,,,,1.0,1.0,,,,6599e58d1011e10041695c0a,13:42:49,06/03/2024
,"<div style=""font-size: 10rem; color: #0000FF"">C</div>",,ospan,letter,NKGTce1BayU3In8BkEciZkYezVf2,html-keyboard-response,167,839509,0.0-43.0-5.0-1.0-1.0-11.0,,,,,,,,,,,,,,,6599e58d1011e10041695c0a,13:42:49,06/03/2024
1074.0,,,ospan,symmetry,NKGTce1BayU3In8BkEciZkYezVf2,symmetry-judgement-task,168,842450,0.0-43.0-5.0-1.0-1.0-12.0,,,,,,,,,,1.0,1.0,,,,6599e58d1011e10041695c0a,13:42:49,06/03/2024
,"<div style=""font-size: 10rem; color: #0000FF"">L</div>",,ospan,letter,NKGTce1BayU3In8BkEciZkYezVf2,html-keyboard-response,169,843455,0.0-43.0-5.0-1.0-1.0-13.0,,,,,,,,,,,,,,,6599e58d1011e10041695c0a,13:42:49,06/03/2024
10358.5,"<div class = numbox><p style=""font-size: 2.4rem"">Please recall the letters you saw to the best of your ability. If you do not remember a particular letter, use the SKIP button.<br><b>(When you are ready to lock in your answer, press ENTER)</b></p><button id = button_1 class = ""square num-button"" onclick = ""recordClick(this)""><div class = content><div class = numbers>C</div></div></button><button id = button_2 class = ""square num-button"" onclick = ""recordClick(this)""><div class = content><div class = numbers>G</div></div></button><button id = button_3 class = ""square num-button"" onclick = ""recordClick(this)""><div class = content><div class = numbers>H</div></div></button><button id = button_4 class = ""square num-button"" onclick = ""recordClick(this)""><div class = content><div class = numbers>J</div></div></button><button id = button_5 class = ""square num-button"" onclick = ""recordClick(this)""><div class = content><div class = numbers>K</div></div></button><button id = button_6 class = ""square num-button"" onclick = ""recordClick(this)""><div class = content><div class = numbers>L</div></div></button><button id = button_7 class = ""square num-button"" onclick = ""recordClick(this)""><div class = content><div class = numbers>N</div></div></button><button id = button_8 class = ""square num-button"" onclick = ""recordClick(this)""><div class = content><div class = numbers>P</div></div></button><button id = button_9 class = ""square num-button"" onclick = ""recordClick(this)""><div class = content><div class = numbers>Q</div></div></button><button id = button_10 class = ""square num-button"" onclick = ""recordClick(this)""><div class = content><div class = numbers>R</div></div></button><button id = button_11 class = ""square num-button"" onclick = ""recordClick(this)""><div class = content><div class = numbers>S</div></div></button><button id = button_12 class = ""square num-button"" onclick = ""recordClick(this)""><div class = content><div class = numbers>Y</div></div></button><button class = clear_button id = ""ClearButton"" onclick = ""clearResponse()"">BACKSPACE</button><button class = blank_button id = ""BlankButton"" onclick = ""blankResponse()"">SKIP</button><p style=""font-size: 2.4rem""><u><b>Current Answer:</b></u></p><br><br><div id=echoed_txt style=""font-size: 5rem; color:blue;""><b></b></div></div>",enter,ospan,retrieval,NKGTce1BayU3In8BkEciZkYezVf2,html-keyboard-response,170,854568,0.0-43.0-5.0-1.0-2.0,28,26,22,7.0,"[""H"",""R"",""P"",""K"",""G"",""C"",""L""]","[""H"",""R"",""P"",""K"",""G"",""C"",""L""]",1.0,7.0,,,,,,,6599e58d1011e10041695c0a,13:42:49,06/03/2024
853.6000001430511,[''],0,ospan,feedback,NKGTce1BayU3In8BkEciZkYezVf2,html-button-response,171,855926,0.0-43.0-5.0-1.0-3.0,,,,,,,,,,,,100.0,0.0,,6599e58d1011e10041695c0a,13:42:49,06/03/2024
,"<p style=""font-size:75px;"">...</p>",,ospan,iti,NKGTce1BayU3In8BkEciZkYezVf2,html-keyboard-response,172,856931,0.0-43.0-6.0-0.0-0.0,,,,,,,,,,,,,,,6599e58d1011e10041695c0a,13:42:49,06/03/2024
1116.0,,,ospan,symmetry,NKGTce1BayU3In8BkEciZkYezVf2,symmetry-judgement-task,173,859152,0.0-43.0-6.0-0.0-1.0-0.0,,,,,,,,,,1.0,1.0,,,,6599e58d1011e10041695c0a,13:42:49,06/03/2024
,"<div style=""font-size: 10rem; color: #0000FF"">R</div>",,ospan,letter,NKGTce1BayU3In8BkEciZkYezVf2,html-keyboard-response,174,860156,0.0-43.0-6.0-0.0-1.0-1.0,,,,,,,,,,,,,,,6599e58d1011e10041695c0a,13:42:49,06/03/2024
2138.0,,,ospan,symmetry,NKGTce1BayU3In8BkEciZkYezVf2,symmetry-judgement-task,175,864163,0.0-43.0-6.0-0.0-1.0-2.0,,,,,,,,,,1.0,1.0,,,,6599e58d1011e10041695c0a,13:42:49,06/03/2024
,"<div style=""font-size: 10rem; color: #0000FF"">S</div>",,ospan,letter,NKGTce1BayU3In8BkEciZkYezVf2,html-keyboard-response,176,865168,0.0-43.0-6.0-0.0-1.0-3.0,,,,,,,,,,,,,,,6599e58d1011e10041695c0a,13:42:49,06/03/2024
1437.0,,,ospan,symmetry,NKGTce1BayU3In8BkEciZkYezVf2,symmetry-judgement-task,177,868467,0.0-43.0-6.0-0.0-1.0-4.0,,,,,,,,,,1.0,1.0,,,,6599e58d1011e10041695c0a,13:42:49,06/03/2024
,"<div style=""font-size: 10rem; color: #0000FF"">Q</div>",,ospan,letter,NKGTce1BayU3In8BkEciZkYezVf2,html-keyboard-response,178,869471,0.0-43.0-6.0-0.0-1.0-5.0,,,,,,,,,,,,,,,6599e58d1011e10041695c0a,13:42:49,06/03/2024
1374.0,,,ospan,symmetry,NKGTce1BayU3In8BkEciZkYezVf2,symmetry-judgement-task,179,872709,0.0-43.0-6.0-0.0-1.0-6.0,,,,,,,,,,1.0,1.0,,,,6599e58d1011e10041695c0a,13:42:49,06/03/2024
,"<div style=""font-size: 10rem; color: #0000FF"">N</div>",,ospan,letter,NKGTce1BayU3In8BkEciZkYezVf2,html-keyboard-response,180,873712,0.0-43.0-6.0-0.0-1.0-7.0,,,,,,,,,,,,,,,6599e58d1011e10041695c0a,13:42:49,06/03/2024
1188.0,,,ospan,symmetry,NKGTce1BayU3In8BkEciZkYezVf2,symmetry-judgement-task,181,876756,0.0-43.0-6.0-0.0-1.0-8.0,,,,,,,,,,1.0,1.0,,,,6599e58d1011e10041695c0a,13:42:49,06/03/2024
,"<div style=""font-size: 10rem; color: #0000FF"">G</div>",,ospan,letter,NKGTce1BayU3In8BkEciZkYezVf2,html-keyboard-response,182,877759,0.0-43.0-6.0-0.0-1.0-9.0,,,,,,,,,,,,,,,6599e58d1011e10041695c0a,13:42:49,06/03/2024
7288.400000095367,"<div class = numbox><p style=""font-size: 2.4rem"">Please recall the letters you saw to the best of your ability. If you do not remember a particular letter, use the SKIP button.<br><b>(When you are ready to lock in your answer, press ENTER)</b></p><button id = button_1 class = ""square num-button"" onclick = ""recordClick(this)""><div class = content><div class = numbers>C</div></div></button><button id = button_2 class = ""square num-button"" onclick = ""recordClick(this)""><div class = content><div class = numbers>G</div></div></button><button id = button_3 class = ""square num-button"" onclick = ""recordClick(this)""><div class = content><div class = numbers>H</div></div></button><button id = button_4 class = ""square num-button"" onclick = ""recordClick(this)""><div class = content><div class = numbers>J</div></div></button><button id = button_5 class = ""square num-button"" onclick = ""recordClick(this)""><div class = content><div class = numbers>K</div></div></button><button id = button_6 class = ""square num-button"" onclick = ""recordClick(this)""><div class = content><div class = numbers>L</div></div></button><button id = button_7 class = ""square num-button"" onclick = ""recordClick(this)""><div class = content><div class = numbers>N</div></div></button><button id = button_8 class = ""square num-button"" onclick = ""recordClick(this)""><div class = content><div class = numbers>P</div></div></button><button id = button_9 class = ""square num-button"" onclick = ""recordClick(this)""><div class = content><div class = numbers>Q</div></div></button><button id = button_10 class = ""square num-button"" onclick = ""recordClick(this)""><div class = content><div class = numbers>R</div></div></button><button id = button_11 class = ""square num-button"" onclick = ""recordClick(this)""><div class = content><div class = numbers>S</div></div></button><button id = button_12 class = ""square num-button"" onclick = ""recordClick(this)""><div class = content><div class = numbers>Y</div></div></button><button class = clear_button id = ""ClearButton"" onclick = ""clearResponse()"">BACKSPACE</button><button class = blank_button id = ""BlankButton"" onclick = ""blankResponse()"">SKIP</button><p style=""font-size: 2.4rem""><u><b>Current Answer:</b></u></p><br><br><div id=echoed_txt style=""font-size: 5rem; color:blue;""><b></b></div></div>",enter,ospan,retrieval,NKGTce1BayU3In8BkEciZkYezVf2,html-keyboard-response,183,885801,0.0-43.0-6.0-0.0-2.0,33,31,27,5.0,"[""R"",""S"",""Q"",""N"",""G""]","[""R"",""S"",""Q"",""N"",""G""]",1.0,5.0,,,,,,,6599e58d1011e10041695c0a,13:42:49,06/03/2024
3675.100000143051,[''],0,ospan,feedback,NKGTce1BayU3In8BkEciZkYezVf2,html-button-response,184,889981,0.0-43.0-6.0-0.0-3.0,,,,,,,,,,,,100.0,0.0,,6599e58d1011e10041695c0a,13:42:49,06/03/2024
,"<p style=""font-size:75px;"">...</p>",,ospan,iti,NKGTce1BayU3In8BkEciZkYezVf2,html-keyboard-response,185,890984,0.0-43.0-6.0-1.0-0.0,,,,,,,,,,,,,,,6599e58d1011e10041695c0a,13:42:49,06/03/2024
1665.0,,,ospan,symmetry,NKGTce1BayU3In8BkEciZkYezVf2,symmetry-judgement-task,186,893688,0.0-43.0-6.0-1.0-1.0-0.0,,,,,,,,,,1.0,1.0,,,,6599e58d1011e10041695c0a,13:42:49,06/03/2024
,"<div style=""font-size: 10rem; color: #0000FF"">N</div>",,ospan,letter,NKGTce1BayU3In8BkEciZkYezVf2,html-keyboard-response,187,894692,0.0-43.0-6.0-1.0-1.0-1.0,,,,,,,,,,,,,,,6599e58d1011e10041695c0a,13:42:49,06/03/2024
1217.0,,,ospan,symmetry,NKGTce1BayU3In8BkEciZkYezVf2,symmetry-judgement-task,188,897766,0.0-43.0-6.0-1.0-1.0-2.0,,,,,,,,,,1.0,1.0,,,,6599e58d1011e10041695c0a,13:42:49,06/03/2024
,"<div style=""font-size: 10rem; color: #0000FF"">Q</div>",,ospan,letter,NKGTce1BayU3In8BkEciZkYezVf2,html-keyboard-response,189,898771,0.0-43.0-6.0-1.0-1.0-3.0,,,,,,,,,,,,,,,6599e58d1011e10041695c0a,13:42:49,06/03/2024
1171.0,,,ospan,symmetry,NKGTce1BayU3In8BkEciZkYezVf2,symmetry-judgement-task,190,901803,0.0-43.0-6.0-1.0-1.0-4.0,,,,,,,,,,1.0,1.0,,,,6599e58d1011e10041695c0a,13:42:49,06/03/2024
,"<div style=""font-size: 10rem; color: #0000FF"">S</div>",,ospan,letter,NKGTce1BayU3In8BkEciZkYezVf2,html-keyboard-response,191,902807,0.0-43.0-6.0-1.0-1.0-5.0,,,,,,,,,,,,,,,6599e58d1011e10041695c0a,13:42:49,06/03/2024
1369.0,,,ospan,symmetry,NKGTce1BayU3In8BkEciZkYezVf2,symmetry-judgement-task,192,906049,0.0-43.0-6.0-1.0-1.0-6.0,,,,,,,,,,1.0,1.0,,,,6599e58d1011e10041695c0a,13:42:49,06/03/2024
,"<div style=""font-size: 10rem; color: #0000FF"">G</div>",,ospan,letter,NKGTce1BayU3In8BkEciZkYezVf2,html-keyboard-response,193,907053,0.0-43.0-6.0-1.0-1.0-7.0,,,,,,,,,,,,,,,6599e58d1011e10041695c0a,13:42:49,06/03/2024
1319.0,,,ospan,symmetry,NKGTce1BayU3In8BkEciZkYezVf2,symmetry-judgement-task,194,910238,0.0-43.0-6.0-1.0-1.0-8.0,,,,,,,,,,1.0,1.0,,,,6599e58d1011e10041695c0a,13:42:49,06/03/2024
,"<div style=""font-size: 10rem; color: #0000FF"">K</div>",,ospan,letter,NKGTce1BayU3In8BkEciZkYezVf2,html-keyboard-response,195,911242,0.0-43.0-6.0-1.0-1.0-9.0,,,,,,,,,,,,,,,6599e58d1011e10041695c0a,13:42:49,06/03/2024
1202.0,,,ospan,symmetry,NKGTce1BayU3In8BkEciZkYezVf2,symmetry-judgement-task,196,914303,0.0-43.0-6.0-1.0-1.0-10.0,,,,,,,,,,1.0,1.0,,,,6599e58d1011e10041695c0a,13:42:49,06/03/2024
,"<div style=""font-size: 10rem; color: #0000FF"">C</div>",,ospan,letter,NKGTce1BayU3In8BkEciZkYezVf2,html-keyboard-response,197,915307,0.0-43.0-6.0-1.0-1.0-11.0,,,,,,,,,,,,,,,6599e58d1011e10041695c0a,13:42:49,06/03/2024
1266.0,,,ospan,symmetry,NKGTce1BayU3In8BkEciZkYezVf2,symmetry-judgement-task,198,918438,0.0-43.0-6.0-1.0-1.0-12.0,,,,,,,,,,1.0,1.0,,,,6599e58d1011e10041695c0a,13:42:49,06/03/2024
,"<div style=""font-size: 10rem; color: #0000FF"">J</div>",,ospan,letter,NKGTce1BayU3In8BkEciZkYezVf2,html-keyboard-response,199,919442,0.0-43.0-6.0-1.0-1.0-13.0,,,,,,,,,,,,,,,6599e58d1011e10041695c0a,13:42:49,06/03/2024
1180.0,,,ospan,symmetry,NKGTce1BayU3In8BkEciZkYezVf2,symmetry-judgement-task,200,922486,0.0-43.0-6.0-1.0-1.0-14.0,,,,,,,,,,1.0,1.0,,,,6599e58d1011e10041695c0a,13:42:49,06/03/2024
,"<div style=""font-size: 10rem; color: #0000FF"">P</div>",,ospan,letter,NKGTce1BayU3In8BkEciZkYezVf2,html-keyboard-response,201,923490,0.0-43.0-6.0-1.0-1.0-15.0,,,,,,,,,,,,,,,6599e58d1011e10041695c0a,13:42:49,06/03/2024
18799.39999985695,"<div class = numbox><p style=""font-size: 2.4rem"">Please recall the letters you saw to the best of your ability. If you do not remember a particular letter, use the SKIP button.<br><b>(When you are ready to lock in your answer, press ENTER)</b></p><button id = button_1 class = ""square num-button"" onclick = ""recordClick(this)""><div class = content><div class = numbers>C</div></div></button><button id = button_2 class = ""square num-button"" onclick = ""recordClick(this)""><div class = content><div class = numbers>G</div></div></button><button id = button_3 class = ""square num-button"" onclick = ""recordClick(this)""><div class = content><div class = numbers>H</div></div></button><button id = button_4 class = ""square num-button"" onclick = ""recordClick(this)""><div class = content><div class = numbers>J</div></div></button><button id = button_5 class = ""square num-button"" onclick = ""recordClick(this)""><div class = content><div class = numbers>K</div></div></button><button id = button_6 class = ""square num-button"" onclick = ""recordClick(this)""><div class = content><div class = numbers>L</div></div></button><button id = button_7 class = ""square num-button"" onclick = ""recordClick(this)""><div class = content><div class = numbers>N</div></div></button><button id = button_8 class = ""square num-button"" onclick = ""recordClick(this)""><div class = content><div class = numbers>P</div></div></button><button id = button_9 class = ""square num-button"" onclick = ""recordClick(this)""><div class = content><div class = numbers>Q</div></div></button><button id = button_10 class = ""square num-button"" onclick = ""recordClick(this)""><div class = content><div class = numbers>R</div></div></button><button id = button_11 class = ""square num-button"" onclick = ""recordClick(this)""><div class = content><div class = numbers>S</div></div></button><button id = button_12 class = ""square num-button"" onclick = ""recordClick(this)""><div class = content><div class = numbers>Y</div></div></button><button class = clear_button id = ""ClearButton"" onclick = ""clearResponse()"">BACKSPACE</button><button class = blank_button id = ""BlankButton"" onclick = ""blankResponse()"">SKIP</button><p style=""font-size: 2.4rem""><u><b>Current Answer:</b></u></p><br><br><div id=echoed_txt style=""font-size: 5rem; color:blue;""><b></b></div></div>",enter,ospan,retrieval,NKGTce1BayU3In8BkEciZkYezVf2,html-keyboard-response,202,943045,0.0-43.0-6.0-1.0-2.0,41,35,27,8.0,"[""N"",""Q"",""S"",""G"",""J"",""K"",""P""]","[""N"",""Q"",""S"",""G"",""K"",""C"",""J"",""P""]",0.0,4.0,,,,,,,6599e58d1011e10041695c0a,13:42:49,06/03/2024
662.4000000953674,[''],0,ospan,feedback,NKGTce1BayU3In8BkEciZkYezVf2,html-button-response,203,944213,0.0-43.0-6.0-1.0-3.0,,,,,,,,,,,,100.0,0.0,,6599e58d1011e10041695c0a,13:42:49,06/03/2024
38398.89999985695,,{'Q0': 'Did not enjoy the letter part'},ospan,survey_ospan,NKGTce1BayU3In8BkEciZkYezVf2,lmdlab-survey-text,204,983368,0.0-43.0-7.0,,,,,,,,,,,,,,NKGTce1BayU3In8BkEciZkYezVf2,6599e58d1011e10041695c0a,13:42:49,06/03/2024
1523.5,<p><p style='font-size: 3rem'>Great work!<br><br>This completes the symmetry and memory task.</p><br><br><br>,0,ospan,finish,NKGTce1BayU3In8BkEciZkYezVf2,html-button-response,205,984896,0.0-43.0-8.0,41,35,27,,,,,,,,,100.0,,,6599e58d1011e10041695c0a,13:42:49,06/03/2024
