rt,stimulus,response,exp_name,exp_stage,subjectID,trial_type,trial_index,time_elapsed,internal_node_id,ospan_shown,ospan_total,ospan_abs,length,resp_actual,resp_correct,full_correct,num_correct,feedback,accuracy,correct,math_acc,math_warning,databaseID,prolificID,start_time,date
2355.0,<div class = 'left_align' style='font-size: 3.25rem; line-height: 1.3;'><p class = 'center_align'><b>Welcome to the Symmetry and Memory Task</b><br><br><br><br></p>Press 'continue' to show the instructions.<br><br><br><br></div>,0,ospan,instruct,AUivxw2nMne2JE30kqzxoiA7qFj1,html-button-response,54,633213,0.0-46.0-0.0-0.0-0.0,,,,,,,,,,,,,,,65101adae9f0b22a17c5af61,15:07:33,03/04/2024
118026.39999997616,"<div class = 'left_align' style='font-size: 3.25rem; line-height: 1.3;'><p class = 'center_align'><b>Symmetry and Memory Task</b><br><br></p>In this task, you will try to memorize letters you see on the screen<br>while you also view black and white grid pictures.<br><br>In the next few minutes, you will have some practice to get you familiar<br>with how the task works.<br><br>It may be difficult sometimes, but please do not worry about making mistakes!<br><br>We will begin by practicing the letter part of the task.<br><br><br><br></div>",0,ospan,instruct,AUivxw2nMne2JE30kqzxoiA7qFj1,html-button-response,55,751507,0.0-46.0-0.0-0.0-1.0,,,,,,,,,,,,,,,65101adae9f0b22a17c5af61,15:07:33,03/04/2024
15546.700000047684,"<div class = 'left_align' style='font-size: 3.25rem; line-height: 1.3;'>For this practice part, letters will appear on the screen one at a time.<br><br>Try to remember each letter in the order presented.<br><br>After some letters have been shown, you will see a response screen. Your<br>goal is to report the letters you saw <b>in order</b>. If you do not remember<br>a particular letter, you will have the option to leave it blank.<br><br><br><br></div>",0,ospan,instruct,AUivxw2nMne2JE30kqzxoiA7qFj1,html-button-response,56,767312,0.0-46.0-0.0-0.0-2.0,,,,,,,,,,,,,,,65101adae9f0b22a17c5af61,15:07:33,03/04/2024
11760.300000011921,"<div class = 'left_align' style='font-size: 3.25rem; line-height: 1.3;'>Remember, it is very important to get the letters in the same<br>order as you see them.<br><br>When you are ready, you may begin the letter practice.</div><br><br><br><br>",0,ospan,instruct,AUivxw2nMne2JE30kqzxoiA7qFj1,html-button-response,57,779332,0.0-46.0-0.0-0.0-3.0,,,,,,,,,,,,,,,65101adae9f0b22a17c5af61,15:07:33,03/04/2024
,"<p style=""font-size:75px;"">...</p>",,ospan,iti,AUivxw2nMne2JE30kqzxoiA7qFj1,html-keyboard-response,58,780593,0.0-46.0-0.0-1.0-0.0,,,,,,,,,,,,,,,65101adae9f0b22a17c5af61,15:07:33,03/04/2024
,"<div style=""font-size: 10rem; color: #0000FF"">G</div>",,ospan,letter,AUivxw2nMne2JE30kqzxoiA7qFj1,html-keyboard-response,59,781603,0.0-46.0-0.0-1.0-1.0,,,,,,,,,,,,,,,65101adae9f0b22a17c5af61,15:07:33,03/04/2024
,"<div style=""font-size: 10rem; color: #0000FF"">N</div>",,ospan,letter,AUivxw2nMne2JE30kqzxoiA7qFj1,html-keyboard-response,60,783368,0.0-46.0-0.0-1.0-2.0,,,,,,,,,,,,,,,65101adae9f0b22a17c5af61,15:07:33,03/04/2024
6391.399999976158,"<div class = numbox><p style=""font-size: 2.4rem"">Please recall the letters you saw to the best of your ability. If you do not remember a particular letter, use the SKIP button.<br><b>(When you are ready to lock in your answer, press ENTER)</b></p><button id = button_1 class = ""square num-button"" onclick = ""recordClick(this)""><div class = content><div class = numbers>C</div></div></button><button id = button_2 class = ""square num-button"" onclick = ""recordClick(this)""><div class = content><div class = numbers>G</div></div></button><button id = button_3 class = ""square num-button"" onclick = ""recordClick(this)""><div class = content><div class = numbers>H</div></div></button><button id = button_4 class = ""square num-button"" onclick = ""recordClick(this)""><div class = content><div class = numbers>J</div></div></button><button id = button_5 class = ""square num-button"" onclick = ""recordClick(this)""><div class = content><div class = numbers>K</div></div></button><button id = button_6 class = ""square num-button"" onclick = ""recordClick(this)""><div class = content><div class = numbers>L</div></div></button><button id = button_7 class = ""square num-button"" onclick = ""recordClick(this)""><div class = content><div class = numbers>N</div></div></button><button id = button_8 class = ""square num-button"" onclick = ""recordClick(this)""><div class = content><div class = numbers>P</div></div></button><button id = button_9 class = ""square num-button"" onclick = ""recordClick(this)""><div class = content><div class = numbers>Q</div></div></button><button id = button_10 class = ""square num-button"" onclick = ""recordClick(this)""><div class = content><div class = numbers>R</div></div></button><button id = button_11 class = ""square num-button"" onclick = ""recordClick(this)""><div class = content><div class = numbers>S</div></div></button><button id = button_12 class = ""square num-button"" onclick = ""recordClick(this)""><div class = content><div class = numbers>Y</div></div></button><button class = clear_button id = ""ClearButton"" onclick = ""clearResponse()"">BACKSPACE</button><button class = blank_button id = ""BlankButton"" onclick = ""blankResponse()"">SKIP</button><p style=""font-size: 2.4rem""><u><b>Current Answer:</b></u></p><br><br><div id=echoed_txt style=""font-size: 5rem; color:blue;""><b></b></div></div>",enter,ospan,retrieval,AUivxw2nMne2JE30kqzxoiA7qFj1,html-keyboard-response,61,790523,0.0-46.0-0.0-1.0-3.0,NA,NA,NA,2.0,"[""G"",""N""]","[""G"",""N""]",1.0,2.0,"['<font color=""green"">G</font>', '<font color=""green"">N</font>']",,,,,,65101adae9f0b22a17c5af61,15:07:33,03/04/2024
1402.6000000238419,"['<p style=""font-size:44px"">Letters:<br><br><br><font color=""green"">G</font> <font color=""green"">N</font></p><br><br>']",0,ospan,practice_feedback,AUivxw2nMne2JE30kqzxoiA7qFj1,html-button-response,62,792437,0.0-46.0-0.0-1.0-4.0,,,,,,,,,,,,,,,65101adae9f0b22a17c5af61,15:07:33,03/04/2024
,"<p style=""font-size:75px;"">...</p>",,ospan,iti,AUivxw2nMne2JE30kqzxoiA7qFj1,html-keyboard-response,63,793442,0.0-46.0-0.0-2.0-0.0,,,,,,,,,,,,,,,65101adae9f0b22a17c5af61,15:07:33,03/04/2024
,"<div style=""font-size: 10rem; color: #0000FF"">S</div>",,ospan,letter,AUivxw2nMne2JE30kqzxoiA7qFj1,html-keyboard-response,64,794452,0.0-46.0-0.0-2.0-1.0,,,,,,,,,,,,,,,65101adae9f0b22a17c5af61,15:07:33,03/04/2024
,"<div style=""font-size: 10rem; color: #0000FF"">Y</div>",,ospan,letter,AUivxw2nMne2JE30kqzxoiA7qFj1,html-keyboard-response,65,796220,0.0-46.0-0.0-2.0-2.0,,,,,,,,,,,,,,,65101adae9f0b22a17c5af61,15:07:33,03/04/2024
,"<div style=""font-size: 10rem; color: #0000FF"">N</div>",,ospan,letter,AUivxw2nMne2JE30kqzxoiA7qFj1,html-keyboard-response,66,797987,0.0-46.0-0.0-2.0-3.0,,,,,,,,,,,,,,,65101adae9f0b22a17c5af61,15:07:33,03/04/2024
5099.200000047684,"<div class = numbox><p style=""font-size: 2.4rem"">Please recall the letters you saw to the best of your ability. If you do not remember a particular letter, use the SKIP button.<br><b>(When you are ready to lock in your answer, press ENTER)</b></p><button id = button_1 class = ""square num-button"" onclick = ""recordClick(this)""><div class = content><div class = numbers>C</div></div></button><button id = button_2 class = ""square num-button"" onclick = ""recordClick(this)""><div class = content><div class = numbers>G</div></div></button><button id = button_3 class = ""square num-button"" onclick = ""recordClick(this)""><div class = content><div class = numbers>H</div></div></button><button id = button_4 class = ""square num-button"" onclick = ""recordClick(this)""><div class = content><div class = numbers>J</div></div></button><button id = button_5 class = ""square num-button"" onclick = ""recordClick(this)""><div class = content><div class = numbers>K</div></div></button><button id = button_6 class = ""square num-button"" onclick = ""recordClick(this)""><div class = content><div class = numbers>L</div></div></button><button id = button_7 class = ""square num-button"" onclick = ""recordClick(this)""><div class = content><div class = numbers>N</div></div></button><button id = button_8 class = ""square num-button"" onclick = ""recordClick(this)""><div class = content><div class = numbers>P</div></div></button><button id = button_9 class = ""square num-button"" onclick = ""recordClick(this)""><div class = content><div class = numbers>Q</div></div></button><button id = button_10 class = ""square num-button"" onclick = ""recordClick(this)""><div class = content><div class = numbers>R</div></div></button><button id = button_11 class = ""square num-button"" onclick = ""recordClick(this)""><div class = content><div class = numbers>S</div></div></button><button id = button_12 class = ""square num-button"" onclick = ""recordClick(this)""><div class = content><div class = numbers>Y</div></div></button><button class = clear_button id = ""ClearButton"" onclick = ""clearResponse()"">BACKSPACE</button><button class = blank_button id = ""BlankButton"" onclick = ""blankResponse()"">SKIP</button><p style=""font-size: 2.4rem""><u><b>Current Answer:</b></u></p><br><br><div id=echoed_txt style=""font-size: 5rem; color:blue;""><b></b></div></div>",enter,ospan,retrieval,AUivxw2nMne2JE30kqzxoiA7qFj1,html-keyboard-response,67,803849,0.0-46.0-0.0-2.0-4.0,NA,NA,NA,3.0,"[""S"",""Y"",""N""]","[""S"",""Y"",""N""]",1.0,3.0,"['<font color=""green"">S</font>', '<font color=""green"">Y</font>', '<font color=""green"">N</font>']",,,,,,65101adae9f0b22a17c5af61,15:07:33,03/04/2024
1826.800000011921,"['<p style=""font-size:44px"">Letters:<br><br><br><font color=""green"">S</font> <font color=""green"">Y</font> <font color=""green"">N</font></p><br><br>']",0,ospan,practice_feedback,AUivxw2nMne2JE30kqzxoiA7qFj1,html-button-response,68,806184,0.0-46.0-0.0-2.0-5.0,,,,,,,,,,,,,,,65101adae9f0b22a17c5af61,15:07:33,03/04/2024
19906.5,"<div class = 'left_align' style='font-size: 3.25rem; line-height: 1.3;'>Now you will practice doing the <b>symmetry judgment part</b> of the experiment.<br><br>A black and white grid picture will appear on the screen and you have to judge if it is <br>symmetrical or asymetrical.<br><br>A picture is 'mirror' symmetrical if its left half is identical to the right half when flipped.<br>Here are examples of a symmetrical and an asymetrical picture:<br><br><center><img src='Stimuli/img/symm_instructions_extra.png' style='height:420px; width:900'></img></center><br>To judge symmetry, imagine you were to fold each picture down the middle, like a book –<br>would the left half match the right half when folded onto each other?<br><br></div><br>",0,ospan,instruct,AUivxw2nMne2JE30kqzxoiA7qFj1,html-button-response,69,826092,0.0-46.0-1.0-0.0-0.0,,,,,,,,,,,,,,,65101adae9f0b22a17c5af61,15:07:33,03/04/2024
5587.900000035763,"<div class = 'left_align' style='font-size: 3.25rem; line-height: 1.3;'>When you have viewed the picture and determined whether it is symmetrical or not,<br>you can <b>click the Yes or No button</b> below to answer.<br><br>If you take longer than 15 seconds, it will continue automatically<br>and record the answer as an error.</div><br>",0,ospan,instruct,AUivxw2nMne2JE30kqzxoiA7qFj1,html-button-response,70,831941,0.0-46.0-1.0-0.0-1.0,,,,,,,,,,,,,,,65101adae9f0b22a17c5af61,15:07:33,03/04/2024
1842.6000000238419,"<div class = 'left_align' style='font-size: 3.25rem; line-height: 1.3;'>It is <b>very</b> important that you make the symmetry judgment correctly.<br><br>It is also important that you try and judge the picture as quickly as you can.<br><br>When you are ready, click on the button below to try some practice problems.</div><br><br><br><br>",0,ospan,instruct,AUivxw2nMne2JE30kqzxoiA7qFj1,html-button-response,71,834051,0.0-46.0-1.0-0.0-2.0,,,,,,,,,,,,,,,65101adae9f0b22a17c5af61,15:07:33,03/04/2024
2175.0,,,ospan,symmetry,AUivxw2nMne2JE30kqzxoiA7qFj1,symmetry-judgement-task,72,837024,0.0-46.0-1.0-1.0-0.0,,,,,,,,,,1.0,1.0,,,,65101adae9f0b22a17c5af61,15:07:33,03/04/2024
,"<p style=""color:green; font-size: 35px"">Correct</p>",,ospan,feedback,AUivxw2nMne2JE30kqzxoiA7qFj1,html-keyboard-response,73,837786,0.0-46.0-1.0-1.0-1.0,,,,,,,,,,,,,,,65101adae9f0b22a17c5af61,15:07:33,03/04/2024
1436.0,,,ospan,symmetry,AUivxw2nMne2JE30kqzxoiA7qFj1,symmetry-judgement-task,74,841880,0.0-46.0-1.0-1.0-2.0,,,,,,,,,,1.0,1.0,,,,65101adae9f0b22a17c5af61,15:07:33,03/04/2024
,"<p style=""color:green; font-size: 35px"">Correct</p>",,ospan,feedback,AUivxw2nMne2JE30kqzxoiA7qFj1,html-keyboard-response,75,842642,0.0-46.0-1.0-1.0-3.0,,,,,,,,,,,,,,,65101adae9f0b22a17c5af61,15:07:33,03/04/2024
1804.0,,,ospan,symmetry,AUivxw2nMne2JE30kqzxoiA7qFj1,symmetry-judgement-task,76,847108,0.0-46.0-1.0-1.0-4.0,,,,,,,,,,1.0,1.0,,,,65101adae9f0b22a17c5af61,15:07:33,03/04/2024
,"<p style=""color:green; font-size: 35px"">Correct</p>",,ospan,feedback,AUivxw2nMne2JE30kqzxoiA7qFj1,html-keyboard-response,77,847870,0.0-46.0-1.0-1.0-5.0,,,,,,,,,,,,,,,65101adae9f0b22a17c5af61,15:07:33,03/04/2024
1891.5999999642372,"<p style=""font-size: 3rem;"">You responded correctly on 3 of 3 symmetry judgments. Good job!</p><br><br>",0,ospan,practice,AUivxw2nMne2JE30kqzxoiA7qFj1,html-button-response,78,851778,0.0-46.0-1.0-2.0,,,,,,,,,,,,,,,65101adae9f0b22a17c5af61,15:07:33,03/04/2024
6491.699999988079,"<div class = 'left_align' style='font-size: 3.25rem; line-height: 1.3;'>Now you will practice doing both parts of the experiment at the same time.<br><br>In the next practice set, you will be given one grid picture to judge.<br>Then letter will appear on the screen. Try to remember the letter.<br><br>It is <b>very important</b> to make the symmetry judgment as quickly and accurately as possible.<br><br>Just as before, once you have make the symmetry judgment, you can click Yes or No.<br><b>Note that you will no longer see Correct or Incorrect feedback.</div><br><br><br><br>",0,ospan,instruct,AUivxw2nMne2JE30kqzxoiA7qFj1,html-button-response,79,858536,0.0-46.0-2.0-0.0-0.0,,,,,,,,,,,,,,,65101adae9f0b22a17c5af61,15:07:33,03/04/2024
2483.100000023842,"<div class = 'left_align' style='font-size: 3.25rem; line-height: 1.3;'>After the letter goes away, another grid picture will appear, and then<br>another letter.<br><br>At the end of each set of letters and grids, you will recall the letters to the best<br>of your ability. Remember, try your best to get the letters in the correct order.<br><br>It is important to <b>quickly</b> and <b>accurately</b> make the symmetry judgments.</div><br><br><br><br>",0,ospan,instruct,AUivxw2nMne2JE30kqzxoiA7qFj1,html-button-response,80,861272,0.0-46.0-2.0-0.0-1.0,,,,,,,,,,,,,,,65101adae9f0b22a17c5af61,15:07:33,03/04/2024
3592.199999988079,"<div class = 'left_align' style='font-size: 3.25rem; line-height: 1.3;'>On the feedback screen, if you are not doing well at the symmetry judgments,<br>you will also see a warning in the middle. This indicates your percent <br>correct for the grid pictures for the entire experiment.<br><br>It is <b>very</b> important for you to keep accuracy at least at 85%: <u>We can only use<br>data where the participant was at least 85% accurate on the judgments.</u> Therefore,<br> please try your best to perform well on the symmetry judgments, <b>at the same time</b><br>doing your best to recall as many letters as possible.<br><br>Click the button to try some practice problems.</div><br><br><br><br>",0,ospan,instruct,AUivxw2nMne2JE30kqzxoiA7qFj1,html-button-response,81,865122,0.0-46.0-2.0-0.0-2.0,,,,,,,,,,,,,,,65101adae9f0b22a17c5af61,15:07:33,03/04/2024
,"<p style=""font-size:75px;"">...</p>",,ospan,iti,AUivxw2nMne2JE30kqzxoiA7qFj1,html-keyboard-response,82,866382,0.0-46.0-2.0-1.0-0.0,,,,,,,,,,,,,,,65101adae9f0b22a17c5af61,15:07:33,03/04/2024
1482.0,,,ospan,symmetry,AUivxw2nMne2JE30kqzxoiA7qFj1,symmetry-judgement-task,83,869010,0.0-46.0-2.0-1.0-1.0-0.0,,,,,,,,,,1.0,1.0,,,,65101adae9f0b22a17c5af61,15:07:33,03/04/2024
,"<div style=""font-size: 10rem; color: #0000FF"">Q</div>",,ospan,letter,AUivxw2nMne2JE30kqzxoiA7qFj1,html-keyboard-response,84,870023,0.0-46.0-2.0-1.0-1.0-1.0,,,,,,,,,,,,,,,65101adae9f0b22a17c5af61,15:07:33,03/04/2024
2140.0,,,ospan,symmetry,AUivxw2nMne2JE30kqzxoiA7qFj1,symmetry-judgement-task,85,874070,0.0-46.0-2.0-1.0-1.0-2.0,,,,,,,,,,1.0,1.0,,,,65101adae9f0b22a17c5af61,15:07:33,03/04/2024
,"<div style=""font-size: 10rem; color: #0000FF"">K</div>",,ospan,letter,AUivxw2nMne2JE30kqzxoiA7qFj1,html-keyboard-response,86,875079,0.0-46.0-2.0-1.0-1.0-3.0,,,,,,,,,,,,,,,65101adae9f0b22a17c5af61,15:07:33,03/04/2024
1733.0,,,ospan,symmetry,AUivxw2nMne2JE30kqzxoiA7qFj1,symmetry-judgement-task,87,878720,0.0-46.0-2.0-1.0-1.0-4.0,,,,,,,,,,1.0,1.0,,,,65101adae9f0b22a17c5af61,15:07:33,03/04/2024
,"<div style=""font-size: 10rem; color: #0000FF"">L</div>",,ospan,letter,AUivxw2nMne2JE30kqzxoiA7qFj1,html-keyboard-response,88,879723,0.0-46.0-2.0-1.0-1.0-5.0,,,,,,,,,,,,,,,65101adae9f0b22a17c5af61,15:07:33,03/04/2024
16720.100000023842,"<div class = numbox><p style=""font-size: 2.4rem"">Please recall the letters you saw to the best of your ability. If you do not remember a particular letter, use the SKIP button.<br><b>(When you are ready to lock in your answer, press ENTER)</b></p><button id = button_1 class = ""square num-button"" onclick = ""recordClick(this)""><div class = content><div class = numbers>C</div></div></button><button id = button_2 class = ""square num-button"" onclick = ""recordClick(this)""><div class = content><div class = numbers>G</div></div></button><button id = button_3 class = ""square num-button"" onclick = ""recordClick(this)""><div class = content><div class = numbers>H</div></div></button><button id = button_4 class = ""square num-button"" onclick = ""recordClick(this)""><div class = content><div class = numbers>J</div></div></button><button id = button_5 class = ""square num-button"" onclick = ""recordClick(this)""><div class = content><div class = numbers>K</div></div></button><button id = button_6 class = ""square num-button"" onclick = ""recordClick(this)""><div class = content><div class = numbers>L</div></div></button><button id = button_7 class = ""square num-button"" onclick = ""recordClick(this)""><div class = content><div class = numbers>N</div></div></button><button id = button_8 class = ""square num-button"" onclick = ""recordClick(this)""><div class = content><div class = numbers>P</div></div></button><button id = button_9 class = ""square num-button"" onclick = ""recordClick(this)""><div class = content><div class = numbers>Q</div></div></button><button id = button_10 class = ""square num-button"" onclick = ""recordClick(this)""><div class = content><div class = numbers>R</div></div></button><button id = button_11 class = ""square num-button"" onclick = ""recordClick(this)""><div class = content><div class = numbers>S</div></div></button><button id = button_12 class = ""square num-button"" onclick = ""recordClick(this)""><div class = content><div class = numbers>Y</div></div></button><button class = clear_button id = ""ClearButton"" onclick = ""clearResponse()"">BACKSPACE</button><button class = blank_button id = ""BlankButton"" onclick = ""blankResponse()"">SKIP</button><p style=""font-size: 2.4rem""><u><b>Current Answer:</b></u></p><br><br><div id=echoed_txt style=""font-size: 5rem; color:blue;""><b></b></div></div>",enter,ospan,retrieval,AUivxw2nMne2JE30kqzxoiA7qFj1,html-keyboard-response,89,897202,0.0-46.0-2.0-1.0-2.0-0.0,NA,NA,NA,3.0,"[""Q"",""K"",""L""]","[""Q"",""K"",""L""]",1.0,3.0,"['<font color=""green"">Q</font>', '<font color=""green"">K</font>', '<font color=""green"">L</font>']",,,,,,65101adae9f0b22a17c5af61,15:07:33,03/04/2024
8720.300000011921,"['<p style=""font-size:44px"">Letters:<br><br><br><font color=""green"">Q</font> <font color=""green"">K</font> <font color=""green"">L</font></p><br><br><p style=""font-size:30px"">Symmetry:<br><br><font color=""green"">100%</font></p><br><br>']",0,ospan,practice_feedback,AUivxw2nMne2JE30kqzxoiA7qFj1,html-button-response,90,906432,0.0-46.0-2.0-1.0-2.0-1.0,,,,,,,,,,,,,,,65101adae9f0b22a17c5af61,15:07:33,03/04/2024
,"<p style=""font-size:75px;"">...</p>",,ospan,iti,AUivxw2nMne2JE30kqzxoiA7qFj1,html-keyboard-response,91,907440,0.0-46.0-2.0-2.0-0.0,,,,,,,,,,,,,,,65101adae9f0b22a17c5af61,15:07:33,03/04/2024
1626.0,,,ospan,symmetry,AUivxw2nMne2JE30kqzxoiA7qFj1,symmetry-judgement-task,92,910095,0.0-46.0-2.0-2.0-1.0-0.0,,,,,,,,,,1.0,1.0,,,,65101adae9f0b22a17c5af61,15:07:33,03/04/2024
,"<div style=""font-size: 10rem; color: #0000FF"">G</div>",,ospan,letter,AUivxw2nMne2JE30kqzxoiA7qFj1,html-keyboard-response,93,911105,0.0-46.0-2.0-2.0-1.0-1.0,,,,,,,,,,,,,,,65101adae9f0b22a17c5af61,15:07:33,03/04/2024
1535.0,,,ospan,symmetry,AUivxw2nMne2JE30kqzxoiA7qFj1,symmetry-judgement-task,94,914545,0.0-46.0-2.0-2.0-1.0-2.0,,,,,,,,,,1.0,1.0,,,,65101adae9f0b22a17c5af61,15:07:33,03/04/2024
,"<div style=""font-size: 10rem; color: #0000FF"">H</div>",,ospan,letter,AUivxw2nMne2JE30kqzxoiA7qFj1,html-keyboard-response,95,915556,0.0-46.0-2.0-2.0-1.0-3.0,,,,,,,,,,,,,,,65101adae9f0b22a17c5af61,15:07:33,03/04/2024
2163.0,,,ospan,symmetry,AUivxw2nMne2JE30kqzxoiA7qFj1,symmetry-judgement-task,96,919627,0.0-46.0-2.0-2.0-1.0-4.0,,,,,,,,,,1.0,1.0,,,,65101adae9f0b22a17c5af61,15:07:33,03/04/2024
,"<div style=""font-size: 10rem; color: #0000FF"">N</div>",,ospan,letter,AUivxw2nMne2JE30kqzxoiA7qFj1,html-keyboard-response,97,920632,0.0-46.0-2.0-2.0-1.0-5.0,,,,,,,,,,,,,,,65101adae9f0b22a17c5af61,15:07:33,03/04/2024
4465.5,"<div class = numbox><p style=""font-size: 2.4rem"">Please recall the letters you saw to the best of your ability. If you do not remember a particular letter, use the SKIP button.<br><b>(When you are ready to lock in your answer, press ENTER)</b></p><button id = button_1 class = ""square num-button"" onclick = ""recordClick(this)""><div class = content><div class = numbers>C</div></div></button><button id = button_2 class = ""square num-button"" onclick = ""recordClick(this)""><div class = content><div class = numbers>G</div></div></button><button id = button_3 class = ""square num-button"" onclick = ""recordClick(this)""><div class = content><div class = numbers>H</div></div></button><button id = button_4 class = ""square num-button"" onclick = ""recordClick(this)""><div class = content><div class = numbers>J</div></div></button><button id = button_5 class = ""square num-button"" onclick = ""recordClick(this)""><div class = content><div class = numbers>K</div></div></button><button id = button_6 class = ""square num-button"" onclick = ""recordClick(this)""><div class = content><div class = numbers>L</div></div></button><button id = button_7 class = ""square num-button"" onclick = ""recordClick(this)""><div class = content><div class = numbers>N</div></div></button><button id = button_8 class = ""square num-button"" onclick = ""recordClick(this)""><div class = content><div class = numbers>P</div></div></button><button id = button_9 class = ""square num-button"" onclick = ""recordClick(this)""><div class = content><div class = numbers>Q</div></div></button><button id = button_10 class = ""square num-button"" onclick = ""recordClick(this)""><div class = content><div class = numbers>R</div></div></button><button id = button_11 class = ""square num-button"" onclick = ""recordClick(this)""><div class = content><div class = numbers>S</div></div></button><button id = button_12 class = ""square num-button"" onclick = ""recordClick(this)""><div class = content><div class = numbers>Y</div></div></button><button class = clear_button id = ""ClearButton"" onclick = ""clearResponse()"">BACKSPACE</button><button class = blank_button id = ""BlankButton"" onclick = ""blankResponse()"">SKIP</button><p style=""font-size: 2.4rem""><u><b>Current Answer:</b></u></p><br><br><div id=echoed_txt style=""font-size: 5rem; color:blue;""><b></b></div></div>",enter,ospan,retrieval,AUivxw2nMne2JE30kqzxoiA7qFj1,html-keyboard-response,98,925860,0.0-46.0-2.0-2.0-2.0-0.0,NA,NA,NA,3.0,"[""G"",""H"",""N""]","[""G"",""H"",""N""]",1.0,3.0,"['<font color=""green"">G</font>', '<font color=""green"">H</font>', '<font color=""green"">N</font>']",,,,,,65101adae9f0b22a17c5af61,15:07:33,03/04/2024
2101.199999988079,"['<p style=""font-size:44px"">Letters:<br><br><br><font color=""green"">G</font> <font color=""green"">H</font> <font color=""green"">N</font></p><br><br><p style=""font-size:30px"">Symmetry:<br><br><font color=""green"">100%</font></p><br><br>']",0,ospan,practice_feedback,AUivxw2nMne2JE30kqzxoiA7qFj1,html-button-response,99,928476,0.0-46.0-2.0-2.0-2.0-1.0,,,,,,,,,,,,,,,65101adae9f0b22a17c5af61,15:07:33,03/04/2024
29432.399999976158,"<div class = 'left_align' style='font-size: 3rem; line-height: 1.3;'><b>Great work! That is the end of practice.</b><br><br>The real trials will look just like the practice trials you just completed.<br><br><u>Here, you will not see feedback</u>. First, you will see an grid picture to judge,<br>then a letter to remember. When the recall screen appears, report the letters in the<br>order presented. If you forget a letter, remember to use the <b>blank</b> button to move to the<br>next letter. Some of the sets will have more symmetry grids and letters than others.<br><br>It is important that you do your best on both the symmetry judgments and the letter recall<br>parts of the experiment. For for the symmetry judgments, try to work as <b>quickly</b> and <br>as <b>accurately</b> as possible. Remember to keep your symmetry accuracy at 85% or above.<br><br><b>For the letters, do NOT use any external aid (e.g., writing on paper, electronic device).</b><br><br>It is <u>very important</u> to our experiment to have a <b>true</b> view of your real performance.<br><br>Do not worry if you miss some when it gets hard! This task is meant to be very challenging!<br><br>Click the button to begin.</div><br><br><br><br>",0,ospan,starting_real_here,AUivxw2nMne2JE30kqzxoiA7qFj1,html-button-response,100,957910,0.0-46.0-2.0-3.0,,,,,,,,,,,,,,,65101adae9f0b22a17c5af61,15:07:33,03/04/2024
,"<p style=""font-size:75px;"">...</p>",,ospan,iti,AUivxw2nMne2JE30kqzxoiA7qFj1,html-keyboard-response,101,959176,0.0-46.0-3.0-0.0-0.0,,,,,,,,,,,,,,,65101adae9f0b22a17c5af61,15:07:33,03/04/2024
1308.0,,,ospan,symmetry,AUivxw2nMne2JE30kqzxoiA7qFj1,symmetry-judgement-task,102,961636,0.0-46.0-3.0-0.0-1.0-0.0,,,,,,,,,,1.0,1.0,,,,65101adae9f0b22a17c5af61,15:07:33,03/04/2024
,"<div style=""font-size: 10rem; color: #0000FF"">J</div>",,ospan,letter,AUivxw2nMne2JE30kqzxoiA7qFj1,html-keyboard-response,103,962642,0.0-46.0-3.0-0.0-1.0-1.0,,,,,,,,,,,,,,,65101adae9f0b22a17c5af61,15:07:33,03/04/2024
1665.0,,,ospan,symmetry,AUivxw2nMne2JE30kqzxoiA7qFj1,symmetry-judgement-task,104,966218,0.0-46.0-3.0-0.0-1.0-2.0,,,,,,,,,,1.0,1.0,,,,65101adae9f0b22a17c5af61,15:07:33,03/04/2024
,"<div style=""font-size: 10rem; color: #0000FF"">L</div>",,ospan,letter,AUivxw2nMne2JE30kqzxoiA7qFj1,html-keyboard-response,105,967238,0.0-46.0-3.0-0.0-1.0-3.0,,,,,,,,,,,,,,,65101adae9f0b22a17c5af61,15:07:33,03/04/2024
2153.0,,,ospan,symmetry,AUivxw2nMne2JE30kqzxoiA7qFj1,symmetry-judgement-task,106,971304,0.0-46.0-3.0-0.0-1.0-4.0,,,,,,,,,,1.0,1.0,,,,65101adae9f0b22a17c5af61,15:07:33,03/04/2024
,"<div style=""font-size: 10rem; color: #0000FF"">K</div>",,ospan,letter,AUivxw2nMne2JE30kqzxoiA7qFj1,html-keyboard-response,107,972312,0.0-46.0-3.0-0.0-1.0-5.0,,,,,,,,,,,,,,,65101adae9f0b22a17c5af61,15:07:33,03/04/2024
4001.100000023842,"<div class = numbox><p style=""font-size: 2.4rem"">Please recall the letters you saw to the best of your ability. If you do not remember a particular letter, use the SKIP button.<br><b>(When you are ready to lock in your answer, press ENTER)</b></p><button id = button_1 class = ""square num-button"" onclick = ""recordClick(this)""><div class = content><div class = numbers>C</div></div></button><button id = button_2 class = ""square num-button"" onclick = ""recordClick(this)""><div class = content><div class = numbers>G</div></div></button><button id = button_3 class = ""square num-button"" onclick = ""recordClick(this)""><div class = content><div class = numbers>H</div></div></button><button id = button_4 class = ""square num-button"" onclick = ""recordClick(this)""><div class = content><div class = numbers>J</div></div></button><button id = button_5 class = ""square num-button"" onclick = ""recordClick(this)""><div class = content><div class = numbers>K</div></div></button><button id = button_6 class = ""square num-button"" onclick = ""recordClick(this)""><div class = content><div class = numbers>L</div></div></button><button id = button_7 class = ""square num-button"" onclick = ""recordClick(this)""><div class = content><div class = numbers>N</div></div></button><button id = button_8 class = ""square num-button"" onclick = ""recordClick(this)""><div class = content><div class = numbers>P</div></div></button><button id = button_9 class = ""square num-button"" onclick = ""recordClick(this)""><div class = content><div class = numbers>Q</div></div></button><button id = button_10 class = ""square num-button"" onclick = ""recordClick(this)""><div class = content><div class = numbers>R</div></div></button><button id = button_11 class = ""square num-button"" onclick = ""recordClick(this)""><div class = content><div class = numbers>S</div></div></button><button id = button_12 class = ""square num-button"" onclick = ""recordClick(this)""><div class = content><div class = numbers>Y</div></div></button><button class = clear_button id = ""ClearButton"" onclick = ""clearResponse()"">BACKSPACE</button><button class = blank_button id = ""BlankButton"" onclick = ""blankResponse()"">SKIP</button><p style=""font-size: 2.4rem""><u><b>Current Answer:</b></u></p><br><br><div id=echoed_txt style=""font-size: 5rem; color:blue;""><b></b></div></div>",enter,ospan,retrieval,AUivxw2nMne2JE30kqzxoiA7qFj1,html-keyboard-response,108,977066,0.0-46.0-3.0-0.0-2.0,3,3,3,3.0,"[""J"",""L"",""K""]","[""J"",""L"",""K""]",1.0,3.0,,,,,,,65101adae9f0b22a17c5af61,15:07:33,03/04/2024
2383.399999976158,[''],0,ospan,feedback,AUivxw2nMne2JE30kqzxoiA7qFj1,html-button-response,109,979964,0.0-46.0-3.0-0.0-3.0,,,,,,,,,,,,100.0,0.0,,65101adae9f0b22a17c5af61,15:07:33,03/04/2024
,"<p style=""font-size:75px;"">...</p>",,ospan,iti,AUivxw2nMne2JE30kqzxoiA7qFj1,html-keyboard-response,110,980978,0.0-46.0-4.0-0.0-0.0,,,,,,,,,,,,,,,65101adae9f0b22a17c5af61,15:07:33,03/04/2024
1593.0,,,ospan,symmetry,AUivxw2nMne2JE30kqzxoiA7qFj1,symmetry-judgement-task,111,983609,0.0-46.0-4.0-0.0-1.0-0.0,,,,,,,,,,1.0,1.0,,,,65101adae9f0b22a17c5af61,15:07:33,03/04/2024
,"<div style=""font-size: 10rem; color: #0000FF"">Q</div>",,ospan,letter,AUivxw2nMne2JE30kqzxoiA7qFj1,html-keyboard-response,112,984618,0.0-46.0-4.0-0.0-1.0-1.0,,,,,,,,,,,,,,,65101adae9f0b22a17c5af61,15:07:33,03/04/2024
3681.0,,,ospan,symmetry,AUivxw2nMne2JE30kqzxoiA7qFj1,symmetry-judgement-task,113,990216,0.0-46.0-4.0-0.0-1.0-2.0,,,,,,,,,,1.0,1.0,,,,65101adae9f0b22a17c5af61,15:07:33,03/04/2024
,"<div style=""font-size: 10rem; color: #0000FF"">S</div>",,ospan,letter,AUivxw2nMne2JE30kqzxoiA7qFj1,html-keyboard-response,114,991226,0.0-46.0-4.0-0.0-1.0-3.0,,,,,,,,,,,,,,,65101adae9f0b22a17c5af61,15:07:33,03/04/2024
1722.0,,,ospan,symmetry,AUivxw2nMne2JE30kqzxoiA7qFj1,symmetry-judgement-task,115,994849,0.0-46.0-4.0-0.0-1.0-4.0,,,,,,,,,,1.0,1.0,,,,65101adae9f0b22a17c5af61,15:07:33,03/04/2024
,"<div style=""font-size: 10rem; color: #0000FF"">J</div>",,ospan,letter,AUivxw2nMne2JE30kqzxoiA7qFj1,html-keyboard-response,116,995861,0.0-46.0-4.0-0.0-1.0-5.0,,,,,,,,,,,,,,,65101adae9f0b22a17c5af61,15:07:33,03/04/2024
2812.0,,,ospan,symmetry,AUivxw2nMne2JE30kqzxoiA7qFj1,symmetry-judgement-task,117,1000589,0.0-46.0-4.0-0.0-1.0-6.0,,,,,,,,,,1.0,1.0,,,,65101adae9f0b22a17c5af61,15:07:33,03/04/2024
,"<div style=""font-size: 10rem; color: #0000FF"">N</div>",,ospan,letter,AUivxw2nMne2JE30kqzxoiA7qFj1,html-keyboard-response,118,1001597,0.0-46.0-4.0-0.0-1.0-7.0,,,,,,,,,,,,,,,65101adae9f0b22a17c5af61,15:07:33,03/04/2024
5412.399999976158,"<div class = numbox><p style=""font-size: 2.4rem"">Please recall the letters you saw to the best of your ability. If you do not remember a particular letter, use the SKIP button.<br><b>(When you are ready to lock in your answer, press ENTER)</b></p><button id = button_1 class = ""square num-button"" onclick = ""recordClick(this)""><div class = content><div class = numbers>C</div></div></button><button id = button_2 class = ""square num-button"" onclick = ""recordClick(this)""><div class = content><div class = numbers>G</div></div></button><button id = button_3 class = ""square num-button"" onclick = ""recordClick(this)""><div class = content><div class = numbers>H</div></div></button><button id = button_4 class = ""square num-button"" onclick = ""recordClick(this)""><div class = content><div class = numbers>J</div></div></button><button id = button_5 class = ""square num-button"" onclick = ""recordClick(this)""><div class = content><div class = numbers>K</div></div></button><button id = button_6 class = ""square num-button"" onclick = ""recordClick(this)""><div class = content><div class = numbers>L</div></div></button><button id = button_7 class = ""square num-button"" onclick = ""recordClick(this)""><div class = content><div class = numbers>N</div></div></button><button id = button_8 class = ""square num-button"" onclick = ""recordClick(this)""><div class = content><div class = numbers>P</div></div></button><button id = button_9 class = ""square num-button"" onclick = ""recordClick(this)""><div class = content><div class = numbers>Q</div></div></button><button id = button_10 class = ""square num-button"" onclick = ""recordClick(this)""><div class = content><div class = numbers>R</div></div></button><button id = button_11 class = ""square num-button"" onclick = ""recordClick(this)""><div class = content><div class = numbers>S</div></div></button><button id = button_12 class = ""square num-button"" onclick = ""recordClick(this)""><div class = content><div class = numbers>Y</div></div></button><button class = clear_button id = ""ClearButton"" onclick = ""clearResponse()"">BACKSPACE</button><button class = blank_button id = ""BlankButton"" onclick = ""blankResponse()"">SKIP</button><p style=""font-size: 2.4rem""><u><b>Current Answer:</b></u></p><br><br><div id=echoed_txt style=""font-size: 5rem; color:blue;""><b></b></div></div>",enter,ospan,retrieval,AUivxw2nMne2JE30kqzxoiA7qFj1,html-keyboard-response,119,1007761,0.0-46.0-4.0-0.0-2.0,7,7,7,4.0,"[""Q"",""S"",""J"",""N""]","[""Q"",""S"",""J"",""N""]",1.0,4.0,,,,,,,65101adae9f0b22a17c5af61,15:07:33,03/04/2024
1010.0,[''],0,ospan,feedback,AUivxw2nMne2JE30kqzxoiA7qFj1,html-button-response,120,1009275,0.0-46.0-4.0-0.0-3.0,,,,,,,,,,,,100.0,0.0,,65101adae9f0b22a17c5af61,15:07:33,03/04/2024
,"<p style=""font-size:75px;"">...</p>",,ospan,iti,AUivxw2nMne2JE30kqzxoiA7qFj1,html-keyboard-response,121,1010277,0.0-46.0-4.0-1.0-0.0,,,,,,,,,,,,,,,65101adae9f0b22a17c5af61,15:07:33,03/04/2024
4188.0,,,ospan,symmetry,AUivxw2nMne2JE30kqzxoiA7qFj1,symmetry-judgement-task,122,1015610,0.0-46.0-4.0-1.0-1.0-0.0,,,,,,,,,,1.0,1.0,,,,65101adae9f0b22a17c5af61,15:07:33,03/04/2024
,"<div style=""font-size: 10rem; color: #0000FF"">J</div>",,ospan,letter,AUivxw2nMne2JE30kqzxoiA7qFj1,html-keyboard-response,123,1016612,0.0-46.0-4.0-1.0-1.0-1.0,,,,,,,,,,,,,,,65101adae9f0b22a17c5af61,15:07:33,03/04/2024
2993.0,,,ospan,symmetry,AUivxw2nMne2JE30kqzxoiA7qFj1,symmetry-judgement-task,124,1021563,0.0-46.0-4.0-1.0-1.0-2.0,,,,,,,,,,1.0,1.0,,,,65101adae9f0b22a17c5af61,15:07:33,03/04/2024
,"<div style=""font-size: 10rem; color: #0000FF"">Y</div>",,ospan,letter,AUivxw2nMne2JE30kqzxoiA7qFj1,html-keyboard-response,125,1022573,0.0-46.0-4.0-1.0-1.0-3.0,,,,,,,,,,,,,,,65101adae9f0b22a17c5af61,15:07:33,03/04/2024
1539.0,,,ospan,symmetry,AUivxw2nMne2JE30kqzxoiA7qFj1,symmetry-judgement-task,126,1026023,0.0-46.0-4.0-1.0-1.0-4.0,,,,,,,,,,1.0,1.0,,,,65101adae9f0b22a17c5af61,15:07:33,03/04/2024
,"<div style=""font-size: 10rem; color: #0000FF"">L</div>",,ospan,letter,AUivxw2nMne2JE30kqzxoiA7qFj1,html-keyboard-response,127,1027033,0.0-46.0-4.0-1.0-1.0-5.0,,,,,,,,,,,,,,,65101adae9f0b22a17c5af61,15:07:33,03/04/2024
1557.0,,,ospan,symmetry,AUivxw2nMne2JE30kqzxoiA7qFj1,symmetry-judgement-task,128,1030503,0.0-46.0-4.0-1.0-1.0-6.0,,,,,,,,,,1.0,1.0,,,,65101adae9f0b22a17c5af61,15:07:33,03/04/2024
,"<div style=""font-size: 10rem; color: #0000FF"">G</div>",,ospan,letter,AUivxw2nMne2JE30kqzxoiA7qFj1,html-keyboard-response,129,1031517,0.0-46.0-4.0-1.0-1.0-7.0,,,,,,,,,,,,,,,65101adae9f0b22a17c5af61,15:07:33,03/04/2024
2389.0,,,ospan,symmetry,AUivxw2nMne2JE30kqzxoiA7qFj1,symmetry-judgement-task,130,1035823,0.0-46.0-4.0-1.0-1.0-8.0,,,,,,,,,,1.0,1.0,,,,65101adae9f0b22a17c5af61,15:07:33,03/04/2024
,"<div style=""font-size: 10rem; color: #0000FF"">R</div>",,ospan,letter,AUivxw2nMne2JE30kqzxoiA7qFj1,html-keyboard-response,131,1036825,0.0-46.0-4.0-1.0-1.0-9.0,,,,,,,,,,,,,,,65101adae9f0b22a17c5af61,15:07:33,03/04/2024
6637.399999976158,"<div class = numbox><p style=""font-size: 2.4rem"">Please recall the letters you saw to the best of your ability. If you do not remember a particular letter, use the SKIP button.<br><b>(When you are ready to lock in your answer, press ENTER)</b></p><button id = button_1 class = ""square num-button"" onclick = ""recordClick(this)""><div class = content><div class = numbers>C</div></div></button><button id = button_2 class = ""square num-button"" onclick = ""recordClick(this)""><div class = content><div class = numbers>G</div></div></button><button id = button_3 class = ""square num-button"" onclick = ""recordClick(this)""><div class = content><div class = numbers>H</div></div></button><button id = button_4 class = ""square num-button"" onclick = ""recordClick(this)""><div class = content><div class = numbers>J</div></div></button><button id = button_5 class = ""square num-button"" onclick = ""recordClick(this)""><div class = content><div class = numbers>K</div></div></button><button id = button_6 class = ""square num-button"" onclick = ""recordClick(this)""><div class = content><div class = numbers>L</div></div></button><button id = button_7 class = ""square num-button"" onclick = ""recordClick(this)""><div class = content><div class = numbers>N</div></div></button><button id = button_8 class = ""square num-button"" onclick = ""recordClick(this)""><div class = content><div class = numbers>P</div></div></button><button id = button_9 class = ""square num-button"" onclick = ""recordClick(this)""><div class = content><div class = numbers>Q</div></div></button><button id = button_10 class = ""square num-button"" onclick = ""recordClick(this)""><div class = content><div class = numbers>R</div></div></button><button id = button_11 class = ""square num-button"" onclick = ""recordClick(this)""><div class = content><div class = numbers>S</div></div></button><button id = button_12 class = ""square num-button"" onclick = ""recordClick(this)""><div class = content><div class = numbers>Y</div></div></button><button class = clear_button id = ""ClearButton"" onclick = ""clearResponse()"">BACKSPACE</button><button class = blank_button id = ""BlankButton"" onclick = ""blankResponse()"">SKIP</button><p style=""font-size: 2.4rem""><u><b>Current Answer:</b></u></p><br><br><div id=echoed_txt style=""font-size: 5rem; color:blue;""><b></b></div></div>",enter,ospan,retrieval,AUivxw2nMne2JE30kqzxoiA7qFj1,html-keyboard-response,132,1044220,0.0-46.0-4.0-1.0-2.0,12,12,12,5.0,"[""J"",""Y"",""L"",""G"",""R""]","[""J"",""Y"",""L"",""G"",""R""]",1.0,5.0,,,,,,,65101adae9f0b22a17c5af61,15:07:33,03/04/2024
6674.5,[''],0,ospan,feedback,AUivxw2nMne2JE30kqzxoiA7qFj1,html-button-response,133,1051406,0.0-46.0-4.0-1.0-3.0,,,,,,,,,,,,100.0,0.0,,65101adae9f0b22a17c5af61,15:07:33,03/04/2024
,"<p style=""font-size:75px;"">...</p>",,ospan,iti,AUivxw2nMne2JE30kqzxoiA7qFj1,html-keyboard-response,134,1052415,0.0-46.0-4.0-2.0-0.0,,,,,,,,,,,,,,,65101adae9f0b22a17c5af61,15:07:33,03/04/2024
1746.0,,,ospan,symmetry,AUivxw2nMne2JE30kqzxoiA7qFj1,symmetry-judgement-task,135,1055331,0.0-46.0-4.0-2.0-1.0-0.0,,,,,,,,,,1.0,1.0,,,,65101adae9f0b22a17c5af61,15:07:33,03/04/2024
,"<div style=""font-size: 10rem; color: #0000FF"">P</div>",,ospan,letter,AUivxw2nMne2JE30kqzxoiA7qFj1,html-keyboard-response,136,1056342,0.0-46.0-4.0-2.0-1.0-1.0,,,,,,,,,,,,,,,65101adae9f0b22a17c5af61,15:07:33,03/04/2024
1123.0,,,ospan,symmetry,AUivxw2nMne2JE30kqzxoiA7qFj1,symmetry-judgement-task,137,1059390,0.0-46.0-4.0-2.0-1.0-2.0,,,,,,,,,,1.0,1.0,,,,65101adae9f0b22a17c5af61,15:07:33,03/04/2024
,"<div style=""font-size: 10rem; color: #0000FF"">S</div>",,ospan,letter,AUivxw2nMne2JE30kqzxoiA7qFj1,html-keyboard-response,138,1060398,0.0-46.0-4.0-2.0-1.0-3.0,,,,,,,,,,,,,,,65101adae9f0b22a17c5af61,15:07:33,03/04/2024
1413.0,,,ospan,symmetry,AUivxw2nMne2JE30kqzxoiA7qFj1,symmetry-judgement-task,139,1063721,0.0-46.0-4.0-2.0-1.0-4.0,,,,,,,,,,1.0,1.0,,,,65101adae9f0b22a17c5af61,15:07:33,03/04/2024
,"<div style=""font-size: 10rem; color: #0000FF"">Y</div>",,ospan,letter,AUivxw2nMne2JE30kqzxoiA7qFj1,html-keyboard-response,140,1064726,0.0-46.0-4.0-2.0-1.0-5.0,,,,,,,,,,,,,,,65101adae9f0b22a17c5af61,15:07:33,03/04/2024
5653.399999976158,"<div class = numbox><p style=""font-size: 2.4rem"">Please recall the letters you saw to the best of your ability. If you do not remember a particular letter, use the SKIP button.<br><b>(When you are ready to lock in your answer, press ENTER)</b></p><button id = button_1 class = ""square num-button"" onclick = ""recordClick(this)""><div class = content><div class = numbers>C</div></div></button><button id = button_2 class = ""square num-button"" onclick = ""recordClick(this)""><div class = content><div class = numbers>G</div></div></button><button id = button_3 class = ""square num-button"" onclick = ""recordClick(this)""><div class = content><div class = numbers>H</div></div></button><button id = button_4 class = ""square num-button"" onclick = ""recordClick(this)""><div class = content><div class = numbers>J</div></div></button><button id = button_5 class = ""square num-button"" onclick = ""recordClick(this)""><div class = content><div class = numbers>K</div></div></button><button id = button_6 class = ""square num-button"" onclick = ""recordClick(this)""><div class = content><div class = numbers>L</div></div></button><button id = button_7 class = ""square num-button"" onclick = ""recordClick(this)""><div class = content><div class = numbers>N</div></div></button><button id = button_8 class = ""square num-button"" onclick = ""recordClick(this)""><div class = content><div class = numbers>P</div></div></button><button id = button_9 class = ""square num-button"" onclick = ""recordClick(this)""><div class = content><div class = numbers>Q</div></div></button><button id = button_10 class = ""square num-button"" onclick = ""recordClick(this)""><div class = content><div class = numbers>R</div></div></button><button id = button_11 class = ""square num-button"" onclick = ""recordClick(this)""><div class = content><div class = numbers>S</div></div></button><button id = button_12 class = ""square num-button"" onclick = ""recordClick(this)""><div class = content><div class = numbers>Y</div></div></button><button class = clear_button id = ""ClearButton"" onclick = ""clearResponse()"">BACKSPACE</button><button class = blank_button id = ""BlankButton"" onclick = ""blankResponse()"">SKIP</button><p style=""font-size: 2.4rem""><u><b>Current Answer:</b></u></p><br><br><div id=echoed_txt style=""font-size: 5rem; color:blue;""><b></b></div></div>",enter,ospan,retrieval,AUivxw2nMne2JE30kqzxoiA7qFj1,html-keyboard-response,141,1071145,0.0-46.0-4.0-2.0-2.0,15,15,15,3.0,"[""P"",""S"",""Y""]","[""P"",""S"",""Y""]",1.0,3.0,,,,,,,65101adae9f0b22a17c5af61,15:07:33,03/04/2024
950.6999999880791,[''],0,ospan,feedback,AUivxw2nMne2JE30kqzxoiA7qFj1,html-button-response,142,1072605,0.0-46.0-4.0-2.0-3.0,,,,,,,,,,,,100.0,0.0,,65101adae9f0b22a17c5af61,15:07:33,03/04/2024
,"<p style=""font-size:75px;"">...</p>",,ospan,iti,AUivxw2nMne2JE30kqzxoiA7qFj1,html-keyboard-response,143,1073607,0.0-46.0-5.0-0.0-0.0,,,,,,,,,,,,,,,65101adae9f0b22a17c5af61,15:07:33,03/04/2024
1641.0,,,ospan,symmetry,AUivxw2nMne2JE30kqzxoiA7qFj1,symmetry-judgement-task,144,1076297,0.0-46.0-5.0-0.0-1.0-0.0,,,,,,,,,,1.0,1.0,,,,65101adae9f0b22a17c5af61,15:07:33,03/04/2024
,"<div style=""font-size: 10rem; color: #0000FF"">S</div>",,ospan,letter,AUivxw2nMne2JE30kqzxoiA7qFj1,html-keyboard-response,145,1077302,0.0-46.0-5.0-0.0-1.0-1.0,,,,,,,,,,,,,,,65101adae9f0b22a17c5af61,15:07:33,03/04/2024
1734.0,,,ospan,symmetry,AUivxw2nMne2JE30kqzxoiA7qFj1,symmetry-judgement-task,146,1080945,0.0-46.0-5.0-0.0-1.0-2.0,,,,,,,,,,1.0,1.0,,,,65101adae9f0b22a17c5af61,15:07:33,03/04/2024
,"<div style=""font-size: 10rem; color: #0000FF"">J</div>",,ospan,letter,AUivxw2nMne2JE30kqzxoiA7qFj1,html-keyboard-response,147,1081954,0.0-46.0-5.0-0.0-1.0-3.0,,,,,,,,,,,,,,,65101adae9f0b22a17c5af61,15:07:33,03/04/2024
1376.0,,,ospan,symmetry,AUivxw2nMne2JE30kqzxoiA7qFj1,symmetry-judgement-task,148,1085237,0.0-46.0-5.0-0.0-1.0-4.0,,,,,,,,,,1.0,1.0,,,,65101adae9f0b22a17c5af61,15:07:33,03/04/2024
,"<div style=""font-size: 10rem; color: #0000FF"">N</div>",,ospan,letter,AUivxw2nMne2JE30kqzxoiA7qFj1,html-keyboard-response,149,1086250,0.0-46.0-5.0-0.0-1.0-5.0,,,,,,,,,,,,,,,65101adae9f0b22a17c5af61,15:07:33,03/04/2024
1962.0,,,ospan,symmetry,AUivxw2nMne2JE30kqzxoiA7qFj1,symmetry-judgement-task,150,1090001,0.0-46.0-5.0-0.0-1.0-6.0,,,,,,,,,,1.0,1.0,,,,65101adae9f0b22a17c5af61,15:07:33,03/04/2024
,"<div style=""font-size: 10rem; color: #0000FF"">L</div>",,ospan,letter,AUivxw2nMne2JE30kqzxoiA7qFj1,html-keyboard-response,151,1091003,0.0-46.0-5.0-0.0-1.0-7.0,,,,,,,,,,,,,,,65101adae9f0b22a17c5af61,15:07:33,03/04/2024
1577.0,,,ospan,symmetry,AUivxw2nMne2JE30kqzxoiA7qFj1,symmetry-judgement-task,152,1094485,0.0-46.0-5.0-0.0-1.0-8.0,,,,,,,,,,1.0,1.0,,,,65101adae9f0b22a17c5af61,15:07:33,03/04/2024
,"<div style=""font-size: 10rem; color: #0000FF"">G</div>",,ospan,letter,AUivxw2nMne2JE30kqzxoiA7qFj1,html-keyboard-response,153,1095495,0.0-46.0-5.0-0.0-1.0-9.0,,,,,,,,,,,,,,,65101adae9f0b22a17c5af61,15:07:33,03/04/2024
2705.0,,,ospan,symmetry,AUivxw2nMne2JE30kqzxoiA7qFj1,symmetry-judgement-task,154,1100120,0.0-46.0-5.0-0.0-1.0-10.0,,,,,,,,,,1.0,1.0,,,,65101adae9f0b22a17c5af61,15:07:33,03/04/2024
,"<div style=""font-size: 10rem; color: #0000FF"">Q</div>",,ospan,letter,AUivxw2nMne2JE30kqzxoiA7qFj1,html-keyboard-response,155,1101133,0.0-46.0-5.0-0.0-1.0-11.0,,,,,,,,,,,,,,,65101adae9f0b22a17c5af61,15:07:33,03/04/2024
7907.900000035763,"<div class = numbox><p style=""font-size: 2.4rem"">Please recall the letters you saw to the best of your ability. If you do not remember a particular letter, use the SKIP button.<br><b>(When you are ready to lock in your answer, press ENTER)</b></p><button id = button_1 class = ""square num-button"" onclick = ""recordClick(this)""><div class = content><div class = numbers>C</div></div></button><button id = button_2 class = ""square num-button"" onclick = ""recordClick(this)""><div class = content><div class = numbers>G</div></div></button><button id = button_3 class = ""square num-button"" onclick = ""recordClick(this)""><div class = content><div class = numbers>H</div></div></button><button id = button_4 class = ""square num-button"" onclick = ""recordClick(this)""><div class = content><div class = numbers>J</div></div></button><button id = button_5 class = ""square num-button"" onclick = ""recordClick(this)""><div class = content><div class = numbers>K</div></div></button><button id = button_6 class = ""square num-button"" onclick = ""recordClick(this)""><div class = content><div class = numbers>L</div></div></button><button id = button_7 class = ""square num-button"" onclick = ""recordClick(this)""><div class = content><div class = numbers>N</div></div></button><button id = button_8 class = ""square num-button"" onclick = ""recordClick(this)""><div class = content><div class = numbers>P</div></div></button><button id = button_9 class = ""square num-button"" onclick = ""recordClick(this)""><div class = content><div class = numbers>Q</div></div></button><button id = button_10 class = ""square num-button"" onclick = ""recordClick(this)""><div class = content><div class = numbers>R</div></div></button><button id = button_11 class = ""square num-button"" onclick = ""recordClick(this)""><div class = content><div class = numbers>S</div></div></button><button id = button_12 class = ""square num-button"" onclick = ""recordClick(this)""><div class = content><div class = numbers>Y</div></div></button><button class = clear_button id = ""ClearButton"" onclick = ""clearResponse()"">BACKSPACE</button><button class = blank_button id = ""BlankButton"" onclick = ""blankResponse()"">SKIP</button><p style=""font-size: 2.4rem""><u><b>Current Answer:</b></u></p><br><br><div id=echoed_txt style=""font-size: 5rem; color:blue;""><b></b></div></div>",enter,ospan,retrieval,AUivxw2nMne2JE30kqzxoiA7qFj1,html-keyboard-response,156,1109792,0.0-46.0-5.0-0.0-2.0,21,18,15,6.0,"[""S"",""J"",""L"",""N"",""G""]","[""S"",""J"",""N"",""L"",""G"",""Q""]",0.0,3.0,,,,,,,65101adae9f0b22a17c5af61,15:07:33,03/04/2024
2028.0,[''],0,ospan,feedback,AUivxw2nMne2JE30kqzxoiA7qFj1,html-button-response,157,1112322,0.0-46.0-5.0-0.0-3.0,,,,,,,,,,,,100.0,0.0,,65101adae9f0b22a17c5af61,15:07:33,03/04/2024
,"<p style=""font-size:75px;"">...</p>",,ospan,iti,AUivxw2nMne2JE30kqzxoiA7qFj1,html-keyboard-response,158,1113327,0.0-46.0-5.0-1.0-0.0,,,,,,,,,,,,,,,65101adae9f0b22a17c5af61,15:07:33,03/04/2024
1369.0,,,ospan,symmetry,AUivxw2nMne2JE30kqzxoiA7qFj1,symmetry-judgement-task,159,1115836,0.0-46.0-5.0-1.0-1.0-0.0,,,,,,,,,,1.0,1.0,,,,65101adae9f0b22a17c5af61,15:07:33,03/04/2024
,"<div style=""font-size: 10rem; color: #0000FF"">H</div>",,ospan,letter,AUivxw2nMne2JE30kqzxoiA7qFj1,html-keyboard-response,160,1116845,0.0-46.0-5.0-1.0-1.0-1.0,,,,,,,,,,,,,,,65101adae9f0b22a17c5af61,15:07:33,03/04/2024
863.0,,,ospan,symmetry,AUivxw2nMne2JE30kqzxoiA7qFj1,symmetry-judgement-task,161,1119620,0.0-46.0-5.0-1.0-1.0-2.0,,,,,,,,,,1.0,1.0,,,,65101adae9f0b22a17c5af61,15:07:33,03/04/2024
,"<div style=""font-size: 10rem; color: #0000FF"">Y</div>",,ospan,letter,AUivxw2nMne2JE30kqzxoiA7qFj1,html-keyboard-response,162,1120632,0.0-46.0-5.0-1.0-1.0-3.0,,,,,,,,,,,,,,,65101adae9f0b22a17c5af61,15:07:33,03/04/2024
1000.0,,,ospan,symmetry,AUivxw2nMne2JE30kqzxoiA7qFj1,symmetry-judgement-task,163,1123534,0.0-46.0-5.0-1.0-1.0-4.0,,,,,,,,,,1.0,1.0,,,,65101adae9f0b22a17c5af61,15:07:33,03/04/2024
,"<div style=""font-size: 10rem; color: #0000FF"">N</div>",,ospan,letter,AUivxw2nMne2JE30kqzxoiA7qFj1,html-keyboard-response,164,1124548,0.0-46.0-5.0-1.0-1.0-5.0,,,,,,,,,,,,,,,65101adae9f0b22a17c5af61,15:07:33,03/04/2024
1539.0,,,ospan,symmetry,AUivxw2nMne2JE30kqzxoiA7qFj1,symmetry-judgement-task,165,1128006,0.0-46.0-5.0-1.0-1.0-6.0,,,,,,,,,,1.0,1.0,,,,65101adae9f0b22a17c5af61,15:07:33,03/04/2024
,"<div style=""font-size: 10rem; color: #0000FF"">P</div>",,ospan,letter,AUivxw2nMne2JE30kqzxoiA7qFj1,html-keyboard-response,166,1129008,0.0-46.0-5.0-1.0-1.0-7.0,,,,,,,,,,,,,,,65101adae9f0b22a17c5af61,15:07:33,03/04/2024
2432.0,,,ospan,symmetry,AUivxw2nMne2JE30kqzxoiA7qFj1,symmetry-judgement-task,167,1133337,0.0-46.0-5.0-1.0-1.0-8.0,,,,,,,,,,1.0,1.0,,,,65101adae9f0b22a17c5af61,15:07:33,03/04/2024
,"<div style=""font-size: 10rem; color: #0000FF"">C</div>",,ospan,letter,AUivxw2nMne2JE30kqzxoiA7qFj1,html-keyboard-response,168,1134353,0.0-46.0-5.0-1.0-1.0-9.0,,,,,,,,,,,,,,,65101adae9f0b22a17c5af61,15:07:33,03/04/2024
2543.0,,,ospan,symmetry,AUivxw2nMne2JE30kqzxoiA7qFj1,symmetry-judgement-task,169,1138816,0.0-46.0-5.0-1.0-1.0-10.0,,,,,,,,,,1.0,1.0,,,,65101adae9f0b22a17c5af61,15:07:33,03/04/2024
,"<div style=""font-size: 10rem; color: #0000FF"">J</div>",,ospan,letter,AUivxw2nMne2JE30kqzxoiA7qFj1,html-keyboard-response,170,1139826,0.0-46.0-5.0-1.0-1.0-11.0,,,,,,,,,,,,,,,65101adae9f0b22a17c5af61,15:07:33,03/04/2024
1459.0,,,ospan,symmetry,AUivxw2nMne2JE30kqzxoiA7qFj1,symmetry-judgement-task,171,1143201,0.0-46.0-5.0-1.0-1.0-12.0,,,,,,,,,,1.0,1.0,,,,65101adae9f0b22a17c5af61,15:07:33,03/04/2024
,"<div style=""font-size: 10rem; color: #0000FF"">S</div>",,ospan,letter,AUivxw2nMne2JE30kqzxoiA7qFj1,html-keyboard-response,172,1144211,0.0-46.0-5.0-1.0-1.0-13.0,,,,,,,,,,,,,,,65101adae9f0b22a17c5af61,15:07:33,03/04/2024
12607.799999952316,"<div class = numbox><p style=""font-size: 2.4rem"">Please recall the letters you saw to the best of your ability. If you do not remember a particular letter, use the SKIP button.<br><b>(When you are ready to lock in your answer, press ENTER)</b></p><button id = button_1 class = ""square num-button"" onclick = ""recordClick(this)""><div class = content><div class = numbers>C</div></div></button><button id = button_2 class = ""square num-button"" onclick = ""recordClick(this)""><div class = content><div class = numbers>G</div></div></button><button id = button_3 class = ""square num-button"" onclick = ""recordClick(this)""><div class = content><div class = numbers>H</div></div></button><button id = button_4 class = ""square num-button"" onclick = ""recordClick(this)""><div class = content><div class = numbers>J</div></div></button><button id = button_5 class = ""square num-button"" onclick = ""recordClick(this)""><div class = content><div class = numbers>K</div></div></button><button id = button_6 class = ""square num-button"" onclick = ""recordClick(this)""><div class = content><div class = numbers>L</div></div></button><button id = button_7 class = ""square num-button"" onclick = ""recordClick(this)""><div class = content><div class = numbers>N</div></div></button><button id = button_8 class = ""square num-button"" onclick = ""recordClick(this)""><div class = content><div class = numbers>P</div></div></button><button id = button_9 class = ""square num-button"" onclick = ""recordClick(this)""><div class = content><div class = numbers>Q</div></div></button><button id = button_10 class = ""square num-button"" onclick = ""recordClick(this)""><div class = content><div class = numbers>R</div></div></button><button id = button_11 class = ""square num-button"" onclick = ""recordClick(this)""><div class = content><div class = numbers>S</div></div></button><button id = button_12 class = ""square num-button"" onclick = ""recordClick(this)""><div class = content><div class = numbers>Y</div></div></button><button class = clear_button id = ""ClearButton"" onclick = ""clearResponse()"">BACKSPACE</button><button class = blank_button id = ""BlankButton"" onclick = ""blankResponse()"">SKIP</button><p style=""font-size: 2.4rem""><u><b>Current Answer:</b></u></p><br><br><div id=echoed_txt style=""font-size: 5rem; color:blue;""><b></b></div></div>",enter,ospan,retrieval,AUivxw2nMne2JE30kqzxoiA7qFj1,html-keyboard-response,173,1157584,0.0-46.0-5.0-1.0-2.0,28,25,22,7.0,"[""H"",""Y"",""N"",""P"",""C"",""J"",""S""]","[""H"",""Y"",""N"",""P"",""C"",""J"",""S""]",1.0,7.0,,,,,,,65101adae9f0b22a17c5af61,15:07:33,03/04/2024
1298.5,[''],0,ospan,feedback,AUivxw2nMne2JE30kqzxoiA7qFj1,html-button-response,174,1159390,0.0-46.0-5.0-1.0-3.0,,,,,,,,,,,,100.0,0.0,,65101adae9f0b22a17c5af61,15:07:33,03/04/2024
,"<p style=""font-size:75px;"">...</p>",,ospan,iti,AUivxw2nMne2JE30kqzxoiA7qFj1,html-keyboard-response,175,1160396,0.0-46.0-6.0-0.0-0.0,,,,,,,,,,,,,,,65101adae9f0b22a17c5af61,15:07:33,03/04/2024
1625.0,,,ospan,symmetry,AUivxw2nMne2JE30kqzxoiA7qFj1,symmetry-judgement-task,176,1163189,0.0-46.0-6.0-0.0-1.0-0.0,,,,,,,,,,1.0,1.0,,,,65101adae9f0b22a17c5af61,15:07:33,03/04/2024
,"<div style=""font-size: 10rem; color: #0000FF"">H</div>",,ospan,letter,AUivxw2nMne2JE30kqzxoiA7qFj1,html-keyboard-response,177,1164196,0.0-46.0-6.0-0.0-1.0-1.0,,,,,,,,,,,,,,,65101adae9f0b22a17c5af61,15:07:33,03/04/2024
1130.0,,,ospan,symmetry,AUivxw2nMne2JE30kqzxoiA7qFj1,symmetry-judgement-task,178,1167234,0.0-46.0-6.0-0.0-1.0-2.0,,,,,,,,,,1.0,1.0,,,,65101adae9f0b22a17c5af61,15:07:33,03/04/2024
,"<div style=""font-size: 10rem; color: #0000FF"">S</div>",,ospan,letter,AUivxw2nMne2JE30kqzxoiA7qFj1,html-keyboard-response,179,1168241,0.0-46.0-6.0-0.0-1.0-3.0,,,,,,,,,,,,,,,65101adae9f0b22a17c5af61,15:07:33,03/04/2024
885.0,,,ospan,symmetry,AUivxw2nMne2JE30kqzxoiA7qFj1,symmetry-judgement-task,180,1171041,0.0-46.0-6.0-0.0-1.0-4.0,,,,,,,,,,1.0,1.0,,,,65101adae9f0b22a17c5af61,15:07:33,03/04/2024
,"<div style=""font-size: 10rem; color: #0000FF"">Y</div>",,ospan,letter,AUivxw2nMne2JE30kqzxoiA7qFj1,html-keyboard-response,181,1172055,0.0-46.0-6.0-0.0-1.0-5.0,,,,,,,,,,,,,,,65101adae9f0b22a17c5af61,15:07:33,03/04/2024
1050.0,,,ospan,symmetry,AUivxw2nMne2JE30kqzxoiA7qFj1,symmetry-judgement-task,182,1174898,0.0-46.0-6.0-0.0-1.0-6.0,,,,,,,,,,1.0,1.0,,,,65101adae9f0b22a17c5af61,15:07:33,03/04/2024
,"<div style=""font-size: 10rem; color: #0000FF"">G</div>",,ospan,letter,AUivxw2nMne2JE30kqzxoiA7qFj1,html-keyboard-response,183,1175904,0.0-46.0-6.0-0.0-1.0-7.0,,,,,,,,,,,,,,,65101adae9f0b22a17c5af61,15:07:33,03/04/2024
2155.0,,,ospan,symmetry,AUivxw2nMne2JE30kqzxoiA7qFj1,symmetry-judgement-task,184,1179973,0.0-46.0-6.0-0.0-1.0-8.0,,,,,,,,,,1.0,1.0,,,,65101adae9f0b22a17c5af61,15:07:33,03/04/2024
,"<div style=""font-size: 10rem; color: #0000FF"">R</div>",,ospan,letter,AUivxw2nMne2JE30kqzxoiA7qFj1,html-keyboard-response,185,1180987,0.0-46.0-6.0-0.0-1.0-9.0,,,,,,,,,,,,,,,65101adae9f0b22a17c5af61,15:07:33,03/04/2024
8577.699999988079,"<div class = numbox><p style=""font-size: 2.4rem"">Please recall the letters you saw to the best of your ability. If you do not remember a particular letter, use the SKIP button.<br><b>(When you are ready to lock in your answer, press ENTER)</b></p><button id = button_1 class = ""square num-button"" onclick = ""recordClick(this)""><div class = content><div class = numbers>C</div></div></button><button id = button_2 class = ""square num-button"" onclick = ""recordClick(this)""><div class = content><div class = numbers>G</div></div></button><button id = button_3 class = ""square num-button"" onclick = ""recordClick(this)""><div class = content><div class = numbers>H</div></div></button><button id = button_4 class = ""square num-button"" onclick = ""recordClick(this)""><div class = content><div class = numbers>J</div></div></button><button id = button_5 class = ""square num-button"" onclick = ""recordClick(this)""><div class = content><div class = numbers>K</div></div></button><button id = button_6 class = ""square num-button"" onclick = ""recordClick(this)""><div class = content><div class = numbers>L</div></div></button><button id = button_7 class = ""square num-button"" onclick = ""recordClick(this)""><div class = content><div class = numbers>N</div></div></button><button id = button_8 class = ""square num-button"" onclick = ""recordClick(this)""><div class = content><div class = numbers>P</div></div></button><button id = button_9 class = ""square num-button"" onclick = ""recordClick(this)""><div class = content><div class = numbers>Q</div></div></button><button id = button_10 class = ""square num-button"" onclick = ""recordClick(this)""><div class = content><div class = numbers>R</div></div></button><button id = button_11 class = ""square num-button"" onclick = ""recordClick(this)""><div class = content><div class = numbers>S</div></div></button><button id = button_12 class = ""square num-button"" onclick = ""recordClick(this)""><div class = content><div class = numbers>Y</div></div></button><button class = clear_button id = ""ClearButton"" onclick = ""clearResponse()"">BACKSPACE</button><button class = blank_button id = ""BlankButton"" onclick = ""blankResponse()"">SKIP</button><p style=""font-size: 2.4rem""><u><b>Current Answer:</b></u></p><br><br><div id=echoed_txt style=""font-size: 5rem; color:blue;""><b></b></div></div>",enter,ospan,retrieval,AUivxw2nMne2JE30kqzxoiA7qFj1,html-keyboard-response,186,1190323,0.0-46.0-6.0-0.0-2.0,33,30,27,5.0,"[""H"",""S"",""Y"",""G"",""R""]","[""H"",""S"",""Y"",""G"",""R""]",1.0,5.0,,,,,,,65101adae9f0b22a17c5af61,15:07:33,03/04/2024
1448.5,[''],0,ospan,feedback,AUivxw2nMne2JE30kqzxoiA7qFj1,html-button-response,187,1192277,0.0-46.0-6.0-0.0-3.0,,,,,,,,,,,,100.0,0.0,,65101adae9f0b22a17c5af61,15:07:33,03/04/2024
,"<p style=""font-size:75px;"">...</p>",,ospan,iti,AUivxw2nMne2JE30kqzxoiA7qFj1,html-keyboard-response,188,1193286,0.0-46.0-6.0-1.0-0.0,,,,,,,,,,,,,,,65101adae9f0b22a17c5af61,15:07:33,03/04/2024
1181.0,,,ospan,symmetry,AUivxw2nMne2JE30kqzxoiA7qFj1,symmetry-judgement-task,189,1195631,0.0-46.0-6.0-1.0-1.0-0.0,,,,,,,,,,1.0,1.0,,,,65101adae9f0b22a17c5af61,15:07:33,03/04/2024
,"<div style=""font-size: 10rem; color: #0000FF"">Q</div>",,ospan,letter,AUivxw2nMne2JE30kqzxoiA7qFj1,html-keyboard-response,190,1196642,0.0-46.0-6.0-1.0-1.0-1.0,,,,,,,,,,,,,,,65101adae9f0b22a17c5af61,15:07:33,03/04/2024
1390.0,,,ospan,symmetry,AUivxw2nMne2JE30kqzxoiA7qFj1,symmetry-judgement-task,191,1199947,0.0-46.0-6.0-1.0-1.0-2.0,,,,,,,,,,1.0,1.0,,,,65101adae9f0b22a17c5af61,15:07:33,03/04/2024
,"<div style=""font-size: 10rem; color: #0000FF"">S</div>",,ospan,letter,AUivxw2nMne2JE30kqzxoiA7qFj1,html-keyboard-response,192,1200959,0.0-46.0-6.0-1.0-1.0-3.0,,,,,,,,,,,,,,,65101adae9f0b22a17c5af61,15:07:33,03/04/2024
2172.0,,,ospan,symmetry,AUivxw2nMne2JE30kqzxoiA7qFj1,symmetry-judgement-task,193,1205053,0.0-46.0-6.0-1.0-1.0-4.0,,,,,,,,,,1.0,1.0,,,,65101adae9f0b22a17c5af61,15:07:33,03/04/2024
,"<div style=""font-size: 10rem; color: #0000FF"">P</div>",,ospan,letter,AUivxw2nMne2JE30kqzxoiA7qFj1,html-keyboard-response,194,1206065,0.0-46.0-6.0-1.0-1.0-5.0,,,,,,,,,,,,,,,65101adae9f0b22a17c5af61,15:07:33,03/04/2024
2095.0,,,ospan,symmetry,AUivxw2nMne2JE30kqzxoiA7qFj1,symmetry-judgement-task,195,1210093,0.0-46.0-6.0-1.0-1.0-6.0,,,,,,,,,,1.0,1.0,,,,65101adae9f0b22a17c5af61,15:07:33,03/04/2024
,"<div style=""font-size: 10rem; color: #0000FF"">N</div>",,ospan,letter,AUivxw2nMne2JE30kqzxoiA7qFj1,html-keyboard-response,196,1211102,0.0-46.0-6.0-1.0-1.0-7.0,,,,,,,,,,,,,,,65101adae9f0b22a17c5af61,15:07:33,03/04/2024
1989.0,,,ospan,symmetry,AUivxw2nMne2JE30kqzxoiA7qFj1,symmetry-judgement-task,197,1215009,0.0-46.0-6.0-1.0-1.0-8.0,,,,,,,,,,1.0,1.0,,,,65101adae9f0b22a17c5af61,15:07:33,03/04/2024
,"<div style=""font-size: 10rem; color: #0000FF"">R</div>",,ospan,letter,AUivxw2nMne2JE30kqzxoiA7qFj1,html-keyboard-response,198,1216018,0.0-46.0-6.0-1.0-1.0-9.0,,,,,,,,,,,,,,,65101adae9f0b22a17c5af61,15:07:33,03/04/2024
1422.0,,,ospan,symmetry,AUivxw2nMne2JE30kqzxoiA7qFj1,symmetry-judgement-task,199,1219357,0.0-46.0-6.0-1.0-1.0-10.0,,,,,,,,,,1.0,1.0,,,,65101adae9f0b22a17c5af61,15:07:33,03/04/2024
,"<div style=""font-size: 10rem; color: #0000FF"">K</div>",,ospan,letter,AUivxw2nMne2JE30kqzxoiA7qFj1,html-keyboard-response,200,1220362,0.0-46.0-6.0-1.0-1.0-11.0,,,,,,,,,,,,,,,65101adae9f0b22a17c5af61,15:07:33,03/04/2024
1642.0,,,ospan,symmetry,AUivxw2nMne2JE30kqzxoiA7qFj1,symmetry-judgement-task,201,1223902,0.0-46.0-6.0-1.0-1.0-12.0,,,,,,,,,,1.0,1.0,,,,65101adae9f0b22a17c5af61,15:07:33,03/04/2024
,"<div style=""font-size: 10rem; color: #0000FF"">G</div>",,ospan,letter,AUivxw2nMne2JE30kqzxoiA7qFj1,html-keyboard-response,202,1224905,0.0-46.0-6.0-1.0-1.0-13.0,,,,,,,,,,,,,,,65101adae9f0b22a17c5af61,15:07:33,03/04/2024
1492.0,,,ospan,symmetry,AUivxw2nMne2JE30kqzxoiA7qFj1,symmetry-judgement-task,203,1228308,0.0-46.0-6.0-1.0-1.0-14.0,,,,,,,,,,1.0,1.0,,,,65101adae9f0b22a17c5af61,15:07:33,03/04/2024
,"<div style=""font-size: 10rem; color: #0000FF"">H</div>",,ospan,letter,AUivxw2nMne2JE30kqzxoiA7qFj1,html-keyboard-response,204,1229319,0.0-46.0-6.0-1.0-1.0-15.0,,,,,,,,,,,,,,,65101adae9f0b22a17c5af61,15:07:33,03/04/2024
9162.300000011921,"<div class = numbox><p style=""font-size: 2.4rem"">Please recall the letters you saw to the best of your ability. If you do not remember a particular letter, use the SKIP button.<br><b>(When you are ready to lock in your answer, press ENTER)</b></p><button id = button_1 class = ""square num-button"" onclick = ""recordClick(this)""><div class = content><div class = numbers>C</div></div></button><button id = button_2 class = ""square num-button"" onclick = ""recordClick(this)""><div class = content><div class = numbers>G</div></div></button><button id = button_3 class = ""square num-button"" onclick = ""recordClick(this)""><div class = content><div class = numbers>H</div></div></button><button id = button_4 class = ""square num-button"" onclick = ""recordClick(this)""><div class = content><div class = numbers>J</div></div></button><button id = button_5 class = ""square num-button"" onclick = ""recordClick(this)""><div class = content><div class = numbers>K</div></div></button><button id = button_6 class = ""square num-button"" onclick = ""recordClick(this)""><div class = content><div class = numbers>L</div></div></button><button id = button_7 class = ""square num-button"" onclick = ""recordClick(this)""><div class = content><div class = numbers>N</div></div></button><button id = button_8 class = ""square num-button"" onclick = ""recordClick(this)""><div class = content><div class = numbers>P</div></div></button><button id = button_9 class = ""square num-button"" onclick = ""recordClick(this)""><div class = content><div class = numbers>Q</div></div></button><button id = button_10 class = ""square num-button"" onclick = ""recordClick(this)""><div class = content><div class = numbers>R</div></div></button><button id = button_11 class = ""square num-button"" onclick = ""recordClick(this)""><div class = content><div class = numbers>S</div></div></button><button id = button_12 class = ""square num-button"" onclick = ""recordClick(this)""><div class = content><div class = numbers>Y</div></div></button><button class = clear_button id = ""ClearButton"" onclick = ""clearResponse()"">BACKSPACE</button><button class = blank_button id = ""BlankButton"" onclick = ""blankResponse()"">SKIP</button><p style=""font-size: 2.4rem""><u><b>Current Answer:</b></u></p><br><br><div id=echoed_txt style=""font-size: 5rem; color:blue;""><b></b></div></div>",enter,ospan,retrieval,AUivxw2nMne2JE30kqzxoiA7qFj1,html-keyboard-response,205,1239234,0.0-46.0-6.0-1.0-2.0,41,37,27,8.0,"[""Q"",""S"",""P"",""N"",""R"",""K"",""G""]","[""Q"",""S"",""P"",""N"",""R"",""K"",""G"",""H""]",0.0,7.0,,,,,,,65101adae9f0b22a17c5af61,15:07:33,03/04/2024
1175.800000011921,[''],0,ospan,feedback,AUivxw2nMne2JE30kqzxoiA7qFj1,html-button-response,206,1240919,0.0-46.0-6.0-1.0-3.0,,,,,,,,,,,,100.0,0.0,,65101adae9f0b22a17c5af61,15:07:33,03/04/2024
40638.80000001192,,{'Q0': 'I could not see the feedback so it kind of made me doubt myself.'},ospan,survey_ospan,AUivxw2nMne2JE30kqzxoiA7qFj1,lmdlab-survey-text,207,1282320,0.0-46.0-7.0,,,,,,,,,,,,,,AUivxw2nMne2JE30kqzxoiA7qFj1,65101adae9f0b22a17c5af61,15:07:33,03/04/2024
1421.699999988079,<p><p style='font-size: 3rem'>Great work!<br><br>This completes the symmetry and memory task.</p><br><br><br>,0,ospan,finish,AUivxw2nMne2JE30kqzxoiA7qFj1,html-button-response,208,1283744,0.0-46.0-8.0,41,37,27,,,,,,,,,100.0,,,65101adae9f0b22a17c5af61,15:07:33,03/04/2024
