rt,stimulus,response,exp_name,exp_stage,subjectID,trial_type,trial_index,time_elapsed,internal_node_id,ospan_shown,ospan_total,ospan_abs,length,resp_actual,resp_correct,full_correct,num_correct,feedback,accuracy,correct,math_acc,math_warning,databaseID,prolificID,start_time,date
3136.7999999523163,<div class = 'left_align' style='font-size: 3.25rem; line-height: 1.3;'><p class = 'center_align'><b>Welcome to the Symmetry and Memory Task</b><br><br><br><br></p>Press 'continue' to show the instructions.<br><br><br><br></div>,0,ospan,instruct,AIZtOFMwBQVjZnZWGiPbB6pg70A2,html-button-response,54,602442,0.0-46.0-0.0-0.0-0.0,,,,,,,,,,,,,,,6147759141eeb37502a2967d,08:55:21,03/04/2024
8149.099999904633,"<div class = 'left_align' style='font-size: 3.25rem; line-height: 1.3;'><p class = 'center_align'><b>Symmetry and Memory Task</b><br><br></p>In this task, you will try to memorize letters you see on the screen<br>while you also view black and white grid pictures.<br><br>In the next few minutes, you will have some practice to get you familiar<br>with how the task works.<br><br>It may be difficult sometimes, but please do not worry about making mistakes!<br><br>We will begin by practicing the letter part of the task.<br><br><br><br></div>",0,ospan,instruct,AIZtOFMwBQVjZnZWGiPbB6pg70A2,html-button-response,55,610856,0.0-46.0-0.0-0.0-1.0,,,,,,,,,,,,,,,6147759141eeb37502a2967d,08:55:21,03/04/2024
17727.5,"<div class = 'left_align' style='font-size: 3.25rem; line-height: 1.3;'>For this practice part, letters will appear on the screen one at a time.<br><br>Try to remember each letter in the order presented.<br><br>After some letters have been shown, you will see a response screen. Your<br>goal is to report the letters you saw <b>in order</b>. If you do not remember<br>a particular letter, you will have the option to leave it blank.<br><br><br><br></div>",0,ospan,instruct,AIZtOFMwBQVjZnZWGiPbB6pg70A2,html-button-response,56,628843,0.0-46.0-0.0-0.0-2.0,,,,,,,,,,,,,,,6147759141eeb37502a2967d,08:55:21,03/04/2024
4041.5,"<div class = 'left_align' style='font-size: 3.25rem; line-height: 1.3;'>Remember, it is very important to get the letters in the same<br>order as you see them.<br><br>When you are ready, you may begin the letter practice.</div><br><br><br><br>",0,ospan,instruct,AIZtOFMwBQVjZnZWGiPbB6pg70A2,html-button-response,57,633152,0.0-46.0-0.0-0.0-3.0,,,,,,,,,,,,,,,6147759141eeb37502a2967d,08:55:21,03/04/2024
,"<p style=""font-size:75px;"">...</p>",,ospan,iti,AIZtOFMwBQVjZnZWGiPbB6pg70A2,html-keyboard-response,58,634410,0.0-46.0-0.0-1.0-0.0,,,,,,,,,,,,,,,6147759141eeb37502a2967d,08:55:21,03/04/2024
,"<div style=""font-size: 10rem; color: #0000FF"">H</div>",,ospan,letter,AIZtOFMwBQVjZnZWGiPbB6pg70A2,html-keyboard-response,59,635419,0.0-46.0-0.0-1.0-1.0,,,,,,,,,,,,,,,6147759141eeb37502a2967d,08:55:21,03/04/2024
,"<div style=""font-size: 10rem; color: #0000FF"">L</div>",,ospan,letter,AIZtOFMwBQVjZnZWGiPbB6pg70A2,html-keyboard-response,60,637183,0.0-46.0-0.0-1.0-2.0,,,,,,,,,,,,,,,6147759141eeb37502a2967d,08:55:21,03/04/2024
11813.200000047684,"<div class = numbox><p style=""font-size: 2.4rem"">Please recall the letters you saw to the best of your ability. If you do not remember a particular letter, use the SKIP button.<br><b>(When you are ready to lock in your answer, press ENTER)</b></p><button id = button_1 class = ""square num-button"" onclick = ""recordClick(this)""><div class = content><div class = numbers>C</div></div></button><button id = button_2 class = ""square num-button"" onclick = ""recordClick(this)""><div class = content><div class = numbers>G</div></div></button><button id = button_3 class = ""square num-button"" onclick = ""recordClick(this)""><div class = content><div class = numbers>H</div></div></button><button id = button_4 class = ""square num-button"" onclick = ""recordClick(this)""><div class = content><div class = numbers>J</div></div></button><button id = button_5 class = ""square num-button"" onclick = ""recordClick(this)""><div class = content><div class = numbers>K</div></div></button><button id = button_6 class = ""square num-button"" onclick = ""recordClick(this)""><div class = content><div class = numbers>L</div></div></button><button id = button_7 class = ""square num-button"" onclick = ""recordClick(this)""><div class = content><div class = numbers>N</div></div></button><button id = button_8 class = ""square num-button"" onclick = ""recordClick(this)""><div class = content><div class = numbers>P</div></div></button><button id = button_9 class = ""square num-button"" onclick = ""recordClick(this)""><div class = content><div class = numbers>Q</div></div></button><button id = button_10 class = ""square num-button"" onclick = ""recordClick(this)""><div class = content><div class = numbers>R</div></div></button><button id = button_11 class = ""square num-button"" onclick = ""recordClick(this)""><div class = content><div class = numbers>S</div></div></button><button id = button_12 class = ""square num-button"" onclick = ""recordClick(this)""><div class = content><div class = numbers>Y</div></div></button><button class = clear_button id = ""ClearButton"" onclick = ""clearResponse()"">BACKSPACE</button><button class = blank_button id = ""BlankButton"" onclick = ""blankResponse()"">SKIP</button><p style=""font-size: 2.4rem""><u><b>Current Answer:</b></u></p><br><br><div id=echoed_txt style=""font-size: 5rem; color:blue;""><b></b></div></div>",enter,ospan,retrieval,AIZtOFMwBQVjZnZWGiPbB6pg70A2,html-keyboard-response,61,649753,0.0-46.0-0.0-1.0-3.0,NA,NA,NA,2.0,"[""H"",""L""]","[""H"",""L""]",1.0,2.0,"['<font color=""green"">H</font>', '<font color=""green"">L</font>']",,,,,,6147759141eeb37502a2967d,08:55:21,03/04/2024
1716.6999998092651,"['<p style=""font-size:44px"">Letters:<br><br><br><font color=""green"">H</font> <font color=""green"">L</font></p><br><br>']",0,ospan,practice_feedback,AIZtOFMwBQVjZnZWGiPbB6pg70A2,html-button-response,62,651983,0.0-46.0-0.0-1.0-4.0,,,,,,,,,,,,,,,6147759141eeb37502a2967d,08:55:21,03/04/2024
,"<p style=""font-size:75px;"">...</p>",,ospan,iti,AIZtOFMwBQVjZnZWGiPbB6pg70A2,html-keyboard-response,63,652988,0.0-46.0-0.0-2.0-0.0,,,,,,,,,,,,,,,6147759141eeb37502a2967d,08:55:21,03/04/2024
,"<div style=""font-size: 10rem; color: #0000FF"">Y</div>",,ospan,letter,AIZtOFMwBQVjZnZWGiPbB6pg70A2,html-keyboard-response,64,653995,0.0-46.0-0.0-2.0-1.0,,,,,,,,,,,,,,,6147759141eeb37502a2967d,08:55:21,03/04/2024
,"<div style=""font-size: 10rem; color: #0000FF"">K</div>",,ospan,letter,AIZtOFMwBQVjZnZWGiPbB6pg70A2,html-keyboard-response,65,655762,0.0-46.0-0.0-2.0-2.0,,,,,,,,,,,,,,,6147759141eeb37502a2967d,08:55:21,03/04/2024
,"<div style=""font-size: 10rem; color: #0000FF"">H</div>",,ospan,letter,AIZtOFMwBQVjZnZWGiPbB6pg70A2,html-keyboard-response,66,657528,0.0-46.0-0.0-2.0-3.0,,,,,,,,,,,,,,,6147759141eeb37502a2967d,08:55:21,03/04/2024
5486.299999952316,"<div class = numbox><p style=""font-size: 2.4rem"">Please recall the letters you saw to the best of your ability. If you do not remember a particular letter, use the SKIP button.<br><b>(When you are ready to lock in your answer, press ENTER)</b></p><button id = button_1 class = ""square num-button"" onclick = ""recordClick(this)""><div class = content><div class = numbers>C</div></div></button><button id = button_2 class = ""square num-button"" onclick = ""recordClick(this)""><div class = content><div class = numbers>G</div></div></button><button id = button_3 class = ""square num-button"" onclick = ""recordClick(this)""><div class = content><div class = numbers>H</div></div></button><button id = button_4 class = ""square num-button"" onclick = ""recordClick(this)""><div class = content><div class = numbers>J</div></div></button><button id = button_5 class = ""square num-button"" onclick = ""recordClick(this)""><div class = content><div class = numbers>K</div></div></button><button id = button_6 class = ""square num-button"" onclick = ""recordClick(this)""><div class = content><div class = numbers>L</div></div></button><button id = button_7 class = ""square num-button"" onclick = ""recordClick(this)""><div class = content><div class = numbers>N</div></div></button><button id = button_8 class = ""square num-button"" onclick = ""recordClick(this)""><div class = content><div class = numbers>P</div></div></button><button id = button_9 class = ""square num-button"" onclick = ""recordClick(this)""><div class = content><div class = numbers>Q</div></div></button><button id = button_10 class = ""square num-button"" onclick = ""recordClick(this)""><div class = content><div class = numbers>R</div></div></button><button id = button_11 class = ""square num-button"" onclick = ""recordClick(this)""><div class = content><div class = numbers>S</div></div></button><button id = button_12 class = ""square num-button"" onclick = ""recordClick(this)""><div class = content><div class = numbers>Y</div></div></button><button class = clear_button id = ""ClearButton"" onclick = ""clearResponse()"">BACKSPACE</button><button class = blank_button id = ""BlankButton"" onclick = ""blankResponse()"">SKIP</button><p style=""font-size: 2.4rem""><u><b>Current Answer:</b></u></p><br><br><div id=echoed_txt style=""font-size: 5rem; color:blue;""><b></b></div></div>",enter,ospan,retrieval,AIZtOFMwBQVjZnZWGiPbB6pg70A2,html-keyboard-response,67,663772,0.0-46.0-0.0-2.0-4.0,NA,NA,NA,3.0,"[""Y"",""K"",""H""]","[""Y"",""K"",""H""]",1.0,3.0,"['<font color=""green"">Y</font>', '<font color=""green"">K</font>', '<font color=""green"">H</font>']",,,,,,6147759141eeb37502a2967d,08:55:21,03/04/2024
1622.0999999046326,"['<p style=""font-size:44px"">Letters:<br><br><br><font color=""green"">Y</font> <font color=""green"">K</font> <font color=""green"">H</font></p><br><br>']",0,ospan,practice_feedback,AIZtOFMwBQVjZnZWGiPbB6pg70A2,html-button-response,68,665904,0.0-46.0-0.0-2.0-5.0,,,,,,,,,,,,,,,6147759141eeb37502a2967d,08:55:21,03/04/2024
18303.700000047684,"<div class = 'left_align' style='font-size: 3.25rem; line-height: 1.3;'>Now you will practice doing the <b>symmetry judgment part</b> of the experiment.<br><br>A black and white grid picture will appear on the screen and you have to judge if it is <br>symmetrical or asymetrical.<br><br>A picture is 'mirror' symmetrical if its left half is identical to the right half when flipped.<br>Here are examples of a symmetrical and an asymetrical picture:<br><br><center><img src='Stimuli/img/symm_instructions_extra.png' style='height:420px; width:900'></img></center><br>To judge symmetry, imagine you were to fold each picture down the middle, like a book –<br>would the left half match the right half when folded onto each other?<br><br></div><br>",0,ospan,instruct,AIZtOFMwBQVjZnZWGiPbB6pg70A2,html-button-response,69,684210,0.0-46.0-1.0-0.0-0.0,,,,,,,,,,,,,,,6147759141eeb37502a2967d,08:55:21,03/04/2024
9004.299999952316,"<div class = 'left_align' style='font-size: 3.25rem; line-height: 1.3;'>When you have viewed the picture and determined whether it is symmetrical or not,<br>you can <b>click the Yes or No button</b> below to answer.<br><br>If you take longer than 15 seconds, it will continue automatically<br>and record the answer as an error.</div><br>",0,ospan,instruct,AIZtOFMwBQVjZnZWGiPbB6pg70A2,html-button-response,70,693475,0.0-46.0-1.0-0.0-1.0,,,,,,,,,,,,,,,6147759141eeb37502a2967d,08:55:21,03/04/2024
5183.799999952316,"<div class = 'left_align' style='font-size: 3.25rem; line-height: 1.3;'>It is <b>very</b> important that you make the symmetry judgment correctly.<br><br>It is also important that you try and judge the picture as quickly as you can.<br><br>When you are ready, click on the button below to try some practice problems.</div><br><br><br><br>",0,ospan,instruct,AIZtOFMwBQVjZnZWGiPbB6pg70A2,html-button-response,71,698916,0.0-46.0-1.0-0.0-2.0,,,,,,,,,,,,,,,6147759141eeb37502a2967d,08:55:21,03/04/2024
5878.0,,,ospan,symmetry,AIZtOFMwBQVjZnZWGiPbB6pg70A2,symmetry-judgement-task,72,705632,0.0-46.0-1.0-1.0-0.0,,,,,,,,,,1.0,1.0,,,,6147759141eeb37502a2967d,08:55:21,03/04/2024
,"<p style=""color:green; font-size: 35px"">Correct</p>",,ospan,feedback,AIZtOFMwBQVjZnZWGiPbB6pg70A2,html-keyboard-response,73,706388,0.0-46.0-1.0-1.0-1.0,,,,,,,,,,,,,,,6147759141eeb37502a2967d,08:55:21,03/04/2024
2657.0,,,ospan,symmetry,AIZtOFMwBQVjZnZWGiPbB6pg70A2,symmetry-judgement-task,74,711742,0.0-46.0-1.0-1.0-2.0,,,,,,,,,,1.0,1.0,,,,6147759141eeb37502a2967d,08:55:21,03/04/2024
,"<p style=""color:green; font-size: 35px"">Correct</p>",,ospan,feedback,AIZtOFMwBQVjZnZWGiPbB6pg70A2,html-keyboard-response,75,712499,0.0-46.0-1.0-1.0-3.0,,,,,,,,,,,,,,,6147759141eeb37502a2967d,08:55:21,03/04/2024
3409.0,,,ospan,symmetry,AIZtOFMwBQVjZnZWGiPbB6pg70A2,symmetry-judgement-task,76,718628,0.0-46.0-1.0-1.0-4.0,,,,,,,,,,1.0,1.0,,,,6147759141eeb37502a2967d,08:55:21,03/04/2024
,"<p style=""color:green; font-size: 35px"">Correct</p>",,ospan,feedback,AIZtOFMwBQVjZnZWGiPbB6pg70A2,html-keyboard-response,77,719384,0.0-46.0-1.0-1.0-5.0,,,,,,,,,,,,,,,6147759141eeb37502a2967d,08:55:21,03/04/2024
2047.2999999523163,"<p style=""font-size: 3rem;"">You responded correctly on 3 of 3 symmetry judgments. Good job!</p><br><br>",0,ospan,practice,AIZtOFMwBQVjZnZWGiPbB6pg70A2,html-button-response,78,723436,0.0-46.0-1.0-2.0,,,,,,,,,,,,,,,6147759141eeb37502a2967d,08:55:21,03/04/2024
12334.5,"<div class = 'left_align' style='font-size: 3.25rem; line-height: 1.3;'>Now you will practice doing both parts of the experiment at the same time.<br><br>In the next practice set, you will be given one grid picture to judge.<br>Then letter will appear on the screen. Try to remember the letter.<br><br>It is <b>very important</b> to make the symmetry judgment as quickly and accurately as possible.<br><br>Just as before, once you have make the symmetry judgment, you can click Yes or No.<br><b>Note that you will no longer see Correct or Incorrect feedback.</div><br><br><br><br>",0,ospan,instruct,AIZtOFMwBQVjZnZWGiPbB6pg70A2,html-button-response,79,736017,0.0-46.0-2.0-0.0-0.0,,,,,,,,,,,,,,,6147759141eeb37502a2967d,08:55:21,03/04/2024
10213.900000095367,"<div class = 'left_align' style='font-size: 3.25rem; line-height: 1.3;'>After the letter goes away, another grid picture will appear, and then<br>another letter.<br><br>At the end of each set of letters and grids, you will recall the letters to the best<br>of your ability. Remember, try your best to get the letters in the correct order.<br><br>It is important to <b>quickly</b> and <b>accurately</b> make the symmetry judgments.</div><br><br><br><br>",0,ospan,instruct,AIZtOFMwBQVjZnZWGiPbB6pg70A2,html-button-response,80,746488,0.0-46.0-2.0-0.0-1.0,,,,,,,,,,,,,,,6147759141eeb37502a2967d,08:55:21,03/04/2024
24364.700000047684,"<div class = 'left_align' style='font-size: 3.25rem; line-height: 1.3;'>On the feedback screen, if you are not doing well at the symmetry judgments,<br>you will also see a warning in the middle. This indicates your percent <br>correct for the grid pictures for the entire experiment.<br><br>It is <b>very</b> important for you to keep accuracy at least at 85%: <u>We can only use<br>data where the participant was at least 85% accurate on the judgments.</u> Therefore,<br> please try your best to perform well on the symmetry judgments, <b>at the same time</b><br>doing your best to recall as many letters as possible.<br><br>Click the button to try some practice problems.</div><br><br><br><br>",0,ospan,instruct,AIZtOFMwBQVjZnZWGiPbB6pg70A2,html-button-response,81,771118,0.0-46.0-2.0-0.0-2.0,,,,,,,,,,,,,,,6147759141eeb37502a2967d,08:55:21,03/04/2024
,"<p style=""font-size:75px;"">...</p>",,ospan,iti,AIZtOFMwBQVjZnZWGiPbB6pg70A2,html-keyboard-response,82,772378,0.0-46.0-2.0-1.0-0.0,,,,,,,,,,,,,,,6147759141eeb37502a2967d,08:55:21,03/04/2024
3748.0,,,ospan,symmetry,AIZtOFMwBQVjZnZWGiPbB6pg70A2,symmetry-judgement-task,83,777321,0.0-46.0-2.0-1.0-1.0-0.0,,,,,,,,,,1.0,1.0,,,,6147759141eeb37502a2967d,08:55:21,03/04/2024
,"<div style=""font-size: 10rem; color: #0000FF"">R</div>",,ospan,letter,AIZtOFMwBQVjZnZWGiPbB6pg70A2,html-keyboard-response,84,778328,0.0-46.0-2.0-1.0-1.0-1.0,,,,,,,,,,,,,,,6147759141eeb37502a2967d,08:55:21,03/04/2024
2466.0,,,ospan,symmetry,AIZtOFMwBQVjZnZWGiPbB6pg70A2,symmetry-judgement-task,85,782724,0.0-46.0-2.0-1.0-1.0-2.0,,,,,,,,,,1.0,1.0,,,,6147759141eeb37502a2967d,08:55:21,03/04/2024
,"<div style=""font-size: 10rem; color: #0000FF"">G</div>",,ospan,letter,AIZtOFMwBQVjZnZWGiPbB6pg70A2,html-keyboard-response,86,783732,0.0-46.0-2.0-1.0-1.0-3.0,,,,,,,,,,,,,,,6147759141eeb37502a2967d,08:55:21,03/04/2024
2566.0,,,ospan,symmetry,AIZtOFMwBQVjZnZWGiPbB6pg70A2,symmetry-judgement-task,87,788251,0.0-46.0-2.0-1.0-1.0-4.0,,,,,,,,,,1.0,1.0,,,,6147759141eeb37502a2967d,08:55:21,03/04/2024
,"<div style=""font-size: 10rem; color: #0000FF"">H</div>",,ospan,letter,AIZtOFMwBQVjZnZWGiPbB6pg70A2,html-keyboard-response,88,789257,0.0-46.0-2.0-1.0-1.0-5.0,,,,,,,,,,,,,,,6147759141eeb37502a2967d,08:55:21,03/04/2024
3896.4000000953674,"<div class = numbox><p style=""font-size: 2.4rem"">Please recall the letters you saw to the best of your ability. If you do not remember a particular letter, use the SKIP button.<br><b>(When you are ready to lock in your answer, press ENTER)</b></p><button id = button_1 class = ""square num-button"" onclick = ""recordClick(this)""><div class = content><div class = numbers>C</div></div></button><button id = button_2 class = ""square num-button"" onclick = ""recordClick(this)""><div class = content><div class = numbers>G</div></div></button><button id = button_3 class = ""square num-button"" onclick = ""recordClick(this)""><div class = content><div class = numbers>H</div></div></button><button id = button_4 class = ""square num-button"" onclick = ""recordClick(this)""><div class = content><div class = numbers>J</div></div></button><button id = button_5 class = ""square num-button"" onclick = ""recordClick(this)""><div class = content><div class = numbers>K</div></div></button><button id = button_6 class = ""square num-button"" onclick = ""recordClick(this)""><div class = content><div class = numbers>L</div></div></button><button id = button_7 class = ""square num-button"" onclick = ""recordClick(this)""><div class = content><div class = numbers>N</div></div></button><button id = button_8 class = ""square num-button"" onclick = ""recordClick(this)""><div class = content><div class = numbers>P</div></div></button><button id = button_9 class = ""square num-button"" onclick = ""recordClick(this)""><div class = content><div class = numbers>Q</div></div></button><button id = button_10 class = ""square num-button"" onclick = ""recordClick(this)""><div class = content><div class = numbers>R</div></div></button><button id = button_11 class = ""square num-button"" onclick = ""recordClick(this)""><div class = content><div class = numbers>S</div></div></button><button id = button_12 class = ""square num-button"" onclick = ""recordClick(this)""><div class = content><div class = numbers>Y</div></div></button><button class = clear_button id = ""ClearButton"" onclick = ""clearResponse()"">BACKSPACE</button><button class = blank_button id = ""BlankButton"" onclick = ""blankResponse()"">SKIP</button><p style=""font-size: 2.4rem""><u><b>Current Answer:</b></u></p><br><br><div id=echoed_txt style=""font-size: 5rem; color:blue;""><b></b></div></div>",enter,ospan,retrieval,AIZtOFMwBQVjZnZWGiPbB6pg70A2,html-keyboard-response,89,793906,0.0-46.0-2.0-1.0-2.0-0.0,NA,NA,NA,3.0,"[""R"",""G"",""H""]","[""R"",""G"",""H""]",1.0,3.0,"['<font color=""green"">R</font>', '<font color=""green"">G</font>', '<font color=""green"">H</font>']",,,,,,6147759141eeb37502a2967d,08:55:21,03/04/2024
3327.2999999523163,"['<p style=""font-size:44px"">Letters:<br><br><br><font color=""green"">R</font> <font color=""green"">G</font> <font color=""green"">H</font></p><br><br><p style=""font-size:30px"">Symmetry:<br><br><font color=""green"">100%</font></p><br><br>']",0,ospan,practice_feedback,AIZtOFMwBQVjZnZWGiPbB6pg70A2,html-button-response,90,797736,0.0-46.0-2.0-1.0-2.0-1.0,,,,,,,,,,,,,,,6147759141eeb37502a2967d,08:55:21,03/04/2024
,"<p style=""font-size:75px;"">...</p>",,ospan,iti,AIZtOFMwBQVjZnZWGiPbB6pg70A2,html-keyboard-response,91,798755,0.0-46.0-2.0-2.0-0.0,,,,,,,,,,,,,,,6147759141eeb37502a2967d,08:55:21,03/04/2024
2824.0,,,ospan,symmetry,AIZtOFMwBQVjZnZWGiPbB6pg70A2,symmetry-judgement-task,92,802777,0.0-46.0-2.0-2.0-1.0-0.0,,,,,,,,,,1.0,1.0,,,,6147759141eeb37502a2967d,08:55:21,03/04/2024
,"<div style=""font-size: 10rem; color: #0000FF"">C</div>",,ospan,letter,AIZtOFMwBQVjZnZWGiPbB6pg70A2,html-keyboard-response,93,803787,0.0-46.0-2.0-2.0-1.0-1.0,,,,,,,,,,,,,,,6147759141eeb37502a2967d,08:55:21,03/04/2024
3138.0,,,ospan,symmetry,AIZtOFMwBQVjZnZWGiPbB6pg70A2,symmetry-judgement-task,94,808900,0.0-46.0-2.0-2.0-1.0-2.0,,,,,,,,,,1.0,1.0,,,,6147759141eeb37502a2967d,08:55:21,03/04/2024
,"<div style=""font-size: 10rem; color: #0000FF"">P</div>",,ospan,letter,AIZtOFMwBQVjZnZWGiPbB6pg70A2,html-keyboard-response,95,809909,0.0-46.0-2.0-2.0-1.0-3.0,,,,,,,,,,,,,,,6147759141eeb37502a2967d,08:55:21,03/04/2024
3470.0,,,ospan,symmetry,AIZtOFMwBQVjZnZWGiPbB6pg70A2,symmetry-judgement-task,96,815335,0.0-46.0-2.0-2.0-1.0-4.0,,,,,,,,,,1.0,1.0,,,,6147759141eeb37502a2967d,08:55:21,03/04/2024
,"<div style=""font-size: 10rem; color: #0000FF"">H</div>",,ospan,letter,AIZtOFMwBQVjZnZWGiPbB6pg70A2,html-keyboard-response,97,816341,0.0-46.0-2.0-2.0-1.0-5.0,,,,,,,,,,,,,,,6147759141eeb37502a2967d,08:55:21,03/04/2024
4631.200000047684,"<div class = numbox><p style=""font-size: 2.4rem"">Please recall the letters you saw to the best of your ability. If you do not remember a particular letter, use the SKIP button.<br><b>(When you are ready to lock in your answer, press ENTER)</b></p><button id = button_1 class = ""square num-button"" onclick = ""recordClick(this)""><div class = content><div class = numbers>C</div></div></button><button id = button_2 class = ""square num-button"" onclick = ""recordClick(this)""><div class = content><div class = numbers>G</div></div></button><button id = button_3 class = ""square num-button"" onclick = ""recordClick(this)""><div class = content><div class = numbers>H</div></div></button><button id = button_4 class = ""square num-button"" onclick = ""recordClick(this)""><div class = content><div class = numbers>J</div></div></button><button id = button_5 class = ""square num-button"" onclick = ""recordClick(this)""><div class = content><div class = numbers>K</div></div></button><button id = button_6 class = ""square num-button"" onclick = ""recordClick(this)""><div class = content><div class = numbers>L</div></div></button><button id = button_7 class = ""square num-button"" onclick = ""recordClick(this)""><div class = content><div class = numbers>N</div></div></button><button id = button_8 class = ""square num-button"" onclick = ""recordClick(this)""><div class = content><div class = numbers>P</div></div></button><button id = button_9 class = ""square num-button"" onclick = ""recordClick(this)""><div class = content><div class = numbers>Q</div></div></button><button id = button_10 class = ""square num-button"" onclick = ""recordClick(this)""><div class = content><div class = numbers>R</div></div></button><button id = button_11 class = ""square num-button"" onclick = ""recordClick(this)""><div class = content><div class = numbers>S</div></div></button><button id = button_12 class = ""square num-button"" onclick = ""recordClick(this)""><div class = content><div class = numbers>Y</div></div></button><button class = clear_button id = ""ClearButton"" onclick = ""clearResponse()"">BACKSPACE</button><button class = blank_button id = ""BlankButton"" onclick = ""blankResponse()"">SKIP</button><p style=""font-size: 2.4rem""><u><b>Current Answer:</b></u></p><br><br><div id=echoed_txt style=""font-size: 5rem; color:blue;""><b></b></div></div>",enter,ospan,retrieval,AIZtOFMwBQVjZnZWGiPbB6pg70A2,html-keyboard-response,98,821730,0.0-46.0-2.0-2.0-2.0-0.0,NA,NA,NA,3.0,"[""C"",""P"",""H""]","[""C"",""P"",""H""]",1.0,3.0,"['<font color=""green"">C</font>', '<font color=""green"">P</font>', '<font color=""green"">H</font>']",,,,,,6147759141eeb37502a2967d,08:55:21,03/04/2024
2700.7000000476837,"['<p style=""font-size:44px"">Letters:<br><br><br><font color=""green"">C</font> <font color=""green"">P</font> <font color=""green"">H</font></p><br><br><p style=""font-size:30px"">Symmetry:<br><br><font color=""green"">100%</font></p><br><br>']",0,ospan,practice_feedback,AIZtOFMwBQVjZnZWGiPbB6pg70A2,html-button-response,99,824944,0.0-46.0-2.0-2.0-2.0-1.0,,,,,,,,,,,,,,,6147759141eeb37502a2967d,08:55:21,03/04/2024
34643.89999985695,"<div class = 'left_align' style='font-size: 3rem; line-height: 1.3;'><b>Great work! That is the end of practice.</b><br><br>The real trials will look just like the practice trials you just completed.<br><br><u>Here, you will not see feedback</u>. First, you will see an grid picture to judge,<br>then a letter to remember. When the recall screen appears, report the letters in the<br>order presented. If you forget a letter, remember to use the <b>blank</b> button to move to the<br>next letter. Some of the sets will have more symmetry grids and letters than others.<br><br>It is important that you do your best on both the symmetry judgments and the letter recall<br>parts of the experiment. For for the symmetry judgments, try to work as <b>quickly</b> and <br>as <b>accurately</b> as possible. Remember to keep your symmetry accuracy at 85% or above.<br><br><b>For the letters, do NOT use any external aid (e.g., writing on paper, electronic device).</b><br><br>It is <u>very important</u> to our experiment to have a <b>true</b> view of your real performance.<br><br>Do not worry if you miss some when it gets hard! This task is meant to be very challenging!<br><br>Click the button to begin.</div><br><br><br><br>",0,ospan,starting_real_here,AIZtOFMwBQVjZnZWGiPbB6pg70A2,html-button-response,100,859598,0.0-46.0-2.0-3.0,,,,,,,,,,,,,,,6147759141eeb37502a2967d,08:55:21,03/04/2024
,"<p style=""font-size:75px;"">...</p>",,ospan,iti,AIZtOFMwBQVjZnZWGiPbB6pg70A2,html-keyboard-response,101,860872,0.0-46.0-3.0-0.0-0.0,,,,,,,,,,,,,,,6147759141eeb37502a2967d,08:55:21,03/04/2024
3042.0,,,ospan,symmetry,AIZtOFMwBQVjZnZWGiPbB6pg70A2,symmetry-judgement-task,102,865089,0.0-46.0-3.0-0.0-1.0-0.0,,,,,,,,,,1.0,1.0,,,,6147759141eeb37502a2967d,08:55:21,03/04/2024
,"<div style=""font-size: 10rem; color: #0000FF"">L</div>",,ospan,letter,AIZtOFMwBQVjZnZWGiPbB6pg70A2,html-keyboard-response,103,866097,0.0-46.0-3.0-0.0-1.0-1.0,,,,,,,,,,,,,,,6147759141eeb37502a2967d,08:55:21,03/04/2024
2444.0,,,ospan,symmetry,AIZtOFMwBQVjZnZWGiPbB6pg70A2,symmetry-judgement-task,104,870483,0.0-46.0-3.0-0.0-1.0-2.0,,,,,,,,,,1.0,1.0,,,,6147759141eeb37502a2967d,08:55:21,03/04/2024
,"<div style=""font-size: 10rem; color: #0000FF"">S</div>",,ospan,letter,AIZtOFMwBQVjZnZWGiPbB6pg70A2,html-keyboard-response,105,871493,0.0-46.0-3.0-0.0-1.0-3.0,,,,,,,,,,,,,,,6147759141eeb37502a2967d,08:55:21,03/04/2024
4717.0,,,ospan,symmetry,AIZtOFMwBQVjZnZWGiPbB6pg70A2,symmetry-judgement-task,106,878159,0.0-46.0-3.0-0.0-1.0-4.0,,,,,,,,,,1.0,1.0,,,,6147759141eeb37502a2967d,08:55:21,03/04/2024
,"<div style=""font-size: 10rem; color: #0000FF"">C</div>",,ospan,letter,AIZtOFMwBQVjZnZWGiPbB6pg70A2,html-keyboard-response,107,879169,0.0-46.0-3.0-0.0-1.0-5.0,,,,,,,,,,,,,,,6147759141eeb37502a2967d,08:55:21,03/04/2024
3867.0999999046326,"<div class = numbox><p style=""font-size: 2.4rem"">Please recall the letters you saw to the best of your ability. If you do not remember a particular letter, use the SKIP button.<br><b>(When you are ready to lock in your answer, press ENTER)</b></p><button id = button_1 class = ""square num-button"" onclick = ""recordClick(this)""><div class = content><div class = numbers>C</div></div></button><button id = button_2 class = ""square num-button"" onclick = ""recordClick(this)""><div class = content><div class = numbers>G</div></div></button><button id = button_3 class = ""square num-button"" onclick = ""recordClick(this)""><div class = content><div class = numbers>H</div></div></button><button id = button_4 class = ""square num-button"" onclick = ""recordClick(this)""><div class = content><div class = numbers>J</div></div></button><button id = button_5 class = ""square num-button"" onclick = ""recordClick(this)""><div class = content><div class = numbers>K</div></div></button><button id = button_6 class = ""square num-button"" onclick = ""recordClick(this)""><div class = content><div class = numbers>L</div></div></button><button id = button_7 class = ""square num-button"" onclick = ""recordClick(this)""><div class = content><div class = numbers>N</div></div></button><button id = button_8 class = ""square num-button"" onclick = ""recordClick(this)""><div class = content><div class = numbers>P</div></div></button><button id = button_9 class = ""square num-button"" onclick = ""recordClick(this)""><div class = content><div class = numbers>Q</div></div></button><button id = button_10 class = ""square num-button"" onclick = ""recordClick(this)""><div class = content><div class = numbers>R</div></div></button><button id = button_11 class = ""square num-button"" onclick = ""recordClick(this)""><div class = content><div class = numbers>S</div></div></button><button id = button_12 class = ""square num-button"" onclick = ""recordClick(this)""><div class = content><div class = numbers>Y</div></div></button><button class = clear_button id = ""ClearButton"" onclick = ""clearResponse()"">BACKSPACE</button><button class = blank_button id = ""BlankButton"" onclick = ""blankResponse()"">SKIP</button><p style=""font-size: 2.4rem""><u><b>Current Answer:</b></u></p><br><br><div id=echoed_txt style=""font-size: 5rem; color:blue;""><b></b></div></div>",enter,ospan,retrieval,AIZtOFMwBQVjZnZWGiPbB6pg70A2,html-keyboard-response,108,883803,0.0-46.0-3.0-0.0-2.0,3,3,3,3.0,"[""L"",""S"",""C""]","[""L"",""S"",""C""]",1.0,3.0,,,,,,,6147759141eeb37502a2967d,08:55:21,03/04/2024
1304.2000000476837,[''],0,ospan,feedback,AIZtOFMwBQVjZnZWGiPbB6pg70A2,html-button-response,109,885619,0.0-46.0-3.0-0.0-3.0,,,,,,,,,,,,100.0,0.0,,6147759141eeb37502a2967d,08:55:21,03/04/2024
,"<p style=""font-size:75px;"">...</p>",,ospan,iti,AIZtOFMwBQVjZnZWGiPbB6pg70A2,html-keyboard-response,110,886626,0.0-46.0-4.0-0.0-0.0,,,,,,,,,,,,,,,6147759141eeb37502a2967d,08:55:21,03/04/2024
3851.0,,,ospan,symmetry,AIZtOFMwBQVjZnZWGiPbB6pg70A2,symmetry-judgement-task,111,891656,0.0-46.0-4.0-0.0-1.0-0.0,,,,,,,,,,1.0,1.0,,,,6147759141eeb37502a2967d,08:55:21,03/04/2024
,"<div style=""font-size: 10rem; color: #0000FF"">K</div>",,ospan,letter,AIZtOFMwBQVjZnZWGiPbB6pg70A2,html-keyboard-response,112,892665,0.0-46.0-4.0-0.0-1.0-1.0,,,,,,,,,,,,,,,6147759141eeb37502a2967d,08:55:21,03/04/2024
3060.0,,,ospan,symmetry,AIZtOFMwBQVjZnZWGiPbB6pg70A2,symmetry-judgement-task,113,897706,0.0-46.0-4.0-0.0-1.0-2.0,,,,,,,,,,1.0,1.0,,,,6147759141eeb37502a2967d,08:55:21,03/04/2024
,"<div style=""font-size: 10rem; color: #0000FF"">J</div>",,ospan,letter,AIZtOFMwBQVjZnZWGiPbB6pg70A2,html-keyboard-response,114,898712,0.0-46.0-4.0-0.0-1.0-3.0,,,,,,,,,,,,,,,6147759141eeb37502a2967d,08:55:21,03/04/2024
2261.0,,,ospan,symmetry,AIZtOFMwBQVjZnZWGiPbB6pg70A2,symmetry-judgement-task,115,902948,0.0-46.0-4.0-0.0-1.0-4.0,,,,,,,,,,1.0,1.0,,,,6147759141eeb37502a2967d,08:55:21,03/04/2024
,"<div style=""font-size: 10rem; color: #0000FF"">P</div>",,ospan,letter,AIZtOFMwBQVjZnZWGiPbB6pg70A2,html-keyboard-response,116,903954,0.0-46.0-4.0-0.0-1.0-5.0,,,,,,,,,,,,,,,6147759141eeb37502a2967d,08:55:21,03/04/2024
1752.0,,,ospan,symmetry,AIZtOFMwBQVjZnZWGiPbB6pg70A2,symmetry-judgement-task,117,907646,0.0-46.0-4.0-0.0-1.0-6.0,,,,,,,,,,1.0,1.0,,,,6147759141eeb37502a2967d,08:55:21,03/04/2024
,"<div style=""font-size: 10rem; color: #0000FF"">Q</div>",,ospan,letter,AIZtOFMwBQVjZnZWGiPbB6pg70A2,html-keyboard-response,118,908652,0.0-46.0-4.0-0.0-1.0-7.0,,,,,,,,,,,,,,,6147759141eeb37502a2967d,08:55:21,03/04/2024
6253.900000095367,"<div class = numbox><p style=""font-size: 2.4rem"">Please recall the letters you saw to the best of your ability. If you do not remember a particular letter, use the SKIP button.<br><b>(When you are ready to lock in your answer, press ENTER)</b></p><button id = button_1 class = ""square num-button"" onclick = ""recordClick(this)""><div class = content><div class = numbers>C</div></div></button><button id = button_2 class = ""square num-button"" onclick = ""recordClick(this)""><div class = content><div class = numbers>G</div></div></button><button id = button_3 class = ""square num-button"" onclick = ""recordClick(this)""><div class = content><div class = numbers>H</div></div></button><button id = button_4 class = ""square num-button"" onclick = ""recordClick(this)""><div class = content><div class = numbers>J</div></div></button><button id = button_5 class = ""square num-button"" onclick = ""recordClick(this)""><div class = content><div class = numbers>K</div></div></button><button id = button_6 class = ""square num-button"" onclick = ""recordClick(this)""><div class = content><div class = numbers>L</div></div></button><button id = button_7 class = ""square num-button"" onclick = ""recordClick(this)""><div class = content><div class = numbers>N</div></div></button><button id = button_8 class = ""square num-button"" onclick = ""recordClick(this)""><div class = content><div class = numbers>P</div></div></button><button id = button_9 class = ""square num-button"" onclick = ""recordClick(this)""><div class = content><div class = numbers>Q</div></div></button><button id = button_10 class = ""square num-button"" onclick = ""recordClick(this)""><div class = content><div class = numbers>R</div></div></button><button id = button_11 class = ""square num-button"" onclick = ""recordClick(this)""><div class = content><div class = numbers>S</div></div></button><button id = button_12 class = ""square num-button"" onclick = ""recordClick(this)""><div class = content><div class = numbers>Y</div></div></button><button class = clear_button id = ""ClearButton"" onclick = ""clearResponse()"">BACKSPACE</button><button class = blank_button id = ""BlankButton"" onclick = ""blankResponse()"">SKIP</button><p style=""font-size: 2.4rem""><u><b>Current Answer:</b></u></p><br><br><div id=echoed_txt style=""font-size: 5rem; color:blue;""><b></b></div></div>",enter,ospan,retrieval,AIZtOFMwBQVjZnZWGiPbB6pg70A2,html-keyboard-response,119,915675,0.0-46.0-4.0-0.0-2.0,7,7,7,4.0,"[""K"",""J"",""P"",""Q""]","[""K"",""J"",""P"",""Q""]",1.0,4.0,,,,,,,6147759141eeb37502a2967d,08:55:21,03/04/2024
977.2000000476837,[''],0,ospan,feedback,AIZtOFMwBQVjZnZWGiPbB6pg70A2,html-button-response,120,917162,0.0-46.0-4.0-0.0-3.0,,,,,,,,,,,,100.0,0.0,,6147759141eeb37502a2967d,08:55:21,03/04/2024
,"<p style=""font-size:75px;"">...</p>",,ospan,iti,AIZtOFMwBQVjZnZWGiPbB6pg70A2,html-keyboard-response,121,918166,0.0-46.0-4.0-1.0-0.0,,,,,,,,,,,,,,,6147759141eeb37502a2967d,08:55:21,03/04/2024
1887.0,,,ospan,symmetry,AIZtOFMwBQVjZnZWGiPbB6pg70A2,symmetry-judgement-task,122,921119,0.0-46.0-4.0-1.0-1.0-0.0,,,,,,,,,,1.0,1.0,,,,6147759141eeb37502a2967d,08:55:21,03/04/2024
,"<div style=""font-size: 10rem; color: #0000FF"">R</div>",,ospan,letter,AIZtOFMwBQVjZnZWGiPbB6pg70A2,html-keyboard-response,123,922133,0.0-46.0-4.0-1.0-1.0-1.0,,,,,,,,,,,,,,,6147759141eeb37502a2967d,08:55:21,03/04/2024
1932.0,,,ospan,symmetry,AIZtOFMwBQVjZnZWGiPbB6pg70A2,symmetry-judgement-task,124,926058,0.0-46.0-4.0-1.0-1.0-2.0,,,,,,,,,,1.0,1.0,,,,6147759141eeb37502a2967d,08:55:21,03/04/2024
,"<div style=""font-size: 10rem; color: #0000FF"">G</div>",,ospan,letter,AIZtOFMwBQVjZnZWGiPbB6pg70A2,html-keyboard-response,125,927067,0.0-46.0-4.0-1.0-1.0-3.0,,,,,,,,,,,,,,,6147759141eeb37502a2967d,08:55:21,03/04/2024
1979.0,,,ospan,symmetry,AIZtOFMwBQVjZnZWGiPbB6pg70A2,symmetry-judgement-task,126,930989,0.0-46.0-4.0-1.0-1.0-4.0,,,,,,,,,,1.0,1.0,,,,6147759141eeb37502a2967d,08:55:21,03/04/2024
,"<div style=""font-size: 10rem; color: #0000FF"">P</div>",,ospan,letter,AIZtOFMwBQVjZnZWGiPbB6pg70A2,html-keyboard-response,127,931991,0.0-46.0-4.0-1.0-1.0-5.0,,,,,,,,,,,,,,,6147759141eeb37502a2967d,08:55:21,03/04/2024
1183.0,,,ospan,symmetry,AIZtOFMwBQVjZnZWGiPbB6pg70A2,symmetry-judgement-task,128,935226,0.0-46.0-4.0-1.0-1.0-6.0,,,,,,,,,,1.0,1.0,,,,6147759141eeb37502a2967d,08:55:21,03/04/2024
,"<div style=""font-size: 10rem; color: #0000FF"">Y</div>",,ospan,letter,AIZtOFMwBQVjZnZWGiPbB6pg70A2,html-keyboard-response,129,936230,0.0-46.0-4.0-1.0-1.0-7.0,,,,,,,,,,,,,,,6147759141eeb37502a2967d,08:55:21,03/04/2024
2005.0,,,ospan,symmetry,AIZtOFMwBQVjZnZWGiPbB6pg70A2,symmetry-judgement-task,130,940285,0.0-46.0-4.0-1.0-1.0-8.0,,,,,,,,,,1.0,1.0,,,,6147759141eeb37502a2967d,08:55:21,03/04/2024
,"<div style=""font-size: 10rem; color: #0000FF"">K</div>",,ospan,letter,AIZtOFMwBQVjZnZWGiPbB6pg70A2,html-keyboard-response,131,941291,0.0-46.0-4.0-1.0-1.0-9.0,,,,,,,,,,,,,,,6147759141eeb37502a2967d,08:55:21,03/04/2024
10844.5,"<div class = numbox><p style=""font-size: 2.4rem"">Please recall the letters you saw to the best of your ability. If you do not remember a particular letter, use the SKIP button.<br><b>(When you are ready to lock in your answer, press ENTER)</b></p><button id = button_1 class = ""square num-button"" onclick = ""recordClick(this)""><div class = content><div class = numbers>C</div></div></button><button id = button_2 class = ""square num-button"" onclick = ""recordClick(this)""><div class = content><div class = numbers>G</div></div></button><button id = button_3 class = ""square num-button"" onclick = ""recordClick(this)""><div class = content><div class = numbers>H</div></div></button><button id = button_4 class = ""square num-button"" onclick = ""recordClick(this)""><div class = content><div class = numbers>J</div></div></button><button id = button_5 class = ""square num-button"" onclick = ""recordClick(this)""><div class = content><div class = numbers>K</div></div></button><button id = button_6 class = ""square num-button"" onclick = ""recordClick(this)""><div class = content><div class = numbers>L</div></div></button><button id = button_7 class = ""square num-button"" onclick = ""recordClick(this)""><div class = content><div class = numbers>N</div></div></button><button id = button_8 class = ""square num-button"" onclick = ""recordClick(this)""><div class = content><div class = numbers>P</div></div></button><button id = button_9 class = ""square num-button"" onclick = ""recordClick(this)""><div class = content><div class = numbers>Q</div></div></button><button id = button_10 class = ""square num-button"" onclick = ""recordClick(this)""><div class = content><div class = numbers>R</div></div></button><button id = button_11 class = ""square num-button"" onclick = ""recordClick(this)""><div class = content><div class = numbers>S</div></div></button><button id = button_12 class = ""square num-button"" onclick = ""recordClick(this)""><div class = content><div class = numbers>Y</div></div></button><button class = clear_button id = ""ClearButton"" onclick = ""clearResponse()"">BACKSPACE</button><button class = blank_button id = ""BlankButton"" onclick = ""blankResponse()"">SKIP</button><p style=""font-size: 2.4rem""><u><b>Current Answer:</b></u></p><br><br><div id=echoed_txt style=""font-size: 5rem; color:blue;""><b></b></div></div>",enter,ospan,retrieval,AIZtOFMwBQVjZnZWGiPbB6pg70A2,html-keyboard-response,132,952889,0.0-46.0-4.0-1.0-2.0,12,12,12,5.0,"[""R"",""G"",""P"",""Y"",""K""]","[""R"",""G"",""P"",""Y"",""K""]",1.0,5.0,,,,,,,6147759141eeb37502a2967d,08:55:21,03/04/2024
2245.5999999046326,[''],0,ospan,feedback,AIZtOFMwBQVjZnZWGiPbB6pg70A2,html-button-response,133,955650,0.0-46.0-4.0-1.0-3.0,,,,,,,,,,,,100.0,0.0,,6147759141eeb37502a2967d,08:55:21,03/04/2024
,"<p style=""font-size:75px;"">...</p>",,ospan,iti,AIZtOFMwBQVjZnZWGiPbB6pg70A2,html-keyboard-response,134,956665,0.0-46.0-4.0-2.0-0.0,,,,,,,,,,,,,,,6147759141eeb37502a2967d,08:55:21,03/04/2024
3112.0,,,ospan,symmetry,AIZtOFMwBQVjZnZWGiPbB6pg70A2,symmetry-judgement-task,135,960850,0.0-46.0-4.0-2.0-1.0-0.0,,,,,,,,,,1.0,1.0,,,,6147759141eeb37502a2967d,08:55:21,03/04/2024
,"<div style=""font-size: 10rem; color: #0000FF"">K</div>",,ospan,letter,AIZtOFMwBQVjZnZWGiPbB6pg70A2,html-keyboard-response,136,961856,0.0-46.0-4.0-2.0-1.0-1.0,,,,,,,,,,,,,,,6147759141eeb37502a2967d,08:55:21,03/04/2024
1359.0,,,ospan,symmetry,AIZtOFMwBQVjZnZWGiPbB6pg70A2,symmetry-judgement-task,137,965147,0.0-46.0-4.0-2.0-1.0-2.0,,,,,,,,,,1.0,1.0,,,,6147759141eeb37502a2967d,08:55:21,03/04/2024
,"<div style=""font-size: 10rem; color: #0000FF"">Y</div>",,ospan,letter,AIZtOFMwBQVjZnZWGiPbB6pg70A2,html-keyboard-response,138,966163,0.0-46.0-4.0-2.0-1.0-3.0,,,,,,,,,,,,,,,6147759141eeb37502a2967d,08:55:21,03/04/2024
2703.0,,,ospan,symmetry,AIZtOFMwBQVjZnZWGiPbB6pg70A2,symmetry-judgement-task,139,970831,0.0-46.0-4.0-2.0-1.0-4.0,,,,,,,,,,1.0,1.0,,,,6147759141eeb37502a2967d,08:55:21,03/04/2024
,"<div style=""font-size: 10rem; color: #0000FF"">J</div>",,ospan,letter,AIZtOFMwBQVjZnZWGiPbB6pg70A2,html-keyboard-response,140,971839,0.0-46.0-4.0-2.0-1.0-5.0,,,,,,,,,,,,,,,6147759141eeb37502a2967d,08:55:21,03/04/2024
4655.700000047684,"<div class = numbox><p style=""font-size: 2.4rem"">Please recall the letters you saw to the best of your ability. If you do not remember a particular letter, use the SKIP button.<br><b>(When you are ready to lock in your answer, press ENTER)</b></p><button id = button_1 class = ""square num-button"" onclick = ""recordClick(this)""><div class = content><div class = numbers>C</div></div></button><button id = button_2 class = ""square num-button"" onclick = ""recordClick(this)""><div class = content><div class = numbers>G</div></div></button><button id = button_3 class = ""square num-button"" onclick = ""recordClick(this)""><div class = content><div class = numbers>H</div></div></button><button id = button_4 class = ""square num-button"" onclick = ""recordClick(this)""><div class = content><div class = numbers>J</div></div></button><button id = button_5 class = ""square num-button"" onclick = ""recordClick(this)""><div class = content><div class = numbers>K</div></div></button><button id = button_6 class = ""square num-button"" onclick = ""recordClick(this)""><div class = content><div class = numbers>L</div></div></button><button id = button_7 class = ""square num-button"" onclick = ""recordClick(this)""><div class = content><div class = numbers>N</div></div></button><button id = button_8 class = ""square num-button"" onclick = ""recordClick(this)""><div class = content><div class = numbers>P</div></div></button><button id = button_9 class = ""square num-button"" onclick = ""recordClick(this)""><div class = content><div class = numbers>Q</div></div></button><button id = button_10 class = ""square num-button"" onclick = ""recordClick(this)""><div class = content><div class = numbers>R</div></div></button><button id = button_11 class = ""square num-button"" onclick = ""recordClick(this)""><div class = content><div class = numbers>S</div></div></button><button id = button_12 class = ""square num-button"" onclick = ""recordClick(this)""><div class = content><div class = numbers>Y</div></div></button><button class = clear_button id = ""ClearButton"" onclick = ""clearResponse()"">BACKSPACE</button><button class = blank_button id = ""BlankButton"" onclick = ""blankResponse()"">SKIP</button><p style=""font-size: 2.4rem""><u><b>Current Answer:</b></u></p><br><br><div id=echoed_txt style=""font-size: 5rem; color:blue;""><b></b></div></div>",enter,ospan,retrieval,AIZtOFMwBQVjZnZWGiPbB6pg70A2,html-keyboard-response,141,977249,0.0-46.0-4.0-2.0-2.0,15,15,15,3.0,"[""K"",""Y"",""J""]","[""K"",""Y"",""J""]",1.0,3.0,,,,,,,6147759141eeb37502a2967d,08:55:21,03/04/2024
1971.5,[''],0,ospan,feedback,AIZtOFMwBQVjZnZWGiPbB6pg70A2,html-button-response,142,979735,0.0-46.0-4.0-2.0-3.0,,,,,,,,,,,,100.0,0.0,,6147759141eeb37502a2967d,08:55:21,03/04/2024
,"<p style=""font-size:75px;"">...</p>",,ospan,iti,AIZtOFMwBQVjZnZWGiPbB6pg70A2,html-keyboard-response,143,980743,0.0-46.0-5.0-0.0-0.0,,,,,,,,,,,,,,,6147759141eeb37502a2967d,08:55:21,03/04/2024
2634.0,,,ospan,symmetry,AIZtOFMwBQVjZnZWGiPbB6pg70A2,symmetry-judgement-task,144,984554,0.0-46.0-5.0-0.0-1.0-0.0,,,,,,,,,,1.0,1.0,,,,6147759141eeb37502a2967d,08:55:21,03/04/2024
,"<div style=""font-size: 10rem; color: #0000FF"">H</div>",,ospan,letter,AIZtOFMwBQVjZnZWGiPbB6pg70A2,html-keyboard-response,145,985560,0.0-46.0-5.0-0.0-1.0-1.0,,,,,,,,,,,,,,,6147759141eeb37502a2967d,08:55:21,03/04/2024
1829.0,,,ospan,symmetry,AIZtOFMwBQVjZnZWGiPbB6pg70A2,symmetry-judgement-task,146,989338,0.0-46.0-5.0-0.0-1.0-2.0,,,,,,,,,,1.0,1.0,,,,6147759141eeb37502a2967d,08:55:21,03/04/2024
,"<div style=""font-size: 10rem; color: #0000FF"">R</div>",,ospan,letter,AIZtOFMwBQVjZnZWGiPbB6pg70A2,html-keyboard-response,147,990342,0.0-46.0-5.0-0.0-1.0-3.0,,,,,,,,,,,,,,,6147759141eeb37502a2967d,08:55:21,03/04/2024
1987.0,,,ospan,symmetry,AIZtOFMwBQVjZnZWGiPbB6pg70A2,symmetry-judgement-task,148,994319,0.0-46.0-5.0-0.0-1.0-4.0,,,,,,,,,,1.0,1.0,,,,6147759141eeb37502a2967d,08:55:21,03/04/2024
,"<div style=""font-size: 10rem; color: #0000FF"">L</div>",,ospan,letter,AIZtOFMwBQVjZnZWGiPbB6pg70A2,html-keyboard-response,149,995321,0.0-46.0-5.0-0.0-1.0-5.0,,,,,,,,,,,,,,,6147759141eeb37502a2967d,08:55:21,03/04/2024
1770.0,,,ospan,symmetry,AIZtOFMwBQVjZnZWGiPbB6pg70A2,symmetry-judgement-task,150,999029,0.0-46.0-5.0-0.0-1.0-6.0,,,,,,,,,,1.0,1.0,,,,6147759141eeb37502a2967d,08:55:21,03/04/2024
,"<div style=""font-size: 10rem; color: #0000FF"">C</div>",,ospan,letter,AIZtOFMwBQVjZnZWGiPbB6pg70A2,html-keyboard-response,151,1000035,0.0-46.0-5.0-0.0-1.0-7.0,,,,,,,,,,,,,,,6147759141eeb37502a2967d,08:55:21,03/04/2024
2455.0,,,ospan,symmetry,AIZtOFMwBQVjZnZWGiPbB6pg70A2,symmetry-judgement-task,152,1004443,0.0-46.0-5.0-0.0-1.0-8.0,,,,,,,,,,1.0,1.0,,,,6147759141eeb37502a2967d,08:55:21,03/04/2024
,"<div style=""font-size: 10rem; color: #0000FF"">J</div>",,ospan,letter,AIZtOFMwBQVjZnZWGiPbB6pg70A2,html-keyboard-response,153,1005454,0.0-46.0-5.0-0.0-1.0-9.0,,,,,,,,,,,,,,,6147759141eeb37502a2967d,08:55:21,03/04/2024
7038.0,,,ospan,symmetry,AIZtOFMwBQVjZnZWGiPbB6pg70A2,symmetry-judgement-task,154,1014474,0.0-46.0-5.0-0.0-1.0-10.0,,,,,,,,,,1.0,1.0,,,,6147759141eeb37502a2967d,08:55:21,03/04/2024
,"<div style=""font-size: 10rem; color: #0000FF"">Q</div>",,ospan,letter,AIZtOFMwBQVjZnZWGiPbB6pg70A2,html-keyboard-response,155,1015484,0.0-46.0-5.0-0.0-1.0-11.0,,,,,,,,,,,,,,,6147759141eeb37502a2967d,08:55:21,03/04/2024
34251.299999952316,"<div class = numbox><p style=""font-size: 2.4rem"">Please recall the letters you saw to the best of your ability. If you do not remember a particular letter, use the SKIP button.<br><b>(When you are ready to lock in your answer, press ENTER)</b></p><button id = button_1 class = ""square num-button"" onclick = ""recordClick(this)""><div class = content><div class = numbers>C</div></div></button><button id = button_2 class = ""square num-button"" onclick = ""recordClick(this)""><div class = content><div class = numbers>G</div></div></button><button id = button_3 class = ""square num-button"" onclick = ""recordClick(this)""><div class = content><div class = numbers>H</div></div></button><button id = button_4 class = ""square num-button"" onclick = ""recordClick(this)""><div class = content><div class = numbers>J</div></div></button><button id = button_5 class = ""square num-button"" onclick = ""recordClick(this)""><div class = content><div class = numbers>K</div></div></button><button id = button_6 class = ""square num-button"" onclick = ""recordClick(this)""><div class = content><div class = numbers>L</div></div></button><button id = button_7 class = ""square num-button"" onclick = ""recordClick(this)""><div class = content><div class = numbers>N</div></div></button><button id = button_8 class = ""square num-button"" onclick = ""recordClick(this)""><div class = content><div class = numbers>P</div></div></button><button id = button_9 class = ""square num-button"" onclick = ""recordClick(this)""><div class = content><div class = numbers>Q</div></div></button><button id = button_10 class = ""square num-button"" onclick = ""recordClick(this)""><div class = content><div class = numbers>R</div></div></button><button id = button_11 class = ""square num-button"" onclick = ""recordClick(this)""><div class = content><div class = numbers>S</div></div></button><button id = button_12 class = ""square num-button"" onclick = ""recordClick(this)""><div class = content><div class = numbers>Y</div></div></button><button class = clear_button id = ""ClearButton"" onclick = ""clearResponse()"">BACKSPACE</button><button class = blank_button id = ""BlankButton"" onclick = ""blankResponse()"">SKIP</button><p style=""font-size: 2.4rem""><u><b>Current Answer:</b></u></p><br><br><div id=echoed_txt style=""font-size: 5rem; color:blue;""><b></b></div></div>",enter,ospan,retrieval,AIZtOFMwBQVjZnZWGiPbB6pg70A2,html-keyboard-response,156,1050492,0.0-46.0-5.0-0.0-2.0,21,16,15,6.0,"[""H"",""G"",""R"",""K"",""_""]","[""H"",""R"",""L"",""C"",""J"",""Q""]",0.0,1.0,,,,,,,6147759141eeb37502a2967d,08:55:21,03/04/2024
6492.200000047684,[''],0,ospan,feedback,AIZtOFMwBQVjZnZWGiPbB6pg70A2,html-button-response,157,1057492,0.0-46.0-5.0-0.0-3.0,,,,,,,,,,,,100.0,0.0,,6147759141eeb37502a2967d,08:55:21,03/04/2024
,"<p style=""font-size:75px;"">...</p>",,ospan,iti,AIZtOFMwBQVjZnZWGiPbB6pg70A2,html-keyboard-response,158,1058496,0.0-46.0-5.0-1.0-0.0,,,,,,,,,,,,,,,6147759141eeb37502a2967d,08:55:21,03/04/2024
3370.0,,,ospan,symmetry,AIZtOFMwBQVjZnZWGiPbB6pg70A2,symmetry-judgement-task,159,1063062,0.0-46.0-5.0-1.0-1.0-0.0,,,,,,,,,,1.0,1.0,,,,6147759141eeb37502a2967d,08:55:21,03/04/2024
,"<div style=""font-size: 10rem; color: #0000FF"">Q</div>",,ospan,letter,AIZtOFMwBQVjZnZWGiPbB6pg70A2,html-keyboard-response,160,1064068,0.0-46.0-5.0-1.0-1.0-1.0,,,,,,,,,,,,,,,6147759141eeb37502a2967d,08:55:21,03/04/2024
2191.0,,,ospan,symmetry,AIZtOFMwBQVjZnZWGiPbB6pg70A2,symmetry-judgement-task,161,1068211,0.0-46.0-5.0-1.0-1.0-2.0,,,,,,,,,,1.0,1.0,,,,6147759141eeb37502a2967d,08:55:21,03/04/2024
,"<div style=""font-size: 10rem; color: #0000FF"">P</div>",,ospan,letter,AIZtOFMwBQVjZnZWGiPbB6pg70A2,html-keyboard-response,162,1069216,0.0-46.0-5.0-1.0-1.0-3.0,,,,,,,,,,,,,,,6147759141eeb37502a2967d,08:55:21,03/04/2024
2928.0,,,ospan,symmetry,AIZtOFMwBQVjZnZWGiPbB6pg70A2,symmetry-judgement-task,163,1074100,0.0-46.0-5.0-1.0-1.0-4.0,,,,,,,,,,1.0,1.0,,,,6147759141eeb37502a2967d,08:55:21,03/04/2024
,"<div style=""font-size: 10rem; color: #0000FF"">C</div>",,ospan,letter,AIZtOFMwBQVjZnZWGiPbB6pg70A2,html-keyboard-response,164,1075106,0.0-46.0-5.0-1.0-1.0-5.0,,,,,,,,,,,,,,,6147759141eeb37502a2967d,08:55:21,03/04/2024
2273.0,,,ospan,symmetry,AIZtOFMwBQVjZnZWGiPbB6pg70A2,symmetry-judgement-task,165,1079387,0.0-46.0-5.0-1.0-1.0-6.0,,,,,,,,,,1.0,1.0,,,,6147759141eeb37502a2967d,08:55:21,03/04/2024
,"<div style=""font-size: 10rem; color: #0000FF"">K</div>",,ospan,letter,AIZtOFMwBQVjZnZWGiPbB6pg70A2,html-keyboard-response,166,1080395,0.0-46.0-5.0-1.0-1.0-7.0,,,,,,,,,,,,,,,6147759141eeb37502a2967d,08:55:21,03/04/2024
1841.0,,,ospan,symmetry,AIZtOFMwBQVjZnZWGiPbB6pg70A2,symmetry-judgement-task,167,1084195,0.0-46.0-5.0-1.0-1.0-8.0,,,,,,,,,,1.0,1.0,,,,6147759141eeb37502a2967d,08:55:21,03/04/2024
,"<div style=""font-size: 10rem; color: #0000FF"">R</div>",,ospan,letter,AIZtOFMwBQVjZnZWGiPbB6pg70A2,html-keyboard-response,168,1085203,0.0-46.0-5.0-1.0-1.0-9.0,,,,,,,,,,,,,,,6147759141eeb37502a2967d,08:55:21,03/04/2024
2189.0,,,ospan,symmetry,AIZtOFMwBQVjZnZWGiPbB6pg70A2,symmetry-judgement-task,169,1089331,0.0-46.0-5.0-1.0-1.0-10.0,,,,,,,,,,1.0,1.0,,,,6147759141eeb37502a2967d,08:55:21,03/04/2024
,"<div style=""font-size: 10rem; color: #0000FF"">S</div>",,ospan,letter,AIZtOFMwBQVjZnZWGiPbB6pg70A2,html-keyboard-response,170,1090335,0.0-46.0-5.0-1.0-1.0-11.0,,,,,,,,,,,,,,,6147759141eeb37502a2967d,08:55:21,03/04/2024
4710.0,,,ospan,symmetry,AIZtOFMwBQVjZnZWGiPbB6pg70A2,symmetry-judgement-task,171,1096984,0.0-46.0-5.0-1.0-1.0-12.0,,,,,,,,,,1.0,1.0,,,,6147759141eeb37502a2967d,08:55:21,03/04/2024
,"<div style=""font-size: 10rem; color: #0000FF"">J</div>",,ospan,letter,AIZtOFMwBQVjZnZWGiPbB6pg70A2,html-keyboard-response,172,1097990,0.0-46.0-5.0-1.0-1.0-13.0,,,,,,,,,,,,,,,6147759141eeb37502a2967d,08:55:21,03/04/2024
16504.700000047684,"<div class = numbox><p style=""font-size: 2.4rem"">Please recall the letters you saw to the best of your ability. If you do not remember a particular letter, use the SKIP button.<br><b>(When you are ready to lock in your answer, press ENTER)</b></p><button id = button_1 class = ""square num-button"" onclick = ""recordClick(this)""><div class = content><div class = numbers>C</div></div></button><button id = button_2 class = ""square num-button"" onclick = ""recordClick(this)""><div class = content><div class = numbers>G</div></div></button><button id = button_3 class = ""square num-button"" onclick = ""recordClick(this)""><div class = content><div class = numbers>H</div></div></button><button id = button_4 class = ""square num-button"" onclick = ""recordClick(this)""><div class = content><div class = numbers>J</div></div></button><button id = button_5 class = ""square num-button"" onclick = ""recordClick(this)""><div class = content><div class = numbers>K</div></div></button><button id = button_6 class = ""square num-button"" onclick = ""recordClick(this)""><div class = content><div class = numbers>L</div></div></button><button id = button_7 class = ""square num-button"" onclick = ""recordClick(this)""><div class = content><div class = numbers>N</div></div></button><button id = button_8 class = ""square num-button"" onclick = ""recordClick(this)""><div class = content><div class = numbers>P</div></div></button><button id = button_9 class = ""square num-button"" onclick = ""recordClick(this)""><div class = content><div class = numbers>Q</div></div></button><button id = button_10 class = ""square num-button"" onclick = ""recordClick(this)""><div class = content><div class = numbers>R</div></div></button><button id = button_11 class = ""square num-button"" onclick = ""recordClick(this)""><div class = content><div class = numbers>S</div></div></button><button id = button_12 class = ""square num-button"" onclick = ""recordClick(this)""><div class = content><div class = numbers>Y</div></div></button><button class = clear_button id = ""ClearButton"" onclick = ""clearResponse()"">BACKSPACE</button><button class = blank_button id = ""BlankButton"" onclick = ""blankResponse()"">SKIP</button><p style=""font-size: 2.4rem""><u><b>Current Answer:</b></u></p><br><br><div id=echoed_txt style=""font-size: 5rem; color:blue;""><b></b></div></div>",enter,ospan,retrieval,AIZtOFMwBQVjZnZWGiPbB6pg70A2,html-keyboard-response,173,1115250,0.0-46.0-5.0-1.0-2.0,28,18,15,7.0,"[""Q"",""P"",""S"",""R"",""L"",""J""]","[""Q"",""P"",""C"",""K"",""R"",""S"",""J""]",0.0,2.0,,,,,,,6147759141eeb37502a2967d,08:55:21,03/04/2024
6943.299999952316,[''],0,ospan,feedback,AIZtOFMwBQVjZnZWGiPbB6pg70A2,html-button-response,174,1122698,0.0-46.0-5.0-1.0-3.0,,,,,,,,,,,,100.0,0.0,,6147759141eeb37502a2967d,08:55:21,03/04/2024
,"<p style=""font-size:75px;"">...</p>",,ospan,iti,AIZtOFMwBQVjZnZWGiPbB6pg70A2,html-keyboard-response,175,1123703,0.0-46.0-6.0-0.0-0.0,,,,,,,,,,,,,,,6147759141eeb37502a2967d,08:55:21,03/04/2024
3429.0,,,ospan,symmetry,AIZtOFMwBQVjZnZWGiPbB6pg70A2,symmetry-judgement-task,176,1128315,0.0-46.0-6.0-0.0-1.0-0.0,,,,,,,,,,1.0,1.0,,,,6147759141eeb37502a2967d,08:55:21,03/04/2024
,"<div style=""font-size: 10rem; color: #0000FF"">P</div>",,ospan,letter,AIZtOFMwBQVjZnZWGiPbB6pg70A2,html-keyboard-response,177,1129317,0.0-46.0-6.0-0.0-1.0-1.0,,,,,,,,,,,,,,,6147759141eeb37502a2967d,08:55:21,03/04/2024
1899.0,,,ospan,symmetry,AIZtOFMwBQVjZnZWGiPbB6pg70A2,symmetry-judgement-task,178,1133147,0.0-46.0-6.0-0.0-1.0-2.0,,,,,,,,,,1.0,1.0,,,,6147759141eeb37502a2967d,08:55:21,03/04/2024
,"<div style=""font-size: 10rem; color: #0000FF"">K</div>",,ospan,letter,AIZtOFMwBQVjZnZWGiPbB6pg70A2,html-keyboard-response,179,1134154,0.0-46.0-6.0-0.0-1.0-3.0,,,,,,,,,,,,,,,6147759141eeb37502a2967d,08:55:21,03/04/2024
1596.0,,,ospan,symmetry,AIZtOFMwBQVjZnZWGiPbB6pg70A2,symmetry-judgement-task,180,1137710,0.0-46.0-6.0-0.0-1.0-4.0,,,,,,,,,,1.0,1.0,,,,6147759141eeb37502a2967d,08:55:21,03/04/2024
,"<div style=""font-size: 10rem; color: #0000FF"">L</div>",,ospan,letter,AIZtOFMwBQVjZnZWGiPbB6pg70A2,html-keyboard-response,181,1138717,0.0-46.0-6.0-0.0-1.0-5.0,,,,,,,,,,,,,,,6147759141eeb37502a2967d,08:55:21,03/04/2024
1561.0,,,ospan,symmetry,AIZtOFMwBQVjZnZWGiPbB6pg70A2,symmetry-judgement-task,182,1142228,0.0-46.0-6.0-0.0-1.0-6.0,,,,,,,,,,1.0,1.0,,,,6147759141eeb37502a2967d,08:55:21,03/04/2024
,"<div style=""font-size: 10rem; color: #0000FF"">Q</div>",,ospan,letter,AIZtOFMwBQVjZnZWGiPbB6pg70A2,html-keyboard-response,183,1143235,0.0-46.0-6.0-0.0-1.0-7.0,,,,,,,,,,,,,,,6147759141eeb37502a2967d,08:55:21,03/04/2024
3981.0,,,ospan,symmetry,AIZtOFMwBQVjZnZWGiPbB6pg70A2,symmetry-judgement-task,184,1149173,0.0-46.0-6.0-0.0-1.0-8.0,,,,,,,,,,1.0,1.0,,,,6147759141eeb37502a2967d,08:55:21,03/04/2024
,"<div style=""font-size: 10rem; color: #0000FF"">Y</div>",,ospan,letter,AIZtOFMwBQVjZnZWGiPbB6pg70A2,html-keyboard-response,185,1150180,0.0-46.0-6.0-0.0-1.0-9.0,,,,,,,,,,,,,,,6147759141eeb37502a2967d,08:55:21,03/04/2024
13772.0,"<div class = numbox><p style=""font-size: 2.4rem"">Please recall the letters you saw to the best of your ability. If you do not remember a particular letter, use the SKIP button.<br><b>(When you are ready to lock in your answer, press ENTER)</b></p><button id = button_1 class = ""square num-button"" onclick = ""recordClick(this)""><div class = content><div class = numbers>C</div></div></button><button id = button_2 class = ""square num-button"" onclick = ""recordClick(this)""><div class = content><div class = numbers>G</div></div></button><button id = button_3 class = ""square num-button"" onclick = ""recordClick(this)""><div class = content><div class = numbers>H</div></div></button><button id = button_4 class = ""square num-button"" onclick = ""recordClick(this)""><div class = content><div class = numbers>J</div></div></button><button id = button_5 class = ""square num-button"" onclick = ""recordClick(this)""><div class = content><div class = numbers>K</div></div></button><button id = button_6 class = ""square num-button"" onclick = ""recordClick(this)""><div class = content><div class = numbers>L</div></div></button><button id = button_7 class = ""square num-button"" onclick = ""recordClick(this)""><div class = content><div class = numbers>N</div></div></button><button id = button_8 class = ""square num-button"" onclick = ""recordClick(this)""><div class = content><div class = numbers>P</div></div></button><button id = button_9 class = ""square num-button"" onclick = ""recordClick(this)""><div class = content><div class = numbers>Q</div></div></button><button id = button_10 class = ""square num-button"" onclick = ""recordClick(this)""><div class = content><div class = numbers>R</div></div></button><button id = button_11 class = ""square num-button"" onclick = ""recordClick(this)""><div class = content><div class = numbers>S</div></div></button><button id = button_12 class = ""square num-button"" onclick = ""recordClick(this)""><div class = content><div class = numbers>Y</div></div></button><button class = clear_button id = ""ClearButton"" onclick = ""clearResponse()"">BACKSPACE</button><button class = blank_button id = ""BlankButton"" onclick = ""blankResponse()"">SKIP</button><p style=""font-size: 2.4rem""><u><b>Current Answer:</b></u></p><br><br><div id=echoed_txt style=""font-size: 5rem; color:blue;""><b></b></div></div>",enter,ospan,retrieval,AIZtOFMwBQVjZnZWGiPbB6pg70A2,html-keyboard-response,186,1164711,0.0-46.0-6.0-0.0-2.0,33,18,15,5.0,"[""Q"",""P"",""R"",""L"",""_""]","[""P"",""K"",""L"",""Q"",""Y""]",0.0,0.0,,,,,,,6147759141eeb37502a2967d,08:55:21,03/04/2024
1743.3999998569489,[''],0,ospan,feedback,AIZtOFMwBQVjZnZWGiPbB6pg70A2,html-button-response,187,1166957,0.0-46.0-6.0-0.0-3.0,,,,,,,,,,,,100.0,0.0,,6147759141eeb37502a2967d,08:55:21,03/04/2024
,"<p style=""font-size:75px;"">...</p>",,ospan,iti,AIZtOFMwBQVjZnZWGiPbB6pg70A2,html-keyboard-response,188,1167965,0.0-46.0-6.0-1.0-0.0,,,,,,,,,,,,,,,6147759141eeb37502a2967d,08:55:21,03/04/2024
1554.0,,,ospan,symmetry,AIZtOFMwBQVjZnZWGiPbB6pg70A2,symmetry-judgement-task,189,1170722,0.0-46.0-6.0-1.0-1.0-0.0,,,,,,,,,,1.0,1.0,,,,6147759141eeb37502a2967d,08:55:21,03/04/2024
,"<div style=""font-size: 10rem; color: #0000FF"">Q</div>",,ospan,letter,AIZtOFMwBQVjZnZWGiPbB6pg70A2,html-keyboard-response,190,1171728,0.0-46.0-6.0-1.0-1.0-1.0,,,,,,,,,,,,,,,6147759141eeb37502a2967d,08:55:21,03/04/2024
1298.0,,,ospan,symmetry,AIZtOFMwBQVjZnZWGiPbB6pg70A2,symmetry-judgement-task,191,1174971,0.0-46.0-6.0-1.0-1.0-2.0,,,,,,,,,,1.0,1.0,,,,6147759141eeb37502a2967d,08:55:21,03/04/2024
,"<div style=""font-size: 10rem; color: #0000FF"">S</div>",,ospan,letter,AIZtOFMwBQVjZnZWGiPbB6pg70A2,html-keyboard-response,192,1175980,0.0-46.0-6.0-1.0-1.0-3.0,,,,,,,,,,,,,,,6147759141eeb37502a2967d,08:55:21,03/04/2024
3766.0,,,ospan,symmetry,AIZtOFMwBQVjZnZWGiPbB6pg70A2,symmetry-judgement-task,193,1181690,0.0-46.0-6.0-1.0-1.0-4.0,,,,,,,,,,1.0,1.0,,,,6147759141eeb37502a2967d,08:55:21,03/04/2024
,"<div style=""font-size: 10rem; color: #0000FF"">J</div>",,ospan,letter,AIZtOFMwBQVjZnZWGiPbB6pg70A2,html-keyboard-response,194,1182696,0.0-46.0-6.0-1.0-1.0-5.0,,,,,,,,,,,,,,,6147759141eeb37502a2967d,08:55:21,03/04/2024
3435.0,,,ospan,symmetry,AIZtOFMwBQVjZnZWGiPbB6pg70A2,symmetry-judgement-task,195,1188064,0.0-46.0-6.0-1.0-1.0-6.0,,,,,,,,,,1.0,1.0,,,,6147759141eeb37502a2967d,08:55:21,03/04/2024
,"<div style=""font-size: 10rem; color: #0000FF"">C</div>",,ospan,letter,AIZtOFMwBQVjZnZWGiPbB6pg70A2,html-keyboard-response,196,1189073,0.0-46.0-6.0-1.0-1.0-7.0,,,,,,,,,,,,,,,6147759141eeb37502a2967d,08:55:21,03/04/2024
2984.0,,,ospan,symmetry,AIZtOFMwBQVjZnZWGiPbB6pg70A2,symmetry-judgement-task,197,1194007,0.0-46.0-6.0-1.0-1.0-8.0,,,,,,,,,,1.0,1.0,,,,6147759141eeb37502a2967d,08:55:21,03/04/2024
,"<div style=""font-size: 10rem; color: #0000FF"">H</div>",,ospan,letter,AIZtOFMwBQVjZnZWGiPbB6pg70A2,html-keyboard-response,198,1195011,0.0-46.0-6.0-1.0-1.0-9.0,,,,,,,,,,,,,,,6147759141eeb37502a2967d,08:55:21,03/04/2024
1560.0,,,ospan,symmetry,AIZtOFMwBQVjZnZWGiPbB6pg70A2,symmetry-judgement-task,199,1198508,0.0-46.0-6.0-1.0-1.0-10.0,,,,,,,,,,1.0,1.0,,,,6147759141eeb37502a2967d,08:55:21,03/04/2024
,"<div style=""font-size: 10rem; color: #0000FF"">N</div>",,ospan,letter,AIZtOFMwBQVjZnZWGiPbB6pg70A2,html-keyboard-response,200,1199509,0.0-46.0-6.0-1.0-1.0-11.0,,,,,,,,,,,,,,,6147759141eeb37502a2967d,08:55:21,03/04/2024
3362.0,,,ospan,symmetry,AIZtOFMwBQVjZnZWGiPbB6pg70A2,symmetry-judgement-task,201,1204832,0.0-46.0-6.0-1.0-1.0-12.0,,,,,,,,,,0.0,0.0,,,,6147759141eeb37502a2967d,08:55:21,03/04/2024
,"<div style=""font-size: 10rem; color: #0000FF"">P</div>",,ospan,letter,AIZtOFMwBQVjZnZWGiPbB6pg70A2,html-keyboard-response,202,1205841,0.0-46.0-6.0-1.0-1.0-13.0,,,,,,,,,,,,,,,6147759141eeb37502a2967d,08:55:21,03/04/2024
2248.0,,,ospan,symmetry,AIZtOFMwBQVjZnZWGiPbB6pg70A2,symmetry-judgement-task,203,1210027,0.0-46.0-6.0-1.0-1.0-14.0,,,,,,,,,,1.0,1.0,,,,6147759141eeb37502a2967d,08:55:21,03/04/2024
,"<div style=""font-size: 10rem; color: #0000FF"">K</div>",,ospan,letter,AIZtOFMwBQVjZnZWGiPbB6pg70A2,html-keyboard-response,204,1211035,0.0-46.0-6.0-1.0-1.0-15.0,,,,,,,,,,,,,,,6147759141eeb37502a2967d,08:55:21,03/04/2024
33234.90000009537,"<div class = numbox><p style=""font-size: 2.4rem"">Please recall the letters you saw to the best of your ability. If you do not remember a particular letter, use the SKIP button.<br><b>(When you are ready to lock in your answer, press ENTER)</b></p><button id = button_1 class = ""square num-button"" onclick = ""recordClick(this)""><div class = content><div class = numbers>C</div></div></button><button id = button_2 class = ""square num-button"" onclick = ""recordClick(this)""><div class = content><div class = numbers>G</div></div></button><button id = button_3 class = ""square num-button"" onclick = ""recordClick(this)""><div class = content><div class = numbers>H</div></div></button><button id = button_4 class = ""square num-button"" onclick = ""recordClick(this)""><div class = content><div class = numbers>J</div></div></button><button id = button_5 class = ""square num-button"" onclick = ""recordClick(this)""><div class = content><div class = numbers>K</div></div></button><button id = button_6 class = ""square num-button"" onclick = ""recordClick(this)""><div class = content><div class = numbers>L</div></div></button><button id = button_7 class = ""square num-button"" onclick = ""recordClick(this)""><div class = content><div class = numbers>N</div></div></button><button id = button_8 class = ""square num-button"" onclick = ""recordClick(this)""><div class = content><div class = numbers>P</div></div></button><button id = button_9 class = ""square num-button"" onclick = ""recordClick(this)""><div class = content><div class = numbers>Q</div></div></button><button id = button_10 class = ""square num-button"" onclick = ""recordClick(this)""><div class = content><div class = numbers>R</div></div></button><button id = button_11 class = ""square num-button"" onclick = ""recordClick(this)""><div class = content><div class = numbers>S</div></div></button><button id = button_12 class = ""square num-button"" onclick = ""recordClick(this)""><div class = content><div class = numbers>Y</div></div></button><button class = clear_button id = ""ClearButton"" onclick = ""clearResponse()"">BACKSPACE</button><button class = blank_button id = ""BlankButton"" onclick = ""blankResponse()"">SKIP</button><p style=""font-size: 2.4rem""><u><b>Current Answer:</b></u></p><br><br><div id=echoed_txt style=""font-size: 5rem; color:blue;""><b></b></div></div>",enter,ospan,retrieval,AIZtOFMwBQVjZnZWGiPbB6pg70A2,html-keyboard-response,205,1245026,0.0-46.0-6.0-1.0-2.0,41,21,15,8.0,"[""Q"",""S"",""J"",""H"",""_"",""_""]","[""Q"",""S"",""J"",""C"",""H"",""N"",""P"",""K""]",0.0,3.0,,,,,,,6147759141eeb37502a2967d,08:55:21,03/04/2024
1388.5999999046326,[''],0,ospan,feedback,AIZtOFMwBQVjZnZWGiPbB6pg70A2,html-button-response,206,1246931,0.0-46.0-6.0-1.0-3.0,,,,,,,,,,,,98.0,0.0,,6147759141eeb37502a2967d,08:55:21,03/04/2024
49483.10000014305,,"{'Q0': 'Clear instructions, enjoyed having to focus and try to use memory whilst concentrating on two things at once.'}",ospan,survey_ospan,AIZtOFMwBQVjZnZWGiPbB6pg70A2,lmdlab-survey-text,207,1297176,0.0-46.0-7.0,,,,,,,,,,,,,,AIZtOFMwBQVjZnZWGiPbB6pg70A2,6147759141eeb37502a2967d,08:55:21,03/04/2024
1833.3999998569489,<p><p style='font-size: 3rem'>Great work!<br><br>This completes the symmetry and memory task.</p><br><br><br>,0,ospan,finish,AIZtOFMwBQVjZnZWGiPbB6pg70A2,html-button-response,208,1299016,0.0-46.0-8.0,41,21,15,,,,,,,,,98.0,,,6147759141eeb37502a2967d,08:55:21,03/04/2024
