rt,stimulus,response,exp_name,exp_stage,subjectID,trial_type,trial_index,time_elapsed,internal_node_id,ospan_shown,ospan_total,ospan_abs,length,resp_actual,resp_correct,full_correct,num_correct,feedback,accuracy,correct,math_acc,math_warning,databaseID,prolificID,start_time,date
3110.6999999955297,<div class = 'left_align' style='font-size: 3.25rem; line-height: 1.3;'><p class = 'center_align'><b>Welcome to the Symmetry and Memory Task</b><br><br><br><br></p>Press 'continue' to show the instructions.<br><br><br><br></div>,0,ospan,instruct,qTjntU45ZOh1SKObxkoZGWVbuil2,html-button-response,54,477627,0.0-46.0-0.0-0.0-0.0,,,,,,,,,,,,,,,64402288403028bd9abd98a7,19:37:23,03/04/2024
14186.39999999851,"<div class = 'left_align' style='font-size: 3.25rem; line-height: 1.3;'><p class = 'center_align'><b>Symmetry and Memory Task</b><br><br></p>In this task, you will try to memorize letters you see on the screen<br>while you also view black and white grid pictures.<br><br>In the next few minutes, you will have some practice to get you familiar<br>with how the task works.<br><br>It may be difficult sometimes, but please do not worry about making mistakes!<br><br>We will begin by practicing the letter part of the task.<br><br><br><br></div>",0,ospan,instruct,qTjntU45ZOh1SKObxkoZGWVbuil2,html-button-response,55,492077,0.0-46.0-0.0-0.0-1.0,,,,,,,,,,,,,,,64402288403028bd9abd98a7,19:37:23,03/04/2024
53945.09999999404,"<div class = 'left_align' style='font-size: 3.25rem; line-height: 1.3;'>For this practice part, letters will appear on the screen one at a time.<br><br>Try to remember each letter in the order presented.<br><br>After some letters have been shown, you will see a response screen. Your<br>goal is to report the letters you saw <b>in order</b>. If you do not remember<br>a particular letter, you will have the option to leave it blank.<br><br><br><br></div>",0,ospan,instruct,qTjntU45ZOh1SKObxkoZGWVbuil2,html-button-response,56,546278,0.0-46.0-0.0-0.0-2.0,,,,,,,,,,,,,,,64402288403028bd9abd98a7,19:37:23,03/04/2024
2749.89999999851,"<div class = 'left_align' style='font-size: 3.25rem; line-height: 1.3;'>Remember, it is very important to get the letters in the same<br>order as you see them.<br><br>When you are ready, you may begin the letter practice.</div><br><br><br><br>",0,ospan,instruct,qTjntU45ZOh1SKObxkoZGWVbuil2,html-button-response,57,549280,0.0-46.0-0.0-0.0-3.0,,,,,,,,,,,,,,,64402288403028bd9abd98a7,19:37:23,03/04/2024
,"<p style=""font-size:75px;"">...</p>",,ospan,iti,qTjntU45ZOh1SKObxkoZGWVbuil2,html-keyboard-response,58,550552,0.0-46.0-0.0-1.0-0.0,,,,,,,,,,,,,,,64402288403028bd9abd98a7,19:37:23,03/04/2024
,"<div style=""font-size: 10rem; color: #0000FF"">L</div>",,ospan,letter,qTjntU45ZOh1SKObxkoZGWVbuil2,html-keyboard-response,59,551569,0.0-46.0-0.0-1.0-1.0,,,,,,,,,,,,,,,64402288403028bd9abd98a7,19:37:23,03/04/2024
,"<div style=""font-size: 10rem; color: #0000FF"">C</div>",,ospan,letter,qTjntU45ZOh1SKObxkoZGWVbuil2,html-keyboard-response,60,553345,0.0-46.0-0.0-1.0-2.0,,,,,,,,,,,,,,,64402288403028bd9abd98a7,19:37:23,03/04/2024
14039.09999999404,"<div class = numbox><p style=""font-size: 2.4rem"">Please recall the letters you saw to the best of your ability. If you do not remember a particular letter, use the SKIP button.<br><b>(When you are ready to lock in your answer, press ENTER)</b></p><button id = button_1 class = ""square num-button"" onclick = ""recordClick(this)""><div class = content><div class = numbers>C</div></div></button><button id = button_2 class = ""square num-button"" onclick = ""recordClick(this)""><div class = content><div class = numbers>G</div></div></button><button id = button_3 class = ""square num-button"" onclick = ""recordClick(this)""><div class = content><div class = numbers>H</div></div></button><button id = button_4 class = ""square num-button"" onclick = ""recordClick(this)""><div class = content><div class = numbers>J</div></div></button><button id = button_5 class = ""square num-button"" onclick = ""recordClick(this)""><div class = content><div class = numbers>K</div></div></button><button id = button_6 class = ""square num-button"" onclick = ""recordClick(this)""><div class = content><div class = numbers>L</div></div></button><button id = button_7 class = ""square num-button"" onclick = ""recordClick(this)""><div class = content><div class = numbers>N</div></div></button><button id = button_8 class = ""square num-button"" onclick = ""recordClick(this)""><div class = content><div class = numbers>P</div></div></button><button id = button_9 class = ""square num-button"" onclick = ""recordClick(this)""><div class = content><div class = numbers>Q</div></div></button><button id = button_10 class = ""square num-button"" onclick = ""recordClick(this)""><div class = content><div class = numbers>R</div></div></button><button id = button_11 class = ""square num-button"" onclick = ""recordClick(this)""><div class = content><div class = numbers>S</div></div></button><button id = button_12 class = ""square num-button"" onclick = ""recordClick(this)""><div class = content><div class = numbers>Y</div></div></button><button class = clear_button id = ""ClearButton"" onclick = ""clearResponse()"">BACKSPACE</button><button class = blank_button id = ""BlankButton"" onclick = ""blankResponse()"">SKIP</button><p style=""font-size: 2.4rem""><u><b>Current Answer:</b></u></p><br><br><div id=echoed_txt style=""font-size: 5rem; color:blue;""><b></b></div></div>",enter,ospan,retrieval,qTjntU45ZOh1SKObxkoZGWVbuil2,html-keyboard-response,61,568154,0.0-46.0-0.0-1.0-3.0,NA,NA,NA,2.0,"[""L"",""C""]","[""L"",""C""]",1.0,2.0,"['<font color=""green"">L</font>', '<font color=""green"">C</font>']",,,,,,64402288403028bd9abd98a7,19:37:23,03/04/2024
1334.5,"['<p style=""font-size:44px"">Letters:<br><br><br><font color=""green"">L</font> <font color=""green"">C</font></p><br><br>']",0,ospan,practice_feedback,qTjntU45ZOh1SKObxkoZGWVbuil2,html-button-response,62,569993,0.0-46.0-0.0-1.0-4.0,,,,,,,,,,,,,,,64402288403028bd9abd98a7,19:37:23,03/04/2024
,"<p style=""font-size:75px;"">...</p>",,ospan,iti,qTjntU45ZOh1SKObxkoZGWVbuil2,html-keyboard-response,63,571008,0.0-46.0-0.0-2.0-0.0,,,,,,,,,,,,,,,64402288403028bd9abd98a7,19:37:23,03/04/2024
,"<div style=""font-size: 10rem; color: #0000FF"">Y</div>",,ospan,letter,qTjntU45ZOh1SKObxkoZGWVbuil2,html-keyboard-response,64,572032,0.0-46.0-0.0-2.0-1.0,,,,,,,,,,,,,,,64402288403028bd9abd98a7,19:37:23,03/04/2024
,"<div style=""font-size: 10rem; color: #0000FF"">S</div>",,ospan,letter,qTjntU45ZOh1SKObxkoZGWVbuil2,html-keyboard-response,65,573809,0.0-46.0-0.0-2.0-2.0,,,,,,,,,,,,,,,64402288403028bd9abd98a7,19:37:23,03/04/2024
,"<div style=""font-size: 10rem; color: #0000FF"">K</div>",,ospan,letter,qTjntU45ZOh1SKObxkoZGWVbuil2,html-keyboard-response,66,575575,0.0-46.0-0.0-2.0-3.0,,,,,,,,,,,,,,,64402288403028bd9abd98a7,19:37:23,03/04/2024
5329.30000000447,"<div class = numbox><p style=""font-size: 2.4rem"">Please recall the letters you saw to the best of your ability. If you do not remember a particular letter, use the SKIP button.<br><b>(When you are ready to lock in your answer, press ENTER)</b></p><button id = button_1 class = ""square num-button"" onclick = ""recordClick(this)""><div class = content><div class = numbers>C</div></div></button><button id = button_2 class = ""square num-button"" onclick = ""recordClick(this)""><div class = content><div class = numbers>G</div></div></button><button id = button_3 class = ""square num-button"" onclick = ""recordClick(this)""><div class = content><div class = numbers>H</div></div></button><button id = button_4 class = ""square num-button"" onclick = ""recordClick(this)""><div class = content><div class = numbers>J</div></div></button><button id = button_5 class = ""square num-button"" onclick = ""recordClick(this)""><div class = content><div class = numbers>K</div></div></button><button id = button_6 class = ""square num-button"" onclick = ""recordClick(this)""><div class = content><div class = numbers>L</div></div></button><button id = button_7 class = ""square num-button"" onclick = ""recordClick(this)""><div class = content><div class = numbers>N</div></div></button><button id = button_8 class = ""square num-button"" onclick = ""recordClick(this)""><div class = content><div class = numbers>P</div></div></button><button id = button_9 class = ""square num-button"" onclick = ""recordClick(this)""><div class = content><div class = numbers>Q</div></div></button><button id = button_10 class = ""square num-button"" onclick = ""recordClick(this)""><div class = content><div class = numbers>R</div></div></button><button id = button_11 class = ""square num-button"" onclick = ""recordClick(this)""><div class = content><div class = numbers>S</div></div></button><button id = button_12 class = ""square num-button"" onclick = ""recordClick(this)""><div class = content><div class = numbers>Y</div></div></button><button class = clear_button id = ""ClearButton"" onclick = ""clearResponse()"">BACKSPACE</button><button class = blank_button id = ""BlankButton"" onclick = ""blankResponse()"">SKIP</button><p style=""font-size: 2.4rem""><u><b>Current Answer:</b></u></p><br><br><div id=echoed_txt style=""font-size: 5rem; color:blue;""><b></b></div></div>",enter,ospan,retrieval,qTjntU45ZOh1SKObxkoZGWVbuil2,html-keyboard-response,67,581658,0.0-46.0-0.0-2.0-4.0,NA,NA,NA,3.0,"[""Y"",""S"",""K""]","[""Y"",""S"",""K""]",1.0,3.0,"['<font color=""green"">Y</font>', '<font color=""green"">S</font>', '<font color=""green"">K</font>']",,,,,,64402288403028bd9abd98a7,19:37:23,03/04/2024
1301.1000000014901,"['<p style=""font-size:44px"">Letters:<br><br><br><font color=""green"">Y</font> <font color=""green"">S</font> <font color=""green"">K</font></p><br><br>']",0,ospan,practice_feedback,qTjntU45ZOh1SKObxkoZGWVbuil2,html-button-response,68,583463,0.0-46.0-0.0-2.0-5.0,,,,,,,,,,,,,,,64402288403028bd9abd98a7,19:37:23,03/04/2024
7917.5,"<div class = 'left_align' style='font-size: 3.25rem; line-height: 1.3;'>Now you will practice doing the <b>symmetry judgment part</b> of the experiment.<br><br>A black and white grid picture will appear on the screen and you have to judge if it is <br>symmetrical or asymetrical.<br><br>A picture is 'mirror' symmetrical if its left half is identical to the right half when flipped.<br>Here are examples of a symmetrical and an asymetrical picture:<br><br><center><img src='Stimuli/img/symm_instructions_extra.png' style='height:420px; width:900'></img></center><br>To judge symmetry, imagine you were to fold each picture down the middle, like a book –<br>would the left half match the right half when folded onto each other?<br><br></div><br>",0,ospan,instruct,qTjntU45ZOh1SKObxkoZGWVbuil2,html-button-response,69,591382,0.0-46.0-1.0-0.0-0.0,,,,,,,,,,,,,,,64402288403028bd9abd98a7,19:37:23,03/04/2024
3556.10000000149,"<div class = 'left_align' style='font-size: 3.25rem; line-height: 1.3;'>When you have viewed the picture and determined whether it is symmetrical or not,<br>you can <b>click the Yes or No button</b> below to answer.<br><br>If you take longer than 15 seconds, it will continue automatically<br>and record the answer as an error.</div><br>",0,ospan,instruct,qTjntU45ZOh1SKObxkoZGWVbuil2,html-button-response,70,595191,0.0-46.0-1.0-0.0-1.0,,,,,,,,,,,,,,,64402288403028bd9abd98a7,19:37:23,03/04/2024
1984.3999999985099,"<div class = 'left_align' style='font-size: 3.25rem; line-height: 1.3;'>It is <b>very</b> important that you make the symmetry judgment correctly.<br><br>It is also important that you try and judge the picture as quickly as you can.<br><br>When you are ready, click on the button below to try some practice problems.</div><br><br><br><br>",0,ospan,instruct,qTjntU45ZOh1SKObxkoZGWVbuil2,html-button-response,71,597432,0.0-46.0-1.0-0.0-2.0,,,,,,,,,,,,,,,64402288403028bd9abd98a7,19:37:23,03/04/2024
3048.0,,,ospan,symmetry,qTjntU45ZOh1SKObxkoZGWVbuil2,symmetry-judgement-task,72,601312,0.0-46.0-1.0-1.0-0.0,,,,,,,,,,1.0,1.0,,,,64402288403028bd9abd98a7,19:37:23,03/04/2024
,"<p style=""color:green; font-size: 35px"">Correct</p>",,ospan,feedback,qTjntU45ZOh1SKObxkoZGWVbuil2,html-keyboard-response,73,602065,0.0-46.0-1.0-1.0-1.0,,,,,,,,,,,,,,,64402288403028bd9abd98a7,19:37:23,03/04/2024
4089.0,,,ospan,symmetry,qTjntU45ZOh1SKObxkoZGWVbuil2,symmetry-judgement-task,74,608995,0.0-46.0-1.0-1.0-2.0,,,,,,,,,,1.0,1.0,,,,64402288403028bd9abd98a7,19:37:23,03/04/2024
,"<p style=""color:green; font-size: 35px"">Correct</p>",,ospan,feedback,qTjntU45ZOh1SKObxkoZGWVbuil2,html-keyboard-response,75,609755,0.0-46.0-1.0-1.0-3.0,,,,,,,,,,,,,,,64402288403028bd9abd98a7,19:37:23,03/04/2024
3050.0,,,ospan,symmetry,qTjntU45ZOh1SKObxkoZGWVbuil2,symmetry-judgement-task,76,615654,0.0-46.0-1.0-1.0-4.0,,,,,,,,,,1.0,1.0,,,,64402288403028bd9abd98a7,19:37:23,03/04/2024
,"<p style=""color:green; font-size: 35px"">Correct</p>",,ospan,feedback,qTjntU45ZOh1SKObxkoZGWVbuil2,html-keyboard-response,77,616423,0.0-46.0-1.0-1.0-5.0,,,,,,,,,,,,,,,64402288403028bd9abd98a7,19:37:23,03/04/2024
1673.5,"<p style=""font-size: 3rem;"">You responded correctly on 3 of 3 symmetry judgments. Good job!</p><br><br>",0,ospan,practice,qTjntU45ZOh1SKObxkoZGWVbuil2,html-button-response,78,620112,0.0-46.0-1.0-2.0,,,,,,,,,,,,,,,64402288403028bd9abd98a7,19:37:23,03/04/2024
4165.0,"<div class = 'left_align' style='font-size: 3.25rem; line-height: 1.3;'>Now you will practice doing both parts of the experiment at the same time.<br><br>In the next practice set, you will be given one grid picture to judge.<br>Then letter will appear on the screen. Try to remember the letter.<br><br>It is <b>very important</b> to make the symmetry judgment as quickly and accurately as possible.<br><br>Just as before, once you have make the symmetry judgment, you can click Yes or No.<br><b>Note that you will no longer see Correct or Incorrect feedback.</div><br><br><br><br>",0,ospan,instruct,qTjntU45ZOh1SKObxkoZGWVbuil2,html-button-response,79,624531,0.0-46.0-2.0-0.0-0.0,,,,,,,,,,,,,,,64402288403028bd9abd98a7,19:37:23,03/04/2024
2447.6999999955297,"<div class = 'left_align' style='font-size: 3.25rem; line-height: 1.3;'>After the letter goes away, another grid picture will appear, and then<br>another letter.<br><br>At the end of each set of letters and grids, you will recall the letters to the best<br>of your ability. Remember, try your best to get the letters in the correct order.<br><br>It is important to <b>quickly</b> and <b>accurately</b> make the symmetry judgments.</div><br><br><br><br>",0,ospan,instruct,qTjntU45ZOh1SKObxkoZGWVbuil2,html-button-response,80,627233,0.0-46.0-2.0-0.0-1.0,,,,,,,,,,,,,,,64402288403028bd9abd98a7,19:37:23,03/04/2024
9660.79999999702,"<div class = 'left_align' style='font-size: 3.25rem; line-height: 1.3;'>On the feedback screen, if you are not doing well at the symmetry judgments,<br>you will also see a warning in the middle. This indicates your percent <br>correct for the grid pictures for the entire experiment.<br><br>It is <b>very</b> important for you to keep accuracy at least at 85%: <u>We can only use<br>data where the participant was at least 85% accurate on the judgments.</u> Therefore,<br> please try your best to perform well on the symmetry judgments, <b>at the same time</b><br>doing your best to recall as many letters as possible.<br><br>Click the button to try some practice problems.</div><br><br><br><br>",0,ospan,instruct,qTjntU45ZOh1SKObxkoZGWVbuil2,html-button-response,81,637151,0.0-46.0-2.0-0.0-2.0,,,,,,,,,,,,,,,64402288403028bd9abd98a7,19:37:23,03/04/2024
,"<p style=""font-size:75px;"">...</p>",,ospan,iti,qTjntU45ZOh1SKObxkoZGWVbuil2,html-keyboard-response,82,638415,0.0-46.0-2.0-1.0-0.0,,,,,,,,,,,,,,,64402288403028bd9abd98a7,19:37:23,03/04/2024
2228.0,,,ospan,symmetry,qTjntU45ZOh1SKObxkoZGWVbuil2,symmetry-judgement-task,83,641961,0.0-46.0-2.0-1.0-1.0-0.0,,,,,,,,,,1.0,1.0,,,,64402288403028bd9abd98a7,19:37:23,03/04/2024
,"<div style=""font-size: 10rem; color: #0000FF"">P</div>",,ospan,letter,qTjntU45ZOh1SKObxkoZGWVbuil2,html-keyboard-response,84,642964,0.0-46.0-2.0-1.0-1.0-1.0,,,,,,,,,,,,,,,64402288403028bd9abd98a7,19:37:23,03/04/2024
2289.0,,,ospan,symmetry,qTjntU45ZOh1SKObxkoZGWVbuil2,symmetry-judgement-task,85,647343,0.0-46.0-2.0-1.0-1.0-2.0,,,,,,,,,,1.0,1.0,,,,64402288403028bd9abd98a7,19:37:23,03/04/2024
,"<div style=""font-size: 10rem; color: #0000FF"">H</div>",,ospan,letter,qTjntU45ZOh1SKObxkoZGWVbuil2,html-keyboard-response,86,648346,0.0-46.0-2.0-1.0-1.0-3.0,,,,,,,,,,,,,,,64402288403028bd9abd98a7,19:37:23,03/04/2024
1494.0,,,ospan,symmetry,qTjntU45ZOh1SKObxkoZGWVbuil2,symmetry-judgement-task,87,651950,0.0-46.0-2.0-1.0-1.0-4.0,,,,,,,,,,1.0,1.0,,,,64402288403028bd9abd98a7,19:37:23,03/04/2024
,"<div style=""font-size: 10rem; color: #0000FF"">Q</div>",,ospan,letter,qTjntU45ZOh1SKObxkoZGWVbuil2,html-keyboard-response,88,652977,0.0-46.0-2.0-1.0-1.0-5.0,,,,,,,,,,,,,,,64402288403028bd9abd98a7,19:37:23,03/04/2024
4870.39999999851,"<div class = numbox><p style=""font-size: 2.4rem"">Please recall the letters you saw to the best of your ability. If you do not remember a particular letter, use the SKIP button.<br><b>(When you are ready to lock in your answer, press ENTER)</b></p><button id = button_1 class = ""square num-button"" onclick = ""recordClick(this)""><div class = content><div class = numbers>C</div></div></button><button id = button_2 class = ""square num-button"" onclick = ""recordClick(this)""><div class = content><div class = numbers>G</div></div></button><button id = button_3 class = ""square num-button"" onclick = ""recordClick(this)""><div class = content><div class = numbers>H</div></div></button><button id = button_4 class = ""square num-button"" onclick = ""recordClick(this)""><div class = content><div class = numbers>J</div></div></button><button id = button_5 class = ""square num-button"" onclick = ""recordClick(this)""><div class = content><div class = numbers>K</div></div></button><button id = button_6 class = ""square num-button"" onclick = ""recordClick(this)""><div class = content><div class = numbers>L</div></div></button><button id = button_7 class = ""square num-button"" onclick = ""recordClick(this)""><div class = content><div class = numbers>N</div></div></button><button id = button_8 class = ""square num-button"" onclick = ""recordClick(this)""><div class = content><div class = numbers>P</div></div></button><button id = button_9 class = ""square num-button"" onclick = ""recordClick(this)""><div class = content><div class = numbers>Q</div></div></button><button id = button_10 class = ""square num-button"" onclick = ""recordClick(this)""><div class = content><div class = numbers>R</div></div></button><button id = button_11 class = ""square num-button"" onclick = ""recordClick(this)""><div class = content><div class = numbers>S</div></div></button><button id = button_12 class = ""square num-button"" onclick = ""recordClick(this)""><div class = content><div class = numbers>Y</div></div></button><button class = clear_button id = ""ClearButton"" onclick = ""clearResponse()"">BACKSPACE</button><button class = blank_button id = ""BlankButton"" onclick = ""blankResponse()"">SKIP</button><p style=""font-size: 2.4rem""><u><b>Current Answer:</b></u></p><br><br><div id=echoed_txt style=""font-size: 5rem; color:blue;""><b></b></div></div>",enter,ospan,retrieval,qTjntU45ZOh1SKObxkoZGWVbuil2,html-keyboard-response,89,658621,0.0-46.0-2.0-1.0-2.0-0.0,NA,NA,NA,3.0,"[""P"",""H"",""Q""]","[""P"",""H"",""Q""]",1.0,3.0,"['<font color=""green"">P</font>', '<font color=""green"">H</font>', '<font color=""green"">Q</font>']",,,,,,64402288403028bd9abd98a7,19:37:23,03/04/2024
1288.1000000014901,"['<p style=""font-size:44px"">Letters:<br><br><br><font color=""green"">P</font> <font color=""green"">H</font> <font color=""green"">Q</font></p><br><br><p style=""font-size:30px"">Symmetry:<br><br><font color=""green"">100%</font></p><br><br>']",0,ospan,practice_feedback,qTjntU45ZOh1SKObxkoZGWVbuil2,html-button-response,90,660419,0.0-46.0-2.0-1.0-2.0-1.0,,,,,,,,,,,,,,,64402288403028bd9abd98a7,19:37:23,03/04/2024
,"<p style=""font-size:75px;"">...</p>",,ospan,iti,qTjntU45ZOh1SKObxkoZGWVbuil2,html-keyboard-response,91,661428,0.0-46.0-2.0-2.0-0.0,,,,,,,,,,,,,,,64402288403028bd9abd98a7,19:37:23,03/04/2024
2322.0,,,ospan,symmetry,qTjntU45ZOh1SKObxkoZGWVbuil2,symmetry-judgement-task,92,665085,0.0-46.0-2.0-2.0-1.0-0.0,,,,,,,,,,1.0,1.0,,,,64402288403028bd9abd98a7,19:37:23,03/04/2024
,"<div style=""font-size: 10rem; color: #0000FF"">L</div>",,ospan,letter,qTjntU45ZOh1SKObxkoZGWVbuil2,html-keyboard-response,93,666088,0.0-46.0-2.0-2.0-1.0-1.0,,,,,,,,,,,,,,,64402288403028bd9abd98a7,19:37:23,03/04/2024
1973.0,,,ospan,symmetry,qTjntU45ZOh1SKObxkoZGWVbuil2,symmetry-judgement-task,94,670166,0.0-46.0-2.0-2.0-1.0-2.0,,,,,,,,,,1.0,1.0,,,,64402288403028bd9abd98a7,19:37:23,03/04/2024
,"<div style=""font-size: 10rem; color: #0000FF"">Y</div>",,ospan,letter,qTjntU45ZOh1SKObxkoZGWVbuil2,html-keyboard-response,95,671168,0.0-46.0-2.0-2.0-1.0-3.0,,,,,,,,,,,,,,,64402288403028bd9abd98a7,19:37:23,03/04/2024
2208.0,,,ospan,symmetry,qTjntU45ZOh1SKObxkoZGWVbuil2,symmetry-judgement-task,96,675540,0.0-46.0-2.0-2.0-1.0-4.0,,,,,,,,,,1.0,1.0,,,,64402288403028bd9abd98a7,19:37:23,03/04/2024
,"<div style=""font-size: 10rem; color: #0000FF"">S</div>",,ospan,letter,qTjntU45ZOh1SKObxkoZGWVbuil2,html-keyboard-response,97,676559,0.0-46.0-2.0-2.0-1.0-5.0,,,,,,,,,,,,,,,64402288403028bd9abd98a7,19:37:23,03/04/2024
5471.60000000149,"<div class = numbox><p style=""font-size: 2.4rem"">Please recall the letters you saw to the best of your ability. If you do not remember a particular letter, use the SKIP button.<br><b>(When you are ready to lock in your answer, press ENTER)</b></p><button id = button_1 class = ""square num-button"" onclick = ""recordClick(this)""><div class = content><div class = numbers>C</div></div></button><button id = button_2 class = ""square num-button"" onclick = ""recordClick(this)""><div class = content><div class = numbers>G</div></div></button><button id = button_3 class = ""square num-button"" onclick = ""recordClick(this)""><div class = content><div class = numbers>H</div></div></button><button id = button_4 class = ""square num-button"" onclick = ""recordClick(this)""><div class = content><div class = numbers>J</div></div></button><button id = button_5 class = ""square num-button"" onclick = ""recordClick(this)""><div class = content><div class = numbers>K</div></div></button><button id = button_6 class = ""square num-button"" onclick = ""recordClick(this)""><div class = content><div class = numbers>L</div></div></button><button id = button_7 class = ""square num-button"" onclick = ""recordClick(this)""><div class = content><div class = numbers>N</div></div></button><button id = button_8 class = ""square num-button"" onclick = ""recordClick(this)""><div class = content><div class = numbers>P</div></div></button><button id = button_9 class = ""square num-button"" onclick = ""recordClick(this)""><div class = content><div class = numbers>Q</div></div></button><button id = button_10 class = ""square num-button"" onclick = ""recordClick(this)""><div class = content><div class = numbers>R</div></div></button><button id = button_11 class = ""square num-button"" onclick = ""recordClick(this)""><div class = content><div class = numbers>S</div></div></button><button id = button_12 class = ""square num-button"" onclick = ""recordClick(this)""><div class = content><div class = numbers>Y</div></div></button><button class = clear_button id = ""ClearButton"" onclick = ""clearResponse()"">BACKSPACE</button><button class = blank_button id = ""BlankButton"" onclick = ""blankResponse()"">SKIP</button><p style=""font-size: 2.4rem""><u><b>Current Answer:</b></u></p><br><br><div id=echoed_txt style=""font-size: 5rem; color:blue;""><b></b></div></div>",enter,ospan,retrieval,qTjntU45ZOh1SKObxkoZGWVbuil2,html-keyboard-response,98,682786,0.0-46.0-2.0-2.0-2.0-0.0,NA,NA,NA,3.0,"[""L"",""Y"",""S""]","[""L"",""Y"",""S""]",1.0,3.0,"['<font color=""green"">L</font>', '<font color=""green"">Y</font>', '<font color=""green"">S</font>']",,,,,,64402288403028bd9abd98a7,19:37:23,03/04/2024
2751.1999999955297,"['<p style=""font-size:44px"">Letters:<br><br><br><font color=""green"">L</font> <font color=""green"">Y</font> <font color=""green"">S</font></p><br><br><p style=""font-size:30px"">Symmetry:<br><br><font color=""green"">100%</font></p><br><br>']",0,ospan,practice_feedback,qTjntU45ZOh1SKObxkoZGWVbuil2,html-button-response,99,686049,0.0-46.0-2.0-2.0-2.0-1.0,,,,,,,,,,,,,,,64402288403028bd9abd98a7,19:37:23,03/04/2024
23464.39999999851,"<div class = 'left_align' style='font-size: 3rem; line-height: 1.3;'><b>Great work! That is the end of practice.</b><br><br>The real trials will look just like the practice trials you just completed.<br><br><u>Here, you will not see feedback</u>. First, you will see an grid picture to judge,<br>then a letter to remember. When the recall screen appears, report the letters in the<br>order presented. If you forget a letter, remember to use the <b>blank</b> button to move to the<br>next letter. Some of the sets will have more symmetry grids and letters than others.<br><br>It is important that you do your best on both the symmetry judgments and the letter recall<br>parts of the experiment. For for the symmetry judgments, try to work as <b>quickly</b> and <br>as <b>accurately</b> as possible. Remember to keep your symmetry accuracy at 85% or above.<br><br><b>For the letters, do NOT use any external aid (e.g., writing on paper, electronic device).</b><br><br>It is <u>very important</u> to our experiment to have a <b>true</b> view of your real performance.<br><br>Do not worry if you miss some when it gets hard! This task is meant to be very challenging!<br><br>Click the button to begin.</div><br><br><br><br>",0,ospan,starting_real_here,qTjntU45ZOh1SKObxkoZGWVbuil2,html-button-response,100,709518,0.0-46.0-2.0-3.0,,,,,,,,,,,,,,,64402288403028bd9abd98a7,19:37:23,03/04/2024
,"<p style=""font-size:75px;"">...</p>",,ospan,iti,qTjntU45ZOh1SKObxkoZGWVbuil2,html-keyboard-response,101,710783,0.0-46.0-3.0-0.0-0.0,,,,,,,,,,,,,,,64402288403028bd9abd98a7,19:37:23,03/04/2024
1388.0,,,ospan,symmetry,qTjntU45ZOh1SKObxkoZGWVbuil2,symmetry-judgement-task,102,713466,0.0-46.0-3.0-0.0-1.0-0.0,,,,,,,,,,1.0,1.0,,,,64402288403028bd9abd98a7,19:37:23,03/04/2024
,"<div style=""font-size: 10rem; color: #0000FF"">S</div>",,ospan,letter,qTjntU45ZOh1SKObxkoZGWVbuil2,html-keyboard-response,103,714471,0.0-46.0-3.0-0.0-1.0-1.0,,,,,,,,,,,,,,,64402288403028bd9abd98a7,19:37:23,03/04/2024
2158.0,,,ospan,symmetry,qTjntU45ZOh1SKObxkoZGWVbuil2,symmetry-judgement-task,104,718632,0.0-46.0-3.0-0.0-1.0-2.0,,,,,,,,,,1.0,1.0,,,,64402288403028bd9abd98a7,19:37:23,03/04/2024
,"<div style=""font-size: 10rem; color: #0000FF"">R</div>",,ospan,letter,qTjntU45ZOh1SKObxkoZGWVbuil2,html-keyboard-response,105,719655,0.0-46.0-3.0-0.0-1.0-3.0,,,,,,,,,,,,,,,64402288403028bd9abd98a7,19:37:23,03/04/2024
1519.0,,,ospan,symmetry,qTjntU45ZOh1SKObxkoZGWVbuil2,symmetry-judgement-task,106,723260,0.0-46.0-3.0-0.0-1.0-4.0,,,,,,,,,,1.0,1.0,,,,64402288403028bd9abd98a7,19:37:23,03/04/2024
,"<div style=""font-size: 10rem; color: #0000FF"">K</div>",,ospan,letter,qTjntU45ZOh1SKObxkoZGWVbuil2,html-keyboard-response,107,724266,0.0-46.0-3.0-0.0-1.0-5.0,,,,,,,,,,,,,,,64402288403028bd9abd98a7,19:37:23,03/04/2024
4231.89999999851,"<div class = numbox><p style=""font-size: 2.4rem"">Please recall the letters you saw to the best of your ability. If you do not remember a particular letter, use the SKIP button.<br><b>(When you are ready to lock in your answer, press ENTER)</b></p><button id = button_1 class = ""square num-button"" onclick = ""recordClick(this)""><div class = content><div class = numbers>C</div></div></button><button id = button_2 class = ""square num-button"" onclick = ""recordClick(this)""><div class = content><div class = numbers>G</div></div></button><button id = button_3 class = ""square num-button"" onclick = ""recordClick(this)""><div class = content><div class = numbers>H</div></div></button><button id = button_4 class = ""square num-button"" onclick = ""recordClick(this)""><div class = content><div class = numbers>J</div></div></button><button id = button_5 class = ""square num-button"" onclick = ""recordClick(this)""><div class = content><div class = numbers>K</div></div></button><button id = button_6 class = ""square num-button"" onclick = ""recordClick(this)""><div class = content><div class = numbers>L</div></div></button><button id = button_7 class = ""square num-button"" onclick = ""recordClick(this)""><div class = content><div class = numbers>N</div></div></button><button id = button_8 class = ""square num-button"" onclick = ""recordClick(this)""><div class = content><div class = numbers>P</div></div></button><button id = button_9 class = ""square num-button"" onclick = ""recordClick(this)""><div class = content><div class = numbers>Q</div></div></button><button id = button_10 class = ""square num-button"" onclick = ""recordClick(this)""><div class = content><div class = numbers>R</div></div></button><button id = button_11 class = ""square num-button"" onclick = ""recordClick(this)""><div class = content><div class = numbers>S</div></div></button><button id = button_12 class = ""square num-button"" onclick = ""recordClick(this)""><div class = content><div class = numbers>Y</div></div></button><button class = clear_button id = ""ClearButton"" onclick = ""clearResponse()"">BACKSPACE</button><button class = blank_button id = ""BlankButton"" onclick = ""blankResponse()"">SKIP</button><p style=""font-size: 2.4rem""><u><b>Current Answer:</b></u></p><br><br><div id=echoed_txt style=""font-size: 5rem; color:blue;""><b></b></div></div>",enter,ospan,retrieval,qTjntU45ZOh1SKObxkoZGWVbuil2,html-keyboard-response,108,729254,0.0-46.0-3.0-0.0-2.0,3,3,3,3.0,"[""S"",""R"",""K""]","[""S"",""R"",""K""]",1.0,3.0,,,,,,,64402288403028bd9abd98a7,19:37:23,03/04/2024
1251.2000000029802,[''],0,ospan,feedback,qTjntU45ZOh1SKObxkoZGWVbuil2,html-button-response,109,731016,0.0-46.0-3.0-0.0-3.0,,,,,,,,,,,,100.0,0.0,,64402288403028bd9abd98a7,19:37:23,03/04/2024
,"<p style=""font-size:75px;"">...</p>",,ospan,iti,qTjntU45ZOh1SKObxkoZGWVbuil2,html-keyboard-response,110,732040,0.0-46.0-4.0-0.0-0.0,,,,,,,,,,,,,,,64402288403028bd9abd98a7,19:37:23,03/04/2024
1868.0,,,ospan,symmetry,qTjntU45ZOh1SKObxkoZGWVbuil2,symmetry-judgement-task,111,735212,0.0-46.0-4.0-0.0-1.0-0.0,,,,,,,,,,1.0,1.0,,,,64402288403028bd9abd98a7,19:37:23,03/04/2024
,"<div style=""font-size: 10rem; color: #0000FF"">L</div>",,ospan,letter,qTjntU45ZOh1SKObxkoZGWVbuil2,html-keyboard-response,112,736219,0.0-46.0-4.0-0.0-1.0-1.0,,,,,,,,,,,,,,,64402288403028bd9abd98a7,19:37:23,03/04/2024
2053.0,,,ospan,symmetry,qTjntU45ZOh1SKObxkoZGWVbuil2,symmetry-judgement-task,113,740163,0.0-46.0-4.0-0.0-1.0-2.0,,,,,,,,,,1.0,1.0,,,,64402288403028bd9abd98a7,19:37:23,03/04/2024
,"<div style=""font-size: 10rem; color: #0000FF"">C</div>",,ospan,letter,qTjntU45ZOh1SKObxkoZGWVbuil2,html-keyboard-response,114,741166,0.0-46.0-4.0-0.0-1.0-3.0,,,,,,,,,,,,,,,64402288403028bd9abd98a7,19:37:23,03/04/2024
1500.0,,,ospan,symmetry,qTjntU45ZOh1SKObxkoZGWVbuil2,symmetry-judgement-task,115,744783,0.0-46.0-4.0-0.0-1.0-4.0,,,,,,,,,,1.0,1.0,,,,64402288403028bd9abd98a7,19:37:23,03/04/2024
,"<div style=""font-size: 10rem; color: #0000FF"">H</div>",,ospan,letter,qTjntU45ZOh1SKObxkoZGWVbuil2,html-keyboard-response,116,745800,0.0-46.0-4.0-0.0-1.0-5.0,,,,,,,,,,,,,,,64402288403028bd9abd98a7,19:37:23,03/04/2024
1711.0,,,ospan,symmetry,qTjntU45ZOh1SKObxkoZGWVbuil2,symmetry-judgement-task,117,749613,0.0-46.0-4.0-0.0-1.0-6.0,,,,,,,,,,1.0,1.0,,,,64402288403028bd9abd98a7,19:37:23,03/04/2024
,"<div style=""font-size: 10rem; color: #0000FF"">G</div>",,ospan,letter,qTjntU45ZOh1SKObxkoZGWVbuil2,html-keyboard-response,118,750630,0.0-46.0-4.0-0.0-1.0-7.0,,,,,,,,,,,,,,,64402288403028bd9abd98a7,19:37:23,03/04/2024
5387.4000000059605,"<div class = numbox><p style=""font-size: 2.4rem"">Please recall the letters you saw to the best of your ability. If you do not remember a particular letter, use the SKIP button.<br><b>(When you are ready to lock in your answer, press ENTER)</b></p><button id = button_1 class = ""square num-button"" onclick = ""recordClick(this)""><div class = content><div class = numbers>C</div></div></button><button id = button_2 class = ""square num-button"" onclick = ""recordClick(this)""><div class = content><div class = numbers>G</div></div></button><button id = button_3 class = ""square num-button"" onclick = ""recordClick(this)""><div class = content><div class = numbers>H</div></div></button><button id = button_4 class = ""square num-button"" onclick = ""recordClick(this)""><div class = content><div class = numbers>J</div></div></button><button id = button_5 class = ""square num-button"" onclick = ""recordClick(this)""><div class = content><div class = numbers>K</div></div></button><button id = button_6 class = ""square num-button"" onclick = ""recordClick(this)""><div class = content><div class = numbers>L</div></div></button><button id = button_7 class = ""square num-button"" onclick = ""recordClick(this)""><div class = content><div class = numbers>N</div></div></button><button id = button_8 class = ""square num-button"" onclick = ""recordClick(this)""><div class = content><div class = numbers>P</div></div></button><button id = button_9 class = ""square num-button"" onclick = ""recordClick(this)""><div class = content><div class = numbers>Q</div></div></button><button id = button_10 class = ""square num-button"" onclick = ""recordClick(this)""><div class = content><div class = numbers>R</div></div></button><button id = button_11 class = ""square num-button"" onclick = ""recordClick(this)""><div class = content><div class = numbers>S</div></div></button><button id = button_12 class = ""square num-button"" onclick = ""recordClick(this)""><div class = content><div class = numbers>Y</div></div></button><button class = clear_button id = ""ClearButton"" onclick = ""clearResponse()"">BACKSPACE</button><button class = blank_button id = ""BlankButton"" onclick = ""blankResponse()"">SKIP</button><p style=""font-size: 2.4rem""><u><b>Current Answer:</b></u></p><br><br><div id=echoed_txt style=""font-size: 5rem; color:blue;""><b></b></div></div>",enter,ospan,retrieval,qTjntU45ZOh1SKObxkoZGWVbuil2,html-keyboard-response,119,756775,0.0-46.0-4.0-0.0-2.0,7,7,7,4.0,"[""L"",""C"",""H"",""G""]","[""L"",""C"",""H"",""G""]",1.0,4.0,,,,,,,64402288403028bd9abd98a7,19:37:23,03/04/2024
1192.3000000044703,[''],0,ospan,feedback,qTjntU45ZOh1SKObxkoZGWVbuil2,html-button-response,120,758483,0.0-46.0-4.0-0.0-3.0,,,,,,,,,,,,100.0,0.0,,64402288403028bd9abd98a7,19:37:23,03/04/2024
,"<p style=""font-size:75px;"">...</p>",,ospan,iti,qTjntU45ZOh1SKObxkoZGWVbuil2,html-keyboard-response,121,759498,0.0-46.0-4.0-1.0-0.0,,,,,,,,,,,,,,,64402288403028bd9abd98a7,19:37:23,03/04/2024
1603.0,,,ospan,symmetry,qTjntU45ZOh1SKObxkoZGWVbuil2,symmetry-judgement-task,122,762219,0.0-46.0-4.0-1.0-1.0-0.0,,,,,,,,,,1.0,1.0,,,,64402288403028bd9abd98a7,19:37:23,03/04/2024
,"<div style=""font-size: 10rem; color: #0000FF"">J</div>",,ospan,letter,qTjntU45ZOh1SKObxkoZGWVbuil2,html-keyboard-response,123,763224,0.0-46.0-4.0-1.0-1.0-1.0,,,,,,,,,,,,,,,64402288403028bd9abd98a7,19:37:23,03/04/2024
1613.0,,,ospan,symmetry,qTjntU45ZOh1SKObxkoZGWVbuil2,symmetry-judgement-task,124,766932,0.0-46.0-4.0-1.0-1.0-2.0,,,,,,,,,,1.0,1.0,,,,64402288403028bd9abd98a7,19:37:23,03/04/2024
,"<div style=""font-size: 10rem; color: #0000FF"">L</div>",,ospan,letter,qTjntU45ZOh1SKObxkoZGWVbuil2,html-keyboard-response,125,767945,0.0-46.0-4.0-1.0-1.0-3.0,,,,,,,,,,,,,,,64402288403028bd9abd98a7,19:37:23,03/04/2024
1281.0,,,ospan,symmetry,qTjntU45ZOh1SKObxkoZGWVbuil2,symmetry-judgement-task,126,771303,0.0-46.0-4.0-1.0-1.0-4.0,,,,,,,,,,1.0,1.0,,,,64402288403028bd9abd98a7,19:37:23,03/04/2024
,"<div style=""font-size: 10rem; color: #0000FF"">C</div>",,ospan,letter,qTjntU45ZOh1SKObxkoZGWVbuil2,html-keyboard-response,127,772309,0.0-46.0-4.0-1.0-1.0-5.0,,,,,,,,,,,,,,,64402288403028bd9abd98a7,19:37:23,03/04/2024
1804.0,,,ospan,symmetry,qTjntU45ZOh1SKObxkoZGWVbuil2,symmetry-judgement-task,128,776195,0.0-46.0-4.0-1.0-1.0-6.0,,,,,,,,,,1.0,1.0,,,,64402288403028bd9abd98a7,19:37:23,03/04/2024
,"<div style=""font-size: 10rem; color: #0000FF"">R</div>",,ospan,letter,qTjntU45ZOh1SKObxkoZGWVbuil2,html-keyboard-response,129,777208,0.0-46.0-4.0-1.0-1.0-7.0,,,,,,,,,,,,,,,64402288403028bd9abd98a7,19:37:23,03/04/2024
1134.0,,,ospan,symmetry,qTjntU45ZOh1SKObxkoZGWVbuil2,symmetry-judgement-task,130,780403,0.0-46.0-4.0-1.0-1.0-8.0,,,,,,,,,,1.0,1.0,,,,64402288403028bd9abd98a7,19:37:23,03/04/2024
,"<div style=""font-size: 10rem; color: #0000FF"">K</div>",,ospan,letter,qTjntU45ZOh1SKObxkoZGWVbuil2,html-keyboard-response,131,781409,0.0-46.0-4.0-1.0-1.0-9.0,,,,,,,,,,,,,,,64402288403028bd9abd98a7,19:37:23,03/04/2024
9304.10000000149,"<div class = numbox><p style=""font-size: 2.4rem"">Please recall the letters you saw to the best of your ability. If you do not remember a particular letter, use the SKIP button.<br><b>(When you are ready to lock in your answer, press ENTER)</b></p><button id = button_1 class = ""square num-button"" onclick = ""recordClick(this)""><div class = content><div class = numbers>C</div></div></button><button id = button_2 class = ""square num-button"" onclick = ""recordClick(this)""><div class = content><div class = numbers>G</div></div></button><button id = button_3 class = ""square num-button"" onclick = ""recordClick(this)""><div class = content><div class = numbers>H</div></div></button><button id = button_4 class = ""square num-button"" onclick = ""recordClick(this)""><div class = content><div class = numbers>J</div></div></button><button id = button_5 class = ""square num-button"" onclick = ""recordClick(this)""><div class = content><div class = numbers>K</div></div></button><button id = button_6 class = ""square num-button"" onclick = ""recordClick(this)""><div class = content><div class = numbers>L</div></div></button><button id = button_7 class = ""square num-button"" onclick = ""recordClick(this)""><div class = content><div class = numbers>N</div></div></button><button id = button_8 class = ""square num-button"" onclick = ""recordClick(this)""><div class = content><div class = numbers>P</div></div></button><button id = button_9 class = ""square num-button"" onclick = ""recordClick(this)""><div class = content><div class = numbers>Q</div></div></button><button id = button_10 class = ""square num-button"" onclick = ""recordClick(this)""><div class = content><div class = numbers>R</div></div></button><button id = button_11 class = ""square num-button"" onclick = ""recordClick(this)""><div class = content><div class = numbers>S</div></div></button><button id = button_12 class = ""square num-button"" onclick = ""recordClick(this)""><div class = content><div class = numbers>Y</div></div></button><button class = clear_button id = ""ClearButton"" onclick = ""clearResponse()"">BACKSPACE</button><button class = blank_button id = ""BlankButton"" onclick = ""blankResponse()"">SKIP</button><p style=""font-size: 2.4rem""><u><b>Current Answer:</b></u></p><br><br><div id=echoed_txt style=""font-size: 5rem; color:blue;""><b></b></div></div>",enter,ospan,retrieval,qTjntU45ZOh1SKObxkoZGWVbuil2,html-keyboard-response,132,791466,0.0-46.0-4.0-1.0-2.0,12,12,12,5.0,"[""J"",""L"",""C"",""R"",""K""]","[""J"",""L"",""C"",""R"",""K""]",1.0,5.0,,,,,,,64402288403028bd9abd98a7,19:37:23,03/04/2024
1164.3999999985099,[''],0,ospan,feedback,qTjntU45ZOh1SKObxkoZGWVbuil2,html-button-response,133,793134,0.0-46.0-4.0-1.0-3.0,,,,,,,,,,,,100.0,0.0,,64402288403028bd9abd98a7,19:37:23,03/04/2024
,"<p style=""font-size:75px;"">...</p>",,ospan,iti,qTjntU45ZOh1SKObxkoZGWVbuil2,html-keyboard-response,134,794154,0.0-46.0-4.0-2.0-0.0,,,,,,,,,,,,,,,64402288403028bd9abd98a7,19:37:23,03/04/2024
1607.0,,,ospan,symmetry,qTjntU45ZOh1SKObxkoZGWVbuil2,symmetry-judgement-task,135,796871,0.0-46.0-4.0-2.0-1.0-0.0,,,,,,,,,,1.0,1.0,,,,64402288403028bd9abd98a7,19:37:23,03/04/2024
,"<div style=""font-size: 10rem; color: #0000FF"">N</div>",,ospan,letter,qTjntU45ZOh1SKObxkoZGWVbuil2,html-keyboard-response,136,797886,0.0-46.0-4.0-2.0-1.0-1.0,,,,,,,,,,,,,,,64402288403028bd9abd98a7,19:37:23,03/04/2024
1859.0,,,ospan,symmetry,qTjntU45ZOh1SKObxkoZGWVbuil2,symmetry-judgement-task,137,801847,0.0-46.0-4.0-2.0-1.0-2.0,,,,,,,,,,1.0,1.0,,,,64402288403028bd9abd98a7,19:37:23,03/04/2024
,"<div style=""font-size: 10rem; color: #0000FF"">K</div>",,ospan,letter,qTjntU45ZOh1SKObxkoZGWVbuil2,html-keyboard-response,138,802853,0.0-46.0-4.0-2.0-1.0-3.0,,,,,,,,,,,,,,,64402288403028bd9abd98a7,19:37:23,03/04/2024
1397.0,,,ospan,symmetry,qTjntU45ZOh1SKObxkoZGWVbuil2,symmetry-judgement-task,139,806369,0.0-46.0-4.0-2.0-1.0-4.0,,,,,,,,,,1.0,1.0,,,,64402288403028bd9abd98a7,19:37:23,03/04/2024
,"<div style=""font-size: 10rem; color: #0000FF"">G</div>",,ospan,letter,qTjntU45ZOh1SKObxkoZGWVbuil2,html-keyboard-response,140,807385,0.0-46.0-4.0-2.0-1.0-5.0,,,,,,,,,,,,,,,64402288403028bd9abd98a7,19:37:23,03/04/2024
5153.60000000149,"<div class = numbox><p style=""font-size: 2.4rem"">Please recall the letters you saw to the best of your ability. If you do not remember a particular letter, use the SKIP button.<br><b>(When you are ready to lock in your answer, press ENTER)</b></p><button id = button_1 class = ""square num-button"" onclick = ""recordClick(this)""><div class = content><div class = numbers>C</div></div></button><button id = button_2 class = ""square num-button"" onclick = ""recordClick(this)""><div class = content><div class = numbers>G</div></div></button><button id = button_3 class = ""square num-button"" onclick = ""recordClick(this)""><div class = content><div class = numbers>H</div></div></button><button id = button_4 class = ""square num-button"" onclick = ""recordClick(this)""><div class = content><div class = numbers>J</div></div></button><button id = button_5 class = ""square num-button"" onclick = ""recordClick(this)""><div class = content><div class = numbers>K</div></div></button><button id = button_6 class = ""square num-button"" onclick = ""recordClick(this)""><div class = content><div class = numbers>L</div></div></button><button id = button_7 class = ""square num-button"" onclick = ""recordClick(this)""><div class = content><div class = numbers>N</div></div></button><button id = button_8 class = ""square num-button"" onclick = ""recordClick(this)""><div class = content><div class = numbers>P</div></div></button><button id = button_9 class = ""square num-button"" onclick = ""recordClick(this)""><div class = content><div class = numbers>Q</div></div></button><button id = button_10 class = ""square num-button"" onclick = ""recordClick(this)""><div class = content><div class = numbers>R</div></div></button><button id = button_11 class = ""square num-button"" onclick = ""recordClick(this)""><div class = content><div class = numbers>S</div></div></button><button id = button_12 class = ""square num-button"" onclick = ""recordClick(this)""><div class = content><div class = numbers>Y</div></div></button><button class = clear_button id = ""ClearButton"" onclick = ""clearResponse()"">BACKSPACE</button><button class = blank_button id = ""BlankButton"" onclick = ""blankResponse()"">SKIP</button><p style=""font-size: 2.4rem""><u><b>Current Answer:</b></u></p><br><br><div id=echoed_txt style=""font-size: 5rem; color:blue;""><b></b></div></div>",enter,ospan,retrieval,qTjntU45ZOh1SKObxkoZGWVbuil2,html-keyboard-response,141,813304,0.0-46.0-4.0-2.0-2.0,15,15,15,3.0,"[""N"",""K"",""G""]","[""N"",""K"",""G""]",1.0,3.0,,,,,,,64402288403028bd9abd98a7,19:37:23,03/04/2024
1538.0,[''],0,ospan,feedback,qTjntU45ZOh1SKObxkoZGWVbuil2,html-button-response,142,815356,0.0-46.0-4.0-2.0-3.0,,,,,,,,,,,,100.0,0.0,,64402288403028bd9abd98a7,19:37:23,03/04/2024
,"<p style=""font-size:75px;"">...</p>",,ospan,iti,qTjntU45ZOh1SKObxkoZGWVbuil2,html-keyboard-response,143,816368,0.0-46.0-5.0-0.0-0.0,,,,,,,,,,,,,,,64402288403028bd9abd98a7,19:37:23,03/04/2024
2243.0,,,ospan,symmetry,qTjntU45ZOh1SKObxkoZGWVbuil2,symmetry-judgement-task,144,819739,0.0-46.0-5.0-0.0-1.0-0.0,,,,,,,,,,1.0,1.0,,,,64402288403028bd9abd98a7,19:37:23,03/04/2024
,"<div style=""font-size: 10rem; color: #0000FF"">L</div>",,ospan,letter,qTjntU45ZOh1SKObxkoZGWVbuil2,html-keyboard-response,145,820744,0.0-46.0-5.0-0.0-1.0-1.0,,,,,,,,,,,,,,,64402288403028bd9abd98a7,19:37:23,03/04/2024
1072.0,,,ospan,symmetry,qTjntU45ZOh1SKObxkoZGWVbuil2,symmetry-judgement-task,146,823916,0.0-46.0-5.0-0.0-1.0-2.0,,,,,,,,,,1.0,1.0,,,,64402288403028bd9abd98a7,19:37:23,03/04/2024
,"<div style=""font-size: 10rem; color: #0000FF"">H</div>",,ospan,letter,qTjntU45ZOh1SKObxkoZGWVbuil2,html-keyboard-response,147,824929,0.0-46.0-5.0-0.0-1.0-3.0,,,,,,,,,,,,,,,64402288403028bd9abd98a7,19:37:23,03/04/2024
1183.0,,,ospan,symmetry,qTjntU45ZOh1SKObxkoZGWVbuil2,symmetry-judgement-task,148,828193,0.0-46.0-5.0-0.0-1.0-4.0,,,,,,,,,,1.0,1.0,,,,64402288403028bd9abd98a7,19:37:23,03/04/2024
,"<div style=""font-size: 10rem; color: #0000FF"">P</div>",,ospan,letter,qTjntU45ZOh1SKObxkoZGWVbuil2,html-keyboard-response,149,829198,0.0-46.0-5.0-0.0-1.0-5.0,,,,,,,,,,,,,,,64402288403028bd9abd98a7,19:37:23,03/04/2024
2200.0,,,ospan,symmetry,qTjntU45ZOh1SKObxkoZGWVbuil2,symmetry-judgement-task,150,833533,0.0-46.0-5.0-0.0-1.0-6.0,,,,,,,,,,1.0,1.0,,,,64402288403028bd9abd98a7,19:37:23,03/04/2024
,"<div style=""font-size: 10rem; color: #0000FF"">N</div>",,ospan,letter,qTjntU45ZOh1SKObxkoZGWVbuil2,html-keyboard-response,151,834555,0.0-46.0-5.0-0.0-1.0-7.0,,,,,,,,,,,,,,,64402288403028bd9abd98a7,19:37:23,03/04/2024
1048.0,,,ospan,symmetry,qTjntU45ZOh1SKObxkoZGWVbuil2,symmetry-judgement-task,152,837708,0.0-46.0-5.0-0.0-1.0-8.0,,,,,,,,,,1.0,1.0,,,,64402288403028bd9abd98a7,19:37:23,03/04/2024
,"<div style=""font-size: 10rem; color: #0000FF"">R</div>",,ospan,letter,qTjntU45ZOh1SKObxkoZGWVbuil2,html-keyboard-response,153,838720,0.0-46.0-5.0-0.0-1.0-9.0,,,,,,,,,,,,,,,64402288403028bd9abd98a7,19:37:23,03/04/2024
1555.0,,,ospan,symmetry,qTjntU45ZOh1SKObxkoZGWVbuil2,symmetry-judgement-task,154,842368,0.0-46.0-5.0-0.0-1.0-10.0,,,,,,,,,,1.0,1.0,,,,64402288403028bd9abd98a7,19:37:23,03/04/2024
,"<div style=""font-size: 10rem; color: #0000FF"">S</div>",,ospan,letter,qTjntU45ZOh1SKObxkoZGWVbuil2,html-keyboard-response,155,843394,0.0-46.0-5.0-0.0-1.0-11.0,,,,,,,,,,,,,,,64402288403028bd9abd98a7,19:37:23,03/04/2024
6730.80000000447,"<div class = numbox><p style=""font-size: 2.4rem"">Please recall the letters you saw to the best of your ability. If you do not remember a particular letter, use the SKIP button.<br><b>(When you are ready to lock in your answer, press ENTER)</b></p><button id = button_1 class = ""square num-button"" onclick = ""recordClick(this)""><div class = content><div class = numbers>C</div></div></button><button id = button_2 class = ""square num-button"" onclick = ""recordClick(this)""><div class = content><div class = numbers>G</div></div></button><button id = button_3 class = ""square num-button"" onclick = ""recordClick(this)""><div class = content><div class = numbers>H</div></div></button><button id = button_4 class = ""square num-button"" onclick = ""recordClick(this)""><div class = content><div class = numbers>J</div></div></button><button id = button_5 class = ""square num-button"" onclick = ""recordClick(this)""><div class = content><div class = numbers>K</div></div></button><button id = button_6 class = ""square num-button"" onclick = ""recordClick(this)""><div class = content><div class = numbers>L</div></div></button><button id = button_7 class = ""square num-button"" onclick = ""recordClick(this)""><div class = content><div class = numbers>N</div></div></button><button id = button_8 class = ""square num-button"" onclick = ""recordClick(this)""><div class = content><div class = numbers>P</div></div></button><button id = button_9 class = ""square num-button"" onclick = ""recordClick(this)""><div class = content><div class = numbers>Q</div></div></button><button id = button_10 class = ""square num-button"" onclick = ""recordClick(this)""><div class = content><div class = numbers>R</div></div></button><button id = button_11 class = ""square num-button"" onclick = ""recordClick(this)""><div class = content><div class = numbers>S</div></div></button><button id = button_12 class = ""square num-button"" onclick = ""recordClick(this)""><div class = content><div class = numbers>Y</div></div></button><button class = clear_button id = ""ClearButton"" onclick = ""clearResponse()"">BACKSPACE</button><button class = blank_button id = ""BlankButton"" onclick = ""blankResponse()"">SKIP</button><p style=""font-size: 2.4rem""><u><b>Current Answer:</b></u></p><br><br><div id=echoed_txt style=""font-size: 5rem; color:blue;""><b></b></div></div>",enter,ospan,retrieval,qTjntU45ZOh1SKObxkoZGWVbuil2,html-keyboard-response,156,850883,0.0-46.0-5.0-0.0-2.0,21,19,15,6.0,"[""L"",""H"",""P"",""N"",""S""]","[""L"",""H"",""P"",""N"",""R"",""S""]",0.0,4.0,,,,,,,64402288403028bd9abd98a7,19:37:23,03/04/2024
2093.7999999970198,[''],0,ospan,feedback,qTjntU45ZOh1SKObxkoZGWVbuil2,html-button-response,157,853484,0.0-46.0-5.0-0.0-3.0,,,,,,,,,,,,100.0,0.0,,64402288403028bd9abd98a7,19:37:23,03/04/2024
,"<p style=""font-size:75px;"">...</p>",,ospan,iti,qTjntU45ZOh1SKObxkoZGWVbuil2,html-keyboard-response,158,854495,0.0-46.0-5.0-1.0-0.0,,,,,,,,,,,,,,,64402288403028bd9abd98a7,19:37:23,03/04/2024
1269.0,,,ospan,symmetry,qTjntU45ZOh1SKObxkoZGWVbuil2,symmetry-judgement-task,159,857112,0.0-46.0-5.0-1.0-1.0-0.0,,,,,,,,,,1.0,1.0,,,,64402288403028bd9abd98a7,19:37:23,03/04/2024
,"<div style=""font-size: 10rem; color: #0000FF"">H</div>",,ospan,letter,qTjntU45ZOh1SKObxkoZGWVbuil2,html-keyboard-response,160,858117,0.0-46.0-5.0-1.0-1.0-1.0,,,,,,,,,,,,,,,64402288403028bd9abd98a7,19:37:23,03/04/2024
1794.0,,,ospan,symmetry,qTjntU45ZOh1SKObxkoZGWVbuil2,symmetry-judgement-task,161,861983,0.0-46.0-5.0-1.0-1.0-2.0,,,,,,,,,,1.0,1.0,,,,64402288403028bd9abd98a7,19:37:23,03/04/2024
,"<div style=""font-size: 10rem; color: #0000FF"">S</div>",,ospan,letter,qTjntU45ZOh1SKObxkoZGWVbuil2,html-keyboard-response,162,862995,0.0-46.0-5.0-1.0-1.0-3.0,,,,,,,,,,,,,,,64402288403028bd9abd98a7,19:37:23,03/04/2024
1558.0,,,ospan,symmetry,qTjntU45ZOh1SKObxkoZGWVbuil2,symmetry-judgement-task,163,866712,0.0-46.0-5.0-1.0-1.0-4.0,,,,,,,,,,1.0,1.0,,,,64402288403028bd9abd98a7,19:37:23,03/04/2024
,"<div style=""font-size: 10rem; color: #0000FF"">Y</div>",,ospan,letter,qTjntU45ZOh1SKObxkoZGWVbuil2,html-keyboard-response,164,867728,0.0-46.0-5.0-1.0-1.0-5.0,,,,,,,,,,,,,,,64402288403028bd9abd98a7,19:37:23,03/04/2024
1307.0,,,ospan,symmetry,qTjntU45ZOh1SKObxkoZGWVbuil2,symmetry-judgement-task,165,871125,0.0-46.0-5.0-1.0-1.0-6.0,,,,,,,,,,1.0,1.0,,,,64402288403028bd9abd98a7,19:37:23,03/04/2024
,"<div style=""font-size: 10rem; color: #0000FF"">K</div>",,ospan,letter,qTjntU45ZOh1SKObxkoZGWVbuil2,html-keyboard-response,166,872145,0.0-46.0-5.0-1.0-1.0-7.0,,,,,,,,,,,,,,,64402288403028bd9abd98a7,19:37:23,03/04/2024
1146.0,,,ospan,symmetry,qTjntU45ZOh1SKObxkoZGWVbuil2,symmetry-judgement-task,167,875395,0.0-46.0-5.0-1.0-1.0-8.0,,,,,,,,,,1.0,1.0,,,,64402288403028bd9abd98a7,19:37:23,03/04/2024
,"<div style=""font-size: 10rem; color: #0000FF"">P</div>",,ospan,letter,qTjntU45ZOh1SKObxkoZGWVbuil2,html-keyboard-response,168,876417,0.0-46.0-5.0-1.0-1.0-9.0,,,,,,,,,,,,,,,64402288403028bd9abd98a7,19:37:23,03/04/2024
1048.0,,,ospan,symmetry,qTjntU45ZOh1SKObxkoZGWVbuil2,symmetry-judgement-task,169,879570,0.0-46.0-5.0-1.0-1.0-10.0,,,,,,,,,,1.0,1.0,,,,64402288403028bd9abd98a7,19:37:23,03/04/2024
,"<div style=""font-size: 10rem; color: #0000FF"">G</div>",,ospan,letter,qTjntU45ZOh1SKObxkoZGWVbuil2,html-keyboard-response,170,880572,0.0-46.0-5.0-1.0-1.0-11.0,,,,,,,,,,,,,,,64402288403028bd9abd98a7,19:37:23,03/04/2024
1405.0,,,ospan,symmetry,qTjntU45ZOh1SKObxkoZGWVbuil2,symmetry-judgement-task,171,884140,0.0-46.0-5.0-1.0-1.0-12.0,,,,,,,,,,1.0,1.0,,,,64402288403028bd9abd98a7,19:37:23,03/04/2024
,"<div style=""font-size: 10rem; color: #0000FF"">Q</div>",,ospan,letter,qTjntU45ZOh1SKObxkoZGWVbuil2,html-keyboard-response,172,885153,0.0-46.0-5.0-1.0-1.0-13.0,,,,,,,,,,,,,,,64402288403028bd9abd98a7,19:37:23,03/04/2024
8139.20000000298,"<div class = numbox><p style=""font-size: 2.4rem"">Please recall the letters you saw to the best of your ability. If you do not remember a particular letter, use the SKIP button.<br><b>(When you are ready to lock in your answer, press ENTER)</b></p><button id = button_1 class = ""square num-button"" onclick = ""recordClick(this)""><div class = content><div class = numbers>C</div></div></button><button id = button_2 class = ""square num-button"" onclick = ""recordClick(this)""><div class = content><div class = numbers>G</div></div></button><button id = button_3 class = ""square num-button"" onclick = ""recordClick(this)""><div class = content><div class = numbers>H</div></div></button><button id = button_4 class = ""square num-button"" onclick = ""recordClick(this)""><div class = content><div class = numbers>J</div></div></button><button id = button_5 class = ""square num-button"" onclick = ""recordClick(this)""><div class = content><div class = numbers>K</div></div></button><button id = button_6 class = ""square num-button"" onclick = ""recordClick(this)""><div class = content><div class = numbers>L</div></div></button><button id = button_7 class = ""square num-button"" onclick = ""recordClick(this)""><div class = content><div class = numbers>N</div></div></button><button id = button_8 class = ""square num-button"" onclick = ""recordClick(this)""><div class = content><div class = numbers>P</div></div></button><button id = button_9 class = ""square num-button"" onclick = ""recordClick(this)""><div class = content><div class = numbers>Q</div></div></button><button id = button_10 class = ""square num-button"" onclick = ""recordClick(this)""><div class = content><div class = numbers>R</div></div></button><button id = button_11 class = ""square num-button"" onclick = ""recordClick(this)""><div class = content><div class = numbers>S</div></div></button><button id = button_12 class = ""square num-button"" onclick = ""recordClick(this)""><div class = content><div class = numbers>Y</div></div></button><button class = clear_button id = ""ClearButton"" onclick = ""clearResponse()"">BACKSPACE</button><button class = blank_button id = ""BlankButton"" onclick = ""blankResponse()"">SKIP</button><p style=""font-size: 2.4rem""><u><b>Current Answer:</b></u></p><br><br><div id=echoed_txt style=""font-size: 5rem; color:blue;""><b></b></div></div>",enter,ospan,retrieval,qTjntU45ZOh1SKObxkoZGWVbuil2,html-keyboard-response,173,894057,0.0-46.0-5.0-1.0-2.0,28,23,15,7.0,"[""H"",""S"",""Y"",""G"",""P"",""Q""]","[""H"",""S"",""Y"",""K"",""P"",""G"",""Q""]",0.0,4.0,,,,,,,64402288403028bd9abd98a7,19:37:23,03/04/2024
1218.1000000014901,[''],0,ospan,feedback,qTjntU45ZOh1SKObxkoZGWVbuil2,html-button-response,174,895792,0.0-46.0-5.0-1.0-3.0,,,,,,,,,,,,100.0,0.0,,64402288403028bd9abd98a7,19:37:23,03/04/2024
,"<p style=""font-size:75px;"">...</p>",,ospan,iti,qTjntU45ZOh1SKObxkoZGWVbuil2,html-keyboard-response,175,896798,0.0-46.0-6.0-0.0-0.0,,,,,,,,,,,,,,,64402288403028bd9abd98a7,19:37:23,03/04/2024
1232.0,,,ospan,symmetry,qTjntU45ZOh1SKObxkoZGWVbuil2,symmetry-judgement-task,176,899373,0.0-46.0-6.0-0.0-1.0-0.0,,,,,,,,,,1.0,1.0,,,,64402288403028bd9abd98a7,19:37:23,03/04/2024
,"<div style=""font-size: 10rem; color: #0000FF"">S</div>",,ospan,letter,qTjntU45ZOh1SKObxkoZGWVbuil2,html-keyboard-response,177,900385,0.0-46.0-6.0-0.0-1.0-1.0,,,,,,,,,,,,,,,64402288403028bd9abd98a7,19:37:23,03/04/2024
2370.0,,,ospan,symmetry,qTjntU45ZOh1SKObxkoZGWVbuil2,symmetry-judgement-task,178,904861,0.0-46.0-6.0-0.0-1.0-2.0,,,,,,,,,,1.0,1.0,,,,64402288403028bd9abd98a7,19:37:23,03/04/2024
,"<div style=""font-size: 10rem; color: #0000FF"">N</div>",,ospan,letter,qTjntU45ZOh1SKObxkoZGWVbuil2,html-keyboard-response,179,905874,0.0-46.0-6.0-0.0-1.0-3.0,,,,,,,,,,,,,,,64402288403028bd9abd98a7,19:37:23,03/04/2024
1562.0,,,ospan,symmetry,qTjntU45ZOh1SKObxkoZGWVbuil2,symmetry-judgement-task,180,909635,0.0-46.0-6.0-0.0-1.0-4.0,,,,,,,,,,1.0,1.0,,,,64402288403028bd9abd98a7,19:37:23,03/04/2024
,"<div style=""font-size: 10rem; color: #0000FF"">K</div>",,ospan,letter,qTjntU45ZOh1SKObxkoZGWVbuil2,html-keyboard-response,181,910643,0.0-46.0-6.0-0.0-1.0-5.0,,,,,,,,,,,,,,,64402288403028bd9abd98a7,19:37:23,03/04/2024
1074.0,,,ospan,symmetry,qTjntU45ZOh1SKObxkoZGWVbuil2,symmetry-judgement-task,182,913792,0.0-46.0-6.0-0.0-1.0-6.0,,,,,,,,,,1.0,1.0,,,,64402288403028bd9abd98a7,19:37:23,03/04/2024
,"<div style=""font-size: 10rem; color: #0000FF"">Y</div>",,ospan,letter,qTjntU45ZOh1SKObxkoZGWVbuil2,html-keyboard-response,183,914798,0.0-46.0-6.0-0.0-1.0-7.0,,,,,,,,,,,,,,,64402288403028bd9abd98a7,19:37:23,03/04/2024
1395.0,,,ospan,symmetry,qTjntU45ZOh1SKObxkoZGWVbuil2,symmetry-judgement-task,184,918241,0.0-46.0-6.0-0.0-1.0-8.0,,,,,,,,,,1.0,1.0,,,,64402288403028bd9abd98a7,19:37:23,03/04/2024
,"<div style=""font-size: 10rem; color: #0000FF"">R</div>",,ospan,letter,qTjntU45ZOh1SKObxkoZGWVbuil2,html-keyboard-response,185,919265,0.0-46.0-6.0-0.0-1.0-9.0,,,,,,,,,,,,,,,64402288403028bd9abd98a7,19:37:23,03/04/2024
9016.89999999851,"<div class = numbox><p style=""font-size: 2.4rem"">Please recall the letters you saw to the best of your ability. If you do not remember a particular letter, use the SKIP button.<br><b>(When you are ready to lock in your answer, press ENTER)</b></p><button id = button_1 class = ""square num-button"" onclick = ""recordClick(this)""><div class = content><div class = numbers>C</div></div></button><button id = button_2 class = ""square num-button"" onclick = ""recordClick(this)""><div class = content><div class = numbers>G</div></div></button><button id = button_3 class = ""square num-button"" onclick = ""recordClick(this)""><div class = content><div class = numbers>H</div></div></button><button id = button_4 class = ""square num-button"" onclick = ""recordClick(this)""><div class = content><div class = numbers>J</div></div></button><button id = button_5 class = ""square num-button"" onclick = ""recordClick(this)""><div class = content><div class = numbers>K</div></div></button><button id = button_6 class = ""square num-button"" onclick = ""recordClick(this)""><div class = content><div class = numbers>L</div></div></button><button id = button_7 class = ""square num-button"" onclick = ""recordClick(this)""><div class = content><div class = numbers>N</div></div></button><button id = button_8 class = ""square num-button"" onclick = ""recordClick(this)""><div class = content><div class = numbers>P</div></div></button><button id = button_9 class = ""square num-button"" onclick = ""recordClick(this)""><div class = content><div class = numbers>Q</div></div></button><button id = button_10 class = ""square num-button"" onclick = ""recordClick(this)""><div class = content><div class = numbers>R</div></div></button><button id = button_11 class = ""square num-button"" onclick = ""recordClick(this)""><div class = content><div class = numbers>S</div></div></button><button id = button_12 class = ""square num-button"" onclick = ""recordClick(this)""><div class = content><div class = numbers>Y</div></div></button><button class = clear_button id = ""ClearButton"" onclick = ""clearResponse()"">BACKSPACE</button><button class = blank_button id = ""BlankButton"" onclick = ""blankResponse()"">SKIP</button><p style=""font-size: 2.4rem""><u><b>Current Answer:</b></u></p><br><br><div id=echoed_txt style=""font-size: 5rem; color:blue;""><b></b></div></div>",enter,ospan,retrieval,qTjntU45ZOh1SKObxkoZGWVbuil2,html-keyboard-response,186,929046,0.0-46.0-6.0-0.0-2.0,33,27,15,5.0,"[""S"",""N"",""K"",""Y""]","[""S"",""N"",""K"",""Y"",""R""]",0.0,4.0,,,,,,,64402288403028bd9abd98a7,19:37:23,03/04/2024
1301.1000000014901,[''],0,ospan,feedback,qTjntU45ZOh1SKObxkoZGWVbuil2,html-button-response,187,930858,0.0-46.0-6.0-0.0-3.0,,,,,,,,,,,,100.0,0.0,,64402288403028bd9abd98a7,19:37:23,03/04/2024
,"<p style=""font-size:75px;"">...</p>",,ospan,iti,qTjntU45ZOh1SKObxkoZGWVbuil2,html-keyboard-response,188,931864,0.0-46.0-6.0-1.0-0.0,,,,,,,,,,,,,,,64402288403028bd9abd98a7,19:37:23,03/04/2024
1376.0,,,ospan,symmetry,qTjntU45ZOh1SKObxkoZGWVbuil2,symmetry-judgement-task,189,934585,0.0-46.0-6.0-1.0-1.0-0.0,,,,,,,,,,1.0,1.0,,,,64402288403028bd9abd98a7,19:37:23,03/04/2024
,"<div style=""font-size: 10rem; color: #0000FF"">S</div>",,ospan,letter,qTjntU45ZOh1SKObxkoZGWVbuil2,html-keyboard-response,190,935592,0.0-46.0-6.0-1.0-1.0-1.0,,,,,,,,,,,,,,,64402288403028bd9abd98a7,19:37:23,03/04/2024
1292.0,,,ospan,symmetry,qTjntU45ZOh1SKObxkoZGWVbuil2,symmetry-judgement-task,191,938945,0.0-46.0-6.0-1.0-1.0-2.0,,,,,,,,,,1.0,1.0,,,,64402288403028bd9abd98a7,19:37:23,03/04/2024
,"<div style=""font-size: 10rem; color: #0000FF"">Y</div>",,ospan,letter,qTjntU45ZOh1SKObxkoZGWVbuil2,html-keyboard-response,192,939957,0.0-46.0-6.0-1.0-1.0-3.0,,,,,,,,,,,,,,,64402288403028bd9abd98a7,19:37:23,03/04/2024
1225.0,,,ospan,symmetry,qTjntU45ZOh1SKObxkoZGWVbuil2,symmetry-judgement-task,193,943228,0.0-46.0-6.0-1.0-1.0-4.0,,,,,,,,,,1.0,1.0,,,,64402288403028bd9abd98a7,19:37:23,03/04/2024
,"<div style=""font-size: 10rem; color: #0000FF"">C</div>",,ospan,letter,qTjntU45ZOh1SKObxkoZGWVbuil2,html-keyboard-response,194,944251,0.0-46.0-6.0-1.0-1.0-5.0,,,,,,,,,,,,,,,64402288403028bd9abd98a7,19:37:23,03/04/2024
1171.0,,,ospan,symmetry,qTjntU45ZOh1SKObxkoZGWVbuil2,symmetry-judgement-task,195,947482,0.0-46.0-6.0-1.0-1.0-6.0,,,,,,,,,,1.0,1.0,,,,64402288403028bd9abd98a7,19:37:23,03/04/2024
,"<div style=""font-size: 10rem; color: #0000FF"">Q</div>",,ospan,letter,qTjntU45ZOh1SKObxkoZGWVbuil2,html-keyboard-response,196,948484,0.0-46.0-6.0-1.0-1.0-7.0,,,,,,,,,,,,,,,64402288403028bd9abd98a7,19:37:23,03/04/2024
1401.0,,,ospan,symmetry,qTjntU45ZOh1SKObxkoZGWVbuil2,symmetry-judgement-task,197,951951,0.0-46.0-6.0-1.0-1.0-8.0,,,,,,,,,,1.0,1.0,,,,64402288403028bd9abd98a7,19:37:23,03/04/2024
,"<div style=""font-size: 10rem; color: #0000FF"">G</div>",,ospan,letter,qTjntU45ZOh1SKObxkoZGWVbuil2,html-keyboard-response,198,952961,0.0-46.0-6.0-1.0-1.0-9.0,,,,,,,,,,,,,,,64402288403028bd9abd98a7,19:37:23,03/04/2024
1921.0,,,ospan,symmetry,qTjntU45ZOh1SKObxkoZGWVbuil2,symmetry-judgement-task,199,956930,0.0-46.0-6.0-1.0-1.0-10.0,,,,,,,,,,1.0,1.0,,,,64402288403028bd9abd98a7,19:37:23,03/04/2024
,"<div style=""font-size: 10rem; color: #0000FF"">J</div>",,ospan,letter,qTjntU45ZOh1SKObxkoZGWVbuil2,html-keyboard-response,200,957945,0.0-46.0-6.0-1.0-1.0-11.0,,,,,,,,,,,,,,,64402288403028bd9abd98a7,19:37:23,03/04/2024
1966.0,,,ospan,symmetry,qTjntU45ZOh1SKObxkoZGWVbuil2,symmetry-judgement-task,201,962035,0.0-46.0-6.0-1.0-1.0-12.0,,,,,,,,,,1.0,1.0,,,,64402288403028bd9abd98a7,19:37:23,03/04/2024
,"<div style=""font-size: 10rem; color: #0000FF"">L</div>",,ospan,letter,qTjntU45ZOh1SKObxkoZGWVbuil2,html-keyboard-response,202,963045,0.0-46.0-6.0-1.0-1.0-13.0,,,,,,,,,,,,,,,64402288403028bd9abd98a7,19:37:23,03/04/2024
1285.0,,,ospan,symmetry,qTjntU45ZOh1SKObxkoZGWVbuil2,symmetry-judgement-task,203,966463,0.0-46.0-6.0-1.0-1.0-14.0,,,,,,,,,,1.0,1.0,,,,64402288403028bd9abd98a7,19:37:23,03/04/2024
,"<div style=""font-size: 10rem; color: #0000FF"">N</div>",,ospan,letter,qTjntU45ZOh1SKObxkoZGWVbuil2,html-keyboard-response,204,967467,0.0-46.0-6.0-1.0-1.0-15.0,,,,,,,,,,,,,,,64402288403028bd9abd98a7,19:37:23,03/04/2024
9878.19999999553,"<div class = numbox><p style=""font-size: 2.4rem"">Please recall the letters you saw to the best of your ability. If you do not remember a particular letter, use the SKIP button.<br><b>(When you are ready to lock in your answer, press ENTER)</b></p><button id = button_1 class = ""square num-button"" onclick = ""recordClick(this)""><div class = content><div class = numbers>C</div></div></button><button id = button_2 class = ""square num-button"" onclick = ""recordClick(this)""><div class = content><div class = numbers>G</div></div></button><button id = button_3 class = ""square num-button"" onclick = ""recordClick(this)""><div class = content><div class = numbers>H</div></div></button><button id = button_4 class = ""square num-button"" onclick = ""recordClick(this)""><div class = content><div class = numbers>J</div></div></button><button id = button_5 class = ""square num-button"" onclick = ""recordClick(this)""><div class = content><div class = numbers>K</div></div></button><button id = button_6 class = ""square num-button"" onclick = ""recordClick(this)""><div class = content><div class = numbers>L</div></div></button><button id = button_7 class = ""square num-button"" onclick = ""recordClick(this)""><div class = content><div class = numbers>N</div></div></button><button id = button_8 class = ""square num-button"" onclick = ""recordClick(this)""><div class = content><div class = numbers>P</div></div></button><button id = button_9 class = ""square num-button"" onclick = ""recordClick(this)""><div class = content><div class = numbers>Q</div></div></button><button id = button_10 class = ""square num-button"" onclick = ""recordClick(this)""><div class = content><div class = numbers>R</div></div></button><button id = button_11 class = ""square num-button"" onclick = ""recordClick(this)""><div class = content><div class = numbers>S</div></div></button><button id = button_12 class = ""square num-button"" onclick = ""recordClick(this)""><div class = content><div class = numbers>Y</div></div></button><button class = clear_button id = ""ClearButton"" onclick = ""clearResponse()"">BACKSPACE</button><button class = blank_button id = ""BlankButton"" onclick = ""blankResponse()"">SKIP</button><p style=""font-size: 2.4rem""><u><b>Current Answer:</b></u></p><br><br><div id=echoed_txt style=""font-size: 5rem; color:blue;""><b></b></div></div>",enter,ospan,retrieval,qTjntU45ZOh1SKObxkoZGWVbuil2,html-keyboard-response,205,978110,0.0-46.0-6.0-1.0-2.0,41,31,15,8.0,"[""S"",""Y"",""C"",""J"",""G"",""Q""]","[""S"",""Y"",""C"",""Q"",""G"",""J"",""L"",""N""]",0.0,4.0,,,,,,,64402288403028bd9abd98a7,19:37:23,03/04/2024
2014.1999999955297,[''],0,ospan,feedback,qTjntU45ZOh1SKObxkoZGWVbuil2,html-button-response,206,980648,0.0-46.0-6.0-1.0-3.0,,,,,,,,,,,,100.0,0.0,,64402288403028bd9abd98a7,19:37:23,03/04/2024
31295.5,,{'Q0': 'I enjoyed this task although it was challenging! Especially when the number of letters to remember increased. '},ospan,survey_ospan,qTjntU45ZOh1SKObxkoZGWVbuil2,lmdlab-survey-text,207,1012707,0.0-46.0-7.0,,,,,,,,,,,,,,qTjntU45ZOh1SKObxkoZGWVbuil2,64402288403028bd9abd98a7,19:37:23,03/04/2024
1371.2999999970198,<p><p style='font-size: 3rem'>Great work!<br><br>This completes the symmetry and memory task.</p><br><br><br>,0,ospan,finish,qTjntU45ZOh1SKObxkoZGWVbuil2,html-button-response,208,1014086,0.0-46.0-8.0,41,31,15,,,,,,,,,100.0,,,64402288403028bd9abd98a7,19:37:23,03/04/2024
