rt,stimulus,response,exp_name,exp_stage,subjectID,trial_type,trial_index,time_elapsed,internal_node_id,ospan_shown,ospan_total,ospan_abs,length,resp_actual,resp_correct,full_correct,num_correct,feedback,accuracy,correct,math_acc,math_warning,databaseID,prolificID,start_time,date
2813.100000143051,<div class = 'left_align' style='font-size: 3.25rem; line-height: 1.3;'><p class = 'center_align'><b>Welcome to the Symmetry and Memory Task</b><br><br><br><br></p>Press 'continue' to show the instructions.<br><br><br><br></div>,0,ospan,instruct,ibdABvmSLEg8jNNVnThvIW2CHfK2,html-button-response,54,481334,0.0-46.0-0.0-0.0-0.0,,,,,,,,,,,,,,,6346e221d4cea480a1a39b52,23:51:47,03/04/2024
8244.299999952316,"<div class = 'left_align' style='font-size: 3.25rem; line-height: 1.3;'><p class = 'center_align'><b>Symmetry and Memory Task</b><br><br></p>In this task, you will try to memorize letters you see on the screen<br>while you also view black and white grid pictures.<br><br>In the next few minutes, you will have some practice to get you familiar<br>with how the task works.<br><br>It may be difficult sometimes, but please do not worry about making mistakes!<br><br>We will begin by practicing the letter part of the task.<br><br><br><br></div>",0,ospan,instruct,ibdABvmSLEg8jNNVnThvIW2CHfK2,html-button-response,55,489831,0.0-46.0-0.0-0.0-1.0,,,,,,,,,,,,,,,6346e221d4cea480a1a39b52,23:51:47,03/04/2024
8762.5,"<div class = 'left_align' style='font-size: 3.25rem; line-height: 1.3;'>For this practice part, letters will appear on the screen one at a time.<br><br>Try to remember each letter in the order presented.<br><br>After some letters have been shown, you will see a response screen. Your<br>goal is to report the letters you saw <b>in order</b>. If you do not remember<br>a particular letter, you will have the option to leave it blank.<br><br><br><br></div>",0,ospan,instruct,ibdABvmSLEg8jNNVnThvIW2CHfK2,html-button-response,56,498850,0.0-46.0-0.0-0.0-2.0,,,,,,,,,,,,,,,6346e221d4cea480a1a39b52,23:51:47,03/04/2024
3460.600000143051,"<div class = 'left_align' style='font-size: 3.25rem; line-height: 1.3;'>Remember, it is very important to get the letters in the same<br>order as you see them.<br><br>When you are ready, you may begin the letter practice.</div><br><br><br><br>",0,ospan,instruct,ibdABvmSLEg8jNNVnThvIW2CHfK2,html-button-response,57,502565,0.0-46.0-0.0-0.0-3.0,,,,,,,,,,,,,,,6346e221d4cea480a1a39b52,23:51:47,03/04/2024
,"<p style=""font-size:75px;"">...</p>",,ospan,iti,ibdABvmSLEg8jNNVnThvIW2CHfK2,html-keyboard-response,58,503821,0.0-46.0-0.0-1.0-0.0,,,,,,,,,,,,,,,6346e221d4cea480a1a39b52,23:51:47,03/04/2024
,"<div style=""font-size: 10rem; color: #0000FF"">C</div>",,ospan,letter,ibdABvmSLEg8jNNVnThvIW2CHfK2,html-keyboard-response,59,504825,0.0-46.0-0.0-1.0-1.0,,,,,,,,,,,,,,,6346e221d4cea480a1a39b52,23:51:47,03/04/2024
,"<div style=""font-size: 10rem; color: #0000FF"">Y</div>",,ospan,letter,ibdABvmSLEg8jNNVnThvIW2CHfK2,html-keyboard-response,60,506579,0.0-46.0-0.0-1.0-2.0,,,,,,,,,,,,,,,6346e221d4cea480a1a39b52,23:51:47,03/04/2024
8930.900000095367,"<div class = numbox><p style=""font-size: 2.4rem"">Please recall the letters you saw to the best of your ability. If you do not remember a particular letter, use the SKIP button.<br><b>(When you are ready to lock in your answer, press ENTER)</b></p><button id = button_1 class = ""square num-button"" onclick = ""recordClick(this)""><div class = content><div class = numbers>C</div></div></button><button id = button_2 class = ""square num-button"" onclick = ""recordClick(this)""><div class = content><div class = numbers>G</div></div></button><button id = button_3 class = ""square num-button"" onclick = ""recordClick(this)""><div class = content><div class = numbers>H</div></div></button><button id = button_4 class = ""square num-button"" onclick = ""recordClick(this)""><div class = content><div class = numbers>J</div></div></button><button id = button_5 class = ""square num-button"" onclick = ""recordClick(this)""><div class = content><div class = numbers>K</div></div></button><button id = button_6 class = ""square num-button"" onclick = ""recordClick(this)""><div class = content><div class = numbers>L</div></div></button><button id = button_7 class = ""square num-button"" onclick = ""recordClick(this)""><div class = content><div class = numbers>N</div></div></button><button id = button_8 class = ""square num-button"" onclick = ""recordClick(this)""><div class = content><div class = numbers>P</div></div></button><button id = button_9 class = ""square num-button"" onclick = ""recordClick(this)""><div class = content><div class = numbers>Q</div></div></button><button id = button_10 class = ""square num-button"" onclick = ""recordClick(this)""><div class = content><div class = numbers>R</div></div></button><button id = button_11 class = ""square num-button"" onclick = ""recordClick(this)""><div class = content><div class = numbers>S</div></div></button><button id = button_12 class = ""square num-button"" onclick = ""recordClick(this)""><div class = content><div class = numbers>Y</div></div></button><button class = clear_button id = ""ClearButton"" onclick = ""clearResponse()"">BACKSPACE</button><button class = blank_button id = ""BlankButton"" onclick = ""blankResponse()"">SKIP</button><p style=""font-size: 2.4rem""><u><b>Current Answer:</b></u></p><br><br><div id=echoed_txt style=""font-size: 5rem; color:blue;""><b></b></div></div>",enter,ospan,retrieval,ibdABvmSLEg8jNNVnThvIW2CHfK2,html-keyboard-response,61,516264,0.0-46.0-0.0-1.0-3.0,NA,NA,NA,2.0,"[""C"",""Y""]","[""C"",""Y""]",1.0,2.0,"['<font color=""green"">C</font>', '<font color=""green"">Y</font>']",,,,,,6346e221d4cea480a1a39b52,23:51:47,03/04/2024
1361.0999999046326,"['<p style=""font-size:44px"">Letters:<br><br><br><font color=""green"">C</font> <font color=""green"">Y</font></p><br><br>']",0,ospan,practice_feedback,ibdABvmSLEg8jNNVnThvIW2CHfK2,html-button-response,62,518129,0.0-46.0-0.0-1.0-4.0,,,,,,,,,,,,,,,6346e221d4cea480a1a39b52,23:51:47,03/04/2024
,"<p style=""font-size:75px;"">...</p>",,ospan,iti,ibdABvmSLEg8jNNVnThvIW2CHfK2,html-keyboard-response,63,519133,0.0-46.0-0.0-2.0-0.0,,,,,,,,,,,,,,,6346e221d4cea480a1a39b52,23:51:47,03/04/2024
,"<div style=""font-size: 10rem; color: #0000FF"">P</div>",,ospan,letter,ibdABvmSLEg8jNNVnThvIW2CHfK2,html-keyboard-response,64,520134,0.0-46.0-0.0-2.0-1.0,,,,,,,,,,,,,,,6346e221d4cea480a1a39b52,23:51:47,03/04/2024
,"<div style=""font-size: 10rem; color: #0000FF"">J</div>",,ospan,letter,ibdABvmSLEg8jNNVnThvIW2CHfK2,html-keyboard-response,65,521888,0.0-46.0-0.0-2.0-2.0,,,,,,,,,,,,,,,6346e221d4cea480a1a39b52,23:51:47,03/04/2024
,"<div style=""font-size: 10rem; color: #0000FF"">C</div>",,ospan,letter,ibdABvmSLEg8jNNVnThvIW2CHfK2,html-keyboard-response,66,523643,0.0-46.0-0.0-2.0-3.0,,,,,,,,,,,,,,,6346e221d4cea480a1a39b52,23:51:47,03/04/2024
7583.0,"<div class = numbox><p style=""font-size: 2.4rem"">Please recall the letters you saw to the best of your ability. If you do not remember a particular letter, use the SKIP button.<br><b>(When you are ready to lock in your answer, press ENTER)</b></p><button id = button_1 class = ""square num-button"" onclick = ""recordClick(this)""><div class = content><div class = numbers>C</div></div></button><button id = button_2 class = ""square num-button"" onclick = ""recordClick(this)""><div class = content><div class = numbers>G</div></div></button><button id = button_3 class = ""square num-button"" onclick = ""recordClick(this)""><div class = content><div class = numbers>H</div></div></button><button id = button_4 class = ""square num-button"" onclick = ""recordClick(this)""><div class = content><div class = numbers>J</div></div></button><button id = button_5 class = ""square num-button"" onclick = ""recordClick(this)""><div class = content><div class = numbers>K</div></div></button><button id = button_6 class = ""square num-button"" onclick = ""recordClick(this)""><div class = content><div class = numbers>L</div></div></button><button id = button_7 class = ""square num-button"" onclick = ""recordClick(this)""><div class = content><div class = numbers>N</div></div></button><button id = button_8 class = ""square num-button"" onclick = ""recordClick(this)""><div class = content><div class = numbers>P</div></div></button><button id = button_9 class = ""square num-button"" onclick = ""recordClick(this)""><div class = content><div class = numbers>Q</div></div></button><button id = button_10 class = ""square num-button"" onclick = ""recordClick(this)""><div class = content><div class = numbers>R</div></div></button><button id = button_11 class = ""square num-button"" onclick = ""recordClick(this)""><div class = content><div class = numbers>S</div></div></button><button id = button_12 class = ""square num-button"" onclick = ""recordClick(this)""><div class = content><div class = numbers>Y</div></div></button><button class = clear_button id = ""ClearButton"" onclick = ""clearResponse()"">BACKSPACE</button><button class = blank_button id = ""BlankButton"" onclick = ""blankResponse()"">SKIP</button><p style=""font-size: 2.4rem""><u><b>Current Answer:</b></u></p><br><br><div id=echoed_txt style=""font-size: 5rem; color:blue;""><b></b></div></div>",enter,ospan,retrieval,ibdABvmSLEg8jNNVnThvIW2CHfK2,html-keyboard-response,67,531979,0.0-46.0-0.0-2.0-4.0,NA,NA,NA,3.0,"[""P"",""J"",""C""]","[""P"",""J"",""C""]",1.0,3.0,"['<font color=""green"">P</font>', '<font color=""green"">J</font>', '<font color=""green"">C</font>']",,,,,,6346e221d4cea480a1a39b52,23:51:47,03/04/2024
1479.3999998569489,"['<p style=""font-size:44px"">Letters:<br><br><br><font color=""green"">P</font> <font color=""green"">J</font> <font color=""green"">C</font></p><br><br>']",0,ospan,practice_feedback,ibdABvmSLEg8jNNVnThvIW2CHfK2,html-button-response,68,533963,0.0-46.0-0.0-2.0-5.0,,,,,,,,,,,,,,,6346e221d4cea480a1a39b52,23:51:47,03/04/2024
12696.700000047684,"<div class = 'left_align' style='font-size: 3.25rem; line-height: 1.3;'>Now you will practice doing the <b>symmetry judgment part</b> of the experiment.<br><br>A black and white grid picture will appear on the screen and you have to judge if it is <br>symmetrical or asymetrical.<br><br>A picture is 'mirror' symmetrical if its left half is identical to the right half when flipped.<br>Here are examples of a symmetrical and an asymetrical picture:<br><br><center><img src='Stimuli/img/symm_instructions_extra.png' style='height:420px; width:900'></img></center><br>To judge symmetry, imagine you were to fold each picture down the middle, like a book –<br>would the left half match the right half when folded onto each other?<br><br></div><br>",0,ospan,instruct,ibdABvmSLEg8jNNVnThvIW2CHfK2,html-button-response,69,546662,0.0-46.0-1.0-0.0-0.0,,,,,,,,,,,,,,,6346e221d4cea480a1a39b52,23:51:47,03/04/2024
3464.699999809265,"<div class = 'left_align' style='font-size: 3.25rem; line-height: 1.3;'>When you have viewed the picture and determined whether it is symmetrical or not,<br>you can <b>click the Yes or No button</b> below to answer.<br><br>If you take longer than 15 seconds, it will continue automatically<br>and record the answer as an error.</div><br>",0,ospan,instruct,ibdABvmSLEg8jNNVnThvIW2CHfK2,html-button-response,70,550380,0.0-46.0-1.0-0.0-1.0,,,,,,,,,,,,,,,6346e221d4cea480a1a39b52,23:51:47,03/04/2024
5779.899999856949,"<div class = 'left_align' style='font-size: 3.25rem; line-height: 1.3;'>It is <b>very</b> important that you make the symmetry judgment correctly.<br><br>It is also important that you try and judge the picture as quickly as you can.<br><br>When you are ready, click on the button below to try some practice problems.</div><br><br><br><br>",0,ospan,instruct,ibdABvmSLEg8jNNVnThvIW2CHfK2,html-button-response,71,556412,0.0-46.0-1.0-0.0-2.0,,,,,,,,,,,,,,,6346e221d4cea480a1a39b52,23:51:47,03/04/2024
2137.0,,,ospan,symmetry,ibdABvmSLEg8jNNVnThvIW2CHfK2,symmetry-judgement-task,72,559351,0.0-46.0-1.0-1.0-0.0,,,,,,,,,,1.0,1.0,,,,6346e221d4cea480a1a39b52,23:51:47,03/04/2024
,"<p style=""color:green; font-size: 35px"">Correct</p>",,ospan,feedback,ibdABvmSLEg8jNNVnThvIW2CHfK2,html-keyboard-response,73,560104,0.0-46.0-1.0-1.0-1.0,,,,,,,,,,,,,,,6346e221d4cea480a1a39b52,23:51:47,03/04/2024
2554.0,,,ospan,symmetry,ibdABvmSLEg8jNNVnThvIW2CHfK2,symmetry-judgement-task,74,565297,0.0-46.0-1.0-1.0-2.0,,,,,,,,,,1.0,1.0,,,,6346e221d4cea480a1a39b52,23:51:47,03/04/2024
,"<p style=""color:green; font-size: 35px"">Correct</p>",,ospan,feedback,ibdABvmSLEg8jNNVnThvIW2CHfK2,html-keyboard-response,75,566050,0.0-46.0-1.0-1.0-3.0,,,,,,,,,,,,,,,6346e221d4cea480a1a39b52,23:51:47,03/04/2024
4272.0,,,ospan,symmetry,ibdABvmSLEg8jNNVnThvIW2CHfK2,symmetry-judgement-task,76,572862,0.0-46.0-1.0-1.0-4.0,,,,,,,,,,1.0,1.0,,,,6346e221d4cea480a1a39b52,23:51:47,03/04/2024
,"<p style=""color:green; font-size: 35px"">Correct</p>",,ospan,feedback,ibdABvmSLEg8jNNVnThvIW2CHfK2,html-keyboard-response,77,573616,0.0-46.0-1.0-1.0-5.0,,,,,,,,,,,,,,,6346e221d4cea480a1a39b52,23:51:47,03/04/2024
1608.4000000953674,"<p style=""font-size: 3rem;"">You responded correctly on 3 of 3 symmetry judgments. Good job!</p><br><br>",0,ospan,practice,ibdABvmSLEg8jNNVnThvIW2CHfK2,html-button-response,78,577228,0.0-46.0-1.0-2.0,,,,,,,,,,,,,,,6346e221d4cea480a1a39b52,23:51:47,03/04/2024
9779.700000047684,"<div class = 'left_align' style='font-size: 3.25rem; line-height: 1.3;'>Now you will practice doing both parts of the experiment at the same time.<br><br>In the next practice set, you will be given one grid picture to judge.<br>Then letter will appear on the screen. Try to remember the letter.<br><br>It is <b>very important</b> to make the symmetry judgment as quickly and accurately as possible.<br><br>Just as before, once you have make the symmetry judgment, you can click Yes or No.<br><b>Note that you will no longer see Correct or Incorrect feedback.</div><br><br><br><br>",0,ospan,instruct,ibdABvmSLEg8jNNVnThvIW2CHfK2,html-button-response,79,587261,0.0-46.0-2.0-0.0-0.0,,,,,,,,,,,,,,,6346e221d4cea480a1a39b52,23:51:47,03/04/2024
3394.2999999523163,"<div class = 'left_align' style='font-size: 3.25rem; line-height: 1.3;'>After the letter goes away, another grid picture will appear, and then<br>another letter.<br><br>At the end of each set of letters and grids, you will recall the letters to the best<br>of your ability. Remember, try your best to get the letters in the correct order.<br><br>It is important to <b>quickly</b> and <b>accurately</b> make the symmetry judgments.</div><br><br><br><br>",0,ospan,instruct,ibdABvmSLEg8jNNVnThvIW2CHfK2,html-button-response,80,590911,0.0-46.0-2.0-0.0-1.0,,,,,,,,,,,,,,,6346e221d4cea480a1a39b52,23:51:47,03/04/2024
16429.799999952316,"<div class = 'left_align' style='font-size: 3.25rem; line-height: 1.3;'>On the feedback screen, if you are not doing well at the symmetry judgments,<br>you will also see a warning in the middle. This indicates your percent <br>correct for the grid pictures for the entire experiment.<br><br>It is <b>very</b> important for you to keep accuracy at least at 85%: <u>We can only use<br>data where the participant was at least 85% accurate on the judgments.</u> Therefore,<br> please try your best to perform well on the symmetry judgments, <b>at the same time</b><br>doing your best to recall as many letters as possible.<br><br>Click the button to try some practice problems.</div><br><br><br><br>",0,ospan,instruct,ibdABvmSLEg8jNNVnThvIW2CHfK2,html-button-response,81,607594,0.0-46.0-2.0-0.0-2.0,,,,,,,,,,,,,,,6346e221d4cea480a1a39b52,23:51:47,03/04/2024
,"<p style=""font-size:75px;"">...</p>",,ospan,iti,ibdABvmSLEg8jNNVnThvIW2CHfK2,html-keyboard-response,82,608849,0.0-46.0-2.0-1.0-0.0,,,,,,,,,,,,,,,6346e221d4cea480a1a39b52,23:51:47,03/04/2024
1909.0,,,ospan,symmetry,ibdABvmSLEg8jNNVnThvIW2CHfK2,symmetry-judgement-task,83,611795,0.0-46.0-2.0-1.0-1.0-0.0,,,,,,,,,,1.0,1.0,,,,6346e221d4cea480a1a39b52,23:51:47,03/04/2024
,"<div style=""font-size: 10rem; color: #0000FF"">L</div>",,ospan,letter,ibdABvmSLEg8jNNVnThvIW2CHfK2,html-keyboard-response,84,612798,0.0-46.0-2.0-1.0-1.0-1.0,,,,,,,,,,,,,,,6346e221d4cea480a1a39b52,23:51:47,03/04/2024
1836.0,,,ospan,symmetry,ibdABvmSLEg8jNNVnThvIW2CHfK2,symmetry-judgement-task,85,616530,0.0-46.0-2.0-1.0-1.0-2.0,,,,,,,,,,1.0,1.0,,,,6346e221d4cea480a1a39b52,23:51:47,03/04/2024
,"<div style=""font-size: 10rem; color: #0000FF"">H</div>",,ospan,letter,ibdABvmSLEg8jNNVnThvIW2CHfK2,html-keyboard-response,86,617532,0.0-46.0-2.0-1.0-1.0-3.0,,,,,,,,,,,,,,,6346e221d4cea480a1a39b52,23:51:47,03/04/2024
2355.0,,,ospan,symmetry,ibdABvmSLEg8jNNVnThvIW2CHfK2,symmetry-judgement-task,87,621778,0.0-46.0-2.0-1.0-1.0-4.0,,,,,,,,,,1.0,1.0,,,,6346e221d4cea480a1a39b52,23:51:47,03/04/2024
,"<div style=""font-size: 10rem; color: #0000FF"">K</div>",,ospan,letter,ibdABvmSLEg8jNNVnThvIW2CHfK2,html-keyboard-response,88,622782,0.0-46.0-2.0-1.0-1.0-5.0,,,,,,,,,,,,,,,6346e221d4cea480a1a39b52,23:51:47,03/04/2024
6360.600000143051,"<div class = numbox><p style=""font-size: 2.4rem"">Please recall the letters you saw to the best of your ability. If you do not remember a particular letter, use the SKIP button.<br><b>(When you are ready to lock in your answer, press ENTER)</b></p><button id = button_1 class = ""square num-button"" onclick = ""recordClick(this)""><div class = content><div class = numbers>C</div></div></button><button id = button_2 class = ""square num-button"" onclick = ""recordClick(this)""><div class = content><div class = numbers>G</div></div></button><button id = button_3 class = ""square num-button"" onclick = ""recordClick(this)""><div class = content><div class = numbers>H</div></div></button><button id = button_4 class = ""square num-button"" onclick = ""recordClick(this)""><div class = content><div class = numbers>J</div></div></button><button id = button_5 class = ""square num-button"" onclick = ""recordClick(this)""><div class = content><div class = numbers>K</div></div></button><button id = button_6 class = ""square num-button"" onclick = ""recordClick(this)""><div class = content><div class = numbers>L</div></div></button><button id = button_7 class = ""square num-button"" onclick = ""recordClick(this)""><div class = content><div class = numbers>N</div></div></button><button id = button_8 class = ""square num-button"" onclick = ""recordClick(this)""><div class = content><div class = numbers>P</div></div></button><button id = button_9 class = ""square num-button"" onclick = ""recordClick(this)""><div class = content><div class = numbers>Q</div></div></button><button id = button_10 class = ""square num-button"" onclick = ""recordClick(this)""><div class = content><div class = numbers>R</div></div></button><button id = button_11 class = ""square num-button"" onclick = ""recordClick(this)""><div class = content><div class = numbers>S</div></div></button><button id = button_12 class = ""square num-button"" onclick = ""recordClick(this)""><div class = content><div class = numbers>Y</div></div></button><button class = clear_button id = ""ClearButton"" onclick = ""clearResponse()"">BACKSPACE</button><button class = blank_button id = ""BlankButton"" onclick = ""blankResponse()"">SKIP</button><p style=""font-size: 2.4rem""><u><b>Current Answer:</b></u></p><br><br><div id=echoed_txt style=""font-size: 5rem; color:blue;""><b></b></div></div>",enter,ospan,retrieval,ibdABvmSLEg8jNNVnThvIW2CHfK2,html-keyboard-response,89,629895,0.0-46.0-2.0-1.0-2.0-0.0,NA,NA,NA,3.0,"[""L"",""H"",""K""]","[""L"",""H"",""K""]",1.0,3.0,"['<font color=""green"">L</font>', '<font color=""green"">H</font>', '<font color=""green"">K</font>']",,,,,,6346e221d4cea480a1a39b52,23:51:47,03/04/2024
2093.5999999046326,"['<p style=""font-size:44px"">Letters:<br><br><br><font color=""green"">L</font> <font color=""green"">H</font> <font color=""green"">K</font></p><br><br><p style=""font-size:30px"">Symmetry:<br><br><font color=""green"">100%</font></p><br><br>']",0,ospan,practice_feedback,ibdABvmSLEg8jNNVnThvIW2CHfK2,html-button-response,90,632492,0.0-46.0-2.0-1.0-2.0-1.0,,,,,,,,,,,,,,,6346e221d4cea480a1a39b52,23:51:47,03/04/2024
,"<p style=""font-size:75px;"">...</p>",,ospan,iti,ibdABvmSLEg8jNNVnThvIW2CHfK2,html-keyboard-response,91,633495,0.0-46.0-2.0-2.0-0.0,,,,,,,,,,,,,,,6346e221d4cea480a1a39b52,23:51:47,03/04/2024
1346.0,,,ospan,symmetry,ibdABvmSLEg8jNNVnThvIW2CHfK2,symmetry-judgement-task,92,635979,0.0-46.0-2.0-2.0-1.0-0.0,,,,,,,,,,1.0,1.0,,,,6346e221d4cea480a1a39b52,23:51:47,03/04/2024
,"<div style=""font-size: 10rem; color: #0000FF"">H</div>",,ospan,letter,ibdABvmSLEg8jNNVnThvIW2CHfK2,html-keyboard-response,93,636981,0.0-46.0-2.0-2.0-1.0-1.0,,,,,,,,,,,,,,,6346e221d4cea480a1a39b52,23:51:47,03/04/2024
2048.0,,,ospan,symmetry,ibdABvmSLEg8jNNVnThvIW2CHfK2,symmetry-judgement-task,94,640911,0.0-46.0-2.0-2.0-1.0-2.0,,,,,,,,,,1.0,1.0,,,,6346e221d4cea480a1a39b52,23:51:47,03/04/2024
,"<div style=""font-size: 10rem; color: #0000FF"">K</div>",,ospan,letter,ibdABvmSLEg8jNNVnThvIW2CHfK2,html-keyboard-response,95,641914,0.0-46.0-2.0-2.0-1.0-3.0,,,,,,,,,,,,,,,6346e221d4cea480a1a39b52,23:51:47,03/04/2024
2725.0,,,ospan,symmetry,ibdABvmSLEg8jNNVnThvIW2CHfK2,symmetry-judgement-task,96,646514,0.0-46.0-2.0-2.0-1.0-4.0,,,,,,,,,,1.0,1.0,,,,6346e221d4cea480a1a39b52,23:51:47,03/04/2024
,"<div style=""font-size: 10rem; color: #0000FF"">N</div>",,ospan,letter,ibdABvmSLEg8jNNVnThvIW2CHfK2,html-keyboard-response,97,647517,0.0-46.0-2.0-2.0-1.0-5.0,,,,,,,,,,,,,,,6346e221d4cea480a1a39b52,23:51:47,03/04/2024
5357.300000190735,"<div class = numbox><p style=""font-size: 2.4rem"">Please recall the letters you saw to the best of your ability. If you do not remember a particular letter, use the SKIP button.<br><b>(When you are ready to lock in your answer, press ENTER)</b></p><button id = button_1 class = ""square num-button"" onclick = ""recordClick(this)""><div class = content><div class = numbers>C</div></div></button><button id = button_2 class = ""square num-button"" onclick = ""recordClick(this)""><div class = content><div class = numbers>G</div></div></button><button id = button_3 class = ""square num-button"" onclick = ""recordClick(this)""><div class = content><div class = numbers>H</div></div></button><button id = button_4 class = ""square num-button"" onclick = ""recordClick(this)""><div class = content><div class = numbers>J</div></div></button><button id = button_5 class = ""square num-button"" onclick = ""recordClick(this)""><div class = content><div class = numbers>K</div></div></button><button id = button_6 class = ""square num-button"" onclick = ""recordClick(this)""><div class = content><div class = numbers>L</div></div></button><button id = button_7 class = ""square num-button"" onclick = ""recordClick(this)""><div class = content><div class = numbers>N</div></div></button><button id = button_8 class = ""square num-button"" onclick = ""recordClick(this)""><div class = content><div class = numbers>P</div></div></button><button id = button_9 class = ""square num-button"" onclick = ""recordClick(this)""><div class = content><div class = numbers>Q</div></div></button><button id = button_10 class = ""square num-button"" onclick = ""recordClick(this)""><div class = content><div class = numbers>R</div></div></button><button id = button_11 class = ""square num-button"" onclick = ""recordClick(this)""><div class = content><div class = numbers>S</div></div></button><button id = button_12 class = ""square num-button"" onclick = ""recordClick(this)""><div class = content><div class = numbers>Y</div></div></button><button class = clear_button id = ""ClearButton"" onclick = ""clearResponse()"">BACKSPACE</button><button class = blank_button id = ""BlankButton"" onclick = ""blankResponse()"">SKIP</button><p style=""font-size: 2.4rem""><u><b>Current Answer:</b></u></p><br><br><div id=echoed_txt style=""font-size: 5rem; color:blue;""><b></b></div></div>",enter,ospan,retrieval,ibdABvmSLEg8jNNVnThvIW2CHfK2,html-keyboard-response,98,653627,0.0-46.0-2.0-2.0-2.0-0.0,NA,NA,NA,3.0,"[""H"",""K"",""N""]","[""H"",""K"",""N""]",1.0,3.0,"['<font color=""green"">H</font>', '<font color=""green"">K</font>', '<font color=""green"">N</font>']",,,,,,6346e221d4cea480a1a39b52,23:51:47,03/04/2024
1062.3000001907349,"['<p style=""font-size:44px"">Letters:<br><br><br><font color=""green"">H</font> <font color=""green"">K</font> <font color=""green"">N</font></p><br><br><p style=""font-size:30px"">Symmetry:<br><br><font color=""green"">100%</font></p><br><br>']",0,ospan,practice_feedback,ibdABvmSLEg8jNNVnThvIW2CHfK2,html-button-response,99,655192,0.0-46.0-2.0-2.0-2.0-1.0,,,,,,,,,,,,,,,6346e221d4cea480a1a39b52,23:51:47,03/04/2024
18664.799999952316,"<div class = 'left_align' style='font-size: 3rem; line-height: 1.3;'><b>Great work! That is the end of practice.</b><br><br>The real trials will look just like the practice trials you just completed.<br><br><u>Here, you will not see feedback</u>. First, you will see an grid picture to judge,<br>then a letter to remember. When the recall screen appears, report the letters in the<br>order presented. If you forget a letter, remember to use the <b>blank</b> button to move to the<br>next letter. Some of the sets will have more symmetry grids and letters than others.<br><br>It is important that you do your best on both the symmetry judgments and the letter recall<br>parts of the experiment. For for the symmetry judgments, try to work as <b>quickly</b> and <br>as <b>accurately</b> as possible. Remember to keep your symmetry accuracy at 85% or above.<br><br><b>For the letters, do NOT use any external aid (e.g., writing on paper, electronic device).</b><br><br>It is <u>very important</u> to our experiment to have a <b>true</b> view of your real performance.<br><br>Do not worry if you miss some when it gets hard! This task is meant to be very challenging!<br><br>Click the button to begin.</div><br><br><br><br>",0,ospan,starting_real_here,ibdABvmSLEg8jNNVnThvIW2CHfK2,html-button-response,100,673859,0.0-46.0-2.0-3.0,,,,,,,,,,,,,,,6346e221d4cea480a1a39b52,23:51:47,03/04/2024
,"<p style=""font-size:75px;"">...</p>",,ospan,iti,ibdABvmSLEg8jNNVnThvIW2CHfK2,html-keyboard-response,101,675114,0.0-46.0-3.0-0.0-0.0,,,,,,,,,,,,,,,6346e221d4cea480a1a39b52,23:51:47,03/04/2024
2053.0,,,ospan,symmetry,ibdABvmSLEg8jNNVnThvIW2CHfK2,symmetry-judgement-task,102,678294,0.0-46.0-3.0-0.0-1.0-0.0,,,,,,,,,,1.0,1.0,,,,6346e221d4cea480a1a39b52,23:51:47,03/04/2024
,"<div style=""font-size: 10rem; color: #0000FF"">N</div>",,ospan,letter,ibdABvmSLEg8jNNVnThvIW2CHfK2,html-keyboard-response,103,679298,0.0-46.0-3.0-0.0-1.0-1.0,,,,,,,,,,,,,,,6346e221d4cea480a1a39b52,23:51:47,03/04/2024
1291.0,,,ospan,symmetry,ibdABvmSLEg8jNNVnThvIW2CHfK2,symmetry-judgement-task,104,682477,0.0-46.0-3.0-0.0-1.0-2.0,,,,,,,,,,1.0,1.0,,,,6346e221d4cea480a1a39b52,23:51:47,03/04/2024
,"<div style=""font-size: 10rem; color: #0000FF"">L</div>",,ospan,letter,ibdABvmSLEg8jNNVnThvIW2CHfK2,html-keyboard-response,105,683480,0.0-46.0-3.0-0.0-1.0-3.0,,,,,,,,,,,,,,,6346e221d4cea480a1a39b52,23:51:47,03/04/2024
1287.0,,,ospan,symmetry,ibdABvmSLEg8jNNVnThvIW2CHfK2,symmetry-judgement-task,106,686660,0.0-46.0-3.0-0.0-1.0-4.0,,,,,,,,,,1.0,1.0,,,,6346e221d4cea480a1a39b52,23:51:47,03/04/2024
,"<div style=""font-size: 10rem; color: #0000FF"">H</div>",,ospan,letter,ibdABvmSLEg8jNNVnThvIW2CHfK2,html-keyboard-response,107,687663,0.0-46.0-3.0-0.0-1.0-5.0,,,,,,,,,,,,,,,6346e221d4cea480a1a39b52,23:51:47,03/04/2024
4063.199999809265,"<div class = numbox><p style=""font-size: 2.4rem"">Please recall the letters you saw to the best of your ability. If you do not remember a particular letter, use the SKIP button.<br><b>(When you are ready to lock in your answer, press ENTER)</b></p><button id = button_1 class = ""square num-button"" onclick = ""recordClick(this)""><div class = content><div class = numbers>C</div></div></button><button id = button_2 class = ""square num-button"" onclick = ""recordClick(this)""><div class = content><div class = numbers>G</div></div></button><button id = button_3 class = ""square num-button"" onclick = ""recordClick(this)""><div class = content><div class = numbers>H</div></div></button><button id = button_4 class = ""square num-button"" onclick = ""recordClick(this)""><div class = content><div class = numbers>J</div></div></button><button id = button_5 class = ""square num-button"" onclick = ""recordClick(this)""><div class = content><div class = numbers>K</div></div></button><button id = button_6 class = ""square num-button"" onclick = ""recordClick(this)""><div class = content><div class = numbers>L</div></div></button><button id = button_7 class = ""square num-button"" onclick = ""recordClick(this)""><div class = content><div class = numbers>N</div></div></button><button id = button_8 class = ""square num-button"" onclick = ""recordClick(this)""><div class = content><div class = numbers>P</div></div></button><button id = button_9 class = ""square num-button"" onclick = ""recordClick(this)""><div class = content><div class = numbers>Q</div></div></button><button id = button_10 class = ""square num-button"" onclick = ""recordClick(this)""><div class = content><div class = numbers>R</div></div></button><button id = button_11 class = ""square num-button"" onclick = ""recordClick(this)""><div class = content><div class = numbers>S</div></div></button><button id = button_12 class = ""square num-button"" onclick = ""recordClick(this)""><div class = content><div class = numbers>Y</div></div></button><button class = clear_button id = ""ClearButton"" onclick = ""clearResponse()"">BACKSPACE</button><button class = blank_button id = ""BlankButton"" onclick = ""blankResponse()"">SKIP</button><p style=""font-size: 2.4rem""><u><b>Current Answer:</b></u></p><br><br><div id=echoed_txt style=""font-size: 5rem; color:blue;""><b></b></div></div>",enter,ospan,retrieval,ibdABvmSLEg8jNNVnThvIW2CHfK2,html-keyboard-response,108,692480,0.0-46.0-3.0-0.0-2.0,3,3,3,3.0,"[""N"",""L"",""H""]","[""N"",""L"",""H""]",1.0,3.0,,,,,,,6346e221d4cea480a1a39b52,23:51:47,03/04/2024
808.8999998569489,[''],0,ospan,feedback,ibdABvmSLEg8jNNVnThvIW2CHfK2,html-button-response,109,693792,0.0-46.0-3.0-0.0-3.0,,,,,,,,,,,,100.0,0.0,,6346e221d4cea480a1a39b52,23:51:47,03/04/2024
,"<p style=""font-size:75px;"">...</p>",,ospan,iti,ibdABvmSLEg8jNNVnThvIW2CHfK2,html-keyboard-response,110,694796,0.0-46.0-4.0-0.0-0.0,,,,,,,,,,,,,,,6346e221d4cea480a1a39b52,23:51:47,03/04/2024
2042.0,,,ospan,symmetry,ibdABvmSLEg8jNNVnThvIW2CHfK2,symmetry-judgement-task,111,697978,0.0-46.0-4.0-0.0-1.0-0.0,,,,,,,,,,1.0,1.0,,,,6346e221d4cea480a1a39b52,23:51:47,03/04/2024
,"<div style=""font-size: 10rem; color: #0000FF"">Y</div>",,ospan,letter,ibdABvmSLEg8jNNVnThvIW2CHfK2,html-keyboard-response,112,698980,0.0-46.0-4.0-0.0-1.0-1.0,,,,,,,,,,,,,,,6346e221d4cea480a1a39b52,23:51:47,03/04/2024
2098.0,,,ospan,symmetry,ibdABvmSLEg8jNNVnThvIW2CHfK2,symmetry-judgement-task,113,702961,0.0-46.0-4.0-0.0-1.0-2.0,,,,,,,,,,1.0,1.0,,,,6346e221d4cea480a1a39b52,23:51:47,03/04/2024
,"<div style=""font-size: 10rem; color: #0000FF"">K</div>",,ospan,letter,ibdABvmSLEg8jNNVnThvIW2CHfK2,html-keyboard-response,114,703964,0.0-46.0-4.0-0.0-1.0-3.0,,,,,,,,,,,,,,,6346e221d4cea480a1a39b52,23:51:47,03/04/2024
1265.0,,,ospan,symmetry,ibdABvmSLEg8jNNVnThvIW2CHfK2,symmetry-judgement-task,115,707108,0.0-46.0-4.0-0.0-1.0-4.0,,,,,,,,,,1.0,1.0,,,,6346e221d4cea480a1a39b52,23:51:47,03/04/2024
,"<div style=""font-size: 10rem; color: #0000FF"">Q</div>",,ospan,letter,ibdABvmSLEg8jNNVnThvIW2CHfK2,html-keyboard-response,116,708110,0.0-46.0-4.0-0.0-1.0-5.0,,,,,,,,,,,,,,,6346e221d4cea480a1a39b52,23:51:47,03/04/2024
2907.0,,,ospan,symmetry,ibdABvmSLEg8jNNVnThvIW2CHfK2,symmetry-judgement-task,117,712909,0.0-46.0-4.0-0.0-1.0-6.0,,,,,,,,,,1.0,1.0,,,,6346e221d4cea480a1a39b52,23:51:47,03/04/2024
,"<div style=""font-size: 10rem; color: #0000FF"">R</div>",,ospan,letter,ibdABvmSLEg8jNNVnThvIW2CHfK2,html-keyboard-response,118,713912,0.0-46.0-4.0-0.0-1.0-7.0,,,,,,,,,,,,,,,6346e221d4cea480a1a39b52,23:51:47,03/04/2024
7543.5,"<div class = numbox><p style=""font-size: 2.4rem"">Please recall the letters you saw to the best of your ability. If you do not remember a particular letter, use the SKIP button.<br><b>(When you are ready to lock in your answer, press ENTER)</b></p><button id = button_1 class = ""square num-button"" onclick = ""recordClick(this)""><div class = content><div class = numbers>C</div></div></button><button id = button_2 class = ""square num-button"" onclick = ""recordClick(this)""><div class = content><div class = numbers>G</div></div></button><button id = button_3 class = ""square num-button"" onclick = ""recordClick(this)""><div class = content><div class = numbers>H</div></div></button><button id = button_4 class = ""square num-button"" onclick = ""recordClick(this)""><div class = content><div class = numbers>J</div></div></button><button id = button_5 class = ""square num-button"" onclick = ""recordClick(this)""><div class = content><div class = numbers>K</div></div></button><button id = button_6 class = ""square num-button"" onclick = ""recordClick(this)""><div class = content><div class = numbers>L</div></div></button><button id = button_7 class = ""square num-button"" onclick = ""recordClick(this)""><div class = content><div class = numbers>N</div></div></button><button id = button_8 class = ""square num-button"" onclick = ""recordClick(this)""><div class = content><div class = numbers>P</div></div></button><button id = button_9 class = ""square num-button"" onclick = ""recordClick(this)""><div class = content><div class = numbers>Q</div></div></button><button id = button_10 class = ""square num-button"" onclick = ""recordClick(this)""><div class = content><div class = numbers>R</div></div></button><button id = button_11 class = ""square num-button"" onclick = ""recordClick(this)""><div class = content><div class = numbers>S</div></div></button><button id = button_12 class = ""square num-button"" onclick = ""recordClick(this)""><div class = content><div class = numbers>Y</div></div></button><button class = clear_button id = ""ClearButton"" onclick = ""clearResponse()"">BACKSPACE</button><button class = blank_button id = ""BlankButton"" onclick = ""blankResponse()"">SKIP</button><p style=""font-size: 2.4rem""><u><b>Current Answer:</b></u></p><br><br><div id=echoed_txt style=""font-size: 5rem; color:blue;""><b></b></div></div>",enter,ospan,retrieval,ibdABvmSLEg8jNNVnThvIW2CHfK2,html-keyboard-response,119,722209,0.0-46.0-4.0-0.0-2.0,7,7,7,4.0,"[""Y"",""K"",""Q"",""R""]","[""Y"",""K"",""Q"",""R""]",1.0,4.0,,,,,,,6346e221d4cea480a1a39b52,23:51:47,03/04/2024
1044.6000001430511,[''],0,ospan,feedback,ibdABvmSLEg8jNNVnThvIW2CHfK2,html-button-response,120,723757,0.0-46.0-4.0-0.0-3.0,,,,,,,,,,,,100.0,0.0,,6346e221d4cea480a1a39b52,23:51:47,03/04/2024
,"<p style=""font-size:75px;"">...</p>",,ospan,iti,ibdABvmSLEg8jNNVnThvIW2CHfK2,html-keyboard-response,121,724759,0.0-46.0-4.0-1.0-0.0,,,,,,,,,,,,,,,6346e221d4cea480a1a39b52,23:51:47,03/04/2024
3614.0,,,ospan,symmetry,ibdABvmSLEg8jNNVnThvIW2CHfK2,symmetry-judgement-task,122,729408,0.0-46.0-4.0-1.0-1.0-0.0,,,,,,,,,,1.0,1.0,,,,6346e221d4cea480a1a39b52,23:51:47,03/04/2024
,"<div style=""font-size: 10rem; color: #0000FF"">S</div>",,ospan,letter,ibdABvmSLEg8jNNVnThvIW2CHfK2,html-keyboard-response,123,730411,0.0-46.0-4.0-1.0-1.0-1.0,,,,,,,,,,,,,,,6346e221d4cea480a1a39b52,23:51:47,03/04/2024
3896.0,,,ospan,symmetry,ibdABvmSLEg8jNNVnThvIW2CHfK2,symmetry-judgement-task,124,736191,0.0-46.0-4.0-1.0-1.0-2.0,,,,,,,,,,1.0,1.0,,,,6346e221d4cea480a1a39b52,23:51:47,03/04/2024
,"<div style=""font-size: 10rem; color: #0000FF"">K</div>",,ospan,letter,ibdABvmSLEg8jNNVnThvIW2CHfK2,html-keyboard-response,125,737194,0.0-46.0-4.0-1.0-1.0-3.0,,,,,,,,,,,,,,,6346e221d4cea480a1a39b52,23:51:47,03/04/2024
2415.0,,,ospan,symmetry,ibdABvmSLEg8jNNVnThvIW2CHfK2,symmetry-judgement-task,126,741491,0.0-46.0-4.0-1.0-1.0-4.0,,,,,,,,,,1.0,1.0,,,,6346e221d4cea480a1a39b52,23:51:47,03/04/2024
,"<div style=""font-size: 10rem; color: #0000FF"">R</div>",,ospan,letter,ibdABvmSLEg8jNNVnThvIW2CHfK2,html-keyboard-response,127,742494,0.0-46.0-4.0-1.0-1.0-5.0,,,,,,,,,,,,,,,6346e221d4cea480a1a39b52,23:51:47,03/04/2024
1308.0,,,ospan,symmetry,ibdABvmSLEg8jNNVnThvIW2CHfK2,symmetry-judgement-task,128,745690,0.0-46.0-4.0-1.0-1.0-6.0,,,,,,,,,,1.0,1.0,,,,6346e221d4cea480a1a39b52,23:51:47,03/04/2024
,"<div style=""font-size: 10rem; color: #0000FF"">N</div>",,ospan,letter,ibdABvmSLEg8jNNVnThvIW2CHfK2,html-keyboard-response,129,746693,0.0-46.0-4.0-1.0-1.0-7.0,,,,,,,,,,,,,,,6346e221d4cea480a1a39b52,23:51:47,03/04/2024
2479.0,,,ospan,symmetry,ibdABvmSLEg8jNNVnThvIW2CHfK2,symmetry-judgement-task,130,751058,0.0-46.0-4.0-1.0-1.0-8.0,,,,,,,,,,1.0,1.0,,,,6346e221d4cea480a1a39b52,23:51:47,03/04/2024
,"<div style=""font-size: 10rem; color: #0000FF"">P</div>",,ospan,letter,ibdABvmSLEg8jNNVnThvIW2CHfK2,html-keyboard-response,131,752061,0.0-46.0-4.0-1.0-1.0-9.0,,,,,,,,,,,,,,,6346e221d4cea480a1a39b52,23:51:47,03/04/2024
6452.599999904633,"<div class = numbox><p style=""font-size: 2.4rem"">Please recall the letters you saw to the best of your ability. If you do not remember a particular letter, use the SKIP button.<br><b>(When you are ready to lock in your answer, press ENTER)</b></p><button id = button_1 class = ""square num-button"" onclick = ""recordClick(this)""><div class = content><div class = numbers>C</div></div></button><button id = button_2 class = ""square num-button"" onclick = ""recordClick(this)""><div class = content><div class = numbers>G</div></div></button><button id = button_3 class = ""square num-button"" onclick = ""recordClick(this)""><div class = content><div class = numbers>H</div></div></button><button id = button_4 class = ""square num-button"" onclick = ""recordClick(this)""><div class = content><div class = numbers>J</div></div></button><button id = button_5 class = ""square num-button"" onclick = ""recordClick(this)""><div class = content><div class = numbers>K</div></div></button><button id = button_6 class = ""square num-button"" onclick = ""recordClick(this)""><div class = content><div class = numbers>L</div></div></button><button id = button_7 class = ""square num-button"" onclick = ""recordClick(this)""><div class = content><div class = numbers>N</div></div></button><button id = button_8 class = ""square num-button"" onclick = ""recordClick(this)""><div class = content><div class = numbers>P</div></div></button><button id = button_9 class = ""square num-button"" onclick = ""recordClick(this)""><div class = content><div class = numbers>Q</div></div></button><button id = button_10 class = ""square num-button"" onclick = ""recordClick(this)""><div class = content><div class = numbers>R</div></div></button><button id = button_11 class = ""square num-button"" onclick = ""recordClick(this)""><div class = content><div class = numbers>S</div></div></button><button id = button_12 class = ""square num-button"" onclick = ""recordClick(this)""><div class = content><div class = numbers>Y</div></div></button><button class = clear_button id = ""ClearButton"" onclick = ""clearResponse()"">BACKSPACE</button><button class = blank_button id = ""BlankButton"" onclick = ""blankResponse()"">SKIP</button><p style=""font-size: 2.4rem""><u><b>Current Answer:</b></u></p><br><br><div id=echoed_txt style=""font-size: 5rem; color:blue;""><b></b></div></div>",enter,ospan,retrieval,ibdABvmSLEg8jNNVnThvIW2CHfK2,html-keyboard-response,132,759266,0.0-46.0-4.0-1.0-2.0,12,12,12,5.0,"[""S"",""K"",""R"",""N"",""P""]","[""S"",""K"",""R"",""N"",""P""]",1.0,5.0,,,,,,,6346e221d4cea480a1a39b52,23:51:47,03/04/2024
1335.9000000953674,[''],0,ospan,feedback,ibdABvmSLEg8jNNVnThvIW2CHfK2,html-button-response,133,761105,0.0-46.0-4.0-1.0-3.0,,,,,,,,,,,,100.0,0.0,,6346e221d4cea480a1a39b52,23:51:47,03/04/2024
,"<p style=""font-size:75px;"">...</p>",,ospan,iti,ibdABvmSLEg8jNNVnThvIW2CHfK2,html-keyboard-response,134,762108,0.0-46.0-4.0-2.0-0.0,,,,,,,,,,,,,,,6346e221d4cea480a1a39b52,23:51:47,03/04/2024
1914.0,,,ospan,symmetry,ibdABvmSLEg8jNNVnThvIW2CHfK2,symmetry-judgement-task,135,765058,0.0-46.0-4.0-2.0-1.0-0.0,,,,,,,,,,1.0,1.0,,,,6346e221d4cea480a1a39b52,23:51:47,03/04/2024
,"<div style=""font-size: 10rem; color: #0000FF"">R</div>",,ospan,letter,ibdABvmSLEg8jNNVnThvIW2CHfK2,html-keyboard-response,136,766061,0.0-46.0-4.0-2.0-1.0-1.0,,,,,,,,,,,,,,,6346e221d4cea480a1a39b52,23:51:47,03/04/2024
1568.0,,,ospan,symmetry,ibdABvmSLEg8jNNVnThvIW2CHfK2,symmetry-judgement-task,137,769523,0.0-46.0-4.0-2.0-1.0-2.0,,,,,,,,,,1.0,1.0,,,,6346e221d4cea480a1a39b52,23:51:47,03/04/2024
,"<div style=""font-size: 10rem; color: #0000FF"">N</div>",,ospan,letter,ibdABvmSLEg8jNNVnThvIW2CHfK2,html-keyboard-response,138,770525,0.0-46.0-4.0-2.0-1.0-3.0,,,,,,,,,,,,,,,6346e221d4cea480a1a39b52,23:51:47,03/04/2024
2769.0,,,ospan,symmetry,ibdABvmSLEg8jNNVnThvIW2CHfK2,symmetry-judgement-task,139,775191,0.0-46.0-4.0-2.0-1.0-4.0,,,,,,,,,,1.0,1.0,,,,6346e221d4cea480a1a39b52,23:51:47,03/04/2024
,"<div style=""font-size: 10rem; color: #0000FF"">G</div>",,ospan,letter,ibdABvmSLEg8jNNVnThvIW2CHfK2,html-keyboard-response,140,776194,0.0-46.0-4.0-2.0-1.0-5.0,,,,,,,,,,,,,,,6346e221d4cea480a1a39b52,23:51:47,03/04/2024
4297.900000095367,"<div class = numbox><p style=""font-size: 2.4rem"">Please recall the letters you saw to the best of your ability. If you do not remember a particular letter, use the SKIP button.<br><b>(When you are ready to lock in your answer, press ENTER)</b></p><button id = button_1 class = ""square num-button"" onclick = ""recordClick(this)""><div class = content><div class = numbers>C</div></div></button><button id = button_2 class = ""square num-button"" onclick = ""recordClick(this)""><div class = content><div class = numbers>G</div></div></button><button id = button_3 class = ""square num-button"" onclick = ""recordClick(this)""><div class = content><div class = numbers>H</div></div></button><button id = button_4 class = ""square num-button"" onclick = ""recordClick(this)""><div class = content><div class = numbers>J</div></div></button><button id = button_5 class = ""square num-button"" onclick = ""recordClick(this)""><div class = content><div class = numbers>K</div></div></button><button id = button_6 class = ""square num-button"" onclick = ""recordClick(this)""><div class = content><div class = numbers>L</div></div></button><button id = button_7 class = ""square num-button"" onclick = ""recordClick(this)""><div class = content><div class = numbers>N</div></div></button><button id = button_8 class = ""square num-button"" onclick = ""recordClick(this)""><div class = content><div class = numbers>P</div></div></button><button id = button_9 class = ""square num-button"" onclick = ""recordClick(this)""><div class = content><div class = numbers>Q</div></div></button><button id = button_10 class = ""square num-button"" onclick = ""recordClick(this)""><div class = content><div class = numbers>R</div></div></button><button id = button_11 class = ""square num-button"" onclick = ""recordClick(this)""><div class = content><div class = numbers>S</div></div></button><button id = button_12 class = ""square num-button"" onclick = ""recordClick(this)""><div class = content><div class = numbers>Y</div></div></button><button class = clear_button id = ""ClearButton"" onclick = ""clearResponse()"">BACKSPACE</button><button class = blank_button id = ""BlankButton"" onclick = ""blankResponse()"">SKIP</button><p style=""font-size: 2.4rem""><u><b>Current Answer:</b></u></p><br><br><div id=echoed_txt style=""font-size: 5rem; color:blue;""><b></b></div></div>",enter,ospan,retrieval,ibdABvmSLEg8jNNVnThvIW2CHfK2,html-keyboard-response,141,781246,0.0-46.0-4.0-2.0-2.0,15,15,15,3.0,"[""R"",""N"",""G""]","[""R"",""N"",""G""]",1.0,3.0,,,,,,,6346e221d4cea480a1a39b52,23:51:47,03/04/2024
906.7000000476837,[''],0,ospan,feedback,ibdABvmSLEg8jNNVnThvIW2CHfK2,html-button-response,142,782655,0.0-46.0-4.0-2.0-3.0,,,,,,,,,,,,100.0,0.0,,6346e221d4cea480a1a39b52,23:51:47,03/04/2024
,"<p style=""font-size:75px;"">...</p>",,ospan,iti,ibdABvmSLEg8jNNVnThvIW2CHfK2,html-keyboard-response,143,783657,0.0-46.0-5.0-0.0-0.0,,,,,,,,,,,,,,,6346e221d4cea480a1a39b52,23:51:47,03/04/2024
1983.0,,,ospan,symmetry,ibdABvmSLEg8jNNVnThvIW2CHfK2,symmetry-judgement-task,144,786773,0.0-46.0-5.0-0.0-1.0-0.0,,,,,,,,,,1.0,1.0,,,,6346e221d4cea480a1a39b52,23:51:47,03/04/2024
,"<div style=""font-size: 10rem; color: #0000FF"">S</div>",,ospan,letter,ibdABvmSLEg8jNNVnThvIW2CHfK2,html-keyboard-response,145,787776,0.0-46.0-5.0-0.0-1.0-1.0,,,,,,,,,,,,,,,6346e221d4cea480a1a39b52,23:51:47,03/04/2024
1201.0,,,ospan,symmetry,ibdABvmSLEg8jNNVnThvIW2CHfK2,symmetry-judgement-task,146,790856,0.0-46.0-5.0-0.0-1.0-2.0,,,,,,,,,,1.0,1.0,,,,6346e221d4cea480a1a39b52,23:51:47,03/04/2024
,"<div style=""font-size: 10rem; color: #0000FF"">Y</div>",,ospan,letter,ibdABvmSLEg8jNNVnThvIW2CHfK2,html-keyboard-response,147,791858,0.0-46.0-5.0-0.0-1.0-3.0,,,,,,,,,,,,,,,6346e221d4cea480a1a39b52,23:51:47,03/04/2024
2045.0,,,ospan,symmetry,ibdABvmSLEg8jNNVnThvIW2CHfK2,symmetry-judgement-task,148,795774,0.0-46.0-5.0-0.0-1.0-4.0,,,,,,,,,,1.0,1.0,,,,6346e221d4cea480a1a39b52,23:51:47,03/04/2024
,"<div style=""font-size: 10rem; color: #0000FF"">N</div>",,ospan,letter,ibdABvmSLEg8jNNVnThvIW2CHfK2,html-keyboard-response,149,796776,0.0-46.0-5.0-0.0-1.0-5.0,,,,,,,,,,,,,,,6346e221d4cea480a1a39b52,23:51:47,03/04/2024
3639.0,,,ospan,symmetry,ibdABvmSLEg8jNNVnThvIW2CHfK2,symmetry-judgement-task,150,802290,0.0-46.0-5.0-0.0-1.0-6.0,,,,,,,,,,1.0,1.0,,,,6346e221d4cea480a1a39b52,23:51:47,03/04/2024
,"<div style=""font-size: 10rem; color: #0000FF"">J</div>",,ospan,letter,ibdABvmSLEg8jNNVnThvIW2CHfK2,html-keyboard-response,151,803293,0.0-46.0-5.0-0.0-1.0-7.0,,,,,,,,,,,,,,,6346e221d4cea480a1a39b52,23:51:47,03/04/2024
1223.0,,,ospan,symmetry,ibdABvmSLEg8jNNVnThvIW2CHfK2,symmetry-judgement-task,152,806407,0.0-46.0-5.0-0.0-1.0-8.0,,,,,,,,,,1.0,1.0,,,,6346e221d4cea480a1a39b52,23:51:47,03/04/2024
,"<div style=""font-size: 10rem; color: #0000FF"">K</div>",,ospan,letter,ibdABvmSLEg8jNNVnThvIW2CHfK2,html-keyboard-response,153,807410,0.0-46.0-5.0-0.0-1.0-9.0,,,,,,,,,,,,,,,6346e221d4cea480a1a39b52,23:51:47,03/04/2024
2181.0,,,ospan,symmetry,ibdABvmSLEg8jNNVnThvIW2CHfK2,symmetry-judgement-task,154,811490,0.0-46.0-5.0-0.0-1.0-10.0,,,,,,,,,,1.0,1.0,,,,6346e221d4cea480a1a39b52,23:51:47,03/04/2024
,"<div style=""font-size: 10rem; color: #0000FF"">G</div>",,ospan,letter,ibdABvmSLEg8jNNVnThvIW2CHfK2,html-keyboard-response,155,812493,0.0-46.0-5.0-0.0-1.0-11.0,,,,,,,,,,,,,,,6346e221d4cea480a1a39b52,23:51:47,03/04/2024
17668.900000095367,"<div class = numbox><p style=""font-size: 2.4rem"">Please recall the letters you saw to the best of your ability. If you do not remember a particular letter, use the SKIP button.<br><b>(When you are ready to lock in your answer, press ENTER)</b></p><button id = button_1 class = ""square num-button"" onclick = ""recordClick(this)""><div class = content><div class = numbers>C</div></div></button><button id = button_2 class = ""square num-button"" onclick = ""recordClick(this)""><div class = content><div class = numbers>G</div></div></button><button id = button_3 class = ""square num-button"" onclick = ""recordClick(this)""><div class = content><div class = numbers>H</div></div></button><button id = button_4 class = ""square num-button"" onclick = ""recordClick(this)""><div class = content><div class = numbers>J</div></div></button><button id = button_5 class = ""square num-button"" onclick = ""recordClick(this)""><div class = content><div class = numbers>K</div></div></button><button id = button_6 class = ""square num-button"" onclick = ""recordClick(this)""><div class = content><div class = numbers>L</div></div></button><button id = button_7 class = ""square num-button"" onclick = ""recordClick(this)""><div class = content><div class = numbers>N</div></div></button><button id = button_8 class = ""square num-button"" onclick = ""recordClick(this)""><div class = content><div class = numbers>P</div></div></button><button id = button_9 class = ""square num-button"" onclick = ""recordClick(this)""><div class = content><div class = numbers>Q</div></div></button><button id = button_10 class = ""square num-button"" onclick = ""recordClick(this)""><div class = content><div class = numbers>R</div></div></button><button id = button_11 class = ""square num-button"" onclick = ""recordClick(this)""><div class = content><div class = numbers>S</div></div></button><button id = button_12 class = ""square num-button"" onclick = ""recordClick(this)""><div class = content><div class = numbers>Y</div></div></button><button class = clear_button id = ""ClearButton"" onclick = ""clearResponse()"">BACKSPACE</button><button class = blank_button id = ""BlankButton"" onclick = ""blankResponse()"">SKIP</button><p style=""font-size: 2.4rem""><u><b>Current Answer:</b></u></p><br><br><div id=echoed_txt style=""font-size: 5rem; color:blue;""><b></b></div></div>",enter,ospan,retrieval,ibdABvmSLEg8jNNVnThvIW2CHfK2,html-keyboard-response,156,830915,0.0-46.0-5.0-0.0-2.0,21,20,15,6.0,"[""S"",""Y"",""N"",""J"",""K"",""P""]","[""S"",""Y"",""N"",""J"",""K"",""G""]",0.0,5.0,,,,,,,6346e221d4cea480a1a39b52,23:51:47,03/04/2024
1752.2000000476837,[''],0,ospan,feedback,ibdABvmSLEg8jNNVnThvIW2CHfK2,html-button-response,157,833171,0.0-46.0-5.0-0.0-3.0,,,,,,,,,,,,100.0,0.0,,6346e221d4cea480a1a39b52,23:51:47,03/04/2024
,"<p style=""font-size:75px;"">...</p>",,ospan,iti,ibdABvmSLEg8jNNVnThvIW2CHfK2,html-keyboard-response,158,834174,0.0-46.0-5.0-1.0-0.0,,,,,,,,,,,,,,,6346e221d4cea480a1a39b52,23:51:47,03/04/2024
1858.0,,,ospan,symmetry,ibdABvmSLEg8jNNVnThvIW2CHfK2,symmetry-judgement-task,159,837072,0.0-46.0-5.0-1.0-1.0-0.0,,,,,,,,,,1.0,1.0,,,,6346e221d4cea480a1a39b52,23:51:47,03/04/2024
,"<div style=""font-size: 10rem; color: #0000FF"">N</div>",,ospan,letter,ibdABvmSLEg8jNNVnThvIW2CHfK2,html-keyboard-response,160,838075,0.0-46.0-5.0-1.0-1.0-1.0,,,,,,,,,,,,,,,6346e221d4cea480a1a39b52,23:51:47,03/04/2024
2256.0,,,ospan,symmetry,ibdABvmSLEg8jNNVnThvIW2CHfK2,symmetry-judgement-task,161,842206,0.0-46.0-5.0-1.0-1.0-2.0,,,,,,,,,,1.0,1.0,,,,6346e221d4cea480a1a39b52,23:51:47,03/04/2024
,"<div style=""font-size: 10rem; color: #0000FF"">C</div>",,ospan,letter,ibdABvmSLEg8jNNVnThvIW2CHfK2,html-keyboard-response,162,843209,0.0-46.0-5.0-1.0-1.0-3.0,,,,,,,,,,,,,,,6346e221d4cea480a1a39b52,23:51:47,03/04/2024
2194.0,,,ospan,symmetry,ibdABvmSLEg8jNNVnThvIW2CHfK2,symmetry-judgement-task,163,847289,0.0-46.0-5.0-1.0-1.0-4.0,,,,,,,,,,1.0,1.0,,,,6346e221d4cea480a1a39b52,23:51:47,03/04/2024
,"<div style=""font-size: 10rem; color: #0000FF"">P</div>",,ospan,letter,ibdABvmSLEg8jNNVnThvIW2CHfK2,html-keyboard-response,164,848291,0.0-46.0-5.0-1.0-1.0-5.0,,,,,,,,,,,,,,,6346e221d4cea480a1a39b52,23:51:47,03/04/2024
1560.0,,,ospan,symmetry,ibdABvmSLEg8jNNVnThvIW2CHfK2,symmetry-judgement-task,165,851738,0.0-46.0-5.0-1.0-1.0-6.0,,,,,,,,,,1.0,1.0,,,,6346e221d4cea480a1a39b52,23:51:47,03/04/2024
,"<div style=""font-size: 10rem; color: #0000FF"">G</div>",,ospan,letter,ibdABvmSLEg8jNNVnThvIW2CHfK2,html-keyboard-response,166,852741,0.0-46.0-5.0-1.0-1.0-7.0,,,,,,,,,,,,,,,6346e221d4cea480a1a39b52,23:51:47,03/04/2024
1534.0,,,ospan,symmetry,ibdABvmSLEg8jNNVnThvIW2CHfK2,symmetry-judgement-task,167,856173,0.0-46.0-5.0-1.0-1.0-8.0,,,,,,,,,,1.0,1.0,,,,6346e221d4cea480a1a39b52,23:51:47,03/04/2024
,"<div style=""font-size: 10rem; color: #0000FF"">H</div>",,ospan,letter,ibdABvmSLEg8jNNVnThvIW2CHfK2,html-keyboard-response,168,857176,0.0-46.0-5.0-1.0-1.0-9.0,,,,,,,,,,,,,,,6346e221d4cea480a1a39b52,23:51:47,03/04/2024
1923.0,,,ospan,symmetry,ibdABvmSLEg8jNNVnThvIW2CHfK2,symmetry-judgement-task,169,860988,0.0-46.0-5.0-1.0-1.0-10.0,,,,,,,,,,1.0,1.0,,,,6346e221d4cea480a1a39b52,23:51:47,03/04/2024
,"<div style=""font-size: 10rem; color: #0000FF"">Y</div>",,ospan,letter,ibdABvmSLEg8jNNVnThvIW2CHfK2,html-keyboard-response,170,861990,0.0-46.0-5.0-1.0-1.0-11.0,,,,,,,,,,,,,,,6346e221d4cea480a1a39b52,23:51:47,03/04/2024
1365.0,,,ospan,symmetry,ibdABvmSLEg8jNNVnThvIW2CHfK2,symmetry-judgement-task,171,865224,0.0-46.0-5.0-1.0-1.0-12.0,,,,,,,,,,1.0,1.0,,,,6346e221d4cea480a1a39b52,23:51:47,03/04/2024
,"<div style=""font-size: 10rem; color: #0000FF"">K</div>",,ospan,letter,ibdABvmSLEg8jNNVnThvIW2CHfK2,html-keyboard-response,172,866227,0.0-46.0-5.0-1.0-1.0-13.0,,,,,,,,,,,,,,,6346e221d4cea480a1a39b52,23:51:47,03/04/2024
14321.200000047684,"<div class = numbox><p style=""font-size: 2.4rem"">Please recall the letters you saw to the best of your ability. If you do not remember a particular letter, use the SKIP button.<br><b>(When you are ready to lock in your answer, press ENTER)</b></p><button id = button_1 class = ""square num-button"" onclick = ""recordClick(this)""><div class = content><div class = numbers>C</div></div></button><button id = button_2 class = ""square num-button"" onclick = ""recordClick(this)""><div class = content><div class = numbers>G</div></div></button><button id = button_3 class = ""square num-button"" onclick = ""recordClick(this)""><div class = content><div class = numbers>H</div></div></button><button id = button_4 class = ""square num-button"" onclick = ""recordClick(this)""><div class = content><div class = numbers>J</div></div></button><button id = button_5 class = ""square num-button"" onclick = ""recordClick(this)""><div class = content><div class = numbers>K</div></div></button><button id = button_6 class = ""square num-button"" onclick = ""recordClick(this)""><div class = content><div class = numbers>L</div></div></button><button id = button_7 class = ""square num-button"" onclick = ""recordClick(this)""><div class = content><div class = numbers>N</div></div></button><button id = button_8 class = ""square num-button"" onclick = ""recordClick(this)""><div class = content><div class = numbers>P</div></div></button><button id = button_9 class = ""square num-button"" onclick = ""recordClick(this)""><div class = content><div class = numbers>Q</div></div></button><button id = button_10 class = ""square num-button"" onclick = ""recordClick(this)""><div class = content><div class = numbers>R</div></div></button><button id = button_11 class = ""square num-button"" onclick = ""recordClick(this)""><div class = content><div class = numbers>S</div></div></button><button id = button_12 class = ""square num-button"" onclick = ""recordClick(this)""><div class = content><div class = numbers>Y</div></div></button><button class = clear_button id = ""ClearButton"" onclick = ""clearResponse()"">BACKSPACE</button><button class = blank_button id = ""BlankButton"" onclick = ""blankResponse()"">SKIP</button><p style=""font-size: 2.4rem""><u><b>Current Answer:</b></u></p><br><br><div id=echoed_txt style=""font-size: 5rem; color:blue;""><b></b></div></div>",enter,ospan,retrieval,ibdABvmSLEg8jNNVnThvIW2CHfK2,html-keyboard-response,173,881301,0.0-46.0-5.0-1.0-2.0,28,27,22,7.0,"[""N"",""C"",""P"",""G"",""H"",""Y"",""K""]","[""N"",""C"",""P"",""G"",""H"",""Y"",""K""]",1.0,7.0,,,,,,,6346e221d4cea480a1a39b52,23:51:47,03/04/2024
1517.0,[''],0,ospan,feedback,ibdABvmSLEg8jNNVnThvIW2CHfK2,html-button-response,174,883321,0.0-46.0-5.0-1.0-3.0,,,,,,,,,,,,100.0,0.0,,6346e221d4cea480a1a39b52,23:51:47,03/04/2024
,"<p style=""font-size:75px;"">...</p>",,ospan,iti,ibdABvmSLEg8jNNVnThvIW2CHfK2,html-keyboard-response,175,884323,0.0-46.0-6.0-0.0-0.0,,,,,,,,,,,,,,,6346e221d4cea480a1a39b52,23:51:47,03/04/2024
1771.0,,,ospan,symmetry,ibdABvmSLEg8jNNVnThvIW2CHfK2,symmetry-judgement-task,176,887221,0.0-46.0-6.0-0.0-1.0-0.0,,,,,,,,,,1.0,1.0,,,,6346e221d4cea480a1a39b52,23:51:47,03/04/2024
,"<div style=""font-size: 10rem; color: #0000FF"">K</div>",,ospan,letter,ibdABvmSLEg8jNNVnThvIW2CHfK2,html-keyboard-response,177,888224,0.0-46.0-6.0-0.0-1.0-1.0,,,,,,,,,,,,,,,6346e221d4cea480a1a39b52,23:51:47,03/04/2024
1856.0,,,ospan,symmetry,ibdABvmSLEg8jNNVnThvIW2CHfK2,symmetry-judgement-task,178,891970,0.0-46.0-6.0-0.0-1.0-2.0,,,,,,,,,,1.0,1.0,,,,6346e221d4cea480a1a39b52,23:51:47,03/04/2024
,"<div style=""font-size: 10rem; color: #0000FF"">Y</div>",,ospan,letter,ibdABvmSLEg8jNNVnThvIW2CHfK2,html-keyboard-response,179,892974,0.0-46.0-6.0-0.0-1.0-3.0,,,,,,,,,,,,,,,6346e221d4cea480a1a39b52,23:51:47,03/04/2024
3727.0,,,ospan,symmetry,ibdABvmSLEg8jNNVnThvIW2CHfK2,symmetry-judgement-task,180,898587,0.0-46.0-6.0-0.0-1.0-4.0,,,,,,,,,,1.0,1.0,,,,6346e221d4cea480a1a39b52,23:51:47,03/04/2024
,"<div style=""font-size: 10rem; color: #0000FF"">R</div>",,ospan,letter,ibdABvmSLEg8jNNVnThvIW2CHfK2,html-keyboard-response,181,899590,0.0-46.0-6.0-0.0-1.0-5.0,,,,,,,,,,,,,,,6346e221d4cea480a1a39b52,23:51:47,03/04/2024
2516.0,,,ospan,symmetry,ibdABvmSLEg8jNNVnThvIW2CHfK2,symmetry-judgement-task,182,904003,0.0-46.0-6.0-0.0-1.0-6.0,,,,,,,,,,1.0,1.0,,,,6346e221d4cea480a1a39b52,23:51:47,03/04/2024
,"<div style=""font-size: 10rem; color: #0000FF"">J</div>",,ospan,letter,ibdABvmSLEg8jNNVnThvIW2CHfK2,html-keyboard-response,183,905007,0.0-46.0-6.0-0.0-1.0-7.0,,,,,,,,,,,,,,,6346e221d4cea480a1a39b52,23:51:47,03/04/2024
1966.0,,,ospan,symmetry,ibdABvmSLEg8jNNVnThvIW2CHfK2,symmetry-judgement-task,184,908870,0.0-46.0-6.0-0.0-1.0-8.0,,,,,,,,,,1.0,1.0,,,,6346e221d4cea480a1a39b52,23:51:47,03/04/2024
,"<div style=""font-size: 10rem; color: #0000FF"">Q</div>",,ospan,letter,ibdABvmSLEg8jNNVnThvIW2CHfK2,html-keyboard-response,185,909874,0.0-46.0-6.0-0.0-1.0-9.0,,,,,,,,,,,,,,,6346e221d4cea480a1a39b52,23:51:47,03/04/2024
8329.700000047684,"<div class = numbox><p style=""font-size: 2.4rem"">Please recall the letters you saw to the best of your ability. If you do not remember a particular letter, use the SKIP button.<br><b>(When you are ready to lock in your answer, press ENTER)</b></p><button id = button_1 class = ""square num-button"" onclick = ""recordClick(this)""><div class = content><div class = numbers>C</div></div></button><button id = button_2 class = ""square num-button"" onclick = ""recordClick(this)""><div class = content><div class = numbers>G</div></div></button><button id = button_3 class = ""square num-button"" onclick = ""recordClick(this)""><div class = content><div class = numbers>H</div></div></button><button id = button_4 class = ""square num-button"" onclick = ""recordClick(this)""><div class = content><div class = numbers>J</div></div></button><button id = button_5 class = ""square num-button"" onclick = ""recordClick(this)""><div class = content><div class = numbers>K</div></div></button><button id = button_6 class = ""square num-button"" onclick = ""recordClick(this)""><div class = content><div class = numbers>L</div></div></button><button id = button_7 class = ""square num-button"" onclick = ""recordClick(this)""><div class = content><div class = numbers>N</div></div></button><button id = button_8 class = ""square num-button"" onclick = ""recordClick(this)""><div class = content><div class = numbers>P</div></div></button><button id = button_9 class = ""square num-button"" onclick = ""recordClick(this)""><div class = content><div class = numbers>Q</div></div></button><button id = button_10 class = ""square num-button"" onclick = ""recordClick(this)""><div class = content><div class = numbers>R</div></div></button><button id = button_11 class = ""square num-button"" onclick = ""recordClick(this)""><div class = content><div class = numbers>S</div></div></button><button id = button_12 class = ""square num-button"" onclick = ""recordClick(this)""><div class = content><div class = numbers>Y</div></div></button><button class = clear_button id = ""ClearButton"" onclick = ""clearResponse()"">BACKSPACE</button><button class = blank_button id = ""BlankButton"" onclick = ""blankResponse()"">SKIP</button><p style=""font-size: 2.4rem""><u><b>Current Answer:</b></u></p><br><br><div id=echoed_txt style=""font-size: 5rem; color:blue;""><b></b></div></div>",enter,ospan,retrieval,ibdABvmSLEg8jNNVnThvIW2CHfK2,html-keyboard-response,186,918957,0.0-46.0-6.0-0.0-2.0,33,32,27,5.0,"[""K"",""Y"",""R"",""J"",""Q""]","[""K"",""Y"",""R"",""J"",""Q""]",1.0,5.0,,,,,,,6346e221d4cea480a1a39b52,23:51:47,03/04/2024
1123.8999998569489,[''],0,ospan,feedback,ibdABvmSLEg8jNNVnThvIW2CHfK2,html-button-response,187,920584,0.0-46.0-6.0-0.0-3.0,,,,,,,,,,,,100.0,0.0,,6346e221d4cea480a1a39b52,23:51:47,03/04/2024
,"<p style=""font-size:75px;"">...</p>",,ospan,iti,ibdABvmSLEg8jNNVnThvIW2CHfK2,html-keyboard-response,188,921586,0.0-46.0-6.0-1.0-0.0,,,,,,,,,,,,,,,6346e221d4cea480a1a39b52,23:51:47,03/04/2024
4650.0,,,ospan,symmetry,ibdABvmSLEg8jNNVnThvIW2CHfK2,symmetry-judgement-task,189,927370,0.0-46.0-6.0-1.0-1.0-0.0,,,,,,,,,,1.0,1.0,,,,6346e221d4cea480a1a39b52,23:51:47,03/04/2024
,"<div style=""font-size: 10rem; color: #0000FF"">P</div>",,ospan,letter,ibdABvmSLEg8jNNVnThvIW2CHfK2,html-keyboard-response,190,928373,0.0-46.0-6.0-1.0-1.0-1.0,,,,,,,,,,,,,,,6346e221d4cea480a1a39b52,23:51:47,03/04/2024
1330.0,,,ospan,symmetry,ibdABvmSLEg8jNNVnThvIW2CHfK2,symmetry-judgement-task,191,931602,0.0-46.0-6.0-1.0-1.0-2.0,,,,,,,,,,1.0,1.0,,,,6346e221d4cea480a1a39b52,23:51:47,03/04/2024
,"<div style=""font-size: 10rem; color: #0000FF"">J</div>",,ospan,letter,ibdABvmSLEg8jNNVnThvIW2CHfK2,html-keyboard-response,192,932606,0.0-46.0-6.0-1.0-1.0-3.0,,,,,,,,,,,,,,,6346e221d4cea480a1a39b52,23:51:47,03/04/2024
2086.0,,,ospan,symmetry,ibdABvmSLEg8jNNVnThvIW2CHfK2,symmetry-judgement-task,193,936586,0.0-46.0-6.0-1.0-1.0-4.0,,,,,,,,,,1.0,1.0,,,,6346e221d4cea480a1a39b52,23:51:47,03/04/2024
,"<div style=""font-size: 10rem; color: #0000FF"">Q</div>",,ospan,letter,ibdABvmSLEg8jNNVnThvIW2CHfK2,html-keyboard-response,194,937589,0.0-46.0-6.0-1.0-1.0-5.0,,,,,,,,,,,,,,,6346e221d4cea480a1a39b52,23:51:47,03/04/2024
2569.0,,,ospan,symmetry,ibdABvmSLEg8jNNVnThvIW2CHfK2,symmetry-judgement-task,195,942053,0.0-46.0-6.0-1.0-1.0-6.0,,,,,,,,,,1.0,1.0,,,,6346e221d4cea480a1a39b52,23:51:47,03/04/2024
,"<div style=""font-size: 10rem; color: #0000FF"">K</div>",,ospan,letter,ibdABvmSLEg8jNNVnThvIW2CHfK2,html-keyboard-response,196,943057,0.0-46.0-6.0-1.0-1.0-7.0,,,,,,,,,,,,,,,6346e221d4cea480a1a39b52,23:51:47,03/04/2024
1571.0,,,ospan,symmetry,ibdABvmSLEg8jNNVnThvIW2CHfK2,symmetry-judgement-task,197,946518,0.0-46.0-6.0-1.0-1.0-8.0,,,,,,,,,,1.0,1.0,,,,6346e221d4cea480a1a39b52,23:51:47,03/04/2024
,"<div style=""font-size: 10rem; color: #0000FF"">L</div>",,ospan,letter,ibdABvmSLEg8jNNVnThvIW2CHfK2,html-keyboard-response,198,947521,0.0-46.0-6.0-1.0-1.0-9.0,,,,,,,,,,,,,,,6346e221d4cea480a1a39b52,23:51:47,03/04/2024
1289.0,,,ospan,symmetry,ibdABvmSLEg8jNNVnThvIW2CHfK2,symmetry-judgement-task,199,950701,0.0-46.0-6.0-1.0-1.0-10.0,,,,,,,,,,1.0,1.0,,,,6346e221d4cea480a1a39b52,23:51:47,03/04/2024
,"<div style=""font-size: 10rem; color: #0000FF"">S</div>",,ospan,letter,ibdABvmSLEg8jNNVnThvIW2CHfK2,html-keyboard-response,200,951704,0.0-46.0-6.0-1.0-1.0-11.0,,,,,,,,,,,,,,,6346e221d4cea480a1a39b52,23:51:47,03/04/2024
1143.0,,,ospan,symmetry,ibdABvmSLEg8jNNVnThvIW2CHfK2,symmetry-judgement-task,201,954737,0.0-46.0-6.0-1.0-1.0-12.0,,,,,,,,,,1.0,1.0,,,,6346e221d4cea480a1a39b52,23:51:47,03/04/2024
,"<div style=""font-size: 10rem; color: #0000FF"">R</div>",,ospan,letter,ibdABvmSLEg8jNNVnThvIW2CHfK2,html-keyboard-response,202,955741,0.0-46.0-6.0-1.0-1.0-13.0,,,,,,,,,,,,,,,6346e221d4cea480a1a39b52,23:51:47,03/04/2024
1343.0,,,ospan,symmetry,ibdABvmSLEg8jNNVnThvIW2CHfK2,symmetry-judgement-task,203,958968,0.0-46.0-6.0-1.0-1.0-14.0,,,,,,,,,,1.0,1.0,,,,6346e221d4cea480a1a39b52,23:51:47,03/04/2024
,"<div style=""font-size: 10rem; color: #0000FF"">H</div>",,ospan,letter,ibdABvmSLEg8jNNVnThvIW2CHfK2,html-keyboard-response,204,959971,0.0-46.0-6.0-1.0-1.0-15.0,,,,,,,,,,,,,,,6346e221d4cea480a1a39b52,23:51:47,03/04/2024
29575.300000190735,"<div class = numbox><p style=""font-size: 2.4rem"">Please recall the letters you saw to the best of your ability. If you do not remember a particular letter, use the SKIP button.<br><b>(When you are ready to lock in your answer, press ENTER)</b></p><button id = button_1 class = ""square num-button"" onclick = ""recordClick(this)""><div class = content><div class = numbers>C</div></div></button><button id = button_2 class = ""square num-button"" onclick = ""recordClick(this)""><div class = content><div class = numbers>G</div></div></button><button id = button_3 class = ""square num-button"" onclick = ""recordClick(this)""><div class = content><div class = numbers>H</div></div></button><button id = button_4 class = ""square num-button"" onclick = ""recordClick(this)""><div class = content><div class = numbers>J</div></div></button><button id = button_5 class = ""square num-button"" onclick = ""recordClick(this)""><div class = content><div class = numbers>K</div></div></button><button id = button_6 class = ""square num-button"" onclick = ""recordClick(this)""><div class = content><div class = numbers>L</div></div></button><button id = button_7 class = ""square num-button"" onclick = ""recordClick(this)""><div class = content><div class = numbers>N</div></div></button><button id = button_8 class = ""square num-button"" onclick = ""recordClick(this)""><div class = content><div class = numbers>P</div></div></button><button id = button_9 class = ""square num-button"" onclick = ""recordClick(this)""><div class = content><div class = numbers>Q</div></div></button><button id = button_10 class = ""square num-button"" onclick = ""recordClick(this)""><div class = content><div class = numbers>R</div></div></button><button id = button_11 class = ""square num-button"" onclick = ""recordClick(this)""><div class = content><div class = numbers>S</div></div></button><button id = button_12 class = ""square num-button"" onclick = ""recordClick(this)""><div class = content><div class = numbers>Y</div></div></button><button class = clear_button id = ""ClearButton"" onclick = ""clearResponse()"">BACKSPACE</button><button class = blank_button id = ""BlankButton"" onclick = ""blankResponse()"">SKIP</button><p style=""font-size: 2.4rem""><u><b>Current Answer:</b></u></p><br><br><div id=echoed_txt style=""font-size: 5rem; color:blue;""><b></b></div></div>",enter,ospan,retrieval,ibdABvmSLEg8jNNVnThvIW2CHfK2,html-keyboard-response,205,990299,0.0-46.0-6.0-1.0-2.0,41,38,27,8.0,"[""P"",""J"",""Q"",""K"",""L"",""S"",""Y""]","[""P"",""J"",""Q"",""K"",""L"",""S"",""R"",""H""]",0.0,6.0,,,,,,,6346e221d4cea480a1a39b52,23:51:47,03/04/2024
1429.6000001430511,[''],0,ospan,feedback,ibdABvmSLEg8jNNVnThvIW2CHfK2,html-button-response,206,992232,0.0-46.0-6.0-1.0-3.0,,,,,,,,,,,,100.0,0.0,,6346e221d4cea480a1a39b52,23:51:47,03/04/2024
10111.700000047684,,{'Q0': 'very clear'},ospan,survey_ospan,ibdABvmSLEg8jNNVnThvIW2CHfK2,lmdlab-survey-text,207,1003101,0.0-46.0-7.0,,,,,,,,,,,,,,ibdABvmSLEg8jNNVnThvIW2CHfK2,6346e221d4cea480a1a39b52,23:51:47,03/04/2024
1639.2000000476837,<p><p style='font-size: 3rem'>Great work!<br><br>This completes the symmetry and memory task.</p><br><br><br>,0,ospan,finish,ibdABvmSLEg8jNNVnThvIW2CHfK2,html-button-response,208,1004748,0.0-46.0-8.0,41,38,27,,,,,,,,,100.0,,,6346e221d4cea480a1a39b52,23:51:47,03/04/2024
