rt,stimulus,response,exp_name,exp_stage,subjectID,trial_type,trial_index,time_elapsed,internal_node_id,ospan_shown,ospan_total,ospan_abs,length,resp_actual,resp_correct,full_correct,num_correct,feedback,accuracy,correct,math_acc,math_warning,databaseID,prolificID,start_time,date
3051.0,<div class = 'left_align' style='font-size: 3.25rem; line-height: 1.3;'><p class = 'center_align'><b>Welcome to the Symmetry and Memory Task</b><br><br><br><br></p>Press 'continue' to show the instructions.<br><br><br><br></div>,0,ospan,instruct,yAOFFOD1MNYt03vth6CYlTVNE2r1,html-button-response,54,383655,0.0-46.0-0.0-0.0-0.0,,,,,,,,,,,,,,,5a8a8de6000dab00018cc170,15:31:20,03/04/2024
6027.5,"<div class = 'left_align' style='font-size: 3.25rem; line-height: 1.3;'><p class = 'center_align'><b>Symmetry and Memory Task</b><br><br></p>In this task, you will try to memorize letters you see on the screen<br>while you also view black and white grid pictures.<br><br>In the next few minutes, you will have some practice to get you familiar<br>with how the task works.<br><br>It may be difficult sometimes, but please do not worry about making mistakes!<br><br>We will begin by practicing the letter part of the task.<br><br><br><br></div>",0,ospan,instruct,yAOFFOD1MNYt03vth6CYlTVNE2r1,html-button-response,55,389942,0.0-46.0-0.0-0.0-1.0,,,,,,,,,,,,,,,5a8a8de6000dab00018cc170,15:31:20,03/04/2024
14171.0,"<div class = 'left_align' style='font-size: 3.25rem; line-height: 1.3;'>For this practice part, letters will appear on the screen one at a time.<br><br>Try to remember each letter in the order presented.<br><br>After some letters have been shown, you will see a response screen. Your<br>goal is to report the letters you saw <b>in order</b>. If you do not remember<br>a particular letter, you will have the option to leave it blank.<br><br><br><br></div>",0,ospan,instruct,yAOFFOD1MNYt03vth6CYlTVNE2r1,html-button-response,56,404374,0.0-46.0-0.0-0.0-2.0,,,,,,,,,,,,,,,5a8a8de6000dab00018cc170,15:31:20,03/04/2024
1811.1999998092651,"<div class = 'left_align' style='font-size: 3.25rem; line-height: 1.3;'>Remember, it is very important to get the letters in the same<br>order as you see them.<br><br>When you are ready, you may begin the letter practice.</div><br><br><br><br>",0,ospan,instruct,yAOFFOD1MNYt03vth6CYlTVNE2r1,html-button-response,57,406446,0.0-46.0-0.0-0.0-3.0,,,,,,,,,,,,,,,5a8a8de6000dab00018cc170,15:31:20,03/04/2024
,"<p style=""font-size:75px;"">...</p>",,ospan,iti,yAOFFOD1MNYt03vth6CYlTVNE2r1,html-keyboard-response,58,407707,0.0-46.0-0.0-1.0-0.0,,,,,,,,,,,,,,,5a8a8de6000dab00018cc170,15:31:20,03/04/2024
,"<div style=""font-size: 10rem; color: #0000FF"">Q</div>",,ospan,letter,yAOFFOD1MNYt03vth6CYlTVNE2r1,html-keyboard-response,59,408715,0.0-46.0-0.0-1.0-1.0,,,,,,,,,,,,,,,5a8a8de6000dab00018cc170,15:31:20,03/04/2024
,"<div style=""font-size: 10rem; color: #0000FF"">K</div>",,ospan,letter,yAOFFOD1MNYt03vth6CYlTVNE2r1,html-keyboard-response,60,410475,0.0-46.0-0.0-1.0-2.0,,,,,,,,,,,,,,,5a8a8de6000dab00018cc170,15:31:20,03/04/2024
5722.400000095367,"<div class = numbox><p style=""font-size: 2.4rem"">Please recall the letters you saw to the best of your ability. If you do not remember a particular letter, use the SKIP button.<br><b>(When you are ready to lock in your answer, press ENTER)</b></p><button id = button_1 class = ""square num-button"" onclick = ""recordClick(this)""><div class = content><div class = numbers>C</div></div></button><button id = button_2 class = ""square num-button"" onclick = ""recordClick(this)""><div class = content><div class = numbers>G</div></div></button><button id = button_3 class = ""square num-button"" onclick = ""recordClick(this)""><div class = content><div class = numbers>H</div></div></button><button id = button_4 class = ""square num-button"" onclick = ""recordClick(this)""><div class = content><div class = numbers>J</div></div></button><button id = button_5 class = ""square num-button"" onclick = ""recordClick(this)""><div class = content><div class = numbers>K</div></div></button><button id = button_6 class = ""square num-button"" onclick = ""recordClick(this)""><div class = content><div class = numbers>L</div></div></button><button id = button_7 class = ""square num-button"" onclick = ""recordClick(this)""><div class = content><div class = numbers>N</div></div></button><button id = button_8 class = ""square num-button"" onclick = ""recordClick(this)""><div class = content><div class = numbers>P</div></div></button><button id = button_9 class = ""square num-button"" onclick = ""recordClick(this)""><div class = content><div class = numbers>Q</div></div></button><button id = button_10 class = ""square num-button"" onclick = ""recordClick(this)""><div class = content><div class = numbers>R</div></div></button><button id = button_11 class = ""square num-button"" onclick = ""recordClick(this)""><div class = content><div class = numbers>S</div></div></button><button id = button_12 class = ""square num-button"" onclick = ""recordClick(this)""><div class = content><div class = numbers>Y</div></div></button><button class = clear_button id = ""ClearButton"" onclick = ""clearResponse()"">BACKSPACE</button><button class = blank_button id = ""BlankButton"" onclick = ""blankResponse()"">SKIP</button><p style=""font-size: 2.4rem""><u><b>Current Answer:</b></u></p><br><br><div id=echoed_txt style=""font-size: 5rem; color:blue;""><b></b></div></div>",enter,ospan,retrieval,yAOFFOD1MNYt03vth6CYlTVNE2r1,html-keyboard-response,61,416949,0.0-46.0-0.0-1.0-3.0,NA,NA,NA,2.0,"[""Q"",""K""]","[""Q"",""K""]",1.0,2.0,"['<font color=""green"">Q</font>', '<font color=""green"">K</font>']",,,,,,5a8a8de6000dab00018cc170,15:31:20,03/04/2024
1699.4000000953674,"['<p style=""font-size:44px"">Letters:<br><br><br><font color=""green"">Q</font> <font color=""green"">K</font></p><br><br>']",0,ospan,practice_feedback,yAOFFOD1MNYt03vth6CYlTVNE2r1,html-button-response,62,419151,0.0-46.0-0.0-1.0-4.0,,,,,,,,,,,,,,,5a8a8de6000dab00018cc170,15:31:20,03/04/2024
,"<p style=""font-size:75px;"">...</p>",,ospan,iti,yAOFFOD1MNYt03vth6CYlTVNE2r1,html-keyboard-response,63,420155,0.0-46.0-0.0-2.0-0.0,,,,,,,,,,,,,,,5a8a8de6000dab00018cc170,15:31:20,03/04/2024
,"<div style=""font-size: 10rem; color: #0000FF"">H</div>",,ospan,letter,yAOFFOD1MNYt03vth6CYlTVNE2r1,html-keyboard-response,64,421163,0.0-46.0-0.0-2.0-1.0,,,,,,,,,,,,,,,5a8a8de6000dab00018cc170,15:31:20,03/04/2024
,"<div style=""font-size: 10rem; color: #0000FF"">S</div>",,ospan,letter,yAOFFOD1MNYt03vth6CYlTVNE2r1,html-keyboard-response,65,422923,0.0-46.0-0.0-2.0-2.0,,,,,,,,,,,,,,,5a8a8de6000dab00018cc170,15:31:20,03/04/2024
,"<div style=""font-size: 10rem; color: #0000FF"">R</div>",,ospan,letter,yAOFFOD1MNYt03vth6CYlTVNE2r1,html-keyboard-response,66,424683,0.0-46.0-0.0-2.0-3.0,,,,,,,,,,,,,,,5a8a8de6000dab00018cc170,15:31:20,03/04/2024
3154.7999997138977,"<div class = numbox><p style=""font-size: 2.4rem"">Please recall the letters you saw to the best of your ability. If you do not remember a particular letter, use the SKIP button.<br><b>(When you are ready to lock in your answer, press ENTER)</b></p><button id = button_1 class = ""square num-button"" onclick = ""recordClick(this)""><div class = content><div class = numbers>C</div></div></button><button id = button_2 class = ""square num-button"" onclick = ""recordClick(this)""><div class = content><div class = numbers>G</div></div></button><button id = button_3 class = ""square num-button"" onclick = ""recordClick(this)""><div class = content><div class = numbers>H</div></div></button><button id = button_4 class = ""square num-button"" onclick = ""recordClick(this)""><div class = content><div class = numbers>J</div></div></button><button id = button_5 class = ""square num-button"" onclick = ""recordClick(this)""><div class = content><div class = numbers>K</div></div></button><button id = button_6 class = ""square num-button"" onclick = ""recordClick(this)""><div class = content><div class = numbers>L</div></div></button><button id = button_7 class = ""square num-button"" onclick = ""recordClick(this)""><div class = content><div class = numbers>N</div></div></button><button id = button_8 class = ""square num-button"" onclick = ""recordClick(this)""><div class = content><div class = numbers>P</div></div></button><button id = button_9 class = ""square num-button"" onclick = ""recordClick(this)""><div class = content><div class = numbers>Q</div></div></button><button id = button_10 class = ""square num-button"" onclick = ""recordClick(this)""><div class = content><div class = numbers>R</div></div></button><button id = button_11 class = ""square num-button"" onclick = ""recordClick(this)""><div class = content><div class = numbers>S</div></div></button><button id = button_12 class = ""square num-button"" onclick = ""recordClick(this)""><div class = content><div class = numbers>Y</div></div></button><button class = clear_button id = ""ClearButton"" onclick = ""clearResponse()"">BACKSPACE</button><button class = blank_button id = ""BlankButton"" onclick = ""blankResponse()"">SKIP</button><p style=""font-size: 2.4rem""><u><b>Current Answer:</b></u></p><br><br><div id=echoed_txt style=""font-size: 5rem; color:blue;""><b></b></div></div>",enter,ospan,retrieval,yAOFFOD1MNYt03vth6CYlTVNE2r1,html-keyboard-response,67,428589,0.0-46.0-0.0-2.0-4.0,NA,NA,NA,3.0,"[""H"",""S"",""R""]","[""H"",""S"",""R""]",1.0,3.0,"['<font color=""green"">H</font>', '<font color=""green"">S</font>', '<font color=""green"">R</font>']",,,,,,5a8a8de6000dab00018cc170,15:31:20,03/04/2024
1043.4000000953674,"['<p style=""font-size:44px"">Letters:<br><br><br><font color=""green"">H</font> <font color=""green"">S</font> <font color=""green"">R</font></p><br><br>']",0,ospan,practice_feedback,yAOFFOD1MNYt03vth6CYlTVNE2r1,html-button-response,68,430142,0.0-46.0-0.0-2.0-5.0,,,,,,,,,,,,,,,5a8a8de6000dab00018cc170,15:31:20,03/04/2024
13087.300000190735,"<div class = 'left_align' style='font-size: 3.25rem; line-height: 1.3;'>Now you will practice doing the <b>symmetry judgment part</b> of the experiment.<br><br>A black and white grid picture will appear on the screen and you have to judge if it is <br>symmetrical or asymetrical.<br><br>A picture is 'mirror' symmetrical if its left half is identical to the right half when flipped.<br>Here are examples of a symmetrical and an asymetrical picture:<br><br><center><img src='Stimuli/img/symm_instructions_extra.png' style='height:420px; width:900'></img></center><br>To judge symmetry, imagine you were to fold each picture down the middle, like a book –<br>would the left half match the right half when folded onto each other?<br><br></div><br>",0,ospan,instruct,yAOFFOD1MNYt03vth6CYlTVNE2r1,html-button-response,69,443230,0.0-46.0-1.0-0.0-0.0,,,,,,,,,,,,,,,5a8a8de6000dab00018cc170,15:31:20,03/04/2024
1531.4000000953674,"<div class = 'left_align' style='font-size: 3.25rem; line-height: 1.3;'>When you have viewed the picture and determined whether it is symmetrical or not,<br>you can <b>click the Yes or No button</b> below to answer.<br><br>If you take longer than 15 seconds, it will continue automatically<br>and record the answer as an error.</div><br>",0,ospan,instruct,yAOFFOD1MNYt03vth6CYlTVNE2r1,html-button-response,70,445014,0.0-46.0-1.0-0.0-1.0,,,,,,,,,,,,,,,5a8a8de6000dab00018cc170,15:31:20,03/04/2024
3387.699999809265,"<div class = 'left_align' style='font-size: 3.25rem; line-height: 1.3;'>It is <b>very</b> important that you make the symmetry judgment correctly.<br><br>It is also important that you try and judge the picture as quickly as you can.<br><br>When you are ready, click on the button below to try some practice problems.</div><br><br><br><br>",0,ospan,instruct,yAOFFOD1MNYt03vth6CYlTVNE2r1,html-button-response,71,448662,0.0-46.0-1.0-0.0-2.0,,,,,,,,,,,,,,,5a8a8de6000dab00018cc170,15:31:20,03/04/2024
1677.0,,,ospan,symmetry,yAOFFOD1MNYt03vth6CYlTVNE2r1,symmetry-judgement-task,72,451130,0.0-46.0-1.0-1.0-0.0,,,,,,,,,,1.0,1.0,,,,5a8a8de6000dab00018cc170,15:31:20,03/04/2024
,"<p style=""color:green; font-size: 35px"">Correct</p>",,ospan,feedback,yAOFFOD1MNYt03vth6CYlTVNE2r1,html-keyboard-response,73,451883,0.0-46.0-1.0-1.0-1.0,,,,,,,,,,,,,,,5a8a8de6000dab00018cc170,15:31:20,03/04/2024
850.0,,,ospan,symmetry,yAOFFOD1MNYt03vth6CYlTVNE2r1,symmetry-judgement-task,74,455354,0.0-46.0-1.0-1.0-2.0,,,,,,,,,,1.0,1.0,,,,5a8a8de6000dab00018cc170,15:31:20,03/04/2024
,"<p style=""color:green; font-size: 35px"">Correct</p>",,ospan,feedback,yAOFFOD1MNYt03vth6CYlTVNE2r1,html-keyboard-response,75,456106,0.0-46.0-1.0-1.0-3.0,,,,,,,,,,,,,,,5a8a8de6000dab00018cc170,15:31:20,03/04/2024
689.0,,,ospan,symmetry,yAOFFOD1MNYt03vth6CYlTVNE2r1,symmetry-judgement-task,76,459419,0.0-46.0-1.0-1.0-4.0,,,,,,,,,,1.0,1.0,,,,5a8a8de6000dab00018cc170,15:31:20,03/04/2024
,"<p style=""color:green; font-size: 35px"">Correct</p>",,ospan,feedback,yAOFFOD1MNYt03vth6CYlTVNE2r1,html-keyboard-response,77,460171,0.0-46.0-1.0-1.0-5.0,,,,,,,,,,,,,,,5a8a8de6000dab00018cc170,15:31:20,03/04/2024
954.9000000953674,"<p style=""font-size: 3rem;"">You responded correctly on 3 of 3 symmetry judgments. Good job!</p><br><br>",0,ospan,practice,yAOFFOD1MNYt03vth6CYlTVNE2r1,html-button-response,78,463126,0.0-46.0-1.0-2.0,,,,,,,,,,,,,,,5a8a8de6000dab00018cc170,15:31:20,03/04/2024
4355.099999904633,"<div class = 'left_align' style='font-size: 3.25rem; line-height: 1.3;'>Now you will practice doing both parts of the experiment at the same time.<br><br>In the next practice set, you will be given one grid picture to judge.<br>Then letter will appear on the screen. Try to remember the letter.<br><br>It is <b>very important</b> to make the symmetry judgment as quickly and accurately as possible.<br><br>Just as before, once you have make the symmetry judgment, you can click Yes or No.<br><b>Note that you will no longer see Correct or Incorrect feedback.</div><br><br><br><br>",0,ospan,instruct,yAOFFOD1MNYt03vth6CYlTVNE2r1,html-button-response,79,467742,0.0-46.0-2.0-0.0-0.0,,,,,,,,,,,,,,,5a8a8de6000dab00018cc170,15:31:20,03/04/2024
6419.299999713898,"<div class = 'left_align' style='font-size: 3.25rem; line-height: 1.3;'>After the letter goes away, another grid picture will appear, and then<br>another letter.<br><br>At the end of each set of letters and grids, you will recall the letters to the best<br>of your ability. Remember, try your best to get the letters in the correct order.<br><br>It is important to <b>quickly</b> and <b>accurately</b> make the symmetry judgments.</div><br><br><br><br>",0,ospan,instruct,yAOFFOD1MNYt03vth6CYlTVNE2r1,html-button-response,80,474414,0.0-46.0-2.0-0.0-1.0,,,,,,,,,,,,,,,5a8a8de6000dab00018cc170,15:31:20,03/04/2024
9611.099999904633,"<div class = 'left_align' style='font-size: 3.25rem; line-height: 1.3;'>On the feedback screen, if you are not doing well at the symmetry judgments,<br>you will also see a warning in the middle. This indicates your percent <br>correct for the grid pictures for the entire experiment.<br><br>It is <b>very</b> important for you to keep accuracy at least at 85%: <u>We can only use<br>data where the participant was at least 85% accurate on the judgments.</u> Therefore,<br> please try your best to perform well on the symmetry judgments, <b>at the same time</b><br>doing your best to recall as many letters as possible.<br><br>Click the button to try some practice problems.</div><br><br><br><br>",0,ospan,instruct,yAOFFOD1MNYt03vth6CYlTVNE2r1,html-button-response,81,484278,0.0-46.0-2.0-0.0-2.0,,,,,,,,,,,,,,,5a8a8de6000dab00018cc170,15:31:20,03/04/2024
,"<p style=""font-size:75px;"">...</p>",,ospan,iti,yAOFFOD1MNYt03vth6CYlTVNE2r1,html-keyboard-response,82,485547,0.0-46.0-2.0-1.0-0.0,,,,,,,,,,,,,,,5a8a8de6000dab00018cc170,15:31:20,03/04/2024
2027.0,,,ospan,symmetry,yAOFFOD1MNYt03vth6CYlTVNE2r1,symmetry-judgement-task,83,488667,0.0-46.0-2.0-1.0-1.0-0.0,,,,,,,,,,1.0,1.0,,,,5a8a8de6000dab00018cc170,15:31:20,03/04/2024
,"<div style=""font-size: 10rem; color: #0000FF"">Y</div>",,ospan,letter,yAOFFOD1MNYt03vth6CYlTVNE2r1,html-keyboard-response,84,489675,0.0-46.0-2.0-1.0-1.0-1.0,,,,,,,,,,,,,,,5a8a8de6000dab00018cc170,15:31:20,03/04/2024
969.0,,,ospan,symmetry,yAOFFOD1MNYt03vth6CYlTVNE2r1,symmetry-judgement-task,85,492427,0.0-46.0-2.0-1.0-1.0-2.0,,,,,,,,,,1.0,1.0,,,,5a8a8de6000dab00018cc170,15:31:20,03/04/2024
,"<div style=""font-size: 10rem; color: #0000FF"">C</div>",,ospan,letter,yAOFFOD1MNYt03vth6CYlTVNE2r1,html-keyboard-response,86,493435,0.0-46.0-2.0-1.0-1.0-3.0,,,,,,,,,,,,,,,5a8a8de6000dab00018cc170,15:31:20,03/04/2024
1138.0,,,ospan,symmetry,yAOFFOD1MNYt03vth6CYlTVNE2r1,symmetry-judgement-task,87,496426,0.0-46.0-2.0-1.0-1.0-4.0,,,,,,,,,,1.0,1.0,,,,5a8a8de6000dab00018cc170,15:31:20,03/04/2024
,"<div style=""font-size: 10rem; color: #0000FF"">S</div>",,ospan,letter,yAOFFOD1MNYt03vth6CYlTVNE2r1,html-keyboard-response,88,497434,0.0-46.0-2.0-1.0-1.0-5.0,,,,,,,,,,,,,,,5a8a8de6000dab00018cc170,15:31:20,03/04/2024
3490.9000000953674,"<div class = numbox><p style=""font-size: 2.4rem"">Please recall the letters you saw to the best of your ability. If you do not remember a particular letter, use the SKIP button.<br><b>(When you are ready to lock in your answer, press ENTER)</b></p><button id = button_1 class = ""square num-button"" onclick = ""recordClick(this)""><div class = content><div class = numbers>C</div></div></button><button id = button_2 class = ""square num-button"" onclick = ""recordClick(this)""><div class = content><div class = numbers>G</div></div></button><button id = button_3 class = ""square num-button"" onclick = ""recordClick(this)""><div class = content><div class = numbers>H</div></div></button><button id = button_4 class = ""square num-button"" onclick = ""recordClick(this)""><div class = content><div class = numbers>J</div></div></button><button id = button_5 class = ""square num-button"" onclick = ""recordClick(this)""><div class = content><div class = numbers>K</div></div></button><button id = button_6 class = ""square num-button"" onclick = ""recordClick(this)""><div class = content><div class = numbers>L</div></div></button><button id = button_7 class = ""square num-button"" onclick = ""recordClick(this)""><div class = content><div class = numbers>N</div></div></button><button id = button_8 class = ""square num-button"" onclick = ""recordClick(this)""><div class = content><div class = numbers>P</div></div></button><button id = button_9 class = ""square num-button"" onclick = ""recordClick(this)""><div class = content><div class = numbers>Q</div></div></button><button id = button_10 class = ""square num-button"" onclick = ""recordClick(this)""><div class = content><div class = numbers>R</div></div></button><button id = button_11 class = ""square num-button"" onclick = ""recordClick(this)""><div class = content><div class = numbers>S</div></div></button><button id = button_12 class = ""square num-button"" onclick = ""recordClick(this)""><div class = content><div class = numbers>Y</div></div></button><button class = clear_button id = ""ClearButton"" onclick = ""clearResponse()"">BACKSPACE</button><button class = blank_button id = ""BlankButton"" onclick = ""blankResponse()"">SKIP</button><p style=""font-size: 2.4rem""><u><b>Current Answer:</b></u></p><br><br><div id=echoed_txt style=""font-size: 5rem; color:blue;""><b></b></div></div>",enter,ospan,retrieval,yAOFFOD1MNYt03vth6CYlTVNE2r1,html-keyboard-response,89,501677,0.0-46.0-2.0-1.0-2.0-0.0,NA,NA,NA,3.0,"[""Y"",""C"",""S""]","[""Y"",""C"",""S""]",1.0,3.0,"['<font color=""green"">Y</font>', '<font color=""green"">C</font>', '<font color=""green"">S</font>']",,,,,,5a8a8de6000dab00018cc170,15:31:20,03/04/2024
1011.4000000953674,"['<p style=""font-size:44px"">Letters:<br><br><br><font color=""green"">Y</font> <font color=""green"">C</font> <font color=""green"">S</font></p><br><br><p style=""font-size:30px"">Symmetry:<br><br><font color=""green"">100%</font></p><br><br>']",0,ospan,practice_feedback,yAOFFOD1MNYt03vth6CYlTVNE2r1,html-button-response,90,503199,0.0-46.0-2.0-1.0-2.0-1.0,,,,,,,,,,,,,,,5a8a8de6000dab00018cc170,15:31:20,03/04/2024
,"<p style=""font-size:75px;"">...</p>",,ospan,iti,yAOFFOD1MNYt03vth6CYlTVNE2r1,html-keyboard-response,91,504203,0.0-46.0-2.0-2.0-0.0,,,,,,,,,,,,,,,5a8a8de6000dab00018cc170,15:31:20,03/04/2024
1364.0,,,ospan,symmetry,yAOFFOD1MNYt03vth6CYlTVNE2r1,symmetry-judgement-task,92,506666,0.0-46.0-2.0-2.0-1.0-0.0,,,,,,,,,,1.0,1.0,,,,5a8a8de6000dab00018cc170,15:31:20,03/04/2024
,"<div style=""font-size: 10rem; color: #0000FF"">N</div>",,ospan,letter,yAOFFOD1MNYt03vth6CYlTVNE2r1,html-keyboard-response,93,507674,0.0-46.0-2.0-2.0-1.0-1.0,,,,,,,,,,,,,,,5a8a8de6000dab00018cc170,15:31:20,03/04/2024
1062.0,,,ospan,symmetry,yAOFFOD1MNYt03vth6CYlTVNE2r1,symmetry-judgement-task,94,510586,0.0-46.0-2.0-2.0-1.0-2.0,,,,,,,,,,1.0,1.0,,,,5a8a8de6000dab00018cc170,15:31:20,03/04/2024
,"<div style=""font-size: 10rem; color: #0000FF"">K</div>",,ospan,letter,yAOFFOD1MNYt03vth6CYlTVNE2r1,html-keyboard-response,95,511594,0.0-46.0-2.0-2.0-1.0-3.0,,,,,,,,,,,,,,,5a8a8de6000dab00018cc170,15:31:20,03/04/2024
1090.0,,,ospan,symmetry,yAOFFOD1MNYt03vth6CYlTVNE2r1,symmetry-judgement-task,96,514539,0.0-46.0-2.0-2.0-1.0-4.0,,,,,,,,,,1.0,1.0,,,,5a8a8de6000dab00018cc170,15:31:20,03/04/2024
,"<div style=""font-size: 10rem; color: #0000FF"">R</div>",,ospan,letter,yAOFFOD1MNYt03vth6CYlTVNE2r1,html-keyboard-response,97,515546,0.0-46.0-2.0-2.0-1.0-5.0,,,,,,,,,,,,,,,5a8a8de6000dab00018cc170,15:31:20,03/04/2024
2713.9000000953674,"<div class = numbox><p style=""font-size: 2.4rem"">Please recall the letters you saw to the best of your ability. If you do not remember a particular letter, use the SKIP button.<br><b>(When you are ready to lock in your answer, press ENTER)</b></p><button id = button_1 class = ""square num-button"" onclick = ""recordClick(this)""><div class = content><div class = numbers>C</div></div></button><button id = button_2 class = ""square num-button"" onclick = ""recordClick(this)""><div class = content><div class = numbers>G</div></div></button><button id = button_3 class = ""square num-button"" onclick = ""recordClick(this)""><div class = content><div class = numbers>H</div></div></button><button id = button_4 class = ""square num-button"" onclick = ""recordClick(this)""><div class = content><div class = numbers>J</div></div></button><button id = button_5 class = ""square num-button"" onclick = ""recordClick(this)""><div class = content><div class = numbers>K</div></div></button><button id = button_6 class = ""square num-button"" onclick = ""recordClick(this)""><div class = content><div class = numbers>L</div></div></button><button id = button_7 class = ""square num-button"" onclick = ""recordClick(this)""><div class = content><div class = numbers>N</div></div></button><button id = button_8 class = ""square num-button"" onclick = ""recordClick(this)""><div class = content><div class = numbers>P</div></div></button><button id = button_9 class = ""square num-button"" onclick = ""recordClick(this)""><div class = content><div class = numbers>Q</div></div></button><button id = button_10 class = ""square num-button"" onclick = ""recordClick(this)""><div class = content><div class = numbers>R</div></div></button><button id = button_11 class = ""square num-button"" onclick = ""recordClick(this)""><div class = content><div class = numbers>S</div></div></button><button id = button_12 class = ""square num-button"" onclick = ""recordClick(this)""><div class = content><div class = numbers>Y</div></div></button><button class = clear_button id = ""ClearButton"" onclick = ""clearResponse()"">BACKSPACE</button><button class = blank_button id = ""BlankButton"" onclick = ""blankResponse()"">SKIP</button><p style=""font-size: 2.4rem""><u><b>Current Answer:</b></u></p><br><br><div id=echoed_txt style=""font-size: 5rem; color:blue;""><b></b></div></div>",enter,ospan,retrieval,yAOFFOD1MNYt03vth6CYlTVNE2r1,html-keyboard-response,98,519013,0.0-46.0-2.0-2.0-2.0-0.0,NA,NA,NA,3.0,"[""N"",""K"",""R""]","[""N"",""K"",""R""]",1.0,3.0,"['<font color=""green"">N</font>', '<font color=""green"">K</font>', '<font color=""green"">R</font>']",,,,,,5a8a8de6000dab00018cc170,15:31:20,03/04/2024
611.0,"['<p style=""font-size:44px"">Letters:<br><br><br><font color=""green"">N</font> <font color=""green"">K</font> <font color=""green"">R</font></p><br><br><p style=""font-size:30px"">Symmetry:<br><br><font color=""green"">100%</font></p><br><br>']",0,ospan,practice_feedback,yAOFFOD1MNYt03vth6CYlTVNE2r1,html-button-response,99,520126,0.0-46.0-2.0-2.0-2.0-1.0,,,,,,,,,,,,,,,5a8a8de6000dab00018cc170,15:31:20,03/04/2024
13663.199999809265,"<div class = 'left_align' style='font-size: 3rem; line-height: 1.3;'><b>Great work! That is the end of practice.</b><br><br>The real trials will look just like the practice trials you just completed.<br><br><u>Here, you will not see feedback</u>. First, you will see an grid picture to judge,<br>then a letter to remember. When the recall screen appears, report the letters in the<br>order presented. If you forget a letter, remember to use the <b>blank</b> button to move to the<br>next letter. Some of the sets will have more symmetry grids and letters than others.<br><br>It is important that you do your best on both the symmetry judgments and the letter recall<br>parts of the experiment. For for the symmetry judgments, try to work as <b>quickly</b> and <br>as <b>accurately</b> as possible. Remember to keep your symmetry accuracy at 85% or above.<br><br><b>For the letters, do NOT use any external aid (e.g., writing on paper, electronic device).</b><br><br>It is <u>very important</u> to our experiment to have a <b>true</b> view of your real performance.<br><br>Do not worry if you miss some when it gets hard! This task is meant to be very challenging!<br><br>Click the button to begin.</div><br><br><br><br>",0,ospan,starting_real_here,yAOFFOD1MNYt03vth6CYlTVNE2r1,html-button-response,100,533790,0.0-46.0-2.0-3.0,,,,,,,,,,,,,,,5a8a8de6000dab00018cc170,15:31:20,03/04/2024
,"<p style=""font-size:75px;"">...</p>",,ospan,iti,yAOFFOD1MNYt03vth6CYlTVNE2r1,html-keyboard-response,101,535050,0.0-46.0-3.0-0.0-0.0,,,,,,,,,,,,,,,5a8a8de6000dab00018cc170,15:31:20,03/04/2024
3013.0,,,ospan,symmetry,yAOFFOD1MNYt03vth6CYlTVNE2r1,symmetry-judgement-task,102,539162,0.0-46.0-3.0-0.0-1.0-0.0,,,,,,,,,,1.0,1.0,,,,5a8a8de6000dab00018cc170,15:31:20,03/04/2024
,"<div style=""font-size: 10rem; color: #0000FF"">J</div>",,ospan,letter,yAOFFOD1MNYt03vth6CYlTVNE2r1,html-keyboard-response,103,540171,0.0-46.0-3.0-0.0-1.0-1.0,,,,,,,,,,,,,,,5a8a8de6000dab00018cc170,15:31:20,03/04/2024
805.0,,,ospan,symmetry,yAOFFOD1MNYt03vth6CYlTVNE2r1,symmetry-judgement-task,104,542826,0.0-46.0-3.0-0.0-1.0-2.0,,,,,,,,,,1.0,1.0,,,,5a8a8de6000dab00018cc170,15:31:20,03/04/2024
,"<div style=""font-size: 10rem; color: #0000FF"">Y</div>",,ospan,letter,yAOFFOD1MNYt03vth6CYlTVNE2r1,html-keyboard-response,105,543835,0.0-46.0-3.0-0.0-1.0-3.0,,,,,,,,,,,,,,,5a8a8de6000dab00018cc170,15:31:20,03/04/2024
1178.0,,,ospan,symmetry,yAOFFOD1MNYt03vth6CYlTVNE2r1,symmetry-judgement-task,106,546858,0.0-46.0-3.0-0.0-1.0-4.0,,,,,,,,,,1.0,1.0,,,,5a8a8de6000dab00018cc170,15:31:20,03/04/2024
,"<div style=""font-size: 10rem; color: #0000FF"">C</div>",,ospan,letter,yAOFFOD1MNYt03vth6CYlTVNE2r1,html-keyboard-response,107,547867,0.0-46.0-3.0-0.0-1.0-5.0,,,,,,,,,,,,,,,5a8a8de6000dab00018cc170,15:31:20,03/04/2024
4553.699999809265,"<div class = numbox><p style=""font-size: 2.4rem"">Please recall the letters you saw to the best of your ability. If you do not remember a particular letter, use the SKIP button.<br><b>(When you are ready to lock in your answer, press ENTER)</b></p><button id = button_1 class = ""square num-button"" onclick = ""recordClick(this)""><div class = content><div class = numbers>C</div></div></button><button id = button_2 class = ""square num-button"" onclick = ""recordClick(this)""><div class = content><div class = numbers>G</div></div></button><button id = button_3 class = ""square num-button"" onclick = ""recordClick(this)""><div class = content><div class = numbers>H</div></div></button><button id = button_4 class = ""square num-button"" onclick = ""recordClick(this)""><div class = content><div class = numbers>J</div></div></button><button id = button_5 class = ""square num-button"" onclick = ""recordClick(this)""><div class = content><div class = numbers>K</div></div></button><button id = button_6 class = ""square num-button"" onclick = ""recordClick(this)""><div class = content><div class = numbers>L</div></div></button><button id = button_7 class = ""square num-button"" onclick = ""recordClick(this)""><div class = content><div class = numbers>N</div></div></button><button id = button_8 class = ""square num-button"" onclick = ""recordClick(this)""><div class = content><div class = numbers>P</div></div></button><button id = button_9 class = ""square num-button"" onclick = ""recordClick(this)""><div class = content><div class = numbers>Q</div></div></button><button id = button_10 class = ""square num-button"" onclick = ""recordClick(this)""><div class = content><div class = numbers>R</div></div></button><button id = button_11 class = ""square num-button"" onclick = ""recordClick(this)""><div class = content><div class = numbers>S</div></div></button><button id = button_12 class = ""square num-button"" onclick = ""recordClick(this)""><div class = content><div class = numbers>Y</div></div></button><button class = clear_button id = ""ClearButton"" onclick = ""clearResponse()"">BACKSPACE</button><button class = blank_button id = ""BlankButton"" onclick = ""blankResponse()"">SKIP</button><p style=""font-size: 2.4rem""><u><b>Current Answer:</b></u></p><br><br><div id=echoed_txt style=""font-size: 5rem; color:blue;""><b></b></div></div>",enter,ospan,retrieval,yAOFFOD1MNYt03vth6CYlTVNE2r1,html-keyboard-response,108,553173,0.0-46.0-3.0-0.0-2.0,3,3,3,3.0,"[""J"",""Y"",""C""]","[""J"",""Y"",""C""]",1.0,3.0,,,,,,,5a8a8de6000dab00018cc170,15:31:20,03/04/2024
1035.8000001907349,[''],0,ospan,feedback,yAOFFOD1MNYt03vth6CYlTVNE2r1,html-button-response,109,554711,0.0-46.0-3.0-0.0-3.0,,,,,,,,,,,,100.0,0.0,,5a8a8de6000dab00018cc170,15:31:20,03/04/2024
,"<p style=""font-size:75px;"">...</p>",,ospan,iti,yAOFFOD1MNYt03vth6CYlTVNE2r1,html-keyboard-response,110,555723,0.0-46.0-4.0-0.0-0.0,,,,,,,,,,,,,,,5a8a8de6000dab00018cc170,15:31:20,03/04/2024
1247.0,,,ospan,symmetry,yAOFFOD1MNYt03vth6CYlTVNE2r1,symmetry-judgement-task,111,558074,0.0-46.0-4.0-0.0-1.0-0.0,,,,,,,,,,1.0,1.0,,,,5a8a8de6000dab00018cc170,15:31:20,03/04/2024
,"<div style=""font-size: 10rem; color: #0000FF"">R</div>",,ospan,letter,yAOFFOD1MNYt03vth6CYlTVNE2r1,html-keyboard-response,112,559083,0.0-46.0-4.0-0.0-1.0-1.0,,,,,,,,,,,,,,,5a8a8de6000dab00018cc170,15:31:20,03/04/2024
1171.0,,,ospan,symmetry,yAOFFOD1MNYt03vth6CYlTVNE2r1,symmetry-judgement-task,113,562106,0.0-46.0-4.0-0.0-1.0-2.0,,,,,,,,,,1.0,1.0,,,,5a8a8de6000dab00018cc170,15:31:20,03/04/2024
,"<div style=""font-size: 10rem; color: #0000FF"">Q</div>",,ospan,letter,yAOFFOD1MNYt03vth6CYlTVNE2r1,html-keyboard-response,114,563115,0.0-46.0-4.0-0.0-1.0-3.0,,,,,,,,,,,,,,,5a8a8de6000dab00018cc170,15:31:20,03/04/2024
991.0,,,ospan,symmetry,yAOFFOD1MNYt03vth6CYlTVNE2r1,symmetry-judgement-task,115,565963,0.0-46.0-4.0-0.0-1.0-4.0,,,,,,,,,,1.0,1.0,,,,5a8a8de6000dab00018cc170,15:31:20,03/04/2024
,"<div style=""font-size: 10rem; color: #0000FF"">S</div>",,ospan,letter,yAOFFOD1MNYt03vth6CYlTVNE2r1,html-keyboard-response,116,566971,0.0-46.0-4.0-0.0-1.0-5.0,,,,,,,,,,,,,,,5a8a8de6000dab00018cc170,15:31:20,03/04/2024
1208.0,,,ospan,symmetry,yAOFFOD1MNYt03vth6CYlTVNE2r1,symmetry-judgement-task,117,570027,0.0-46.0-4.0-0.0-1.0-6.0,,,,,,,,,,1.0,1.0,,,,5a8a8de6000dab00018cc170,15:31:20,03/04/2024
,"<div style=""font-size: 10rem; color: #0000FF"">N</div>",,ospan,letter,yAOFFOD1MNYt03vth6CYlTVNE2r1,html-keyboard-response,118,571034,0.0-46.0-4.0-0.0-1.0-7.0,,,,,,,,,,,,,,,5a8a8de6000dab00018cc170,15:31:20,03/04/2024
3627.0,"<div class = numbox><p style=""font-size: 2.4rem"">Please recall the letters you saw to the best of your ability. If you do not remember a particular letter, use the SKIP button.<br><b>(When you are ready to lock in your answer, press ENTER)</b></p><button id = button_1 class = ""square num-button"" onclick = ""recordClick(this)""><div class = content><div class = numbers>C</div></div></button><button id = button_2 class = ""square num-button"" onclick = ""recordClick(this)""><div class = content><div class = numbers>G</div></div></button><button id = button_3 class = ""square num-button"" onclick = ""recordClick(this)""><div class = content><div class = numbers>H</div></div></button><button id = button_4 class = ""square num-button"" onclick = ""recordClick(this)""><div class = content><div class = numbers>J</div></div></button><button id = button_5 class = ""square num-button"" onclick = ""recordClick(this)""><div class = content><div class = numbers>K</div></div></button><button id = button_6 class = ""square num-button"" onclick = ""recordClick(this)""><div class = content><div class = numbers>L</div></div></button><button id = button_7 class = ""square num-button"" onclick = ""recordClick(this)""><div class = content><div class = numbers>N</div></div></button><button id = button_8 class = ""square num-button"" onclick = ""recordClick(this)""><div class = content><div class = numbers>P</div></div></button><button id = button_9 class = ""square num-button"" onclick = ""recordClick(this)""><div class = content><div class = numbers>Q</div></div></button><button id = button_10 class = ""square num-button"" onclick = ""recordClick(this)""><div class = content><div class = numbers>R</div></div></button><button id = button_11 class = ""square num-button"" onclick = ""recordClick(this)""><div class = content><div class = numbers>S</div></div></button><button id = button_12 class = ""square num-button"" onclick = ""recordClick(this)""><div class = content><div class = numbers>Y</div></div></button><button class = clear_button id = ""ClearButton"" onclick = ""clearResponse()"">BACKSPACE</button><button class = blank_button id = ""BlankButton"" onclick = ""blankResponse()"">SKIP</button><p style=""font-size: 2.4rem""><u><b>Current Answer:</b></u></p><br><br><div id=echoed_txt style=""font-size: 5rem; color:blue;""><b></b></div></div>",enter,ospan,retrieval,yAOFFOD1MNYt03vth6CYlTVNE2r1,html-keyboard-response,119,575414,0.0-46.0-4.0-0.0-2.0,7,7,7,4.0,"[""R"",""Q"",""S"",""N""]","[""R"",""Q"",""S"",""N""]",1.0,4.0,,,,,,,5a8a8de6000dab00018cc170,15:31:20,03/04/2024
659.6999998092651,[''],0,ospan,feedback,yAOFFOD1MNYt03vth6CYlTVNE2r1,html-button-response,120,576574,0.0-46.0-4.0-0.0-3.0,,,,,,,,,,,,100.0,0.0,,5a8a8de6000dab00018cc170,15:31:20,03/04/2024
,"<p style=""font-size:75px;"">...</p>",,ospan,iti,yAOFFOD1MNYt03vth6CYlTVNE2r1,html-keyboard-response,121,577579,0.0-46.0-4.0-1.0-0.0,,,,,,,,,,,,,,,5a8a8de6000dab00018cc170,15:31:20,03/04/2024
1030.0,,,ospan,symmetry,yAOFFOD1MNYt03vth6CYlTVNE2r1,symmetry-judgement-task,122,579722,0.0-46.0-4.0-1.0-1.0-0.0,,,,,,,,,,1.0,1.0,,,,5a8a8de6000dab00018cc170,15:31:20,03/04/2024
,"<div style=""font-size: 10rem; color: #0000FF"">C</div>",,ospan,letter,yAOFFOD1MNYt03vth6CYlTVNE2r1,html-keyboard-response,123,580730,0.0-46.0-4.0-1.0-1.0-1.0,,,,,,,,,,,,,,,5a8a8de6000dab00018cc170,15:31:20,03/04/2024
908.0,,,ospan,symmetry,yAOFFOD1MNYt03vth6CYlTVNE2r1,symmetry-judgement-task,124,583482,0.0-46.0-4.0-1.0-1.0-2.0,,,,,,,,,,1.0,1.0,,,,5a8a8de6000dab00018cc170,15:31:20,03/04/2024
,"<div style=""font-size: 10rem; color: #0000FF"">Q</div>",,ospan,letter,yAOFFOD1MNYt03vth6CYlTVNE2r1,html-keyboard-response,125,584491,0.0-46.0-4.0-1.0-1.0-3.0,,,,,,,,,,,,,,,5a8a8de6000dab00018cc170,15:31:20,03/04/2024
1627.0,,,ospan,symmetry,yAOFFOD1MNYt03vth6CYlTVNE2r1,symmetry-judgement-task,126,587978,0.0-46.0-4.0-1.0-1.0-4.0,,,,,,,,,,1.0,1.0,,,,5a8a8de6000dab00018cc170,15:31:20,03/04/2024
,"<div style=""font-size: 10rem; color: #0000FF"">P</div>",,ospan,letter,yAOFFOD1MNYt03vth6CYlTVNE2r1,html-keyboard-response,127,588986,0.0-46.0-4.0-1.0-1.0-5.0,,,,,,,,,,,,,,,5a8a8de6000dab00018cc170,15:31:20,03/04/2024
780.0,,,ospan,symmetry,yAOFFOD1MNYt03vth6CYlTVNE2r1,symmetry-judgement-task,128,591611,0.0-46.0-4.0-1.0-1.0-6.0,,,,,,,,,,1.0,1.0,,,,5a8a8de6000dab00018cc170,15:31:20,03/04/2024
,"<div style=""font-size: 10rem; color: #0000FF"">N</div>",,ospan,letter,yAOFFOD1MNYt03vth6CYlTVNE2r1,html-keyboard-response,129,592618,0.0-46.0-4.0-1.0-1.0-7.0,,,,,,,,,,,,,,,5a8a8de6000dab00018cc170,15:31:20,03/04/2024
1291.0,,,ospan,symmetry,yAOFFOD1MNYt03vth6CYlTVNE2r1,symmetry-judgement-task,130,595770,0.0-46.0-4.0-1.0-1.0-8.0,,,,,,,,,,1.0,1.0,,,,5a8a8de6000dab00018cc170,15:31:20,03/04/2024
,"<div style=""font-size: 10rem; color: #0000FF"">S</div>",,ospan,letter,yAOFFOD1MNYt03vth6CYlTVNE2r1,html-keyboard-response,131,596779,0.0-46.0-4.0-1.0-1.0-9.0,,,,,,,,,,,,,,,5a8a8de6000dab00018cc170,15:31:20,03/04/2024
6690.099999904633,"<div class = numbox><p style=""font-size: 2.4rem"">Please recall the letters you saw to the best of your ability. If you do not remember a particular letter, use the SKIP button.<br><b>(When you are ready to lock in your answer, press ENTER)</b></p><button id = button_1 class = ""square num-button"" onclick = ""recordClick(this)""><div class = content><div class = numbers>C</div></div></button><button id = button_2 class = ""square num-button"" onclick = ""recordClick(this)""><div class = content><div class = numbers>G</div></div></button><button id = button_3 class = ""square num-button"" onclick = ""recordClick(this)""><div class = content><div class = numbers>H</div></div></button><button id = button_4 class = ""square num-button"" onclick = ""recordClick(this)""><div class = content><div class = numbers>J</div></div></button><button id = button_5 class = ""square num-button"" onclick = ""recordClick(this)""><div class = content><div class = numbers>K</div></div></button><button id = button_6 class = ""square num-button"" onclick = ""recordClick(this)""><div class = content><div class = numbers>L</div></div></button><button id = button_7 class = ""square num-button"" onclick = ""recordClick(this)""><div class = content><div class = numbers>N</div></div></button><button id = button_8 class = ""square num-button"" onclick = ""recordClick(this)""><div class = content><div class = numbers>P</div></div></button><button id = button_9 class = ""square num-button"" onclick = ""recordClick(this)""><div class = content><div class = numbers>Q</div></div></button><button id = button_10 class = ""square num-button"" onclick = ""recordClick(this)""><div class = content><div class = numbers>R</div></div></button><button id = button_11 class = ""square num-button"" onclick = ""recordClick(this)""><div class = content><div class = numbers>S</div></div></button><button id = button_12 class = ""square num-button"" onclick = ""recordClick(this)""><div class = content><div class = numbers>Y</div></div></button><button class = clear_button id = ""ClearButton"" onclick = ""clearResponse()"">BACKSPACE</button><button class = blank_button id = ""BlankButton"" onclick = ""blankResponse()"">SKIP</button><p style=""font-size: 2.4rem""><u><b>Current Answer:</b></u></p><br><br><div id=echoed_txt style=""font-size: 5rem; color:blue;""><b></b></div></div>",enter,ospan,retrieval,yAOFFOD1MNYt03vth6CYlTVNE2r1,html-keyboard-response,132,604221,0.0-46.0-4.0-1.0-2.0,12,12,12,5.0,"[""C"",""Q"",""P"",""N"",""S""]","[""C"",""Q"",""P"",""N"",""S""]",1.0,5.0,,,,,,,5a8a8de6000dab00018cc170,15:31:20,03/04/2024
835.0999999046326,[''],0,ospan,feedback,yAOFFOD1MNYt03vth6CYlTVNE2r1,html-button-response,133,605567,0.0-46.0-4.0-1.0-3.0,,,,,,,,,,,,100.0,0.0,,5a8a8de6000dab00018cc170,15:31:20,03/04/2024
,"<p style=""font-size:75px;"">...</p>",,ospan,iti,yAOFFOD1MNYt03vth6CYlTVNE2r1,html-keyboard-response,134,606570,0.0-46.0-4.0-2.0-0.0,,,,,,,,,,,,,,,5a8a8de6000dab00018cc170,15:31:20,03/04/2024
1097.0,,,ospan,symmetry,yAOFFOD1MNYt03vth6CYlTVNE2r1,symmetry-judgement-task,135,608763,0.0-46.0-4.0-2.0-1.0-0.0,,,,,,,,,,1.0,1.0,,,,5a8a8de6000dab00018cc170,15:31:20,03/04/2024
,"<div style=""font-size: 10rem; color: #0000FF"">J</div>",,ospan,letter,yAOFFOD1MNYt03vth6CYlTVNE2r1,html-keyboard-response,136,609770,0.0-46.0-4.0-2.0-1.0-1.0,,,,,,,,,,,,,,,5a8a8de6000dab00018cc170,15:31:20,03/04/2024
1189.0,,,ospan,symmetry,yAOFFOD1MNYt03vth6CYlTVNE2r1,symmetry-judgement-task,137,612811,0.0-46.0-4.0-2.0-1.0-2.0,,,,,,,,,,1.0,1.0,,,,5a8a8de6000dab00018cc170,15:31:20,03/04/2024
,"<div style=""font-size: 10rem; color: #0000FF"">S</div>",,ospan,letter,yAOFFOD1MNYt03vth6CYlTVNE2r1,html-keyboard-response,138,613818,0.0-46.0-4.0-2.0-1.0-3.0,,,,,,,,,,,,,,,5a8a8de6000dab00018cc170,15:31:20,03/04/2024
955.0,,,ospan,symmetry,yAOFFOD1MNYt03vth6CYlTVNE2r1,symmetry-judgement-task,139,616635,0.0-46.0-4.0-2.0-1.0-4.0,,,,,,,,,,1.0,1.0,,,,5a8a8de6000dab00018cc170,15:31:20,03/04/2024
,"<div style=""font-size: 10rem; color: #0000FF"">N</div>",,ospan,letter,yAOFFOD1MNYt03vth6CYlTVNE2r1,html-keyboard-response,140,617642,0.0-46.0-4.0-2.0-1.0-5.0,,,,,,,,,,,,,,,5a8a8de6000dab00018cc170,15:31:20,03/04/2024
4954.700000286102,"<div class = numbox><p style=""font-size: 2.4rem"">Please recall the letters you saw to the best of your ability. If you do not remember a particular letter, use the SKIP button.<br><b>(When you are ready to lock in your answer, press ENTER)</b></p><button id = button_1 class = ""square num-button"" onclick = ""recordClick(this)""><div class = content><div class = numbers>C</div></div></button><button id = button_2 class = ""square num-button"" onclick = ""recordClick(this)""><div class = content><div class = numbers>G</div></div></button><button id = button_3 class = ""square num-button"" onclick = ""recordClick(this)""><div class = content><div class = numbers>H</div></div></button><button id = button_4 class = ""square num-button"" onclick = ""recordClick(this)""><div class = content><div class = numbers>J</div></div></button><button id = button_5 class = ""square num-button"" onclick = ""recordClick(this)""><div class = content><div class = numbers>K</div></div></button><button id = button_6 class = ""square num-button"" onclick = ""recordClick(this)""><div class = content><div class = numbers>L</div></div></button><button id = button_7 class = ""square num-button"" onclick = ""recordClick(this)""><div class = content><div class = numbers>N</div></div></button><button id = button_8 class = ""square num-button"" onclick = ""recordClick(this)""><div class = content><div class = numbers>P</div></div></button><button id = button_9 class = ""square num-button"" onclick = ""recordClick(this)""><div class = content><div class = numbers>Q</div></div></button><button id = button_10 class = ""square num-button"" onclick = ""recordClick(this)""><div class = content><div class = numbers>R</div></div></button><button id = button_11 class = ""square num-button"" onclick = ""recordClick(this)""><div class = content><div class = numbers>S</div></div></button><button id = button_12 class = ""square num-button"" onclick = ""recordClick(this)""><div class = content><div class = numbers>Y</div></div></button><button class = clear_button id = ""ClearButton"" onclick = ""clearResponse()"">BACKSPACE</button><button class = blank_button id = ""BlankButton"" onclick = ""blankResponse()"">SKIP</button><p style=""font-size: 2.4rem""><u><b>Current Answer:</b></u></p><br><br><div id=echoed_txt style=""font-size: 5rem; color:blue;""><b></b></div></div>",enter,ospan,retrieval,yAOFFOD1MNYt03vth6CYlTVNE2r1,html-keyboard-response,141,623349,0.0-46.0-4.0-2.0-2.0,15,15,15,3.0,"[""J"",""S"",""N""]","[""J"",""S"",""N""]",1.0,3.0,,,,,,,5a8a8de6000dab00018cc170,15:31:20,03/04/2024
843.0,[''],0,ospan,feedback,yAOFFOD1MNYt03vth6CYlTVNE2r1,html-button-response,142,624694,0.0-46.0-4.0-2.0-3.0,,,,,,,,,,,,100.0,0.0,,5a8a8de6000dab00018cc170,15:31:20,03/04/2024
,"<p style=""font-size:75px;"">...</p>",,ospan,iti,yAOFFOD1MNYt03vth6CYlTVNE2r1,html-keyboard-response,143,625706,0.0-46.0-5.0-0.0-0.0,,,,,,,,,,,,,,,5a8a8de6000dab00018cc170,15:31:20,03/04/2024
1088.0,,,ospan,symmetry,yAOFFOD1MNYt03vth6CYlTVNE2r1,symmetry-judgement-task,144,627898,0.0-46.0-5.0-0.0-1.0-0.0,,,,,,,,,,1.0,1.0,,,,5a8a8de6000dab00018cc170,15:31:20,03/04/2024
,"<div style=""font-size: 10rem; color: #0000FF"">Y</div>",,ospan,letter,yAOFFOD1MNYt03vth6CYlTVNE2r1,html-keyboard-response,145,628907,0.0-46.0-5.0-0.0-1.0-1.0,,,,,,,,,,,,,,,5a8a8de6000dab00018cc170,15:31:20,03/04/2024
1613.0,,,ospan,symmetry,yAOFFOD1MNYt03vth6CYlTVNE2r1,symmetry-judgement-task,146,632379,0.0-46.0-5.0-0.0-1.0-2.0,,,,,,,,,,1.0,1.0,,,,5a8a8de6000dab00018cc170,15:31:20,03/04/2024
,"<div style=""font-size: 10rem; color: #0000FF"">J</div>",,ospan,letter,yAOFFOD1MNYt03vth6CYlTVNE2r1,html-keyboard-response,147,633387,0.0-46.0-5.0-0.0-1.0-3.0,,,,,,,,,,,,,,,5a8a8de6000dab00018cc170,15:31:20,03/04/2024
1106.0,,,ospan,symmetry,yAOFFOD1MNYt03vth6CYlTVNE2r1,symmetry-judgement-task,148,636346,0.0-46.0-5.0-0.0-1.0-4.0,,,,,,,,,,1.0,1.0,,,,5a8a8de6000dab00018cc170,15:31:20,03/04/2024
,"<div style=""font-size: 10rem; color: #0000FF"">K</div>",,ospan,letter,yAOFFOD1MNYt03vth6CYlTVNE2r1,html-keyboard-response,149,637355,0.0-46.0-5.0-0.0-1.0-5.0,,,,,,,,,,,,,,,5a8a8de6000dab00018cc170,15:31:20,03/04/2024
1052.0,,,ospan,symmetry,yAOFFOD1MNYt03vth6CYlTVNE2r1,symmetry-judgement-task,150,640267,0.0-46.0-5.0-0.0-1.0-6.0,,,,,,,,,,1.0,1.0,,,,5a8a8de6000dab00018cc170,15:31:20,03/04/2024
,"<div style=""font-size: 10rem; color: #0000FF"">Q</div>",,ospan,letter,yAOFFOD1MNYt03vth6CYlTVNE2r1,html-keyboard-response,151,641275,0.0-46.0-5.0-0.0-1.0-7.0,,,,,,,,,,,,,,,5a8a8de6000dab00018cc170,15:31:20,03/04/2024
1658.0,,,ospan,symmetry,yAOFFOD1MNYt03vth6CYlTVNE2r1,symmetry-judgement-task,152,644794,0.0-46.0-5.0-0.0-1.0-8.0,,,,,,,,,,1.0,1.0,,,,5a8a8de6000dab00018cc170,15:31:20,03/04/2024
,"<div style=""font-size: 10rem; color: #0000FF"">C</div>",,ospan,letter,yAOFFOD1MNYt03vth6CYlTVNE2r1,html-keyboard-response,153,645803,0.0-46.0-5.0-0.0-1.0-9.0,,,,,,,,,,,,,,,5a8a8de6000dab00018cc170,15:31:20,03/04/2024
995.0,,,ospan,symmetry,yAOFFOD1MNYt03vth6CYlTVNE2r1,symmetry-judgement-task,154,648651,0.0-46.0-5.0-0.0-1.0-10.0,,,,,,,,,,1.0,1.0,,,,5a8a8de6000dab00018cc170,15:31:20,03/04/2024
,"<div style=""font-size: 10rem; color: #0000FF"">N</div>",,ospan,letter,yAOFFOD1MNYt03vth6CYlTVNE2r1,html-keyboard-response,155,649658,0.0-46.0-5.0-0.0-1.0-11.0,,,,,,,,,,,,,,,5a8a8de6000dab00018cc170,15:31:20,03/04/2024
9234.199999809265,"<div class = numbox><p style=""font-size: 2.4rem"">Please recall the letters you saw to the best of your ability. If you do not remember a particular letter, use the SKIP button.<br><b>(When you are ready to lock in your answer, press ENTER)</b></p><button id = button_1 class = ""square num-button"" onclick = ""recordClick(this)""><div class = content><div class = numbers>C</div></div></button><button id = button_2 class = ""square num-button"" onclick = ""recordClick(this)""><div class = content><div class = numbers>G</div></div></button><button id = button_3 class = ""square num-button"" onclick = ""recordClick(this)""><div class = content><div class = numbers>H</div></div></button><button id = button_4 class = ""square num-button"" onclick = ""recordClick(this)""><div class = content><div class = numbers>J</div></div></button><button id = button_5 class = ""square num-button"" onclick = ""recordClick(this)""><div class = content><div class = numbers>K</div></div></button><button id = button_6 class = ""square num-button"" onclick = ""recordClick(this)""><div class = content><div class = numbers>L</div></div></button><button id = button_7 class = ""square num-button"" onclick = ""recordClick(this)""><div class = content><div class = numbers>N</div></div></button><button id = button_8 class = ""square num-button"" onclick = ""recordClick(this)""><div class = content><div class = numbers>P</div></div></button><button id = button_9 class = ""square num-button"" onclick = ""recordClick(this)""><div class = content><div class = numbers>Q</div></div></button><button id = button_10 class = ""square num-button"" onclick = ""recordClick(this)""><div class = content><div class = numbers>R</div></div></button><button id = button_11 class = ""square num-button"" onclick = ""recordClick(this)""><div class = content><div class = numbers>S</div></div></button><button id = button_12 class = ""square num-button"" onclick = ""recordClick(this)""><div class = content><div class = numbers>Y</div></div></button><button class = clear_button id = ""ClearButton"" onclick = ""clearResponse()"">BACKSPACE</button><button class = blank_button id = ""BlankButton"" onclick = ""blankResponse()"">SKIP</button><p style=""font-size: 2.4rem""><u><b>Current Answer:</b></u></p><br><br><div id=echoed_txt style=""font-size: 5rem; color:blue;""><b></b></div></div>",enter,ospan,retrieval,yAOFFOD1MNYt03vth6CYlTVNE2r1,html-keyboard-response,156,659645,0.0-46.0-5.0-0.0-2.0,21,21,21,6.0,"[""Y"",""J"",""K"",""Q"",""C"",""N""]","[""Y"",""J"",""K"",""Q"",""C"",""N""]",1.0,6.0,,,,,,,5a8a8de6000dab00018cc170,15:31:20,03/04/2024
3667.0,[''],0,ospan,feedback,yAOFFOD1MNYt03vth6CYlTVNE2r1,html-button-response,157,663822,0.0-46.0-5.0-0.0-3.0,,,,,,,,,,,,100.0,0.0,,5a8a8de6000dab00018cc170,15:31:20,03/04/2024
,"<p style=""font-size:75px;"">...</p>",,ospan,iti,yAOFFOD1MNYt03vth6CYlTVNE2r1,html-keyboard-response,158,664827,0.0-46.0-5.0-1.0-0.0,,,,,,,,,,,,,,,5a8a8de6000dab00018cc170,15:31:20,03/04/2024
1272.0,,,ospan,symmetry,yAOFFOD1MNYt03vth6CYlTVNE2r1,symmetry-judgement-task,159,667130,0.0-46.0-5.0-1.0-1.0-0.0,,,,,,,,,,1.0,1.0,,,,5a8a8de6000dab00018cc170,15:31:20,03/04/2024
,"<div style=""font-size: 10rem; color: #0000FF"">R</div>",,ospan,letter,yAOFFOD1MNYt03vth6CYlTVNE2r1,html-keyboard-response,160,668138,0.0-46.0-5.0-1.0-1.0-1.0,,,,,,,,,,,,,,,5a8a8de6000dab00018cc170,15:31:20,03/04/2024
744.0,,,ospan,symmetry,yAOFFOD1MNYt03vth6CYlTVNE2r1,symmetry-judgement-task,161,670731,0.0-46.0-5.0-1.0-1.0-2.0,,,,,,,,,,1.0,1.0,,,,5a8a8de6000dab00018cc170,15:31:20,03/04/2024
,"<div style=""font-size: 10rem; color: #0000FF"">Q</div>",,ospan,letter,yAOFFOD1MNYt03vth6CYlTVNE2r1,html-keyboard-response,162,671738,0.0-46.0-5.0-1.0-1.0-3.0,,,,,,,,,,,,,,,5a8a8de6000dab00018cc170,15:31:20,03/04/2024
1122.0,,,ospan,symmetry,yAOFFOD1MNYt03vth6CYlTVNE2r1,symmetry-judgement-task,163,674714,0.0-46.0-5.0-1.0-1.0-4.0,,,,,,,,,,1.0,1.0,,,,5a8a8de6000dab00018cc170,15:31:20,03/04/2024
,"<div style=""font-size: 10rem; color: #0000FF"">H</div>",,ospan,letter,yAOFFOD1MNYt03vth6CYlTVNE2r1,html-keyboard-response,164,675722,0.0-46.0-5.0-1.0-1.0-5.0,,,,,,,,,,,,,,,5a8a8de6000dab00018cc170,15:31:20,03/04/2024
1094.0,,,ospan,symmetry,yAOFFOD1MNYt03vth6CYlTVNE2r1,symmetry-judgement-task,165,678667,0.0-46.0-5.0-1.0-1.0-6.0,,,,,,,,,,1.0,1.0,,,,5a8a8de6000dab00018cc170,15:31:20,03/04/2024
,"<div style=""font-size: 10rem; color: #0000FF"">C</div>",,ospan,letter,yAOFFOD1MNYt03vth6CYlTVNE2r1,html-keyboard-response,166,679675,0.0-46.0-5.0-1.0-1.0-7.0,,,,,,,,,,,,,,,5a8a8de6000dab00018cc170,15:31:20,03/04/2024
809.0,,,ospan,symmetry,yAOFFOD1MNYt03vth6CYlTVNE2r1,symmetry-judgement-task,167,682347,0.0-46.0-5.0-1.0-1.0-8.0,,,,,,,,,,1.0,1.0,,,,5a8a8de6000dab00018cc170,15:31:20,03/04/2024
,"<div style=""font-size: 10rem; color: #0000FF"">L</div>",,ospan,letter,yAOFFOD1MNYt03vth6CYlTVNE2r1,html-keyboard-response,168,683355,0.0-46.0-5.0-1.0-1.0-9.0,,,,,,,,,,,,,,,5a8a8de6000dab00018cc170,15:31:20,03/04/2024
824.0,,,ospan,symmetry,yAOFFOD1MNYt03vth6CYlTVNE2r1,symmetry-judgement-task,169,686027,0.0-46.0-5.0-1.0-1.0-10.0,,,,,,,,,,1.0,1.0,,,,5a8a8de6000dab00018cc170,15:31:20,03/04/2024
,"<div style=""font-size: 10rem; color: #0000FF"">P</div>",,ospan,letter,yAOFFOD1MNYt03vth6CYlTVNE2r1,html-keyboard-response,170,687034,0.0-46.0-5.0-1.0-1.0-11.0,,,,,,,,,,,,,,,5a8a8de6000dab00018cc170,15:31:20,03/04/2024
998.0,,,ospan,symmetry,yAOFFOD1MNYt03vth6CYlTVNE2r1,symmetry-judgement-task,171,689883,0.0-46.0-5.0-1.0-1.0-12.0,,,,,,,,,,1.0,1.0,,,,5a8a8de6000dab00018cc170,15:31:20,03/04/2024
,"<div style=""font-size: 10rem; color: #0000FF"">S</div>",,ospan,letter,yAOFFOD1MNYt03vth6CYlTVNE2r1,html-keyboard-response,172,690890,0.0-46.0-5.0-1.0-1.0-13.0,,,,,,,,,,,,,,,5a8a8de6000dab00018cc170,15:31:20,03/04/2024
8010.200000286102,"<div class = numbox><p style=""font-size: 2.4rem"">Please recall the letters you saw to the best of your ability. If you do not remember a particular letter, use the SKIP button.<br><b>(When you are ready to lock in your answer, press ENTER)</b></p><button id = button_1 class = ""square num-button"" onclick = ""recordClick(this)""><div class = content><div class = numbers>C</div></div></button><button id = button_2 class = ""square num-button"" onclick = ""recordClick(this)""><div class = content><div class = numbers>G</div></div></button><button id = button_3 class = ""square num-button"" onclick = ""recordClick(this)""><div class = content><div class = numbers>H</div></div></button><button id = button_4 class = ""square num-button"" onclick = ""recordClick(this)""><div class = content><div class = numbers>J</div></div></button><button id = button_5 class = ""square num-button"" onclick = ""recordClick(this)""><div class = content><div class = numbers>K</div></div></button><button id = button_6 class = ""square num-button"" onclick = ""recordClick(this)""><div class = content><div class = numbers>L</div></div></button><button id = button_7 class = ""square num-button"" onclick = ""recordClick(this)""><div class = content><div class = numbers>N</div></div></button><button id = button_8 class = ""square num-button"" onclick = ""recordClick(this)""><div class = content><div class = numbers>P</div></div></button><button id = button_9 class = ""square num-button"" onclick = ""recordClick(this)""><div class = content><div class = numbers>Q</div></div></button><button id = button_10 class = ""square num-button"" onclick = ""recordClick(this)""><div class = content><div class = numbers>R</div></div></button><button id = button_11 class = ""square num-button"" onclick = ""recordClick(this)""><div class = content><div class = numbers>S</div></div></button><button id = button_12 class = ""square num-button"" onclick = ""recordClick(this)""><div class = content><div class = numbers>Y</div></div></button><button class = clear_button id = ""ClearButton"" onclick = ""clearResponse()"">BACKSPACE</button><button class = blank_button id = ""BlankButton"" onclick = ""blankResponse()"">SKIP</button><p style=""font-size: 2.4rem""><u><b>Current Answer:</b></u></p><br><br><div id=echoed_txt style=""font-size: 5rem; color:blue;""><b></b></div></div>",enter,ospan,retrieval,yAOFFOD1MNYt03vth6CYlTVNE2r1,html-keyboard-response,173,699653,0.0-46.0-5.0-1.0-2.0,28,28,28,7.0,"[""R"",""Q"",""H"",""C"",""L"",""P"",""S""]","[""R"",""Q"",""H"",""C"",""L"",""P"",""S""]",1.0,7.0,,,,,,,5a8a8de6000dab00018cc170,15:31:20,03/04/2024
3923.2000002861023,[''],0,ospan,feedback,yAOFFOD1MNYt03vth6CYlTVNE2r1,html-button-response,174,704078,0.0-46.0-5.0-1.0-3.0,,,,,,,,,,,,100.0,0.0,,5a8a8de6000dab00018cc170,15:31:20,03/04/2024
,"<p style=""font-size:75px;"">...</p>",,ospan,iti,yAOFFOD1MNYt03vth6CYlTVNE2r1,html-keyboard-response,175,705083,0.0-46.0-6.0-0.0-0.0,,,,,,,,,,,,,,,5a8a8de6000dab00018cc170,15:31:20,03/04/2024
1212.0,,,ospan,symmetry,yAOFFOD1MNYt03vth6CYlTVNE2r1,symmetry-judgement-task,176,707402,0.0-46.0-6.0-0.0-1.0-0.0,,,,,,,,,,1.0,1.0,,,,5a8a8de6000dab00018cc170,15:31:20,03/04/2024
,"<div style=""font-size: 10rem; color: #0000FF"">R</div>",,ospan,letter,yAOFFOD1MNYt03vth6CYlTVNE2r1,html-keyboard-response,177,708410,0.0-46.0-6.0-0.0-1.0-1.0,,,,,,,,,,,,,,,5a8a8de6000dab00018cc170,15:31:20,03/04/2024
1388.0,,,ospan,symmetry,yAOFFOD1MNYt03vth6CYlTVNE2r1,symmetry-judgement-task,178,711642,0.0-46.0-6.0-0.0-1.0-2.0,,,,,,,,,,1.0,1.0,,,,5a8a8de6000dab00018cc170,15:31:20,03/04/2024
,"<div style=""font-size: 10rem; color: #0000FF"">Y</div>",,ospan,letter,yAOFFOD1MNYt03vth6CYlTVNE2r1,html-keyboard-response,179,712651,0.0-46.0-6.0-0.0-1.0-3.0,,,,,,,,,,,,,,,5a8a8de6000dab00018cc170,15:31:20,03/04/2024
875.0,,,ospan,symmetry,yAOFFOD1MNYt03vth6CYlTVNE2r1,symmetry-judgement-task,180,715387,0.0-46.0-6.0-0.0-1.0-4.0,,,,,,,,,,1.0,1.0,,,,5a8a8de6000dab00018cc170,15:31:20,03/04/2024
,"<div style=""font-size: 10rem; color: #0000FF"">P</div>",,ospan,letter,yAOFFOD1MNYt03vth6CYlTVNE2r1,html-keyboard-response,181,716394,0.0-46.0-6.0-0.0-1.0-5.0,,,,,,,,,,,,,,,5a8a8de6000dab00018cc170,15:31:20,03/04/2024
1957.0,,,ospan,symmetry,yAOFFOD1MNYt03vth6CYlTVNE2r1,symmetry-judgement-task,182,720203,0.0-46.0-6.0-0.0-1.0-6.0,,,,,,,,,,1.0,1.0,,,,5a8a8de6000dab00018cc170,15:31:20,03/04/2024
,"<div style=""font-size: 10rem; color: #0000FF"">L</div>",,ospan,letter,yAOFFOD1MNYt03vth6CYlTVNE2r1,html-keyboard-response,183,721211,0.0-46.0-6.0-0.0-1.0-7.0,,,,,,,,,,,,,,,5a8a8de6000dab00018cc170,15:31:20,03/04/2024
1278.0,,,ospan,symmetry,yAOFFOD1MNYt03vth6CYlTVNE2r1,symmetry-judgement-task,184,724346,0.0-46.0-6.0-0.0-1.0-8.0,,,,,,,,,,1.0,1.0,,,,5a8a8de6000dab00018cc170,15:31:20,03/04/2024
,"<div style=""font-size: 10rem; color: #0000FF"">S</div>",,ospan,letter,yAOFFOD1MNYt03vth6CYlTVNE2r1,html-keyboard-response,185,725354,0.0-46.0-6.0-0.0-1.0-9.0,,,,,,,,,,,,,,,5a8a8de6000dab00018cc170,15:31:20,03/04/2024
5914.299999713898,"<div class = numbox><p style=""font-size: 2.4rem"">Please recall the letters you saw to the best of your ability. If you do not remember a particular letter, use the SKIP button.<br><b>(When you are ready to lock in your answer, press ENTER)</b></p><button id = button_1 class = ""square num-button"" onclick = ""recordClick(this)""><div class = content><div class = numbers>C</div></div></button><button id = button_2 class = ""square num-button"" onclick = ""recordClick(this)""><div class = content><div class = numbers>G</div></div></button><button id = button_3 class = ""square num-button"" onclick = ""recordClick(this)""><div class = content><div class = numbers>H</div></div></button><button id = button_4 class = ""square num-button"" onclick = ""recordClick(this)""><div class = content><div class = numbers>J</div></div></button><button id = button_5 class = ""square num-button"" onclick = ""recordClick(this)""><div class = content><div class = numbers>K</div></div></button><button id = button_6 class = ""square num-button"" onclick = ""recordClick(this)""><div class = content><div class = numbers>L</div></div></button><button id = button_7 class = ""square num-button"" onclick = ""recordClick(this)""><div class = content><div class = numbers>N</div></div></button><button id = button_8 class = ""square num-button"" onclick = ""recordClick(this)""><div class = content><div class = numbers>P</div></div></button><button id = button_9 class = ""square num-button"" onclick = ""recordClick(this)""><div class = content><div class = numbers>Q</div></div></button><button id = button_10 class = ""square num-button"" onclick = ""recordClick(this)""><div class = content><div class = numbers>R</div></div></button><button id = button_11 class = ""square num-button"" onclick = ""recordClick(this)""><div class = content><div class = numbers>S</div></div></button><button id = button_12 class = ""square num-button"" onclick = ""recordClick(this)""><div class = content><div class = numbers>Y</div></div></button><button class = clear_button id = ""ClearButton"" onclick = ""clearResponse()"">BACKSPACE</button><button class = blank_button id = ""BlankButton"" onclick = ""blankResponse()"">SKIP</button><p style=""font-size: 2.4rem""><u><b>Current Answer:</b></u></p><br><br><div id=echoed_txt style=""font-size: 5rem; color:blue;""><b></b></div></div>",enter,ospan,retrieval,yAOFFOD1MNYt03vth6CYlTVNE2r1,html-keyboard-response,186,732021,0.0-46.0-6.0-0.0-2.0,33,33,33,5.0,"[""R"",""Y"",""P"",""L"",""S""]","[""R"",""Y"",""P"",""L"",""S""]",1.0,5.0,,,,,,,5a8a8de6000dab00018cc170,15:31:20,03/04/2024
891.0,[''],0,ospan,feedback,yAOFFOD1MNYt03vth6CYlTVNE2r1,html-button-response,187,733414,0.0-46.0-6.0-0.0-3.0,,,,,,,,,,,,100.0,0.0,,5a8a8de6000dab00018cc170,15:31:20,03/04/2024
,"<p style=""font-size:75px;"">...</p>",,ospan,iti,yAOFFOD1MNYt03vth6CYlTVNE2r1,html-keyboard-response,188,734427,0.0-46.0-6.0-1.0-0.0,,,,,,,,,,,,,,,5a8a8de6000dab00018cc170,15:31:20,03/04/2024
1427.0,,,ospan,symmetry,yAOFFOD1MNYt03vth6CYlTVNE2r1,symmetry-judgement-task,189,736955,0.0-46.0-6.0-1.0-1.0-0.0,,,,,,,,,,1.0,1.0,,,,5a8a8de6000dab00018cc170,15:31:20,03/04/2024
,"<div style=""font-size: 10rem; color: #0000FF"">N</div>",,ospan,letter,yAOFFOD1MNYt03vth6CYlTVNE2r1,html-keyboard-response,190,737963,0.0-46.0-6.0-1.0-1.0-1.0,,,,,,,,,,,,,,,5a8a8de6000dab00018cc170,15:31:20,03/04/2024
1076.0,,,ospan,symmetry,yAOFFOD1MNYt03vth6CYlTVNE2r1,symmetry-judgement-task,191,740891,0.0-46.0-6.0-1.0-1.0-2.0,,,,,,,,,,1.0,1.0,,,,5a8a8de6000dab00018cc170,15:31:20,03/04/2024
,"<div style=""font-size: 10rem; color: #0000FF"">P</div>",,ospan,letter,yAOFFOD1MNYt03vth6CYlTVNE2r1,html-keyboard-response,192,741899,0.0-46.0-6.0-1.0-1.0-3.0,,,,,,,,,,,,,,,5a8a8de6000dab00018cc170,15:31:20,03/04/2024
1914.0,,,ospan,symmetry,yAOFFOD1MNYt03vth6CYlTVNE2r1,symmetry-judgement-task,193,745658,0.0-46.0-6.0-1.0-1.0-4.0,,,,,,,,,,1.0,1.0,,,,5a8a8de6000dab00018cc170,15:31:20,03/04/2024
,"<div style=""font-size: 10rem; color: #0000FF"">L</div>",,ospan,letter,yAOFFOD1MNYt03vth6CYlTVNE2r1,html-keyboard-response,194,746666,0.0-46.0-6.0-1.0-1.0-5.0,,,,,,,,,,,,,,,5a8a8de6000dab00018cc170,15:31:20,03/04/2024
1524.0,,,ospan,symmetry,yAOFFOD1MNYt03vth6CYlTVNE2r1,symmetry-judgement-task,195,750042,0.0-46.0-6.0-1.0-1.0-6.0,,,,,,,,,,1.0,1.0,,,,5a8a8de6000dab00018cc170,15:31:20,03/04/2024
,"<div style=""font-size: 10rem; color: #0000FF"">G</div>",,ospan,letter,yAOFFOD1MNYt03vth6CYlTVNE2r1,html-keyboard-response,196,751050,0.0-46.0-6.0-1.0-1.0-7.0,,,,,,,,,,,,,,,5a8a8de6000dab00018cc170,15:31:20,03/04/2024
977.0,,,ospan,symmetry,yAOFFOD1MNYt03vth6CYlTVNE2r1,symmetry-judgement-task,197,753882,0.0-46.0-6.0-1.0-1.0-8.0,,,,,,,,,,1.0,1.0,,,,5a8a8de6000dab00018cc170,15:31:20,03/04/2024
,"<div style=""font-size: 10rem; color: #0000FF"">Q</div>",,ospan,letter,yAOFFOD1MNYt03vth6CYlTVNE2r1,html-keyboard-response,198,754890,0.0-46.0-6.0-1.0-1.0-9.0,,,,,,,,,,,,,,,5a8a8de6000dab00018cc170,15:31:20,03/04/2024
1036.0,,,ospan,symmetry,yAOFFOD1MNYt03vth6CYlTVNE2r1,symmetry-judgement-task,199,757786,0.0-46.0-6.0-1.0-1.0-10.0,,,,,,,,,,1.0,1.0,,,,5a8a8de6000dab00018cc170,15:31:20,03/04/2024
,"<div style=""font-size: 10rem; color: #0000FF"">H</div>",,ospan,letter,yAOFFOD1MNYt03vth6CYlTVNE2r1,html-keyboard-response,200,758794,0.0-46.0-6.0-1.0-1.0-11.0,,,,,,,,,,,,,,,5a8a8de6000dab00018cc170,15:31:20,03/04/2024
953.0,,,ospan,symmetry,yAOFFOD1MNYt03vth6CYlTVNE2r1,symmetry-judgement-task,201,761610,0.0-46.0-6.0-1.0-1.0-12.0,,,,,,,,,,1.0,1.0,,,,5a8a8de6000dab00018cc170,15:31:20,03/04/2024
,"<div style=""font-size: 10rem; color: #0000FF"">J</div>",,ospan,letter,yAOFFOD1MNYt03vth6CYlTVNE2r1,html-keyboard-response,202,762618,0.0-46.0-6.0-1.0-1.0-13.0,,,,,,,,,,,,,,,5a8a8de6000dab00018cc170,15:31:20,03/04/2024
1067.0,,,ospan,symmetry,yAOFFOD1MNYt03vth6CYlTVNE2r1,symmetry-judgement-task,203,765530,0.0-46.0-6.0-1.0-1.0-14.0,,,,,,,,,,1.0,1.0,,,,5a8a8de6000dab00018cc170,15:31:20,03/04/2024
,"<div style=""font-size: 10rem; color: #0000FF"">Y</div>",,ospan,letter,yAOFFOD1MNYt03vth6CYlTVNE2r1,html-keyboard-response,204,766538,0.0-46.0-6.0-1.0-1.0-15.0,,,,,,,,,,,,,,,5a8a8de6000dab00018cc170,15:31:20,03/04/2024
24505.799999713898,"<div class = numbox><p style=""font-size: 2.4rem"">Please recall the letters you saw to the best of your ability. If you do not remember a particular letter, use the SKIP button.<br><b>(When you are ready to lock in your answer, press ENTER)</b></p><button id = button_1 class = ""square num-button"" onclick = ""recordClick(this)""><div class = content><div class = numbers>C</div></div></button><button id = button_2 class = ""square num-button"" onclick = ""recordClick(this)""><div class = content><div class = numbers>G</div></div></button><button id = button_3 class = ""square num-button"" onclick = ""recordClick(this)""><div class = content><div class = numbers>H</div></div></button><button id = button_4 class = ""square num-button"" onclick = ""recordClick(this)""><div class = content><div class = numbers>J</div></div></button><button id = button_5 class = ""square num-button"" onclick = ""recordClick(this)""><div class = content><div class = numbers>K</div></div></button><button id = button_6 class = ""square num-button"" onclick = ""recordClick(this)""><div class = content><div class = numbers>L</div></div></button><button id = button_7 class = ""square num-button"" onclick = ""recordClick(this)""><div class = content><div class = numbers>N</div></div></button><button id = button_8 class = ""square num-button"" onclick = ""recordClick(this)""><div class = content><div class = numbers>P</div></div></button><button id = button_9 class = ""square num-button"" onclick = ""recordClick(this)""><div class = content><div class = numbers>Q</div></div></button><button id = button_10 class = ""square num-button"" onclick = ""recordClick(this)""><div class = content><div class = numbers>R</div></div></button><button id = button_11 class = ""square num-button"" onclick = ""recordClick(this)""><div class = content><div class = numbers>S</div></div></button><button id = button_12 class = ""square num-button"" onclick = ""recordClick(this)""><div class = content><div class = numbers>Y</div></div></button><button class = clear_button id = ""ClearButton"" onclick = ""clearResponse()"">BACKSPACE</button><button class = blank_button id = ""BlankButton"" onclick = ""blankResponse()"">SKIP</button><p style=""font-size: 2.4rem""><u><b>Current Answer:</b></u></p><br><br><div id=echoed_txt style=""font-size: 5rem; color:blue;""><b></b></div></div>",enter,ospan,retrieval,yAOFFOD1MNYt03vth6CYlTVNE2r1,html-keyboard-response,205,791797,0.0-46.0-6.0-1.0-2.0,41,36,33,8.0,"[""N"",""P"",""Q"",""L"",""H"",""Y"",""J""]","[""N"",""P"",""L"",""G"",""Q"",""H"",""J"",""Y""]",0.0,3.0,,,,,,,5a8a8de6000dab00018cc170,15:31:20,03/04/2024
1195.6000003814697,[''],0,ospan,feedback,yAOFFOD1MNYt03vth6CYlTVNE2r1,html-button-response,206,793494,0.0-46.0-6.0-1.0-3.0,,,,,,,,,,,,100.0,0.0,,5a8a8de6000dab00018cc170,15:31:20,03/04/2024
25630.699999809265,,{'Q0': 'I enjoyed the challenge of trying to remember. Everything was very clear and there is nothing to be improved. '},ospan,survey_ospan,yAOFFOD1MNYt03vth6CYlTVNE2r1,lmdlab-survey-text,207,819883,0.0-46.0-7.0,,,,,,,,,,,,,,yAOFFOD1MNYt03vth6CYlTVNE2r1,5a8a8de6000dab00018cc170,15:31:20,03/04/2024
1049.7000002861023,<p><p style='font-size: 3rem'>Great work!<br><br>This completes the symmetry and memory task.</p><br><br><br>,0,ospan,finish,yAOFFOD1MNYt03vth6CYlTVNE2r1,html-button-response,208,820934,0.0-46.0-8.0,41,36,33,,,,,,,,,100.0,,,5a8a8de6000dab00018cc170,15:31:20,03/04/2024
