rt,stimulus,response,exp_name,exp_stage,subjectID,trial_type,trial_index,time_elapsed,internal_node_id,ospan_shown,ospan_total,ospan_abs,length,resp_actual,resp_correct,full_correct,num_correct,feedback,accuracy,correct,math_acc,math_warning,databaseID,prolificID,start_time,date
2280.699999988079,<div class = 'left_align' style='font-size: 3.25rem; line-height: 1.3;'><p class = 'center_align'><b>Welcome to the Symmetry and Memory Task</b><br><br><br><br></p>Press 'continue' to show the instructions.<br><br><br><br></div>,0,ospan,instruct,xU7rgQOI55WhOPufFe83ED6sDmu1,html-button-response,51,1000981,0.0-43.0-0.0-0.0-0.0,,,,,,,,,,,,,,,65b5a5aa458275b5740acee4,12:52:11,05/03/2024
7335.399999976158,"<div class = 'left_align' style='font-size: 3.25rem; line-height: 1.3;'><p class = 'center_align'><b>Symmetry and Memory Task</b><br><br></p>In this task, you will try to memorize letters you see on the screen<br>while you also view black and white grid pictures.<br><br>In the next few minutes, you will have some practice to get you familiar<br>with how the task works.<br><br>It may be difficult sometimes, but please do not worry about making mistakes!<br><br>We will begin by practicing the letter part of the task.<br><br><br><br></div>",0,ospan,instruct,xU7rgQOI55WhOPufFe83ED6sDmu1,html-button-response,52,1008573,0.0-43.0-0.0-0.0-1.0,,,,,,,,,,,,,,,65b5a5aa458275b5740acee4,12:52:11,05/03/2024
9865.0,"<div class = 'left_align' style='font-size: 3.25rem; line-height: 1.3;'>For this practice part, letters will appear on the screen one at a time.<br><br>Try to remember each letter in the order presented.<br><br>After some letters have been shown, you will see a response screen. Your<br>goal is to report the letters you saw <b>in order</b>. If you do not remember<br>a particular letter, you will have the option to leave it blank.<br><br><br><br></div>",0,ospan,instruct,xU7rgQOI55WhOPufFe83ED6sDmu1,html-button-response,53,1018710,0.0-43.0-0.0-0.0-2.0,,,,,,,,,,,,,,,65b5a5aa458275b5740acee4,12:52:11,05/03/2024
7230.299999952316,"<div class = 'left_align' style='font-size: 3.25rem; line-height: 1.3;'>Remember, it is very important to get the letters in the same<br>order as you see them.<br><br>When you are ready, you may begin the letter practice.</div><br><br><br><br>",0,ospan,instruct,xU7rgQOI55WhOPufFe83ED6sDmu1,html-button-response,54,1026196,0.0-43.0-0.0-0.0-3.0,,,,,,,,,,,,,,,65b5a5aa458275b5740acee4,12:52:11,05/03/2024
,"<p style=""font-size:75px;"">...</p>",,ospan,iti,xU7rgQOI55WhOPufFe83ED6sDmu1,html-keyboard-response,55,1027465,0.0-43.0-0.0-1.0-0.0,,,,,,,,,,,,,,,65b5a5aa458275b5740acee4,12:52:11,05/03/2024
,"<div style=""font-size: 10rem; color: #0000FF"">S</div>",,ospan,letter,xU7rgQOI55WhOPufFe83ED6sDmu1,html-keyboard-response,56,1028470,0.0-43.0-0.0-1.0-1.0,,,,,,,,,,,,,,,65b5a5aa458275b5740acee4,12:52:11,05/03/2024
,"<div style=""font-size: 10rem; color: #0000FF"">N</div>",,ospan,letter,xU7rgQOI55WhOPufFe83ED6sDmu1,html-keyboard-response,57,1030244,0.0-43.0-0.0-1.0-2.0,,,,,,,,,,,,,,,65b5a5aa458275b5740acee4,12:52:11,05/03/2024
18497.80000001192,"<div class = numbox><p style=""font-size: 2.4rem"">Please recall the letters you saw to the best of your ability. If you do not remember a particular letter, use the SKIP button.<br><b>(When you are ready to lock in your answer, press ENTER)</b></p><button id = button_1 class = ""square num-button"" onclick = ""recordClick(this)""><div class = content><div class = numbers>C</div></div></button><button id = button_2 class = ""square num-button"" onclick = ""recordClick(this)""><div class = content><div class = numbers>G</div></div></button><button id = button_3 class = ""square num-button"" onclick = ""recordClick(this)""><div class = content><div class = numbers>H</div></div></button><button id = button_4 class = ""square num-button"" onclick = ""recordClick(this)""><div class = content><div class = numbers>J</div></div></button><button id = button_5 class = ""square num-button"" onclick = ""recordClick(this)""><div class = content><div class = numbers>K</div></div></button><button id = button_6 class = ""square num-button"" onclick = ""recordClick(this)""><div class = content><div class = numbers>L</div></div></button><button id = button_7 class = ""square num-button"" onclick = ""recordClick(this)""><div class = content><div class = numbers>N</div></div></button><button id = button_8 class = ""square num-button"" onclick = ""recordClick(this)""><div class = content><div class = numbers>P</div></div></button><button id = button_9 class = ""square num-button"" onclick = ""recordClick(this)""><div class = content><div class = numbers>Q</div></div></button><button id = button_10 class = ""square num-button"" onclick = ""recordClick(this)""><div class = content><div class = numbers>R</div></div></button><button id = button_11 class = ""square num-button"" onclick = ""recordClick(this)""><div class = content><div class = numbers>S</div></div></button><button id = button_12 class = ""square num-button"" onclick = ""recordClick(this)""><div class = content><div class = numbers>Y</div></div></button><button class = clear_button id = ""ClearButton"" onclick = ""clearResponse()"">BACKSPACE</button><button class = blank_button id = ""BlankButton"" onclick = ""blankResponse()"">SKIP</button><p style=""font-size: 2.4rem""><u><b>Current Answer:</b></u></p><br><br><div id=echoed_txt style=""font-size: 5rem; color:blue;""><b></b></div></div>",enter,ospan,retrieval,xU7rgQOI55WhOPufFe83ED6sDmu1,html-keyboard-response,58,1049501,0.0-43.0-0.0-1.0-3.0,NA,NA,NA,2.0,"[""S"",""N""]","[""S"",""N""]",1.0,2.0,"['<font color=""green"">S</font>', '<font color=""green"">N</font>']",,,,,,65b5a5aa458275b5740acee4,12:52:11,05/03/2024
2061.399999976158,"['<p style=""font-size:44px"">Letters:<br><br><br><font color=""green"">S</font> <font color=""green"">N</font></p><br><br>']",0,ospan,practice_feedback,xU7rgQOI55WhOPufFe83ED6sDmu1,html-button-response,59,1052077,0.0-43.0-0.0-1.0-4.0,,,,,,,,,,,,,,,65b5a5aa458275b5740acee4,12:52:11,05/03/2024
,"<p style=""font-size:75px;"">...</p>",,ospan,iti,xU7rgQOI55WhOPufFe83ED6sDmu1,html-keyboard-response,60,1053095,0.0-43.0-0.0-2.0-0.0,,,,,,,,,,,,,,,65b5a5aa458275b5740acee4,12:52:11,05/03/2024
,"<div style=""font-size: 10rem; color: #0000FF"">P</div>",,ospan,letter,xU7rgQOI55WhOPufFe83ED6sDmu1,html-keyboard-response,61,1054111,0.0-43.0-0.0-2.0-1.0,,,,,,,,,,,,,,,65b5a5aa458275b5740acee4,12:52:11,05/03/2024
,"<div style=""font-size: 10rem; color: #0000FF"">J</div>",,ospan,letter,xU7rgQOI55WhOPufFe83ED6sDmu1,html-keyboard-response,62,1055885,0.0-43.0-0.0-2.0-2.0,,,,,,,,,,,,,,,65b5a5aa458275b5740acee4,12:52:11,05/03/2024
,"<div style=""font-size: 10rem; color: #0000FF"">Y</div>",,ospan,letter,xU7rgQOI55WhOPufFe83ED6sDmu1,html-keyboard-response,63,1057646,0.0-43.0-0.0-2.0-3.0,,,,,,,,,,,,,,,65b5a5aa458275b5740acee4,12:52:11,05/03/2024
5088.599999964237,"<div class = numbox><p style=""font-size: 2.4rem"">Please recall the letters you saw to the best of your ability. If you do not remember a particular letter, use the SKIP button.<br><b>(When you are ready to lock in your answer, press ENTER)</b></p><button id = button_1 class = ""square num-button"" onclick = ""recordClick(this)""><div class = content><div class = numbers>C</div></div></button><button id = button_2 class = ""square num-button"" onclick = ""recordClick(this)""><div class = content><div class = numbers>G</div></div></button><button id = button_3 class = ""square num-button"" onclick = ""recordClick(this)""><div class = content><div class = numbers>H</div></div></button><button id = button_4 class = ""square num-button"" onclick = ""recordClick(this)""><div class = content><div class = numbers>J</div></div></button><button id = button_5 class = ""square num-button"" onclick = ""recordClick(this)""><div class = content><div class = numbers>K</div></div></button><button id = button_6 class = ""square num-button"" onclick = ""recordClick(this)""><div class = content><div class = numbers>L</div></div></button><button id = button_7 class = ""square num-button"" onclick = ""recordClick(this)""><div class = content><div class = numbers>N</div></div></button><button id = button_8 class = ""square num-button"" onclick = ""recordClick(this)""><div class = content><div class = numbers>P</div></div></button><button id = button_9 class = ""square num-button"" onclick = ""recordClick(this)""><div class = content><div class = numbers>Q</div></div></button><button id = button_10 class = ""square num-button"" onclick = ""recordClick(this)""><div class = content><div class = numbers>R</div></div></button><button id = button_11 class = ""square num-button"" onclick = ""recordClick(this)""><div class = content><div class = numbers>S</div></div></button><button id = button_12 class = ""square num-button"" onclick = ""recordClick(this)""><div class = content><div class = numbers>Y</div></div></button><button class = clear_button id = ""ClearButton"" onclick = ""clearResponse()"">BACKSPACE</button><button class = blank_button id = ""BlankButton"" onclick = ""blankResponse()"">SKIP</button><p style=""font-size: 2.4rem""><u><b>Current Answer:</b></u></p><br><br><div id=echoed_txt style=""font-size: 5rem; color:blue;""><b></b></div></div>",enter,ospan,retrieval,xU7rgQOI55WhOPufFe83ED6sDmu1,html-keyboard-response,64,1063501,0.0-43.0-0.0-2.0-4.0,NA,NA,NA,3.0,"[""P"",""J"",""Y""]","[""P"",""J"",""Y""]",1.0,3.0,"['<font color=""green"">P</font>', '<font color=""green"">J</font>', '<font color=""green"">Y</font>']",,,,,,65b5a5aa458275b5740acee4,12:52:11,05/03/2024
1392.8999999761581,"['<p style=""font-size:44px"">Letters:<br><br><br><font color=""green"">P</font> <font color=""green"">J</font> <font color=""green"">Y</font></p><br><br>']",0,ospan,practice_feedback,xU7rgQOI55WhOPufFe83ED6sDmu1,html-button-response,65,1065407,0.0-43.0-0.0-2.0-5.0,,,,,,,,,,,,,,,65b5a5aa458275b5740acee4,12:52:11,05/03/2024
4646.899999976158,"<div class = 'left_align' style='font-size: 3.25rem; line-height: 1.3;'>Now you will practice doing the <b>symmetry judgment part</b> of the experiment.<br><br>A black and white grid picture will appear on the screen and you have to judge if it is <br>symmetrical or asymetrical.<br><br>A picture is 'mirror' symmetrical if its left half is identical to the right half when flipped.<br>Here are examples of a symmetrical and an asymetrical picture:<br><br><center><img src='Stimuli/img/symm_instructions_extra.png' style='height:420px; width:900'></img></center><br>To judge symmetry, imagine you were to fold each picture down the middle, like a book –<br>would the left half match the right half when folded onto each other?<br><br></div><br>",0,ospan,instruct,xU7rgQOI55WhOPufFe83ED6sDmu1,html-button-response,66,1070057,0.0-43.0-1.0-0.0-0.0,,,,,,,,,,,,,,,65b5a5aa458275b5740acee4,12:52:11,05/03/2024
5421.899999976158,"<div class = 'left_align' style='font-size: 3.25rem; line-height: 1.3;'>When you have viewed the picture and determined whether it is symmetrical or not,<br>you can <b>click the Yes or No button</b> below to answer.<br><br>If you take longer than 15 seconds, it will continue automatically<br>and record the answer as an error.</div><br>",0,ospan,instruct,xU7rgQOI55WhOPufFe83ED6sDmu1,html-button-response,67,1075735,0.0-43.0-1.0-0.0-1.0,,,,,,,,,,,,,,,65b5a5aa458275b5740acee4,12:52:11,05/03/2024
2851.800000011921,"<div class = 'left_align' style='font-size: 3.25rem; line-height: 1.3;'>It is <b>very</b> important that you make the symmetry judgment correctly.<br><br>It is also important that you try and judge the picture as quickly as you can.<br><br>When you are ready, click on the button below to try some practice problems.</div><br><br><br><br>",0,ospan,instruct,xU7rgQOI55WhOPufFe83ED6sDmu1,html-button-response,68,1078845,0.0-43.0-1.0-0.0-2.0,,,,,,,,,,,,,,,65b5a5aa458275b5740acee4,12:52:11,05/03/2024
3644.0,,,ospan,symmetry,xU7rgQOI55WhOPufFe83ED6sDmu1,symmetry-judgement-task,69,1083380,0.0-43.0-1.0-1.0-0.0,,,,,,,,,,1.0,1.0,,,,65b5a5aa458275b5740acee4,12:52:11,05/03/2024
,"<p style=""color:green; font-size: 35px"">Correct</p>",,ospan,feedback,xU7rgQOI55WhOPufFe83ED6sDmu1,html-keyboard-response,70,1084139,0.0-43.0-1.0-1.0-1.0,,,,,,,,,,,,,,,65b5a5aa458275b5740acee4,12:52:11,05/03/2024
1613.0,,,ospan,symmetry,xU7rgQOI55WhOPufFe83ED6sDmu1,symmetry-judgement-task,71,1088686,0.0-43.0-1.0-1.0-2.0,,,,,,,,,,1.0,1.0,,,,65b5a5aa458275b5740acee4,12:52:11,05/03/2024
,"<p style=""color:green; font-size: 35px"">Correct</p>",,ospan,feedback,xU7rgQOI55WhOPufFe83ED6sDmu1,html-keyboard-response,72,1089450,0.0-43.0-1.0-1.0-3.0,,,,,,,,,,,,,,,65b5a5aa458275b5740acee4,12:52:11,05/03/2024
4072.0,,,ospan,symmetry,xU7rgQOI55WhOPufFe83ED6sDmu1,symmetry-judgement-task,73,1096528,0.0-43.0-1.0-1.0-4.0,,,,,,,,,,1.0,1.0,,,,65b5a5aa458275b5740acee4,12:52:11,05/03/2024
,"<p style=""color:green; font-size: 35px"">Correct</p>",,ospan,feedback,xU7rgQOI55WhOPufFe83ED6sDmu1,html-keyboard-response,74,1097295,0.0-43.0-1.0-1.0-5.0,,,,,,,,,,,,,,,65b5a5aa458275b5740acee4,12:52:11,05/03/2024
1214.9000000357628,"<p style=""font-size: 3rem;"">You responded correctly on 3 of 3 symmetry judgments. Good job!</p><br><br>",0,ospan,practice,xU7rgQOI55WhOPufFe83ED6sDmu1,html-button-response,75,1100519,0.0-43.0-1.0-2.0,,,,,,,,,,,,,,,65b5a5aa458275b5740acee4,12:52:11,05/03/2024
5226.199999988079,"<div class = 'left_align' style='font-size: 3.25rem; line-height: 1.3;'>Now you will practice doing both parts of the experiment at the same time.<br><br>In the next practice set, you will be given one grid picture to judge.<br>Then letter will appear on the screen. Try to remember the letter.<br><br>It is <b>very important</b> to make the symmetry judgment as quickly and accurately as possible.<br><br>Just as before, once you have make the symmetry judgment, you can click Yes or No.<br><b>Note that you will no longer see Correct or Incorrect feedback.</div><br><br><br><br>",0,ospan,instruct,xU7rgQOI55WhOPufFe83ED6sDmu1,html-button-response,76,1106009,0.0-43.0-2.0-0.0-0.0,,,,,,,,,,,,,,,65b5a5aa458275b5740acee4,12:52:11,05/03/2024
54431.30000001192,"<div class = 'left_align' style='font-size: 3.25rem; line-height: 1.3;'>After the letter goes away, another grid picture will appear, and then<br>another letter.<br><br>At the end of each set of letters and grids, you will recall the letters to the best<br>of your ability. Remember, try your best to get the letters in the correct order.<br><br>It is important to <b>quickly</b> and <b>accurately</b> make the symmetry judgments.</div><br><br><br><br>",0,ospan,instruct,xU7rgQOI55WhOPufFe83ED6sDmu1,html-button-response,77,1160704,0.0-43.0-2.0-0.0-1.0,,,,,,,,,,,,,,,65b5a5aa458275b5740acee4,12:52:11,05/03/2024
11949.300000011921,"<div class = 'left_align' style='font-size: 3.25rem; line-height: 1.3;'>On the feedback screen, if you are not doing well at the symmetry judgments,<br>you will also see a warning in the middle. This indicates your percent <br>correct for the grid pictures for the entire experiment.<br><br>It is <b>very</b> important for you to keep accuracy at least at 85%: <u>We can only use<br>data where the participant was at least 85% accurate on the judgments.</u> Therefore,<br> please try your best to perform well on the symmetry judgments, <b>at the same time</b><br>doing your best to recall as many letters as possible.<br><br>Click the button to try some practice problems.</div><br><br><br><br>",0,ospan,instruct,xU7rgQOI55WhOPufFe83ED6sDmu1,html-button-response,78,1172913,0.0-43.0-2.0-0.0-2.0,,,,,,,,,,,,,,,65b5a5aa458275b5740acee4,12:52:11,05/03/2024
,"<p style=""font-size:75px;"">...</p>",,ospan,iti,xU7rgQOI55WhOPufFe83ED6sDmu1,html-keyboard-response,79,1174189,0.0-43.0-2.0-1.0-0.0,,,,,,,,,,,,,,,65b5a5aa458275b5740acee4,12:52:11,05/03/2024
2228.0,,,ospan,symmetry,xU7rgQOI55WhOPufFe83ED6sDmu1,symmetry-judgement-task,80,1177853,0.0-43.0-2.0-1.0-1.0-0.0,,,,,,,,,,0.0,0.0,,,,65b5a5aa458275b5740acee4,12:52:11,05/03/2024
,"<div style=""font-size: 10rem; color: #0000FF"">L</div>",,ospan,letter,xU7rgQOI55WhOPufFe83ED6sDmu1,html-keyboard-response,81,1178861,0.0-43.0-2.0-1.0-1.0-1.0,,,,,,,,,,,,,,,65b5a5aa458275b5740acee4,12:52:11,05/03/2024
3808.0,,,ospan,symmetry,xU7rgQOI55WhOPufFe83ED6sDmu1,symmetry-judgement-task,82,1184876,0.0-43.0-2.0-1.0-1.0-2.0,,,,,,,,,,1.0,1.0,,,,65b5a5aa458275b5740acee4,12:52:11,05/03/2024
,"<div style=""font-size: 10rem; color: #0000FF"">S</div>",,ospan,letter,xU7rgQOI55WhOPufFe83ED6sDmu1,html-keyboard-response,83,1185891,0.0-43.0-2.0-1.0-1.0-3.0,,,,,,,,,,,,,,,65b5a5aa458275b5740acee4,12:52:11,05/03/2024
1224.0,,,ospan,symmetry,xU7rgQOI55WhOPufFe83ED6sDmu1,symmetry-judgement-task,84,1189352,0.0-43.0-2.0-1.0-1.0-4.0,,,,,,,,,,1.0,1.0,,,,65b5a5aa458275b5740acee4,12:52:11,05/03/2024
,"<div style=""font-size: 10rem; color: #0000FF"">G</div>",,ospan,letter,xU7rgQOI55WhOPufFe83ED6sDmu1,html-keyboard-response,85,1190360,0.0-43.0-2.0-1.0-1.0-5.0,,,,,,,,,,,,,,,65b5a5aa458275b5740acee4,12:52:11,05/03/2024
4566.0,"<div class = numbox><p style=""font-size: 2.4rem"">Please recall the letters you saw to the best of your ability. If you do not remember a particular letter, use the SKIP button.<br><b>(When you are ready to lock in your answer, press ENTER)</b></p><button id = button_1 class = ""square num-button"" onclick = ""recordClick(this)""><div class = content><div class = numbers>C</div></div></button><button id = button_2 class = ""square num-button"" onclick = ""recordClick(this)""><div class = content><div class = numbers>G</div></div></button><button id = button_3 class = ""square num-button"" onclick = ""recordClick(this)""><div class = content><div class = numbers>H</div></div></button><button id = button_4 class = ""square num-button"" onclick = ""recordClick(this)""><div class = content><div class = numbers>J</div></div></button><button id = button_5 class = ""square num-button"" onclick = ""recordClick(this)""><div class = content><div class = numbers>K</div></div></button><button id = button_6 class = ""square num-button"" onclick = ""recordClick(this)""><div class = content><div class = numbers>L</div></div></button><button id = button_7 class = ""square num-button"" onclick = ""recordClick(this)""><div class = content><div class = numbers>N</div></div></button><button id = button_8 class = ""square num-button"" onclick = ""recordClick(this)""><div class = content><div class = numbers>P</div></div></button><button id = button_9 class = ""square num-button"" onclick = ""recordClick(this)""><div class = content><div class = numbers>Q</div></div></button><button id = button_10 class = ""square num-button"" onclick = ""recordClick(this)""><div class = content><div class = numbers>R</div></div></button><button id = button_11 class = ""square num-button"" onclick = ""recordClick(this)""><div class = content><div class = numbers>S</div></div></button><button id = button_12 class = ""square num-button"" onclick = ""recordClick(this)""><div class = content><div class = numbers>Y</div></div></button><button class = clear_button id = ""ClearButton"" onclick = ""clearResponse()"">BACKSPACE</button><button class = blank_button id = ""BlankButton"" onclick = ""blankResponse()"">SKIP</button><p style=""font-size: 2.4rem""><u><b>Current Answer:</b></u></p><br><br><div id=echoed_txt style=""font-size: 5rem; color:blue;""><b></b></div></div>",enter,ospan,retrieval,xU7rgQOI55WhOPufFe83ED6sDmu1,html-keyboard-response,86,1195684,0.0-43.0-2.0-1.0-2.0-0.0,NA,NA,NA,3.0,"[""L"",""S"",""G""]","[""L"",""S"",""G""]",1.0,3.0,"['<font color=""green"">L</font>', '<font color=""green"">S</font>', '<font color=""green"">G</font>']",,,,,,65b5a5aa458275b5740acee4,12:52:11,05/03/2024
3560.7000000476837,"['<p style=""font-size:44px"">Letters:<br><br><br><font color=""green"">L</font> <font color=""green"">S</font> <font color=""green"">G</font></p><br><br><p style=""font-size:30px"">Symmetry:<br><br><font color=""red"">67%</font></p><br><br>']",0,ospan,practice_feedback,xU7rgQOI55WhOPufFe83ED6sDmu1,html-button-response,87,1199761,0.0-43.0-2.0-1.0-2.0-1.0,,,,,,,,,,,,,,,65b5a5aa458275b5740acee4,12:52:11,05/03/2024
,"<p style=""font-size:75px;"">...</p>",,ospan,iti,xU7rgQOI55WhOPufFe83ED6sDmu1,html-keyboard-response,88,1200774,0.0-43.0-2.0-2.0-0.0,,,,,,,,,,,,,,,65b5a5aa458275b5740acee4,12:52:11,05/03/2024
1373.0,,,ospan,symmetry,xU7rgQOI55WhOPufFe83ED6sDmu1,symmetry-judgement-task,89,1203573,0.0-43.0-2.0-2.0-1.0-0.0,,,,,,,,,,1.0,1.0,,,,65b5a5aa458275b5740acee4,12:52:11,05/03/2024
,"<div style=""font-size: 10rem; color: #0000FF"">K</div>",,ospan,letter,xU7rgQOI55WhOPufFe83ED6sDmu1,html-keyboard-response,90,1204594,0.0-43.0-2.0-2.0-1.0-1.0,,,,,,,,,,,,,,,65b5a5aa458275b5740acee4,12:52:11,05/03/2024
1426.0,,,ospan,symmetry,xU7rgQOI55WhOPufFe83ED6sDmu1,symmetry-judgement-task,91,1208218,0.0-43.0-2.0-2.0-1.0-2.0,,,,,,,,,,1.0,1.0,,,,65b5a5aa458275b5740acee4,12:52:11,05/03/2024
,"<div style=""font-size: 10rem; color: #0000FF"">C</div>",,ospan,letter,xU7rgQOI55WhOPufFe83ED6sDmu1,html-keyboard-response,92,1209236,0.0-43.0-2.0-2.0-1.0-3.0,,,,,,,,,,,,,,,65b5a5aa458275b5740acee4,12:52:11,05/03/2024
2428.0,,,ospan,symmetry,xU7rgQOI55WhOPufFe83ED6sDmu1,symmetry-judgement-task,93,1213921,0.0-43.0-2.0-2.0-1.0-4.0,,,,,,,,,,1.0,1.0,,,,65b5a5aa458275b5740acee4,12:52:11,05/03/2024
,"<div style=""font-size: 10rem; color: #0000FF"">Q</div>",,ospan,letter,xU7rgQOI55WhOPufFe83ED6sDmu1,html-keyboard-response,94,1214939,0.0-43.0-2.0-2.0-1.0-5.0,,,,,,,,,,,,,,,65b5a5aa458275b5740acee4,12:52:11,05/03/2024
3734.600000023842,"<div class = numbox><p style=""font-size: 2.4rem"">Please recall the letters you saw to the best of your ability. If you do not remember a particular letter, use the SKIP button.<br><b>(When you are ready to lock in your answer, press ENTER)</b></p><button id = button_1 class = ""square num-button"" onclick = ""recordClick(this)""><div class = content><div class = numbers>C</div></div></button><button id = button_2 class = ""square num-button"" onclick = ""recordClick(this)""><div class = content><div class = numbers>G</div></div></button><button id = button_3 class = ""square num-button"" onclick = ""recordClick(this)""><div class = content><div class = numbers>H</div></div></button><button id = button_4 class = ""square num-button"" onclick = ""recordClick(this)""><div class = content><div class = numbers>J</div></div></button><button id = button_5 class = ""square num-button"" onclick = ""recordClick(this)""><div class = content><div class = numbers>K</div></div></button><button id = button_6 class = ""square num-button"" onclick = ""recordClick(this)""><div class = content><div class = numbers>L</div></div></button><button id = button_7 class = ""square num-button"" onclick = ""recordClick(this)""><div class = content><div class = numbers>N</div></div></button><button id = button_8 class = ""square num-button"" onclick = ""recordClick(this)""><div class = content><div class = numbers>P</div></div></button><button id = button_9 class = ""square num-button"" onclick = ""recordClick(this)""><div class = content><div class = numbers>Q</div></div></button><button id = button_10 class = ""square num-button"" onclick = ""recordClick(this)""><div class = content><div class = numbers>R</div></div></button><button id = button_11 class = ""square num-button"" onclick = ""recordClick(this)""><div class = content><div class = numbers>S</div></div></button><button id = button_12 class = ""square num-button"" onclick = ""recordClick(this)""><div class = content><div class = numbers>Y</div></div></button><button class = clear_button id = ""ClearButton"" onclick = ""clearResponse()"">BACKSPACE</button><button class = blank_button id = ""BlankButton"" onclick = ""blankResponse()"">SKIP</button><p style=""font-size: 2.4rem""><u><b>Current Answer:</b></u></p><br><br><div id=echoed_txt style=""font-size: 5rem; color:blue;""><b></b></div></div>",enter,ospan,retrieval,xU7rgQOI55WhOPufFe83ED6sDmu1,html-keyboard-response,95,1219433,0.0-43.0-2.0-2.0-2.0-0.0,NA,NA,NA,3.0,"[""K"",""C"",""Q""]","[""K"",""C"",""Q""]",1.0,3.0,"['<font color=""green"">K</font>', '<font color=""green"">C</font>', '<font color=""green"">Q</font>']",,,,,,65b5a5aa458275b5740acee4,12:52:11,05/03/2024
1398.699999988079,"['<p style=""font-size:44px"">Letters:<br><br><br><font color=""green"">K</font> <font color=""green"">C</font> <font color=""green"">Q</font></p><br><br><p style=""font-size:30px"">Symmetry:<br><br><font color=""red"">83%</font></p><br><br>']",0,ospan,practice_feedback,xU7rgQOI55WhOPufFe83ED6sDmu1,html-button-response,96,1221339,0.0-43.0-2.0-2.0-2.0-1.0,,,,,,,,,,,,,,,65b5a5aa458275b5740acee4,12:52:11,05/03/2024
21765.0,"<div class = 'left_align' style='font-size: 3rem; line-height: 1.3;'><b>Great work! That is the end of practice.</b><br><br>The real trials will look just like the practice trials you just completed.<br><br><u>Here, you will not see feedback</u>. First, you will see an grid picture to judge,<br>then a letter to remember. When the recall screen appears, report the letters in the<br>order presented. If you forget a letter, remember to use the <b>blank</b> button to move to the<br>next letter. Some of the sets will have more symmetry grids and letters than others.<br><br>It is important that you do your best on both the symmetry judgments and the letter recall<br>parts of the experiment. For for the symmetry judgments, try to work as <b>quickly</b> and <br>as <b>accurately</b> as possible. Remember to keep your symmetry accuracy at 85% or above.<br><br><b>For the letters, do NOT use any external aid (e.g., writing on paper, electronic device).</b><br><br>It is <u>very important</u> to our experiment to have a <b>true</b> view of your real performance.<br><br>Do not worry if you miss some when it gets hard! This task is meant to be very challenging!<br><br>Click the button to begin.</div><br><br><br><br>",0,ospan,starting_real_here,xU7rgQOI55WhOPufFe83ED6sDmu1,html-button-response,97,1243107,0.0-43.0-2.0-3.0,,,,,,,,,,,,,,,65b5a5aa458275b5740acee4,12:52:11,05/03/2024
,"<p style=""font-size:75px;"">...</p>",,ospan,iti,xU7rgQOI55WhOPufFe83ED6sDmu1,html-keyboard-response,98,1244378,0.0-43.0-3.0-0.0-0.0,,,,,,,,,,,,,,,65b5a5aa458275b5740acee4,12:52:11,05/03/2024
1305.0,,,ospan,symmetry,xU7rgQOI55WhOPufFe83ED6sDmu1,symmetry-judgement-task,99,1247140,0.0-43.0-3.0-0.0-1.0-0.0,,,,,,,,,,1.0,1.0,,,,65b5a5aa458275b5740acee4,12:52:11,05/03/2024
,"<div style=""font-size: 10rem; color: #0000FF"">P</div>",,ospan,letter,xU7rgQOI55WhOPufFe83ED6sDmu1,html-keyboard-response,100,1248149,0.0-43.0-3.0-0.0-1.0-1.0,,,,,,,,,,,,,,,65b5a5aa458275b5740acee4,12:52:11,05/03/2024
1870.0,,,ospan,symmetry,xU7rgQOI55WhOPufFe83ED6sDmu1,symmetry-judgement-task,101,1252245,0.0-43.0-3.0-0.0-1.0-2.0,,,,,,,,,,1.0,1.0,,,,65b5a5aa458275b5740acee4,12:52:11,05/03/2024
,"<div style=""font-size: 10rem; color: #0000FF"">Q</div>",,ospan,letter,xU7rgQOI55WhOPufFe83ED6sDmu1,html-keyboard-response,102,1253268,0.0-43.0-3.0-0.0-1.0-3.0,,,,,,,,,,,,,,,65b5a5aa458275b5740acee4,12:52:11,05/03/2024
1432.0,,,ospan,symmetry,xU7rgQOI55WhOPufFe83ED6sDmu1,symmetry-judgement-task,103,1257060,0.0-43.0-3.0-0.0-1.0-4.0,,,,,,,,,,1.0,1.0,,,,65b5a5aa458275b5740acee4,12:52:11,05/03/2024
,"<div style=""font-size: 10rem; color: #0000FF"">C</div>",,ospan,letter,xU7rgQOI55WhOPufFe83ED6sDmu1,html-keyboard-response,104,1258068,0.0-43.0-3.0-0.0-1.0-5.0,,,,,,,,,,,,,,,65b5a5aa458275b5740acee4,12:52:11,05/03/2024
10851.199999988079,"<div class = numbox><p style=""font-size: 2.4rem"">Please recall the letters you saw to the best of your ability. If you do not remember a particular letter, use the SKIP button.<br><b>(When you are ready to lock in your answer, press ENTER)</b></p><button id = button_1 class = ""square num-button"" onclick = ""recordClick(this)""><div class = content><div class = numbers>C</div></div></button><button id = button_2 class = ""square num-button"" onclick = ""recordClick(this)""><div class = content><div class = numbers>G</div></div></button><button id = button_3 class = ""square num-button"" onclick = ""recordClick(this)""><div class = content><div class = numbers>H</div></div></button><button id = button_4 class = ""square num-button"" onclick = ""recordClick(this)""><div class = content><div class = numbers>J</div></div></button><button id = button_5 class = ""square num-button"" onclick = ""recordClick(this)""><div class = content><div class = numbers>K</div></div></button><button id = button_6 class = ""square num-button"" onclick = ""recordClick(this)""><div class = content><div class = numbers>L</div></div></button><button id = button_7 class = ""square num-button"" onclick = ""recordClick(this)""><div class = content><div class = numbers>N</div></div></button><button id = button_8 class = ""square num-button"" onclick = ""recordClick(this)""><div class = content><div class = numbers>P</div></div></button><button id = button_9 class = ""square num-button"" onclick = ""recordClick(this)""><div class = content><div class = numbers>Q</div></div></button><button id = button_10 class = ""square num-button"" onclick = ""recordClick(this)""><div class = content><div class = numbers>R</div></div></button><button id = button_11 class = ""square num-button"" onclick = ""recordClick(this)""><div class = content><div class = numbers>S</div></div></button><button id = button_12 class = ""square num-button"" onclick = ""recordClick(this)""><div class = content><div class = numbers>Y</div></div></button><button class = clear_button id = ""ClearButton"" onclick = ""clearResponse()"">BACKSPACE</button><button class = blank_button id = ""BlankButton"" onclick = ""blankResponse()"">SKIP</button><p style=""font-size: 2.4rem""><u><b>Current Answer:</b></u></p><br><br><div id=echoed_txt style=""font-size: 5rem; color:blue;""><b></b></div></div>",enter,ospan,retrieval,xU7rgQOI55WhOPufFe83ED6sDmu1,html-keyboard-response,105,1269686,0.0-43.0-3.0-0.0-2.0,3,3,3,3.0,"[""P"",""Q"",""C""]","[""P"",""Q"",""C""]",1.0,3.0,,,,,,,65b5a5aa458275b5740acee4,12:52:11,05/03/2024
2078.300000011921,[''],0,ospan,feedback,xU7rgQOI55WhOPufFe83ED6sDmu1,html-button-response,106,1272289,0.0-43.0-3.0-0.0-3.0,,,,,,,,,,,,100.0,0.0,,65b5a5aa458275b5740acee4,12:52:11,05/03/2024
,"<p style=""font-size:75px;"">...</p>",,ospan,iti,xU7rgQOI55WhOPufFe83ED6sDmu1,html-keyboard-response,107,1273295,0.0-43.0-4.0-0.0-0.0,,,,,,,,,,,,,,,65b5a5aa458275b5740acee4,12:52:11,05/03/2024
,,,ospan,symmetry,xU7rgQOI55WhOPufFe83ED6sDmu1,symmetry-judgement-task,108,1288931,0.0-43.0-4.0-0.0-1.0-0.0,,,,,,,,,,,0.0,,,,65b5a5aa458275b5740acee4,12:52:11,05/03/2024
,"<div style=""font-size: 10rem; color: #0000FF"">J</div>",,ospan,letter,xU7rgQOI55WhOPufFe83ED6sDmu1,html-keyboard-response,109,1290922,0.0-43.0-4.0-0.0-1.0-1.0,,,,,,,,,,,,,,,65b5a5aa458275b5740acee4,12:52:11,05/03/2024
,,,ospan,symmetry,xU7rgQOI55WhOPufFe83ED6sDmu1,symmetry-judgement-task,110,1307920,0.0-43.0-4.0-0.0-1.0-2.0,,,,,,,,,,,0.0,,,,65b5a5aa458275b5740acee4,12:52:11,05/03/2024
,"<div style=""font-size: 10rem; color: #0000FF"">L</div>",,ospan,letter,xU7rgQOI55WhOPufFe83ED6sDmu1,html-keyboard-response,111,1308925,0.0-43.0-4.0-0.0-1.0-3.0,,,,,,,,,,,,,,,65b5a5aa458275b5740acee4,12:52:11,05/03/2024
2418.0,,,ospan,symmetry,xU7rgQOI55WhOPufFe83ED6sDmu1,symmetry-judgement-task,112,1313587,0.0-43.0-4.0-0.0-1.0-4.0,,,,,,,,,,1.0,1.0,,,,65b5a5aa458275b5740acee4,12:52:11,05/03/2024
,"<div style=""font-size: 10rem; color: #0000FF"">N</div>",,ospan,letter,xU7rgQOI55WhOPufFe83ED6sDmu1,html-keyboard-response,113,1314592,0.0-43.0-4.0-0.0-1.0-5.0,,,,,,,,,,,,,,,65b5a5aa458275b5740acee4,12:52:11,05/03/2024
1292.0,,,ospan,symmetry,xU7rgQOI55WhOPufFe83ED6sDmu1,symmetry-judgement-task,114,1318104,0.0-43.0-4.0-0.0-1.0-6.0,,,,,,,,,,1.0,1.0,,,,65b5a5aa458275b5740acee4,12:52:11,05/03/2024
,"<div style=""font-size: 10rem; color: #0000FF"">K</div>",,ospan,letter,xU7rgQOI55WhOPufFe83ED6sDmu1,html-keyboard-response,115,1319111,0.0-43.0-4.0-0.0-1.0-7.0,,,,,,,,,,,,,,,65b5a5aa458275b5740acee4,12:52:11,05/03/2024
3547.899999976158,"<div class = numbox><p style=""font-size: 2.4rem"">Please recall the letters you saw to the best of your ability. If you do not remember a particular letter, use the SKIP button.<br><b>(When you are ready to lock in your answer, press ENTER)</b></p><button id = button_1 class = ""square num-button"" onclick = ""recordClick(this)""><div class = content><div class = numbers>C</div></div></button><button id = button_2 class = ""square num-button"" onclick = ""recordClick(this)""><div class = content><div class = numbers>G</div></div></button><button id = button_3 class = ""square num-button"" onclick = ""recordClick(this)""><div class = content><div class = numbers>H</div></div></button><button id = button_4 class = ""square num-button"" onclick = ""recordClick(this)""><div class = content><div class = numbers>J</div></div></button><button id = button_5 class = ""square num-button"" onclick = ""recordClick(this)""><div class = content><div class = numbers>K</div></div></button><button id = button_6 class = ""square num-button"" onclick = ""recordClick(this)""><div class = content><div class = numbers>L</div></div></button><button id = button_7 class = ""square num-button"" onclick = ""recordClick(this)""><div class = content><div class = numbers>N</div></div></button><button id = button_8 class = ""square num-button"" onclick = ""recordClick(this)""><div class = content><div class = numbers>P</div></div></button><button id = button_9 class = ""square num-button"" onclick = ""recordClick(this)""><div class = content><div class = numbers>Q</div></div></button><button id = button_10 class = ""square num-button"" onclick = ""recordClick(this)""><div class = content><div class = numbers>R</div></div></button><button id = button_11 class = ""square num-button"" onclick = ""recordClick(this)""><div class = content><div class = numbers>S</div></div></button><button id = button_12 class = ""square num-button"" onclick = ""recordClick(this)""><div class = content><div class = numbers>Y</div></div></button><button class = clear_button id = ""ClearButton"" onclick = ""clearResponse()"">BACKSPACE</button><button class = blank_button id = ""BlankButton"" onclick = ""blankResponse()"">SKIP</button><p style=""font-size: 2.4rem""><u><b>Current Answer:</b></u></p><br><br><div id=echoed_txt style=""font-size: 5rem; color:blue;""><b></b></div></div>",enter,ospan,retrieval,xU7rgQOI55WhOPufFe83ED6sDmu1,html-keyboard-response,116,1323427,0.0-43.0-4.0-0.0-2.0,7,3,3,4.0,"[""N"",""K""]","[""J"",""L"",""N"",""K""]",0.0,0.0,,,,,,,65b5a5aa458275b5740acee4,12:52:11,05/03/2024
1459.300000011921,"['<p style=""font-size: 3.75rem"">Low symmetry accuracy!<br><br><br><font color=""red"">71%</font><br><br></p>']",0,ospan,feedback,xU7rgQOI55WhOPufFe83ED6sDmu1,html-button-response,117,1325392,0.0-43.0-4.0-0.0-3.0,,,,,,,,,,,,71.0,1.0,,65b5a5aa458275b5740acee4,12:52:11,05/03/2024
,"<p style=""font-size:75px;"">...</p>",,ospan,iti,xU7rgQOI55WhOPufFe83ED6sDmu1,html-keyboard-response,118,1326407,0.0-43.0-4.0-1.0-0.0,,,,,,,,,,,,,,,65b5a5aa458275b5740acee4,12:52:11,05/03/2024
1656.0,,,ospan,symmetry,xU7rgQOI55WhOPufFe83ED6sDmu1,symmetry-judgement-task,119,1329594,0.0-43.0-4.0-1.0-1.0-0.0,,,,,,,,,,0.0,0.0,,,,65b5a5aa458275b5740acee4,12:52:11,05/03/2024
,"<div style=""font-size: 10rem; color: #0000FF"">G</div>",,ospan,letter,xU7rgQOI55WhOPufFe83ED6sDmu1,html-keyboard-response,120,1330603,0.0-43.0-4.0-1.0-1.0-1.0,,,,,,,,,,,,,,,65b5a5aa458275b5740acee4,12:52:11,05/03/2024
1763.0,,,ospan,symmetry,xU7rgQOI55WhOPufFe83ED6sDmu1,symmetry-judgement-task,121,1334587,0.0-43.0-4.0-1.0-1.0-2.0,,,,,,,,,,1.0,1.0,,,,65b5a5aa458275b5740acee4,12:52:11,05/03/2024
,"<div style=""font-size: 10rem; color: #0000FF"">N</div>",,ospan,letter,xU7rgQOI55WhOPufFe83ED6sDmu1,html-keyboard-response,122,1335604,0.0-43.0-4.0-1.0-1.0-3.0,,,,,,,,,,,,,,,65b5a5aa458275b5740acee4,12:52:11,05/03/2024
2458.0,,,ospan,symmetry,xU7rgQOI55WhOPufFe83ED6sDmu1,symmetry-judgement-task,123,1340251,0.0-43.0-4.0-1.0-1.0-4.0,,,,,,,,,,1.0,1.0,,,,65b5a5aa458275b5740acee4,12:52:11,05/03/2024
,"<div style=""font-size: 10rem; color: #0000FF"">S</div>",,ospan,letter,xU7rgQOI55WhOPufFe83ED6sDmu1,html-keyboard-response,124,1341256,0.0-43.0-4.0-1.0-1.0-5.0,,,,,,,,,,,,,,,65b5a5aa458275b5740acee4,12:52:11,05/03/2024
1400.0,,,ospan,symmetry,xU7rgQOI55WhOPufFe83ED6sDmu1,symmetry-judgement-task,125,1344891,0.0-43.0-4.0-1.0-1.0-6.0,,,,,,,,,,1.0,1.0,,,,65b5a5aa458275b5740acee4,12:52:11,05/03/2024
,"<div style=""font-size: 10rem; color: #0000FF"">P</div>",,ospan,letter,xU7rgQOI55WhOPufFe83ED6sDmu1,html-keyboard-response,126,1345897,0.0-43.0-4.0-1.0-1.0-7.0,,,,,,,,,,,,,,,65b5a5aa458275b5740acee4,12:52:11,05/03/2024
1525.0,,,ospan,symmetry,xU7rgQOI55WhOPufFe83ED6sDmu1,symmetry-judgement-task,127,1349610,0.0-43.0-4.0-1.0-1.0-8.0,,,,,,,,,,1.0,1.0,,,,65b5a5aa458275b5740acee4,12:52:11,05/03/2024
,"<div style=""font-size: 10rem; color: #0000FF"">J</div>",,ospan,letter,xU7rgQOI55WhOPufFe83ED6sDmu1,html-keyboard-response,128,1350612,0.0-43.0-4.0-1.0-1.0-9.0,,,,,,,,,,,,,,,65b5a5aa458275b5740acee4,12:52:11,05/03/2024
5016.299999952316,"<div class = numbox><p style=""font-size: 2.4rem"">Please recall the letters you saw to the best of your ability. If you do not remember a particular letter, use the SKIP button.<br><b>(When you are ready to lock in your answer, press ENTER)</b></p><button id = button_1 class = ""square num-button"" onclick = ""recordClick(this)""><div class = content><div class = numbers>C</div></div></button><button id = button_2 class = ""square num-button"" onclick = ""recordClick(this)""><div class = content><div class = numbers>G</div></div></button><button id = button_3 class = ""square num-button"" onclick = ""recordClick(this)""><div class = content><div class = numbers>H</div></div></button><button id = button_4 class = ""square num-button"" onclick = ""recordClick(this)""><div class = content><div class = numbers>J</div></div></button><button id = button_5 class = ""square num-button"" onclick = ""recordClick(this)""><div class = content><div class = numbers>K</div></div></button><button id = button_6 class = ""square num-button"" onclick = ""recordClick(this)""><div class = content><div class = numbers>L</div></div></button><button id = button_7 class = ""square num-button"" onclick = ""recordClick(this)""><div class = content><div class = numbers>N</div></div></button><button id = button_8 class = ""square num-button"" onclick = ""recordClick(this)""><div class = content><div class = numbers>P</div></div></button><button id = button_9 class = ""square num-button"" onclick = ""recordClick(this)""><div class = content><div class = numbers>Q</div></div></button><button id = button_10 class = ""square num-button"" onclick = ""recordClick(this)""><div class = content><div class = numbers>R</div></div></button><button id = button_11 class = ""square num-button"" onclick = ""recordClick(this)""><div class = content><div class = numbers>S</div></div></button><button id = button_12 class = ""square num-button"" onclick = ""recordClick(this)""><div class = content><div class = numbers>Y</div></div></button><button class = clear_button id = ""ClearButton"" onclick = ""clearResponse()"">BACKSPACE</button><button class = blank_button id = ""BlankButton"" onclick = ""blankResponse()"">SKIP</button><p style=""font-size: 2.4rem""><u><b>Current Answer:</b></u></p><br><br><div id=echoed_txt style=""font-size: 5rem; color:blue;""><b></b></div></div>",enter,ospan,retrieval,xU7rgQOI55WhOPufFe83ED6sDmu1,html-keyboard-response,129,1356394,0.0-43.0-4.0-1.0-2.0,12,8,8,5.0,"[""G"",""N"",""S"",""P"",""J""]","[""G"",""N"",""S"",""P"",""J""]",1.0,5.0,,,,,,,65b5a5aa458275b5740acee4,12:52:11,05/03/2024
1691.7000000476837,"['<p style=""font-size: 3.75rem"">Low symmetry accuracy!<br><br><br><font color=""red"">75%</font><br><br></p>']",0,ospan,feedback,xU7rgQOI55WhOPufFe83ED6sDmu1,html-button-response,130,1358597,0.0-43.0-4.0-1.0-3.0,,,,,,,,,,,,75.0,1.0,,65b5a5aa458275b5740acee4,12:52:11,05/03/2024
,"<p style=""font-size:75px;"">...</p>",,ospan,iti,xU7rgQOI55WhOPufFe83ED6sDmu1,html-keyboard-response,131,1359610,0.0-43.0-4.0-2.0-0.0,,,,,,,,,,,,,,,65b5a5aa458275b5740acee4,12:52:11,05/03/2024
7741.0,,,ospan,symmetry,xU7rgQOI55WhOPufFe83ED6sDmu1,symmetry-judgement-task,132,1368822,0.0-43.0-4.0-2.0-1.0-0.0,,,,,,,,,,1.0,1.0,,,,65b5a5aa458275b5740acee4,12:52:11,05/03/2024
,"<div style=""font-size: 10rem; color: #0000FF"">S</div>",,ospan,letter,xU7rgQOI55WhOPufFe83ED6sDmu1,html-keyboard-response,133,1369838,0.0-43.0-4.0-2.0-1.0-1.0,,,,,,,,,,,,,,,65b5a5aa458275b5740acee4,12:52:11,05/03/2024
13453.0,,,ospan,symmetry,xU7rgQOI55WhOPufFe83ED6sDmu1,symmetry-judgement-task,134,1385520,0.0-43.0-4.0-2.0-1.0-2.0,,,,,,,,,,1.0,1.0,,,,65b5a5aa458275b5740acee4,12:52:11,05/03/2024
,"<div style=""font-size: 10rem; color: #0000FF"">J</div>",,ospan,letter,xU7rgQOI55WhOPufFe83ED6sDmu1,html-keyboard-response,135,1386533,0.0-43.0-4.0-2.0-1.0-3.0,,,,,,,,,,,,,,,65b5a5aa458275b5740acee4,12:52:11,05/03/2024
1349.0,,,ospan,symmetry,xU7rgQOI55WhOPufFe83ED6sDmu1,symmetry-judgement-task,136,1390160,0.0-43.0-4.0-2.0-1.0-4.0,,,,,,,,,,1.0,1.0,,,,65b5a5aa458275b5740acee4,12:52:11,05/03/2024
,"<div style=""font-size: 10rem; color: #0000FF"">G</div>",,ospan,letter,xU7rgQOI55WhOPufFe83ED6sDmu1,html-keyboard-response,137,1391166,0.0-43.0-4.0-2.0-1.0-5.0,,,,,,,,,,,,,,,65b5a5aa458275b5740acee4,12:52:11,05/03/2024
6957.699999988079,"<div class = numbox><p style=""font-size: 2.4rem"">Please recall the letters you saw to the best of your ability. If you do not remember a particular letter, use the SKIP button.<br><b>(When you are ready to lock in your answer, press ENTER)</b></p><button id = button_1 class = ""square num-button"" onclick = ""recordClick(this)""><div class = content><div class = numbers>C</div></div></button><button id = button_2 class = ""square num-button"" onclick = ""recordClick(this)""><div class = content><div class = numbers>G</div></div></button><button id = button_3 class = ""square num-button"" onclick = ""recordClick(this)""><div class = content><div class = numbers>H</div></div></button><button id = button_4 class = ""square num-button"" onclick = ""recordClick(this)""><div class = content><div class = numbers>J</div></div></button><button id = button_5 class = ""square num-button"" onclick = ""recordClick(this)""><div class = content><div class = numbers>K</div></div></button><button id = button_6 class = ""square num-button"" onclick = ""recordClick(this)""><div class = content><div class = numbers>L</div></div></button><button id = button_7 class = ""square num-button"" onclick = ""recordClick(this)""><div class = content><div class = numbers>N</div></div></button><button id = button_8 class = ""square num-button"" onclick = ""recordClick(this)""><div class = content><div class = numbers>P</div></div></button><button id = button_9 class = ""square num-button"" onclick = ""recordClick(this)""><div class = content><div class = numbers>Q</div></div></button><button id = button_10 class = ""square num-button"" onclick = ""recordClick(this)""><div class = content><div class = numbers>R</div></div></button><button id = button_11 class = ""square num-button"" onclick = ""recordClick(this)""><div class = content><div class = numbers>S</div></div></button><button id = button_12 class = ""square num-button"" onclick = ""recordClick(this)""><div class = content><div class = numbers>Y</div></div></button><button class = clear_button id = ""ClearButton"" onclick = ""clearResponse()"">BACKSPACE</button><button class = blank_button id = ""BlankButton"" onclick = ""blankResponse()"">SKIP</button><p style=""font-size: 2.4rem""><u><b>Current Answer:</b></u></p><br><br><div id=echoed_txt style=""font-size: 5rem; color:blue;""><b></b></div></div>",enter,ospan,retrieval,xU7rgQOI55WhOPufFe83ED6sDmu1,html-keyboard-response,138,1398900,0.0-43.0-4.0-2.0-2.0,15,10,8,3.0,"[""N"",""J"",""G""]","[""S"",""J"",""G""]",0.0,2.0,,,,,,,65b5a5aa458275b5740acee4,12:52:11,05/03/2024
2369.199999988079,"['<p style=""font-size: 3.75rem"">Low symmetry accuracy!<br><br><br><font color=""purple"">80%</font><br><br></p>']",0,ospan,feedback,xU7rgQOI55WhOPufFe83ED6sDmu1,html-button-response,139,1401773,0.0-43.0-4.0-2.0-3.0,,,,,,,,,,,,80.0,1.0,,65b5a5aa458275b5740acee4,12:52:11,05/03/2024
,"<p style=""font-size:75px;"">...</p>",,ospan,iti,xU7rgQOI55WhOPufFe83ED6sDmu1,html-keyboard-response,140,1402783,0.0-43.0-5.0-0.0-0.0,,,,,,,,,,,,,,,65b5a5aa458275b5740acee4,12:52:11,05/03/2024
1929.0,,,ospan,symmetry,xU7rgQOI55WhOPufFe83ED6sDmu1,symmetry-judgement-task,141,1406174,0.0-43.0-5.0-0.0-1.0-0.0,,,,,,,,,,1.0,1.0,,,,65b5a5aa458275b5740acee4,12:52:11,05/03/2024
,"<div style=""font-size: 10rem; color: #0000FF"">Q</div>",,ospan,letter,xU7rgQOI55WhOPufFe83ED6sDmu1,html-keyboard-response,142,1407188,0.0-43.0-5.0-0.0-1.0-1.0,,,,,,,,,,,,,,,65b5a5aa458275b5740acee4,12:52:11,05/03/2024
1388.0,,,ospan,symmetry,xU7rgQOI55WhOPufFe83ED6sDmu1,symmetry-judgement-task,143,1410798,0.0-43.0-5.0-0.0-1.0-2.0,,,,,,,,,,1.0,1.0,,,,65b5a5aa458275b5740acee4,12:52:11,05/03/2024
,"<div style=""font-size: 10rem; color: #0000FF"">J</div>",,ospan,letter,xU7rgQOI55WhOPufFe83ED6sDmu1,html-keyboard-response,144,1411815,0.0-43.0-5.0-0.0-1.0-3.0,,,,,,,,,,,,,,,65b5a5aa458275b5740acee4,12:52:11,05/03/2024
1139.0,,,ospan,symmetry,xU7rgQOI55WhOPufFe83ED6sDmu1,symmetry-judgement-task,145,1415181,0.0-43.0-5.0-0.0-1.0-4.0,,,,,,,,,,1.0,1.0,,,,65b5a5aa458275b5740acee4,12:52:11,05/03/2024
,"<div style=""font-size: 10rem; color: #0000FF"">K</div>",,ospan,letter,xU7rgQOI55WhOPufFe83ED6sDmu1,html-keyboard-response,146,1416189,0.0-43.0-5.0-0.0-1.0-5.0,,,,,,,,,,,,,,,65b5a5aa458275b5740acee4,12:52:11,05/03/2024
3057.0,,,ospan,symmetry,xU7rgQOI55WhOPufFe83ED6sDmu1,symmetry-judgement-task,147,1421448,0.0-43.0-5.0-0.0-1.0-6.0,,,,,,,,,,1.0,1.0,,,,65b5a5aa458275b5740acee4,12:52:11,05/03/2024
,"<div style=""font-size: 10rem; color: #0000FF"">S</div>",,ospan,letter,xU7rgQOI55WhOPufFe83ED6sDmu1,html-keyboard-response,148,1422455,0.0-43.0-5.0-0.0-1.0-7.0,,,,,,,,,,,,,,,65b5a5aa458275b5740acee4,12:52:11,05/03/2024
1332.0,,,ospan,symmetry,xU7rgQOI55WhOPufFe83ED6sDmu1,symmetry-judgement-task,149,1426018,0.0-43.0-5.0-0.0-1.0-8.0,,,,,,,,,,1.0,1.0,,,,65b5a5aa458275b5740acee4,12:52:11,05/03/2024
,"<div style=""font-size: 10rem; color: #0000FF"">P</div>",,ospan,letter,xU7rgQOI55WhOPufFe83ED6sDmu1,html-keyboard-response,150,1427034,0.0-43.0-5.0-0.0-1.0-9.0,,,,,,,,,,,,,,,65b5a5aa458275b5740acee4,12:52:11,05/03/2024
1384.0,,,ospan,symmetry,xU7rgQOI55WhOPufFe83ED6sDmu1,symmetry-judgement-task,151,1430632,0.0-43.0-5.0-0.0-1.0-10.0,,,,,,,,,,1.0,1.0,,,,65b5a5aa458275b5740acee4,12:52:11,05/03/2024
,"<div style=""font-size: 10rem; color: #0000FF"">Y</div>",,ospan,letter,xU7rgQOI55WhOPufFe83ED6sDmu1,html-keyboard-response,152,1431642,0.0-43.0-5.0-0.0-1.0-11.0,,,,,,,,,,,,,,,65b5a5aa458275b5740acee4,12:52:11,05/03/2024
9510.400000035763,"<div class = numbox><p style=""font-size: 2.4rem"">Please recall the letters you saw to the best of your ability. If you do not remember a particular letter, use the SKIP button.<br><b>(When you are ready to lock in your answer, press ENTER)</b></p><button id = button_1 class = ""square num-button"" onclick = ""recordClick(this)""><div class = content><div class = numbers>C</div></div></button><button id = button_2 class = ""square num-button"" onclick = ""recordClick(this)""><div class = content><div class = numbers>G</div></div></button><button id = button_3 class = ""square num-button"" onclick = ""recordClick(this)""><div class = content><div class = numbers>H</div></div></button><button id = button_4 class = ""square num-button"" onclick = ""recordClick(this)""><div class = content><div class = numbers>J</div></div></button><button id = button_5 class = ""square num-button"" onclick = ""recordClick(this)""><div class = content><div class = numbers>K</div></div></button><button id = button_6 class = ""square num-button"" onclick = ""recordClick(this)""><div class = content><div class = numbers>L</div></div></button><button id = button_7 class = ""square num-button"" onclick = ""recordClick(this)""><div class = content><div class = numbers>N</div></div></button><button id = button_8 class = ""square num-button"" onclick = ""recordClick(this)""><div class = content><div class = numbers>P</div></div></button><button id = button_9 class = ""square num-button"" onclick = ""recordClick(this)""><div class = content><div class = numbers>Q</div></div></button><button id = button_10 class = ""square num-button"" onclick = ""recordClick(this)""><div class = content><div class = numbers>R</div></div></button><button id = button_11 class = ""square num-button"" onclick = ""recordClick(this)""><div class = content><div class = numbers>S</div></div></button><button id = button_12 class = ""square num-button"" onclick = ""recordClick(this)""><div class = content><div class = numbers>Y</div></div></button><button class = clear_button id = ""ClearButton"" onclick = ""clearResponse()"">BACKSPACE</button><button class = blank_button id = ""BlankButton"" onclick = ""blankResponse()"">SKIP</button><p style=""font-size: 2.4rem""><u><b>Current Answer:</b></u></p><br><br><div id=echoed_txt style=""font-size: 5rem; color:blue;""><b></b></div></div>",enter,ospan,retrieval,xU7rgQOI55WhOPufFe83ED6sDmu1,html-keyboard-response,153,1441920,0.0-43.0-5.0-0.0-2.0,21,16,14,6.0,"[""Q"",""J"",""K"",""S"",""P"",""Y""]","[""Q"",""J"",""K"",""S"",""P"",""Y""]",1.0,6.0,,,,,,,65b5a5aa458275b5740acee4,12:52:11,05/03/2024
3421.600000023842,[''],0,ospan,feedback,xU7rgQOI55WhOPufFe83ED6sDmu1,html-button-response,154,1445863,0.0-43.0-5.0-0.0-3.0,,,,,,,,,,,,86.0,0.0,,65b5a5aa458275b5740acee4,12:52:11,05/03/2024
,"<p style=""font-size:75px;"">...</p>",,ospan,iti,xU7rgQOI55WhOPufFe83ED6sDmu1,html-keyboard-response,155,1446885,0.0-43.0-5.0-1.0-0.0,,,,,,,,,,,,,,,65b5a5aa458275b5740acee4,12:52:11,05/03/2024
5105.0,,,ospan,symmetry,xU7rgQOI55WhOPufFe83ED6sDmu1,symmetry-judgement-task,156,1453111,0.0-43.0-5.0-1.0-1.0-0.0,,,,,,,,,,0.0,0.0,,,,65b5a5aa458275b5740acee4,12:52:11,05/03/2024
,"<div style=""font-size: 10rem; color: #0000FF"">Q</div>",,ospan,letter,xU7rgQOI55WhOPufFe83ED6sDmu1,html-keyboard-response,157,1454118,0.0-43.0-5.0-1.0-1.0-1.0,,,,,,,,,,,,,,,65b5a5aa458275b5740acee4,12:52:11,05/03/2024
2959.0,,,ospan,symmetry,xU7rgQOI55WhOPufFe83ED6sDmu1,symmetry-judgement-task,158,1459298,0.0-43.0-5.0-1.0-1.0-2.0,,,,,,,,,,1.0,1.0,,,,65b5a5aa458275b5740acee4,12:52:11,05/03/2024
,"<div style=""font-size: 10rem; color: #0000FF"">H</div>",,ospan,letter,xU7rgQOI55WhOPufFe83ED6sDmu1,html-keyboard-response,159,1460315,0.0-43.0-5.0-1.0-1.0-3.0,,,,,,,,,,,,,,,65b5a5aa458275b5740acee4,12:52:11,05/03/2024
1204.0,,,ospan,symmetry,xU7rgQOI55WhOPufFe83ED6sDmu1,symmetry-judgement-task,160,1463690,0.0-43.0-5.0-1.0-1.0-4.0,,,,,,,,,,1.0,1.0,,,,65b5a5aa458275b5740acee4,12:52:11,05/03/2024
,"<div style=""font-size: 10rem; color: #0000FF"">R</div>",,ospan,letter,xU7rgQOI55WhOPufFe83ED6sDmu1,html-keyboard-response,161,1464696,0.0-43.0-5.0-1.0-1.0-5.0,,,,,,,,,,,,,,,65b5a5aa458275b5740acee4,12:52:11,05/03/2024
1438.0,,,ospan,symmetry,xU7rgQOI55WhOPufFe83ED6sDmu1,symmetry-judgement-task,162,1468343,0.0-43.0-5.0-1.0-1.0-6.0,,,,,,,,,,1.0,1.0,,,,65b5a5aa458275b5740acee4,12:52:11,05/03/2024
,"<div style=""font-size: 10rem; color: #0000FF"">L</div>",,ospan,letter,xU7rgQOI55WhOPufFe83ED6sDmu1,html-keyboard-response,163,1469360,0.0-43.0-5.0-1.0-1.0-7.0,,,,,,,,,,,,,,,65b5a5aa458275b5740acee4,12:52:11,05/03/2024
1759.0,,,ospan,symmetry,xU7rgQOI55WhOPufFe83ED6sDmu1,symmetry-judgement-task,164,1473297,0.0-43.0-5.0-1.0-1.0-8.0,,,,,,,,,,1.0,1.0,,,,65b5a5aa458275b5740acee4,12:52:11,05/03/2024
,"<div style=""font-size: 10rem; color: #0000FF"">G</div>",,ospan,letter,xU7rgQOI55WhOPufFe83ED6sDmu1,html-keyboard-response,165,1474313,0.0-43.0-5.0-1.0-1.0-9.0,,,,,,,,,,,,,,,65b5a5aa458275b5740acee4,12:52:11,05/03/2024
4444.0,,,ospan,symmetry,xU7rgQOI55WhOPufFe83ED6sDmu1,symmetry-judgement-task,166,1480958,0.0-43.0-5.0-1.0-1.0-10.0,,,,,,,,,,0.0,0.0,,,,65b5a5aa458275b5740acee4,12:52:11,05/03/2024
,"<div style=""font-size: 10rem; color: #0000FF"">S</div>",,ospan,letter,xU7rgQOI55WhOPufFe83ED6sDmu1,html-keyboard-response,167,1481971,0.0-43.0-5.0-1.0-1.0-11.0,,,,,,,,,,,,,,,65b5a5aa458275b5740acee4,12:52:11,05/03/2024
1342.0,,,ospan,symmetry,xU7rgQOI55WhOPufFe83ED6sDmu1,symmetry-judgement-task,168,1485547,0.0-43.0-5.0-1.0-1.0-12.0,,,,,,,,,,1.0,1.0,,,,65b5a5aa458275b5740acee4,12:52:11,05/03/2024
,"<div style=""font-size: 10rem; color: #0000FF"">Y</div>",,ospan,letter,xU7rgQOI55WhOPufFe83ED6sDmu1,html-keyboard-response,169,1486563,0.0-43.0-5.0-1.0-1.0-13.0,,,,,,,,,,,,,,,65b5a5aa458275b5740acee4,12:52:11,05/03/2024
21224.600000023842,"<div class = numbox><p style=""font-size: 2.4rem"">Please recall the letters you saw to the best of your ability. If you do not remember a particular letter, use the SKIP button.<br><b>(When you are ready to lock in your answer, press ENTER)</b></p><button id = button_1 class = ""square num-button"" onclick = ""recordClick(this)""><div class = content><div class = numbers>C</div></div></button><button id = button_2 class = ""square num-button"" onclick = ""recordClick(this)""><div class = content><div class = numbers>G</div></div></button><button id = button_3 class = ""square num-button"" onclick = ""recordClick(this)""><div class = content><div class = numbers>H</div></div></button><button id = button_4 class = ""square num-button"" onclick = ""recordClick(this)""><div class = content><div class = numbers>J</div></div></button><button id = button_5 class = ""square num-button"" onclick = ""recordClick(this)""><div class = content><div class = numbers>K</div></div></button><button id = button_6 class = ""square num-button"" onclick = ""recordClick(this)""><div class = content><div class = numbers>L</div></div></button><button id = button_7 class = ""square num-button"" onclick = ""recordClick(this)""><div class = content><div class = numbers>N</div></div></button><button id = button_8 class = ""square num-button"" onclick = ""recordClick(this)""><div class = content><div class = numbers>P</div></div></button><button id = button_9 class = ""square num-button"" onclick = ""recordClick(this)""><div class = content><div class = numbers>Q</div></div></button><button id = button_10 class = ""square num-button"" onclick = ""recordClick(this)""><div class = content><div class = numbers>R</div></div></button><button id = button_11 class = ""square num-button"" onclick = ""recordClick(this)""><div class = content><div class = numbers>S</div></div></button><button id = button_12 class = ""square num-button"" onclick = ""recordClick(this)""><div class = content><div class = numbers>Y</div></div></button><button class = clear_button id = ""ClearButton"" onclick = ""clearResponse()"">BACKSPACE</button><button class = blank_button id = ""BlankButton"" onclick = ""blankResponse()"">SKIP</button><p style=""font-size: 2.4rem""><u><b>Current Answer:</b></u></p><br><br><div id=echoed_txt style=""font-size: 5rem; color:blue;""><b></b></div></div>",enter,ospan,retrieval,xU7rgQOI55WhOPufFe83ED6sDmu1,html-keyboard-response,170,1508556,0.0-43.0-5.0-1.0-2.0,28,23,21,7.0,"[""Q"",""H"",""R"",""L"",""G"",""S"",""Y""]","[""Q"",""H"",""R"",""L"",""G"",""S"",""Y""]",1.0,7.0,,,,,,,65b5a5aa458275b5740acee4,12:52:11,05/03/2024
1299.800000011921,"['<p style=""font-size: 3.75rem"">Low symmetry accuracy!<br><br><br><font color=""purple"">82%</font><br><br></p>']",0,ospan,feedback,xU7rgQOI55WhOPufFe83ED6sDmu1,html-button-response,171,1510360,0.0-43.0-5.0-1.0-3.0,,,,,,,,,,,,82.0,1.0,,65b5a5aa458275b5740acee4,12:52:11,05/03/2024
,"<p style=""font-size:75px;"">...</p>",,ospan,iti,xU7rgQOI55WhOPufFe83ED6sDmu1,html-keyboard-response,172,1511377,0.0-43.0-6.0-0.0-0.0,,,,,,,,,,,,,,,65b5a5aa458275b5740acee4,12:52:11,05/03/2024
2815.0,,,ospan,symmetry,xU7rgQOI55WhOPufFe83ED6sDmu1,symmetry-judgement-task,173,1515694,0.0-43.0-6.0-0.0-1.0-0.0,,,,,,,,,,1.0,1.0,,,,65b5a5aa458275b5740acee4,12:52:11,05/03/2024
,"<div style=""font-size: 10rem; color: #0000FF"">L</div>",,ospan,letter,xU7rgQOI55WhOPufFe83ED6sDmu1,html-keyboard-response,174,1516699,0.0-43.0-6.0-0.0-1.0-1.0,,,,,,,,,,,,,,,65b5a5aa458275b5740acee4,12:52:11,05/03/2024
2812.0,,,ospan,symmetry,xU7rgQOI55WhOPufFe83ED6sDmu1,symmetry-judgement-task,175,1521710,0.0-43.0-6.0-0.0-1.0-2.0,,,,,,,,,,1.0,1.0,,,,65b5a5aa458275b5740acee4,12:52:11,05/03/2024
,"<div style=""font-size: 10rem; color: #0000FF"">K</div>",,ospan,letter,xU7rgQOI55WhOPufFe83ED6sDmu1,html-keyboard-response,176,1522738,0.0-43.0-6.0-0.0-1.0-3.0,,,,,,,,,,,,,,,65b5a5aa458275b5740acee4,12:52:11,05/03/2024
1854.0,,,ospan,symmetry,xU7rgQOI55WhOPufFe83ED6sDmu1,symmetry-judgement-task,177,1526775,0.0-43.0-6.0-0.0-1.0-4.0,,,,,,,,,,1.0,1.0,,,,65b5a5aa458275b5740acee4,12:52:11,05/03/2024
,"<div style=""font-size: 10rem; color: #0000FF"">R</div>",,ospan,letter,xU7rgQOI55WhOPufFe83ED6sDmu1,html-keyboard-response,178,1527791,0.0-43.0-6.0-0.0-1.0-5.0,,,,,,,,,,,,,,,65b5a5aa458275b5740acee4,12:52:11,05/03/2024
1645.0,,,ospan,symmetry,xU7rgQOI55WhOPufFe83ED6sDmu1,symmetry-judgement-task,179,1531673,0.0-43.0-6.0-0.0-1.0-6.0,,,,,,,,,,1.0,1.0,,,,65b5a5aa458275b5740acee4,12:52:11,05/03/2024
,"<div style=""font-size: 10rem; color: #0000FF"">J</div>",,ospan,letter,xU7rgQOI55WhOPufFe83ED6sDmu1,html-keyboard-response,180,1532688,0.0-43.0-6.0-0.0-1.0-7.0,,,,,,,,,,,,,,,65b5a5aa458275b5740acee4,12:52:11,05/03/2024
1204.0,,,ospan,symmetry,xU7rgQOI55WhOPufFe83ED6sDmu1,symmetry-judgement-task,181,1536095,0.0-43.0-6.0-0.0-1.0-8.0,,,,,,,,,,1.0,1.0,,,,65b5a5aa458275b5740acee4,12:52:11,05/03/2024
,"<div style=""font-size: 10rem; color: #0000FF"">C</div>",,ospan,letter,xU7rgQOI55WhOPufFe83ED6sDmu1,html-keyboard-response,182,1537111,0.0-43.0-6.0-0.0-1.0-9.0,,,,,,,,,,,,,,,65b5a5aa458275b5740acee4,12:52:11,05/03/2024
10314.899999976158,"<div class = numbox><p style=""font-size: 2.4rem"">Please recall the letters you saw to the best of your ability. If you do not remember a particular letter, use the SKIP button.<br><b>(When you are ready to lock in your answer, press ENTER)</b></p><button id = button_1 class = ""square num-button"" onclick = ""recordClick(this)""><div class = content><div class = numbers>C</div></div></button><button id = button_2 class = ""square num-button"" onclick = ""recordClick(this)""><div class = content><div class = numbers>G</div></div></button><button id = button_3 class = ""square num-button"" onclick = ""recordClick(this)""><div class = content><div class = numbers>H</div></div></button><button id = button_4 class = ""square num-button"" onclick = ""recordClick(this)""><div class = content><div class = numbers>J</div></div></button><button id = button_5 class = ""square num-button"" onclick = ""recordClick(this)""><div class = content><div class = numbers>K</div></div></button><button id = button_6 class = ""square num-button"" onclick = ""recordClick(this)""><div class = content><div class = numbers>L</div></div></button><button id = button_7 class = ""square num-button"" onclick = ""recordClick(this)""><div class = content><div class = numbers>N</div></div></button><button id = button_8 class = ""square num-button"" onclick = ""recordClick(this)""><div class = content><div class = numbers>P</div></div></button><button id = button_9 class = ""square num-button"" onclick = ""recordClick(this)""><div class = content><div class = numbers>Q</div></div></button><button id = button_10 class = ""square num-button"" onclick = ""recordClick(this)""><div class = content><div class = numbers>R</div></div></button><button id = button_11 class = ""square num-button"" onclick = ""recordClick(this)""><div class = content><div class = numbers>S</div></div></button><button id = button_12 class = ""square num-button"" onclick = ""recordClick(this)""><div class = content><div class = numbers>Y</div></div></button><button class = clear_button id = ""ClearButton"" onclick = ""clearResponse()"">BACKSPACE</button><button class = blank_button id = ""BlankButton"" onclick = ""blankResponse()"">SKIP</button><p style=""font-size: 2.4rem""><u><b>Current Answer:</b></u></p><br><br><div id=echoed_txt style=""font-size: 5rem; color:blue;""><b></b></div></div>",enter,ospan,retrieval,xU7rgQOI55WhOPufFe83ED6sDmu1,html-keyboard-response,183,1548186,0.0-43.0-6.0-0.0-2.0,33,28,26,5.0,"[""L"",""K"",""R"",""J"",""C""]","[""L"",""K"",""R"",""J"",""C""]",1.0,5.0,,,,,,,65b5a5aa458275b5740acee4,12:52:11,05/03/2024
2970.199999988079,[''],0,ospan,feedback,xU7rgQOI55WhOPufFe83ED6sDmu1,html-button-response,184,1551677,0.0-43.0-6.0-0.0-3.0,,,,,,,,,,,,85.0,0.0,,65b5a5aa458275b5740acee4,12:52:11,05/03/2024
,"<p style=""font-size:75px;"">...</p>",,ospan,iti,xU7rgQOI55WhOPufFe83ED6sDmu1,html-keyboard-response,185,1552689,0.0-43.0-6.0-1.0-0.0,,,,,,,,,,,,,,,65b5a5aa458275b5740acee4,12:52:11,05/03/2024
2238.0,,,ospan,symmetry,xU7rgQOI55WhOPufFe83ED6sDmu1,symmetry-judgement-task,186,1556392,0.0-43.0-6.0-1.0-1.0-0.0,,,,,,,,,,1.0,1.0,,,,65b5a5aa458275b5740acee4,12:52:11,05/03/2024
,"<div style=""font-size: 10rem; color: #0000FF"">L</div>",,ospan,letter,xU7rgQOI55WhOPufFe83ED6sDmu1,html-keyboard-response,187,1557406,0.0-43.0-6.0-1.0-1.0-1.0,,,,,,,,,,,,,,,65b5a5aa458275b5740acee4,12:52:11,05/03/2024
4497.0,,,ospan,symmetry,xU7rgQOI55WhOPufFe83ED6sDmu1,symmetry-judgement-task,188,1564125,0.0-43.0-6.0-1.0-1.0-2.0,,,,,,,,,,1.0,1.0,,,,65b5a5aa458275b5740acee4,12:52:11,05/03/2024
,"<div style=""font-size: 10rem; color: #0000FF"">K</div>",,ospan,letter,xU7rgQOI55WhOPufFe83ED6sDmu1,html-keyboard-response,189,1565140,0.0-43.0-6.0-1.0-1.0-3.0,,,,,,,,,,,,,,,65b5a5aa458275b5740acee4,12:52:11,05/03/2024
3536.0,,,ospan,symmetry,xU7rgQOI55WhOPufFe83ED6sDmu1,symmetry-judgement-task,190,1570880,0.0-43.0-6.0-1.0-1.0-4.0,,,,,,,,,,1.0,1.0,,,,65b5a5aa458275b5740acee4,12:52:11,05/03/2024
,"<div style=""font-size: 10rem; color: #0000FF"">G</div>",,ospan,letter,xU7rgQOI55WhOPufFe83ED6sDmu1,html-keyboard-response,191,1571899,0.0-43.0-6.0-1.0-1.0-5.0,,,,,,,,,,,,,,,65b5a5aa458275b5740acee4,12:52:11,05/03/2024
1271.0,,,ospan,symmetry,xU7rgQOI55WhOPufFe83ED6sDmu1,symmetry-judgement-task,192,1575423,0.0-43.0-6.0-1.0-1.0-6.0,,,,,,,,,,1.0,1.0,,,,65b5a5aa458275b5740acee4,12:52:11,05/03/2024
,"<div style=""font-size: 10rem; color: #0000FF"">Y</div>",,ospan,letter,xU7rgQOI55WhOPufFe83ED6sDmu1,html-keyboard-response,193,1576431,0.0-43.0-6.0-1.0-1.0-7.0,,,,,,,,,,,,,,,65b5a5aa458275b5740acee4,12:52:11,05/03/2024
2702.0,,,ospan,symmetry,xU7rgQOI55WhOPufFe83ED6sDmu1,symmetry-judgement-task,194,1581312,0.0-43.0-6.0-1.0-1.0-8.0,,,,,,,,,,1.0,1.0,,,,65b5a5aa458275b5740acee4,12:52:11,05/03/2024
,"<div style=""font-size: 10rem; color: #0000FF"">N</div>",,ospan,letter,xU7rgQOI55WhOPufFe83ED6sDmu1,html-keyboard-response,195,1582330,0.0-43.0-6.0-1.0-1.0-9.0,,,,,,,,,,,,,,,65b5a5aa458275b5740acee4,12:52:11,05/03/2024
3032.0,,,ospan,symmetry,xU7rgQOI55WhOPufFe83ED6sDmu1,symmetry-judgement-task,196,1587581,0.0-43.0-6.0-1.0-1.0-10.0,,,,,,,,,,1.0,1.0,,,,65b5a5aa458275b5740acee4,12:52:11,05/03/2024
,"<div style=""font-size: 10rem; color: #0000FF"">J</div>",,ospan,letter,xU7rgQOI55WhOPufFe83ED6sDmu1,html-keyboard-response,197,1588586,0.0-43.0-6.0-1.0-1.0-11.0,,,,,,,,,,,,,,,65b5a5aa458275b5740acee4,12:52:11,05/03/2024
2335.0,,,ospan,symmetry,xU7rgQOI55WhOPufFe83ED6sDmu1,symmetry-judgement-task,198,1593140,0.0-43.0-6.0-1.0-1.0-12.0,,,,,,,,,,1.0,1.0,,,,65b5a5aa458275b5740acee4,12:52:11,05/03/2024
,"<div style=""font-size: 10rem; color: #0000FF"">R</div>",,ospan,letter,xU7rgQOI55WhOPufFe83ED6sDmu1,html-keyboard-response,199,1594156,0.0-43.0-6.0-1.0-1.0-13.0,,,,,,,,,,,,,,,65b5a5aa458275b5740acee4,12:52:11,05/03/2024
3100.0,,,ospan,symmetry,xU7rgQOI55WhOPufFe83ED6sDmu1,symmetry-judgement-task,200,1599531,0.0-43.0-6.0-1.0-1.0-14.0,,,,,,,,,,1.0,1.0,,,,65b5a5aa458275b5740acee4,12:52:11,05/03/2024
,"<div style=""font-size: 10rem; color: #0000FF"">S</div>",,ospan,letter,xU7rgQOI55WhOPufFe83ED6sDmu1,html-keyboard-response,201,1600546,0.0-43.0-6.0-1.0-1.0-15.0,,,,,,,,,,,,,,,65b5a5aa458275b5740acee4,12:52:11,05/03/2024
28165.600000023842,"<div class = numbox><p style=""font-size: 2.4rem"">Please recall the letters you saw to the best of your ability. If you do not remember a particular letter, use the SKIP button.<br><b>(When you are ready to lock in your answer, press ENTER)</b></p><button id = button_1 class = ""square num-button"" onclick = ""recordClick(this)""><div class = content><div class = numbers>C</div></div></button><button id = button_2 class = ""square num-button"" onclick = ""recordClick(this)""><div class = content><div class = numbers>G</div></div></button><button id = button_3 class = ""square num-button"" onclick = ""recordClick(this)""><div class = content><div class = numbers>H</div></div></button><button id = button_4 class = ""square num-button"" onclick = ""recordClick(this)""><div class = content><div class = numbers>J</div></div></button><button id = button_5 class = ""square num-button"" onclick = ""recordClick(this)""><div class = content><div class = numbers>K</div></div></button><button id = button_6 class = ""square num-button"" onclick = ""recordClick(this)""><div class = content><div class = numbers>L</div></div></button><button id = button_7 class = ""square num-button"" onclick = ""recordClick(this)""><div class = content><div class = numbers>N</div></div></button><button id = button_8 class = ""square num-button"" onclick = ""recordClick(this)""><div class = content><div class = numbers>P</div></div></button><button id = button_9 class = ""square num-button"" onclick = ""recordClick(this)""><div class = content><div class = numbers>Q</div></div></button><button id = button_10 class = ""square num-button"" onclick = ""recordClick(this)""><div class = content><div class = numbers>R</div></div></button><button id = button_11 class = ""square num-button"" onclick = ""recordClick(this)""><div class = content><div class = numbers>S</div></div></button><button id = button_12 class = ""square num-button"" onclick = ""recordClick(this)""><div class = content><div class = numbers>Y</div></div></button><button class = clear_button id = ""ClearButton"" onclick = ""clearResponse()"">BACKSPACE</button><button class = blank_button id = ""BlankButton"" onclick = ""blankResponse()"">SKIP</button><p style=""font-size: 2.4rem""><u><b>Current Answer:</b></u></p><br><br><div id=echoed_txt style=""font-size: 5rem; color:blue;""><b></b></div></div>",enter,ospan,retrieval,xU7rgQOI55WhOPufFe83ED6sDmu1,html-keyboard-response,202,1629474,0.0-43.0-6.0-1.0-2.0,41,36,34,8.0,"[""L"",""K"",""G"",""Y"",""N"",""J"",""R"",""S""]","[""L"",""K"",""G"",""Y"",""N"",""J"",""R"",""S""]",1.0,8.0,,,,,,,65b5a5aa458275b5740acee4,12:52:11,05/03/2024
3038.600000023842,[''],0,ospan,feedback,xU7rgQOI55WhOPufFe83ED6sDmu1,html-button-response,203,1633027,0.0-43.0-6.0-1.0-3.0,,,,,,,,,,,,88.0,0.0,,65b5a5aa458275b5740acee4,12:52:11,05/03/2024
41630.5,,{'Q0': 'I enjoyed memorizing the alphabets shown.'},ospan,survey_ospan,xU7rgQOI55WhOPufFe83ED6sDmu1,lmdlab-survey-text,204,1675424,0.0-43.0-7.0,,,,,,,,,,,,,,xU7rgQOI55WhOPufFe83ED6sDmu1,65b5a5aa458275b5740acee4,12:52:11,05/03/2024
1996.1000000238419,<p><p style='font-size: 3rem'>Great work!<br><br>This completes the symmetry and memory task.</p><br><br><br>,0,ospan,finish,xU7rgQOI55WhOPufFe83ED6sDmu1,html-button-response,205,1677430,0.0-43.0-8.0,41,36,34,,,,,,,,,88.0,,,65b5a5aa458275b5740acee4,12:52:11,05/03/2024
