rt,stimulus,response,exp_name,exp_stage,subjectID,trial_type,trial_index,time_elapsed,internal_node_id,ospan_shown,ospan_total,ospan_abs,length,resp_actual,resp_correct,full_correct,num_correct,feedback,accuracy,correct,math_acc,math_warning,databaseID,prolificID,start_time,date
1697.6000000238419,<div class = 'left_align' style='font-size: 3.25rem; line-height: 1.3;'><p class = 'center_align'><b>Welcome to the Symmetry and Memory Task</b><br><br><br><br></p>Press 'continue' to show the instructions.<br><br><br><br></div>,0,ospan,instruct,Gxom0sLTq4fBkj5dnNnroWB679f1,html-button-response,51,464755,0.0-43.0-0.0-0.0-0.0,,,,,,,,,,,,,,,5ba91985c4da2d00015d4a11,22:49:48,06/03/2024
5811.100000023842,"<div class = 'left_align' style='font-size: 3.25rem; line-height: 1.3;'><p class = 'center_align'><b>Symmetry and Memory Task</b><br><br></p>In this task, you will try to memorize letters you see on the screen<br>while you also view black and white grid pictures.<br><br>In the next few minutes, you will have some practice to get you familiar<br>with how the task works.<br><br>It may be difficult sometimes, but please do not worry about making mistakes!<br><br>We will begin by practicing the letter part of the task.<br><br><br><br></div>",0,ospan,instruct,Gxom0sLTq4fBkj5dnNnroWB679f1,html-button-response,52,470825,0.0-43.0-0.0-0.0-1.0,,,,,,,,,,,,,,,5ba91985c4da2d00015d4a11,22:49:48,06/03/2024
5718.0,"<div class = 'left_align' style='font-size: 3.25rem; line-height: 1.3;'>For this practice part, letters will appear on the screen one at a time.<br><br>Try to remember each letter in the order presented.<br><br>After some letters have been shown, you will see a response screen. Your<br>goal is to report the letters you saw <b>in order</b>. If you do not remember<br>a particular letter, you will have the option to leave it blank.<br><br><br><br></div>",0,ospan,instruct,Gxom0sLTq4fBkj5dnNnroWB679f1,html-button-response,53,476813,0.0-43.0-0.0-0.0-2.0,,,,,,,,,,,,,,,5ba91985c4da2d00015d4a11,22:49:48,06/03/2024
4825.5,"<div class = 'left_align' style='font-size: 3.25rem; line-height: 1.3;'>Remember, it is very important to get the letters in the same<br>order as you see them.<br><br>When you are ready, you may begin the letter practice.</div><br><br><br><br>",0,ospan,instruct,Gxom0sLTq4fBkj5dnNnroWB679f1,html-button-response,54,481905,0.0-43.0-0.0-0.0-3.0,,,,,,,,,,,,,,,5ba91985c4da2d00015d4a11,22:49:48,06/03/2024
,"<p style=""font-size:75px;"">...</p>",,ospan,iti,Gxom0sLTq4fBkj5dnNnroWB679f1,html-keyboard-response,55,483181,0.0-43.0-0.0-1.0-0.0,,,,,,,,,,,,,,,5ba91985c4da2d00015d4a11,22:49:48,06/03/2024
,"<div style=""font-size: 10rem; color: #0000FF"">L</div>",,ospan,letter,Gxom0sLTq4fBkj5dnNnroWB679f1,html-keyboard-response,56,484193,0.0-43.0-0.0-1.0-1.0,,,,,,,,,,,,,,,5ba91985c4da2d00015d4a11,22:49:48,06/03/2024
,"<div style=""font-size: 10rem; color: #0000FF"">P</div>",,ospan,letter,Gxom0sLTq4fBkj5dnNnroWB679f1,html-keyboard-response,57,485967,0.0-43.0-0.0-1.0-2.0,,,,,,,,,,,,,,,5ba91985c4da2d00015d4a11,22:49:48,06/03/2024
7120.5,"<div class = numbox><p style=""font-size: 2.4rem"">Please recall the letters you saw to the best of your ability. If you do not remember a particular letter, use the SKIP button.<br><b>(When you are ready to lock in your answer, press ENTER)</b></p><button id = button_1 class = ""square num-button"" onclick = ""recordClick(this)""><div class = content><div class = numbers>C</div></div></button><button id = button_2 class = ""square num-button"" onclick = ""recordClick(this)""><div class = content><div class = numbers>G</div></div></button><button id = button_3 class = ""square num-button"" onclick = ""recordClick(this)""><div class = content><div class = numbers>H</div></div></button><button id = button_4 class = ""square num-button"" onclick = ""recordClick(this)""><div class = content><div class = numbers>J</div></div></button><button id = button_5 class = ""square num-button"" onclick = ""recordClick(this)""><div class = content><div class = numbers>K</div></div></button><button id = button_6 class = ""square num-button"" onclick = ""recordClick(this)""><div class = content><div class = numbers>L</div></div></button><button id = button_7 class = ""square num-button"" onclick = ""recordClick(this)""><div class = content><div class = numbers>N</div></div></button><button id = button_8 class = ""square num-button"" onclick = ""recordClick(this)""><div class = content><div class = numbers>P</div></div></button><button id = button_9 class = ""square num-button"" onclick = ""recordClick(this)""><div class = content><div class = numbers>Q</div></div></button><button id = button_10 class = ""square num-button"" onclick = ""recordClick(this)""><div class = content><div class = numbers>R</div></div></button><button id = button_11 class = ""square num-button"" onclick = ""recordClick(this)""><div class = content><div class = numbers>S</div></div></button><button id = button_12 class = ""square num-button"" onclick = ""recordClick(this)""><div class = content><div class = numbers>Y</div></div></button><button class = clear_button id = ""ClearButton"" onclick = ""clearResponse()"">BACKSPACE</button><button class = blank_button id = ""BlankButton"" onclick = ""blankResponse()"">SKIP</button><p style=""font-size: 2.4rem""><u><b>Current Answer:</b></u></p><br><br><div id=echoed_txt style=""font-size: 5rem; color:blue;""><b></b></div></div>",enter,ospan,retrieval,Gxom0sLTq4fBkj5dnNnroWB679f1,html-keyboard-response,58,493852,0.0-43.0-0.0-1.0-3.0,NA,NA,NA,2.0,"[""L"",""P""]","[""L"",""P""]",1.0,2.0,"['<font color=""green"">L</font>', '<font color=""green"">P</font>']",,,,,,5ba91985c4da2d00015d4a11,22:49:48,06/03/2024
4648.100000023842,"['<p style=""font-size:44px"">Letters:<br><br><br><font color=""green"">L</font> <font color=""green"">P</font></p><br><br>']",0,ospan,practice_feedback,Gxom0sLTq4fBkj5dnNnroWB679f1,html-button-response,59,499019,0.0-43.0-0.0-1.0-4.0,,,,,,,,,,,,,,,5ba91985c4da2d00015d4a11,22:49:48,06/03/2024
,"<p style=""font-size:75px;"">...</p>",,ospan,iti,Gxom0sLTq4fBkj5dnNnroWB679f1,html-keyboard-response,60,500036,0.0-43.0-0.0-2.0-0.0,,,,,,,,,,,,,,,5ba91985c4da2d00015d4a11,22:49:48,06/03/2024
,"<div style=""font-size: 10rem; color: #0000FF"">J</div>",,ospan,letter,Gxom0sLTq4fBkj5dnNnroWB679f1,html-keyboard-response,61,501050,0.0-43.0-0.0-2.0-1.0,,,,,,,,,,,,,,,5ba91985c4da2d00015d4a11,22:49:48,06/03/2024
,"<div style=""font-size: 10rem; color: #0000FF"">G</div>",,ospan,letter,Gxom0sLTq4fBkj5dnNnroWB679f1,html-keyboard-response,62,502825,0.0-43.0-0.0-2.0-2.0,,,,,,,,,,,,,,,5ba91985c4da2d00015d4a11,22:49:48,06/03/2024
,"<div style=""font-size: 10rem; color: #0000FF"">P</div>",,ospan,letter,Gxom0sLTq4fBkj5dnNnroWB679f1,html-keyboard-response,63,504605,0.0-43.0-0.0-2.0-3.0,,,,,,,,,,,,,,,5ba91985c4da2d00015d4a11,22:49:48,06/03/2024
6262.199999928474,"<div class = numbox><p style=""font-size: 2.4rem"">Please recall the letters you saw to the best of your ability. If you do not remember a particular letter, use the SKIP button.<br><b>(When you are ready to lock in your answer, press ENTER)</b></p><button id = button_1 class = ""square num-button"" onclick = ""recordClick(this)""><div class = content><div class = numbers>C</div></div></button><button id = button_2 class = ""square num-button"" onclick = ""recordClick(this)""><div class = content><div class = numbers>G</div></div></button><button id = button_3 class = ""square num-button"" onclick = ""recordClick(this)""><div class = content><div class = numbers>H</div></div></button><button id = button_4 class = ""square num-button"" onclick = ""recordClick(this)""><div class = content><div class = numbers>J</div></div></button><button id = button_5 class = ""square num-button"" onclick = ""recordClick(this)""><div class = content><div class = numbers>K</div></div></button><button id = button_6 class = ""square num-button"" onclick = ""recordClick(this)""><div class = content><div class = numbers>L</div></div></button><button id = button_7 class = ""square num-button"" onclick = ""recordClick(this)""><div class = content><div class = numbers>N</div></div></button><button id = button_8 class = ""square num-button"" onclick = ""recordClick(this)""><div class = content><div class = numbers>P</div></div></button><button id = button_9 class = ""square num-button"" onclick = ""recordClick(this)""><div class = content><div class = numbers>Q</div></div></button><button id = button_10 class = ""square num-button"" onclick = ""recordClick(this)""><div class = content><div class = numbers>R</div></div></button><button id = button_11 class = ""square num-button"" onclick = ""recordClick(this)""><div class = content><div class = numbers>S</div></div></button><button id = button_12 class = ""square num-button"" onclick = ""recordClick(this)""><div class = content><div class = numbers>Y</div></div></button><button class = clear_button id = ""ClearButton"" onclick = ""clearResponse()"">BACKSPACE</button><button class = blank_button id = ""BlankButton"" onclick = ""blankResponse()"">SKIP</button><p style=""font-size: 2.4rem""><u><b>Current Answer:</b></u></p><br><br><div id=echoed_txt style=""font-size: 5rem; color:blue;""><b></b></div></div>",enter,ospan,retrieval,Gxom0sLTq4fBkj5dnNnroWB679f1,html-keyboard-response,64,511632,0.0-43.0-0.0-2.0-4.0,NA,NA,NA,3.0,"[""J"",""G"",""P""]","[""J"",""G"",""P""]",1.0,3.0,"['<font color=""green"">J</font>', '<font color=""green"">G</font>', '<font color=""green"">P</font>']",,,,,,5ba91985c4da2d00015d4a11,22:49:48,06/03/2024
1838.6999999284744,"['<p style=""font-size:44px"">Letters:<br><br><br><font color=""green"">J</font> <font color=""green"">G</font> <font color=""green"">P</font></p><br><br>']",0,ospan,practice_feedback,Gxom0sLTq4fBkj5dnNnroWB679f1,html-button-response,65,513984,0.0-43.0-0.0-2.0-5.0,,,,,,,,,,,,,,,5ba91985c4da2d00015d4a11,22:49:48,06/03/2024
255024.79999995232,"<div class = 'left_align' style='font-size: 3.25rem; line-height: 1.3;'>Now you will practice doing the <b>symmetry judgment part</b> of the experiment.<br><br>A black and white grid picture will appear on the screen and you have to judge if it is <br>symmetrical or asymetrical.<br><br>A picture is 'mirror' symmetrical if its left half is identical to the right half when flipped.<br>Here are examples of a symmetrical and an asymetrical picture:<br><br><center><img src='Stimuli/img/symm_instructions_extra.png' style='height:420px; width:900'></img></center><br>To judge symmetry, imagine you were to fold each picture down the middle, like a book –<br>would the left half match the right half when folded onto each other?<br><br></div><br>",0,ospan,instruct,Gxom0sLTq4fBkj5dnNnroWB679f1,html-button-response,66,769011,0.0-43.0-1.0-0.0-0.0,,,,,,,,,,,,,,,5ba91985c4da2d00015d4a11,22:49:48,06/03/2024
5066.5,"<div class = 'left_align' style='font-size: 3.25rem; line-height: 1.3;'>When you have viewed the picture and determined whether it is symmetrical or not,<br>you can <b>click the Yes or No button</b> below to answer.<br><br>If you take longer than 15 seconds, it will continue automatically<br>and record the answer as an error.</div><br>",0,ospan,instruct,Gxom0sLTq4fBkj5dnNnroWB679f1,html-button-response,67,774329,0.0-43.0-1.0-0.0-1.0,,,,,,,,,,,,,,,5ba91985c4da2d00015d4a11,22:49:48,06/03/2024
1568.5999999046326,"<div class = 'left_align' style='font-size: 3.25rem; line-height: 1.3;'>It is <b>very</b> important that you make the symmetry judgment correctly.<br><br>It is also important that you try and judge the picture as quickly as you can.<br><br>When you are ready, click on the button below to try some practice problems.</div><br><br><br><br>",0,ospan,instruct,Gxom0sLTq4fBkj5dnNnroWB679f1,html-button-response,68,776153,0.0-43.0-1.0-0.0-2.0,,,,,,,,,,,,,,,5ba91985c4da2d00015d4a11,22:49:48,06/03/2024
2713.0,,,ospan,symmetry,Gxom0sLTq4fBkj5dnNnroWB679f1,symmetry-judgement-task,69,779667,0.0-43.0-1.0-1.0-0.0,,,,,,,,,,1.0,1.0,,,,5ba91985c4da2d00015d4a11,22:49:48,06/03/2024
,"<p style=""color:green; font-size: 35px"">Correct</p>",,ospan,feedback,Gxom0sLTq4fBkj5dnNnroWB679f1,html-keyboard-response,70,780431,0.0-43.0-1.0-1.0-1.0,,,,,,,,,,,,,,,5ba91985c4da2d00015d4a11,22:49:48,06/03/2024
4000.0,,,ospan,symmetry,Gxom0sLTq4fBkj5dnNnroWB679f1,symmetry-judgement-task,71,787023,0.0-43.0-1.0-1.0-2.0,,,,,,,,,,1.0,1.0,,,,5ba91985c4da2d00015d4a11,22:49:48,06/03/2024
,"<p style=""color:green; font-size: 35px"">Correct</p>",,ospan,feedback,Gxom0sLTq4fBkj5dnNnroWB679f1,html-keyboard-response,72,787788,0.0-43.0-1.0-1.0-3.0,,,,,,,,,,,,,,,5ba91985c4da2d00015d4a11,22:49:48,06/03/2024
1581.0,,,ospan,symmetry,Gxom0sLTq4fBkj5dnNnroWB679f1,symmetry-judgement-task,73,791976,0.0-43.0-1.0-1.0-4.0,,,,,,,,,,1.0,1.0,,,,5ba91985c4da2d00015d4a11,22:49:48,06/03/2024
,"<p style=""color:green; font-size: 35px"">Correct</p>",,ospan,feedback,Gxom0sLTq4fBkj5dnNnroWB679f1,html-keyboard-response,74,792737,0.0-43.0-1.0-1.0-5.0,,,,,,,,,,,,,,,5ba91985c4da2d00015d4a11,22:49:48,06/03/2024
2197.399999976158,"<p style=""font-size: 3rem;"">You responded correctly on 3 of 3 symmetry judgments. Good job!</p><br><br>",0,ospan,practice,Gxom0sLTq4fBkj5dnNnroWB679f1,html-button-response,75,796941,0.0-43.0-1.0-2.0,,,,,,,,,,,,,,,5ba91985c4da2d00015d4a11,22:49:48,06/03/2024
8277.900000095367,"<div class = 'left_align' style='font-size: 3.25rem; line-height: 1.3;'>Now you will practice doing both parts of the experiment at the same time.<br><br>In the next practice set, you will be given one grid picture to judge.<br>Then letter will appear on the screen. Try to remember the letter.<br><br>It is <b>very important</b> to make the symmetry judgment as quickly and accurately as possible.<br><br>Just as before, once you have make the symmetry judgment, you can click Yes or No.<br><b>Note that you will no longer see Correct or Incorrect feedback.</div><br><br><br><br>",0,ospan,instruct,Gxom0sLTq4fBkj5dnNnroWB679f1,html-button-response,76,805474,0.0-43.0-2.0-0.0-0.0,,,,,,,,,,,,,,,5ba91985c4da2d00015d4a11,22:49:48,06/03/2024
2902.899999976158,"<div class = 'left_align' style='font-size: 3.25rem; line-height: 1.3;'>After the letter goes away, another grid picture will appear, and then<br>another letter.<br><br>At the end of each set of letters and grids, you will recall the letters to the best<br>of your ability. Remember, try your best to get the letters in the correct order.<br><br>It is important to <b>quickly</b> and <b>accurately</b> make the symmetry judgments.</div><br><br><br><br>",0,ospan,instruct,Gxom0sLTq4fBkj5dnNnroWB679f1,html-button-response,77,808633,0.0-43.0-2.0-0.0-1.0,,,,,,,,,,,,,,,5ba91985c4da2d00015d4a11,22:49:48,06/03/2024
1494.4000000953674,"<div class = 'left_align' style='font-size: 3.25rem; line-height: 1.3;'>On the feedback screen, if you are not doing well at the symmetry judgments,<br>you will also see a warning in the middle. This indicates your percent <br>correct for the grid pictures for the entire experiment.<br><br>It is <b>very</b> important for you to keep accuracy at least at 85%: <u>We can only use<br>data where the participant was at least 85% accurate on the judgments.</u> Therefore,<br> please try your best to perform well on the symmetry judgments, <b>at the same time</b><br>doing your best to recall as many letters as possible.<br><br>Click the button to try some practice problems.</div><br><br><br><br>",0,ospan,instruct,Gxom0sLTq4fBkj5dnNnroWB679f1,html-button-response,78,810387,0.0-43.0-2.0-0.0-2.0,,,,,,,,,,,,,,,5ba91985c4da2d00015d4a11,22:49:48,06/03/2024
,"<p style=""font-size:75px;"">...</p>",,ospan,iti,Gxom0sLTq4fBkj5dnNnroWB679f1,html-keyboard-response,79,811662,0.0-43.0-2.0-1.0-0.0,,,,,,,,,,,,,,,5ba91985c4da2d00015d4a11,22:49:48,06/03/2024
1838.0,,,ospan,symmetry,Gxom0sLTq4fBkj5dnNnroWB679f1,symmetry-judgement-task,80,814587,0.0-43.0-2.0-1.0-1.0-0.0,,,,,,,,,,1.0,1.0,,,,5ba91985c4da2d00015d4a11,22:49:48,06/03/2024
,"<div style=""font-size: 10rem; color: #0000FF"">N</div>",,ospan,letter,Gxom0sLTq4fBkj5dnNnroWB679f1,html-keyboard-response,81,815598,0.0-43.0-2.0-1.0-1.0-1.0,,,,,,,,,,,,,,,5ba91985c4da2d00015d4a11,22:49:48,06/03/2024
1912.0,,,ospan,symmetry,Gxom0sLTq4fBkj5dnNnroWB679f1,symmetry-judgement-task,82,819351,0.0-43.0-2.0-1.0-1.0-2.0,,,,,,,,,,1.0,1.0,,,,5ba91985c4da2d00015d4a11,22:49:48,06/03/2024
,"<div style=""font-size: 10rem; color: #0000FF"">L</div>",,ospan,letter,Gxom0sLTq4fBkj5dnNnroWB679f1,html-keyboard-response,83,820363,0.0-43.0-2.0-1.0-1.0-3.0,,,,,,,,,,,,,,,5ba91985c4da2d00015d4a11,22:49:48,06/03/2024
1344.0,,,ospan,symmetry,Gxom0sLTq4fBkj5dnNnroWB679f1,symmetry-judgement-task,84,823569,0.0-43.0-2.0-1.0-1.0-4.0,,,,,,,,,,1.0,1.0,,,,5ba91985c4da2d00015d4a11,22:49:48,06/03/2024
,"<div style=""font-size: 10rem; color: #0000FF"">J</div>",,ospan,letter,Gxom0sLTq4fBkj5dnNnroWB679f1,html-keyboard-response,85,824585,0.0-43.0-2.0-1.0-1.0-5.0,,,,,,,,,,,,,,,5ba91985c4da2d00015d4a11,22:49:48,06/03/2024
5055.899999976158,"<div class = numbox><p style=""font-size: 2.4rem"">Please recall the letters you saw to the best of your ability. If you do not remember a particular letter, use the SKIP button.<br><b>(When you are ready to lock in your answer, press ENTER)</b></p><button id = button_1 class = ""square num-button"" onclick = ""recordClick(this)""><div class = content><div class = numbers>C</div></div></button><button id = button_2 class = ""square num-button"" onclick = ""recordClick(this)""><div class = content><div class = numbers>G</div></div></button><button id = button_3 class = ""square num-button"" onclick = ""recordClick(this)""><div class = content><div class = numbers>H</div></div></button><button id = button_4 class = ""square num-button"" onclick = ""recordClick(this)""><div class = content><div class = numbers>J</div></div></button><button id = button_5 class = ""square num-button"" onclick = ""recordClick(this)""><div class = content><div class = numbers>K</div></div></button><button id = button_6 class = ""square num-button"" onclick = ""recordClick(this)""><div class = content><div class = numbers>L</div></div></button><button id = button_7 class = ""square num-button"" onclick = ""recordClick(this)""><div class = content><div class = numbers>N</div></div></button><button id = button_8 class = ""square num-button"" onclick = ""recordClick(this)""><div class = content><div class = numbers>P</div></div></button><button id = button_9 class = ""square num-button"" onclick = ""recordClick(this)""><div class = content><div class = numbers>Q</div></div></button><button id = button_10 class = ""square num-button"" onclick = ""recordClick(this)""><div class = content><div class = numbers>R</div></div></button><button id = button_11 class = ""square num-button"" onclick = ""recordClick(this)""><div class = content><div class = numbers>S</div></div></button><button id = button_12 class = ""square num-button"" onclick = ""recordClick(this)""><div class = content><div class = numbers>Y</div></div></button><button class = clear_button id = ""ClearButton"" onclick = ""clearResponse()"">BACKSPACE</button><button class = blank_button id = ""BlankButton"" onclick = ""blankResponse()"">SKIP</button><p style=""font-size: 2.4rem""><u><b>Current Answer:</b></u></p><br><br><div id=echoed_txt style=""font-size: 5rem; color:blue;""><b></b></div></div>",enter,ospan,retrieval,Gxom0sLTq4fBkj5dnNnroWB679f1,html-keyboard-response,86,830402,0.0-43.0-2.0-1.0-2.0-0.0,NA,NA,NA,3.0,"[""N"",""L"",""J""]","[""N"",""L"",""J""]",1.0,3.0,"['<font color=""green"">N</font>', '<font color=""green"">L</font>', '<font color=""green"">J</font>']",,,,,,5ba91985c4da2d00015d4a11,22:49:48,06/03/2024
4645.699999928474,"['<p style=""font-size:44px"">Letters:<br><br><br><font color=""green"">N</font> <font color=""green"">L</font> <font color=""green"">J</font></p><br><br><p style=""font-size:30px"">Symmetry:<br><br><font color=""green"">100%</font></p><br><br>']",0,ospan,practice_feedback,Gxom0sLTq4fBkj5dnNnroWB679f1,html-button-response,87,835564,0.0-43.0-2.0-1.0-2.0-1.0,,,,,,,,,,,,,,,5ba91985c4da2d00015d4a11,22:49:48,06/03/2024
,"<p style=""font-size:75px;"">...</p>",,ospan,iti,Gxom0sLTq4fBkj5dnNnroWB679f1,html-keyboard-response,88,836572,0.0-43.0-2.0-2.0-0.0,,,,,,,,,,,,,,,5ba91985c4da2d00015d4a11,22:49:48,06/03/2024
1846.0,,,ospan,symmetry,Gxom0sLTq4fBkj5dnNnroWB679f1,symmetry-judgement-task,89,839503,0.0-43.0-2.0-2.0-1.0-0.0,,,,,,,,,,1.0,1.0,,,,5ba91985c4da2d00015d4a11,22:49:48,06/03/2024
,"<div style=""font-size: 10rem; color: #0000FF"">P</div>",,ospan,letter,Gxom0sLTq4fBkj5dnNnroWB679f1,html-keyboard-response,90,840516,0.0-43.0-2.0-2.0-1.0-1.0,,,,,,,,,,,,,,,5ba91985c4da2d00015d4a11,22:49:48,06/03/2024
2312.0,,,ospan,symmetry,Gxom0sLTq4fBkj5dnNnroWB679f1,symmetry-judgement-task,91,844689,0.0-43.0-2.0-2.0-1.0-2.0,,,,,,,,,,1.0,1.0,,,,5ba91985c4da2d00015d4a11,22:49:48,06/03/2024
,"<div style=""font-size: 10rem; color: #0000FF"">J</div>",,ospan,letter,Gxom0sLTq4fBkj5dnNnroWB679f1,html-keyboard-response,92,845699,0.0-43.0-2.0-2.0-1.0-3.0,,,,,,,,,,,,,,,5ba91985c4da2d00015d4a11,22:49:48,06/03/2024
1381.0,,,ospan,symmetry,Gxom0sLTq4fBkj5dnNnroWB679f1,symmetry-judgement-task,93,848924,0.0-43.0-2.0-2.0-1.0-4.0,,,,,,,,,,1.0,1.0,,,,5ba91985c4da2d00015d4a11,22:49:48,06/03/2024
,"<div style=""font-size: 10rem; color: #0000FF"">R</div>",,ospan,letter,Gxom0sLTq4fBkj5dnNnroWB679f1,html-keyboard-response,94,849935,0.0-43.0-2.0-2.0-1.0-5.0,,,,,,,,,,,,,,,5ba91985c4da2d00015d4a11,22:49:48,06/03/2024
6059.200000047684,"<div class = numbox><p style=""font-size: 2.4rem"">Please recall the letters you saw to the best of your ability. If you do not remember a particular letter, use the SKIP button.<br><b>(When you are ready to lock in your answer, press ENTER)</b></p><button id = button_1 class = ""square num-button"" onclick = ""recordClick(this)""><div class = content><div class = numbers>C</div></div></button><button id = button_2 class = ""square num-button"" onclick = ""recordClick(this)""><div class = content><div class = numbers>G</div></div></button><button id = button_3 class = ""square num-button"" onclick = ""recordClick(this)""><div class = content><div class = numbers>H</div></div></button><button id = button_4 class = ""square num-button"" onclick = ""recordClick(this)""><div class = content><div class = numbers>J</div></div></button><button id = button_5 class = ""square num-button"" onclick = ""recordClick(this)""><div class = content><div class = numbers>K</div></div></button><button id = button_6 class = ""square num-button"" onclick = ""recordClick(this)""><div class = content><div class = numbers>L</div></div></button><button id = button_7 class = ""square num-button"" onclick = ""recordClick(this)""><div class = content><div class = numbers>N</div></div></button><button id = button_8 class = ""square num-button"" onclick = ""recordClick(this)""><div class = content><div class = numbers>P</div></div></button><button id = button_9 class = ""square num-button"" onclick = ""recordClick(this)""><div class = content><div class = numbers>Q</div></div></button><button id = button_10 class = ""square num-button"" onclick = ""recordClick(this)""><div class = content><div class = numbers>R</div></div></button><button id = button_11 class = ""square num-button"" onclick = ""recordClick(this)""><div class = content><div class = numbers>S</div></div></button><button id = button_12 class = ""square num-button"" onclick = ""recordClick(this)""><div class = content><div class = numbers>Y</div></div></button><button class = clear_button id = ""ClearButton"" onclick = ""clearResponse()"">BACKSPACE</button><button class = blank_button id = ""BlankButton"" onclick = ""blankResponse()"">SKIP</button><p style=""font-size: 2.4rem""><u><b>Current Answer:</b></u></p><br><br><div id=echoed_txt style=""font-size: 5rem; color:blue;""><b></b></div></div>",enter,ospan,retrieval,Gxom0sLTq4fBkj5dnNnroWB679f1,html-keyboard-response,95,856758,0.0-43.0-2.0-2.0-2.0-0.0,NA,NA,NA,3.0,"[""P"",""J"",""R""]","[""P"",""J"",""R""]",1.0,3.0,"['<font color=""green"">P</font>', '<font color=""green"">J</font>', '<font color=""green"">R</font>']",,,,,,5ba91985c4da2d00015d4a11,22:49:48,06/03/2024
2547.5,"['<p style=""font-size:44px"">Letters:<br><br><br><font color=""green"">P</font> <font color=""green"">J</font> <font color=""green"">R</font></p><br><br><p style=""font-size:30px"">Symmetry:<br><br><font color=""green"">100%</font></p><br><br>']",0,ospan,practice_feedback,Gxom0sLTq4fBkj5dnNnroWB679f1,html-button-response,96,859819,0.0-43.0-2.0-2.0-2.0-1.0,,,,,,,,,,,,,,,5ba91985c4da2d00015d4a11,22:49:48,06/03/2024
10802.399999976158,"<div class = 'left_align' style='font-size: 3rem; line-height: 1.3;'><b>Great work! That is the end of practice.</b><br><br>The real trials will look just like the practice trials you just completed.<br><br><u>Here, you will not see feedback</u>. First, you will see an grid picture to judge,<br>then a letter to remember. When the recall screen appears, report the letters in the<br>order presented. If you forget a letter, remember to use the <b>blank</b> button to move to the<br>next letter. Some of the sets will have more symmetry grids and letters than others.<br><br>It is important that you do your best on both the symmetry judgments and the letter recall<br>parts of the experiment. For for the symmetry judgments, try to work as <b>quickly</b> and <br>as <b>accurately</b> as possible. Remember to keep your symmetry accuracy at 85% or above.<br><br><b>For the letters, do NOT use any external aid (e.g., writing on paper, electronic device).</b><br><br>It is <u>very important</u> to our experiment to have a <b>true</b> view of your real performance.<br><br>Do not worry if you miss some when it gets hard! This task is meant to be very challenging!<br><br>Click the button to begin.</div><br><br><br><br>",0,ospan,starting_real_here,Gxom0sLTq4fBkj5dnNnroWB679f1,html-button-response,97,870624,0.0-43.0-2.0-3.0,,,,,,,,,,,,,,,5ba91985c4da2d00015d4a11,22:49:48,06/03/2024
,"<p style=""font-size:75px;"">...</p>",,ospan,iti,Gxom0sLTq4fBkj5dnNnroWB679f1,html-keyboard-response,98,871882,0.0-43.0-3.0-0.0-0.0,,,,,,,,,,,,,,,5ba91985c4da2d00015d4a11,22:49:48,06/03/2024
1702.0,,,ospan,symmetry,Gxom0sLTq4fBkj5dnNnroWB679f1,symmetry-judgement-task,99,874612,0.0-43.0-3.0-0.0-1.0-0.0,,,,,,,,,,1.0,1.0,,,,5ba91985c4da2d00015d4a11,22:49:48,06/03/2024
,"<div style=""font-size: 10rem; color: #0000FF"">K</div>",,ospan,letter,Gxom0sLTq4fBkj5dnNnroWB679f1,html-keyboard-response,100,875623,0.0-43.0-3.0-0.0-1.0-1.0,,,,,,,,,,,,,,,5ba91985c4da2d00015d4a11,22:49:48,06/03/2024
2071.0,,,ospan,symmetry,Gxom0sLTq4fBkj5dnNnroWB679f1,symmetry-judgement-task,101,879545,0.0-43.0-3.0-0.0-1.0-2.0,,,,,,,,,,1.0,1.0,,,,5ba91985c4da2d00015d4a11,22:49:48,06/03/2024
,"<div style=""font-size: 10rem; color: #0000FF"">R</div>",,ospan,letter,Gxom0sLTq4fBkj5dnNnroWB679f1,html-keyboard-response,102,880558,0.0-43.0-3.0-0.0-1.0-3.0,,,,,,,,,,,,,,,5ba91985c4da2d00015d4a11,22:49:48,06/03/2024
1926.0,,,ospan,symmetry,Gxom0sLTq4fBkj5dnNnroWB679f1,symmetry-judgement-task,103,884335,0.0-43.0-3.0-0.0-1.0-4.0,,,,,,,,,,1.0,1.0,,,,5ba91985c4da2d00015d4a11,22:49:48,06/03/2024
,"<div style=""font-size: 10rem; color: #0000FF"">N</div>",,ospan,letter,Gxom0sLTq4fBkj5dnNnroWB679f1,html-keyboard-response,104,885350,0.0-43.0-3.0-0.0-1.0-5.0,,,,,,,,,,,,,,,5ba91985c4da2d00015d4a11,22:49:48,06/03/2024
6386.200000047684,"<div class = numbox><p style=""font-size: 2.4rem"">Please recall the letters you saw to the best of your ability. If you do not remember a particular letter, use the SKIP button.<br><b>(When you are ready to lock in your answer, press ENTER)</b></p><button id = button_1 class = ""square num-button"" onclick = ""recordClick(this)""><div class = content><div class = numbers>C</div></div></button><button id = button_2 class = ""square num-button"" onclick = ""recordClick(this)""><div class = content><div class = numbers>G</div></div></button><button id = button_3 class = ""square num-button"" onclick = ""recordClick(this)""><div class = content><div class = numbers>H</div></div></button><button id = button_4 class = ""square num-button"" onclick = ""recordClick(this)""><div class = content><div class = numbers>J</div></div></button><button id = button_5 class = ""square num-button"" onclick = ""recordClick(this)""><div class = content><div class = numbers>K</div></div></button><button id = button_6 class = ""square num-button"" onclick = ""recordClick(this)""><div class = content><div class = numbers>L</div></div></button><button id = button_7 class = ""square num-button"" onclick = ""recordClick(this)""><div class = content><div class = numbers>N</div></div></button><button id = button_8 class = ""square num-button"" onclick = ""recordClick(this)""><div class = content><div class = numbers>P</div></div></button><button id = button_9 class = ""square num-button"" onclick = ""recordClick(this)""><div class = content><div class = numbers>Q</div></div></button><button id = button_10 class = ""square num-button"" onclick = ""recordClick(this)""><div class = content><div class = numbers>R</div></div></button><button id = button_11 class = ""square num-button"" onclick = ""recordClick(this)""><div class = content><div class = numbers>S</div></div></button><button id = button_12 class = ""square num-button"" onclick = ""recordClick(this)""><div class = content><div class = numbers>Y</div></div></button><button class = clear_button id = ""ClearButton"" onclick = ""clearResponse()"">BACKSPACE</button><button class = blank_button id = ""BlankButton"" onclick = ""blankResponse()"">SKIP</button><p style=""font-size: 2.4rem""><u><b>Current Answer:</b></u></p><br><br><div id=echoed_txt style=""font-size: 5rem; color:blue;""><b></b></div></div>",enter,ospan,retrieval,Gxom0sLTq4fBkj5dnNnroWB679f1,html-keyboard-response,105,892496,0.0-43.0-3.0-0.0-2.0,3,3,3,3.0,"[""K"",""R"",""N""]","[""K"",""R"",""N""]",1.0,3.0,,,,,,,5ba91985c4da2d00015d4a11,22:49:48,06/03/2024
1145.5,[''],0,ospan,feedback,Gxom0sLTq4fBkj5dnNnroWB679f1,html-button-response,106,894148,0.0-43.0-3.0-0.0-3.0,,,,,,,,,,,,100.0,0.0,,5ba91985c4da2d00015d4a11,22:49:48,06/03/2024
,"<p style=""font-size:75px;"">...</p>",,ospan,iti,Gxom0sLTq4fBkj5dnNnroWB679f1,html-keyboard-response,107,895166,0.0-43.0-4.0-0.0-0.0,,,,,,,,,,,,,,,5ba91985c4da2d00015d4a11,22:49:48,06/03/2024
2186.0,,,ospan,symmetry,Gxom0sLTq4fBkj5dnNnroWB679f1,symmetry-judgement-task,108,898442,0.0-43.0-4.0-0.0-1.0-0.0,,,,,,,,,,1.0,1.0,,,,5ba91985c4da2d00015d4a11,22:49:48,06/03/2024
,"<div style=""font-size: 10rem; color: #0000FF"">H</div>",,ospan,letter,Gxom0sLTq4fBkj5dnNnroWB679f1,html-keyboard-response,109,899453,0.0-43.0-4.0-0.0-1.0-1.0,,,,,,,,,,,,,,,5ba91985c4da2d00015d4a11,22:49:48,06/03/2024
1765.0,,,ospan,symmetry,Gxom0sLTq4fBkj5dnNnroWB679f1,symmetry-judgement-task,110,903067,0.0-43.0-4.0-0.0-1.0-2.0,,,,,,,,,,1.0,1.0,,,,5ba91985c4da2d00015d4a11,22:49:48,06/03/2024
,"<div style=""font-size: 10rem; color: #0000FF"">L</div>",,ospan,letter,Gxom0sLTq4fBkj5dnNnroWB679f1,html-keyboard-response,111,904083,0.0-43.0-4.0-0.0-1.0-3.0,,,,,,,,,,,,,,,5ba91985c4da2d00015d4a11,22:49:48,06/03/2024
1925.0,,,ospan,symmetry,Gxom0sLTq4fBkj5dnNnroWB679f1,symmetry-judgement-task,112,907865,0.0-43.0-4.0-0.0-1.0-4.0,,,,,,,,,,1.0,1.0,,,,5ba91985c4da2d00015d4a11,22:49:48,06/03/2024
,"<div style=""font-size: 10rem; color: #0000FF"">C</div>",,ospan,letter,Gxom0sLTq4fBkj5dnNnroWB679f1,html-keyboard-response,113,908877,0.0-43.0-4.0-0.0-1.0-5.0,,,,,,,,,,,,,,,5ba91985c4da2d00015d4a11,22:49:48,06/03/2024
2009.0,,,ospan,symmetry,Gxom0sLTq4fBkj5dnNnroWB679f1,symmetry-judgement-task,114,912738,0.0-43.0-4.0-0.0-1.0-6.0,,,,,,,,,,1.0,1.0,,,,5ba91985c4da2d00015d4a11,22:49:48,06/03/2024
,"<div style=""font-size: 10rem; color: #0000FF"">Q</div>",,ospan,letter,Gxom0sLTq4fBkj5dnNnroWB679f1,html-keyboard-response,115,913749,0.0-43.0-4.0-0.0-1.0-7.0,,,,,,,,,,,,,,,5ba91985c4da2d00015d4a11,22:49:48,06/03/2024
4353.799999952316,"<div class = numbox><p style=""font-size: 2.4rem"">Please recall the letters you saw to the best of your ability. If you do not remember a particular letter, use the SKIP button.<br><b>(When you are ready to lock in your answer, press ENTER)</b></p><button id = button_1 class = ""square num-button"" onclick = ""recordClick(this)""><div class = content><div class = numbers>C</div></div></button><button id = button_2 class = ""square num-button"" onclick = ""recordClick(this)""><div class = content><div class = numbers>G</div></div></button><button id = button_3 class = ""square num-button"" onclick = ""recordClick(this)""><div class = content><div class = numbers>H</div></div></button><button id = button_4 class = ""square num-button"" onclick = ""recordClick(this)""><div class = content><div class = numbers>J</div></div></button><button id = button_5 class = ""square num-button"" onclick = ""recordClick(this)""><div class = content><div class = numbers>K</div></div></button><button id = button_6 class = ""square num-button"" onclick = ""recordClick(this)""><div class = content><div class = numbers>L</div></div></button><button id = button_7 class = ""square num-button"" onclick = ""recordClick(this)""><div class = content><div class = numbers>N</div></div></button><button id = button_8 class = ""square num-button"" onclick = ""recordClick(this)""><div class = content><div class = numbers>P</div></div></button><button id = button_9 class = ""square num-button"" onclick = ""recordClick(this)""><div class = content><div class = numbers>Q</div></div></button><button id = button_10 class = ""square num-button"" onclick = ""recordClick(this)""><div class = content><div class = numbers>R</div></div></button><button id = button_11 class = ""square num-button"" onclick = ""recordClick(this)""><div class = content><div class = numbers>S</div></div></button><button id = button_12 class = ""square num-button"" onclick = ""recordClick(this)""><div class = content><div class = numbers>Y</div></div></button><button class = clear_button id = ""ClearButton"" onclick = ""clearResponse()"">BACKSPACE</button><button class = blank_button id = ""BlankButton"" onclick = ""blankResponse()"">SKIP</button><p style=""font-size: 2.4rem""><u><b>Current Answer:</b></u></p><br><br><div id=echoed_txt style=""font-size: 5rem; color:blue;""><b></b></div></div>",enter,ospan,retrieval,Gxom0sLTq4fBkj5dnNnroWB679f1,html-keyboard-response,116,918866,0.0-43.0-4.0-0.0-2.0,7,7,7,4.0,"[""H"",""L"",""C"",""Q""]","[""H"",""L"",""C"",""Q""]",1.0,4.0,,,,,,,5ba91985c4da2d00015d4a11,22:49:48,06/03/2024
2459.5999999046326,[''],0,ospan,feedback,Gxom0sLTq4fBkj5dnNnroWB679f1,html-button-response,117,921841,0.0-43.0-4.0-0.0-3.0,,,,,,,,,,,,100.0,0.0,,5ba91985c4da2d00015d4a11,22:49:48,06/03/2024
,"<p style=""font-size:75px;"">...</p>",,ospan,iti,Gxom0sLTq4fBkj5dnNnroWB679f1,html-keyboard-response,118,922845,0.0-43.0-4.0-1.0-0.0,,,,,,,,,,,,,,,5ba91985c4da2d00015d4a11,22:49:48,06/03/2024
2012.0,,,ospan,symmetry,Gxom0sLTq4fBkj5dnNnroWB679f1,symmetry-judgement-task,119,925891,0.0-43.0-4.0-1.0-1.0-0.0,,,,,,,,,,1.0,1.0,,,,5ba91985c4da2d00015d4a11,22:49:48,06/03/2024
,"<div style=""font-size: 10rem; color: #0000FF"">N</div>",,ospan,letter,Gxom0sLTq4fBkj5dnNnroWB679f1,html-keyboard-response,120,926900,0.0-43.0-4.0-1.0-1.0-1.0,,,,,,,,,,,,,,,5ba91985c4da2d00015d4a11,22:49:48,06/03/2024
2313.0,,,ospan,symmetry,Gxom0sLTq4fBkj5dnNnroWB679f1,symmetry-judgement-task,121,931058,0.0-43.0-4.0-1.0-1.0-2.0,,,,,,,,,,1.0,1.0,,,,5ba91985c4da2d00015d4a11,22:49:48,06/03/2024
,"<div style=""font-size: 10rem; color: #0000FF"">Q</div>",,ospan,letter,Gxom0sLTq4fBkj5dnNnroWB679f1,html-keyboard-response,122,932069,0.0-43.0-4.0-1.0-1.0-3.0,,,,,,,,,,,,,,,5ba91985c4da2d00015d4a11,22:49:48,06/03/2024
3965.0,,,ospan,symmetry,Gxom0sLTq4fBkj5dnNnroWB679f1,symmetry-judgement-task,123,937879,0.0-43.0-4.0-1.0-1.0-4.0,,,,,,,,,,1.0,1.0,,,,5ba91985c4da2d00015d4a11,22:49:48,06/03/2024
,"<div style=""font-size: 10rem; color: #0000FF"">S</div>",,ospan,letter,Gxom0sLTq4fBkj5dnNnroWB679f1,html-keyboard-response,124,938892,0.0-43.0-4.0-1.0-1.0-5.0,,,,,,,,,,,,,,,5ba91985c4da2d00015d4a11,22:49:48,06/03/2024
2285.0,,,ospan,symmetry,Gxom0sLTq4fBkj5dnNnroWB679f1,symmetry-judgement-task,125,943030,0.0-43.0-4.0-1.0-1.0-6.0,,,,,,,,,,1.0,1.0,,,,5ba91985c4da2d00015d4a11,22:49:48,06/03/2024
,"<div style=""font-size: 10rem; color: #0000FF"">P</div>",,ospan,letter,Gxom0sLTq4fBkj5dnNnroWB679f1,html-keyboard-response,126,944037,0.0-43.0-4.0-1.0-1.0-7.0,,,,,,,,,,,,,,,5ba91985c4da2d00015d4a11,22:49:48,06/03/2024
1747.0,,,ospan,symmetry,Gxom0sLTq4fBkj5dnNnroWB679f1,symmetry-judgement-task,127,947630,0.0-43.0-4.0-1.0-1.0-8.0,,,,,,,,,,1.0,1.0,,,,5ba91985c4da2d00015d4a11,22:49:48,06/03/2024
,"<div style=""font-size: 10rem; color: #0000FF"">Y</div>",,ospan,letter,Gxom0sLTq4fBkj5dnNnroWB679f1,html-keyboard-response,128,948641,0.0-43.0-4.0-1.0-1.0-9.0,,,,,,,,,,,,,,,5ba91985c4da2d00015d4a11,22:49:48,06/03/2024
5847.800000071526,"<div class = numbox><p style=""font-size: 2.4rem"">Please recall the letters you saw to the best of your ability. If you do not remember a particular letter, use the SKIP button.<br><b>(When you are ready to lock in your answer, press ENTER)</b></p><button id = button_1 class = ""square num-button"" onclick = ""recordClick(this)""><div class = content><div class = numbers>C</div></div></button><button id = button_2 class = ""square num-button"" onclick = ""recordClick(this)""><div class = content><div class = numbers>G</div></div></button><button id = button_3 class = ""square num-button"" onclick = ""recordClick(this)""><div class = content><div class = numbers>H</div></div></button><button id = button_4 class = ""square num-button"" onclick = ""recordClick(this)""><div class = content><div class = numbers>J</div></div></button><button id = button_5 class = ""square num-button"" onclick = ""recordClick(this)""><div class = content><div class = numbers>K</div></div></button><button id = button_6 class = ""square num-button"" onclick = ""recordClick(this)""><div class = content><div class = numbers>L</div></div></button><button id = button_7 class = ""square num-button"" onclick = ""recordClick(this)""><div class = content><div class = numbers>N</div></div></button><button id = button_8 class = ""square num-button"" onclick = ""recordClick(this)""><div class = content><div class = numbers>P</div></div></button><button id = button_9 class = ""square num-button"" onclick = ""recordClick(this)""><div class = content><div class = numbers>Q</div></div></button><button id = button_10 class = ""square num-button"" onclick = ""recordClick(this)""><div class = content><div class = numbers>R</div></div></button><button id = button_11 class = ""square num-button"" onclick = ""recordClick(this)""><div class = content><div class = numbers>S</div></div></button><button id = button_12 class = ""square num-button"" onclick = ""recordClick(this)""><div class = content><div class = numbers>Y</div></div></button><button class = clear_button id = ""ClearButton"" onclick = ""clearResponse()"">BACKSPACE</button><button class = blank_button id = ""BlankButton"" onclick = ""blankResponse()"">SKIP</button><p style=""font-size: 2.4rem""><u><b>Current Answer:</b></u></p><br><br><div id=echoed_txt style=""font-size: 5rem; color:blue;""><b></b></div></div>",enter,ospan,retrieval,Gxom0sLTq4fBkj5dnNnroWB679f1,html-keyboard-response,129,955250,0.0-43.0-4.0-1.0-2.0,12,12,12,5.0,"[""N"",""Q"",""S"",""P"",""Y""]","[""N"",""Q"",""S"",""P"",""Y""]",1.0,5.0,,,,,,,5ba91985c4da2d00015d4a11,22:49:48,06/03/2024
1043.5,[''],0,ospan,feedback,Gxom0sLTq4fBkj5dnNnroWB679f1,html-button-response,130,956804,0.0-43.0-4.0-1.0-3.0,,,,,,,,,,,,100.0,0.0,,5ba91985c4da2d00015d4a11,22:49:48,06/03/2024
,"<p style=""font-size:75px;"">...</p>",,ospan,iti,Gxom0sLTq4fBkj5dnNnroWB679f1,html-keyboard-response,131,957812,0.0-43.0-4.0-2.0-0.0,,,,,,,,,,,,,,,5ba91985c4da2d00015d4a11,22:49:48,06/03/2024
1934.0,,,ospan,symmetry,Gxom0sLTq4fBkj5dnNnroWB679f1,symmetry-judgement-task,132,960838,0.0-43.0-4.0-2.0-1.0-0.0,,,,,,,,,,1.0,1.0,,,,5ba91985c4da2d00015d4a11,22:49:48,06/03/2024
,"<div style=""font-size: 10rem; color: #0000FF"">N</div>",,ospan,letter,Gxom0sLTq4fBkj5dnNnroWB679f1,html-keyboard-response,133,961848,0.0-43.0-4.0-2.0-1.0-1.0,,,,,,,,,,,,,,,5ba91985c4da2d00015d4a11,22:49:48,06/03/2024
4197.0,,,ospan,symmetry,Gxom0sLTq4fBkj5dnNnroWB679f1,symmetry-judgement-task,134,967908,0.0-43.0-4.0-2.0-1.0-2.0,,,,,,,,,,1.0,1.0,,,,5ba91985c4da2d00015d4a11,22:49:48,06/03/2024
,"<div style=""font-size: 10rem; color: #0000FF"">Q</div>",,ospan,letter,Gxom0sLTq4fBkj5dnNnroWB679f1,html-keyboard-response,135,968917,0.0-43.0-4.0-2.0-1.0-3.0,,,,,,,,,,,,,,,5ba91985c4da2d00015d4a11,22:49:48,06/03/2024
1895.0,,,ospan,symmetry,Gxom0sLTq4fBkj5dnNnroWB679f1,symmetry-judgement-task,136,972676,0.0-43.0-4.0-2.0-1.0-4.0,,,,,,,,,,1.0,1.0,,,,5ba91985c4da2d00015d4a11,22:49:48,06/03/2024
,"<div style=""font-size: 10rem; color: #0000FF"">S</div>",,ospan,letter,Gxom0sLTq4fBkj5dnNnroWB679f1,html-keyboard-response,137,973685,0.0-43.0-4.0-2.0-1.0-5.0,,,,,,,,,,,,,,,5ba91985c4da2d00015d4a11,22:49:48,06/03/2024
4579.599999904633,"<div class = numbox><p style=""font-size: 2.4rem"">Please recall the letters you saw to the best of your ability. If you do not remember a particular letter, use the SKIP button.<br><b>(When you are ready to lock in your answer, press ENTER)</b></p><button id = button_1 class = ""square num-button"" onclick = ""recordClick(this)""><div class = content><div class = numbers>C</div></div></button><button id = button_2 class = ""square num-button"" onclick = ""recordClick(this)""><div class = content><div class = numbers>G</div></div></button><button id = button_3 class = ""square num-button"" onclick = ""recordClick(this)""><div class = content><div class = numbers>H</div></div></button><button id = button_4 class = ""square num-button"" onclick = ""recordClick(this)""><div class = content><div class = numbers>J</div></div></button><button id = button_5 class = ""square num-button"" onclick = ""recordClick(this)""><div class = content><div class = numbers>K</div></div></button><button id = button_6 class = ""square num-button"" onclick = ""recordClick(this)""><div class = content><div class = numbers>L</div></div></button><button id = button_7 class = ""square num-button"" onclick = ""recordClick(this)""><div class = content><div class = numbers>N</div></div></button><button id = button_8 class = ""square num-button"" onclick = ""recordClick(this)""><div class = content><div class = numbers>P</div></div></button><button id = button_9 class = ""square num-button"" onclick = ""recordClick(this)""><div class = content><div class = numbers>Q</div></div></button><button id = button_10 class = ""square num-button"" onclick = ""recordClick(this)""><div class = content><div class = numbers>R</div></div></button><button id = button_11 class = ""square num-button"" onclick = ""recordClick(this)""><div class = content><div class = numbers>S</div></div></button><button id = button_12 class = ""square num-button"" onclick = ""recordClick(this)""><div class = content><div class = numbers>Y</div></div></button><button class = clear_button id = ""ClearButton"" onclick = ""clearResponse()"">BACKSPACE</button><button class = blank_button id = ""BlankButton"" onclick = ""blankResponse()"">SKIP</button><p style=""font-size: 2.4rem""><u><b>Current Answer:</b></u></p><br><br><div id=echoed_txt style=""font-size: 5rem; color:blue;""><b></b></div></div>",enter,ospan,retrieval,Gxom0sLTq4fBkj5dnNnroWB679f1,html-keyboard-response,138,979025,0.0-43.0-4.0-2.0-2.0,15,15,15,3.0,"[""N"",""Q"",""S""]","[""N"",""Q"",""S""]",1.0,3.0,,,,,,,5ba91985c4da2d00015d4a11,22:49:48,06/03/2024
1990.7000000476837,[''],0,ospan,feedback,Gxom0sLTq4fBkj5dnNnroWB679f1,html-button-response,139,981525,0.0-43.0-4.0-2.0-3.0,,,,,,,,,,,,100.0,0.0,,5ba91985c4da2d00015d4a11,22:49:48,06/03/2024
,"<p style=""font-size:75px;"">...</p>",,ospan,iti,Gxom0sLTq4fBkj5dnNnroWB679f1,html-keyboard-response,140,982540,0.0-43.0-5.0-0.0-0.0,,,,,,,,,,,,,,,5ba91985c4da2d00015d4a11,22:49:48,06/03/2024
1391.0,,,ospan,symmetry,Gxom0sLTq4fBkj5dnNnroWB679f1,symmetry-judgement-task,141,985028,0.0-43.0-5.0-0.0-1.0-0.0,,,,,,,,,,1.0,1.0,,,,5ba91985c4da2d00015d4a11,22:49:48,06/03/2024
,"<div style=""font-size: 10rem; color: #0000FF"">R</div>",,ospan,letter,Gxom0sLTq4fBkj5dnNnroWB679f1,html-keyboard-response,142,986039,0.0-43.0-5.0-0.0-1.0-1.0,,,,,,,,,,,,,,,5ba91985c4da2d00015d4a11,22:49:48,06/03/2024
1647.0,,,ospan,symmetry,Gxom0sLTq4fBkj5dnNnroWB679f1,symmetry-judgement-task,143,989542,0.0-43.0-5.0-0.0-1.0-2.0,,,,,,,,,,1.0,1.0,,,,5ba91985c4da2d00015d4a11,22:49:48,06/03/2024
,"<div style=""font-size: 10rem; color: #0000FF"">Y</div>",,ospan,letter,Gxom0sLTq4fBkj5dnNnroWB679f1,html-keyboard-response,144,990553,0.0-43.0-5.0-0.0-1.0-3.0,,,,,,,,,,,,,,,5ba91985c4da2d00015d4a11,22:49:48,06/03/2024
2208.0,,,ospan,symmetry,Gxom0sLTq4fBkj5dnNnroWB679f1,symmetry-judgement-task,145,994619,0.0-43.0-5.0-0.0-1.0-4.0,,,,,,,,,,1.0,1.0,,,,5ba91985c4da2d00015d4a11,22:49:48,06/03/2024
,"<div style=""font-size: 10rem; color: #0000FF"">Q</div>",,ospan,letter,Gxom0sLTq4fBkj5dnNnroWB679f1,html-keyboard-response,146,995633,0.0-43.0-5.0-0.0-1.0-5.0,,,,,,,,,,,,,,,5ba91985c4da2d00015d4a11,22:49:48,06/03/2024
4176.0,,,ospan,symmetry,Gxom0sLTq4fBkj5dnNnroWB679f1,symmetry-judgement-task,147,1001664,0.0-43.0-5.0-0.0-1.0-6.0,,,,,,,,,,1.0,1.0,,,,5ba91985c4da2d00015d4a11,22:49:48,06/03/2024
,"<div style=""font-size: 10rem; color: #0000FF"">H</div>",,ospan,letter,Gxom0sLTq4fBkj5dnNnroWB679f1,html-keyboard-response,148,1002679,0.0-43.0-5.0-0.0-1.0-7.0,,,,,,,,,,,,,,,5ba91985c4da2d00015d4a11,22:49:48,06/03/2024
4191.0,,,ospan,symmetry,Gxom0sLTq4fBkj5dnNnroWB679f1,symmetry-judgement-task,149,1008739,0.0-43.0-5.0-0.0-1.0-8.0,,,,,,,,,,1.0,1.0,,,,5ba91985c4da2d00015d4a11,22:49:48,06/03/2024
,"<div style=""font-size: 10rem; color: #0000FF"">P</div>",,ospan,letter,Gxom0sLTq4fBkj5dnNnroWB679f1,html-keyboard-response,150,1009749,0.0-43.0-5.0-0.0-1.0-9.0,,,,,,,,,,,,,,,5ba91985c4da2d00015d4a11,22:49:48,06/03/2024
4476.0,,,ospan,symmetry,Gxom0sLTq4fBkj5dnNnroWB679f1,symmetry-judgement-task,151,1016066,0.0-43.0-5.0-0.0-1.0-10.0,,,,,,,,,,1.0,1.0,,,,5ba91985c4da2d00015d4a11,22:49:48,06/03/2024
,"<div style=""font-size: 10rem; color: #0000FF"">K</div>",,ospan,letter,Gxom0sLTq4fBkj5dnNnroWB679f1,html-keyboard-response,152,1017070,0.0-43.0-5.0-0.0-1.0-11.0,,,,,,,,,,,,,,,5ba91985c4da2d00015d4a11,22:49:48,06/03/2024
10592.299999952316,"<div class = numbox><p style=""font-size: 2.4rem"">Please recall the letters you saw to the best of your ability. If you do not remember a particular letter, use the SKIP button.<br><b>(When you are ready to lock in your answer, press ENTER)</b></p><button id = button_1 class = ""square num-button"" onclick = ""recordClick(this)""><div class = content><div class = numbers>C</div></div></button><button id = button_2 class = ""square num-button"" onclick = ""recordClick(this)""><div class = content><div class = numbers>G</div></div></button><button id = button_3 class = ""square num-button"" onclick = ""recordClick(this)""><div class = content><div class = numbers>H</div></div></button><button id = button_4 class = ""square num-button"" onclick = ""recordClick(this)""><div class = content><div class = numbers>J</div></div></button><button id = button_5 class = ""square num-button"" onclick = ""recordClick(this)""><div class = content><div class = numbers>K</div></div></button><button id = button_6 class = ""square num-button"" onclick = ""recordClick(this)""><div class = content><div class = numbers>L</div></div></button><button id = button_7 class = ""square num-button"" onclick = ""recordClick(this)""><div class = content><div class = numbers>N</div></div></button><button id = button_8 class = ""square num-button"" onclick = ""recordClick(this)""><div class = content><div class = numbers>P</div></div></button><button id = button_9 class = ""square num-button"" onclick = ""recordClick(this)""><div class = content><div class = numbers>Q</div></div></button><button id = button_10 class = ""square num-button"" onclick = ""recordClick(this)""><div class = content><div class = numbers>R</div></div></button><button id = button_11 class = ""square num-button"" onclick = ""recordClick(this)""><div class = content><div class = numbers>S</div></div></button><button id = button_12 class = ""square num-button"" onclick = ""recordClick(this)""><div class = content><div class = numbers>Y</div></div></button><button class = clear_button id = ""ClearButton"" onclick = ""clearResponse()"">BACKSPACE</button><button class = blank_button id = ""BlankButton"" onclick = ""blankResponse()"">SKIP</button><p style=""font-size: 2.4rem""><u><b>Current Answer:</b></u></p><br><br><div id=echoed_txt style=""font-size: 5rem; color:blue;""><b></b></div></div>",enter,ospan,retrieval,Gxom0sLTq4fBkj5dnNnroWB679f1,html-keyboard-response,153,1028419,0.0-43.0-5.0-0.0-2.0,21,21,21,6.0,"[""R"",""Y"",""Q"",""H"",""P"",""K""]","[""R"",""Y"",""Q"",""H"",""P"",""K""]",1.0,6.0,,,,,,,5ba91985c4da2d00015d4a11,22:49:48,06/03/2024
1283.4000000953674,[''],0,ospan,feedback,Gxom0sLTq4fBkj5dnNnroWB679f1,html-button-response,154,1030215,0.0-43.0-5.0-0.0-3.0,,,,,,,,,,,,100.0,0.0,,5ba91985c4da2d00015d4a11,22:49:48,06/03/2024
,"<p style=""font-size:75px;"">...</p>",,ospan,iti,Gxom0sLTq4fBkj5dnNnroWB679f1,html-keyboard-response,155,1031228,0.0-43.0-5.0-1.0-0.0,,,,,,,,,,,,,,,5ba91985c4da2d00015d4a11,22:49:48,06/03/2024
1991.0,,,ospan,symmetry,Gxom0sLTq4fBkj5dnNnroWB679f1,symmetry-judgement-task,156,1034259,0.0-43.0-5.0-1.0-1.0-0.0,,,,,,,,,,1.0,1.0,,,,5ba91985c4da2d00015d4a11,22:49:48,06/03/2024
,"<div style=""font-size: 10rem; color: #0000FF"">Q</div>",,ospan,letter,Gxom0sLTq4fBkj5dnNnroWB679f1,html-keyboard-response,157,1035270,0.0-43.0-5.0-1.0-1.0-1.0,,,,,,,,,,,,,,,5ba91985c4da2d00015d4a11,22:49:48,06/03/2024
2187.0,,,ospan,symmetry,Gxom0sLTq4fBkj5dnNnroWB679f1,symmetry-judgement-task,158,1039258,0.0-43.0-5.0-1.0-1.0-2.0,,,,,,,,,,1.0,1.0,,,,5ba91985c4da2d00015d4a11,22:49:48,06/03/2024
,"<div style=""font-size: 10rem; color: #0000FF"">H</div>",,ospan,letter,Gxom0sLTq4fBkj5dnNnroWB679f1,html-keyboard-response,159,1040269,0.0-43.0-5.0-1.0-1.0-3.0,,,,,,,,,,,,,,,5ba91985c4da2d00015d4a11,22:49:48,06/03/2024
1353.0,,,ospan,symmetry,Gxom0sLTq4fBkj5dnNnroWB679f1,symmetry-judgement-task,160,1043471,0.0-43.0-5.0-1.0-1.0-4.0,,,,,,,,,,1.0,1.0,,,,5ba91985c4da2d00015d4a11,22:49:48,06/03/2024
,"<div style=""font-size: 10rem; color: #0000FF"">J</div>",,ospan,letter,Gxom0sLTq4fBkj5dnNnroWB679f1,html-keyboard-response,161,1044482,0.0-43.0-5.0-1.0-1.0-5.0,,,,,,,,,,,,,,,5ba91985c4da2d00015d4a11,22:49:48,06/03/2024
2462.0,,,ospan,symmetry,Gxom0sLTq4fBkj5dnNnroWB679f1,symmetry-judgement-task,162,1048789,0.0-43.0-5.0-1.0-1.0-6.0,,,,,,,,,,1.0,1.0,,,,5ba91985c4da2d00015d4a11,22:49:48,06/03/2024
,"<div style=""font-size: 10rem; color: #0000FF"">Y</div>",,ospan,letter,Gxom0sLTq4fBkj5dnNnroWB679f1,html-keyboard-response,163,1049795,0.0-43.0-5.0-1.0-1.0-7.0,,,,,,,,,,,,,,,5ba91985c4da2d00015d4a11,22:49:48,06/03/2024
1823.0,,,ospan,symmetry,Gxom0sLTq4fBkj5dnNnroWB679f1,symmetry-judgement-task,164,1053460,0.0-43.0-5.0-1.0-1.0-8.0,,,,,,,,,,1.0,1.0,,,,5ba91985c4da2d00015d4a11,22:49:48,06/03/2024
,"<div style=""font-size: 10rem; color: #0000FF"">N</div>",,ospan,letter,Gxom0sLTq4fBkj5dnNnroWB679f1,html-keyboard-response,165,1054466,0.0-43.0-5.0-1.0-1.0-9.0,,,,,,,,,,,,,,,5ba91985c4da2d00015d4a11,22:49:48,06/03/2024
2517.0,,,ospan,symmetry,Gxom0sLTq4fBkj5dnNnroWB679f1,symmetry-judgement-task,166,1058827,0.0-43.0-5.0-1.0-1.0-10.0,,,,,,,,,,1.0,1.0,,,,5ba91985c4da2d00015d4a11,22:49:48,06/03/2024
,"<div style=""font-size: 10rem; color: #0000FF"">C</div>",,ospan,letter,Gxom0sLTq4fBkj5dnNnroWB679f1,html-keyboard-response,167,1059835,0.0-43.0-5.0-1.0-1.0-11.0,,,,,,,,,,,,,,,5ba91985c4da2d00015d4a11,22:49:48,06/03/2024
1348.0,,,ospan,symmetry,Gxom0sLTq4fBkj5dnNnroWB679f1,symmetry-judgement-task,168,1063050,0.0-43.0-5.0-1.0-1.0-12.0,,,,,,,,,,1.0,1.0,,,,5ba91985c4da2d00015d4a11,22:49:48,06/03/2024
,"<div style=""font-size: 10rem; color: #0000FF"">R</div>",,ospan,letter,Gxom0sLTq4fBkj5dnNnroWB679f1,html-keyboard-response,169,1064065,0.0-43.0-5.0-1.0-1.0-13.0,,,,,,,,,,,,,,,5ba91985c4da2d00015d4a11,22:49:48,06/03/2024
24335.5,"<div class = numbox><p style=""font-size: 2.4rem"">Please recall the letters you saw to the best of your ability. If you do not remember a particular letter, use the SKIP button.<br><b>(When you are ready to lock in your answer, press ENTER)</b></p><button id = button_1 class = ""square num-button"" onclick = ""recordClick(this)""><div class = content><div class = numbers>C</div></div></button><button id = button_2 class = ""square num-button"" onclick = ""recordClick(this)""><div class = content><div class = numbers>G</div></div></button><button id = button_3 class = ""square num-button"" onclick = ""recordClick(this)""><div class = content><div class = numbers>H</div></div></button><button id = button_4 class = ""square num-button"" onclick = ""recordClick(this)""><div class = content><div class = numbers>J</div></div></button><button id = button_5 class = ""square num-button"" onclick = ""recordClick(this)""><div class = content><div class = numbers>K</div></div></button><button id = button_6 class = ""square num-button"" onclick = ""recordClick(this)""><div class = content><div class = numbers>L</div></div></button><button id = button_7 class = ""square num-button"" onclick = ""recordClick(this)""><div class = content><div class = numbers>N</div></div></button><button id = button_8 class = ""square num-button"" onclick = ""recordClick(this)""><div class = content><div class = numbers>P</div></div></button><button id = button_9 class = ""square num-button"" onclick = ""recordClick(this)""><div class = content><div class = numbers>Q</div></div></button><button id = button_10 class = ""square num-button"" onclick = ""recordClick(this)""><div class = content><div class = numbers>R</div></div></button><button id = button_11 class = ""square num-button"" onclick = ""recordClick(this)""><div class = content><div class = numbers>S</div></div></button><button id = button_12 class = ""square num-button"" onclick = ""recordClick(this)""><div class = content><div class = numbers>Y</div></div></button><button class = clear_button id = ""ClearButton"" onclick = ""clearResponse()"">BACKSPACE</button><button class = blank_button id = ""BlankButton"" onclick = ""blankResponse()"">SKIP</button><p style=""font-size: 2.4rem""><u><b>Current Answer:</b></u></p><br><br><div id=echoed_txt style=""font-size: 5rem; color:blue;""><b></b></div></div>",enter,ospan,retrieval,Gxom0sLTq4fBkj5dnNnroWB679f1,html-keyboard-response,170,1089163,0.0-43.0-5.0-1.0-2.0,28,21,21,7.0,"[""P"",""N"",""Q"",""J"",""R""]","[""Q"",""H"",""J"",""Y"",""N"",""C"",""R""]",0.0,0.0,,,,,,,5ba91985c4da2d00015d4a11,22:49:48,06/03/2024
1017.2000000476837,[''],0,ospan,feedback,Gxom0sLTq4fBkj5dnNnroWB679f1,html-button-response,171,1090691,0.0-43.0-5.0-1.0-3.0,,,,,,,,,,,,100.0,0.0,,5ba91985c4da2d00015d4a11,22:49:48,06/03/2024
,"<p style=""font-size:75px;"">...</p>",,ospan,iti,Gxom0sLTq4fBkj5dnNnroWB679f1,html-keyboard-response,172,1091702,0.0-43.0-6.0-0.0-0.0,,,,,,,,,,,,,,,5ba91985c4da2d00015d4a11,22:49:48,06/03/2024
2613.0,,,ospan,symmetry,Gxom0sLTq4fBkj5dnNnroWB679f1,symmetry-judgement-task,173,1095419,0.0-43.0-6.0-0.0-1.0-0.0,,,,,,,,,,1.0,1.0,,,,5ba91985c4da2d00015d4a11,22:49:48,06/03/2024
,"<div style=""font-size: 10rem; color: #0000FF"">Q</div>",,ospan,letter,Gxom0sLTq4fBkj5dnNnroWB679f1,html-keyboard-response,174,1096432,0.0-43.0-6.0-0.0-1.0-1.0,,,,,,,,,,,,,,,5ba91985c4da2d00015d4a11,22:49:48,06/03/2024
1384.0,,,ospan,symmetry,Gxom0sLTq4fBkj5dnNnroWB679f1,symmetry-judgement-task,175,1099655,0.0-43.0-6.0-0.0-1.0-2.0,,,,,,,,,,1.0,1.0,,,,5ba91985c4da2d00015d4a11,22:49:48,06/03/2024
,"<div style=""font-size: 10rem; color: #0000FF"">K</div>",,ospan,letter,Gxom0sLTq4fBkj5dnNnroWB679f1,html-keyboard-response,176,1100659,0.0-43.0-6.0-0.0-1.0-3.0,,,,,,,,,,,,,,,5ba91985c4da2d00015d4a11,22:49:48,06/03/2024
4840.0,,,ospan,symmetry,Gxom0sLTq4fBkj5dnNnroWB679f1,symmetry-judgement-task,177,1107365,0.0-43.0-6.0-0.0-1.0-4.0,,,,,,,,,,1.0,1.0,,,,5ba91985c4da2d00015d4a11,22:49:48,06/03/2024
,"<div style=""font-size: 10rem; color: #0000FF"">Y</div>",,ospan,letter,Gxom0sLTq4fBkj5dnNnroWB679f1,html-keyboard-response,178,1108378,0.0-43.0-6.0-0.0-1.0-5.0,,,,,,,,,,,,,,,5ba91985c4da2d00015d4a11,22:49:48,06/03/2024
1497.0,,,ospan,symmetry,Gxom0sLTq4fBkj5dnNnroWB679f1,symmetry-judgement-task,179,1111738,0.0-43.0-6.0-0.0-1.0-6.0,,,,,,,,,,1.0,1.0,,,,5ba91985c4da2d00015d4a11,22:49:48,06/03/2024
,"<div style=""font-size: 10rem; color: #0000FF"">S</div>",,ospan,letter,Gxom0sLTq4fBkj5dnNnroWB679f1,html-keyboard-response,180,1112749,0.0-43.0-6.0-0.0-1.0-7.0,,,,,,,,,,,,,,,5ba91985c4da2d00015d4a11,22:49:48,06/03/2024
1942.0,,,ospan,symmetry,Gxom0sLTq4fBkj5dnNnroWB679f1,symmetry-judgement-task,181,1116553,0.0-43.0-6.0-0.0-1.0-8.0,,,,,,,,,,1.0,1.0,,,,5ba91985c4da2d00015d4a11,22:49:48,06/03/2024
,"<div style=""font-size: 10rem; color: #0000FF"">G</div>",,ospan,letter,Gxom0sLTq4fBkj5dnNnroWB679f1,html-keyboard-response,182,1117565,0.0-43.0-6.0-0.0-1.0-9.0,,,,,,,,,,,,,,,5ba91985c4da2d00015d4a11,22:49:48,06/03/2024
7524.399999976158,"<div class = numbox><p style=""font-size: 2.4rem"">Please recall the letters you saw to the best of your ability. If you do not remember a particular letter, use the SKIP button.<br><b>(When you are ready to lock in your answer, press ENTER)</b></p><button id = button_1 class = ""square num-button"" onclick = ""recordClick(this)""><div class = content><div class = numbers>C</div></div></button><button id = button_2 class = ""square num-button"" onclick = ""recordClick(this)""><div class = content><div class = numbers>G</div></div></button><button id = button_3 class = ""square num-button"" onclick = ""recordClick(this)""><div class = content><div class = numbers>H</div></div></button><button id = button_4 class = ""square num-button"" onclick = ""recordClick(this)""><div class = content><div class = numbers>J</div></div></button><button id = button_5 class = ""square num-button"" onclick = ""recordClick(this)""><div class = content><div class = numbers>K</div></div></button><button id = button_6 class = ""square num-button"" onclick = ""recordClick(this)""><div class = content><div class = numbers>L</div></div></button><button id = button_7 class = ""square num-button"" onclick = ""recordClick(this)""><div class = content><div class = numbers>N</div></div></button><button id = button_8 class = ""square num-button"" onclick = ""recordClick(this)""><div class = content><div class = numbers>P</div></div></button><button id = button_9 class = ""square num-button"" onclick = ""recordClick(this)""><div class = content><div class = numbers>Q</div></div></button><button id = button_10 class = ""square num-button"" onclick = ""recordClick(this)""><div class = content><div class = numbers>R</div></div></button><button id = button_11 class = ""square num-button"" onclick = ""recordClick(this)""><div class = content><div class = numbers>S</div></div></button><button id = button_12 class = ""square num-button"" onclick = ""recordClick(this)""><div class = content><div class = numbers>Y</div></div></button><button class = clear_button id = ""ClearButton"" onclick = ""clearResponse()"">BACKSPACE</button><button class = blank_button id = ""BlankButton"" onclick = ""blankResponse()"">SKIP</button><p style=""font-size: 2.4rem""><u><b>Current Answer:</b></u></p><br><br><div id=echoed_txt style=""font-size: 5rem; color:blue;""><b></b></div></div>",enter,ospan,retrieval,Gxom0sLTq4fBkj5dnNnroWB679f1,html-keyboard-response,183,1125854,0.0-43.0-6.0-0.0-2.0,33,26,26,5.0,"[""Q"",""K"",""Y"",""S"",""G""]","[""Q"",""K"",""Y"",""S"",""G""]",1.0,5.0,,,,,,,5ba91985c4da2d00015d4a11,22:49:48,06/03/2024
971.6000000238419,[''],0,ospan,feedback,Gxom0sLTq4fBkj5dnNnroWB679f1,html-button-response,184,1127337,0.0-43.0-6.0-0.0-3.0,,,,,,,,,,,,100.0,0.0,,5ba91985c4da2d00015d4a11,22:49:48,06/03/2024
,"<p style=""font-size:75px;"">...</p>",,ospan,iti,Gxom0sLTq4fBkj5dnNnroWB679f1,html-keyboard-response,185,1128341,0.0-43.0-6.0-1.0-0.0,,,,,,,,,,,,,,,5ba91985c4da2d00015d4a11,22:49:48,06/03/2024
2173.0,,,ospan,symmetry,Gxom0sLTq4fBkj5dnNnroWB679f1,symmetry-judgement-task,186,1131609,0.0-43.0-6.0-1.0-1.0-0.0,,,,,,,,,,1.0,1.0,,,,5ba91985c4da2d00015d4a11,22:49:48,06/03/2024
,"<div style=""font-size: 10rem; color: #0000FF"">P</div>",,ospan,letter,Gxom0sLTq4fBkj5dnNnroWB679f1,html-keyboard-response,187,1132624,0.0-43.0-6.0-1.0-1.0-1.0,,,,,,,,,,,,,,,5ba91985c4da2d00015d4a11,22:49:48,06/03/2024
2506.0,,,ospan,symmetry,Gxom0sLTq4fBkj5dnNnroWB679f1,symmetry-judgement-task,188,1136983,0.0-43.0-6.0-1.0-1.0-2.0,,,,,,,,,,1.0,1.0,,,,5ba91985c4da2d00015d4a11,22:49:48,06/03/2024
,"<div style=""font-size: 10rem; color: #0000FF"">Y</div>",,ospan,letter,Gxom0sLTq4fBkj5dnNnroWB679f1,html-keyboard-response,189,1137993,0.0-43.0-6.0-1.0-1.0-3.0,,,,,,,,,,,,,,,5ba91985c4da2d00015d4a11,22:49:48,06/03/2024
4983.0,,,ospan,symmetry,Gxom0sLTq4fBkj5dnNnroWB679f1,symmetry-judgement-task,190,1144831,0.0-43.0-6.0-1.0-1.0-4.0,,,,,,,,,,1.0,1.0,,,,5ba91985c4da2d00015d4a11,22:49:48,06/03/2024
,"<div style=""font-size: 10rem; color: #0000FF"">C</div>",,ospan,letter,Gxom0sLTq4fBkj5dnNnroWB679f1,html-keyboard-response,191,1145843,0.0-43.0-6.0-1.0-1.0-5.0,,,,,,,,,,,,,,,5ba91985c4da2d00015d4a11,22:49:48,06/03/2024
4500.0,,,ospan,symmetry,Gxom0sLTq4fBkj5dnNnroWB679f1,symmetry-judgement-task,192,1152194,0.0-43.0-6.0-1.0-1.0-6.0,,,,,,,,,,1.0,1.0,,,,5ba91985c4da2d00015d4a11,22:49:48,06/03/2024
,"<div style=""font-size: 10rem; color: #0000FF"">N</div>",,ospan,letter,Gxom0sLTq4fBkj5dnNnroWB679f1,html-keyboard-response,193,1153206,0.0-43.0-6.0-1.0-1.0-7.0,,,,,,,,,,,,,,,5ba91985c4da2d00015d4a11,22:49:48,06/03/2024
2134.0,,,ospan,symmetry,Gxom0sLTq4fBkj5dnNnroWB679f1,symmetry-judgement-task,194,1157191,0.0-43.0-6.0-1.0-1.0-8.0,,,,,,,,,,1.0,1.0,,,,5ba91985c4da2d00015d4a11,22:49:48,06/03/2024
,"<div style=""font-size: 10rem; color: #0000FF"">J</div>",,ospan,letter,Gxom0sLTq4fBkj5dnNnroWB679f1,html-keyboard-response,195,1158202,0.0-43.0-6.0-1.0-1.0-9.0,,,,,,,,,,,,,,,5ba91985c4da2d00015d4a11,22:49:48,06/03/2024
2119.0,,,ospan,symmetry,Gxom0sLTq4fBkj5dnNnroWB679f1,symmetry-judgement-task,196,1162172,0.0-43.0-6.0-1.0-1.0-10.0,,,,,,,,,,1.0,1.0,,,,5ba91985c4da2d00015d4a11,22:49:48,06/03/2024
,"<div style=""font-size: 10rem; color: #0000FF"">L</div>",,ospan,letter,Gxom0sLTq4fBkj5dnNnroWB679f1,html-keyboard-response,197,1163188,0.0-43.0-6.0-1.0-1.0-11.0,,,,,,,,,,,,,,,5ba91985c4da2d00015d4a11,22:49:48,06/03/2024
6759.0,,,ospan,symmetry,Gxom0sLTq4fBkj5dnNnroWB679f1,symmetry-judgement-task,198,1171823,0.0-43.0-6.0-1.0-1.0-12.0,,,,,,,,,,1.0,1.0,,,,5ba91985c4da2d00015d4a11,22:49:48,06/03/2024
,"<div style=""font-size: 10rem; color: #0000FF"">R</div>",,ospan,letter,Gxom0sLTq4fBkj5dnNnroWB679f1,html-keyboard-response,199,1172832,0.0-43.0-6.0-1.0-1.0-13.0,,,,,,,,,,,,,,,5ba91985c4da2d00015d4a11,22:49:48,06/03/2024
3024.0,,,ospan,symmetry,Gxom0sLTq4fBkj5dnNnroWB679f1,symmetry-judgement-task,200,1177703,0.0-43.0-6.0-1.0-1.0-14.0,,,,,,,,,,1.0,1.0,,,,5ba91985c4da2d00015d4a11,22:49:48,06/03/2024
,"<div style=""font-size: 10rem; color: #0000FF"">K</div>",,ospan,letter,Gxom0sLTq4fBkj5dnNnroWB679f1,html-keyboard-response,201,1178714,0.0-43.0-6.0-1.0-1.0-15.0,,,,,,,,,,,,,,,5ba91985c4da2d00015d4a11,22:49:48,06/03/2024
34358.89999997616,"<div class = numbox><p style=""font-size: 2.4rem"">Please recall the letters you saw to the best of your ability. If you do not remember a particular letter, use the SKIP button.<br><b>(When you are ready to lock in your answer, press ENTER)</b></p><button id = button_1 class = ""square num-button"" onclick = ""recordClick(this)""><div class = content><div class = numbers>C</div></div></button><button id = button_2 class = ""square num-button"" onclick = ""recordClick(this)""><div class = content><div class = numbers>G</div></div></button><button id = button_3 class = ""square num-button"" onclick = ""recordClick(this)""><div class = content><div class = numbers>H</div></div></button><button id = button_4 class = ""square num-button"" onclick = ""recordClick(this)""><div class = content><div class = numbers>J</div></div></button><button id = button_5 class = ""square num-button"" onclick = ""recordClick(this)""><div class = content><div class = numbers>K</div></div></button><button id = button_6 class = ""square num-button"" onclick = ""recordClick(this)""><div class = content><div class = numbers>L</div></div></button><button id = button_7 class = ""square num-button"" onclick = ""recordClick(this)""><div class = content><div class = numbers>N</div></div></button><button id = button_8 class = ""square num-button"" onclick = ""recordClick(this)""><div class = content><div class = numbers>P</div></div></button><button id = button_9 class = ""square num-button"" onclick = ""recordClick(this)""><div class = content><div class = numbers>Q</div></div></button><button id = button_10 class = ""square num-button"" onclick = ""recordClick(this)""><div class = content><div class = numbers>R</div></div></button><button id = button_11 class = ""square num-button"" onclick = ""recordClick(this)""><div class = content><div class = numbers>S</div></div></button><button id = button_12 class = ""square num-button"" onclick = ""recordClick(this)""><div class = content><div class = numbers>Y</div></div></button><button class = clear_button id = ""ClearButton"" onclick = ""clearResponse()"">BACKSPACE</button><button class = blank_button id = ""BlankButton"" onclick = ""blankResponse()"">SKIP</button><p style=""font-size: 2.4rem""><u><b>Current Answer:</b></u></p><br><br><div id=echoed_txt style=""font-size: 5rem; color:blue;""><b></b></div></div>",enter,ospan,retrieval,Gxom0sLTq4fBkj5dnNnroWB679f1,html-keyboard-response,202,1213826,0.0-43.0-6.0-1.0-2.0,41,29,26,8.0,"[""P"",""Y"",""N"",""C"",""R"",""L"",""K""]","[""P"",""Y"",""C"",""N"",""J"",""L"",""R"",""K""]",0.0,3.0,,,,,,,5ba91985c4da2d00015d4a11,22:49:48,06/03/2024
6228.899999976158,[''],0,ospan,feedback,Gxom0sLTq4fBkj5dnNnroWB679f1,html-button-response,203,1220567,0.0-43.0-6.0-1.0-3.0,,,,,,,,,,,,100.0,0.0,,5ba91985c4da2d00015d4a11,22:49:48,06/03/2024
13168.5,,{'Q0': 'It was fun'},ospan,survey_ospan,Gxom0sLTq4fBkj5dnNnroWB679f1,lmdlab-survey-text,204,1234504,0.0-43.0-7.0,,,,,,,,,,,,,,Gxom0sLTq4fBkj5dnNnroWB679f1,5ba91985c4da2d00015d4a11,22:49:48,06/03/2024
1209.7999999523163,<p><p style='font-size: 3rem'>Great work!<br><br>This completes the symmetry and memory task.</p><br><br><br>,0,ospan,finish,Gxom0sLTq4fBkj5dnNnroWB679f1,html-button-response,205,1235719,0.0-43.0-8.0,41,29,26,,,,,,,,,100.0,,,5ba91985c4da2d00015d4a11,22:49:48,06/03/2024
