rt,stimulus,response,exp_name,exp_stage,subjectID,trial_type,trial_index,time_elapsed,internal_node_id,ospan_shown,ospan_total,ospan_abs,length,resp_actual,resp_correct,full_correct,num_correct,feedback,accuracy,correct,math_acc,math_warning,databaseID,prolificID,start_time,date
2967.2000000476837,<div class = 'left_align' style='font-size: 3.25rem; line-height: 1.3;'><p class = 'center_align'><b>Welcome to the Symmetry and Memory Task</b><br><br><br><br></p>Press 'continue' to show the instructions.<br><br><br><br></div>,0,ospan,instruct,3s0850LyyiM1M0h5V50ZafdHweG2,html-button-response,54,414587,0.0-46.0-0.0-0.0-0.0,,,,,,,,,,,,,,,61598cba874ca07729d42b2a,15:26:19,03/04/2024
16858.5,"<div class = 'left_align' style='font-size: 3.25rem; line-height: 1.3;'><p class = 'center_align'><b>Symmetry and Memory Task</b><br><br></p>In this task, you will try to memorize letters you see on the screen<br>while you also view black and white grid pictures.<br><br>In the next few minutes, you will have some practice to get you familiar<br>with how the task works.<br><br>It may be difficult sometimes, but please do not worry about making mistakes!<br><br>We will begin by practicing the letter part of the task.<br><br><br><br></div>",0,ospan,instruct,3s0850LyyiM1M0h5V50ZafdHweG2,html-button-response,55,431715,0.0-46.0-0.0-0.0-1.0,,,,,,,,,,,,,,,61598cba874ca07729d42b2a,15:26:19,03/04/2024
11189.399999856949,"<div class = 'left_align' style='font-size: 3.25rem; line-height: 1.3;'>For this practice part, letters will appear on the screen one at a time.<br><br>Try to remember each letter in the order presented.<br><br>After some letters have been shown, you will see a response screen. Your<br>goal is to report the letters you saw <b>in order</b>. If you do not remember<br>a particular letter, you will have the option to leave it blank.<br><br><br><br></div>",0,ospan,instruct,3s0850LyyiM1M0h5V50ZafdHweG2,html-button-response,56,443179,0.0-46.0-0.0-0.0-2.0,,,,,,,,,,,,,,,61598cba874ca07729d42b2a,15:26:19,03/04/2024
3307.699999809265,"<div class = 'left_align' style='font-size: 3.25rem; line-height: 1.3;'>Remember, it is very important to get the letters in the same<br>order as you see them.<br><br>When you are ready, you may begin the letter practice.</div><br><br><br><br>",0,ospan,instruct,3s0850LyyiM1M0h5V50ZafdHweG2,html-button-response,57,446739,0.0-46.0-0.0-0.0-3.0,,,,,,,,,,,,,,,61598cba874ca07729d42b2a,15:26:19,03/04/2024
,"<p style=""font-size:75px;"">...</p>",,ospan,iti,3s0850LyyiM1M0h5V50ZafdHweG2,html-keyboard-response,58,447998,0.0-46.0-0.0-1.0-0.0,,,,,,,,,,,,,,,61598cba874ca07729d42b2a,15:26:19,03/04/2024
,"<div style=""font-size: 10rem; color: #0000FF"">P</div>",,ospan,letter,3s0850LyyiM1M0h5V50ZafdHweG2,html-keyboard-response,59,449018,0.0-46.0-0.0-1.0-1.0,,,,,,,,,,,,,,,61598cba874ca07729d42b2a,15:26:19,03/04/2024
,"<div style=""font-size: 10rem; color: #0000FF"">J</div>",,ospan,letter,3s0850LyyiM1M0h5V50ZafdHweG2,html-keyboard-response,60,450792,0.0-46.0-0.0-1.0-2.0,,,,,,,,,,,,,,,61598cba874ca07729d42b2a,15:26:19,03/04/2024
12067.700000047684,"<div class = numbox><p style=""font-size: 2.4rem"">Please recall the letters you saw to the best of your ability. If you do not remember a particular letter, use the SKIP button.<br><b>(When you are ready to lock in your answer, press ENTER)</b></p><button id = button_1 class = ""square num-button"" onclick = ""recordClick(this)""><div class = content><div class = numbers>C</div></div></button><button id = button_2 class = ""square num-button"" onclick = ""recordClick(this)""><div class = content><div class = numbers>G</div></div></button><button id = button_3 class = ""square num-button"" onclick = ""recordClick(this)""><div class = content><div class = numbers>H</div></div></button><button id = button_4 class = ""square num-button"" onclick = ""recordClick(this)""><div class = content><div class = numbers>J</div></div></button><button id = button_5 class = ""square num-button"" onclick = ""recordClick(this)""><div class = content><div class = numbers>K</div></div></button><button id = button_6 class = ""square num-button"" onclick = ""recordClick(this)""><div class = content><div class = numbers>L</div></div></button><button id = button_7 class = ""square num-button"" onclick = ""recordClick(this)""><div class = content><div class = numbers>N</div></div></button><button id = button_8 class = ""square num-button"" onclick = ""recordClick(this)""><div class = content><div class = numbers>P</div></div></button><button id = button_9 class = ""square num-button"" onclick = ""recordClick(this)""><div class = content><div class = numbers>Q</div></div></button><button id = button_10 class = ""square num-button"" onclick = ""recordClick(this)""><div class = content><div class = numbers>R</div></div></button><button id = button_11 class = ""square num-button"" onclick = ""recordClick(this)""><div class = content><div class = numbers>S</div></div></button><button id = button_12 class = ""square num-button"" onclick = ""recordClick(this)""><div class = content><div class = numbers>Y</div></div></button><button class = clear_button id = ""ClearButton"" onclick = ""clearResponse()"">BACKSPACE</button><button class = blank_button id = ""BlankButton"" onclick = ""blankResponse()"">SKIP</button><p style=""font-size: 2.4rem""><u><b>Current Answer:</b></u></p><br><br><div id=echoed_txt style=""font-size: 5rem; color:blue;""><b></b></div></div>",enter,ospan,retrieval,3s0850LyyiM1M0h5V50ZafdHweG2,html-keyboard-response,61,463619,0.0-46.0-0.0-1.0-3.0,NA,NA,NA,2.0,"[""P"",""J""]","[""P"",""J""]",1.0,2.0,"['<font color=""green"">P</font>', '<font color=""green"">J</font>']",,,,,,61598cba874ca07729d42b2a,15:26:19,03/04/2024
1932.7999999523163,"['<p style=""font-size:44px"">Letters:<br><br><br><font color=""green"">P</font> <font color=""green"">J</font></p><br><br>']",0,ospan,practice_feedback,3s0850LyyiM1M0h5V50ZafdHweG2,html-button-response,62,466075,0.0-46.0-0.0-1.0-4.0,,,,,,,,,,,,,,,61598cba874ca07729d42b2a,15:26:19,03/04/2024
,"<p style=""font-size:75px;"">...</p>",,ospan,iti,3s0850LyyiM1M0h5V50ZafdHweG2,html-keyboard-response,63,467083,0.0-46.0-0.0-2.0-0.0,,,,,,,,,,,,,,,61598cba874ca07729d42b2a,15:26:19,03/04/2024
,"<div style=""font-size: 10rem; color: #0000FF"">K</div>",,ospan,letter,3s0850LyyiM1M0h5V50ZafdHweG2,html-keyboard-response,64,468099,0.0-46.0-0.0-2.0-1.0,,,,,,,,,,,,,,,61598cba874ca07729d42b2a,15:26:19,03/04/2024
,"<div style=""font-size: 10rem; color: #0000FF"">R</div>",,ospan,letter,3s0850LyyiM1M0h5V50ZafdHweG2,html-keyboard-response,65,469854,0.0-46.0-0.0-2.0-2.0,,,,,,,,,,,,,,,61598cba874ca07729d42b2a,15:26:19,03/04/2024
,"<div style=""font-size: 10rem; color: #0000FF"">C</div>",,ospan,letter,3s0850LyyiM1M0h5V50ZafdHweG2,html-keyboard-response,66,471628,0.0-46.0-0.0-2.0-3.0,,,,,,,,,,,,,,,61598cba874ca07729d42b2a,15:26:19,03/04/2024
3961.800000190735,"<div class = numbox><p style=""font-size: 2.4rem"">Please recall the letters you saw to the best of your ability. If you do not remember a particular letter, use the SKIP button.<br><b>(When you are ready to lock in your answer, press ENTER)</b></p><button id = button_1 class = ""square num-button"" onclick = ""recordClick(this)""><div class = content><div class = numbers>C</div></div></button><button id = button_2 class = ""square num-button"" onclick = ""recordClick(this)""><div class = content><div class = numbers>G</div></div></button><button id = button_3 class = ""square num-button"" onclick = ""recordClick(this)""><div class = content><div class = numbers>H</div></div></button><button id = button_4 class = ""square num-button"" onclick = ""recordClick(this)""><div class = content><div class = numbers>J</div></div></button><button id = button_5 class = ""square num-button"" onclick = ""recordClick(this)""><div class = content><div class = numbers>K</div></div></button><button id = button_6 class = ""square num-button"" onclick = ""recordClick(this)""><div class = content><div class = numbers>L</div></div></button><button id = button_7 class = ""square num-button"" onclick = ""recordClick(this)""><div class = content><div class = numbers>N</div></div></button><button id = button_8 class = ""square num-button"" onclick = ""recordClick(this)""><div class = content><div class = numbers>P</div></div></button><button id = button_9 class = ""square num-button"" onclick = ""recordClick(this)""><div class = content><div class = numbers>Q</div></div></button><button id = button_10 class = ""square num-button"" onclick = ""recordClick(this)""><div class = content><div class = numbers>R</div></div></button><button id = button_11 class = ""square num-button"" onclick = ""recordClick(this)""><div class = content><div class = numbers>S</div></div></button><button id = button_12 class = ""square num-button"" onclick = ""recordClick(this)""><div class = content><div class = numbers>Y</div></div></button><button class = clear_button id = ""ClearButton"" onclick = ""clearResponse()"">BACKSPACE</button><button class = blank_button id = ""BlankButton"" onclick = ""blankResponse()"">SKIP</button><p style=""font-size: 2.4rem""><u><b>Current Answer:</b></u></p><br><br><div id=echoed_txt style=""font-size: 5rem; color:blue;""><b></b></div></div>",enter,ospan,retrieval,3s0850LyyiM1M0h5V50ZafdHweG2,html-keyboard-response,67,476355,0.0-46.0-0.0-2.0-4.0,NA,NA,NA,3.0,"[""K"",""R"",""C""]","[""K"",""R"",""C""]",1.0,3.0,"['<font color=""green"">K</font>', '<font color=""green"">R</font>', '<font color=""green"">C</font>']",,,,,,61598cba874ca07729d42b2a,15:26:19,03/04/2024
2750.0999999046326,"['<p style=""font-size:44px"">Letters:<br><br><br><font color=""green"">K</font> <font color=""green"">R</font> <font color=""green"">C</font></p><br><br>']",0,ospan,practice_feedback,3s0850LyyiM1M0h5V50ZafdHweG2,html-button-response,68,479611,0.0-46.0-0.0-2.0-5.0,,,,,,,,,,,,,,,61598cba874ca07729d42b2a,15:26:19,03/04/2024
13454.699999809265,"<div class = 'left_align' style='font-size: 3.25rem; line-height: 1.3;'>Now you will practice doing the <b>symmetry judgment part</b> of the experiment.<br><br>A black and white grid picture will appear on the screen and you have to judge if it is <br>symmetrical or asymetrical.<br><br>A picture is 'mirror' symmetrical if its left half is identical to the right half when flipped.<br>Here are examples of a symmetrical and an asymetrical picture:<br><br><center><img src='Stimuli/img/symm_instructions_extra.png' style='height:420px; width:900'></img></center><br>To judge symmetry, imagine you were to fold each picture down the middle, like a book –<br>would the left half match the right half when folded onto each other?<br><br></div><br>",0,ospan,instruct,3s0850LyyiM1M0h5V50ZafdHweG2,html-button-response,69,493067,0.0-46.0-1.0-0.0-0.0,,,,,,,,,,,,,,,61598cba874ca07729d42b2a,15:26:19,03/04/2024
4120.700000047684,"<div class = 'left_align' style='font-size: 3.25rem; line-height: 1.3;'>When you have viewed the picture and determined whether it is symmetrical or not,<br>you can <b>click the Yes or No button</b> below to answer.<br><br>If you take longer than 15 seconds, it will continue automatically<br>and record the answer as an error.</div><br>",0,ospan,instruct,3s0850LyyiM1M0h5V50ZafdHweG2,html-button-response,70,497443,0.0-46.0-1.0-0.0-1.0,,,,,,,,,,,,,,,61598cba874ca07729d42b2a,15:26:19,03/04/2024
7617.399999856949,"<div class = 'left_align' style='font-size: 3.25rem; line-height: 1.3;'>It is <b>very</b> important that you make the symmetry judgment correctly.<br><br>It is also important that you try and judge the picture as quickly as you can.<br><br>When you are ready, click on the button below to try some practice problems.</div><br><br><br><br>",0,ospan,instruct,3s0850LyyiM1M0h5V50ZafdHweG2,html-button-response,71,505315,0.0-46.0-1.0-0.0-2.0,,,,,,,,,,,,,,,61598cba874ca07729d42b2a,15:26:19,03/04/2024
1611.0,,,ospan,symmetry,3s0850LyyiM1M0h5V50ZafdHweG2,symmetry-judgement-task,72,507776,0.0-46.0-1.0-1.0-0.0,,,,,,,,,,1.0,1.0,,,,61598cba874ca07729d42b2a,15:26:19,03/04/2024
,"<p style=""color:green; font-size: 35px"">Correct</p>",,ospan,feedback,3s0850LyyiM1M0h5V50ZafdHweG2,html-keyboard-response,73,508531,0.0-46.0-1.0-1.0-1.0,,,,,,,,,,,,,,,61598cba874ca07729d42b2a,15:26:19,03/04/2024
2467.0,,,ospan,symmetry,3s0850LyyiM1M0h5V50ZafdHweG2,symmetry-judgement-task,74,513747,0.0-46.0-1.0-1.0-2.0,,,,,,,,,,1.0,1.0,,,,61598cba874ca07729d42b2a,15:26:19,03/04/2024
,"<p style=""color:green; font-size: 35px"">Correct</p>",,ospan,feedback,3s0850LyyiM1M0h5V50ZafdHweG2,html-keyboard-response,75,514501,0.0-46.0-1.0-1.0-3.0,,,,,,,,,,,,,,,61598cba874ca07729d42b2a,15:26:19,03/04/2024
1069.0,,,ospan,symmetry,3s0850LyyiM1M0h5V50ZafdHweG2,symmetry-judgement-task,76,518321,0.0-46.0-1.0-1.0-4.0,,,,,,,,,,1.0,1.0,,,,61598cba874ca07729d42b2a,15:26:19,03/04/2024
,"<p style=""color:green; font-size: 35px"">Correct</p>",,ospan,feedback,3s0850LyyiM1M0h5V50ZafdHweG2,html-keyboard-response,77,519073,0.0-46.0-1.0-1.0-5.0,,,,,,,,,,,,,,,61598cba874ca07729d42b2a,15:26:19,03/04/2024
1485.5,"<p style=""font-size: 3rem;"">You responded correctly on 3 of 3 symmetry judgments. Good job!</p><br><br>",0,ospan,practice,3s0850LyyiM1M0h5V50ZafdHweG2,html-button-response,78,522563,0.0-46.0-1.0-2.0,,,,,,,,,,,,,,,61598cba874ca07729d42b2a,15:26:19,03/04/2024
13553.200000047684,"<div class = 'left_align' style='font-size: 3.25rem; line-height: 1.3;'>Now you will practice doing both parts of the experiment at the same time.<br><br>In the next practice set, you will be given one grid picture to judge.<br>Then letter will appear on the screen. Try to remember the letter.<br><br>It is <b>very important</b> to make the symmetry judgment as quickly and accurately as possible.<br><br>Just as before, once you have make the symmetry judgment, you can click Yes or No.<br><b>Note that you will no longer see Correct or Incorrect feedback.</div><br><br><br><br>",0,ospan,instruct,3s0850LyyiM1M0h5V50ZafdHweG2,html-button-response,79,536371,0.0-46.0-2.0-0.0-0.0,,,,,,,,,,,,,,,61598cba874ca07729d42b2a,15:26:19,03/04/2024
6560.5,"<div class = 'left_align' style='font-size: 3.25rem; line-height: 1.3;'>After the letter goes away, another grid picture will appear, and then<br>another letter.<br><br>At the end of each set of letters and grids, you will recall the letters to the best<br>of your ability. Remember, try your best to get the letters in the correct order.<br><br>It is important to <b>quickly</b> and <b>accurately</b> make the symmetry judgments.</div><br><br><br><br>",0,ospan,instruct,3s0850LyyiM1M0h5V50ZafdHweG2,html-button-response,80,543195,0.0-46.0-2.0-0.0-1.0,,,,,,,,,,,,,,,61598cba874ca07729d42b2a,15:26:19,03/04/2024
13238.300000190735,"<div class = 'left_align' style='font-size: 3.25rem; line-height: 1.3;'>On the feedback screen, if you are not doing well at the symmetry judgments,<br>you will also see a warning in the middle. This indicates your percent <br>correct for the grid pictures for the entire experiment.<br><br>It is <b>very</b> important for you to keep accuracy at least at 85%: <u>We can only use<br>data where the participant was at least 85% accurate on the judgments.</u> Therefore,<br> please try your best to perform well on the symmetry judgments, <b>at the same time</b><br>doing your best to recall as many letters as possible.<br><br>Click the button to try some practice problems.</div><br><br><br><br>",0,ospan,instruct,3s0850LyyiM1M0h5V50ZafdHweG2,html-button-response,81,556707,0.0-46.0-2.0-0.0-2.0,,,,,,,,,,,,,,,61598cba874ca07729d42b2a,15:26:19,03/04/2024
,"<p style=""font-size:75px;"">...</p>",,ospan,iti,3s0850LyyiM1M0h5V50ZafdHweG2,html-keyboard-response,82,557966,0.0-46.0-2.0-1.0-0.0,,,,,,,,,,,,,,,61598cba874ca07729d42b2a,15:26:19,03/04/2024
1254.0,,,ospan,symmetry,3s0850LyyiM1M0h5V50ZafdHweG2,symmetry-judgement-task,83,560468,0.0-46.0-2.0-1.0-1.0-0.0,,,,,,,,,,1.0,1.0,,,,61598cba874ca07729d42b2a,15:26:19,03/04/2024
,"<div style=""font-size: 10rem; color: #0000FF"">C</div>",,ospan,letter,3s0850LyyiM1M0h5V50ZafdHweG2,html-keyboard-response,84,561477,0.0-46.0-2.0-1.0-1.0-1.0,,,,,,,,,,,,,,,61598cba874ca07729d42b2a,15:26:19,03/04/2024
2137.0,,,ospan,symmetry,3s0850LyyiM1M0h5V50ZafdHweG2,symmetry-judgement-task,85,565578,0.0-46.0-2.0-1.0-1.0-2.0,,,,,,,,,,1.0,1.0,,,,61598cba874ca07729d42b2a,15:26:19,03/04/2024
,"<div style=""font-size: 10rem; color: #0000FF"">L</div>",,ospan,letter,3s0850LyyiM1M0h5V50ZafdHweG2,html-keyboard-response,86,566592,0.0-46.0-2.0-1.0-1.0-3.0,,,,,,,,,,,,,,,61598cba874ca07729d42b2a,15:26:19,03/04/2024
1344.0,,,ospan,symmetry,3s0850LyyiM1M0h5V50ZafdHweG2,symmetry-judgement-task,87,569965,0.0-46.0-2.0-1.0-1.0-4.0,,,,,,,,,,1.0,1.0,,,,61598cba874ca07729d42b2a,15:26:19,03/04/2024
,"<div style=""font-size: 10rem; color: #0000FF"">Y</div>",,ospan,letter,3s0850LyyiM1M0h5V50ZafdHweG2,html-keyboard-response,88,570976,0.0-46.0-2.0-1.0-1.0-5.0,,,,,,,,,,,,,,,61598cba874ca07729d42b2a,15:26:19,03/04/2024
2809.5999999046326,"<div class = numbox><p style=""font-size: 2.4rem"">Please recall the letters you saw to the best of your ability. If you do not remember a particular letter, use the SKIP button.<br><b>(When you are ready to lock in your answer, press ENTER)</b></p><button id = button_1 class = ""square num-button"" onclick = ""recordClick(this)""><div class = content><div class = numbers>C</div></div></button><button id = button_2 class = ""square num-button"" onclick = ""recordClick(this)""><div class = content><div class = numbers>G</div></div></button><button id = button_3 class = ""square num-button"" onclick = ""recordClick(this)""><div class = content><div class = numbers>H</div></div></button><button id = button_4 class = ""square num-button"" onclick = ""recordClick(this)""><div class = content><div class = numbers>J</div></div></button><button id = button_5 class = ""square num-button"" onclick = ""recordClick(this)""><div class = content><div class = numbers>K</div></div></button><button id = button_6 class = ""square num-button"" onclick = ""recordClick(this)""><div class = content><div class = numbers>L</div></div></button><button id = button_7 class = ""square num-button"" onclick = ""recordClick(this)""><div class = content><div class = numbers>N</div></div></button><button id = button_8 class = ""square num-button"" onclick = ""recordClick(this)""><div class = content><div class = numbers>P</div></div></button><button id = button_9 class = ""square num-button"" onclick = ""recordClick(this)""><div class = content><div class = numbers>Q</div></div></button><button id = button_10 class = ""square num-button"" onclick = ""recordClick(this)""><div class = content><div class = numbers>R</div></div></button><button id = button_11 class = ""square num-button"" onclick = ""recordClick(this)""><div class = content><div class = numbers>S</div></div></button><button id = button_12 class = ""square num-button"" onclick = ""recordClick(this)""><div class = content><div class = numbers>Y</div></div></button><button class = clear_button id = ""ClearButton"" onclick = ""clearResponse()"">BACKSPACE</button><button class = blank_button id = ""BlankButton"" onclick = ""blankResponse()"">SKIP</button><p style=""font-size: 2.4rem""><u><b>Current Answer:</b></u></p><br><br><div id=echoed_txt style=""font-size: 5rem; color:blue;""><b></b></div></div>",enter,ospan,retrieval,3s0850LyyiM1M0h5V50ZafdHweG2,html-keyboard-response,89,574547,0.0-46.0-2.0-1.0-2.0-0.0,NA,NA,NA,3.0,"[""C"",""L"",""Y""]","[""C"",""L"",""Y""]",1.0,3.0,"['<font color=""green"">C</font>', '<font color=""green"">L</font>', '<font color=""green"">Y</font>']",,,,,,61598cba874ca07729d42b2a,15:26:19,03/04/2024
1400.4000000953674,"['<p style=""font-size:44px"">Letters:<br><br><br><font color=""green"">C</font> <font color=""green"">L</font> <font color=""green"">Y</font></p><br><br><p style=""font-size:30px"">Symmetry:<br><br><font color=""green"">100%</font></p><br><br>']",0,ospan,practice_feedback,3s0850LyyiM1M0h5V50ZafdHweG2,html-button-response,90,576459,0.0-46.0-2.0-1.0-2.0-1.0,,,,,,,,,,,,,,,61598cba874ca07729d42b2a,15:26:19,03/04/2024
,"<p style=""font-size:75px;"">...</p>",,ospan,iti,3s0850LyyiM1M0h5V50ZafdHweG2,html-keyboard-response,91,577474,0.0-46.0-2.0-2.0-0.0,,,,,,,,,,,,,,,61598cba874ca07729d42b2a,15:26:19,03/04/2024
1692.0,,,ospan,symmetry,3s0850LyyiM1M0h5V50ZafdHweG2,symmetry-judgement-task,92,580214,0.0-46.0-2.0-2.0-1.0-0.0,,,,,,,,,,1.0,1.0,,,,61598cba874ca07729d42b2a,15:26:19,03/04/2024
,"<div style=""font-size: 10rem; color: #0000FF"">C</div>",,ospan,letter,3s0850LyyiM1M0h5V50ZafdHweG2,html-keyboard-response,93,581222,0.0-46.0-2.0-2.0-1.0-1.0,,,,,,,,,,,,,,,61598cba874ca07729d42b2a,15:26:19,03/04/2024
1389.0,,,ospan,symmetry,3s0850LyyiM1M0h5V50ZafdHweG2,symmetry-judgement-task,94,584588,0.0-46.0-2.0-2.0-1.0-2.0,,,,,,,,,,1.0,1.0,,,,61598cba874ca07729d42b2a,15:26:19,03/04/2024
,"<div style=""font-size: 10rem; color: #0000FF"">J</div>",,ospan,letter,3s0850LyyiM1M0h5V50ZafdHweG2,html-keyboard-response,95,585601,0.0-46.0-2.0-2.0-1.0-3.0,,,,,,,,,,,,,,,61598cba874ca07729d42b2a,15:26:19,03/04/2024
1659.0,,,ospan,symmetry,3s0850LyyiM1M0h5V50ZafdHweG2,symmetry-judgement-task,96,589266,0.0-46.0-2.0-2.0-1.0-4.0,,,,,,,,,,1.0,1.0,,,,61598cba874ca07729d42b2a,15:26:19,03/04/2024
,"<div style=""font-size: 10rem; color: #0000FF"">S</div>",,ospan,letter,3s0850LyyiM1M0h5V50ZafdHweG2,html-keyboard-response,97,590276,0.0-46.0-2.0-2.0-1.0-5.0,,,,,,,,,,,,,,,61598cba874ca07729d42b2a,15:26:19,03/04/2024
3383.2999999523163,"<div class = numbox><p style=""font-size: 2.4rem"">Please recall the letters you saw to the best of your ability. If you do not remember a particular letter, use the SKIP button.<br><b>(When you are ready to lock in your answer, press ENTER)</b></p><button id = button_1 class = ""square num-button"" onclick = ""recordClick(this)""><div class = content><div class = numbers>C</div></div></button><button id = button_2 class = ""square num-button"" onclick = ""recordClick(this)""><div class = content><div class = numbers>G</div></div></button><button id = button_3 class = ""square num-button"" onclick = ""recordClick(this)""><div class = content><div class = numbers>H</div></div></button><button id = button_4 class = ""square num-button"" onclick = ""recordClick(this)""><div class = content><div class = numbers>J</div></div></button><button id = button_5 class = ""square num-button"" onclick = ""recordClick(this)""><div class = content><div class = numbers>K</div></div></button><button id = button_6 class = ""square num-button"" onclick = ""recordClick(this)""><div class = content><div class = numbers>L</div></div></button><button id = button_7 class = ""square num-button"" onclick = ""recordClick(this)""><div class = content><div class = numbers>N</div></div></button><button id = button_8 class = ""square num-button"" onclick = ""recordClick(this)""><div class = content><div class = numbers>P</div></div></button><button id = button_9 class = ""square num-button"" onclick = ""recordClick(this)""><div class = content><div class = numbers>Q</div></div></button><button id = button_10 class = ""square num-button"" onclick = ""recordClick(this)""><div class = content><div class = numbers>R</div></div></button><button id = button_11 class = ""square num-button"" onclick = ""recordClick(this)""><div class = content><div class = numbers>S</div></div></button><button id = button_12 class = ""square num-button"" onclick = ""recordClick(this)""><div class = content><div class = numbers>Y</div></div></button><button class = clear_button id = ""ClearButton"" onclick = ""clearResponse()"">BACKSPACE</button><button class = blank_button id = ""BlankButton"" onclick = ""blankResponse()"">SKIP</button><p style=""font-size: 2.4rem""><u><b>Current Answer:</b></u></p><br><br><div id=echoed_txt style=""font-size: 5rem; color:blue;""><b></b></div></div>",enter,ospan,retrieval,3s0850LyyiM1M0h5V50ZafdHweG2,html-keyboard-response,98,594427,0.0-46.0-2.0-2.0-2.0-0.0,NA,NA,NA,3.0,"[""C"",""J"",""S""]","[""C"",""J"",""S""]",1.0,3.0,"['<font color=""green"">C</font>', '<font color=""green"">J</font>', '<font color=""green"">S</font>']",,,,,,61598cba874ca07729d42b2a,15:26:19,03/04/2024
729.0999999046326,"['<p style=""font-size:44px"">Letters:<br><br><br><font color=""green"">C</font> <font color=""green"">J</font> <font color=""green"">S</font></p><br><br><p style=""font-size:30px"">Symmetry:<br><br><font color=""green"">100%</font></p><br><br>']",0,ospan,practice_feedback,3s0850LyyiM1M0h5V50ZafdHweG2,html-button-response,99,595667,0.0-46.0-2.0-2.0-2.0-1.0,,,,,,,,,,,,,,,61598cba874ca07729d42b2a,15:26:19,03/04/2024
142917.39999985695,"<div class = 'left_align' style='font-size: 3rem; line-height: 1.3;'><b>Great work! That is the end of practice.</b><br><br>The real trials will look just like the practice trials you just completed.<br><br><u>Here, you will not see feedback</u>. First, you will see an grid picture to judge,<br>then a letter to remember. When the recall screen appears, report the letters in the<br>order presented. If you forget a letter, remember to use the <b>blank</b> button to move to the<br>next letter. Some of the sets will have more symmetry grids and letters than others.<br><br>It is important that you do your best on both the symmetry judgments and the letter recall<br>parts of the experiment. For for the symmetry judgments, try to work as <b>quickly</b> and <br>as <b>accurately</b> as possible. Remember to keep your symmetry accuracy at 85% or above.<br><br><b>For the letters, do NOT use any external aid (e.g., writing on paper, electronic device).</b><br><br>It is <u>very important</u> to our experiment to have a <b>true</b> view of your real performance.<br><br>Do not worry if you miss some when it gets hard! This task is meant to be very challenging!<br><br>Click the button to begin.</div><br><br><br><br>",0,ospan,starting_real_here,3s0850LyyiM1M0h5V50ZafdHweG2,html-button-response,100,738587,0.0-46.0-2.0-3.0,,,,,,,,,,,,,,,61598cba874ca07729d42b2a,15:26:19,03/04/2024
,"<p style=""font-size:75px;"">...</p>",,ospan,iti,3s0850LyyiM1M0h5V50ZafdHweG2,html-keyboard-response,101,739845,0.0-46.0-3.0-0.0-0.0,,,,,,,,,,,,,,,61598cba874ca07729d42b2a,15:26:19,03/04/2024
1217.0,,,ospan,symmetry,3s0850LyyiM1M0h5V50ZafdHweG2,symmetry-judgement-task,102,742301,0.0-46.0-3.0-0.0-1.0-0.0,,,,,,,,,,1.0,1.0,,,,61598cba874ca07729d42b2a,15:26:19,03/04/2024
,"<div style=""font-size: 10rem; color: #0000FF"">Y</div>",,ospan,letter,3s0850LyyiM1M0h5V50ZafdHweG2,html-keyboard-response,103,743304,0.0-46.0-3.0-0.0-1.0-1.0,,,,,,,,,,,,,,,61598cba874ca07729d42b2a,15:26:19,03/04/2024
957.0,,,ospan,symmetry,3s0850LyyiM1M0h5V50ZafdHweG2,symmetry-judgement-task,104,746221,0.0-46.0-3.0-0.0-1.0-2.0,,,,,,,,,,1.0,1.0,,,,61598cba874ca07729d42b2a,15:26:19,03/04/2024
,"<div style=""font-size: 10rem; color: #0000FF"">N</div>",,ospan,letter,3s0850LyyiM1M0h5V50ZafdHweG2,html-keyboard-response,105,747226,0.0-46.0-3.0-0.0-1.0-3.0,,,,,,,,,,,,,,,61598cba874ca07729d42b2a,15:26:19,03/04/2024
1232.0,,,ospan,symmetry,3s0850LyyiM1M0h5V50ZafdHweG2,symmetry-judgement-task,106,750429,0.0-46.0-3.0-0.0-1.0-4.0,,,,,,,,,,1.0,1.0,,,,61598cba874ca07729d42b2a,15:26:19,03/04/2024
,"<div style=""font-size: 10rem; color: #0000FF"">P</div>",,ospan,letter,3s0850LyyiM1M0h5V50ZafdHweG2,html-keyboard-response,107,751444,0.0-46.0-3.0-0.0-1.0-5.0,,,,,,,,,,,,,,,61598cba874ca07729d42b2a,15:26:19,03/04/2024
3028.600000143051,"<div class = numbox><p style=""font-size: 2.4rem"">Please recall the letters you saw to the best of your ability. If you do not remember a particular letter, use the SKIP button.<br><b>(When you are ready to lock in your answer, press ENTER)</b></p><button id = button_1 class = ""square num-button"" onclick = ""recordClick(this)""><div class = content><div class = numbers>C</div></div></button><button id = button_2 class = ""square num-button"" onclick = ""recordClick(this)""><div class = content><div class = numbers>G</div></div></button><button id = button_3 class = ""square num-button"" onclick = ""recordClick(this)""><div class = content><div class = numbers>H</div></div></button><button id = button_4 class = ""square num-button"" onclick = ""recordClick(this)""><div class = content><div class = numbers>J</div></div></button><button id = button_5 class = ""square num-button"" onclick = ""recordClick(this)""><div class = content><div class = numbers>K</div></div></button><button id = button_6 class = ""square num-button"" onclick = ""recordClick(this)""><div class = content><div class = numbers>L</div></div></button><button id = button_7 class = ""square num-button"" onclick = ""recordClick(this)""><div class = content><div class = numbers>N</div></div></button><button id = button_8 class = ""square num-button"" onclick = ""recordClick(this)""><div class = content><div class = numbers>P</div></div></button><button id = button_9 class = ""square num-button"" onclick = ""recordClick(this)""><div class = content><div class = numbers>Q</div></div></button><button id = button_10 class = ""square num-button"" onclick = ""recordClick(this)""><div class = content><div class = numbers>R</div></div></button><button id = button_11 class = ""square num-button"" onclick = ""recordClick(this)""><div class = content><div class = numbers>S</div></div></button><button id = button_12 class = ""square num-button"" onclick = ""recordClick(this)""><div class = content><div class = numbers>Y</div></div></button><button class = clear_button id = ""ClearButton"" onclick = ""clearResponse()"">BACKSPACE</button><button class = blank_button id = ""BlankButton"" onclick = ""blankResponse()"">SKIP</button><p style=""font-size: 2.4rem""><u><b>Current Answer:</b></u></p><br><br><div id=echoed_txt style=""font-size: 5rem; color:blue;""><b></b></div></div>",enter,ospan,retrieval,3s0850LyyiM1M0h5V50ZafdHweG2,html-keyboard-response,108,755227,0.0-46.0-3.0-0.0-2.0,3,3,3,3.0,"[""Y"",""N"",""P""]","[""Y"",""N"",""P""]",1.0,3.0,,,,,,,61598cba874ca07729d42b2a,15:26:19,03/04/2024
888.0999999046326,[''],0,ospan,feedback,3s0850LyyiM1M0h5V50ZafdHweG2,html-button-response,109,756635,0.0-46.0-3.0-0.0-3.0,,,,,,,,,,,,100.0,0.0,,61598cba874ca07729d42b2a,15:26:19,03/04/2024
,"<p style=""font-size:75px;"">...</p>",,ospan,iti,3s0850LyyiM1M0h5V50ZafdHweG2,html-keyboard-response,110,757639,0.0-46.0-4.0-0.0-0.0,,,,,,,,,,,,,,,61598cba874ca07729d42b2a,15:26:19,03/04/2024
1025.0,,,ospan,symmetry,3s0850LyyiM1M0h5V50ZafdHweG2,symmetry-judgement-task,111,759910,0.0-46.0-4.0-0.0-1.0-0.0,,,,,,,,,,1.0,1.0,,,,61598cba874ca07729d42b2a,15:26:19,03/04/2024
,"<div style=""font-size: 10rem; color: #0000FF"">K</div>",,ospan,letter,3s0850LyyiM1M0h5V50ZafdHweG2,html-keyboard-response,112,760924,0.0-46.0-4.0-0.0-1.0-1.0,,,,,,,,,,,,,,,61598cba874ca07729d42b2a,15:26:19,03/04/2024
1203.0,,,ospan,symmetry,3s0850LyyiM1M0h5V50ZafdHweG2,symmetry-judgement-task,113,764125,0.0-46.0-4.0-0.0-1.0-2.0,,,,,,,,,,1.0,1.0,,,,61598cba874ca07729d42b2a,15:26:19,03/04/2024
,"<div style=""font-size: 10rem; color: #0000FF"">G</div>",,ospan,letter,3s0850LyyiM1M0h5V50ZafdHweG2,html-keyboard-response,114,765136,0.0-46.0-4.0-0.0-1.0-3.0,,,,,,,,,,,,,,,61598cba874ca07729d42b2a,15:26:19,03/04/2024
1373.0,,,ospan,symmetry,3s0850LyyiM1M0h5V50ZafdHweG2,symmetry-judgement-task,115,768484,0.0-46.0-4.0-0.0-1.0-4.0,,,,,,,,,,1.0,1.0,,,,61598cba874ca07729d42b2a,15:26:19,03/04/2024
,"<div style=""font-size: 10rem; color: #0000FF"">N</div>",,ospan,letter,3s0850LyyiM1M0h5V50ZafdHweG2,html-keyboard-response,116,769492,0.0-46.0-4.0-0.0-1.0-5.0,,,,,,,,,,,,,,,61598cba874ca07729d42b2a,15:26:19,03/04/2024
1017.0,,,ospan,symmetry,3s0850LyyiM1M0h5V50ZafdHweG2,symmetry-judgement-task,117,772547,0.0-46.0-4.0-0.0-1.0-6.0,,,,,,,,,,1.0,1.0,,,,61598cba874ca07729d42b2a,15:26:19,03/04/2024
,"<div style=""font-size: 10rem; color: #0000FF"">S</div>",,ospan,letter,3s0850LyyiM1M0h5V50ZafdHweG2,html-keyboard-response,118,773563,0.0-46.0-4.0-0.0-1.0-7.0,,,,,,,,,,,,,,,61598cba874ca07729d42b2a,15:26:19,03/04/2024
5208.799999952316,"<div class = numbox><p style=""font-size: 2.4rem"">Please recall the letters you saw to the best of your ability. If you do not remember a particular letter, use the SKIP button.<br><b>(When you are ready to lock in your answer, press ENTER)</b></p><button id = button_1 class = ""square num-button"" onclick = ""recordClick(this)""><div class = content><div class = numbers>C</div></div></button><button id = button_2 class = ""square num-button"" onclick = ""recordClick(this)""><div class = content><div class = numbers>G</div></div></button><button id = button_3 class = ""square num-button"" onclick = ""recordClick(this)""><div class = content><div class = numbers>H</div></div></button><button id = button_4 class = ""square num-button"" onclick = ""recordClick(this)""><div class = content><div class = numbers>J</div></div></button><button id = button_5 class = ""square num-button"" onclick = ""recordClick(this)""><div class = content><div class = numbers>K</div></div></button><button id = button_6 class = ""square num-button"" onclick = ""recordClick(this)""><div class = content><div class = numbers>L</div></div></button><button id = button_7 class = ""square num-button"" onclick = ""recordClick(this)""><div class = content><div class = numbers>N</div></div></button><button id = button_8 class = ""square num-button"" onclick = ""recordClick(this)""><div class = content><div class = numbers>P</div></div></button><button id = button_9 class = ""square num-button"" onclick = ""recordClick(this)""><div class = content><div class = numbers>Q</div></div></button><button id = button_10 class = ""square num-button"" onclick = ""recordClick(this)""><div class = content><div class = numbers>R</div></div></button><button id = button_11 class = ""square num-button"" onclick = ""recordClick(this)""><div class = content><div class = numbers>S</div></div></button><button id = button_12 class = ""square num-button"" onclick = ""recordClick(this)""><div class = content><div class = numbers>Y</div></div></button><button class = clear_button id = ""ClearButton"" onclick = ""clearResponse()"">BACKSPACE</button><button class = blank_button id = ""BlankButton"" onclick = ""blankResponse()"">SKIP</button><p style=""font-size: 2.4rem""><u><b>Current Answer:</b></u></p><br><br><div id=echoed_txt style=""font-size: 5rem; color:blue;""><b></b></div></div>",enter,ospan,retrieval,3s0850LyyiM1M0h5V50ZafdHweG2,html-keyboard-response,119,779539,0.0-46.0-4.0-0.0-2.0,7,7,7,4.0,"[""K"",""G"",""N"",""S""]","[""K"",""G"",""N"",""S""]",1.0,4.0,,,,,,,61598cba874ca07729d42b2a,15:26:19,03/04/2024
883.2999999523163,[''],0,ospan,feedback,3s0850LyyiM1M0h5V50ZafdHweG2,html-button-response,120,780931,0.0-46.0-4.0-0.0-3.0,,,,,,,,,,,,100.0,0.0,,61598cba874ca07729d42b2a,15:26:19,03/04/2024
,"<p style=""font-size:75px;"">...</p>",,ospan,iti,3s0850LyyiM1M0h5V50ZafdHweG2,html-keyboard-response,121,781939,0.0-46.0-4.0-1.0-0.0,,,,,,,,,,,,,,,61598cba874ca07729d42b2a,15:26:19,03/04/2024
1151.0,,,ospan,symmetry,3s0850LyyiM1M0h5V50ZafdHweG2,symmetry-judgement-task,122,784311,0.0-46.0-4.0-1.0-1.0-0.0,,,,,,,,,,1.0,1.0,,,,61598cba874ca07729d42b2a,15:26:19,03/04/2024
,"<div style=""font-size: 10rem; color: #0000FF"">C</div>",,ospan,letter,3s0850LyyiM1M0h5V50ZafdHweG2,html-keyboard-response,123,785315,0.0-46.0-4.0-1.0-1.0-1.0,,,,,,,,,,,,,,,61598cba874ca07729d42b2a,15:26:19,03/04/2024
1044.0,,,ospan,symmetry,3s0850LyyiM1M0h5V50ZafdHweG2,symmetry-judgement-task,124,788349,0.0-46.0-4.0-1.0-1.0-2.0,,,,,,,,,,1.0,1.0,,,,61598cba874ca07729d42b2a,15:26:19,03/04/2024
,"<div style=""font-size: 10rem; color: #0000FF"">Q</div>",,ospan,letter,3s0850LyyiM1M0h5V50ZafdHweG2,html-keyboard-response,125,789367,0.0-46.0-4.0-1.0-1.0-3.0,,,,,,,,,,,,,,,61598cba874ca07729d42b2a,15:26:19,03/04/2024
993.0,,,ospan,symmetry,3s0850LyyiM1M0h5V50ZafdHweG2,symmetry-judgement-task,126,792356,0.0-46.0-4.0-1.0-1.0-4.0,,,,,,,,,,1.0,1.0,,,,61598cba874ca07729d42b2a,15:26:19,03/04/2024
,"<div style=""font-size: 10rem; color: #0000FF"">J</div>",,ospan,letter,3s0850LyyiM1M0h5V50ZafdHweG2,html-keyboard-response,127,793378,0.0-46.0-4.0-1.0-1.0-5.0,,,,,,,,,,,,,,,61598cba874ca07729d42b2a,15:26:19,03/04/2024
1452.0,,,ospan,symmetry,3s0850LyyiM1M0h5V50ZafdHweG2,symmetry-judgement-task,128,796810,0.0-46.0-4.0-1.0-1.0-6.0,,,,,,,,,,1.0,1.0,,,,61598cba874ca07729d42b2a,15:26:19,03/04/2024
,"<div style=""font-size: 10rem; color: #0000FF"">L</div>",,ospan,letter,3s0850LyyiM1M0h5V50ZafdHweG2,html-keyboard-response,129,797815,0.0-46.0-4.0-1.0-1.0-7.0,,,,,,,,,,,,,,,61598cba874ca07729d42b2a,15:26:19,03/04/2024
1484.0,,,ospan,symmetry,3s0850LyyiM1M0h5V50ZafdHweG2,symmetry-judgement-task,130,801335,0.0-46.0-4.0-1.0-1.0-8.0,,,,,,,,,,1.0,1.0,,,,61598cba874ca07729d42b2a,15:26:19,03/04/2024
,"<div style=""font-size: 10rem; color: #0000FF"">G</div>",,ospan,letter,3s0850LyyiM1M0h5V50ZafdHweG2,html-keyboard-response,131,802353,0.0-46.0-4.0-1.0-1.0-9.0,,,,,,,,,,,,,,,61598cba874ca07729d42b2a,15:26:19,03/04/2024
8345.099999904633,"<div class = numbox><p style=""font-size: 2.4rem"">Please recall the letters you saw to the best of your ability. If you do not remember a particular letter, use the SKIP button.<br><b>(When you are ready to lock in your answer, press ENTER)</b></p><button id = button_1 class = ""square num-button"" onclick = ""recordClick(this)""><div class = content><div class = numbers>C</div></div></button><button id = button_2 class = ""square num-button"" onclick = ""recordClick(this)""><div class = content><div class = numbers>G</div></div></button><button id = button_3 class = ""square num-button"" onclick = ""recordClick(this)""><div class = content><div class = numbers>H</div></div></button><button id = button_4 class = ""square num-button"" onclick = ""recordClick(this)""><div class = content><div class = numbers>J</div></div></button><button id = button_5 class = ""square num-button"" onclick = ""recordClick(this)""><div class = content><div class = numbers>K</div></div></button><button id = button_6 class = ""square num-button"" onclick = ""recordClick(this)""><div class = content><div class = numbers>L</div></div></button><button id = button_7 class = ""square num-button"" onclick = ""recordClick(this)""><div class = content><div class = numbers>N</div></div></button><button id = button_8 class = ""square num-button"" onclick = ""recordClick(this)""><div class = content><div class = numbers>P</div></div></button><button id = button_9 class = ""square num-button"" onclick = ""recordClick(this)""><div class = content><div class = numbers>Q</div></div></button><button id = button_10 class = ""square num-button"" onclick = ""recordClick(this)""><div class = content><div class = numbers>R</div></div></button><button id = button_11 class = ""square num-button"" onclick = ""recordClick(this)""><div class = content><div class = numbers>S</div></div></button><button id = button_12 class = ""square num-button"" onclick = ""recordClick(this)""><div class = content><div class = numbers>Y</div></div></button><button class = clear_button id = ""ClearButton"" onclick = ""clearResponse()"">BACKSPACE</button><button class = blank_button id = ""BlankButton"" onclick = ""blankResponse()"">SKIP</button><p style=""font-size: 2.4rem""><u><b>Current Answer:</b></u></p><br><br><div id=echoed_txt style=""font-size: 5rem; color:blue;""><b></b></div></div>",enter,ospan,retrieval,3s0850LyyiM1M0h5V50ZafdHweG2,html-keyboard-response,132,811451,0.0-46.0-4.0-1.0-2.0,12,10,7,5.0,"[""C"",""Q"",""L"",""J"",""G""]","[""C"",""Q"",""J"",""L"",""G""]",0.0,3.0,,,,,,,61598cba874ca07729d42b2a,15:26:19,03/04/2024
1393.5999999046326,[''],0,ospan,feedback,3s0850LyyiM1M0h5V50ZafdHweG2,html-button-response,133,813363,0.0-46.0-4.0-1.0-3.0,,,,,,,,,,,,100.0,0.0,,61598cba874ca07729d42b2a,15:26:19,03/04/2024
,"<p style=""font-size:75px;"">...</p>",,ospan,iti,3s0850LyyiM1M0h5V50ZafdHweG2,html-keyboard-response,134,814377,0.0-46.0-4.0-2.0-0.0,,,,,,,,,,,,,,,61598cba874ca07729d42b2a,15:26:19,03/04/2024
2492.0,,,ospan,symmetry,3s0850LyyiM1M0h5V50ZafdHweG2,symmetry-judgement-task,135,818144,0.0-46.0-4.0-2.0-1.0-0.0,,,,,,,,,,1.0,1.0,,,,61598cba874ca07729d42b2a,15:26:19,03/04/2024
,"<div style=""font-size: 10rem; color: #0000FF"">Q</div>",,ospan,letter,3s0850LyyiM1M0h5V50ZafdHweG2,html-keyboard-response,136,819163,0.0-46.0-4.0-2.0-1.0-1.0,,,,,,,,,,,,,,,61598cba874ca07729d42b2a,15:26:19,03/04/2024
1172.0,,,ospan,symmetry,3s0850LyyiM1M0h5V50ZafdHweG2,symmetry-judgement-task,137,822366,0.0-46.0-4.0-2.0-1.0-2.0,,,,,,,,,,1.0,1.0,,,,61598cba874ca07729d42b2a,15:26:19,03/04/2024
,"<div style=""font-size: 10rem; color: #0000FF"">K</div>",,ospan,letter,3s0850LyyiM1M0h5V50ZafdHweG2,html-keyboard-response,138,823387,0.0-46.0-4.0-2.0-1.0-3.0,,,,,,,,,,,,,,,61598cba874ca07729d42b2a,15:26:19,03/04/2024
1296.0,,,ospan,symmetry,3s0850LyyiM1M0h5V50ZafdHweG2,symmetry-judgement-task,139,826723,0.0-46.0-4.0-2.0-1.0-4.0,,,,,,,,,,1.0,1.0,,,,61598cba874ca07729d42b2a,15:26:19,03/04/2024
,"<div style=""font-size: 10rem; color: #0000FF"">R</div>",,ospan,letter,3s0850LyyiM1M0h5V50ZafdHweG2,html-keyboard-response,140,827733,0.0-46.0-4.0-2.0-1.0-5.0,,,,,,,,,,,,,,,61598cba874ca07729d42b2a,15:26:19,03/04/2024
3897.0,"<div class = numbox><p style=""font-size: 2.4rem"">Please recall the letters you saw to the best of your ability. If you do not remember a particular letter, use the SKIP button.<br><b>(When you are ready to lock in your answer, press ENTER)</b></p><button id = button_1 class = ""square num-button"" onclick = ""recordClick(this)""><div class = content><div class = numbers>C</div></div></button><button id = button_2 class = ""square num-button"" onclick = ""recordClick(this)""><div class = content><div class = numbers>G</div></div></button><button id = button_3 class = ""square num-button"" onclick = ""recordClick(this)""><div class = content><div class = numbers>H</div></div></button><button id = button_4 class = ""square num-button"" onclick = ""recordClick(this)""><div class = content><div class = numbers>J</div></div></button><button id = button_5 class = ""square num-button"" onclick = ""recordClick(this)""><div class = content><div class = numbers>K</div></div></button><button id = button_6 class = ""square num-button"" onclick = ""recordClick(this)""><div class = content><div class = numbers>L</div></div></button><button id = button_7 class = ""square num-button"" onclick = ""recordClick(this)""><div class = content><div class = numbers>N</div></div></button><button id = button_8 class = ""square num-button"" onclick = ""recordClick(this)""><div class = content><div class = numbers>P</div></div></button><button id = button_9 class = ""square num-button"" onclick = ""recordClick(this)""><div class = content><div class = numbers>Q</div></div></button><button id = button_10 class = ""square num-button"" onclick = ""recordClick(this)""><div class = content><div class = numbers>R</div></div></button><button id = button_11 class = ""square num-button"" onclick = ""recordClick(this)""><div class = content><div class = numbers>S</div></div></button><button id = button_12 class = ""square num-button"" onclick = ""recordClick(this)""><div class = content><div class = numbers>Y</div></div></button><button class = clear_button id = ""ClearButton"" onclick = ""clearResponse()"">BACKSPACE</button><button class = blank_button id = ""BlankButton"" onclick = ""blankResponse()"">SKIP</button><p style=""font-size: 2.4rem""><u><b>Current Answer:</b></u></p><br><br><div id=echoed_txt style=""font-size: 5rem; color:blue;""><b></b></div></div>",enter,ospan,retrieval,3s0850LyyiM1M0h5V50ZafdHweG2,html-keyboard-response,141,832395,0.0-46.0-4.0-2.0-2.0,15,13,10,3.0,"[""Q"",""K"",""R""]","[""Q"",""K"",""R""]",1.0,3.0,,,,,,,61598cba874ca07729d42b2a,15:26:19,03/04/2024
991.9000000953674,[''],0,ospan,feedback,3s0850LyyiM1M0h5V50ZafdHweG2,html-button-response,142,833891,0.0-46.0-4.0-2.0-3.0,,,,,,,,,,,,100.0,0.0,,61598cba874ca07729d42b2a,15:26:19,03/04/2024
,"<p style=""font-size:75px;"">...</p>",,ospan,iti,3s0850LyyiM1M0h5V50ZafdHweG2,html-keyboard-response,143,834893,0.0-46.0-5.0-0.0-0.0,,,,,,,,,,,,,,,61598cba874ca07729d42b2a,15:26:19,03/04/2024
1532.0,,,ospan,symmetry,3s0850LyyiM1M0h5V50ZafdHweG2,symmetry-judgement-task,144,837637,0.0-46.0-5.0-0.0-1.0-0.0,,,,,,,,,,1.0,1.0,,,,61598cba874ca07729d42b2a,15:26:19,03/04/2024
,"<div style=""font-size: 10rem; color: #0000FF"">K</div>",,ospan,letter,3s0850LyyiM1M0h5V50ZafdHweG2,html-keyboard-response,145,838642,0.0-46.0-5.0-0.0-1.0-1.0,,,,,,,,,,,,,,,61598cba874ca07729d42b2a,15:26:19,03/04/2024
1094.0,,,ospan,symmetry,3s0850LyyiM1M0h5V50ZafdHweG2,symmetry-judgement-task,146,841732,0.0-46.0-5.0-0.0-1.0-2.0,,,,,,,,,,1.0,1.0,,,,61598cba874ca07729d42b2a,15:26:19,03/04/2024
,"<div style=""font-size: 10rem; color: #0000FF"">C</div>",,ospan,letter,3s0850LyyiM1M0h5V50ZafdHweG2,html-keyboard-response,147,842735,0.0-46.0-5.0-0.0-1.0-3.0,,,,,,,,,,,,,,,61598cba874ca07729d42b2a,15:26:19,03/04/2024
1292.0,,,ospan,symmetry,3s0850LyyiM1M0h5V50ZafdHweG2,symmetry-judgement-task,148,846011,0.0-46.0-5.0-0.0-1.0-4.0,,,,,,,,,,1.0,1.0,,,,61598cba874ca07729d42b2a,15:26:19,03/04/2024
,"<div style=""font-size: 10rem; color: #0000FF"">H</div>",,ospan,letter,3s0850LyyiM1M0h5V50ZafdHweG2,html-keyboard-response,149,847017,0.0-46.0-5.0-0.0-1.0-5.0,,,,,,,,,,,,,,,61598cba874ca07729d42b2a,15:26:19,03/04/2024
1536.0,,,ospan,symmetry,3s0850LyyiM1M0h5V50ZafdHweG2,symmetry-judgement-task,150,850437,0.0-46.0-5.0-0.0-1.0-6.0,,,,,,,,,,1.0,1.0,,,,61598cba874ca07729d42b2a,15:26:19,03/04/2024
,"<div style=""font-size: 10rem; color: #0000FF"">S</div>",,ospan,letter,3s0850LyyiM1M0h5V50ZafdHweG2,html-keyboard-response,151,851441,0.0-46.0-5.0-0.0-1.0-7.0,,,,,,,,,,,,,,,61598cba874ca07729d42b2a,15:26:19,03/04/2024
1693.0,,,ospan,symmetry,3s0850LyyiM1M0h5V50ZafdHweG2,symmetry-judgement-task,152,855124,0.0-46.0-5.0-0.0-1.0-8.0,,,,,,,,,,1.0,1.0,,,,61598cba874ca07729d42b2a,15:26:19,03/04/2024
,"<div style=""font-size: 10rem; color: #0000FF"">G</div>",,ospan,letter,3s0850LyyiM1M0h5V50ZafdHweG2,html-keyboard-response,153,856137,0.0-46.0-5.0-0.0-1.0-9.0,,,,,,,,,,,,,,,61598cba874ca07729d42b2a,15:26:19,03/04/2024
2313.0,,,ospan,symmetry,3s0850LyyiM1M0h5V50ZafdHweG2,symmetry-judgement-task,154,860437,0.0-46.0-5.0-0.0-1.0-10.0,,,,,,,,,,0.0,0.0,,,,61598cba874ca07729d42b2a,15:26:19,03/04/2024
,"<div style=""font-size: 10rem; color: #0000FF"">R</div>",,ospan,letter,3s0850LyyiM1M0h5V50ZafdHweG2,html-keyboard-response,155,861456,0.0-46.0-5.0-0.0-1.0-11.0,,,,,,,,,,,,,,,61598cba874ca07729d42b2a,15:26:19,03/04/2024
13793.799999952316,"<div class = numbox><p style=""font-size: 2.4rem"">Please recall the letters you saw to the best of your ability. If you do not remember a particular letter, use the SKIP button.<br><b>(When you are ready to lock in your answer, press ENTER)</b></p><button id = button_1 class = ""square num-button"" onclick = ""recordClick(this)""><div class = content><div class = numbers>C</div></div></button><button id = button_2 class = ""square num-button"" onclick = ""recordClick(this)""><div class = content><div class = numbers>G</div></div></button><button id = button_3 class = ""square num-button"" onclick = ""recordClick(this)""><div class = content><div class = numbers>H</div></div></button><button id = button_4 class = ""square num-button"" onclick = ""recordClick(this)""><div class = content><div class = numbers>J</div></div></button><button id = button_5 class = ""square num-button"" onclick = ""recordClick(this)""><div class = content><div class = numbers>K</div></div></button><button id = button_6 class = ""square num-button"" onclick = ""recordClick(this)""><div class = content><div class = numbers>L</div></div></button><button id = button_7 class = ""square num-button"" onclick = ""recordClick(this)""><div class = content><div class = numbers>N</div></div></button><button id = button_8 class = ""square num-button"" onclick = ""recordClick(this)""><div class = content><div class = numbers>P</div></div></button><button id = button_9 class = ""square num-button"" onclick = ""recordClick(this)""><div class = content><div class = numbers>Q</div></div></button><button id = button_10 class = ""square num-button"" onclick = ""recordClick(this)""><div class = content><div class = numbers>R</div></div></button><button id = button_11 class = ""square num-button"" onclick = ""recordClick(this)""><div class = content><div class = numbers>S</div></div></button><button id = button_12 class = ""square num-button"" onclick = ""recordClick(this)""><div class = content><div class = numbers>Y</div></div></button><button class = clear_button id = ""ClearButton"" onclick = ""clearResponse()"">BACKSPACE</button><button class = blank_button id = ""BlankButton"" onclick = ""blankResponse()"">SKIP</button><p style=""font-size: 2.4rem""><u><b>Current Answer:</b></u></p><br><br><div id=echoed_txt style=""font-size: 5rem; color:blue;""><b></b></div></div>",enter,ospan,retrieval,3s0850LyyiM1M0h5V50ZafdHweG2,html-keyboard-response,156,876003,0.0-46.0-5.0-0.0-2.0,21,18,10,6.0,"[""K"",""C"",""H"",""S"",""G"",""_""]","[""K"",""C"",""H"",""S"",""G"",""R""]",0.0,5.0,,,,,,,61598cba874ca07729d42b2a,15:26:19,03/04/2024
933.9000000953674,[''],0,ospan,feedback,3s0850LyyiM1M0h5V50ZafdHweG2,html-button-response,157,877443,0.0-46.0-5.0-0.0-3.0,,,,,,,,,,,,95.0,0.0,,61598cba874ca07729d42b2a,15:26:19,03/04/2024
,"<p style=""font-size:75px;"">...</p>",,ospan,iti,3s0850LyyiM1M0h5V50ZafdHweG2,html-keyboard-response,158,878447,0.0-46.0-5.0-1.0-0.0,,,,,,,,,,,,,,,61598cba874ca07729d42b2a,15:26:19,03/04/2024
1589.0,,,ospan,symmetry,3s0850LyyiM1M0h5V50ZafdHweG2,symmetry-judgement-task,159,881246,0.0-46.0-5.0-1.0-1.0-0.0,,,,,,,,,,1.0,1.0,,,,61598cba874ca07729d42b2a,15:26:19,03/04/2024
,"<div style=""font-size: 10rem; color: #0000FF"">N</div>",,ospan,letter,3s0850LyyiM1M0h5V50ZafdHweG2,html-keyboard-response,160,882266,0.0-46.0-5.0-1.0-1.0-1.0,,,,,,,,,,,,,,,61598cba874ca07729d42b2a,15:26:19,03/04/2024
924.0,,,ospan,symmetry,3s0850LyyiM1M0h5V50ZafdHweG2,symmetry-judgement-task,161,885157,0.0-46.0-5.0-1.0-1.0-2.0,,,,,,,,,,1.0,1.0,,,,61598cba874ca07729d42b2a,15:26:19,03/04/2024
,"<div style=""font-size: 10rem; color: #0000FF"">P</div>",,ospan,letter,3s0850LyyiM1M0h5V50ZafdHweG2,html-keyboard-response,162,886173,0.0-46.0-5.0-1.0-1.0-3.0,,,,,,,,,,,,,,,61598cba874ca07729d42b2a,15:26:19,03/04/2024
2195.0,,,ospan,symmetry,3s0850LyyiM1M0h5V50ZafdHweG2,symmetry-judgement-task,163,890365,0.0-46.0-5.0-1.0-1.0-4.0,,,,,,,,,,1.0,1.0,,,,61598cba874ca07729d42b2a,15:26:19,03/04/2024
,"<div style=""font-size: 10rem; color: #0000FF"">Q</div>",,ospan,letter,3s0850LyyiM1M0h5V50ZafdHweG2,html-keyboard-response,164,891383,0.0-46.0-5.0-1.0-1.0-5.0,,,,,,,,,,,,,,,61598cba874ca07729d42b2a,15:26:19,03/04/2024
1212.0,,,ospan,symmetry,3s0850LyyiM1M0h5V50ZafdHweG2,symmetry-judgement-task,165,894551,0.0-46.0-5.0-1.0-1.0-6.0,,,,,,,,,,1.0,1.0,,,,61598cba874ca07729d42b2a,15:26:19,03/04/2024
,"<div style=""font-size: 10rem; color: #0000FF"">R</div>",,ospan,letter,3s0850LyyiM1M0h5V50ZafdHweG2,html-keyboard-response,166,895553,0.0-46.0-5.0-1.0-1.0-7.0,,,,,,,,,,,,,,,61598cba874ca07729d42b2a,15:26:19,03/04/2024
1893.0,,,ospan,symmetry,3s0850LyyiM1M0h5V50ZafdHweG2,symmetry-judgement-task,167,899577,0.0-46.0-5.0-1.0-1.0-8.0,,,,,,,,,,1.0,1.0,,,,61598cba874ca07729d42b2a,15:26:19,03/04/2024
,"<div style=""font-size: 10rem; color: #0000FF"">K</div>",,ospan,letter,3s0850LyyiM1M0h5V50ZafdHweG2,html-keyboard-response,168,900579,0.0-46.0-5.0-1.0-1.0-9.0,,,,,,,,,,,,,,,61598cba874ca07729d42b2a,15:26:19,03/04/2024
1659.0,,,ospan,symmetry,3s0850LyyiM1M0h5V50ZafdHweG2,symmetry-judgement-task,169,904216,0.0-46.0-5.0-1.0-1.0-10.0,,,,,,,,,,1.0,1.0,,,,61598cba874ca07729d42b2a,15:26:19,03/04/2024
,"<div style=""font-size: 10rem; color: #0000FF"">Y</div>",,ospan,letter,3s0850LyyiM1M0h5V50ZafdHweG2,html-keyboard-response,170,905226,0.0-46.0-5.0-1.0-1.0-11.0,,,,,,,,,,,,,,,61598cba874ca07729d42b2a,15:26:19,03/04/2024
2321.0,,,ospan,symmetry,3s0850LyyiM1M0h5V50ZafdHweG2,symmetry-judgement-task,171,909593,0.0-46.0-5.0-1.0-1.0-12.0,,,,,,,,,,1.0,1.0,,,,61598cba874ca07729d42b2a,15:26:19,03/04/2024
,"<div style=""font-size: 10rem; color: #0000FF"">J</div>",,ospan,letter,3s0850LyyiM1M0h5V50ZafdHweG2,html-keyboard-response,172,910609,0.0-46.0-5.0-1.0-1.0-13.0,,,,,,,,,,,,,,,61598cba874ca07729d42b2a,15:26:19,03/04/2024
8019.0,"<div class = numbox><p style=""font-size: 2.4rem"">Please recall the letters you saw to the best of your ability. If you do not remember a particular letter, use the SKIP button.<br><b>(When you are ready to lock in your answer, press ENTER)</b></p><button id = button_1 class = ""square num-button"" onclick = ""recordClick(this)""><div class = content><div class = numbers>C</div></div></button><button id = button_2 class = ""square num-button"" onclick = ""recordClick(this)""><div class = content><div class = numbers>G</div></div></button><button id = button_3 class = ""square num-button"" onclick = ""recordClick(this)""><div class = content><div class = numbers>H</div></div></button><button id = button_4 class = ""square num-button"" onclick = ""recordClick(this)""><div class = content><div class = numbers>J</div></div></button><button id = button_5 class = ""square num-button"" onclick = ""recordClick(this)""><div class = content><div class = numbers>K</div></div></button><button id = button_6 class = ""square num-button"" onclick = ""recordClick(this)""><div class = content><div class = numbers>L</div></div></button><button id = button_7 class = ""square num-button"" onclick = ""recordClick(this)""><div class = content><div class = numbers>N</div></div></button><button id = button_8 class = ""square num-button"" onclick = ""recordClick(this)""><div class = content><div class = numbers>P</div></div></button><button id = button_9 class = ""square num-button"" onclick = ""recordClick(this)""><div class = content><div class = numbers>Q</div></div></button><button id = button_10 class = ""square num-button"" onclick = ""recordClick(this)""><div class = content><div class = numbers>R</div></div></button><button id = button_11 class = ""square num-button"" onclick = ""recordClick(this)""><div class = content><div class = numbers>S</div></div></button><button id = button_12 class = ""square num-button"" onclick = ""recordClick(this)""><div class = content><div class = numbers>Y</div></div></button><button class = clear_button id = ""ClearButton"" onclick = ""clearResponse()"">BACKSPACE</button><button class = blank_button id = ""BlankButton"" onclick = ""blankResponse()"">SKIP</button><p style=""font-size: 2.4rem""><u><b>Current Answer:</b></u></p><br><br><div id=echoed_txt style=""font-size: 5rem; color:blue;""><b></b></div></div>",enter,ospan,retrieval,3s0850LyyiM1M0h5V50ZafdHweG2,html-keyboard-response,173,919387,0.0-46.0-5.0-1.0-2.0,28,25,17,7.0,"[""N"",""P"",""Q"",""R"",""K"",""Y"",""J""]","[""N"",""P"",""Q"",""R"",""K"",""Y"",""J""]",1.0,7.0,,,,,,,61598cba874ca07729d42b2a,15:26:19,03/04/2024
878.2000000476837,[''],0,ospan,feedback,3s0850LyyiM1M0h5V50ZafdHweG2,html-button-response,174,920771,0.0-46.0-5.0-1.0-3.0,,,,,,,,,,,,96.0,0.0,,61598cba874ca07729d42b2a,15:26:19,03/04/2024
,"<p style=""font-size:75px;"">...</p>",,ospan,iti,3s0850LyyiM1M0h5V50ZafdHweG2,html-keyboard-response,175,921774,0.0-46.0-6.0-0.0-0.0,,,,,,,,,,,,,,,61598cba874ca07729d42b2a,15:26:19,03/04/2024
1169.0,,,ospan,symmetry,3s0850LyyiM1M0h5V50ZafdHweG2,symmetry-judgement-task,176,924179,0.0-46.0-6.0-0.0-1.0-0.0,,,,,,,,,,1.0,1.0,,,,61598cba874ca07729d42b2a,15:26:19,03/04/2024
,"<div style=""font-size: 10rem; color: #0000FF"">G</div>",,ospan,letter,3s0850LyyiM1M0h5V50ZafdHweG2,html-keyboard-response,177,925196,0.0-46.0-6.0-0.0-1.0-1.0,,,,,,,,,,,,,,,61598cba874ca07729d42b2a,15:26:19,03/04/2024
1025.0,,,ospan,symmetry,3s0850LyyiM1M0h5V50ZafdHweG2,symmetry-judgement-task,178,928295,0.0-46.0-6.0-0.0-1.0-2.0,,,,,,,,,,1.0,1.0,,,,61598cba874ca07729d42b2a,15:26:19,03/04/2024
,"<div style=""font-size: 10rem; color: #0000FF"">K</div>",,ospan,letter,3s0850LyyiM1M0h5V50ZafdHweG2,html-keyboard-response,179,929303,0.0-46.0-6.0-0.0-1.0-3.0,,,,,,,,,,,,,,,61598cba874ca07729d42b2a,15:26:19,03/04/2024
2228.0,,,ospan,symmetry,3s0850LyyiM1M0h5V50ZafdHweG2,symmetry-judgement-task,180,933495,0.0-46.0-6.0-0.0-1.0-4.0,,,,,,,,,,1.0,1.0,,,,61598cba874ca07729d42b2a,15:26:19,03/04/2024
,"<div style=""font-size: 10rem; color: #0000FF"">Q</div>",,ospan,letter,3s0850LyyiM1M0h5V50ZafdHweG2,html-keyboard-response,181,934505,0.0-46.0-6.0-0.0-1.0-5.0,,,,,,,,,,,,,,,61598cba874ca07729d42b2a,15:26:19,03/04/2024
1256.0,,,ospan,symmetry,3s0850LyyiM1M0h5V50ZafdHweG2,symmetry-judgement-task,182,937786,0.0-46.0-6.0-0.0-1.0-6.0,,,,,,,,,,1.0,1.0,,,,61598cba874ca07729d42b2a,15:26:19,03/04/2024
,"<div style=""font-size: 10rem; color: #0000FF"">P</div>",,ospan,letter,3s0850LyyiM1M0h5V50ZafdHweG2,html-keyboard-response,183,938802,0.0-46.0-6.0-0.0-1.0-7.0,,,,,,,,,,,,,,,61598cba874ca07729d42b2a,15:26:19,03/04/2024
2096.0,,,ospan,symmetry,3s0850LyyiM1M0h5V50ZafdHweG2,symmetry-judgement-task,184,942839,0.0-46.0-6.0-0.0-1.0-8.0,,,,,,,,,,1.0,1.0,,,,61598cba874ca07729d42b2a,15:26:19,03/04/2024
,"<div style=""font-size: 10rem; color: #0000FF"">H</div>",,ospan,letter,3s0850LyyiM1M0h5V50ZafdHweG2,html-keyboard-response,185,943859,0.0-46.0-6.0-0.0-1.0-9.0,,,,,,,,,,,,,,,61598cba874ca07729d42b2a,15:26:19,03/04/2024
7512.799999952316,"<div class = numbox><p style=""font-size: 2.4rem"">Please recall the letters you saw to the best of your ability. If you do not remember a particular letter, use the SKIP button.<br><b>(When you are ready to lock in your answer, press ENTER)</b></p><button id = button_1 class = ""square num-button"" onclick = ""recordClick(this)""><div class = content><div class = numbers>C</div></div></button><button id = button_2 class = ""square num-button"" onclick = ""recordClick(this)""><div class = content><div class = numbers>G</div></div></button><button id = button_3 class = ""square num-button"" onclick = ""recordClick(this)""><div class = content><div class = numbers>H</div></div></button><button id = button_4 class = ""square num-button"" onclick = ""recordClick(this)""><div class = content><div class = numbers>J</div></div></button><button id = button_5 class = ""square num-button"" onclick = ""recordClick(this)""><div class = content><div class = numbers>K</div></div></button><button id = button_6 class = ""square num-button"" onclick = ""recordClick(this)""><div class = content><div class = numbers>L</div></div></button><button id = button_7 class = ""square num-button"" onclick = ""recordClick(this)""><div class = content><div class = numbers>N</div></div></button><button id = button_8 class = ""square num-button"" onclick = ""recordClick(this)""><div class = content><div class = numbers>P</div></div></button><button id = button_9 class = ""square num-button"" onclick = ""recordClick(this)""><div class = content><div class = numbers>Q</div></div></button><button id = button_10 class = ""square num-button"" onclick = ""recordClick(this)""><div class = content><div class = numbers>R</div></div></button><button id = button_11 class = ""square num-button"" onclick = ""recordClick(this)""><div class = content><div class = numbers>S</div></div></button><button id = button_12 class = ""square num-button"" onclick = ""recordClick(this)""><div class = content><div class = numbers>Y</div></div></button><button class = clear_button id = ""ClearButton"" onclick = ""clearResponse()"">BACKSPACE</button><button class = blank_button id = ""BlankButton"" onclick = ""blankResponse()"">SKIP</button><p style=""font-size: 2.4rem""><u><b>Current Answer:</b></u></p><br><br><div id=echoed_txt style=""font-size: 5rem; color:blue;""><b></b></div></div>",enter,ospan,retrieval,3s0850LyyiM1M0h5V50ZafdHweG2,html-keyboard-response,186,952140,0.0-46.0-6.0-0.0-2.0,33,30,22,5.0,"[""G"",""K"",""Q"",""P"",""H""]","[""G"",""K"",""Q"",""P"",""H""]",1.0,5.0,,,,,,,61598cba874ca07729d42b2a,15:26:19,03/04/2024
1107.5,[''],0,ospan,feedback,3s0850LyyiM1M0h5V50ZafdHweG2,html-button-response,187,953755,0.0-46.0-6.0-0.0-3.0,,,,,,,,,,,,97.0,0.0,,61598cba874ca07729d42b2a,15:26:19,03/04/2024
,"<p style=""font-size:75px;"">...</p>",,ospan,iti,3s0850LyyiM1M0h5V50ZafdHweG2,html-keyboard-response,188,954759,0.0-46.0-6.0-1.0-0.0,,,,,,,,,,,,,,,61598cba874ca07729d42b2a,15:26:19,03/04/2024
1193.0,,,ospan,symmetry,3s0850LyyiM1M0h5V50ZafdHweG2,symmetry-judgement-task,189,957229,0.0-46.0-6.0-1.0-1.0-0.0,,,,,,,,,,1.0,1.0,,,,61598cba874ca07729d42b2a,15:26:19,03/04/2024
,"<div style=""font-size: 10rem; color: #0000FF"">P</div>",,ospan,letter,3s0850LyyiM1M0h5V50ZafdHweG2,html-keyboard-response,190,958236,0.0-46.0-6.0-1.0-1.0-1.0,,,,,,,,,,,,,,,61598cba874ca07729d42b2a,15:26:19,03/04/2024
2016.0,,,ospan,symmetry,3s0850LyyiM1M0h5V50ZafdHweG2,symmetry-judgement-task,191,962252,0.0-46.0-6.0-1.0-1.0-2.0,,,,,,,,,,1.0,1.0,,,,61598cba874ca07729d42b2a,15:26:19,03/04/2024
,"<div style=""font-size: 10rem; color: #0000FF"">G</div>",,ospan,letter,3s0850LyyiM1M0h5V50ZafdHweG2,html-keyboard-response,192,963269,0.0-46.0-6.0-1.0-1.0-3.0,,,,,,,,,,,,,,,61598cba874ca07729d42b2a,15:26:19,03/04/2024
1169.0,,,ospan,symmetry,3s0850LyyiM1M0h5V50ZafdHweG2,symmetry-judgement-task,193,966426,0.0-46.0-6.0-1.0-1.0-4.0,,,,,,,,,,1.0,1.0,,,,61598cba874ca07729d42b2a,15:26:19,03/04/2024
,"<div style=""font-size: 10rem; color: #0000FF"">R</div>",,ospan,letter,3s0850LyyiM1M0h5V50ZafdHweG2,html-keyboard-response,194,967442,0.0-46.0-6.0-1.0-1.0-5.0,,,,,,,,,,,,,,,61598cba874ca07729d42b2a,15:26:19,03/04/2024
1882.0,,,ospan,symmetry,3s0850LyyiM1M0h5V50ZafdHweG2,symmetry-judgement-task,195,971296,0.0-46.0-6.0-1.0-1.0-6.0,,,,,,,,,,0.0,0.0,,,,61598cba874ca07729d42b2a,15:26:19,03/04/2024
,"<div style=""font-size: 10rem; color: #0000FF"">S</div>",,ospan,letter,3s0850LyyiM1M0h5V50ZafdHweG2,html-keyboard-response,196,972301,0.0-46.0-6.0-1.0-1.0-7.0,,,,,,,,,,,,,,,61598cba874ca07729d42b2a,15:26:19,03/04/2024
993.0,,,ospan,symmetry,3s0850LyyiM1M0h5V50ZafdHweG2,symmetry-judgement-task,197,975304,0.0-46.0-6.0-1.0-1.0-8.0,,,,,,,,,,1.0,1.0,,,,61598cba874ca07729d42b2a,15:26:19,03/04/2024
,"<div style=""font-size: 10rem; color: #0000FF"">Y</div>",,ospan,letter,3s0850LyyiM1M0h5V50ZafdHweG2,html-keyboard-response,198,976308,0.0-46.0-6.0-1.0-1.0-9.0,,,,,,,,,,,,,,,61598cba874ca07729d42b2a,15:26:19,03/04/2024
2028.0,,,ospan,symmetry,3s0850LyyiM1M0h5V50ZafdHweG2,symmetry-judgement-task,199,980178,0.0-46.0-6.0-1.0-1.0-10.0,,,,,,,,,,1.0,1.0,,,,61598cba874ca07729d42b2a,15:26:19,03/04/2024
,"<div style=""font-size: 10rem; color: #0000FF"">Q</div>",,ospan,letter,3s0850LyyiM1M0h5V50ZafdHweG2,html-keyboard-response,200,981197,0.0-46.0-6.0-1.0-1.0-11.0,,,,,,,,,,,,,,,61598cba874ca07729d42b2a,15:26:19,03/04/2024
1368.0,,,ospan,symmetry,3s0850LyyiM1M0h5V50ZafdHweG2,symmetry-judgement-task,201,984601,0.0-46.0-6.0-1.0-1.0-12.0,,,,,,,,,,1.0,1.0,,,,61598cba874ca07729d42b2a,15:26:19,03/04/2024
,"<div style=""font-size: 10rem; color: #0000FF"">L</div>",,ospan,letter,3s0850LyyiM1M0h5V50ZafdHweG2,html-keyboard-response,202,985604,0.0-46.0-6.0-1.0-1.0-13.0,,,,,,,,,,,,,,,61598cba874ca07729d42b2a,15:26:19,03/04/2024
1214.0,,,ospan,symmetry,3s0850LyyiM1M0h5V50ZafdHweG2,symmetry-judgement-task,203,988843,0.0-46.0-6.0-1.0-1.0-14.0,,,,,,,,,,1.0,1.0,,,,61598cba874ca07729d42b2a,15:26:19,03/04/2024
,"<div style=""font-size: 10rem; color: #0000FF"">H</div>",,ospan,letter,3s0850LyyiM1M0h5V50ZafdHweG2,html-keyboard-response,204,989859,0.0-46.0-6.0-1.0-1.0-15.0,,,,,,,,,,,,,,,61598cba874ca07729d42b2a,15:26:19,03/04/2024
9940.0,"<div class = numbox><p style=""font-size: 2.4rem"">Please recall the letters you saw to the best of your ability. If you do not remember a particular letter, use the SKIP button.<br><b>(When you are ready to lock in your answer, press ENTER)</b></p><button id = button_1 class = ""square num-button"" onclick = ""recordClick(this)""><div class = content><div class = numbers>C</div></div></button><button id = button_2 class = ""square num-button"" onclick = ""recordClick(this)""><div class = content><div class = numbers>G</div></div></button><button id = button_3 class = ""square num-button"" onclick = ""recordClick(this)""><div class = content><div class = numbers>H</div></div></button><button id = button_4 class = ""square num-button"" onclick = ""recordClick(this)""><div class = content><div class = numbers>J</div></div></button><button id = button_5 class = ""square num-button"" onclick = ""recordClick(this)""><div class = content><div class = numbers>K</div></div></button><button id = button_6 class = ""square num-button"" onclick = ""recordClick(this)""><div class = content><div class = numbers>L</div></div></button><button id = button_7 class = ""square num-button"" onclick = ""recordClick(this)""><div class = content><div class = numbers>N</div></div></button><button id = button_8 class = ""square num-button"" onclick = ""recordClick(this)""><div class = content><div class = numbers>P</div></div></button><button id = button_9 class = ""square num-button"" onclick = ""recordClick(this)""><div class = content><div class = numbers>Q</div></div></button><button id = button_10 class = ""square num-button"" onclick = ""recordClick(this)""><div class = content><div class = numbers>R</div></div></button><button id = button_11 class = ""square num-button"" onclick = ""recordClick(this)""><div class = content><div class = numbers>S</div></div></button><button id = button_12 class = ""square num-button"" onclick = ""recordClick(this)""><div class = content><div class = numbers>Y</div></div></button><button class = clear_button id = ""ClearButton"" onclick = ""clearResponse()"">BACKSPACE</button><button class = blank_button id = ""BlankButton"" onclick = ""blankResponse()"">SKIP</button><p style=""font-size: 2.4rem""><u><b>Current Answer:</b></u></p><br><br><div id=echoed_txt style=""font-size: 5rem; color:blue;""><b></b></div></div>",enter,ospan,retrieval,3s0850LyyiM1M0h5V50ZafdHweG2,html-keyboard-response,205,1000555,0.0-46.0-6.0-1.0-2.0,41,37,22,8.0,"[""P"",""G"",""R"",""S"",""Y"",""Q"",""L""]","[""P"",""G"",""R"",""S"",""Y"",""Q"",""L"",""H""]",0.0,7.0,,,,,,,61598cba874ca07729d42b2a,15:26:19,03/04/2024
780.0,[''],0,ospan,feedback,3s0850LyyiM1M0h5V50ZafdHweG2,html-button-response,206,1001843,0.0-46.0-6.0-1.0-3.0,,,,,,,,,,,,95.0,0.0,,61598cba874ca07729d42b2a,15:26:19,03/04/2024
24420.700000047684,,{'Q0': 'enjoyed it - but found it hard. everything worked well'},ospan,survey_ospan,3s0850LyyiM1M0h5V50ZafdHweG2,lmdlab-survey-text,207,1027026,0.0-46.0-7.0,,,,,,,,,,,,,,3s0850LyyiM1M0h5V50ZafdHweG2,61598cba874ca07729d42b2a,15:26:19,03/04/2024
1637.6000001430511,<p><p style='font-size: 3rem'>Great work!<br><br>This completes the symmetry and memory task.</p><br><br><br>,0,ospan,finish,3s0850LyyiM1M0h5V50ZafdHweG2,html-button-response,208,1028668,0.0-46.0-8.0,41,37,22,,,,,,,,,95.0,,,61598cba874ca07729d42b2a,15:26:19,03/04/2024
