rt,stimulus,response,exp_name,exp_stage,subjectID,trial_type,trial_index,time_elapsed,internal_node_id,ospan_shown,ospan_total,ospan_abs,length,resp_actual,resp_correct,full_correct,num_correct,feedback,accuracy,correct,math_acc,math_warning,databaseID,prolificID,start_time,date
1352.1000000089407,<div class = 'left_align' style='font-size: 3.25rem; line-height: 1.3;'><p class = 'center_align'><b>Welcome to the Symmetry and Memory Task</b><br><br><br><br></p>Press 'continue' to show the instructions.<br><br><br><br></div>,0,ospan,instruct,3r5BiuUtZYbByOV77SgdxiBJRCW2,html-button-response,54,536927,0.0-46.0-0.0-0.0-0.0,,,,,,,,,,,,,,,65e6238e5774c7e869f5defd,10:35:48,03/04/2024
8802.29999999702,"<div class = 'left_align' style='font-size: 3.25rem; line-height: 1.3;'><p class = 'center_align'><b>Symmetry and Memory Task</b><br><br></p>In this task, you will try to memorize letters you see on the screen<br>while you also view black and white grid pictures.<br><br>In the next few minutes, you will have some practice to get you familiar<br>with how the task works.<br><br>It may be difficult sometimes, but please do not worry about making mistakes!<br><br>We will begin by practicing the letter part of the task.<br><br><br><br></div>",0,ospan,instruct,3r5BiuUtZYbByOV77SgdxiBJRCW2,html-button-response,55,545986,0.0-46.0-0.0-0.0-1.0,,,,,,,,,,,,,,,65e6238e5774c7e869f5defd,10:35:48,03/04/2024
4494.899999991059,"<div class = 'left_align' style='font-size: 3.25rem; line-height: 1.3;'>For this practice part, letters will appear on the screen one at a time.<br><br>Try to remember each letter in the order presented.<br><br>After some letters have been shown, you will see a response screen. Your<br>goal is to report the letters you saw <b>in order</b>. If you do not remember<br>a particular letter, you will have the option to leave it blank.<br><br><br><br></div>",0,ospan,instruct,3r5BiuUtZYbByOV77SgdxiBJRCW2,html-button-response,56,550733,0.0-46.0-0.0-0.0-2.0,,,,,,,,,,,,,,,65e6238e5774c7e869f5defd,10:35:48,03/04/2024
1651.7999999970198,"<div class = 'left_align' style='font-size: 3.25rem; line-height: 1.3;'>Remember, it is very important to get the letters in the same<br>order as you see them.<br><br>When you are ready, you may begin the letter practice.</div><br><br><br><br>",0,ospan,instruct,3r5BiuUtZYbByOV77SgdxiBJRCW2,html-button-response,57,552639,0.0-46.0-0.0-0.0-3.0,,,,,,,,,,,,,,,65e6238e5774c7e869f5defd,10:35:48,03/04/2024
,"<p style=""font-size:75px;"">...</p>",,ospan,iti,3r5BiuUtZYbByOV77SgdxiBJRCW2,html-keyboard-response,58,553917,0.0-46.0-0.0-1.0-0.0,,,,,,,,,,,,,,,65e6238e5774c7e869f5defd,10:35:48,03/04/2024
,"<div style=""font-size: 10rem; color: #0000FF"">Y</div>",,ospan,letter,3r5BiuUtZYbByOV77SgdxiBJRCW2,html-keyboard-response,59,554920,0.0-46.0-0.0-1.0-1.0,,,,,,,,,,,,,,,65e6238e5774c7e869f5defd,10:35:48,03/04/2024
,"<div style=""font-size: 10rem; color: #0000FF"">J</div>",,ospan,letter,3r5BiuUtZYbByOV77SgdxiBJRCW2,html-keyboard-response,60,556687,0.0-46.0-0.0-1.0-2.0,,,,,,,,,,,,,,,65e6238e5774c7e869f5defd,10:35:48,03/04/2024
4210.5999999940395,"<div class = numbox><p style=""font-size: 2.4rem"">Please recall the letters you saw to the best of your ability. If you do not remember a particular letter, use the SKIP button.<br><b>(When you are ready to lock in your answer, press ENTER)</b></p><button id = button_1 class = ""square num-button"" onclick = ""recordClick(this)""><div class = content><div class = numbers>C</div></div></button><button id = button_2 class = ""square num-button"" onclick = ""recordClick(this)""><div class = content><div class = numbers>G</div></div></button><button id = button_3 class = ""square num-button"" onclick = ""recordClick(this)""><div class = content><div class = numbers>H</div></div></button><button id = button_4 class = ""square num-button"" onclick = ""recordClick(this)""><div class = content><div class = numbers>J</div></div></button><button id = button_5 class = ""square num-button"" onclick = ""recordClick(this)""><div class = content><div class = numbers>K</div></div></button><button id = button_6 class = ""square num-button"" onclick = ""recordClick(this)""><div class = content><div class = numbers>L</div></div></button><button id = button_7 class = ""square num-button"" onclick = ""recordClick(this)""><div class = content><div class = numbers>N</div></div></button><button id = button_8 class = ""square num-button"" onclick = ""recordClick(this)""><div class = content><div class = numbers>P</div></div></button><button id = button_9 class = ""square num-button"" onclick = ""recordClick(this)""><div class = content><div class = numbers>Q</div></div></button><button id = button_10 class = ""square num-button"" onclick = ""recordClick(this)""><div class = content><div class = numbers>R</div></div></button><button id = button_11 class = ""square num-button"" onclick = ""recordClick(this)""><div class = content><div class = numbers>S</div></div></button><button id = button_12 class = ""square num-button"" onclick = ""recordClick(this)""><div class = content><div class = numbers>Y</div></div></button><button class = clear_button id = ""ClearButton"" onclick = ""clearResponse()"">BACKSPACE</button><button class = blank_button id = ""BlankButton"" onclick = ""blankResponse()"">SKIP</button><p style=""font-size: 2.4rem""><u><b>Current Answer:</b></u></p><br><br><div id=echoed_txt style=""font-size: 5rem; color:blue;""><b></b></div></div>",enter,ospan,retrieval,3r5BiuUtZYbByOV77SgdxiBJRCW2,html-keyboard-response,61,561664,0.0-46.0-0.0-1.0-3.0,NA,NA,NA,2.0,"[""Y"",""J""]","[""Y"",""J""]",1.0,2.0,"['<font color=""green"">Y</font>', '<font color=""green"">J</font>']",,,,,,65e6238e5774c7e869f5defd,10:35:48,03/04/2024
1090.6000000089407,"['<p style=""font-size:44px"">Letters:<br><br><br><font color=""green"">Y</font> <font color=""green"">J</font></p><br><br>']",0,ospan,practice_feedback,3r5BiuUtZYbByOV77SgdxiBJRCW2,html-button-response,62,563263,0.0-46.0-0.0-1.0-4.0,,,,,,,,,,,,,,,65e6238e5774c7e869f5defd,10:35:48,03/04/2024
,"<p style=""font-size:75px;"">...</p>",,ospan,iti,3r5BiuUtZYbByOV77SgdxiBJRCW2,html-keyboard-response,63,564265,0.0-46.0-0.0-2.0-0.0,,,,,,,,,,,,,,,65e6238e5774c7e869f5defd,10:35:48,03/04/2024
,"<div style=""font-size: 10rem; color: #0000FF"">J</div>",,ospan,letter,3r5BiuUtZYbByOV77SgdxiBJRCW2,html-keyboard-response,64,565271,0.0-46.0-0.0-2.0-1.0,,,,,,,,,,,,,,,65e6238e5774c7e869f5defd,10:35:48,03/04/2024
,"<div style=""font-size: 10rem; color: #0000FF"">N</div>",,ospan,letter,3r5BiuUtZYbByOV77SgdxiBJRCW2,html-keyboard-response,65,567038,0.0-46.0-0.0-2.0-2.0,,,,,,,,,,,,,,,65e6238e5774c7e869f5defd,10:35:48,03/04/2024
,"<div style=""font-size: 10rem; color: #0000FF"">H</div>",,ospan,letter,3r5BiuUtZYbByOV77SgdxiBJRCW2,html-keyboard-response,66,568805,0.0-46.0-0.0-2.0-3.0,,,,,,,,,,,,,,,65e6238e5774c7e869f5defd,10:35:48,03/04/2024
5556.0999999940395,"<div class = numbox><p style=""font-size: 2.4rem"">Please recall the letters you saw to the best of your ability. If you do not remember a particular letter, use the SKIP button.<br><b>(When you are ready to lock in your answer, press ENTER)</b></p><button id = button_1 class = ""square num-button"" onclick = ""recordClick(this)""><div class = content><div class = numbers>C</div></div></button><button id = button_2 class = ""square num-button"" onclick = ""recordClick(this)""><div class = content><div class = numbers>G</div></div></button><button id = button_3 class = ""square num-button"" onclick = ""recordClick(this)""><div class = content><div class = numbers>H</div></div></button><button id = button_4 class = ""square num-button"" onclick = ""recordClick(this)""><div class = content><div class = numbers>J</div></div></button><button id = button_5 class = ""square num-button"" onclick = ""recordClick(this)""><div class = content><div class = numbers>K</div></div></button><button id = button_6 class = ""square num-button"" onclick = ""recordClick(this)""><div class = content><div class = numbers>L</div></div></button><button id = button_7 class = ""square num-button"" onclick = ""recordClick(this)""><div class = content><div class = numbers>N</div></div></button><button id = button_8 class = ""square num-button"" onclick = ""recordClick(this)""><div class = content><div class = numbers>P</div></div></button><button id = button_9 class = ""square num-button"" onclick = ""recordClick(this)""><div class = content><div class = numbers>Q</div></div></button><button id = button_10 class = ""square num-button"" onclick = ""recordClick(this)""><div class = content><div class = numbers>R</div></div></button><button id = button_11 class = ""square num-button"" onclick = ""recordClick(this)""><div class = content><div class = numbers>S</div></div></button><button id = button_12 class = ""square num-button"" onclick = ""recordClick(this)""><div class = content><div class = numbers>Y</div></div></button><button class = clear_button id = ""ClearButton"" onclick = ""clearResponse()"">BACKSPACE</button><button class = blank_button id = ""BlankButton"" onclick = ""blankResponse()"">SKIP</button><p style=""font-size: 2.4rem""><u><b>Current Answer:</b></u></p><br><br><div id=echoed_txt style=""font-size: 5rem; color:blue;""><b></b></div></div>",enter,ospan,retrieval,3r5BiuUtZYbByOV77SgdxiBJRCW2,html-keyboard-response,67,575128,0.0-46.0-0.0-2.0-4.0,NA,NA,NA,3.0,"[""J"",""N"",""H""]","[""J"",""N"",""H""]",1.0,3.0,"['<font color=""green"">J</font>', '<font color=""green"">N</font>', '<font color=""green"">H</font>']",,,,,,65e6238e5774c7e869f5defd,10:35:48,03/04/2024
772.8999999910593,"['<p style=""font-size:44px"">Letters:<br><br><br><font color=""green"">J</font> <font color=""green"">N</font> <font color=""green"">H</font></p><br><br>']",0,ospan,practice_feedback,3r5BiuUtZYbByOV77SgdxiBJRCW2,html-button-response,68,576413,0.0-46.0-0.0-2.0-5.0,,,,,,,,,,,,,,,65e6238e5774c7e869f5defd,10:35:48,03/04/2024
10726.10000000894,"<div class = 'left_align' style='font-size: 3.25rem; line-height: 1.3;'>Now you will practice doing the <b>symmetry judgment part</b> of the experiment.<br><br>A black and white grid picture will appear on the screen and you have to judge if it is <br>symmetrical or asymetrical.<br><br>A picture is 'mirror' symmetrical if its left half is identical to the right half when flipped.<br>Here are examples of a symmetrical and an asymetrical picture:<br><br><center><img src='Stimuli/img/symm_instructions_extra.png' style='height:420px; width:900'></img></center><br>To judge symmetry, imagine you were to fold each picture down the middle, like a book –<br>would the left half match the right half when folded onto each other?<br><br></div><br>",0,ospan,instruct,3r5BiuUtZYbByOV77SgdxiBJRCW2,html-button-response,69,587141,0.0-46.0-1.0-0.0-0.0,,,,,,,,,,,,,,,65e6238e5774c7e869f5defd,10:35:48,03/04/2024
3785.9000000059605,"<div class = 'left_align' style='font-size: 3.25rem; line-height: 1.3;'>When you have viewed the picture and determined whether it is symmetrical or not,<br>you can <b>click the Yes or No button</b> below to answer.<br><br>If you take longer than 15 seconds, it will continue automatically<br>and record the answer as an error.</div><br>",0,ospan,instruct,3r5BiuUtZYbByOV77SgdxiBJRCW2,html-button-response,70,591180,0.0-46.0-1.0-0.0-1.0,,,,,,,,,,,,,,,65e6238e5774c7e869f5defd,10:35:48,03/04/2024
1713.5,"<div class = 'left_align' style='font-size: 3.25rem; line-height: 1.3;'>It is <b>very</b> important that you make the symmetry judgment correctly.<br><br>It is also important that you try and judge the picture as quickly as you can.<br><br>When you are ready, click on the button below to try some practice problems.</div><br><br><br><br>",0,ospan,instruct,3r5BiuUtZYbByOV77SgdxiBJRCW2,html-button-response,71,593154,0.0-46.0-1.0-0.0-2.0,,,,,,,,,,,,,,,65e6238e5774c7e869f5defd,10:35:48,03/04/2024
2798.0,,,ospan,symmetry,3r5BiuUtZYbByOV77SgdxiBJRCW2,symmetry-judgement-task,72,596752,0.0-46.0-1.0-1.0-0.0,,,,,,,,,,1.0,1.0,,,,65e6238e5774c7e869f5defd,10:35:48,03/04/2024
,"<p style=""color:green; font-size: 35px"">Correct</p>",,ospan,feedback,3r5BiuUtZYbByOV77SgdxiBJRCW2,html-keyboard-response,73,597518,0.0-46.0-1.0-1.0-1.0,,,,,,,,,,,,,,,65e6238e5774c7e869f5defd,10:35:48,03/04/2024
2873.0,,,ospan,symmetry,3r5BiuUtZYbByOV77SgdxiBJRCW2,symmetry-judgement-task,74,603021,0.0-46.0-1.0-1.0-2.0,,,,,,,,,,1.0,1.0,,,,65e6238e5774c7e869f5defd,10:35:48,03/04/2024
,"<p style=""color:green; font-size: 35px"">Correct</p>",,ospan,feedback,3r5BiuUtZYbByOV77SgdxiBJRCW2,html-keyboard-response,75,603774,0.0-46.0-1.0-1.0-3.0,,,,,,,,,,,,,,,65e6238e5774c7e869f5defd,10:35:48,03/04/2024
2036.0,,,ospan,symmetry,3r5BiuUtZYbByOV77SgdxiBJRCW2,symmetry-judgement-task,76,608456,0.0-46.0-1.0-1.0-4.0,,,,,,,,,,1.0,1.0,,,,65e6238e5774c7e869f5defd,10:35:48,03/04/2024
,"<p style=""color:green; font-size: 35px"">Correct</p>",,ospan,feedback,3r5BiuUtZYbByOV77SgdxiBJRCW2,html-keyboard-response,77,609214,0.0-46.0-1.0-1.0-5.0,,,,,,,,,,,,,,,65e6238e5774c7e869f5defd,10:35:48,03/04/2024
976.2000000029802,"<p style=""font-size: 3rem;"">You responded correctly on 3 of 3 symmetry judgments. Good job!</p><br><br>",0,ospan,practice,3r5BiuUtZYbByOV77SgdxiBJRCW2,html-button-response,78,612201,0.0-46.0-1.0-2.0,,,,,,,,,,,,,,,65e6238e5774c7e869f5defd,10:35:48,03/04/2024
10481.60000000894,"<div class = 'left_align' style='font-size: 3.25rem; line-height: 1.3;'>Now you will practice doing both parts of the experiment at the same time.<br><br>In the next practice set, you will be given one grid picture to judge.<br>Then letter will appear on the screen. Try to remember the letter.<br><br>It is <b>very important</b> to make the symmetry judgment as quickly and accurately as possible.<br><br>Just as before, once you have make the symmetry judgment, you can click Yes or No.<br><b>Note that you will no longer see Correct or Incorrect feedback.</div><br><br><br><br>",0,ospan,instruct,3r5BiuUtZYbByOV77SgdxiBJRCW2,html-button-response,79,622942,0.0-46.0-2.0-0.0-0.0,,,,,,,,,,,,,,,65e6238e5774c7e869f5defd,10:35:48,03/04/2024
4126.899999991059,"<div class = 'left_align' style='font-size: 3.25rem; line-height: 1.3;'>After the letter goes away, another grid picture will appear, and then<br>another letter.<br><br>At the end of each set of letters and grids, you will recall the letters to the best<br>of your ability. Remember, try your best to get the letters in the correct order.<br><br>It is important to <b>quickly</b> and <b>accurately</b> make the symmetry judgments.</div><br><br><br><br>",0,ospan,instruct,3r5BiuUtZYbByOV77SgdxiBJRCW2,html-button-response,80,627335,0.0-46.0-2.0-0.0-1.0,,,,,,,,,,,,,,,65e6238e5774c7e869f5defd,10:35:48,03/04/2024
4664.5,"<div class = 'left_align' style='font-size: 3.25rem; line-height: 1.3;'>On the feedback screen, if you are not doing well at the symmetry judgments,<br>you will also see a warning in the middle. This indicates your percent <br>correct for the grid pictures for the entire experiment.<br><br>It is <b>very</b> important for you to keep accuracy at least at 85%: <u>We can only use<br>data where the participant was at least 85% accurate on the judgments.</u> Therefore,<br> please try your best to perform well on the symmetry judgments, <b>at the same time</b><br>doing your best to recall as many letters as possible.<br><br>Click the button to try some practice problems.</div><br><br><br><br>",0,ospan,instruct,3r5BiuUtZYbByOV77SgdxiBJRCW2,html-button-response,81,632258,0.0-46.0-2.0-0.0-2.0,,,,,,,,,,,,,,,65e6238e5774c7e869f5defd,10:35:48,03/04/2024
,"<p style=""font-size:75px;"">...</p>",,ospan,iti,3r5BiuUtZYbByOV77SgdxiBJRCW2,html-keyboard-response,82,633515,0.0-46.0-2.0-1.0-0.0,,,,,,,,,,,,,,,65e6238e5774c7e869f5defd,10:35:48,03/04/2024
1743.0,,,ospan,symmetry,3r5BiuUtZYbByOV77SgdxiBJRCW2,symmetry-judgement-task,83,636387,0.0-46.0-2.0-1.0-1.0-0.0,,,,,,,,,,1.0,1.0,,,,65e6238e5774c7e869f5defd,10:35:48,03/04/2024
,"<div style=""font-size: 10rem; color: #0000FF"">C</div>",,ospan,letter,3r5BiuUtZYbByOV77SgdxiBJRCW2,html-keyboard-response,84,637392,0.0-46.0-2.0-1.0-1.0-1.0,,,,,,,,,,,,,,,65e6238e5774c7e869f5defd,10:35:48,03/04/2024
2104.0,,,ospan,symmetry,3r5BiuUtZYbByOV77SgdxiBJRCW2,symmetry-judgement-task,85,641388,0.0-46.0-2.0-1.0-1.0-2.0,,,,,,,,,,1.0,1.0,,,,65e6238e5774c7e869f5defd,10:35:48,03/04/2024
,"<div style=""font-size: 10rem; color: #0000FF"">S</div>",,ospan,letter,3r5BiuUtZYbByOV77SgdxiBJRCW2,html-keyboard-response,86,642392,0.0-46.0-2.0-1.0-1.0-3.0,,,,,,,,,,,,,,,65e6238e5774c7e869f5defd,10:35:48,03/04/2024
1567.0,,,ospan,symmetry,3r5BiuUtZYbByOV77SgdxiBJRCW2,symmetry-judgement-task,87,645836,0.0-46.0-2.0-1.0-1.0-4.0,,,,,,,,,,1.0,1.0,,,,65e6238e5774c7e869f5defd,10:35:48,03/04/2024
,"<div style=""font-size: 10rem; color: #0000FF"">K</div>",,ospan,letter,3r5BiuUtZYbByOV77SgdxiBJRCW2,html-keyboard-response,88,646838,0.0-46.0-2.0-1.0-1.0-5.0,,,,,,,,,,,,,,,65e6238e5774c7e869f5defd,10:35:48,03/04/2024
3482.800000011921,"<div class = numbox><p style=""font-size: 2.4rem"">Please recall the letters you saw to the best of your ability. If you do not remember a particular letter, use the SKIP button.<br><b>(When you are ready to lock in your answer, press ENTER)</b></p><button id = button_1 class = ""square num-button"" onclick = ""recordClick(this)""><div class = content><div class = numbers>C</div></div></button><button id = button_2 class = ""square num-button"" onclick = ""recordClick(this)""><div class = content><div class = numbers>G</div></div></button><button id = button_3 class = ""square num-button"" onclick = ""recordClick(this)""><div class = content><div class = numbers>H</div></div></button><button id = button_4 class = ""square num-button"" onclick = ""recordClick(this)""><div class = content><div class = numbers>J</div></div></button><button id = button_5 class = ""square num-button"" onclick = ""recordClick(this)""><div class = content><div class = numbers>K</div></div></button><button id = button_6 class = ""square num-button"" onclick = ""recordClick(this)""><div class = content><div class = numbers>L</div></div></button><button id = button_7 class = ""square num-button"" onclick = ""recordClick(this)""><div class = content><div class = numbers>N</div></div></button><button id = button_8 class = ""square num-button"" onclick = ""recordClick(this)""><div class = content><div class = numbers>P</div></div></button><button id = button_9 class = ""square num-button"" onclick = ""recordClick(this)""><div class = content><div class = numbers>Q</div></div></button><button id = button_10 class = ""square num-button"" onclick = ""recordClick(this)""><div class = content><div class = numbers>R</div></div></button><button id = button_11 class = ""square num-button"" onclick = ""recordClick(this)""><div class = content><div class = numbers>S</div></div></button><button id = button_12 class = ""square num-button"" onclick = ""recordClick(this)""><div class = content><div class = numbers>Y</div></div></button><button class = clear_button id = ""ClearButton"" onclick = ""clearResponse()"">BACKSPACE</button><button class = blank_button id = ""BlankButton"" onclick = ""blankResponse()"">SKIP</button><p style=""font-size: 2.4rem""><u><b>Current Answer:</b></u></p><br><br><div id=echoed_txt style=""font-size: 5rem; color:blue;""><b></b></div></div>",enter,ospan,retrieval,3r5BiuUtZYbByOV77SgdxiBJRCW2,html-keyboard-response,89,651077,0.0-46.0-2.0-1.0-2.0-0.0,NA,NA,NA,3.0,"[""C"",""S"",""K""]","[""C"",""S"",""K""]",1.0,3.0,"['<font color=""green"">C</font>', '<font color=""green"">S</font>', '<font color=""green"">K</font>']",,,,,,65e6238e5774c7e869f5defd,10:35:48,03/04/2024
1023.7000000029802,"['<p style=""font-size:44px"">Letters:<br><br><br><font color=""green"">C</font> <font color=""green"">S</font> <font color=""green"">K</font></p><br><br><p style=""font-size:30px"">Symmetry:<br><br><font color=""green"">100%</font></p><br><br>']",0,ospan,practice_feedback,3r5BiuUtZYbByOV77SgdxiBJRCW2,html-button-response,90,652617,0.0-46.0-2.0-1.0-2.0-1.0,,,,,,,,,,,,,,,65e6238e5774c7e869f5defd,10:35:48,03/04/2024
,"<p style=""font-size:75px;"">...</p>",,ospan,iti,3r5BiuUtZYbByOV77SgdxiBJRCW2,html-keyboard-response,91,653632,0.0-46.0-2.0-2.0-0.0,,,,,,,,,,,,,,,65e6238e5774c7e869f5defd,10:35:48,03/04/2024
1177.0,,,ospan,symmetry,3r5BiuUtZYbByOV77SgdxiBJRCW2,symmetry-judgement-task,92,655918,0.0-46.0-2.0-2.0-1.0-0.0,,,,,,,,,,1.0,1.0,,,,65e6238e5774c7e869f5defd,10:35:48,03/04/2024
,"<div style=""font-size: 10rem; color: #0000FF"">G</div>",,ospan,letter,3r5BiuUtZYbByOV77SgdxiBJRCW2,html-keyboard-response,93,656929,0.0-46.0-2.0-2.0-1.0-1.0,,,,,,,,,,,,,,,65e6238e5774c7e869f5defd,10:35:48,03/04/2024
1636.0,,,ospan,symmetry,3r5BiuUtZYbByOV77SgdxiBJRCW2,symmetry-judgement-task,94,660455,0.0-46.0-2.0-2.0-1.0-2.0,,,,,,,,,,1.0,1.0,,,,65e6238e5774c7e869f5defd,10:35:48,03/04/2024
,"<div style=""font-size: 10rem; color: #0000FF"">Y</div>",,ospan,letter,3r5BiuUtZYbByOV77SgdxiBJRCW2,html-keyboard-response,95,661467,0.0-46.0-2.0-2.0-1.0-3.0,,,,,,,,,,,,,,,65e6238e5774c7e869f5defd,10:35:48,03/04/2024
1338.0,,,ospan,symmetry,3r5BiuUtZYbByOV77SgdxiBJRCW2,symmetry-judgement-task,96,664686,0.0-46.0-2.0-2.0-1.0-4.0,,,,,,,,,,1.0,1.0,,,,65e6238e5774c7e869f5defd,10:35:48,03/04/2024
,"<div style=""font-size: 10rem; color: #0000FF"">S</div>",,ospan,letter,3r5BiuUtZYbByOV77SgdxiBJRCW2,html-keyboard-response,97,665690,0.0-46.0-2.0-2.0-1.0-5.0,,,,,,,,,,,,,,,65e6238e5774c7e869f5defd,10:35:48,03/04/2024
2619.7000000029802,"<div class = numbox><p style=""font-size: 2.4rem"">Please recall the letters you saw to the best of your ability. If you do not remember a particular letter, use the SKIP button.<br><b>(When you are ready to lock in your answer, press ENTER)</b></p><button id = button_1 class = ""square num-button"" onclick = ""recordClick(this)""><div class = content><div class = numbers>C</div></div></button><button id = button_2 class = ""square num-button"" onclick = ""recordClick(this)""><div class = content><div class = numbers>G</div></div></button><button id = button_3 class = ""square num-button"" onclick = ""recordClick(this)""><div class = content><div class = numbers>H</div></div></button><button id = button_4 class = ""square num-button"" onclick = ""recordClick(this)""><div class = content><div class = numbers>J</div></div></button><button id = button_5 class = ""square num-button"" onclick = ""recordClick(this)""><div class = content><div class = numbers>K</div></div></button><button id = button_6 class = ""square num-button"" onclick = ""recordClick(this)""><div class = content><div class = numbers>L</div></div></button><button id = button_7 class = ""square num-button"" onclick = ""recordClick(this)""><div class = content><div class = numbers>N</div></div></button><button id = button_8 class = ""square num-button"" onclick = ""recordClick(this)""><div class = content><div class = numbers>P</div></div></button><button id = button_9 class = ""square num-button"" onclick = ""recordClick(this)""><div class = content><div class = numbers>Q</div></div></button><button id = button_10 class = ""square num-button"" onclick = ""recordClick(this)""><div class = content><div class = numbers>R</div></div></button><button id = button_11 class = ""square num-button"" onclick = ""recordClick(this)""><div class = content><div class = numbers>S</div></div></button><button id = button_12 class = ""square num-button"" onclick = ""recordClick(this)""><div class = content><div class = numbers>Y</div></div></button><button class = clear_button id = ""ClearButton"" onclick = ""clearResponse()"">BACKSPACE</button><button class = blank_button id = ""BlankButton"" onclick = ""blankResponse()"">SKIP</button><p style=""font-size: 2.4rem""><u><b>Current Answer:</b></u></p><br><br><div id=echoed_txt style=""font-size: 5rem; color:blue;""><b></b></div></div>",enter,ospan,retrieval,3r5BiuUtZYbByOV77SgdxiBJRCW2,html-keyboard-response,98,669064,0.0-46.0-2.0-2.0-2.0-0.0,NA,NA,NA,3.0,"[""G"",""Y"",""S""]","[""G"",""Y"",""S""]",1.0,3.0,"['<font color=""green"">G</font>', '<font color=""green"">Y</font>', '<font color=""green"">S</font>']",,,,,,65e6238e5774c7e869f5defd,10:35:48,03/04/2024
797.7999999970198,"['<p style=""font-size:44px"">Letters:<br><br><br><font color=""green"">G</font> <font color=""green"">Y</font> <font color=""green"">S</font></p><br><br><p style=""font-size:30px"">Symmetry:<br><br><font color=""green"">100%</font></p><br><br>']",0,ospan,practice_feedback,3r5BiuUtZYbByOV77SgdxiBJRCW2,html-button-response,99,670377,0.0-46.0-2.0-2.0-2.0-1.0,,,,,,,,,,,,,,,65e6238e5774c7e869f5defd,10:35:48,03/04/2024
8628.29999999702,"<div class = 'left_align' style='font-size: 3rem; line-height: 1.3;'><b>Great work! That is the end of practice.</b><br><br>The real trials will look just like the practice trials you just completed.<br><br><u>Here, you will not see feedback</u>. First, you will see an grid picture to judge,<br>then a letter to remember. When the recall screen appears, report the letters in the<br>order presented. If you forget a letter, remember to use the <b>blank</b> button to move to the<br>next letter. Some of the sets will have more symmetry grids and letters than others.<br><br>It is important that you do your best on both the symmetry judgments and the letter recall<br>parts of the experiment. For for the symmetry judgments, try to work as <b>quickly</b> and <br>as <b>accurately</b> as possible. Remember to keep your symmetry accuracy at 85% or above.<br><br><b>For the letters, do NOT use any external aid (e.g., writing on paper, electronic device).</b><br><br>It is <u>very important</u> to our experiment to have a <b>true</b> view of your real performance.<br><br>Do not worry if you miss some when it gets hard! This task is meant to be very challenging!<br><br>Click the button to begin.</div><br><br><br><br>",0,ospan,starting_real_here,3r5BiuUtZYbByOV77SgdxiBJRCW2,html-button-response,100,679007,0.0-46.0-2.0-3.0,,,,,,,,,,,,,,,65e6238e5774c7e869f5defd,10:35:48,03/04/2024
,"<p style=""font-size:75px;"">...</p>",,ospan,iti,3r5BiuUtZYbByOV77SgdxiBJRCW2,html-keyboard-response,101,680275,0.0-46.0-3.0-0.0-0.0,,,,,,,,,,,,,,,65e6238e5774c7e869f5defd,10:35:48,03/04/2024
1437.0,,,ospan,symmetry,3r5BiuUtZYbByOV77SgdxiBJRCW2,symmetry-judgement-task,102,682833,0.0-46.0-3.0-0.0-1.0-0.0,,,,,,,,,,1.0,1.0,,,,65e6238e5774c7e869f5defd,10:35:48,03/04/2024
,"<div style=""font-size: 10rem; color: #0000FF"">S</div>",,ospan,letter,3r5BiuUtZYbByOV77SgdxiBJRCW2,html-keyboard-response,103,683843,0.0-46.0-3.0-0.0-1.0-1.0,,,,,,,,,,,,,,,65e6238e5774c7e869f5defd,10:35:48,03/04/2024
1891.0,,,ospan,symmetry,3r5BiuUtZYbByOV77SgdxiBJRCW2,symmetry-judgement-task,104,687605,0.0-46.0-3.0-0.0-1.0-2.0,,,,,,,,,,1.0,1.0,,,,65e6238e5774c7e869f5defd,10:35:48,03/04/2024
,"<div style=""font-size: 10rem; color: #0000FF"">Y</div>",,ospan,letter,3r5BiuUtZYbByOV77SgdxiBJRCW2,html-keyboard-response,105,688608,0.0-46.0-3.0-0.0-1.0-3.0,,,,,,,,,,,,,,,65e6238e5774c7e869f5defd,10:35:48,03/04/2024
1700.0,,,ospan,symmetry,3r5BiuUtZYbByOV77SgdxiBJRCW2,symmetry-judgement-task,106,692181,0.0-46.0-3.0-0.0-1.0-4.0,,,,,,,,,,1.0,1.0,,,,65e6238e5774c7e869f5defd,10:35:48,03/04/2024
,"<div style=""font-size: 10rem; color: #0000FF"">C</div>",,ospan,letter,3r5BiuUtZYbByOV77SgdxiBJRCW2,html-keyboard-response,107,693185,0.0-46.0-3.0-0.0-1.0-5.0,,,,,,,,,,,,,,,65e6238e5774c7e869f5defd,10:35:48,03/04/2024
3062.7000000029802,"<div class = numbox><p style=""font-size: 2.4rem"">Please recall the letters you saw to the best of your ability. If you do not remember a particular letter, use the SKIP button.<br><b>(When you are ready to lock in your answer, press ENTER)</b></p><button id = button_1 class = ""square num-button"" onclick = ""recordClick(this)""><div class = content><div class = numbers>C</div></div></button><button id = button_2 class = ""square num-button"" onclick = ""recordClick(this)""><div class = content><div class = numbers>G</div></div></button><button id = button_3 class = ""square num-button"" onclick = ""recordClick(this)""><div class = content><div class = numbers>H</div></div></button><button id = button_4 class = ""square num-button"" onclick = ""recordClick(this)""><div class = content><div class = numbers>J</div></div></button><button id = button_5 class = ""square num-button"" onclick = ""recordClick(this)""><div class = content><div class = numbers>K</div></div></button><button id = button_6 class = ""square num-button"" onclick = ""recordClick(this)""><div class = content><div class = numbers>L</div></div></button><button id = button_7 class = ""square num-button"" onclick = ""recordClick(this)""><div class = content><div class = numbers>N</div></div></button><button id = button_8 class = ""square num-button"" onclick = ""recordClick(this)""><div class = content><div class = numbers>P</div></div></button><button id = button_9 class = ""square num-button"" onclick = ""recordClick(this)""><div class = content><div class = numbers>Q</div></div></button><button id = button_10 class = ""square num-button"" onclick = ""recordClick(this)""><div class = content><div class = numbers>R</div></div></button><button id = button_11 class = ""square num-button"" onclick = ""recordClick(this)""><div class = content><div class = numbers>S</div></div></button><button id = button_12 class = ""square num-button"" onclick = ""recordClick(this)""><div class = content><div class = numbers>Y</div></div></button><button class = clear_button id = ""ClearButton"" onclick = ""clearResponse()"">BACKSPACE</button><button class = blank_button id = ""BlankButton"" onclick = ""blankResponse()"">SKIP</button><p style=""font-size: 2.4rem""><u><b>Current Answer:</b></u></p><br><br><div id=echoed_txt style=""font-size: 5rem; color:blue;""><b></b></div></div>",enter,ospan,retrieval,3r5BiuUtZYbByOV77SgdxiBJRCW2,html-keyboard-response,108,697008,0.0-46.0-3.0-0.0-2.0,3,3,3,3.0,"[""S"",""Y"",""C""]","[""S"",""Y"",""C""]",1.0,3.0,,,,,,,65e6238e5774c7e869f5defd,10:35:48,03/04/2024
785.7999999970198,[''],0,ospan,feedback,3r5BiuUtZYbByOV77SgdxiBJRCW2,html-button-response,109,698299,0.0-46.0-3.0-0.0-3.0,,,,,,,,,,,,100.0,0.0,,65e6238e5774c7e869f5defd,10:35:48,03/04/2024
,"<p style=""font-size:75px;"">...</p>",,ospan,iti,3r5BiuUtZYbByOV77SgdxiBJRCW2,html-keyboard-response,110,699304,0.0-46.0-4.0-0.0-0.0,,,,,,,,,,,,,,,65e6238e5774c7e869f5defd,10:35:48,03/04/2024
1670.0,,,ospan,symmetry,3r5BiuUtZYbByOV77SgdxiBJRCW2,symmetry-judgement-task,111,702105,0.0-46.0-4.0-0.0-1.0-0.0,,,,,,,,,,1.0,1.0,,,,65e6238e5774c7e869f5defd,10:35:48,03/04/2024
,"<div style=""font-size: 10rem; color: #0000FF"">S</div>",,ospan,letter,3r5BiuUtZYbByOV77SgdxiBJRCW2,html-keyboard-response,112,703113,0.0-46.0-4.0-0.0-1.0-1.0,,,,,,,,,,,,,,,65e6238e5774c7e869f5defd,10:35:48,03/04/2024
1267.0,,,ospan,symmetry,3r5BiuUtZYbByOV77SgdxiBJRCW2,symmetry-judgement-task,113,706270,0.0-46.0-4.0-0.0-1.0-2.0,,,,,,,,,,1.0,1.0,,,,65e6238e5774c7e869f5defd,10:35:48,03/04/2024
,"<div style=""font-size: 10rem; color: #0000FF"">N</div>",,ospan,letter,3r5BiuUtZYbByOV77SgdxiBJRCW2,html-keyboard-response,114,707287,0.0-46.0-4.0-0.0-1.0-3.0,,,,,,,,,,,,,,,65e6238e5774c7e869f5defd,10:35:48,03/04/2024
1313.0,,,ospan,symmetry,3r5BiuUtZYbByOV77SgdxiBJRCW2,symmetry-judgement-task,115,710473,0.0-46.0-4.0-0.0-1.0-4.0,,,,,,,,,,1.0,1.0,,,,65e6238e5774c7e869f5defd,10:35:48,03/04/2024
,"<div style=""font-size: 10rem; color: #0000FF"">H</div>",,ospan,letter,3r5BiuUtZYbByOV77SgdxiBJRCW2,html-keyboard-response,116,711481,0.0-46.0-4.0-0.0-1.0-5.0,,,,,,,,,,,,,,,65e6238e5774c7e869f5defd,10:35:48,03/04/2024
1300.0,,,ospan,symmetry,3r5BiuUtZYbByOV77SgdxiBJRCW2,symmetry-judgement-task,117,714670,0.0-46.0-4.0-0.0-1.0-6.0,,,,,,,,,,1.0,1.0,,,,65e6238e5774c7e869f5defd,10:35:48,03/04/2024
,"<div style=""font-size: 10rem; color: #0000FF"">P</div>",,ospan,letter,3r5BiuUtZYbByOV77SgdxiBJRCW2,html-keyboard-response,118,715681,0.0-46.0-4.0-0.0-1.0-7.0,,,,,,,,,,,,,,,65e6238e5774c7e869f5defd,10:35:48,03/04/2024
3618.0,"<div class = numbox><p style=""font-size: 2.4rem"">Please recall the letters you saw to the best of your ability. If you do not remember a particular letter, use the SKIP button.<br><b>(When you are ready to lock in your answer, press ENTER)</b></p><button id = button_1 class = ""square num-button"" onclick = ""recordClick(this)""><div class = content><div class = numbers>C</div></div></button><button id = button_2 class = ""square num-button"" onclick = ""recordClick(this)""><div class = content><div class = numbers>G</div></div></button><button id = button_3 class = ""square num-button"" onclick = ""recordClick(this)""><div class = content><div class = numbers>H</div></div></button><button id = button_4 class = ""square num-button"" onclick = ""recordClick(this)""><div class = content><div class = numbers>J</div></div></button><button id = button_5 class = ""square num-button"" onclick = ""recordClick(this)""><div class = content><div class = numbers>K</div></div></button><button id = button_6 class = ""square num-button"" onclick = ""recordClick(this)""><div class = content><div class = numbers>L</div></div></button><button id = button_7 class = ""square num-button"" onclick = ""recordClick(this)""><div class = content><div class = numbers>N</div></div></button><button id = button_8 class = ""square num-button"" onclick = ""recordClick(this)""><div class = content><div class = numbers>P</div></div></button><button id = button_9 class = ""square num-button"" onclick = ""recordClick(this)""><div class = content><div class = numbers>Q</div></div></button><button id = button_10 class = ""square num-button"" onclick = ""recordClick(this)""><div class = content><div class = numbers>R</div></div></button><button id = button_11 class = ""square num-button"" onclick = ""recordClick(this)""><div class = content><div class = numbers>S</div></div></button><button id = button_12 class = ""square num-button"" onclick = ""recordClick(this)""><div class = content><div class = numbers>Y</div></div></button><button class = clear_button id = ""ClearButton"" onclick = ""clearResponse()"">BACKSPACE</button><button class = blank_button id = ""BlankButton"" onclick = ""blankResponse()"">SKIP</button><p style=""font-size: 2.4rem""><u><b>Current Answer:</b></u></p><br><br><div id=echoed_txt style=""font-size: 5rem; color:blue;""><b></b></div></div>",enter,ospan,retrieval,3r5BiuUtZYbByOV77SgdxiBJRCW2,html-keyboard-response,119,720064,0.0-46.0-4.0-0.0-2.0,7,7,7,4.0,"[""S"",""N"",""H"",""P""]","[""S"",""N"",""H"",""P""]",1.0,4.0,,,,,,,65e6238e5774c7e869f5defd,10:35:48,03/04/2024
701.1000000089407,[''],0,ospan,feedback,3r5BiuUtZYbByOV77SgdxiBJRCW2,html-button-response,120,721282,0.0-46.0-4.0-0.0-3.0,,,,,,,,,,,,100.0,0.0,,65e6238e5774c7e869f5defd,10:35:48,03/04/2024
,"<p style=""font-size:75px;"">...</p>",,ospan,iti,3r5BiuUtZYbByOV77SgdxiBJRCW2,html-keyboard-response,121,722288,0.0-46.0-4.0-1.0-0.0,,,,,,,,,,,,,,,65e6238e5774c7e869f5defd,10:35:48,03/04/2024
1241.0,,,ospan,symmetry,3r5BiuUtZYbByOV77SgdxiBJRCW2,symmetry-judgement-task,122,724649,0.0-46.0-4.0-1.0-1.0-0.0,,,,,,,,,,1.0,1.0,,,,65e6238e5774c7e869f5defd,10:35:48,03/04/2024
,"<div style=""font-size: 10rem; color: #0000FF"">Q</div>",,ospan,letter,3r5BiuUtZYbByOV77SgdxiBJRCW2,html-keyboard-response,123,725663,0.0-46.0-4.0-1.0-1.0-1.0,,,,,,,,,,,,,,,65e6238e5774c7e869f5defd,10:35:48,03/04/2024
1672.0,,,ospan,symmetry,3r5BiuUtZYbByOV77SgdxiBJRCW2,symmetry-judgement-task,124,729216,0.0-46.0-4.0-1.0-1.0-2.0,,,,,,,,,,1.0,1.0,,,,65e6238e5774c7e869f5defd,10:35:48,03/04/2024
,"<div style=""font-size: 10rem; color: #0000FF"">C</div>",,ospan,letter,3r5BiuUtZYbByOV77SgdxiBJRCW2,html-keyboard-response,125,730232,0.0-46.0-4.0-1.0-1.0-3.0,,,,,,,,,,,,,,,65e6238e5774c7e869f5defd,10:35:48,03/04/2024
1292.0,,,ospan,symmetry,3r5BiuUtZYbByOV77SgdxiBJRCW2,symmetry-judgement-task,126,733420,0.0-46.0-4.0-1.0-1.0-4.0,,,,,,,,,,1.0,1.0,,,,65e6238e5774c7e869f5defd,10:35:48,03/04/2024
,"<div style=""font-size: 10rem; color: #0000FF"">S</div>",,ospan,letter,3r5BiuUtZYbByOV77SgdxiBJRCW2,html-keyboard-response,127,734431,0.0-46.0-4.0-1.0-1.0-5.0,,,,,,,,,,,,,,,65e6238e5774c7e869f5defd,10:35:48,03/04/2024
2251.0,,,ospan,symmetry,3r5BiuUtZYbByOV77SgdxiBJRCW2,symmetry-judgement-task,128,738559,0.0-46.0-4.0-1.0-1.0-6.0,,,,,,,,,,1.0,1.0,,,,65e6238e5774c7e869f5defd,10:35:48,03/04/2024
,"<div style=""font-size: 10rem; color: #0000FF"">R</div>",,ospan,letter,3r5BiuUtZYbByOV77SgdxiBJRCW2,html-keyboard-response,129,739575,0.0-46.0-4.0-1.0-1.0-7.0,,,,,,,,,,,,,,,65e6238e5774c7e869f5defd,10:35:48,03/04/2024
2297.0,,,ospan,symmetry,3r5BiuUtZYbByOV77SgdxiBJRCW2,symmetry-judgement-task,130,743742,0.0-46.0-4.0-1.0-1.0-8.0,,,,,,,,,,1.0,1.0,,,,65e6238e5774c7e869f5defd,10:35:48,03/04/2024
,"<div style=""font-size: 10rem; color: #0000FF"">J</div>",,ospan,letter,3r5BiuUtZYbByOV77SgdxiBJRCW2,html-keyboard-response,131,744751,0.0-46.0-4.0-1.0-1.0-9.0,,,,,,,,,,,,,,,65e6238e5774c7e869f5defd,10:35:48,03/04/2024
4863.70000000298,"<div class = numbox><p style=""font-size: 2.4rem"">Please recall the letters you saw to the best of your ability. If you do not remember a particular letter, use the SKIP button.<br><b>(When you are ready to lock in your answer, press ENTER)</b></p><button id = button_1 class = ""square num-button"" onclick = ""recordClick(this)""><div class = content><div class = numbers>C</div></div></button><button id = button_2 class = ""square num-button"" onclick = ""recordClick(this)""><div class = content><div class = numbers>G</div></div></button><button id = button_3 class = ""square num-button"" onclick = ""recordClick(this)""><div class = content><div class = numbers>H</div></div></button><button id = button_4 class = ""square num-button"" onclick = ""recordClick(this)""><div class = content><div class = numbers>J</div></div></button><button id = button_5 class = ""square num-button"" onclick = ""recordClick(this)""><div class = content><div class = numbers>K</div></div></button><button id = button_6 class = ""square num-button"" onclick = ""recordClick(this)""><div class = content><div class = numbers>L</div></div></button><button id = button_7 class = ""square num-button"" onclick = ""recordClick(this)""><div class = content><div class = numbers>N</div></div></button><button id = button_8 class = ""square num-button"" onclick = ""recordClick(this)""><div class = content><div class = numbers>P</div></div></button><button id = button_9 class = ""square num-button"" onclick = ""recordClick(this)""><div class = content><div class = numbers>Q</div></div></button><button id = button_10 class = ""square num-button"" onclick = ""recordClick(this)""><div class = content><div class = numbers>R</div></div></button><button id = button_11 class = ""square num-button"" onclick = ""recordClick(this)""><div class = content><div class = numbers>S</div></div></button><button id = button_12 class = ""square num-button"" onclick = ""recordClick(this)""><div class = content><div class = numbers>Y</div></div></button><button class = clear_button id = ""ClearButton"" onclick = ""clearResponse()"">BACKSPACE</button><button class = blank_button id = ""BlankButton"" onclick = ""blankResponse()"">SKIP</button><p style=""font-size: 2.4rem""><u><b>Current Answer:</b></u></p><br><br><div id=echoed_txt style=""font-size: 5rem; color:blue;""><b></b></div></div>",enter,ospan,retrieval,3r5BiuUtZYbByOV77SgdxiBJRCW2,html-keyboard-response,132,750375,0.0-46.0-4.0-1.0-2.0,12,12,12,5.0,"[""Q"",""C"",""S"",""R"",""J""]","[""Q"",""C"",""S"",""R"",""J""]",1.0,5.0,,,,,,,65e6238e5774c7e869f5defd,10:35:48,03/04/2024
632.5999999940395,[''],0,ospan,feedback,3r5BiuUtZYbByOV77SgdxiBJRCW2,html-button-response,133,751515,0.0-46.0-4.0-1.0-3.0,,,,,,,,,,,,100.0,0.0,,65e6238e5774c7e869f5defd,10:35:48,03/04/2024
,"<p style=""font-size:75px;"">...</p>",,ospan,iti,3r5BiuUtZYbByOV77SgdxiBJRCW2,html-keyboard-response,134,752528,0.0-46.0-4.0-2.0-0.0,,,,,,,,,,,,,,,65e6238e5774c7e869f5defd,10:35:48,03/04/2024
1901.0,,,ospan,symmetry,3r5BiuUtZYbByOV77SgdxiBJRCW2,symmetry-judgement-task,135,755547,0.0-46.0-4.0-2.0-1.0-0.0,,,,,,,,,,1.0,1.0,,,,65e6238e5774c7e869f5defd,10:35:48,03/04/2024
,"<div style=""font-size: 10rem; color: #0000FF"">C</div>",,ospan,letter,3r5BiuUtZYbByOV77SgdxiBJRCW2,html-keyboard-response,136,756550,0.0-46.0-4.0-2.0-1.0-1.0,,,,,,,,,,,,,,,65e6238e5774c7e869f5defd,10:35:48,03/04/2024
1219.0,,,ospan,symmetry,3r5BiuUtZYbByOV77SgdxiBJRCW2,symmetry-judgement-task,137,759645,0.0-46.0-4.0-2.0-1.0-2.0,,,,,,,,,,1.0,1.0,,,,65e6238e5774c7e869f5defd,10:35:48,03/04/2024
,"<div style=""font-size: 10rem; color: #0000FF"">P</div>",,ospan,letter,3r5BiuUtZYbByOV77SgdxiBJRCW2,html-keyboard-response,138,760649,0.0-46.0-4.0-2.0-1.0-3.0,,,,,,,,,,,,,,,65e6238e5774c7e869f5defd,10:35:48,03/04/2024
2189.0,,,ospan,symmetry,3r5BiuUtZYbByOV77SgdxiBJRCW2,symmetry-judgement-task,139,764720,0.0-46.0-4.0-2.0-1.0-4.0,,,,,,,,,,1.0,1.0,,,,65e6238e5774c7e869f5defd,10:35:48,03/04/2024
,"<div style=""font-size: 10rem; color: #0000FF"">J</div>",,ospan,letter,3r5BiuUtZYbByOV77SgdxiBJRCW2,html-keyboard-response,140,765727,0.0-46.0-4.0-2.0-1.0-5.0,,,,,,,,,,,,,,,65e6238e5774c7e869f5defd,10:35:48,03/04/2024
3772.0,"<div class = numbox><p style=""font-size: 2.4rem"">Please recall the letters you saw to the best of your ability. If you do not remember a particular letter, use the SKIP button.<br><b>(When you are ready to lock in your answer, press ENTER)</b></p><button id = button_1 class = ""square num-button"" onclick = ""recordClick(this)""><div class = content><div class = numbers>C</div></div></button><button id = button_2 class = ""square num-button"" onclick = ""recordClick(this)""><div class = content><div class = numbers>G</div></div></button><button id = button_3 class = ""square num-button"" onclick = ""recordClick(this)""><div class = content><div class = numbers>H</div></div></button><button id = button_4 class = ""square num-button"" onclick = ""recordClick(this)""><div class = content><div class = numbers>J</div></div></button><button id = button_5 class = ""square num-button"" onclick = ""recordClick(this)""><div class = content><div class = numbers>K</div></div></button><button id = button_6 class = ""square num-button"" onclick = ""recordClick(this)""><div class = content><div class = numbers>L</div></div></button><button id = button_7 class = ""square num-button"" onclick = ""recordClick(this)""><div class = content><div class = numbers>N</div></div></button><button id = button_8 class = ""square num-button"" onclick = ""recordClick(this)""><div class = content><div class = numbers>P</div></div></button><button id = button_9 class = ""square num-button"" onclick = ""recordClick(this)""><div class = content><div class = numbers>Q</div></div></button><button id = button_10 class = ""square num-button"" onclick = ""recordClick(this)""><div class = content><div class = numbers>R</div></div></button><button id = button_11 class = ""square num-button"" onclick = ""recordClick(this)""><div class = content><div class = numbers>S</div></div></button><button id = button_12 class = ""square num-button"" onclick = ""recordClick(this)""><div class = content><div class = numbers>Y</div></div></button><button class = clear_button id = ""ClearButton"" onclick = ""clearResponse()"">BACKSPACE</button><button class = blank_button id = ""BlankButton"" onclick = ""blankResponse()"">SKIP</button><p style=""font-size: 2.4rem""><u><b>Current Answer:</b></u></p><br><br><div id=echoed_txt style=""font-size: 5rem; color:blue;""><b></b></div></div>",enter,ospan,retrieval,3r5BiuUtZYbByOV77SgdxiBJRCW2,html-keyboard-response,141,770256,0.0-46.0-4.0-2.0-2.0,15,15,15,3.0,"[""C"",""P"",""J""]","[""C"",""P"",""J""]",1.0,3.0,,,,,,,65e6238e5774c7e869f5defd,10:35:48,03/04/2024
620.2000000029802,[''],0,ospan,feedback,3r5BiuUtZYbByOV77SgdxiBJRCW2,html-button-response,142,771387,0.0-46.0-4.0-2.0-3.0,,,,,,,,,,,,100.0,0.0,,65e6238e5774c7e869f5defd,10:35:48,03/04/2024
,"<p style=""font-size:75px;"">...</p>",,ospan,iti,3r5BiuUtZYbByOV77SgdxiBJRCW2,html-keyboard-response,143,772399,0.0-46.0-5.0-0.0-0.0,,,,,,,,,,,,,,,65e6238e5774c7e869f5defd,10:35:48,03/04/2024
2263.0,,,ospan,symmetry,3r5BiuUtZYbByOV77SgdxiBJRCW2,symmetry-judgement-task,144,775780,0.0-46.0-5.0-0.0-1.0-0.0,,,,,,,,,,1.0,1.0,,,,65e6238e5774c7e869f5defd,10:35:48,03/04/2024
,"<div style=""font-size: 10rem; color: #0000FF"">C</div>",,ospan,letter,3r5BiuUtZYbByOV77SgdxiBJRCW2,html-keyboard-response,145,776791,0.0-46.0-5.0-0.0-1.0-1.0,,,,,,,,,,,,,,,65e6238e5774c7e869f5defd,10:35:48,03/04/2024
1319.0,,,ospan,symmetry,3r5BiuUtZYbByOV77SgdxiBJRCW2,symmetry-judgement-task,146,779995,0.0-46.0-5.0-0.0-1.0-2.0,,,,,,,,,,1.0,1.0,,,,65e6238e5774c7e869f5defd,10:35:48,03/04/2024
,"<div style=""font-size: 10rem; color: #0000FF"">Q</div>",,ospan,letter,3r5BiuUtZYbByOV77SgdxiBJRCW2,html-keyboard-response,147,780996,0.0-46.0-5.0-0.0-1.0-3.0,,,,,,,,,,,,,,,65e6238e5774c7e869f5defd,10:35:48,03/04/2024
2230.0,,,ospan,symmetry,3r5BiuUtZYbByOV77SgdxiBJRCW2,symmetry-judgement-task,148,785093,0.0-46.0-5.0-0.0-1.0-4.0,,,,,,,,,,1.0,1.0,,,,65e6238e5774c7e869f5defd,10:35:48,03/04/2024
,"<div style=""font-size: 10rem; color: #0000FF"">Y</div>",,ospan,letter,3r5BiuUtZYbByOV77SgdxiBJRCW2,html-keyboard-response,149,786101,0.0-46.0-5.0-0.0-1.0-5.0,,,,,,,,,,,,,,,65e6238e5774c7e869f5defd,10:35:48,03/04/2024
1437.0,,,ospan,symmetry,3r5BiuUtZYbByOV77SgdxiBJRCW2,symmetry-judgement-task,150,789341,0.0-46.0-5.0-0.0-1.0-6.0,,,,,,,,,,1.0,1.0,,,,65e6238e5774c7e869f5defd,10:35:48,03/04/2024
,"<div style=""font-size: 10rem; color: #0000FF"">J</div>",,ospan,letter,3r5BiuUtZYbByOV77SgdxiBJRCW2,html-keyboard-response,151,790351,0.0-46.0-5.0-0.0-1.0-7.0,,,,,,,,,,,,,,,65e6238e5774c7e869f5defd,10:35:48,03/04/2024
1973.0,,,ospan,symmetry,3r5BiuUtZYbByOV77SgdxiBJRCW2,symmetry-judgement-task,152,794196,0.0-46.0-5.0-0.0-1.0-8.0,,,,,,,,,,1.0,1.0,,,,65e6238e5774c7e869f5defd,10:35:48,03/04/2024
,"<div style=""font-size: 10rem; color: #0000FF"">G</div>",,ospan,letter,3r5BiuUtZYbByOV77SgdxiBJRCW2,html-keyboard-response,153,795201,0.0-46.0-5.0-0.0-1.0-9.0,,,,,,,,,,,,,,,65e6238e5774c7e869f5defd,10:35:48,03/04/2024
2241.0,,,ospan,symmetry,3r5BiuUtZYbByOV77SgdxiBJRCW2,symmetry-judgement-task,154,799317,0.0-46.0-5.0-0.0-1.0-10.0,,,,,,,,,,1.0,1.0,,,,65e6238e5774c7e869f5defd,10:35:48,03/04/2024
,"<div style=""font-size: 10rem; color: #0000FF"">K</div>",,ospan,letter,3r5BiuUtZYbByOV77SgdxiBJRCW2,html-keyboard-response,155,800318,0.0-46.0-5.0-0.0-1.0-11.0,,,,,,,,,,,,,,,65e6238e5774c7e869f5defd,10:35:48,03/04/2024
7287.0,"<div class = numbox><p style=""font-size: 2.4rem"">Please recall the letters you saw to the best of your ability. If you do not remember a particular letter, use the SKIP button.<br><b>(When you are ready to lock in your answer, press ENTER)</b></p><button id = button_1 class = ""square num-button"" onclick = ""recordClick(this)""><div class = content><div class = numbers>C</div></div></button><button id = button_2 class = ""square num-button"" onclick = ""recordClick(this)""><div class = content><div class = numbers>G</div></div></button><button id = button_3 class = ""square num-button"" onclick = ""recordClick(this)""><div class = content><div class = numbers>H</div></div></button><button id = button_4 class = ""square num-button"" onclick = ""recordClick(this)""><div class = content><div class = numbers>J</div></div></button><button id = button_5 class = ""square num-button"" onclick = ""recordClick(this)""><div class = content><div class = numbers>K</div></div></button><button id = button_6 class = ""square num-button"" onclick = ""recordClick(this)""><div class = content><div class = numbers>L</div></div></button><button id = button_7 class = ""square num-button"" onclick = ""recordClick(this)""><div class = content><div class = numbers>N</div></div></button><button id = button_8 class = ""square num-button"" onclick = ""recordClick(this)""><div class = content><div class = numbers>P</div></div></button><button id = button_9 class = ""square num-button"" onclick = ""recordClick(this)""><div class = content><div class = numbers>Q</div></div></button><button id = button_10 class = ""square num-button"" onclick = ""recordClick(this)""><div class = content><div class = numbers>R</div></div></button><button id = button_11 class = ""square num-button"" onclick = ""recordClick(this)""><div class = content><div class = numbers>S</div></div></button><button id = button_12 class = ""square num-button"" onclick = ""recordClick(this)""><div class = content><div class = numbers>Y</div></div></button><button class = clear_button id = ""ClearButton"" onclick = ""clearResponse()"">BACKSPACE</button><button class = blank_button id = ""BlankButton"" onclick = ""blankResponse()"">SKIP</button><p style=""font-size: 2.4rem""><u><b>Current Answer:</b></u></p><br><br><div id=echoed_txt style=""font-size: 5rem; color:blue;""><b></b></div></div>",enter,ospan,retrieval,3r5BiuUtZYbByOV77SgdxiBJRCW2,html-keyboard-response,156,808370,0.0-46.0-5.0-0.0-2.0,21,19,15,6.0,"[""C"",""Q"",""Y"",""G"",""J"",""K""]","[""C"",""Q"",""Y"",""J"",""G"",""K""]",0.0,4.0,,,,,,,65e6238e5774c7e869f5defd,10:35:48,03/04/2024
1696.0999999940395,[''],0,ospan,feedback,3r5BiuUtZYbByOV77SgdxiBJRCW2,html-button-response,157,810583,0.0-46.0-5.0-0.0-3.0,,,,,,,,,,,,100.0,0.0,,65e6238e5774c7e869f5defd,10:35:48,03/04/2024
,"<p style=""font-size:75px;"">...</p>",,ospan,iti,3r5BiuUtZYbByOV77SgdxiBJRCW2,html-keyboard-response,158,811601,0.0-46.0-5.0-1.0-0.0,,,,,,,,,,,,,,,65e6238e5774c7e869f5defd,10:35:48,03/04/2024
2165.0,,,ospan,symmetry,3r5BiuUtZYbByOV77SgdxiBJRCW2,symmetry-judgement-task,159,814888,0.0-46.0-5.0-1.0-1.0-0.0,,,,,,,,,,1.0,1.0,,,,65e6238e5774c7e869f5defd,10:35:48,03/04/2024
,"<div style=""font-size: 10rem; color: #0000FF"">H</div>",,ospan,letter,3r5BiuUtZYbByOV77SgdxiBJRCW2,html-keyboard-response,160,815903,0.0-46.0-5.0-1.0-1.0-1.0,,,,,,,,,,,,,,,65e6238e5774c7e869f5defd,10:35:48,03/04/2024
1109.0,,,ospan,symmetry,3r5BiuUtZYbByOV77SgdxiBJRCW2,symmetry-judgement-task,161,818902,0.0-46.0-5.0-1.0-1.0-2.0,,,,,,,,,,1.0,1.0,,,,65e6238e5774c7e869f5defd,10:35:48,03/04/2024
,"<div style=""font-size: 10rem; color: #0000FF"">S</div>",,ospan,letter,3r5BiuUtZYbByOV77SgdxiBJRCW2,html-keyboard-response,162,819918,0.0-46.0-5.0-1.0-1.0-3.0,,,,,,,,,,,,,,,65e6238e5774c7e869f5defd,10:35:48,03/04/2024
2564.0,,,ospan,symmetry,3r5BiuUtZYbByOV77SgdxiBJRCW2,symmetry-judgement-task,163,824352,0.0-46.0-5.0-1.0-1.0-4.0,,,,,,,,,,1.0,1.0,,,,65e6238e5774c7e869f5defd,10:35:48,03/04/2024
,"<div style=""font-size: 10rem; color: #0000FF"">L</div>",,ospan,letter,3r5BiuUtZYbByOV77SgdxiBJRCW2,html-keyboard-response,164,825354,0.0-46.0-5.0-1.0-1.0-5.0,,,,,,,,,,,,,,,65e6238e5774c7e869f5defd,10:35:48,03/04/2024
1382.0,,,ospan,symmetry,3r5BiuUtZYbByOV77SgdxiBJRCW2,symmetry-judgement-task,165,828620,0.0-46.0-5.0-1.0-1.0-6.0,,,,,,,,,,1.0,1.0,,,,65e6238e5774c7e869f5defd,10:35:48,03/04/2024
,"<div style=""font-size: 10rem; color: #0000FF"">P</div>",,ospan,letter,3r5BiuUtZYbByOV77SgdxiBJRCW2,html-keyboard-response,166,829635,0.0-46.0-5.0-1.0-1.0-7.0,,,,,,,,,,,,,,,65e6238e5774c7e869f5defd,10:35:48,03/04/2024
1400.0,,,ospan,symmetry,3r5BiuUtZYbByOV77SgdxiBJRCW2,symmetry-judgement-task,167,832897,0.0-46.0-5.0-1.0-1.0-8.0,,,,,,,,,,1.0,1.0,,,,65e6238e5774c7e869f5defd,10:35:48,03/04/2024
,"<div style=""font-size: 10rem; color: #0000FF"">K</div>",,ospan,letter,3r5BiuUtZYbByOV77SgdxiBJRCW2,html-keyboard-response,168,833904,0.0-46.0-5.0-1.0-1.0-9.0,,,,,,,,,,,,,,,65e6238e5774c7e869f5defd,10:35:48,03/04/2024
2176.0,,,ospan,symmetry,3r5BiuUtZYbByOV77SgdxiBJRCW2,symmetry-judgement-task,169,837988,0.0-46.0-5.0-1.0-1.0-10.0,,,,,,,,,,1.0,1.0,,,,65e6238e5774c7e869f5defd,10:35:48,03/04/2024
,"<div style=""font-size: 10rem; color: #0000FF"">J</div>",,ospan,letter,3r5BiuUtZYbByOV77SgdxiBJRCW2,html-keyboard-response,170,839002,0.0-46.0-5.0-1.0-1.0-11.0,,,,,,,,,,,,,,,65e6238e5774c7e869f5defd,10:35:48,03/04/2024
1870.0,,,ospan,symmetry,3r5BiuUtZYbByOV77SgdxiBJRCW2,symmetry-judgement-task,171,842737,0.0-46.0-5.0-1.0-1.0-12.0,,,,,,,,,,1.0,1.0,,,,65e6238e5774c7e869f5defd,10:35:48,03/04/2024
,"<div style=""font-size: 10rem; color: #0000FF"">N</div>",,ospan,letter,3r5BiuUtZYbByOV77SgdxiBJRCW2,html-keyboard-response,172,843753,0.0-46.0-5.0-1.0-1.0-13.0,,,,,,,,,,,,,,,65e6238e5774c7e869f5defd,10:35:48,03/04/2024
8627.70000000298,"<div class = numbox><p style=""font-size: 2.4rem"">Please recall the letters you saw to the best of your ability. If you do not remember a particular letter, use the SKIP button.<br><b>(When you are ready to lock in your answer, press ENTER)</b></p><button id = button_1 class = ""square num-button"" onclick = ""recordClick(this)""><div class = content><div class = numbers>C</div></div></button><button id = button_2 class = ""square num-button"" onclick = ""recordClick(this)""><div class = content><div class = numbers>G</div></div></button><button id = button_3 class = ""square num-button"" onclick = ""recordClick(this)""><div class = content><div class = numbers>H</div></div></button><button id = button_4 class = ""square num-button"" onclick = ""recordClick(this)""><div class = content><div class = numbers>J</div></div></button><button id = button_5 class = ""square num-button"" onclick = ""recordClick(this)""><div class = content><div class = numbers>K</div></div></button><button id = button_6 class = ""square num-button"" onclick = ""recordClick(this)""><div class = content><div class = numbers>L</div></div></button><button id = button_7 class = ""square num-button"" onclick = ""recordClick(this)""><div class = content><div class = numbers>N</div></div></button><button id = button_8 class = ""square num-button"" onclick = ""recordClick(this)""><div class = content><div class = numbers>P</div></div></button><button id = button_9 class = ""square num-button"" onclick = ""recordClick(this)""><div class = content><div class = numbers>Q</div></div></button><button id = button_10 class = ""square num-button"" onclick = ""recordClick(this)""><div class = content><div class = numbers>R</div></div></button><button id = button_11 class = ""square num-button"" onclick = ""recordClick(this)""><div class = content><div class = numbers>S</div></div></button><button id = button_12 class = ""square num-button"" onclick = ""recordClick(this)""><div class = content><div class = numbers>Y</div></div></button><button class = clear_button id = ""ClearButton"" onclick = ""clearResponse()"">BACKSPACE</button><button class = blank_button id = ""BlankButton"" onclick = ""blankResponse()"">SKIP</button><p style=""font-size: 2.4rem""><u><b>Current Answer:</b></u></p><br><br><div id=echoed_txt style=""font-size: 5rem; color:blue;""><b></b></div></div>",enter,ospan,retrieval,3r5BiuUtZYbByOV77SgdxiBJRCW2,html-keyboard-response,173,853133,0.0-46.0-5.0-1.0-2.0,28,26,22,7.0,"[""H"",""S"",""L"",""P"",""K"",""J"",""N""]","[""H"",""S"",""L"",""P"",""K"",""J"",""N""]",1.0,7.0,,,,,,,65e6238e5774c7e869f5defd,10:35:48,03/04/2024
1601.2000000029802,[''],0,ospan,feedback,3r5BiuUtZYbByOV77SgdxiBJRCW2,html-button-response,174,855241,0.0-46.0-5.0-1.0-3.0,,,,,,,,,,,,100.0,0.0,,65e6238e5774c7e869f5defd,10:35:48,03/04/2024
,"<p style=""font-size:75px;"">...</p>",,ospan,iti,3r5BiuUtZYbByOV77SgdxiBJRCW2,html-keyboard-response,175,856252,0.0-46.0-6.0-0.0-0.0,,,,,,,,,,,,,,,65e6238e5774c7e869f5defd,10:35:48,03/04/2024
1861.0,,,ospan,symmetry,3r5BiuUtZYbByOV77SgdxiBJRCW2,symmetry-judgement-task,176,859243,0.0-46.0-6.0-0.0-1.0-0.0,,,,,,,,,,1.0,1.0,,,,65e6238e5774c7e869f5defd,10:35:48,03/04/2024
,"<div style=""font-size: 10rem; color: #0000FF"">Q</div>",,ospan,letter,3r5BiuUtZYbByOV77SgdxiBJRCW2,html-keyboard-response,177,860254,0.0-46.0-6.0-0.0-1.0-1.0,,,,,,,,,,,,,,,65e6238e5774c7e869f5defd,10:35:48,03/04/2024
1368.0,,,ospan,symmetry,3r5BiuUtZYbByOV77SgdxiBJRCW2,symmetry-judgement-task,178,863506,0.0-46.0-6.0-0.0-1.0-2.0,,,,,,,,,,1.0,1.0,,,,65e6238e5774c7e869f5defd,10:35:48,03/04/2024
,"<div style=""font-size: 10rem; color: #0000FF"">R</div>",,ospan,letter,3r5BiuUtZYbByOV77SgdxiBJRCW2,html-keyboard-response,179,864521,0.0-46.0-6.0-0.0-1.0-3.0,,,,,,,,,,,,,,,65e6238e5774c7e869f5defd,10:35:48,03/04/2024
1416.0,,,ospan,symmetry,3r5BiuUtZYbByOV77SgdxiBJRCW2,symmetry-judgement-task,180,867808,0.0-46.0-6.0-0.0-1.0-4.0,,,,,,,,,,1.0,1.0,,,,65e6238e5774c7e869f5defd,10:35:48,03/04/2024
,"<div style=""font-size: 10rem; color: #0000FF"">S</div>",,ospan,letter,3r5BiuUtZYbByOV77SgdxiBJRCW2,html-keyboard-response,181,868821,0.0-46.0-6.0-0.0-1.0-5.0,,,,,,,,,,,,,,,65e6238e5774c7e869f5defd,10:35:48,03/04/2024
1093.0,,,ospan,symmetry,3r5BiuUtZYbByOV77SgdxiBJRCW2,symmetry-judgement-task,182,871706,0.0-46.0-6.0-0.0-1.0-6.0,,,,,,,,,,1.0,1.0,,,,65e6238e5774c7e869f5defd,10:35:48,03/04/2024
,"<div style=""font-size: 10rem; color: #0000FF"">H</div>",,ospan,letter,3r5BiuUtZYbByOV77SgdxiBJRCW2,html-keyboard-response,183,872721,0.0-46.0-6.0-0.0-1.0-7.0,,,,,,,,,,,,,,,65e6238e5774c7e869f5defd,10:35:48,03/04/2024
1044.0,,,ospan,symmetry,3r5BiuUtZYbByOV77SgdxiBJRCW2,symmetry-judgement-task,184,875650,0.0-46.0-6.0-0.0-1.0-8.0,,,,,,,,,,1.0,1.0,,,,65e6238e5774c7e869f5defd,10:35:48,03/04/2024
,"<div style=""font-size: 10rem; color: #0000FF"">J</div>",,ospan,letter,3r5BiuUtZYbByOV77SgdxiBJRCW2,html-keyboard-response,185,876657,0.0-46.0-6.0-0.0-1.0-9.0,,,,,,,,,,,,,,,65e6238e5774c7e869f5defd,10:35:48,03/04/2024
3904.7999999970198,"<div class = numbox><p style=""font-size: 2.4rem"">Please recall the letters you saw to the best of your ability. If you do not remember a particular letter, use the SKIP button.<br><b>(When you are ready to lock in your answer, press ENTER)</b></p><button id = button_1 class = ""square num-button"" onclick = ""recordClick(this)""><div class = content><div class = numbers>C</div></div></button><button id = button_2 class = ""square num-button"" onclick = ""recordClick(this)""><div class = content><div class = numbers>G</div></div></button><button id = button_3 class = ""square num-button"" onclick = ""recordClick(this)""><div class = content><div class = numbers>H</div></div></button><button id = button_4 class = ""square num-button"" onclick = ""recordClick(this)""><div class = content><div class = numbers>J</div></div></button><button id = button_5 class = ""square num-button"" onclick = ""recordClick(this)""><div class = content><div class = numbers>K</div></div></button><button id = button_6 class = ""square num-button"" onclick = ""recordClick(this)""><div class = content><div class = numbers>L</div></div></button><button id = button_7 class = ""square num-button"" onclick = ""recordClick(this)""><div class = content><div class = numbers>N</div></div></button><button id = button_8 class = ""square num-button"" onclick = ""recordClick(this)""><div class = content><div class = numbers>P</div></div></button><button id = button_9 class = ""square num-button"" onclick = ""recordClick(this)""><div class = content><div class = numbers>Q</div></div></button><button id = button_10 class = ""square num-button"" onclick = ""recordClick(this)""><div class = content><div class = numbers>R</div></div></button><button id = button_11 class = ""square num-button"" onclick = ""recordClick(this)""><div class = content><div class = numbers>S</div></div></button><button id = button_12 class = ""square num-button"" onclick = ""recordClick(this)""><div class = content><div class = numbers>Y</div></div></button><button class = clear_button id = ""ClearButton"" onclick = ""clearResponse()"">BACKSPACE</button><button class = blank_button id = ""BlankButton"" onclick = ""blankResponse()"">SKIP</button><p style=""font-size: 2.4rem""><u><b>Current Answer:</b></u></p><br><br><div id=echoed_txt style=""font-size: 5rem; color:blue;""><b></b></div></div>",enter,ospan,retrieval,3r5BiuUtZYbByOV77SgdxiBJRCW2,html-keyboard-response,186,881327,0.0-46.0-6.0-0.0-2.0,33,31,27,5.0,"[""Q"",""R"",""S"",""H"",""J""]","[""Q"",""R"",""S"",""H"",""J""]",1.0,5.0,,,,,,,65e6238e5774c7e869f5defd,10:35:48,03/04/2024
734.2999999970198,[''],0,ospan,feedback,3r5BiuUtZYbByOV77SgdxiBJRCW2,html-button-response,187,882574,0.0-46.0-6.0-0.0-3.0,,,,,,,,,,,,100.0,0.0,,65e6238e5774c7e869f5defd,10:35:48,03/04/2024
,"<p style=""font-size:75px;"">...</p>",,ospan,iti,3r5BiuUtZYbByOV77SgdxiBJRCW2,html-keyboard-response,188,883583,0.0-46.0-6.0-1.0-0.0,,,,,,,,,,,,,,,65e6238e5774c7e869f5defd,10:35:48,03/04/2024
1386.0,,,ospan,symmetry,3r5BiuUtZYbByOV77SgdxiBJRCW2,symmetry-judgement-task,189,886081,0.0-46.0-6.0-1.0-1.0-0.0,,,,,,,,,,1.0,1.0,,,,65e6238e5774c7e869f5defd,10:35:48,03/04/2024
,"<div style=""font-size: 10rem; color: #0000FF"">L</div>",,ospan,letter,3r5BiuUtZYbByOV77SgdxiBJRCW2,html-keyboard-response,190,887087,0.0-46.0-6.0-1.0-1.0-1.0,,,,,,,,,,,,,,,65e6238e5774c7e869f5defd,10:35:48,03/04/2024
971.0,,,ospan,symmetry,3r5BiuUtZYbByOV77SgdxiBJRCW2,symmetry-judgement-task,191,889934,0.0-46.0-6.0-1.0-1.0-2.0,,,,,,,,,,1.0,1.0,,,,65e6238e5774c7e869f5defd,10:35:48,03/04/2024
,"<div style=""font-size: 10rem; color: #0000FF"">P</div>",,ospan,letter,3r5BiuUtZYbByOV77SgdxiBJRCW2,html-keyboard-response,192,890940,0.0-46.0-6.0-1.0-1.0-3.0,,,,,,,,,,,,,,,65e6238e5774c7e869f5defd,10:35:48,03/04/2024
2113.0,,,ospan,symmetry,3r5BiuUtZYbByOV77SgdxiBJRCW2,symmetry-judgement-task,193,894943,0.0-46.0-6.0-1.0-1.0-4.0,,,,,,,,,,1.0,1.0,,,,65e6238e5774c7e869f5defd,10:35:48,03/04/2024
,"<div style=""font-size: 10rem; color: #0000FF"">G</div>",,ospan,letter,3r5BiuUtZYbByOV77SgdxiBJRCW2,html-keyboard-response,194,895957,0.0-46.0-6.0-1.0-1.0-5.0,,,,,,,,,,,,,,,65e6238e5774c7e869f5defd,10:35:48,03/04/2024
2128.0,,,ospan,symmetry,3r5BiuUtZYbByOV77SgdxiBJRCW2,symmetry-judgement-task,195,899969,0.0-46.0-6.0-1.0-1.0-6.0,,,,,,,,,,1.0,1.0,,,,65e6238e5774c7e869f5defd,10:35:48,03/04/2024
,"<div style=""font-size: 10rem; color: #0000FF"">Q</div>",,ospan,letter,3r5BiuUtZYbByOV77SgdxiBJRCW2,html-keyboard-response,196,900973,0.0-46.0-6.0-1.0-1.0-7.0,,,,,,,,,,,,,,,65e6238e5774c7e869f5defd,10:35:48,03/04/2024
1389.0,,,ospan,symmetry,3r5BiuUtZYbByOV77SgdxiBJRCW2,symmetry-judgement-task,197,904242,0.0-46.0-6.0-1.0-1.0-8.0,,,,,,,,,,1.0,1.0,,,,65e6238e5774c7e869f5defd,10:35:48,03/04/2024
,"<div style=""font-size: 10rem; color: #0000FF"">C</div>",,ospan,letter,3r5BiuUtZYbByOV77SgdxiBJRCW2,html-keyboard-response,198,905256,0.0-46.0-6.0-1.0-1.0-9.0,,,,,,,,,,,,,,,65e6238e5774c7e869f5defd,10:35:48,03/04/2024
1777.0,,,ospan,symmetry,3r5BiuUtZYbByOV77SgdxiBJRCW2,symmetry-judgement-task,199,908895,0.0-46.0-6.0-1.0-1.0-10.0,,,,,,,,,,1.0,1.0,,,,65e6238e5774c7e869f5defd,10:35:48,03/04/2024
,"<div style=""font-size: 10rem; color: #0000FF"">S</div>",,ospan,letter,3r5BiuUtZYbByOV77SgdxiBJRCW2,html-keyboard-response,200,909907,0.0-46.0-6.0-1.0-1.0-11.0,,,,,,,,,,,,,,,65e6238e5774c7e869f5defd,10:35:48,03/04/2024
2388.0,,,ospan,symmetry,3r5BiuUtZYbByOV77SgdxiBJRCW2,symmetry-judgement-task,201,914187,0.0-46.0-6.0-1.0-1.0-12.0,,,,,,,,,,1.0,1.0,,,,65e6238e5774c7e869f5defd,10:35:48,03/04/2024
,"<div style=""font-size: 10rem; color: #0000FF"">J</div>",,ospan,letter,3r5BiuUtZYbByOV77SgdxiBJRCW2,html-keyboard-response,202,915191,0.0-46.0-6.0-1.0-1.0-13.0,,,,,,,,,,,,,,,65e6238e5774c7e869f5defd,10:35:48,03/04/2024
3572.0,,,ospan,symmetry,3r5BiuUtZYbByOV77SgdxiBJRCW2,symmetry-judgement-task,203,920634,0.0-46.0-6.0-1.0-1.0-14.0,,,,,,,,,,1.0,1.0,,,,65e6238e5774c7e869f5defd,10:35:48,03/04/2024
,"<div style=""font-size: 10rem; color: #0000FF"">K</div>",,ospan,letter,3r5BiuUtZYbByOV77SgdxiBJRCW2,html-keyboard-response,204,921643,0.0-46.0-6.0-1.0-1.0-15.0,,,,,,,,,,,,,,,65e6238e5774c7e869f5defd,10:35:48,03/04/2024
11920.79999999702,"<div class = numbox><p style=""font-size: 2.4rem"">Please recall the letters you saw to the best of your ability. If you do not remember a particular letter, use the SKIP button.<br><b>(When you are ready to lock in your answer, press ENTER)</b></p><button id = button_1 class = ""square num-button"" onclick = ""recordClick(this)""><div class = content><div class = numbers>C</div></div></button><button id = button_2 class = ""square num-button"" onclick = ""recordClick(this)""><div class = content><div class = numbers>G</div></div></button><button id = button_3 class = ""square num-button"" onclick = ""recordClick(this)""><div class = content><div class = numbers>H</div></div></button><button id = button_4 class = ""square num-button"" onclick = ""recordClick(this)""><div class = content><div class = numbers>J</div></div></button><button id = button_5 class = ""square num-button"" onclick = ""recordClick(this)""><div class = content><div class = numbers>K</div></div></button><button id = button_6 class = ""square num-button"" onclick = ""recordClick(this)""><div class = content><div class = numbers>L</div></div></button><button id = button_7 class = ""square num-button"" onclick = ""recordClick(this)""><div class = content><div class = numbers>N</div></div></button><button id = button_8 class = ""square num-button"" onclick = ""recordClick(this)""><div class = content><div class = numbers>P</div></div></button><button id = button_9 class = ""square num-button"" onclick = ""recordClick(this)""><div class = content><div class = numbers>Q</div></div></button><button id = button_10 class = ""square num-button"" onclick = ""recordClick(this)""><div class = content><div class = numbers>R</div></div></button><button id = button_11 class = ""square num-button"" onclick = ""recordClick(this)""><div class = content><div class = numbers>S</div></div></button><button id = button_12 class = ""square num-button"" onclick = ""recordClick(this)""><div class = content><div class = numbers>Y</div></div></button><button class = clear_button id = ""ClearButton"" onclick = ""clearResponse()"">BACKSPACE</button><button class = blank_button id = ""BlankButton"" onclick = ""blankResponse()"">SKIP</button><p style=""font-size: 2.4rem""><u><b>Current Answer:</b></u></p><br><br><div id=echoed_txt style=""font-size: 5rem; color:blue;""><b></b></div></div>",enter,ospan,retrieval,3r5BiuUtZYbByOV77SgdxiBJRCW2,html-keyboard-response,205,934329,0.0-46.0-6.0-1.0-2.0,41,39,35,8.0,"[""L"",""P"",""G"",""Q"",""C"",""S"",""J"",""K""]","[""L"",""P"",""G"",""Q"",""C"",""S"",""J"",""K""]",1.0,8.0,,,,,,,65e6238e5774c7e869f5defd,10:35:48,03/04/2024
962.5999999940395,[''],0,ospan,feedback,3r5BiuUtZYbByOV77SgdxiBJRCW2,html-button-response,206,935805,0.0-46.0-6.0-1.0-3.0,,,,,,,,,,,,100.0,0.0,,65e6238e5774c7e869f5defd,10:35:48,03/04/2024
20928.30000001192,,{'Q0': 'I enjoyed the challenge that came with the task as it kept my brain active and aware.'},ospan,survey_ospan,3r5BiuUtZYbByOV77SgdxiBJRCW2,lmdlab-survey-text,207,957502,0.0-46.0-7.0,,,,,,,,,,,,,,3r5BiuUtZYbByOV77SgdxiBJRCW2,65e6238e5774c7e869f5defd,10:35:48,03/04/2024
1032.8999999910593,<p><p style='font-size: 3rem'>Great work!<br><br>This completes the symmetry and memory task.</p><br><br><br>,0,ospan,finish,3r5BiuUtZYbByOV77SgdxiBJRCW2,html-button-response,208,958538,0.0-46.0-8.0,41,39,35,,,,,,,,,100.0,,,65e6238e5774c7e869f5defd,10:35:48,03/04/2024
