rt,stimulus,response,exp_name,exp_stage,subjectID,trial_type,trial_index,time_elapsed,internal_node_id,ospan_shown,ospan_total,ospan_abs,length,resp_actual,resp_correct,full_correct,num_correct,feedback,accuracy,correct,math_acc,math_warning,databaseID,prolificID,start_time,date
3025.5,<div class = 'left_align' style='font-size: 3.25rem; line-height: 1.3;'><p class = 'center_align'><b>Welcome to the Symmetry and Memory Task</b><br><br><br><br></p>Press 'continue' to show the instructions.<br><br><br><br></div>,0,ospan,instruct,tth09OWEAWezP30Y1vDkr3DPHSy1,html-button-response,54,762372,0.0-46.0-0.0-0.0-0.0,,,,,,,,,,,,,,,5ee91ec1ef56832aa7947169,21:18:00,04/04/2024
7048.100000000093,"<div class = 'left_align' style='font-size: 3.25rem; line-height: 1.3;'><p class = 'center_align'><b>Symmetry and Memory Task</b><br><br></p>In this task, you will try to memorize letters you see on the screen<br>while you also view black and white grid pictures.<br><br>In the next few minutes, you will have some practice to get you familiar<br>with how the task works.<br><br>It may be difficult sometimes, but please do not worry about making mistakes!<br><br>We will begin by practicing the letter part of the task.<br><br><br><br></div>",0,ospan,instruct,tth09OWEAWezP30Y1vDkr3DPHSy1,html-button-response,55,769686,0.0-46.0-0.0-0.0-1.0,,,,,,,,,,,,,,,5ee91ec1ef56832aa7947169,21:18:00,04/04/2024
8445.399999999907,"<div class = 'left_align' style='font-size: 3.25rem; line-height: 1.3;'>For this practice part, letters will appear on the screen one at a time.<br><br>Try to remember each letter in the order presented.<br><br>After some letters have been shown, you will see a response screen. Your<br>goal is to report the letters you saw <b>in order</b>. If you do not remember<br>a particular letter, you will have the option to leave it blank.<br><br><br><br></div>",0,ospan,instruct,tth09OWEAWezP30Y1vDkr3DPHSy1,html-button-response,56,778391,0.0-46.0-0.0-0.0-2.0,,,,,,,,,,,,,,,5ee91ec1ef56832aa7947169,21:18:00,04/04/2024
3091.0999999998603,"<div class = 'left_align' style='font-size: 3.25rem; line-height: 1.3;'>Remember, it is very important to get the letters in the same<br>order as you see them.<br><br>When you are ready, you may begin the letter practice.</div><br><br><br><br>",0,ospan,instruct,tth09OWEAWezP30Y1vDkr3DPHSy1,html-button-response,57,781745,0.0-46.0-0.0-0.0-3.0,,,,,,,,,,,,,,,5ee91ec1ef56832aa7947169,21:18:00,04/04/2024
,"<p style=""font-size:75px;"">...</p>",,ospan,iti,tth09OWEAWezP30Y1vDkr3DPHSy1,html-keyboard-response,58,783007,0.0-46.0-0.0-1.0-0.0,,,,,,,,,,,,,,,5ee91ec1ef56832aa7947169,21:18:00,04/04/2024
,"<div style=""font-size: 10rem; color: #0000FF"">Y</div>",,ospan,letter,tth09OWEAWezP30Y1vDkr3DPHSy1,html-keyboard-response,59,784017,0.0-46.0-0.0-1.0-1.0,,,,,,,,,,,,,,,5ee91ec1ef56832aa7947169,21:18:00,04/04/2024
,"<div style=""font-size: 10rem; color: #0000FF"">K</div>",,ospan,letter,tth09OWEAWezP30Y1vDkr3DPHSy1,html-keyboard-response,60,785788,0.0-46.0-0.0-1.0-2.0,,,,,,,,,,,,,,,5ee91ec1ef56832aa7947169,21:18:00,04/04/2024
14424.699999999953,"<div class = numbox><p style=""font-size: 2.4rem"">Please recall the letters you saw to the best of your ability. If you do not remember a particular letter, use the SKIP button.<br><b>(When you are ready to lock in your answer, press ENTER)</b></p><button id = button_1 class = ""square num-button"" onclick = ""recordClick(this)""><div class = content><div class = numbers>C</div></div></button><button id = button_2 class = ""square num-button"" onclick = ""recordClick(this)""><div class = content><div class = numbers>G</div></div></button><button id = button_3 class = ""square num-button"" onclick = ""recordClick(this)""><div class = content><div class = numbers>H</div></div></button><button id = button_4 class = ""square num-button"" onclick = ""recordClick(this)""><div class = content><div class = numbers>J</div></div></button><button id = button_5 class = ""square num-button"" onclick = ""recordClick(this)""><div class = content><div class = numbers>K</div></div></button><button id = button_6 class = ""square num-button"" onclick = ""recordClick(this)""><div class = content><div class = numbers>L</div></div></button><button id = button_7 class = ""square num-button"" onclick = ""recordClick(this)""><div class = content><div class = numbers>N</div></div></button><button id = button_8 class = ""square num-button"" onclick = ""recordClick(this)""><div class = content><div class = numbers>P</div></div></button><button id = button_9 class = ""square num-button"" onclick = ""recordClick(this)""><div class = content><div class = numbers>Q</div></div></button><button id = button_10 class = ""square num-button"" onclick = ""recordClick(this)""><div class = content><div class = numbers>R</div></div></button><button id = button_11 class = ""square num-button"" onclick = ""recordClick(this)""><div class = content><div class = numbers>S</div></div></button><button id = button_12 class = ""square num-button"" onclick = ""recordClick(this)""><div class = content><div class = numbers>Y</div></div></button><button class = clear_button id = ""ClearButton"" onclick = ""clearResponse()"">BACKSPACE</button><button class = blank_button id = ""BlankButton"" onclick = ""blankResponse()"">SKIP</button><p style=""font-size: 2.4rem""><u><b>Current Answer:</b></u></p><br><br><div id=echoed_txt style=""font-size: 5rem; color:blue;""><b></b></div></div>",enter,ospan,retrieval,tth09OWEAWezP30Y1vDkr3DPHSy1,html-keyboard-response,61,800993,0.0-46.0-0.0-1.0-3.0,NA,NA,NA,2.0,"[""Y"",""K""]","[""Y"",""K""]",1.0,2.0,"['<font color=""green"">Y</font>', '<font color=""green"">K</font>']",,,,,,5ee91ec1ef56832aa7947169,21:18:00,04/04/2024
1283.0,"['<p style=""font-size:44px"">Letters:<br><br><br><font color=""green"">Y</font> <font color=""green"">K</font></p><br><br>']",0,ospan,practice_feedback,tth09OWEAWezP30Y1vDkr3DPHSy1,html-button-response,62,802796,0.0-46.0-0.0-1.0-4.0,,,,,,,,,,,,,,,5ee91ec1ef56832aa7947169,21:18:00,04/04/2024
,"<p style=""font-size:75px;"">...</p>",,ospan,iti,tth09OWEAWezP30Y1vDkr3DPHSy1,html-keyboard-response,63,803811,0.0-46.0-0.0-2.0-0.0,,,,,,,,,,,,,,,5ee91ec1ef56832aa7947169,21:18:00,04/04/2024
,"<div style=""font-size: 10rem; color: #0000FF"">G</div>",,ospan,letter,tth09OWEAWezP30Y1vDkr3DPHSy1,html-keyboard-response,64,804839,0.0-46.0-0.0-2.0-1.0,,,,,,,,,,,,,,,5ee91ec1ef56832aa7947169,21:18:00,04/04/2024
,"<div style=""font-size: 10rem; color: #0000FF"">P</div>",,ospan,letter,tth09OWEAWezP30Y1vDkr3DPHSy1,html-keyboard-response,65,806600,0.0-46.0-0.0-2.0-2.0,,,,,,,,,,,,,,,5ee91ec1ef56832aa7947169,21:18:00,04/04/2024
,"<div style=""font-size: 10rem; color: #0000FF"">J</div>",,ospan,letter,tth09OWEAWezP30Y1vDkr3DPHSy1,html-keyboard-response,66,808703,0.0-46.0-0.0-2.0-3.0,,,,,,,,,,,,,,,5ee91ec1ef56832aa7947169,21:18:00,04/04/2024
5113.300000000047,"<div class = numbox><p style=""font-size: 2.4rem"">Please recall the letters you saw to the best of your ability. If you do not remember a particular letter, use the SKIP button.<br><b>(When you are ready to lock in your answer, press ENTER)</b></p><button id = button_1 class = ""square num-button"" onclick = ""recordClick(this)""><div class = content><div class = numbers>C</div></div></button><button id = button_2 class = ""square num-button"" onclick = ""recordClick(this)""><div class = content><div class = numbers>G</div></div></button><button id = button_3 class = ""square num-button"" onclick = ""recordClick(this)""><div class = content><div class = numbers>H</div></div></button><button id = button_4 class = ""square num-button"" onclick = ""recordClick(this)""><div class = content><div class = numbers>J</div></div></button><button id = button_5 class = ""square num-button"" onclick = ""recordClick(this)""><div class = content><div class = numbers>K</div></div></button><button id = button_6 class = ""square num-button"" onclick = ""recordClick(this)""><div class = content><div class = numbers>L</div></div></button><button id = button_7 class = ""square num-button"" onclick = ""recordClick(this)""><div class = content><div class = numbers>N</div></div></button><button id = button_8 class = ""square num-button"" onclick = ""recordClick(this)""><div class = content><div class = numbers>P</div></div></button><button id = button_9 class = ""square num-button"" onclick = ""recordClick(this)""><div class = content><div class = numbers>Q</div></div></button><button id = button_10 class = ""square num-button"" onclick = ""recordClick(this)""><div class = content><div class = numbers>R</div></div></button><button id = button_11 class = ""square num-button"" onclick = ""recordClick(this)""><div class = content><div class = numbers>S</div></div></button><button id = button_12 class = ""square num-button"" onclick = ""recordClick(this)""><div class = content><div class = numbers>Y</div></div></button><button class = clear_button id = ""ClearButton"" onclick = ""clearResponse()"">BACKSPACE</button><button class = blank_button id = ""BlankButton"" onclick = ""blankResponse()"">SKIP</button><p style=""font-size: 2.4rem""><u><b>Current Answer:</b></u></p><br><br><div id=echoed_txt style=""font-size: 5rem; color:blue;""><b></b></div></div>",enter,ospan,retrieval,tth09OWEAWezP30Y1vDkr3DPHSy1,html-keyboard-response,67,814570,0.0-46.0-0.0-2.0-4.0,NA,NA,NA,3.0,"[""G"",""P"",""J""]","[""G"",""P"",""J""]",1.0,3.0,"['<font color=""green"">G</font>', '<font color=""green"">P</font>', '<font color=""green"">J</font>']",,,,,,5ee91ec1ef56832aa7947169,21:18:00,04/04/2024
1396.5,"['<p style=""font-size:44px"">Letters:<br><br><br><font color=""green"">G</font> <font color=""green"">P</font> <font color=""green"">J</font></p><br><br>']",0,ospan,practice_feedback,tth09OWEAWezP30Y1vDkr3DPHSy1,html-button-response,68,816478,0.0-46.0-0.0-2.0-5.0,,,,,,,,,,,,,,,5ee91ec1ef56832aa7947169,21:18:00,04/04/2024
12378.199999999953,"<div class = 'left_align' style='font-size: 3.25rem; line-height: 1.3;'>Now you will practice doing the <b>symmetry judgment part</b> of the experiment.<br><br>A black and white grid picture will appear on the screen and you have to judge if it is <br>symmetrical or asymetrical.<br><br>A picture is 'mirror' symmetrical if its left half is identical to the right half when flipped.<br>Here are examples of a symmetrical and an asymetrical picture:<br><br><center><img src='Stimuli/img/symm_instructions_extra.png' style='height:420px; width:900'></img></center><br>To judge symmetry, imagine you were to fold each picture down the middle, like a book –<br>would the left half match the right half when folded onto each other?<br><br></div><br>",0,ospan,instruct,tth09OWEAWezP30Y1vDkr3DPHSy1,html-button-response,69,828860,0.0-46.0-1.0-0.0-0.0,,,,,,,,,,,,,,,5ee91ec1ef56832aa7947169,21:18:00,04/04/2024
7007.600000000093,"<div class = 'left_align' style='font-size: 3.25rem; line-height: 1.3;'>When you have viewed the picture and determined whether it is symmetrical or not,<br>you can <b>click the Yes or No button</b> below to answer.<br><br>If you take longer than 15 seconds, it will continue automatically<br>and record the answer as an error.</div><br>",0,ospan,instruct,tth09OWEAWezP30Y1vDkr3DPHSy1,html-button-response,70,836121,0.0-46.0-1.0-0.0-1.0,,,,,,,,,,,,,,,5ee91ec1ef56832aa7947169,21:18:00,04/04/2024
6249.700000000186,"<div class = 'left_align' style='font-size: 3.25rem; line-height: 1.3;'>It is <b>very</b> important that you make the symmetry judgment correctly.<br><br>It is also important that you try and judge the picture as quickly as you can.<br><br>When you are ready, click on the button below to try some practice problems.</div><br><br><br><br>",0,ospan,instruct,tth09OWEAWezP30Y1vDkr3DPHSy1,html-button-response,71,842632,0.0-46.0-1.0-0.0-2.0,,,,,,,,,,,,,,,5ee91ec1ef56832aa7947169,21:18:00,04/04/2024
2588.0,,,ospan,symmetry,tth09OWEAWezP30Y1vDkr3DPHSy1,symmetry-judgement-task,72,846035,0.0-46.0-1.0-1.0-0.0,,,,,,,,,,1.0,1.0,,,,5ee91ec1ef56832aa7947169,21:18:00,04/04/2024
,"<p style=""color:green; font-size: 35px"">Correct</p>",,ospan,feedback,tth09OWEAWezP30Y1vDkr3DPHSy1,html-keyboard-response,73,846806,0.0-46.0-1.0-1.0-1.0,,,,,,,,,,,,,,,5ee91ec1ef56832aa7947169,21:18:00,04/04/2024
2287.0,,,ospan,symmetry,tth09OWEAWezP30Y1vDkr3DPHSy1,symmetry-judgement-task,74,851764,0.0-46.0-1.0-1.0-2.0,,,,,,,,,,1.0,1.0,,,,5ee91ec1ef56832aa7947169,21:18:00,04/04/2024
,"<p style=""color:green; font-size: 35px"">Correct</p>",,ospan,feedback,tth09OWEAWezP30Y1vDkr3DPHSy1,html-keyboard-response,75,852531,0.0-46.0-1.0-1.0-3.0,,,,,,,,,,,,,,,5ee91ec1ef56832aa7947169,21:18:00,04/04/2024
2108.0,,,ospan,symmetry,tth09OWEAWezP30Y1vDkr3DPHSy1,symmetry-judgement-task,76,857333,0.0-46.0-1.0-1.0-4.0,,,,,,,,,,1.0,1.0,,,,5ee91ec1ef56832aa7947169,21:18:00,04/04/2024
,"<p style=""color:green; font-size: 35px"">Correct</p>",,ospan,feedback,tth09OWEAWezP30Y1vDkr3DPHSy1,html-keyboard-response,77,858097,0.0-46.0-1.0-1.0-5.0,,,,,,,,,,,,,,,5ee91ec1ef56832aa7947169,21:18:00,04/04/2024
1549.3000000000466,"<p style=""font-size: 3rem;"">You responded correctly on 3 of 3 symmetry judgments. Good job!</p><br><br>",0,ospan,practice,tth09OWEAWezP30Y1vDkr3DPHSy1,html-button-response,78,861651,0.0-46.0-1.0-2.0,,,,,,,,,,,,,,,5ee91ec1ef56832aa7947169,21:18:00,04/04/2024
7627.399999999907,"<div class = 'left_align' style='font-size: 3.25rem; line-height: 1.3;'>Now you will practice doing both parts of the experiment at the same time.<br><br>In the next practice set, you will be given one grid picture to judge.<br>Then letter will appear on the screen. Try to remember the letter.<br><br>It is <b>very important</b> to make the symmetry judgment as quickly and accurately as possible.<br><br>Just as before, once you have make the symmetry judgment, you can click Yes or No.<br><b>Note that you will no longer see Correct or Incorrect feedback.</div><br><br><br><br>",0,ospan,instruct,tth09OWEAWezP30Y1vDkr3DPHSy1,html-button-response,79,869685,0.0-46.0-2.0-0.0-0.0,,,,,,,,,,,,,,,5ee91ec1ef56832aa7947169,21:18:00,04/04/2024
9173.300000000047,"<div class = 'left_align' style='font-size: 3.25rem; line-height: 1.3;'>After the letter goes away, another grid picture will appear, and then<br>another letter.<br><br>At the end of each set of letters and grids, you will recall the letters to the best<br>of your ability. Remember, try your best to get the letters in the correct order.<br><br>It is important to <b>quickly</b> and <b>accurately</b> make the symmetry judgments.</div><br><br><br><br>",0,ospan,instruct,tth09OWEAWezP30Y1vDkr3DPHSy1,html-button-response,80,879121,0.0-46.0-2.0-0.0-1.0,,,,,,,,,,,,,,,5ee91ec1ef56832aa7947169,21:18:00,04/04/2024
15218.800000000047,"<div class = 'left_align' style='font-size: 3.25rem; line-height: 1.3;'>On the feedback screen, if you are not doing well at the symmetry judgments,<br>you will also see a warning in the middle. This indicates your percent <br>correct for the grid pictures for the entire experiment.<br><br>It is <b>very</b> important for you to keep accuracy at least at 85%: <u>We can only use<br>data where the participant was at least 85% accurate on the judgments.</u> Therefore,<br> please try your best to perform well on the symmetry judgments, <b>at the same time</b><br>doing your best to recall as many letters as possible.<br><br>Click the button to try some practice problems.</div><br><br><br><br>",0,ospan,instruct,tth09OWEAWezP30Y1vDkr3DPHSy1,html-button-response,81,894610,0.0-46.0-2.0-0.0-2.0,,,,,,,,,,,,,,,5ee91ec1ef56832aa7947169,21:18:00,04/04/2024
,"<p style=""font-size:75px;"">...</p>",,ospan,iti,tth09OWEAWezP30Y1vDkr3DPHSy1,html-keyboard-response,82,895872,0.0-46.0-2.0-1.0-0.0,,,,,,,,,,,,,,,5ee91ec1ef56832aa7947169,21:18:00,04/04/2024
2314.0,,,ospan,symmetry,tth09OWEAWezP30Y1vDkr3DPHSy1,symmetry-judgement-task,83,899365,0.0-46.0-2.0-1.0-1.0-0.0,,,,,,,,,,1.0,1.0,,,,5ee91ec1ef56832aa7947169,21:18:00,04/04/2024
,"<div style=""font-size: 10rem; color: #0000FF"">K</div>",,ospan,letter,tth09OWEAWezP30Y1vDkr3DPHSy1,html-keyboard-response,84,900373,0.0-46.0-2.0-1.0-1.0-1.0,,,,,,,,,,,,,,,5ee91ec1ef56832aa7947169,21:18:00,04/04/2024
2158.0,,,ospan,symmetry,tth09OWEAWezP30Y1vDkr3DPHSy1,symmetry-judgement-task,85,904453,0.0-46.0-2.0-1.0-1.0-2.0,,,,,,,,,,1.0,1.0,,,,5ee91ec1ef56832aa7947169,21:18:00,04/04/2024
,"<div style=""font-size: 10rem; color: #0000FF"">J</div>",,ospan,letter,tth09OWEAWezP30Y1vDkr3DPHSy1,html-keyboard-response,86,905461,0.0-46.0-2.0-1.0-1.0-3.0,,,,,,,,,,,,,,,5ee91ec1ef56832aa7947169,21:18:00,04/04/2024
1933.0,,,ospan,symmetry,tth09OWEAWezP30Y1vDkr3DPHSy1,symmetry-judgement-task,87,909325,0.0-46.0-2.0-1.0-1.0-4.0,,,,,,,,,,1.0,1.0,,,,5ee91ec1ef56832aa7947169,21:18:00,04/04/2024
,"<div style=""font-size: 10rem; color: #0000FF"">S</div>",,ospan,letter,tth09OWEAWezP30Y1vDkr3DPHSy1,html-keyboard-response,88,910329,0.0-46.0-2.0-1.0-1.0-5.0,,,,,,,,,,,,,,,5ee91ec1ef56832aa7947169,21:18:00,04/04/2024
5395.5,"<div class = numbox><p style=""font-size: 2.4rem"">Please recall the letters you saw to the best of your ability. If you do not remember a particular letter, use the SKIP button.<br><b>(When you are ready to lock in your answer, press ENTER)</b></p><button id = button_1 class = ""square num-button"" onclick = ""recordClick(this)""><div class = content><div class = numbers>C</div></div></button><button id = button_2 class = ""square num-button"" onclick = ""recordClick(this)""><div class = content><div class = numbers>G</div></div></button><button id = button_3 class = ""square num-button"" onclick = ""recordClick(this)""><div class = content><div class = numbers>H</div></div></button><button id = button_4 class = ""square num-button"" onclick = ""recordClick(this)""><div class = content><div class = numbers>J</div></div></button><button id = button_5 class = ""square num-button"" onclick = ""recordClick(this)""><div class = content><div class = numbers>K</div></div></button><button id = button_6 class = ""square num-button"" onclick = ""recordClick(this)""><div class = content><div class = numbers>L</div></div></button><button id = button_7 class = ""square num-button"" onclick = ""recordClick(this)""><div class = content><div class = numbers>N</div></div></button><button id = button_8 class = ""square num-button"" onclick = ""recordClick(this)""><div class = content><div class = numbers>P</div></div></button><button id = button_9 class = ""square num-button"" onclick = ""recordClick(this)""><div class = content><div class = numbers>Q</div></div></button><button id = button_10 class = ""square num-button"" onclick = ""recordClick(this)""><div class = content><div class = numbers>R</div></div></button><button id = button_11 class = ""square num-button"" onclick = ""recordClick(this)""><div class = content><div class = numbers>S</div></div></button><button id = button_12 class = ""square num-button"" onclick = ""recordClick(this)""><div class = content><div class = numbers>Y</div></div></button><button class = clear_button id = ""ClearButton"" onclick = ""clearResponse()"">BACKSPACE</button><button class = blank_button id = ""BlankButton"" onclick = ""blankResponse()"">SKIP</button><p style=""font-size: 2.4rem""><u><b>Current Answer:</b></u></p><br><br><div id=echoed_txt style=""font-size: 5rem; color:blue;""><b></b></div></div>",enter,ospan,retrieval,tth09OWEAWezP30Y1vDkr3DPHSy1,html-keyboard-response,89,916490,0.0-46.0-2.0-1.0-2.0-0.0,NA,NA,NA,3.0,"[""K"",""J"",""S""]","[""K"",""J"",""S""]",1.0,3.0,"['<font color=""green"">K</font>', '<font color=""green"">J</font>', '<font color=""green"">S</font>']",,,,,,5ee91ec1ef56832aa7947169,21:18:00,04/04/2024
1693.3000000000466,"['<p style=""font-size:44px"">Letters:<br><br><br><font color=""green"">K</font> <font color=""green"">J</font> <font color=""green"">S</font></p><br><br><p style=""font-size:30px"">Symmetry:<br><br><font color=""green"">100%</font></p><br><br>']",0,ospan,practice_feedback,tth09OWEAWezP30Y1vDkr3DPHSy1,html-button-response,90,918704,0.0-46.0-2.0-1.0-2.0-1.0,,,,,,,,,,,,,,,5ee91ec1ef56832aa7947169,21:18:00,04/04/2024
,"<p style=""font-size:75px;"">...</p>",,ospan,iti,tth09OWEAWezP30Y1vDkr3DPHSy1,html-keyboard-response,91,919710,0.0-46.0-2.0-2.0-0.0,,,,,,,,,,,,,,,5ee91ec1ef56832aa7947169,21:18:00,04/04/2024
1883.0,,,ospan,symmetry,tth09OWEAWezP30Y1vDkr3DPHSy1,symmetry-judgement-task,92,922764,0.0-46.0-2.0-2.0-1.0-0.0,,,,,,,,,,1.0,1.0,,,,5ee91ec1ef56832aa7947169,21:18:00,04/04/2024
,"<div style=""font-size: 10rem; color: #0000FF"">L</div>",,ospan,letter,tth09OWEAWezP30Y1vDkr3DPHSy1,html-keyboard-response,93,923780,0.0-46.0-2.0-2.0-1.0-1.0,,,,,,,,,,,,,,,5ee91ec1ef56832aa7947169,21:18:00,04/04/2024
1205.0,,,ospan,symmetry,tth09OWEAWezP30Y1vDkr3DPHSy1,symmetry-judgement-task,94,926906,0.0-46.0-2.0-2.0-1.0-2.0,,,,,,,,,,1.0,1.0,,,,5ee91ec1ef56832aa7947169,21:18:00,04/04/2024
,"<div style=""font-size: 10rem; color: #0000FF"">G</div>",,ospan,letter,tth09OWEAWezP30Y1vDkr3DPHSy1,html-keyboard-response,95,927917,0.0-46.0-2.0-2.0-1.0-3.0,,,,,,,,,,,,,,,5ee91ec1ef56832aa7947169,21:18:00,04/04/2024
1924.0,,,ospan,symmetry,tth09OWEAWezP30Y1vDkr3DPHSy1,symmetry-judgement-task,96,931798,0.0-46.0-2.0-2.0-1.0-4.0,,,,,,,,,,1.0,1.0,,,,5ee91ec1ef56832aa7947169,21:18:00,04/04/2024
,"<div style=""font-size: 10rem; color: #0000FF"">S</div>",,ospan,letter,tth09OWEAWezP30Y1vDkr3DPHSy1,html-keyboard-response,97,932816,0.0-46.0-2.0-2.0-1.0-5.0,,,,,,,,,,,,,,,5ee91ec1ef56832aa7947169,21:18:00,04/04/2024
3472.1999999999534,"<div class = numbox><p style=""font-size: 2.4rem"">Please recall the letters you saw to the best of your ability. If you do not remember a particular letter, use the SKIP button.<br><b>(When you are ready to lock in your answer, press ENTER)</b></p><button id = button_1 class = ""square num-button"" onclick = ""recordClick(this)""><div class = content><div class = numbers>C</div></div></button><button id = button_2 class = ""square num-button"" onclick = ""recordClick(this)""><div class = content><div class = numbers>G</div></div></button><button id = button_3 class = ""square num-button"" onclick = ""recordClick(this)""><div class = content><div class = numbers>H</div></div></button><button id = button_4 class = ""square num-button"" onclick = ""recordClick(this)""><div class = content><div class = numbers>J</div></div></button><button id = button_5 class = ""square num-button"" onclick = ""recordClick(this)""><div class = content><div class = numbers>K</div></div></button><button id = button_6 class = ""square num-button"" onclick = ""recordClick(this)""><div class = content><div class = numbers>L</div></div></button><button id = button_7 class = ""square num-button"" onclick = ""recordClick(this)""><div class = content><div class = numbers>N</div></div></button><button id = button_8 class = ""square num-button"" onclick = ""recordClick(this)""><div class = content><div class = numbers>P</div></div></button><button id = button_9 class = ""square num-button"" onclick = ""recordClick(this)""><div class = content><div class = numbers>Q</div></div></button><button id = button_10 class = ""square num-button"" onclick = ""recordClick(this)""><div class = content><div class = numbers>R</div></div></button><button id = button_11 class = ""square num-button"" onclick = ""recordClick(this)""><div class = content><div class = numbers>S</div></div></button><button id = button_12 class = ""square num-button"" onclick = ""recordClick(this)""><div class = content><div class = numbers>Y</div></div></button><button class = clear_button id = ""ClearButton"" onclick = ""clearResponse()"">BACKSPACE</button><button class = blank_button id = ""BlankButton"" onclick = ""blankResponse()"">SKIP</button><p style=""font-size: 2.4rem""><u><b>Current Answer:</b></u></p><br><br><div id=echoed_txt style=""font-size: 5rem; color:blue;""><b></b></div></div>",enter,ospan,retrieval,tth09OWEAWezP30Y1vDkr3DPHSy1,html-keyboard-response,98,937047,0.0-46.0-2.0-2.0-2.0-0.0,NA,NA,NA,3.0,"[""L"",""G"",""S""]","[""L"",""G"",""S""]",1.0,3.0,"['<font color=""green"">L</font>', '<font color=""green"">G</font>', '<font color=""green"">S</font>']",,,,,,5ee91ec1ef56832aa7947169,21:18:00,04/04/2024
1519.6999999999534,"['<p style=""font-size:44px"">Letters:<br><br><br><font color=""green"">L</font> <font color=""green"">G</font> <font color=""green"">S</font></p><br><br><p style=""font-size:30px"">Symmetry:<br><br><font color=""green"">100%</font></p><br><br>']",0,ospan,practice_feedback,tth09OWEAWezP30Y1vDkr3DPHSy1,html-button-response,99,939074,0.0-46.0-2.0-2.0-2.0-1.0,,,,,,,,,,,,,,,5ee91ec1ef56832aa7947169,21:18:00,04/04/2024
7566.300000000047,"<div class = 'left_align' style='font-size: 3rem; line-height: 1.3;'><b>Great work! That is the end of practice.</b><br><br>The real trials will look just like the practice trials you just completed.<br><br><u>Here, you will not see feedback</u>. First, you will see an grid picture to judge,<br>then a letter to remember. When the recall screen appears, report the letters in the<br>order presented. If you forget a letter, remember to use the <b>blank</b> button to move to the<br>next letter. Some of the sets will have more symmetry grids and letters than others.<br><br>It is important that you do your best on both the symmetry judgments and the letter recall<br>parts of the experiment. For for the symmetry judgments, try to work as <b>quickly</b> and <br>as <b>accurately</b> as possible. Remember to keep your symmetry accuracy at 85% or above.<br><br><b>For the letters, do NOT use any external aid (e.g., writing on paper, electronic device).</b><br><br>It is <u>very important</u> to our experiment to have a <b>true</b> view of your real performance.<br><br>Do not worry if you miss some when it gets hard! This task is meant to be very challenging!<br><br>Click the button to begin.</div><br><br><br><br>",0,ospan,starting_real_here,tth09OWEAWezP30Y1vDkr3DPHSy1,html-button-response,100,946642,0.0-46.0-2.0-3.0,,,,,,,,,,,,,,,5ee91ec1ef56832aa7947169,21:18:00,04/04/2024
,"<p style=""font-size:75px;"">...</p>",,ospan,iti,tth09OWEAWezP30Y1vDkr3DPHSy1,html-keyboard-response,101,947902,0.0-46.0-3.0-0.0-0.0,,,,,,,,,,,,,,,5ee91ec1ef56832aa7947169,21:18:00,04/04/2024
1858.0,,,ospan,symmetry,tth09OWEAWezP30Y1vDkr3DPHSy1,symmetry-judgement-task,102,950930,0.0-46.0-3.0-0.0-1.0-0.0,,,,,,,,,,1.0,1.0,,,,5ee91ec1ef56832aa7947169,21:18:00,04/04/2024
,"<div style=""font-size: 10rem; color: #0000FF"">H</div>",,ospan,letter,tth09OWEAWezP30Y1vDkr3DPHSy1,html-keyboard-response,103,951932,0.0-46.0-3.0-0.0-1.0-1.0,,,,,,,,,,,,,,,5ee91ec1ef56832aa7947169,21:18:00,04/04/2024
1676.0,,,ospan,symmetry,tth09OWEAWezP30Y1vDkr3DPHSy1,symmetry-judgement-task,104,955538,0.0-46.0-3.0-0.0-1.0-2.0,,,,,,,,,,1.0,1.0,,,,5ee91ec1ef56832aa7947169,21:18:00,04/04/2024
,"<div style=""font-size: 10rem; color: #0000FF"">S</div>",,ospan,letter,tth09OWEAWezP30Y1vDkr3DPHSy1,html-keyboard-response,105,956541,0.0-46.0-3.0-0.0-1.0-3.0,,,,,,,,,,,,,,,5ee91ec1ef56832aa7947169,21:18:00,04/04/2024
1301.0,,,ospan,symmetry,tth09OWEAWezP30Y1vDkr3DPHSy1,symmetry-judgement-task,106,959784,0.0-46.0-3.0-0.0-1.0-4.0,,,,,,,,,,1.0,1.0,,,,5ee91ec1ef56832aa7947169,21:18:00,04/04/2024
,"<div style=""font-size: 10rem; color: #0000FF"">C</div>",,ospan,letter,tth09OWEAWezP30Y1vDkr3DPHSy1,html-keyboard-response,107,960792,0.0-46.0-3.0-0.0-1.0-5.0,,,,,,,,,,,,,,,5ee91ec1ef56832aa7947169,21:18:00,04/04/2024
3594.1999999999534,"<div class = numbox><p style=""font-size: 2.4rem"">Please recall the letters you saw to the best of your ability. If you do not remember a particular letter, use the SKIP button.<br><b>(When you are ready to lock in your answer, press ENTER)</b></p><button id = button_1 class = ""square num-button"" onclick = ""recordClick(this)""><div class = content><div class = numbers>C</div></div></button><button id = button_2 class = ""square num-button"" onclick = ""recordClick(this)""><div class = content><div class = numbers>G</div></div></button><button id = button_3 class = ""square num-button"" onclick = ""recordClick(this)""><div class = content><div class = numbers>H</div></div></button><button id = button_4 class = ""square num-button"" onclick = ""recordClick(this)""><div class = content><div class = numbers>J</div></div></button><button id = button_5 class = ""square num-button"" onclick = ""recordClick(this)""><div class = content><div class = numbers>K</div></div></button><button id = button_6 class = ""square num-button"" onclick = ""recordClick(this)""><div class = content><div class = numbers>L</div></div></button><button id = button_7 class = ""square num-button"" onclick = ""recordClick(this)""><div class = content><div class = numbers>N</div></div></button><button id = button_8 class = ""square num-button"" onclick = ""recordClick(this)""><div class = content><div class = numbers>P</div></div></button><button id = button_9 class = ""square num-button"" onclick = ""recordClick(this)""><div class = content><div class = numbers>Q</div></div></button><button id = button_10 class = ""square num-button"" onclick = ""recordClick(this)""><div class = content><div class = numbers>R</div></div></button><button id = button_11 class = ""square num-button"" onclick = ""recordClick(this)""><div class = content><div class = numbers>S</div></div></button><button id = button_12 class = ""square num-button"" onclick = ""recordClick(this)""><div class = content><div class = numbers>Y</div></div></button><button class = clear_button id = ""ClearButton"" onclick = ""clearResponse()"">BACKSPACE</button><button class = blank_button id = ""BlankButton"" onclick = ""blankResponse()"">SKIP</button><p style=""font-size: 2.4rem""><u><b>Current Answer:</b></u></p><br><br><div id=echoed_txt style=""font-size: 5rem; color:blue;""><b></b></div></div>",enter,ospan,retrieval,tth09OWEAWezP30Y1vDkr3DPHSy1,html-keyboard-response,108,965140,0.0-46.0-3.0-0.0-2.0,3,3,3,3.0,"[""H"",""S"",""C""]","[""H"",""S"",""C""]",1.0,3.0,,,,,,,5ee91ec1ef56832aa7947169,21:18:00,04/04/2024
1434.5,[''],0,ospan,feedback,tth09OWEAWezP30Y1vDkr3DPHSy1,html-button-response,109,967082,0.0-46.0-3.0-0.0-3.0,,,,,,,,,,,,100.0,0.0,,5ee91ec1ef56832aa7947169,21:18:00,04/04/2024
,"<p style=""font-size:75px;"">...</p>",,ospan,iti,tth09OWEAWezP30Y1vDkr3DPHSy1,html-keyboard-response,110,968105,0.0-46.0-4.0-0.0-0.0,,,,,,,,,,,,,,,5ee91ec1ef56832aa7947169,21:18:00,04/04/2024
2246.0,,,ospan,symmetry,tth09OWEAWezP30Y1vDkr3DPHSy1,symmetry-judgement-task,111,971522,0.0-46.0-4.0-0.0-1.0-0.0,,,,,,,,,,1.0,1.0,,,,5ee91ec1ef56832aa7947169,21:18:00,04/04/2024
,"<div style=""font-size: 10rem; color: #0000FF"">H</div>",,ospan,letter,tth09OWEAWezP30Y1vDkr3DPHSy1,html-keyboard-response,112,972542,0.0-46.0-4.0-0.0-1.0-1.0,,,,,,,,,,,,,,,5ee91ec1ef56832aa7947169,21:18:00,04/04/2024
1188.0,,,ospan,symmetry,tth09OWEAWezP30Y1vDkr3DPHSy1,symmetry-judgement-task,113,975663,0.0-46.0-4.0-0.0-1.0-2.0,,,,,,,,,,1.0,1.0,,,,5ee91ec1ef56832aa7947169,21:18:00,04/04/2024
,"<div style=""font-size: 10rem; color: #0000FF"">S</div>",,ospan,letter,tth09OWEAWezP30Y1vDkr3DPHSy1,html-keyboard-response,114,976681,0.0-46.0-4.0-0.0-1.0-3.0,,,,,,,,,,,,,,,5ee91ec1ef56832aa7947169,21:18:00,04/04/2024
2171.0,,,ospan,symmetry,tth09OWEAWezP30Y1vDkr3DPHSy1,symmetry-judgement-task,115,980842,0.0-46.0-4.0-0.0-1.0-4.0,,,,,,,,,,1.0,1.0,,,,5ee91ec1ef56832aa7947169,21:18:00,04/04/2024
,"<div style=""font-size: 10rem; color: #0000FF"">C</div>",,ospan,letter,tth09OWEAWezP30Y1vDkr3DPHSy1,html-keyboard-response,116,981863,0.0-46.0-4.0-0.0-1.0-5.0,,,,,,,,,,,,,,,5ee91ec1ef56832aa7947169,21:18:00,04/04/2024
2321.0,,,ospan,symmetry,tth09OWEAWezP30Y1vDkr3DPHSy1,symmetry-judgement-task,117,986132,0.0-46.0-4.0-0.0-1.0-6.0,,,,,,,,,,1.0,1.0,,,,5ee91ec1ef56832aa7947169,21:18:00,04/04/2024
,"<div style=""font-size: 10rem; color: #0000FF"">R</div>",,ospan,letter,tth09OWEAWezP30Y1vDkr3DPHSy1,html-keyboard-response,118,987148,0.0-46.0-4.0-0.0-1.0-7.0,,,,,,,,,,,,,,,5ee91ec1ef56832aa7947169,21:18:00,04/04/2024
5674.899999999907,"<div class = numbox><p style=""font-size: 2.4rem"">Please recall the letters you saw to the best of your ability. If you do not remember a particular letter, use the SKIP button.<br><b>(When you are ready to lock in your answer, press ENTER)</b></p><button id = button_1 class = ""square num-button"" onclick = ""recordClick(this)""><div class = content><div class = numbers>C</div></div></button><button id = button_2 class = ""square num-button"" onclick = ""recordClick(this)""><div class = content><div class = numbers>G</div></div></button><button id = button_3 class = ""square num-button"" onclick = ""recordClick(this)""><div class = content><div class = numbers>H</div></div></button><button id = button_4 class = ""square num-button"" onclick = ""recordClick(this)""><div class = content><div class = numbers>J</div></div></button><button id = button_5 class = ""square num-button"" onclick = ""recordClick(this)""><div class = content><div class = numbers>K</div></div></button><button id = button_6 class = ""square num-button"" onclick = ""recordClick(this)""><div class = content><div class = numbers>L</div></div></button><button id = button_7 class = ""square num-button"" onclick = ""recordClick(this)""><div class = content><div class = numbers>N</div></div></button><button id = button_8 class = ""square num-button"" onclick = ""recordClick(this)""><div class = content><div class = numbers>P</div></div></button><button id = button_9 class = ""square num-button"" onclick = ""recordClick(this)""><div class = content><div class = numbers>Q</div></div></button><button id = button_10 class = ""square num-button"" onclick = ""recordClick(this)""><div class = content><div class = numbers>R</div></div></button><button id = button_11 class = ""square num-button"" onclick = ""recordClick(this)""><div class = content><div class = numbers>S</div></div></button><button id = button_12 class = ""square num-button"" onclick = ""recordClick(this)""><div class = content><div class = numbers>Y</div></div></button><button class = clear_button id = ""ClearButton"" onclick = ""clearResponse()"">BACKSPACE</button><button class = blank_button id = ""BlankButton"" onclick = ""blankResponse()"">SKIP</button><p style=""font-size: 2.4rem""><u><b>Current Answer:</b></u></p><br><br><div id=echoed_txt style=""font-size: 5rem; color:blue;""><b></b></div></div>",enter,ospan,retrieval,tth09OWEAWezP30Y1vDkr3DPHSy1,html-keyboard-response,119,993583,0.0-46.0-4.0-0.0-2.0,7,7,7,4.0,"[""H"",""S"",""C"",""R""]","[""H"",""S"",""C"",""R""]",1.0,4.0,,,,,,,5ee91ec1ef56832aa7947169,21:18:00,04/04/2024
1156.0,[''],0,ospan,feedback,tth09OWEAWezP30Y1vDkr3DPHSy1,html-button-response,120,995250,0.0-46.0-4.0-0.0-3.0,,,,,,,,,,,,100.0,0.0,,5ee91ec1ef56832aa7947169,21:18:00,04/04/2024
,"<p style=""font-size:75px;"">...</p>",,ospan,iti,tth09OWEAWezP30Y1vDkr3DPHSy1,html-keyboard-response,121,996267,0.0-46.0-4.0-1.0-0.0,,,,,,,,,,,,,,,5ee91ec1ef56832aa7947169,21:18:00,04/04/2024
2032.0,,,ospan,symmetry,tth09OWEAWezP30Y1vDkr3DPHSy1,symmetry-judgement-task,122,999367,0.0-46.0-4.0-1.0-1.0-0.0,,,,,,,,,,1.0,1.0,,,,5ee91ec1ef56832aa7947169,21:18:00,04/04/2024
,"<div style=""font-size: 10rem; color: #0000FF"">R</div>",,ospan,letter,tth09OWEAWezP30Y1vDkr3DPHSy1,html-keyboard-response,123,1000385,0.0-46.0-4.0-1.0-1.0-1.0,,,,,,,,,,,,,,,5ee91ec1ef56832aa7947169,21:18:00,04/04/2024
2133.0,,,ospan,symmetry,tth09OWEAWezP30Y1vDkr3DPHSy1,symmetry-judgement-task,124,1004323,0.0-46.0-4.0-1.0-1.0-2.0,,,,,,,,,,1.0,1.0,,,,5ee91ec1ef56832aa7947169,21:18:00,04/04/2024
,"<div style=""font-size: 10rem; color: #0000FF"">Y</div>",,ospan,letter,tth09OWEAWezP30Y1vDkr3DPHSy1,html-keyboard-response,125,1005325,0.0-46.0-4.0-1.0-1.0-3.0,,,,,,,,,,,,,,,5ee91ec1ef56832aa7947169,21:18:00,04/04/2024
1599.0,,,ospan,symmetry,tth09OWEAWezP30Y1vDkr3DPHSy1,symmetry-judgement-task,126,1008834,0.0-46.0-4.0-1.0-1.0-4.0,,,,,,,,,,1.0,1.0,,,,5ee91ec1ef56832aa7947169,21:18:00,04/04/2024
,"<div style=""font-size: 10rem; color: #0000FF"">C</div>",,ospan,letter,tth09OWEAWezP30Y1vDkr3DPHSy1,html-keyboard-response,127,1009837,0.0-46.0-4.0-1.0-1.0-5.0,,,,,,,,,,,,,,,5ee91ec1ef56832aa7947169,21:18:00,04/04/2024
1184.0,,,ospan,symmetry,tth09OWEAWezP30Y1vDkr3DPHSy1,symmetry-judgement-task,128,1012943,0.0-46.0-4.0-1.0-1.0-6.0,,,,,,,,,,1.0,1.0,,,,5ee91ec1ef56832aa7947169,21:18:00,04/04/2024
,"<div style=""font-size: 10rem; color: #0000FF"">K</div>",,ospan,letter,tth09OWEAWezP30Y1vDkr3DPHSy1,html-keyboard-response,129,1013950,0.0-46.0-4.0-1.0-1.0-7.0,,,,,,,,,,,,,,,5ee91ec1ef56832aa7947169,21:18:00,04/04/2024
1373.0,,,ospan,symmetry,tth09OWEAWezP30Y1vDkr3DPHSy1,symmetry-judgement-task,130,1017266,0.0-46.0-4.0-1.0-1.0-8.0,,,,,,,,,,1.0,1.0,,,,5ee91ec1ef56832aa7947169,21:18:00,04/04/2024
,"<div style=""font-size: 10rem; color: #0000FF"">G</div>",,ospan,letter,tth09OWEAWezP30Y1vDkr3DPHSy1,html-keyboard-response,131,1018268,0.0-46.0-4.0-1.0-1.0-9.0,,,,,,,,,,,,,,,5ee91ec1ef56832aa7947169,21:18:00,04/04/2024
6235.40000000014,"<div class = numbox><p style=""font-size: 2.4rem"">Please recall the letters you saw to the best of your ability. If you do not remember a particular letter, use the SKIP button.<br><b>(When you are ready to lock in your answer, press ENTER)</b></p><button id = button_1 class = ""square num-button"" onclick = ""recordClick(this)""><div class = content><div class = numbers>C</div></div></button><button id = button_2 class = ""square num-button"" onclick = ""recordClick(this)""><div class = content><div class = numbers>G</div></div></button><button id = button_3 class = ""square num-button"" onclick = ""recordClick(this)""><div class = content><div class = numbers>H</div></div></button><button id = button_4 class = ""square num-button"" onclick = ""recordClick(this)""><div class = content><div class = numbers>J</div></div></button><button id = button_5 class = ""square num-button"" onclick = ""recordClick(this)""><div class = content><div class = numbers>K</div></div></button><button id = button_6 class = ""square num-button"" onclick = ""recordClick(this)""><div class = content><div class = numbers>L</div></div></button><button id = button_7 class = ""square num-button"" onclick = ""recordClick(this)""><div class = content><div class = numbers>N</div></div></button><button id = button_8 class = ""square num-button"" onclick = ""recordClick(this)""><div class = content><div class = numbers>P</div></div></button><button id = button_9 class = ""square num-button"" onclick = ""recordClick(this)""><div class = content><div class = numbers>Q</div></div></button><button id = button_10 class = ""square num-button"" onclick = ""recordClick(this)""><div class = content><div class = numbers>R</div></div></button><button id = button_11 class = ""square num-button"" onclick = ""recordClick(this)""><div class = content><div class = numbers>S</div></div></button><button id = button_12 class = ""square num-button"" onclick = ""recordClick(this)""><div class = content><div class = numbers>Y</div></div></button><button class = clear_button id = ""ClearButton"" onclick = ""clearResponse()"">BACKSPACE</button><button class = blank_button id = ""BlankButton"" onclick = ""blankResponse()"">SKIP</button><p style=""font-size: 2.4rem""><u><b>Current Answer:</b></u></p><br><br><div id=echoed_txt style=""font-size: 5rem; color:blue;""><b></b></div></div>",enter,ospan,retrieval,tth09OWEAWezP30Y1vDkr3DPHSy1,html-keyboard-response,132,1025261,0.0-46.0-4.0-1.0-2.0,12,12,12,5.0,"[""R"",""Y"",""C"",""K"",""G""]","[""R"",""Y"",""C"",""K"",""G""]",1.0,5.0,,,,,,,5ee91ec1ef56832aa7947169,21:18:00,04/04/2024
799.0,[''],0,ospan,feedback,tth09OWEAWezP30Y1vDkr3DPHSy1,html-button-response,133,1026576,0.0-46.0-4.0-1.0-3.0,,,,,,,,,,,,100.0,0.0,,5ee91ec1ef56832aa7947169,21:18:00,04/04/2024
,"<p style=""font-size:75px;"">...</p>",,ospan,iti,tth09OWEAWezP30Y1vDkr3DPHSy1,html-keyboard-response,134,1027579,0.0-46.0-4.0-2.0-0.0,,,,,,,,,,,,,,,5ee91ec1ef56832aa7947169,21:18:00,04/04/2024
1749.0,,,ospan,symmetry,tth09OWEAWezP30Y1vDkr3DPHSy1,symmetry-judgement-task,135,1030474,0.0-46.0-4.0-2.0-1.0-0.0,,,,,,,,,,1.0,1.0,,,,5ee91ec1ef56832aa7947169,21:18:00,04/04/2024
,"<div style=""font-size: 10rem; color: #0000FF"">P</div>",,ospan,letter,tth09OWEAWezP30Y1vDkr3DPHSy1,html-keyboard-response,136,1031487,0.0-46.0-4.0-2.0-1.0-1.0,,,,,,,,,,,,,,,5ee91ec1ef56832aa7947169,21:18:00,04/04/2024
1103.0,,,ospan,symmetry,tth09OWEAWezP30Y1vDkr3DPHSy1,symmetry-judgement-task,137,1034512,0.0-46.0-4.0-2.0-1.0-2.0,,,,,,,,,,1.0,1.0,,,,5ee91ec1ef56832aa7947169,21:18:00,04/04/2024
,"<div style=""font-size: 10rem; color: #0000FF"">H</div>",,ospan,letter,tth09OWEAWezP30Y1vDkr3DPHSy1,html-keyboard-response,138,1035515,0.0-46.0-4.0-2.0-1.0-3.0,,,,,,,,,,,,,,,5ee91ec1ef56832aa7947169,21:18:00,04/04/2024
1376.0,,,ospan,symmetry,tth09OWEAWezP30Y1vDkr3DPHSy1,symmetry-judgement-task,139,1038829,0.0-46.0-4.0-2.0-1.0-4.0,,,,,,,,,,1.0,1.0,,,,5ee91ec1ef56832aa7947169,21:18:00,04/04/2024
,"<div style=""font-size: 10rem; color: #0000FF"">G</div>",,ospan,letter,tth09OWEAWezP30Y1vDkr3DPHSy1,html-keyboard-response,140,1039839,0.0-46.0-4.0-2.0-1.0-5.0,,,,,,,,,,,,,,,5ee91ec1ef56832aa7947169,21:18:00,04/04/2024
4957.899999999907,"<div class = numbox><p style=""font-size: 2.4rem"">Please recall the letters you saw to the best of your ability. If you do not remember a particular letter, use the SKIP button.<br><b>(When you are ready to lock in your answer, press ENTER)</b></p><button id = button_1 class = ""square num-button"" onclick = ""recordClick(this)""><div class = content><div class = numbers>C</div></div></button><button id = button_2 class = ""square num-button"" onclick = ""recordClick(this)""><div class = content><div class = numbers>G</div></div></button><button id = button_3 class = ""square num-button"" onclick = ""recordClick(this)""><div class = content><div class = numbers>H</div></div></button><button id = button_4 class = ""square num-button"" onclick = ""recordClick(this)""><div class = content><div class = numbers>J</div></div></button><button id = button_5 class = ""square num-button"" onclick = ""recordClick(this)""><div class = content><div class = numbers>K</div></div></button><button id = button_6 class = ""square num-button"" onclick = ""recordClick(this)""><div class = content><div class = numbers>L</div></div></button><button id = button_7 class = ""square num-button"" onclick = ""recordClick(this)""><div class = content><div class = numbers>N</div></div></button><button id = button_8 class = ""square num-button"" onclick = ""recordClick(this)""><div class = content><div class = numbers>P</div></div></button><button id = button_9 class = ""square num-button"" onclick = ""recordClick(this)""><div class = content><div class = numbers>Q</div></div></button><button id = button_10 class = ""square num-button"" onclick = ""recordClick(this)""><div class = content><div class = numbers>R</div></div></button><button id = button_11 class = ""square num-button"" onclick = ""recordClick(this)""><div class = content><div class = numbers>S</div></div></button><button id = button_12 class = ""square num-button"" onclick = ""recordClick(this)""><div class = content><div class = numbers>Y</div></div></button><button class = clear_button id = ""ClearButton"" onclick = ""clearResponse()"">BACKSPACE</button><button class = blank_button id = ""BlankButton"" onclick = ""blankResponse()"">SKIP</button><p style=""font-size: 2.4rem""><u><b>Current Answer:</b></u></p><br><br><div id=echoed_txt style=""font-size: 5rem; color:blue;""><b></b></div></div>",enter,ospan,retrieval,tth09OWEAWezP30Y1vDkr3DPHSy1,html-keyboard-response,141,1045555,0.0-46.0-4.0-2.0-2.0,15,15,15,3.0,"[""P"",""H"",""G""]","[""P"",""H"",""G""]",1.0,3.0,,,,,,,5ee91ec1ef56832aa7947169,21:18:00,04/04/2024
1043.5,[''],0,ospan,feedback,tth09OWEAWezP30Y1vDkr3DPHSy1,html-button-response,142,1047107,0.0-46.0-4.0-2.0-3.0,,,,,,,,,,,,100.0,0.0,,5ee91ec1ef56832aa7947169,21:18:00,04/04/2024
,"<p style=""font-size:75px;"">...</p>",,ospan,iti,tth09OWEAWezP30Y1vDkr3DPHSy1,html-keyboard-response,143,1048118,0.0-46.0-5.0-0.0-0.0,,,,,,,,,,,,,,,5ee91ec1ef56832aa7947169,21:18:00,04/04/2024
1681.0,,,ospan,symmetry,tth09OWEAWezP30Y1vDkr3DPHSy1,symmetry-judgement-task,144,1051000,0.0-46.0-5.0-0.0-1.0-0.0,,,,,,,,,,1.0,1.0,,,,5ee91ec1ef56832aa7947169,21:18:00,04/04/2024
,"<div style=""font-size: 10rem; color: #0000FF"">P</div>",,ospan,letter,tth09OWEAWezP30Y1vDkr3DPHSy1,html-keyboard-response,145,1052002,0.0-46.0-5.0-0.0-1.0-1.0,,,,,,,,,,,,,,,5ee91ec1ef56832aa7947169,21:18:00,04/04/2024
1674.0,,,ospan,symmetry,tth09OWEAWezP30Y1vDkr3DPHSy1,symmetry-judgement-task,146,1055603,0.0-46.0-5.0-0.0-1.0-2.0,,,,,,,,,,1.0,1.0,,,,5ee91ec1ef56832aa7947169,21:18:00,04/04/2024
,"<div style=""font-size: 10rem; color: #0000FF"">Y</div>",,ospan,letter,tth09OWEAWezP30Y1vDkr3DPHSy1,html-keyboard-response,147,1056606,0.0-46.0-5.0-0.0-1.0-3.0,,,,,,,,,,,,,,,5ee91ec1ef56832aa7947169,21:18:00,04/04/2024
1602.0,,,ospan,symmetry,tth09OWEAWezP30Y1vDkr3DPHSy1,symmetry-judgement-task,148,1060148,0.0-46.0-5.0-0.0-1.0-4.0,,,,,,,,,,1.0,1.0,,,,5ee91ec1ef56832aa7947169,21:18:00,04/04/2024
,"<div style=""font-size: 10rem; color: #0000FF"">N</div>",,ospan,letter,tth09OWEAWezP30Y1vDkr3DPHSy1,html-keyboard-response,149,1061155,0.0-46.0-5.0-0.0-1.0-5.0,,,,,,,,,,,,,,,5ee91ec1ef56832aa7947169,21:18:00,04/04/2024
1588.0,,,ospan,symmetry,tth09OWEAWezP30Y1vDkr3DPHSy1,symmetry-judgement-task,150,1064664,0.0-46.0-5.0-0.0-1.0-6.0,,,,,,,,,,1.0,1.0,,,,5ee91ec1ef56832aa7947169,21:18:00,04/04/2024
,"<div style=""font-size: 10rem; color: #0000FF"">H</div>",,ospan,letter,tth09OWEAWezP30Y1vDkr3DPHSy1,html-keyboard-response,151,1065667,0.0-46.0-5.0-0.0-1.0-7.0,,,,,,,,,,,,,,,5ee91ec1ef56832aa7947169,21:18:00,04/04/2024
1216.0,,,ospan,symmetry,tth09OWEAWezP30Y1vDkr3DPHSy1,symmetry-judgement-task,152,1068793,0.0-46.0-5.0-0.0-1.0-8.0,,,,,,,,,,1.0,1.0,,,,5ee91ec1ef56832aa7947169,21:18:00,04/04/2024
,"<div style=""font-size: 10rem; color: #0000FF"">J</div>",,ospan,letter,tth09OWEAWezP30Y1vDkr3DPHSy1,html-keyboard-response,153,1069796,0.0-46.0-5.0-0.0-1.0-9.0,,,,,,,,,,,,,,,5ee91ec1ef56832aa7947169,21:18:00,04/04/2024
1558.0,,,ospan,symmetry,tth09OWEAWezP30Y1vDkr3DPHSy1,symmetry-judgement-task,154,1073273,0.0-46.0-5.0-0.0-1.0-10.0,,,,,,,,,,1.0,1.0,,,,5ee91ec1ef56832aa7947169,21:18:00,04/04/2024
,"<div style=""font-size: 10rem; color: #0000FF"">R</div>",,ospan,letter,tth09OWEAWezP30Y1vDkr3DPHSy1,html-keyboard-response,155,1074276,0.0-46.0-5.0-0.0-1.0-11.0,,,,,,,,,,,,,,,5ee91ec1ef56832aa7947169,21:18:00,04/04/2024
7658.800000000047,"<div class = numbox><p style=""font-size: 2.4rem"">Please recall the letters you saw to the best of your ability. If you do not remember a particular letter, use the SKIP button.<br><b>(When you are ready to lock in your answer, press ENTER)</b></p><button id = button_1 class = ""square num-button"" onclick = ""recordClick(this)""><div class = content><div class = numbers>C</div></div></button><button id = button_2 class = ""square num-button"" onclick = ""recordClick(this)""><div class = content><div class = numbers>G</div></div></button><button id = button_3 class = ""square num-button"" onclick = ""recordClick(this)""><div class = content><div class = numbers>H</div></div></button><button id = button_4 class = ""square num-button"" onclick = ""recordClick(this)""><div class = content><div class = numbers>J</div></div></button><button id = button_5 class = ""square num-button"" onclick = ""recordClick(this)""><div class = content><div class = numbers>K</div></div></button><button id = button_6 class = ""square num-button"" onclick = ""recordClick(this)""><div class = content><div class = numbers>L</div></div></button><button id = button_7 class = ""square num-button"" onclick = ""recordClick(this)""><div class = content><div class = numbers>N</div></div></button><button id = button_8 class = ""square num-button"" onclick = ""recordClick(this)""><div class = content><div class = numbers>P</div></div></button><button id = button_9 class = ""square num-button"" onclick = ""recordClick(this)""><div class = content><div class = numbers>Q</div></div></button><button id = button_10 class = ""square num-button"" onclick = ""recordClick(this)""><div class = content><div class = numbers>R</div></div></button><button id = button_11 class = ""square num-button"" onclick = ""recordClick(this)""><div class = content><div class = numbers>S</div></div></button><button id = button_12 class = ""square num-button"" onclick = ""recordClick(this)""><div class = content><div class = numbers>Y</div></div></button><button class = clear_button id = ""ClearButton"" onclick = ""clearResponse()"">BACKSPACE</button><button class = blank_button id = ""BlankButton"" onclick = ""blankResponse()"">SKIP</button><p style=""font-size: 2.4rem""><u><b>Current Answer:</b></u></p><br><br><div id=echoed_txt style=""font-size: 5rem; color:blue;""><b></b></div></div>",enter,ospan,retrieval,tth09OWEAWezP30Y1vDkr3DPHSy1,html-keyboard-response,156,1082701,0.0-46.0-5.0-0.0-2.0,21,21,21,6.0,"[""P"",""Y"",""N"",""H"",""J"",""R""]","[""P"",""Y"",""N"",""H"",""J"",""R""]",1.0,6.0,,,,,,,5ee91ec1ef56832aa7947169,21:18:00,04/04/2024
823.5,[''],0,ospan,feedback,tth09OWEAWezP30Y1vDkr3DPHSy1,html-button-response,157,1084040,0.0-46.0-5.0-0.0-3.0,,,,,,,,,,,,100.0,0.0,,5ee91ec1ef56832aa7947169,21:18:00,04/04/2024
,"<p style=""font-size:75px;"">...</p>",,ospan,iti,tth09OWEAWezP30Y1vDkr3DPHSy1,html-keyboard-response,158,1085045,0.0-46.0-5.0-1.0-0.0,,,,,,,,,,,,,,,5ee91ec1ef56832aa7947169,21:18:00,04/04/2024
1565.0,,,ospan,symmetry,tth09OWEAWezP30Y1vDkr3DPHSy1,symmetry-judgement-task,159,1087655,0.0-46.0-5.0-1.0-1.0-0.0,,,,,,,,,,1.0,1.0,,,,5ee91ec1ef56832aa7947169,21:18:00,04/04/2024
,"<div style=""font-size: 10rem; color: #0000FF"">S</div>",,ospan,letter,tth09OWEAWezP30Y1vDkr3DPHSy1,html-keyboard-response,160,1088671,0.0-46.0-5.0-1.0-1.0-1.0,,,,,,,,,,,,,,,5ee91ec1ef56832aa7947169,21:18:00,04/04/2024
1593.0,,,ospan,symmetry,tth09OWEAWezP30Y1vDkr3DPHSy1,symmetry-judgement-task,161,1092082,0.0-46.0-5.0-1.0-1.0-2.0,,,,,,,,,,1.0,1.0,,,,5ee91ec1ef56832aa7947169,21:18:00,04/04/2024
,"<div style=""font-size: 10rem; color: #0000FF"">N</div>",,ospan,letter,tth09OWEAWezP30Y1vDkr3DPHSy1,html-keyboard-response,162,1093084,0.0-46.0-5.0-1.0-1.0-3.0,,,,,,,,,,,,,,,5ee91ec1ef56832aa7947169,21:18:00,04/04/2024
1353.0,,,ospan,symmetry,tth09OWEAWezP30Y1vDkr3DPHSy1,symmetry-judgement-task,163,1096375,0.0-46.0-5.0-1.0-1.0-4.0,,,,,,,,,,1.0,1.0,,,,5ee91ec1ef56832aa7947169,21:18:00,04/04/2024
,"<div style=""font-size: 10rem; color: #0000FF"">P</div>",,ospan,letter,tth09OWEAWezP30Y1vDkr3DPHSy1,html-keyboard-response,164,1097378,0.0-46.0-5.0-1.0-1.0-5.0,,,,,,,,,,,,,,,5ee91ec1ef56832aa7947169,21:18:00,04/04/2024
1401.0,,,ospan,symmetry,tth09OWEAWezP30Y1vDkr3DPHSy1,symmetry-judgement-task,165,1100716,0.0-46.0-5.0-1.0-1.0-6.0,,,,,,,,,,1.0,1.0,,,,5ee91ec1ef56832aa7947169,21:18:00,04/04/2024
,"<div style=""font-size: 10rem; color: #0000FF"">Y</div>",,ospan,letter,tth09OWEAWezP30Y1vDkr3DPHSy1,html-keyboard-response,166,1101719,0.0-46.0-5.0-1.0-1.0-7.0,,,,,,,,,,,,,,,5ee91ec1ef56832aa7947169,21:18:00,04/04/2024
1832.0,,,ospan,symmetry,tth09OWEAWezP30Y1vDkr3DPHSy1,symmetry-judgement-task,167,1105496,0.0-46.0-5.0-1.0-1.0-8.0,,,,,,,,,,1.0,1.0,,,,5ee91ec1ef56832aa7947169,21:18:00,04/04/2024
,"<div style=""font-size: 10rem; color: #0000FF"">C</div>",,ospan,letter,tth09OWEAWezP30Y1vDkr3DPHSy1,html-keyboard-response,168,1106513,0.0-46.0-5.0-1.0-1.0-9.0,,,,,,,,,,,,,,,5ee91ec1ef56832aa7947169,21:18:00,04/04/2024
2070.0,,,ospan,symmetry,tth09OWEAWezP30Y1vDkr3DPHSy1,symmetry-judgement-task,169,1110510,0.0-46.0-5.0-1.0-1.0-10.0,,,,,,,,,,1.0,1.0,,,,5ee91ec1ef56832aa7947169,21:18:00,04/04/2024
,"<div style=""font-size: 10rem; color: #0000FF"">R</div>",,ospan,letter,tth09OWEAWezP30Y1vDkr3DPHSy1,html-keyboard-response,170,1111512,0.0-46.0-5.0-1.0-1.0-11.0,,,,,,,,,,,,,,,5ee91ec1ef56832aa7947169,21:18:00,04/04/2024
1492.0,,,ospan,symmetry,tth09OWEAWezP30Y1vDkr3DPHSy1,symmetry-judgement-task,171,1114937,0.0-46.0-5.0-1.0-1.0-12.0,,,,,,,,,,1.0,1.0,,,,5ee91ec1ef56832aa7947169,21:18:00,04/04/2024
,"<div style=""font-size: 10rem; color: #0000FF"">L</div>",,ospan,letter,tth09OWEAWezP30Y1vDkr3DPHSy1,html-keyboard-response,172,1115939,0.0-46.0-5.0-1.0-1.0-13.0,,,,,,,,,,,,,,,5ee91ec1ef56832aa7947169,21:18:00,04/04/2024
7977.200000000186,"<div class = numbox><p style=""font-size: 2.4rem"">Please recall the letters you saw to the best of your ability. If you do not remember a particular letter, use the SKIP button.<br><b>(When you are ready to lock in your answer, press ENTER)</b></p><button id = button_1 class = ""square num-button"" onclick = ""recordClick(this)""><div class = content><div class = numbers>C</div></div></button><button id = button_2 class = ""square num-button"" onclick = ""recordClick(this)""><div class = content><div class = numbers>G</div></div></button><button id = button_3 class = ""square num-button"" onclick = ""recordClick(this)""><div class = content><div class = numbers>H</div></div></button><button id = button_4 class = ""square num-button"" onclick = ""recordClick(this)""><div class = content><div class = numbers>J</div></div></button><button id = button_5 class = ""square num-button"" onclick = ""recordClick(this)""><div class = content><div class = numbers>K</div></div></button><button id = button_6 class = ""square num-button"" onclick = ""recordClick(this)""><div class = content><div class = numbers>L</div></div></button><button id = button_7 class = ""square num-button"" onclick = ""recordClick(this)""><div class = content><div class = numbers>N</div></div></button><button id = button_8 class = ""square num-button"" onclick = ""recordClick(this)""><div class = content><div class = numbers>P</div></div></button><button id = button_9 class = ""square num-button"" onclick = ""recordClick(this)""><div class = content><div class = numbers>Q</div></div></button><button id = button_10 class = ""square num-button"" onclick = ""recordClick(this)""><div class = content><div class = numbers>R</div></div></button><button id = button_11 class = ""square num-button"" onclick = ""recordClick(this)""><div class = content><div class = numbers>S</div></div></button><button id = button_12 class = ""square num-button"" onclick = ""recordClick(this)""><div class = content><div class = numbers>Y</div></div></button><button class = clear_button id = ""ClearButton"" onclick = ""clearResponse()"">BACKSPACE</button><button class = blank_button id = ""BlankButton"" onclick = ""blankResponse()"">SKIP</button><p style=""font-size: 2.4rem""><u><b>Current Answer:</b></u></p><br><br><div id=echoed_txt style=""font-size: 5rem; color:blue;""><b></b></div></div>",enter,ospan,retrieval,tth09OWEAWezP30Y1vDkr3DPHSy1,html-keyboard-response,173,1124681,0.0-46.0-5.0-1.0-2.0,28,28,28,7.0,"[""S"",""N"",""P"",""Y"",""C"",""R"",""L""]","[""S"",""N"",""P"",""Y"",""C"",""R"",""L""]",1.0,7.0,,,,,,,5ee91ec1ef56832aa7947169,21:18:00,04/04/2024
893.8999999999069,[''],0,ospan,feedback,tth09OWEAWezP30Y1vDkr3DPHSy1,html-button-response,174,1126087,0.0-46.0-5.0-1.0-3.0,,,,,,,,,,,,100.0,0.0,,5ee91ec1ef56832aa7947169,21:18:00,04/04/2024
,"<p style=""font-size:75px;"">...</p>",,ospan,iti,tth09OWEAWezP30Y1vDkr3DPHSy1,html-keyboard-response,175,1127100,0.0-46.0-6.0-0.0-0.0,,,,,,,,,,,,,,,5ee91ec1ef56832aa7947169,21:18:00,04/04/2024
1549.0,,,ospan,symmetry,tth09OWEAWezP30Y1vDkr3DPHSy1,symmetry-judgement-task,176,1129819,0.0-46.0-6.0-0.0-1.0-0.0,,,,,,,,,,1.0,1.0,,,,5ee91ec1ef56832aa7947169,21:18:00,04/04/2024
,"<div style=""font-size: 10rem; color: #0000FF"">S</div>",,ospan,letter,tth09OWEAWezP30Y1vDkr3DPHSy1,html-keyboard-response,177,1130835,0.0-46.0-6.0-0.0-1.0-1.0,,,,,,,,,,,,,,,5ee91ec1ef56832aa7947169,21:18:00,04/04/2024
1069.0,,,ospan,symmetry,tth09OWEAWezP30Y1vDkr3DPHSy1,symmetry-judgement-task,178,1133810,0.0-46.0-6.0-0.0-1.0-2.0,,,,,,,,,,1.0,1.0,,,,5ee91ec1ef56832aa7947169,21:18:00,04/04/2024
,"<div style=""font-size: 10rem; color: #0000FF"">L</div>",,ospan,letter,tth09OWEAWezP30Y1vDkr3DPHSy1,html-keyboard-response,179,1134826,0.0-46.0-6.0-0.0-1.0-3.0,,,,,,,,,,,,,,,5ee91ec1ef56832aa7947169,21:18:00,04/04/2024
1181.0,,,ospan,symmetry,tth09OWEAWezP30Y1vDkr3DPHSy1,symmetry-judgement-task,180,1137931,0.0-46.0-6.0-0.0-1.0-4.0,,,,,,,,,,1.0,1.0,,,,5ee91ec1ef56832aa7947169,21:18:00,04/04/2024
,"<div style=""font-size: 10rem; color: #0000FF"">Q</div>",,ospan,letter,tth09OWEAWezP30Y1vDkr3DPHSy1,html-keyboard-response,181,1138934,0.0-46.0-6.0-0.0-1.0-5.0,,,,,,,,,,,,,,,5ee91ec1ef56832aa7947169,21:18:00,04/04/2024
1133.0,,,ospan,symmetry,tth09OWEAWezP30Y1vDkr3DPHSy1,symmetry-judgement-task,182,1141972,0.0-46.0-6.0-0.0-1.0-6.0,,,,,,,,,,1.0,1.0,,,,5ee91ec1ef56832aa7947169,21:18:00,04/04/2024
,"<div style=""font-size: 10rem; color: #0000FF"">H</div>",,ospan,letter,tth09OWEAWezP30Y1vDkr3DPHSy1,html-keyboard-response,183,1142979,0.0-46.0-6.0-0.0-1.0-7.0,,,,,,,,,,,,,,,5ee91ec1ef56832aa7947169,21:18:00,04/04/2024
2094.0,,,ospan,symmetry,tth09OWEAWezP30Y1vDkr3DPHSy1,symmetry-judgement-task,184,1147000,0.0-46.0-6.0-0.0-1.0-8.0,,,,,,,,,,1.0,1.0,,,,5ee91ec1ef56832aa7947169,21:18:00,04/04/2024
,"<div style=""font-size: 10rem; color: #0000FF"">R</div>",,ospan,letter,tth09OWEAWezP30Y1vDkr3DPHSy1,html-keyboard-response,185,1148018,0.0-46.0-6.0-0.0-1.0-9.0,,,,,,,,,,,,,,,5ee91ec1ef56832aa7947169,21:18:00,04/04/2024
6937.899999999907,"<div class = numbox><p style=""font-size: 2.4rem"">Please recall the letters you saw to the best of your ability. If you do not remember a particular letter, use the SKIP button.<br><b>(When you are ready to lock in your answer, press ENTER)</b></p><button id = button_1 class = ""square num-button"" onclick = ""recordClick(this)""><div class = content><div class = numbers>C</div></div></button><button id = button_2 class = ""square num-button"" onclick = ""recordClick(this)""><div class = content><div class = numbers>G</div></div></button><button id = button_3 class = ""square num-button"" onclick = ""recordClick(this)""><div class = content><div class = numbers>H</div></div></button><button id = button_4 class = ""square num-button"" onclick = ""recordClick(this)""><div class = content><div class = numbers>J</div></div></button><button id = button_5 class = ""square num-button"" onclick = ""recordClick(this)""><div class = content><div class = numbers>K</div></div></button><button id = button_6 class = ""square num-button"" onclick = ""recordClick(this)""><div class = content><div class = numbers>L</div></div></button><button id = button_7 class = ""square num-button"" onclick = ""recordClick(this)""><div class = content><div class = numbers>N</div></div></button><button id = button_8 class = ""square num-button"" onclick = ""recordClick(this)""><div class = content><div class = numbers>P</div></div></button><button id = button_9 class = ""square num-button"" onclick = ""recordClick(this)""><div class = content><div class = numbers>Q</div></div></button><button id = button_10 class = ""square num-button"" onclick = ""recordClick(this)""><div class = content><div class = numbers>R</div></div></button><button id = button_11 class = ""square num-button"" onclick = ""recordClick(this)""><div class = content><div class = numbers>S</div></div></button><button id = button_12 class = ""square num-button"" onclick = ""recordClick(this)""><div class = content><div class = numbers>Y</div></div></button><button class = clear_button id = ""ClearButton"" onclick = ""clearResponse()"">BACKSPACE</button><button class = blank_button id = ""BlankButton"" onclick = ""blankResponse()"">SKIP</button><p style=""font-size: 2.4rem""><u><b>Current Answer:</b></u></p><br><br><div id=echoed_txt style=""font-size: 5rem; color:blue;""><b></b></div></div>",enter,ospan,retrieval,tth09OWEAWezP30Y1vDkr3DPHSy1,html-keyboard-response,186,1155711,0.0-46.0-6.0-0.0-2.0,33,33,33,5.0,"[""S"",""L"",""Q"",""H"",""R""]","[""S"",""L"",""Q"",""H"",""R""]",1.0,5.0,,,,,,,5ee91ec1ef56832aa7947169,21:18:00,04/04/2024
882.8999999999069,[''],0,ospan,feedback,tth09OWEAWezP30Y1vDkr3DPHSy1,html-button-response,187,1157108,0.0-46.0-6.0-0.0-3.0,,,,,,,,,,,,100.0,0.0,,5ee91ec1ef56832aa7947169,21:18:00,04/04/2024
,"<p style=""font-size:75px;"">...</p>",,ospan,iti,tth09OWEAWezP30Y1vDkr3DPHSy1,html-keyboard-response,188,1158111,0.0-46.0-6.0-1.0-0.0,,,,,,,,,,,,,,,5ee91ec1ef56832aa7947169,21:18:00,04/04/2024
1820.0,,,ospan,symmetry,tth09OWEAWezP30Y1vDkr3DPHSy1,symmetry-judgement-task,189,1161100,0.0-46.0-6.0-1.0-1.0-0.0,,,,,,,,,,1.0,1.0,,,,5ee91ec1ef56832aa7947169,21:18:00,04/04/2024
,"<div style=""font-size: 10rem; color: #0000FF"">L</div>",,ospan,letter,tth09OWEAWezP30Y1vDkr3DPHSy1,html-keyboard-response,190,1162116,0.0-46.0-6.0-1.0-1.0-1.0,,,,,,,,,,,,,,,5ee91ec1ef56832aa7947169,21:18:00,04/04/2024
1343.0,,,ospan,symmetry,tth09OWEAWezP30Y1vDkr3DPHSy1,symmetry-judgement-task,191,1165385,0.0-46.0-6.0-1.0-1.0-2.0,,,,,,,,,,1.0,1.0,,,,5ee91ec1ef56832aa7947169,21:18:00,04/04/2024
,"<div style=""font-size: 10rem; color: #0000FF"">N</div>",,ospan,letter,tth09OWEAWezP30Y1vDkr3DPHSy1,html-keyboard-response,192,1166389,0.0-46.0-6.0-1.0-1.0-3.0,,,,,,,,,,,,,,,5ee91ec1ef56832aa7947169,21:18:00,04/04/2024
2320.0,,,ospan,symmetry,tth09OWEAWezP30Y1vDkr3DPHSy1,symmetry-judgement-task,193,1170643,0.0-46.0-6.0-1.0-1.0-4.0,,,,,,,,,,1.0,1.0,,,,5ee91ec1ef56832aa7947169,21:18:00,04/04/2024
,"<div style=""font-size: 10rem; color: #0000FF"">P</div>",,ospan,letter,tth09OWEAWezP30Y1vDkr3DPHSy1,html-keyboard-response,194,1171656,0.0-46.0-6.0-1.0-1.0-5.0,,,,,,,,,,,,,,,5ee91ec1ef56832aa7947169,21:18:00,04/04/2024
1665.0,,,ospan,symmetry,tth09OWEAWezP30Y1vDkr3DPHSy1,symmetry-judgement-task,195,1175253,0.0-46.0-6.0-1.0-1.0-6.0,,,,,,,,,,1.0,1.0,,,,5ee91ec1ef56832aa7947169,21:18:00,04/04/2024
,"<div style=""font-size: 10rem; color: #0000FF"">K</div>",,ospan,letter,tth09OWEAWezP30Y1vDkr3DPHSy1,html-keyboard-response,196,1176255,0.0-46.0-6.0-1.0-1.0-7.0,,,,,,,,,,,,,,,5ee91ec1ef56832aa7947169,21:18:00,04/04/2024
1672.0,,,ospan,symmetry,tth09OWEAWezP30Y1vDkr3DPHSy1,symmetry-judgement-task,197,1179835,0.0-46.0-6.0-1.0-1.0-8.0,,,,,,,,,,1.0,1.0,,,,5ee91ec1ef56832aa7947169,21:18:00,04/04/2024
,"<div style=""font-size: 10rem; color: #0000FF"">S</div>",,ospan,letter,tth09OWEAWezP30Y1vDkr3DPHSy1,html-keyboard-response,198,1180837,0.0-46.0-6.0-1.0-1.0-9.0,,,,,,,,,,,,,,,5ee91ec1ef56832aa7947169,21:18:00,04/04/2024
1423.0,,,ospan,symmetry,tth09OWEAWezP30Y1vDkr3DPHSy1,symmetry-judgement-task,199,1184218,0.0-46.0-6.0-1.0-1.0-10.0,,,,,,,,,,1.0,1.0,,,,5ee91ec1ef56832aa7947169,21:18:00,04/04/2024
,"<div style=""font-size: 10rem; color: #0000FF"">R</div>",,ospan,letter,tth09OWEAWezP30Y1vDkr3DPHSy1,html-keyboard-response,200,1185221,0.0-46.0-6.0-1.0-1.0-11.0,,,,,,,,,,,,,,,5ee91ec1ef56832aa7947169,21:18:00,04/04/2024
1849.0,,,ospan,symmetry,tth09OWEAWezP30Y1vDkr3DPHSy1,symmetry-judgement-task,201,1189027,0.0-46.0-6.0-1.0-1.0-12.0,,,,,,,,,,1.0,1.0,,,,5ee91ec1ef56832aa7947169,21:18:00,04/04/2024
,"<div style=""font-size: 10rem; color: #0000FF"">G</div>",,ospan,letter,tth09OWEAWezP30Y1vDkr3DPHSy1,html-keyboard-response,202,1190030,0.0-46.0-6.0-1.0-1.0-13.0,,,,,,,,,,,,,,,5ee91ec1ef56832aa7947169,21:18:00,04/04/2024
1580.0,,,ospan,symmetry,tth09OWEAWezP30Y1vDkr3DPHSy1,symmetry-judgement-task,203,1193538,0.0-46.0-6.0-1.0-1.0-14.0,,,,,,,,,,1.0,1.0,,,,5ee91ec1ef56832aa7947169,21:18:00,04/04/2024
,"<div style=""font-size: 10rem; color: #0000FF"">Q</div>",,ospan,letter,tth09OWEAWezP30Y1vDkr3DPHSy1,html-keyboard-response,204,1194540,0.0-46.0-6.0-1.0-1.0-15.0,,,,,,,,,,,,,,,5ee91ec1ef56832aa7947169,21:18:00,04/04/2024
16597.100000000093,"<div class = numbox><p style=""font-size: 2.4rem"">Please recall the letters you saw to the best of your ability. If you do not remember a particular letter, use the SKIP button.<br><b>(When you are ready to lock in your answer, press ENTER)</b></p><button id = button_1 class = ""square num-button"" onclick = ""recordClick(this)""><div class = content><div class = numbers>C</div></div></button><button id = button_2 class = ""square num-button"" onclick = ""recordClick(this)""><div class = content><div class = numbers>G</div></div></button><button id = button_3 class = ""square num-button"" onclick = ""recordClick(this)""><div class = content><div class = numbers>H</div></div></button><button id = button_4 class = ""square num-button"" onclick = ""recordClick(this)""><div class = content><div class = numbers>J</div></div></button><button id = button_5 class = ""square num-button"" onclick = ""recordClick(this)""><div class = content><div class = numbers>K</div></div></button><button id = button_6 class = ""square num-button"" onclick = ""recordClick(this)""><div class = content><div class = numbers>L</div></div></button><button id = button_7 class = ""square num-button"" onclick = ""recordClick(this)""><div class = content><div class = numbers>N</div></div></button><button id = button_8 class = ""square num-button"" onclick = ""recordClick(this)""><div class = content><div class = numbers>P</div></div></button><button id = button_9 class = ""square num-button"" onclick = ""recordClick(this)""><div class = content><div class = numbers>Q</div></div></button><button id = button_10 class = ""square num-button"" onclick = ""recordClick(this)""><div class = content><div class = numbers>R</div></div></button><button id = button_11 class = ""square num-button"" onclick = ""recordClick(this)""><div class = content><div class = numbers>S</div></div></button><button id = button_12 class = ""square num-button"" onclick = ""recordClick(this)""><div class = content><div class = numbers>Y</div></div></button><button class = clear_button id = ""ClearButton"" onclick = ""clearResponse()"">BACKSPACE</button><button class = blank_button id = ""BlankButton"" onclick = ""blankResponse()"">SKIP</button><p style=""font-size: 2.4rem""><u><b>Current Answer:</b></u></p><br><br><div id=echoed_txt style=""font-size: 5rem; color:blue;""><b></b></div></div>",enter,ospan,retrieval,tth09OWEAWezP30Y1vDkr3DPHSy1,html-keyboard-response,205,1211898,0.0-46.0-6.0-1.0-2.0,41,39,33,8.0,"[""L"",""N"",""P"",""R"",""S"",""N"",""G"",""Q""]","[""L"",""N"",""P"",""K"",""S"",""R"",""G"",""Q""]",0.0,6.0,,,,,,,5ee91ec1ef56832aa7947169,21:18:00,04/04/2024
1000.6999999997206,[''],0,ospan,feedback,tth09OWEAWezP30Y1vDkr3DPHSy1,html-button-response,206,1213410,0.0-46.0-6.0-1.0-3.0,,,,,,,,,,,,100.0,0.0,,5ee91ec1ef56832aa7947169,21:18:00,04/04/2024
23484.100000000093,,"{'Q0': ""Different experiment to what I've done before. I enjoyed the symmetrical pictures.""}",ospan,survey_ospan,tth09OWEAWezP30Y1vDkr3DPHSy1,lmdlab-survey-text,207,1237652,0.0-46.0-7.0,,,,,,,,,,,,,,tth09OWEAWezP30Y1vDkr3DPHSy1,5ee91ec1ef56832aa7947169,21:18:00,04/04/2024
1389.8999999999069,<p><p style='font-size: 3rem'>Great work!<br><br>This completes the symmetry and memory task.</p><br><br><br>,0,ospan,finish,tth09OWEAWezP30Y1vDkr3DPHSy1,html-button-response,208,1239047,0.0-46.0-8.0,41,39,33,,,,,,,,,100.0,,,5ee91ec1ef56832aa7947169,21:18:00,04/04/2024
