rt,stimulus,response,exp_name,exp_stage,subjectID,trial_type,trial_index,time_elapsed,internal_node_id,ospan_shown,ospan_total,ospan_abs,length,resp_actual,resp_correct,full_correct,num_correct,feedback,accuracy,correct,math_acc,math_warning,databaseID,prolificID,start_time,date
2786.699999809265,<div class = 'left_align' style='font-size: 3.25rem; line-height: 1.3;'><p class = 'center_align'><b>Welcome to the Symmetry and Memory Task</b><br><br><br><br></p>Press 'continue' to show the instructions.<br><br><br><br></div>,0,ospan,instruct,8fBy4YUH1hQ0TSDIO6OoAy1s1ob2,html-button-response,54,567046,0.0-46.0-0.0-0.0-0.0,,,,,,,,,,,,,,,5ffaff9cd071dd4e7ce5e31a,08:49:51,03/04/2024
11101.0,"<div class = 'left_align' style='font-size: 3.25rem; line-height: 1.3;'><p class = 'center_align'><b>Symmetry and Memory Task</b><br><br></p>In this task, you will try to memorize letters you see on the screen<br>while you also view black and white grid pictures.<br><br>In the next few minutes, you will have some practice to get you familiar<br>with how the task works.<br><br>It may be difficult sometimes, but please do not worry about making mistakes!<br><br>We will begin by practicing the letter part of the task.<br><br><br><br></div>",0,ospan,instruct,8fBy4YUH1hQ0TSDIO6OoAy1s1ob2,html-button-response,55,578402,0.0-46.0-0.0-0.0-1.0,,,,,,,,,,,,,,,5ffaff9cd071dd4e7ce5e31a,08:49:51,03/04/2024
12068.400000095367,"<div class = 'left_align' style='font-size: 3.25rem; line-height: 1.3;'>For this practice part, letters will appear on the screen one at a time.<br><br>Try to remember each letter in the order presented.<br><br>After some letters have been shown, you will see a response screen. Your<br>goal is to report the letters you saw <b>in order</b>. If you do not remember<br>a particular letter, you will have the option to leave it blank.<br><br><br><br></div>",0,ospan,instruct,8fBy4YUH1hQ0TSDIO6OoAy1s1ob2,html-button-response,56,590736,0.0-46.0-0.0-0.0-2.0,,,,,,,,,,,,,,,5ffaff9cd071dd4e7ce5e31a,08:49:51,03/04/2024
5364.900000095367,"<div class = 'left_align' style='font-size: 3.25rem; line-height: 1.3;'>Remember, it is very important to get the letters in the same<br>order as you see them.<br><br>When you are ready, you may begin the letter practice.</div><br><br><br><br>",0,ospan,instruct,8fBy4YUH1hQ0TSDIO6OoAy1s1ob2,html-button-response,57,596365,0.0-46.0-0.0-0.0-3.0,,,,,,,,,,,,,,,5ffaff9cd071dd4e7ce5e31a,08:49:51,03/04/2024
,"<p style=""font-size:75px;"">...</p>",,ospan,iti,8fBy4YUH1hQ0TSDIO6OoAy1s1ob2,html-keyboard-response,58,597630,0.0-46.0-0.0-1.0-0.0,,,,,,,,,,,,,,,5ffaff9cd071dd4e7ce5e31a,08:49:51,03/04/2024
,"<div style=""font-size: 10rem; color: #0000FF"">G</div>",,ospan,letter,8fBy4YUH1hQ0TSDIO6OoAy1s1ob2,html-keyboard-response,59,598638,0.0-46.0-0.0-1.0-1.0,,,,,,,,,,,,,,,5ffaff9cd071dd4e7ce5e31a,08:49:51,03/04/2024
,"<div style=""font-size: 10rem; color: #0000FF"">H</div>",,ospan,letter,8fBy4YUH1hQ0TSDIO6OoAy1s1ob2,html-keyboard-response,60,600410,0.0-46.0-0.0-1.0-2.0,,,,,,,,,,,,,,,5ffaff9cd071dd4e7ce5e31a,08:49:51,03/04/2024
27280.099999904633,"<div class = numbox><p style=""font-size: 2.4rem"">Please recall the letters you saw to the best of your ability. If you do not remember a particular letter, use the SKIP button.<br><b>(When you are ready to lock in your answer, press ENTER)</b></p><button id = button_1 class = ""square num-button"" onclick = ""recordClick(this)""><div class = content><div class = numbers>C</div></div></button><button id = button_2 class = ""square num-button"" onclick = ""recordClick(this)""><div class = content><div class = numbers>G</div></div></button><button id = button_3 class = ""square num-button"" onclick = ""recordClick(this)""><div class = content><div class = numbers>H</div></div></button><button id = button_4 class = ""square num-button"" onclick = ""recordClick(this)""><div class = content><div class = numbers>J</div></div></button><button id = button_5 class = ""square num-button"" onclick = ""recordClick(this)""><div class = content><div class = numbers>K</div></div></button><button id = button_6 class = ""square num-button"" onclick = ""recordClick(this)""><div class = content><div class = numbers>L</div></div></button><button id = button_7 class = ""square num-button"" onclick = ""recordClick(this)""><div class = content><div class = numbers>N</div></div></button><button id = button_8 class = ""square num-button"" onclick = ""recordClick(this)""><div class = content><div class = numbers>P</div></div></button><button id = button_9 class = ""square num-button"" onclick = ""recordClick(this)""><div class = content><div class = numbers>Q</div></div></button><button id = button_10 class = ""square num-button"" onclick = ""recordClick(this)""><div class = content><div class = numbers>R</div></div></button><button id = button_11 class = ""square num-button"" onclick = ""recordClick(this)""><div class = content><div class = numbers>S</div></div></button><button id = button_12 class = ""square num-button"" onclick = ""recordClick(this)""><div class = content><div class = numbers>Y</div></div></button><button class = clear_button id = ""ClearButton"" onclick = ""clearResponse()"">BACKSPACE</button><button class = blank_button id = ""BlankButton"" onclick = ""blankResponse()"">SKIP</button><p style=""font-size: 2.4rem""><u><b>Current Answer:</b></u></p><br><br><div id=echoed_txt style=""font-size: 5rem; color:blue;""><b></b></div></div>",enter,ospan,retrieval,8fBy4YUH1hQ0TSDIO6OoAy1s1ob2,html-keyboard-response,61,628449,0.0-46.0-0.0-1.0-3.0,NA,NA,NA,2.0,"[""G"",""H""]","[""G"",""H""]",1.0,2.0,"['<font color=""green"">G</font>', '<font color=""green"">H</font>']",,,,,,5ffaff9cd071dd4e7ce5e31a,08:49:51,03/04/2024
2818.4000000953674,"['<p style=""font-size:44px"">Letters:<br><br><br><font color=""green"">G</font> <font color=""green"">H</font></p><br><br>']",0,ospan,practice_feedback,8fBy4YUH1hQ0TSDIO6OoAy1s1ob2,html-button-response,62,631776,0.0-46.0-0.0-1.0-4.0,,,,,,,,,,,,,,,5ffaff9cd071dd4e7ce5e31a,08:49:51,03/04/2024
,"<p style=""font-size:75px;"">...</p>",,ospan,iti,8fBy4YUH1hQ0TSDIO6OoAy1s1ob2,html-keyboard-response,63,632794,0.0-46.0-0.0-2.0-0.0,,,,,,,,,,,,,,,5ffaff9cd071dd4e7ce5e31a,08:49:51,03/04/2024
,"<div style=""font-size: 10rem; color: #0000FF"">Q</div>",,ospan,letter,8fBy4YUH1hQ0TSDIO6OoAy1s1ob2,html-keyboard-response,64,633816,0.0-46.0-0.0-2.0-1.0,,,,,,,,,,,,,,,5ffaff9cd071dd4e7ce5e31a,08:49:51,03/04/2024
,"<div style=""font-size: 10rem; color: #0000FF"">H</div>",,ospan,letter,8fBy4YUH1hQ0TSDIO6OoAy1s1ob2,html-keyboard-response,65,635572,0.0-46.0-0.0-2.0-2.0,,,,,,,,,,,,,,,5ffaff9cd071dd4e7ce5e31a,08:49:51,03/04/2024
,"<div style=""font-size: 10rem; color: #0000FF"">P</div>",,ospan,letter,8fBy4YUH1hQ0TSDIO6OoAy1s1ob2,html-keyboard-response,66,637353,0.0-46.0-0.0-2.0-3.0,,,,,,,,,,,,,,,5ffaff9cd071dd4e7ce5e31a,08:49:51,03/04/2024
7109.800000190735,"<div class = numbox><p style=""font-size: 2.4rem"">Please recall the letters you saw to the best of your ability. If you do not remember a particular letter, use the SKIP button.<br><b>(When you are ready to lock in your answer, press ENTER)</b></p><button id = button_1 class = ""square num-button"" onclick = ""recordClick(this)""><div class = content><div class = numbers>C</div></div></button><button id = button_2 class = ""square num-button"" onclick = ""recordClick(this)""><div class = content><div class = numbers>G</div></div></button><button id = button_3 class = ""square num-button"" onclick = ""recordClick(this)""><div class = content><div class = numbers>H</div></div></button><button id = button_4 class = ""square num-button"" onclick = ""recordClick(this)""><div class = content><div class = numbers>J</div></div></button><button id = button_5 class = ""square num-button"" onclick = ""recordClick(this)""><div class = content><div class = numbers>K</div></div></button><button id = button_6 class = ""square num-button"" onclick = ""recordClick(this)""><div class = content><div class = numbers>L</div></div></button><button id = button_7 class = ""square num-button"" onclick = ""recordClick(this)""><div class = content><div class = numbers>N</div></div></button><button id = button_8 class = ""square num-button"" onclick = ""recordClick(this)""><div class = content><div class = numbers>P</div></div></button><button id = button_9 class = ""square num-button"" onclick = ""recordClick(this)""><div class = content><div class = numbers>Q</div></div></button><button id = button_10 class = ""square num-button"" onclick = ""recordClick(this)""><div class = content><div class = numbers>R</div></div></button><button id = button_11 class = ""square num-button"" onclick = ""recordClick(this)""><div class = content><div class = numbers>S</div></div></button><button id = button_12 class = ""square num-button"" onclick = ""recordClick(this)""><div class = content><div class = numbers>Y</div></div></button><button class = clear_button id = ""ClearButton"" onclick = ""clearResponse()"">BACKSPACE</button><button class = blank_button id = ""BlankButton"" onclick = ""blankResponse()"">SKIP</button><p style=""font-size: 2.4rem""><u><b>Current Answer:</b></u></p><br><br><div id=echoed_txt style=""font-size: 5rem; color:blue;""><b></b></div></div>",enter,ospan,retrieval,8fBy4YUH1hQ0TSDIO6OoAy1s1ob2,html-keyboard-response,67,645249,0.0-46.0-0.0-2.0-4.0,NA,NA,NA,3.0,"[""Q"",""H"",""P""]","[""Q"",""H"",""P""]",1.0,3.0,"['<font color=""green"">Q</font>', '<font color=""green"">H</font>', '<font color=""green"">P</font>']",,,,,,5ffaff9cd071dd4e7ce5e31a,08:49:51,03/04/2024
1939.8000001907349,"['<p style=""font-size:44px"">Letters:<br><br><br><font color=""green"">Q</font> <font color=""green"">H</font> <font color=""green"">P</font></p><br><br>']",0,ospan,practice_feedback,8fBy4YUH1hQ0TSDIO6OoAy1s1ob2,html-button-response,68,647705,0.0-46.0-0.0-2.0-5.0,,,,,,,,,,,,,,,5ffaff9cd071dd4e7ce5e31a,08:49:51,03/04/2024
22629.5,"<div class = 'left_align' style='font-size: 3.25rem; line-height: 1.3;'>Now you will practice doing the <b>symmetry judgment part</b> of the experiment.<br><br>A black and white grid picture will appear on the screen and you have to judge if it is <br>symmetrical or asymetrical.<br><br>A picture is 'mirror' symmetrical if its left half is identical to the right half when flipped.<br>Here are examples of a symmetrical and an asymetrical picture:<br><br><center><img src='Stimuli/img/symm_instructions_extra.png' style='height:420px; width:900'></img></center><br>To judge symmetry, imagine you were to fold each picture down the middle, like a book –<br>would the left half match the right half when folded onto each other?<br><br></div><br>",0,ospan,instruct,8fBy4YUH1hQ0TSDIO6OoAy1s1ob2,html-button-response,69,670360,0.0-46.0-1.0-0.0-0.0,,,,,,,,,,,,,,,5ffaff9cd071dd4e7ce5e31a,08:49:51,03/04/2024
7874.700000286102,"<div class = 'left_align' style='font-size: 3.25rem; line-height: 1.3;'>When you have viewed the picture and determined whether it is symmetrical or not,<br>you can <b>click the Yes or No button</b> below to answer.<br><br>If you take longer than 15 seconds, it will continue automatically<br>and record the answer as an error.</div><br>",0,ospan,instruct,8fBy4YUH1hQ0TSDIO6OoAy1s1ob2,html-button-response,70,678496,0.0-46.0-1.0-0.0-1.0,,,,,,,,,,,,,,,5ffaff9cd071dd4e7ce5e31a,08:49:51,03/04/2024
5823.0,"<div class = 'left_align' style='font-size: 3.25rem; line-height: 1.3;'>It is <b>very</b> important that you make the symmetry judgment correctly.<br><br>It is also important that you try and judge the picture as quickly as you can.<br><br>When you are ready, click on the button below to try some practice problems.</div><br><br><br><br>",0,ospan,instruct,8fBy4YUH1hQ0TSDIO6OoAy1s1ob2,html-button-response,71,684584,0.0-46.0-1.0-0.0-2.0,,,,,,,,,,,,,,,5ffaff9cd071dd4e7ce5e31a,08:49:51,03/04/2024
3882.0,,,ospan,symmetry,8fBy4YUH1hQ0TSDIO6OoAy1s1ob2,symmetry-judgement-task,72,689287,0.0-46.0-1.0-1.0-0.0,,,,,,,,,,1.0,1.0,,,,5ffaff9cd071dd4e7ce5e31a,08:49:51,03/04/2024
,"<p style=""color:green; font-size: 35px"">Correct</p>",,ospan,feedback,8fBy4YUH1hQ0TSDIO6OoAy1s1ob2,html-keyboard-response,73,690061,0.0-46.0-1.0-1.0-1.0,,,,,,,,,,,,,,,5ffaff9cd071dd4e7ce5e31a,08:49:51,03/04/2024
3070.0,,,ospan,symmetry,8fBy4YUH1hQ0TSDIO6OoAy1s1ob2,symmetry-judgement-task,74,695743,0.0-46.0-1.0-1.0-2.0,,,,,,,,,,1.0,1.0,,,,5ffaff9cd071dd4e7ce5e31a,08:49:51,03/04/2024
,"<p style=""color:green; font-size: 35px"">Correct</p>",,ospan,feedback,8fBy4YUH1hQ0TSDIO6OoAy1s1ob2,html-keyboard-response,75,696510,0.0-46.0-1.0-1.0-3.0,,,,,,,,,,,,,,,5ffaff9cd071dd4e7ce5e31a,08:49:51,03/04/2024
2118.0,,,ospan,symmetry,8fBy4YUH1hQ0TSDIO6OoAy1s1ob2,symmetry-judgement-task,76,701481,0.0-46.0-1.0-1.0-4.0,,,,,,,,,,1.0,1.0,,,,5ffaff9cd071dd4e7ce5e31a,08:49:51,03/04/2024
,"<p style=""color:green; font-size: 35px"">Correct</p>",,ospan,feedback,8fBy4YUH1hQ0TSDIO6OoAy1s1ob2,html-keyboard-response,77,702234,0.0-46.0-1.0-1.0-5.0,,,,,,,,,,,,,,,5ffaff9cd071dd4e7ce5e31a,08:49:51,03/04/2024
2039.2999997138977,"<p style=""font-size: 3rem;"">You responded correctly on 3 of 3 symmetry judgments. Good job!</p><br><br>",0,ospan,practice,8fBy4YUH1hQ0TSDIO6OoAy1s1ob2,html-button-response,78,706284,0.0-46.0-1.0-2.0,,,,,,,,,,,,,,,5ffaff9cd071dd4e7ce5e31a,08:49:51,03/04/2024
11044.5,"<div class = 'left_align' style='font-size: 3.25rem; line-height: 1.3;'>Now you will practice doing both parts of the experiment at the same time.<br><br>In the next practice set, you will be given one grid picture to judge.<br>Then letter will appear on the screen. Try to remember the letter.<br><br>It is <b>very important</b> to make the symmetry judgment as quickly and accurately as possible.<br><br>Just as before, once you have make the symmetry judgment, you can click Yes or No.<br><b>Note that you will no longer see Correct or Incorrect feedback.</div><br><br><br><br>",0,ospan,instruct,8fBy4YUH1hQ0TSDIO6OoAy1s1ob2,html-button-response,79,717586,0.0-46.0-2.0-0.0-0.0,,,,,,,,,,,,,,,5ffaff9cd071dd4e7ce5e31a,08:49:51,03/04/2024
6568.099999904633,"<div class = 'left_align' style='font-size: 3.25rem; line-height: 1.3;'>After the letter goes away, another grid picture will appear, and then<br>another letter.<br><br>At the end of each set of letters and grids, you will recall the letters to the best<br>of your ability. Remember, try your best to get the letters in the correct order.<br><br>It is important to <b>quickly</b> and <b>accurately</b> make the symmetry judgments.</div><br><br><br><br>",0,ospan,instruct,8fBy4YUH1hQ0TSDIO6OoAy1s1ob2,html-button-response,80,724414,0.0-46.0-2.0-0.0-1.0,,,,,,,,,,,,,,,5ffaff9cd071dd4e7ce5e31a,08:49:51,03/04/2024
13166.300000190735,"<div class = 'left_align' style='font-size: 3.25rem; line-height: 1.3;'>On the feedback screen, if you are not doing well at the symmetry judgments,<br>you will also see a warning in the middle. This indicates your percent <br>correct for the grid pictures for the entire experiment.<br><br>It is <b>very</b> important for you to keep accuracy at least at 85%: <u>We can only use<br>data where the participant was at least 85% accurate on the judgments.</u> Therefore,<br> please try your best to perform well on the symmetry judgments, <b>at the same time</b><br>doing your best to recall as many letters as possible.<br><br>Click the button to try some practice problems.</div><br><br><br><br>",0,ospan,instruct,8fBy4YUH1hQ0TSDIO6OoAy1s1ob2,html-button-response,81,737846,0.0-46.0-2.0-0.0-2.0,,,,,,,,,,,,,,,5ffaff9cd071dd4e7ce5e31a,08:49:51,03/04/2024
,"<p style=""font-size:75px;"">...</p>",,ospan,iti,8fBy4YUH1hQ0TSDIO6OoAy1s1ob2,html-keyboard-response,82,739115,0.0-46.0-2.0-1.0-0.0,,,,,,,,,,,,,,,5ffaff9cd071dd4e7ce5e31a,08:49:51,03/04/2024
4227.0,,,ospan,symmetry,8fBy4YUH1hQ0TSDIO6OoAy1s1ob2,symmetry-judgement-task,83,744575,0.0-46.0-2.0-1.0-1.0-0.0,,,,,,,,,,1.0,1.0,,,,5ffaff9cd071dd4e7ce5e31a,08:49:51,03/04/2024
,"<div style=""font-size: 10rem; color: #0000FF"">K</div>",,ospan,letter,8fBy4YUH1hQ0TSDIO6OoAy1s1ob2,html-keyboard-response,84,745598,0.0-46.0-2.0-1.0-1.0-1.0,,,,,,,,,,,,,,,5ffaff9cd071dd4e7ce5e31a,08:49:51,03/04/2024
2115.0,,,ospan,symmetry,8fBy4YUH1hQ0TSDIO6OoAy1s1ob2,symmetry-judgement-task,85,749710,0.0-46.0-2.0-1.0-1.0-2.0,,,,,,,,,,1.0,1.0,,,,5ffaff9cd071dd4e7ce5e31a,08:49:51,03/04/2024
,"<div style=""font-size: 10rem; color: #0000FF"">J</div>",,ospan,letter,8fBy4YUH1hQ0TSDIO6OoAy1s1ob2,html-keyboard-response,86,750713,0.0-46.0-2.0-1.0-1.0-3.0,,,,,,,,,,,,,,,5ffaff9cd071dd4e7ce5e31a,08:49:51,03/04/2024
2773.0,,,ospan,symmetry,8fBy4YUH1hQ0TSDIO6OoAy1s1ob2,symmetry-judgement-task,87,755552,0.0-46.0-2.0-1.0-1.0-4.0,,,,,,,,,,1.0,1.0,,,,5ffaff9cd071dd4e7ce5e31a,08:49:51,03/04/2024
,"<div style=""font-size: 10rem; color: #0000FF"">L</div>",,ospan,letter,8fBy4YUH1hQ0TSDIO6OoAy1s1ob2,html-keyboard-response,88,756565,0.0-46.0-2.0-1.0-1.0-5.0,,,,,,,,,,,,,,,5ffaff9cd071dd4e7ce5e31a,08:49:51,03/04/2024
6175.300000190735,"<div class = numbox><p style=""font-size: 2.4rem"">Please recall the letters you saw to the best of your ability. If you do not remember a particular letter, use the SKIP button.<br><b>(When you are ready to lock in your answer, press ENTER)</b></p><button id = button_1 class = ""square num-button"" onclick = ""recordClick(this)""><div class = content><div class = numbers>C</div></div></button><button id = button_2 class = ""square num-button"" onclick = ""recordClick(this)""><div class = content><div class = numbers>G</div></div></button><button id = button_3 class = ""square num-button"" onclick = ""recordClick(this)""><div class = content><div class = numbers>H</div></div></button><button id = button_4 class = ""square num-button"" onclick = ""recordClick(this)""><div class = content><div class = numbers>J</div></div></button><button id = button_5 class = ""square num-button"" onclick = ""recordClick(this)""><div class = content><div class = numbers>K</div></div></button><button id = button_6 class = ""square num-button"" onclick = ""recordClick(this)""><div class = content><div class = numbers>L</div></div></button><button id = button_7 class = ""square num-button"" onclick = ""recordClick(this)""><div class = content><div class = numbers>N</div></div></button><button id = button_8 class = ""square num-button"" onclick = ""recordClick(this)""><div class = content><div class = numbers>P</div></div></button><button id = button_9 class = ""square num-button"" onclick = ""recordClick(this)""><div class = content><div class = numbers>Q</div></div></button><button id = button_10 class = ""square num-button"" onclick = ""recordClick(this)""><div class = content><div class = numbers>R</div></div></button><button id = button_11 class = ""square num-button"" onclick = ""recordClick(this)""><div class = content><div class = numbers>S</div></div></button><button id = button_12 class = ""square num-button"" onclick = ""recordClick(this)""><div class = content><div class = numbers>Y</div></div></button><button class = clear_button id = ""ClearButton"" onclick = ""clearResponse()"">BACKSPACE</button><button class = blank_button id = ""BlankButton"" onclick = ""blankResponse()"">SKIP</button><p style=""font-size: 2.4rem""><u><b>Current Answer:</b></u></p><br><br><div id=echoed_txt style=""font-size: 5rem; color:blue;""><b></b></div></div>",enter,ospan,retrieval,8fBy4YUH1hQ0TSDIO6OoAy1s1ob2,html-keyboard-response,89,763499,0.0-46.0-2.0-1.0-2.0-0.0,NA,NA,NA,3.0,"[""K"",""J"",""L""]","[""K"",""J"",""L""]",1.0,3.0,"['<font color=""green"">K</font>', '<font color=""green"">J</font>', '<font color=""green"">L</font>']",,,,,,5ffaff9cd071dd4e7ce5e31a,08:49:51,03/04/2024
2262.0,"['<p style=""font-size:44px"">Letters:<br><br><br><font color=""green"">K</font> <font color=""green"">J</font> <font color=""green"">L</font></p><br><br><p style=""font-size:30px"">Symmetry:<br><br><font color=""green"">100%</font></p><br><br>']",0,ospan,practice_feedback,8fBy4YUH1hQ0TSDIO6OoAy1s1ob2,html-button-response,90,766275,0.0-46.0-2.0-1.0-2.0-1.0,,,,,,,,,,,,,,,5ffaff9cd071dd4e7ce5e31a,08:49:51,03/04/2024
,"<p style=""font-size:75px;"">...</p>",,ospan,iti,8fBy4YUH1hQ0TSDIO6OoAy1s1ob2,html-keyboard-response,91,767300,0.0-46.0-2.0-2.0-0.0,,,,,,,,,,,,,,,5ffaff9cd071dd4e7ce5e31a,08:49:51,03/04/2024
3074.0,,,ospan,symmetry,8fBy4YUH1hQ0TSDIO6OoAy1s1ob2,symmetry-judgement-task,92,771639,0.0-46.0-2.0-2.0-1.0-0.0,,,,,,,,,,1.0,1.0,,,,5ffaff9cd071dd4e7ce5e31a,08:49:51,03/04/2024
,"<div style=""font-size: 10rem; color: #0000FF"">Y</div>",,ospan,letter,8fBy4YUH1hQ0TSDIO6OoAy1s1ob2,html-keyboard-response,93,772657,0.0-46.0-2.0-2.0-1.0-1.0,,,,,,,,,,,,,,,5ffaff9cd071dd4e7ce5e31a,08:49:51,03/04/2024
4020.0,,,ospan,symmetry,8fBy4YUH1hQ0TSDIO6OoAy1s1ob2,symmetry-judgement-task,94,778703,0.0-46.0-2.0-2.0-1.0-2.0,,,,,,,,,,1.0,1.0,,,,5ffaff9cd071dd4e7ce5e31a,08:49:51,03/04/2024
,"<div style=""font-size: 10rem; color: #0000FF"">Q</div>",,ospan,letter,8fBy4YUH1hQ0TSDIO6OoAy1s1ob2,html-keyboard-response,95,779711,0.0-46.0-2.0-2.0-1.0-3.0,,,,,,,,,,,,,,,5ffaff9cd071dd4e7ce5e31a,08:49:51,03/04/2024
2765.0,,,ospan,symmetry,8fBy4YUH1hQ0TSDIO6OoAy1s1ob2,symmetry-judgement-task,96,784511,0.0-46.0-2.0-2.0-1.0-4.0,,,,,,,,,,1.0,1.0,,,,5ffaff9cd071dd4e7ce5e31a,08:49:51,03/04/2024
,"<div style=""font-size: 10rem; color: #0000FF"">P</div>",,ospan,letter,8fBy4YUH1hQ0TSDIO6OoAy1s1ob2,html-keyboard-response,97,785520,0.0-46.0-2.0-2.0-1.0-5.0,,,,,,,,,,,,,,,5ffaff9cd071dd4e7ce5e31a,08:49:51,03/04/2024
5665.900000095367,"<div class = numbox><p style=""font-size: 2.4rem"">Please recall the letters you saw to the best of your ability. If you do not remember a particular letter, use the SKIP button.<br><b>(When you are ready to lock in your answer, press ENTER)</b></p><button id = button_1 class = ""square num-button"" onclick = ""recordClick(this)""><div class = content><div class = numbers>C</div></div></button><button id = button_2 class = ""square num-button"" onclick = ""recordClick(this)""><div class = content><div class = numbers>G</div></div></button><button id = button_3 class = ""square num-button"" onclick = ""recordClick(this)""><div class = content><div class = numbers>H</div></div></button><button id = button_4 class = ""square num-button"" onclick = ""recordClick(this)""><div class = content><div class = numbers>J</div></div></button><button id = button_5 class = ""square num-button"" onclick = ""recordClick(this)""><div class = content><div class = numbers>K</div></div></button><button id = button_6 class = ""square num-button"" onclick = ""recordClick(this)""><div class = content><div class = numbers>L</div></div></button><button id = button_7 class = ""square num-button"" onclick = ""recordClick(this)""><div class = content><div class = numbers>N</div></div></button><button id = button_8 class = ""square num-button"" onclick = ""recordClick(this)""><div class = content><div class = numbers>P</div></div></button><button id = button_9 class = ""square num-button"" onclick = ""recordClick(this)""><div class = content><div class = numbers>Q</div></div></button><button id = button_10 class = ""square num-button"" onclick = ""recordClick(this)""><div class = content><div class = numbers>R</div></div></button><button id = button_11 class = ""square num-button"" onclick = ""recordClick(this)""><div class = content><div class = numbers>S</div></div></button><button id = button_12 class = ""square num-button"" onclick = ""recordClick(this)""><div class = content><div class = numbers>Y</div></div></button><button class = clear_button id = ""ClearButton"" onclick = ""clearResponse()"">BACKSPACE</button><button class = blank_button id = ""BlankButton"" onclick = ""blankResponse()"">SKIP</button><p style=""font-size: 2.4rem""><u><b>Current Answer:</b></u></p><br><br><div id=echoed_txt style=""font-size: 5rem; color:blue;""><b></b></div></div>",enter,ospan,retrieval,8fBy4YUH1hQ0TSDIO6OoAy1s1ob2,html-keyboard-response,98,791950,0.0-46.0-2.0-2.0-2.0-0.0,NA,NA,NA,3.0,"[""Y"",""Q"",""P""]","[""Y"",""Q"",""P""]",1.0,3.0,"['<font color=""green"">Y</font>', '<font color=""green"">Q</font>', '<font color=""green"">P</font>']",,,,,,5ffaff9cd071dd4e7ce5e31a,08:49:51,03/04/2024
2432.0999999046326,"['<p style=""font-size:44px"">Letters:<br><br><br><font color=""green"">Y</font> <font color=""green"">Q</font> <font color=""green"">P</font></p><br><br><p style=""font-size:30px"">Symmetry:<br><br><font color=""green"">100%</font></p><br><br>']",0,ospan,practice_feedback,8fBy4YUH1hQ0TSDIO6OoAy1s1ob2,html-button-response,99,794893,0.0-46.0-2.0-2.0-2.0-1.0,,,,,,,,,,,,,,,5ffaff9cd071dd4e7ce5e31a,08:49:51,03/04/2024
22930.599999904633,"<div class = 'left_align' style='font-size: 3rem; line-height: 1.3;'><b>Great work! That is the end of practice.</b><br><br>The real trials will look just like the practice trials you just completed.<br><br><u>Here, you will not see feedback</u>. First, you will see an grid picture to judge,<br>then a letter to remember. When the recall screen appears, report the letters in the<br>order presented. If you forget a letter, remember to use the <b>blank</b> button to move to the<br>next letter. Some of the sets will have more symmetry grids and letters than others.<br><br>It is important that you do your best on both the symmetry judgments and the letter recall<br>parts of the experiment. For for the symmetry judgments, try to work as <b>quickly</b> and <br>as <b>accurately</b> as possible. Remember to keep your symmetry accuracy at 85% or above.<br><br><b>For the letters, do NOT use any external aid (e.g., writing on paper, electronic device).</b><br><br>It is <u>very important</u> to our experiment to have a <b>true</b> view of your real performance.<br><br>Do not worry if you miss some when it gets hard! This task is meant to be very challenging!<br><br>Click the button to begin.</div><br><br><br><br>",0,ospan,starting_real_here,8fBy4YUH1hQ0TSDIO6OoAy1s1ob2,html-button-response,100,817828,0.0-46.0-2.0-3.0,,,,,,,,,,,,,,,5ffaff9cd071dd4e7ce5e31a,08:49:51,03/04/2024
,"<p style=""font-size:75px;"">...</p>",,ospan,iti,8fBy4YUH1hQ0TSDIO6OoAy1s1ob2,html-keyboard-response,101,819101,0.0-46.0-3.0-0.0-0.0,,,,,,,,,,,,,,,5ffaff9cd071dd4e7ce5e31a,08:49:51,03/04/2024
3407.0,,,ospan,symmetry,8fBy4YUH1hQ0TSDIO6OoAy1s1ob2,symmetry-judgement-task,102,823770,0.0-46.0-3.0-0.0-1.0-0.0,,,,,,,,,,1.0,1.0,,,,5ffaff9cd071dd4e7ce5e31a,08:49:51,03/04/2024
,"<div style=""font-size: 10rem; color: #0000FF"">Q</div>",,ospan,letter,8fBy4YUH1hQ0TSDIO6OoAy1s1ob2,html-keyboard-response,103,824791,0.0-46.0-3.0-0.0-1.0-1.0,,,,,,,,,,,,,,,5ffaff9cd071dd4e7ce5e31a,08:49:51,03/04/2024
3399.0,,,ospan,symmetry,8fBy4YUH1hQ0TSDIO6OoAy1s1ob2,symmetry-judgement-task,104,830199,0.0-46.0-3.0-0.0-1.0-2.0,,,,,,,,,,1.0,1.0,,,,5ffaff9cd071dd4e7ce5e31a,08:49:51,03/04/2024
,"<div style=""font-size: 10rem; color: #0000FF"">P</div>",,ospan,letter,8fBy4YUH1hQ0TSDIO6OoAy1s1ob2,html-keyboard-response,105,831211,0.0-46.0-3.0-0.0-1.0-3.0,,,,,,,,,,,,,,,5ffaff9cd071dd4e7ce5e31a,08:49:51,03/04/2024
2778.0,,,ospan,symmetry,8fBy4YUH1hQ0TSDIO6OoAy1s1ob2,symmetry-judgement-task,106,836010,0.0-46.0-3.0-0.0-1.0-4.0,,,,,,,,,,1.0,1.0,,,,5ffaff9cd071dd4e7ce5e31a,08:49:51,03/04/2024
,"<div style=""font-size: 10rem; color: #0000FF"">G</div>",,ospan,letter,8fBy4YUH1hQ0TSDIO6OoAy1s1ob2,html-keyboard-response,107,837015,0.0-46.0-3.0-0.0-1.0-5.0,,,,,,,,,,,,,,,5ffaff9cd071dd4e7ce5e31a,08:49:51,03/04/2024
5618.599999904633,"<div class = numbox><p style=""font-size: 2.4rem"">Please recall the letters you saw to the best of your ability. If you do not remember a particular letter, use the SKIP button.<br><b>(When you are ready to lock in your answer, press ENTER)</b></p><button id = button_1 class = ""square num-button"" onclick = ""recordClick(this)""><div class = content><div class = numbers>C</div></div></button><button id = button_2 class = ""square num-button"" onclick = ""recordClick(this)""><div class = content><div class = numbers>G</div></div></button><button id = button_3 class = ""square num-button"" onclick = ""recordClick(this)""><div class = content><div class = numbers>H</div></div></button><button id = button_4 class = ""square num-button"" onclick = ""recordClick(this)""><div class = content><div class = numbers>J</div></div></button><button id = button_5 class = ""square num-button"" onclick = ""recordClick(this)""><div class = content><div class = numbers>K</div></div></button><button id = button_6 class = ""square num-button"" onclick = ""recordClick(this)""><div class = content><div class = numbers>L</div></div></button><button id = button_7 class = ""square num-button"" onclick = ""recordClick(this)""><div class = content><div class = numbers>N</div></div></button><button id = button_8 class = ""square num-button"" onclick = ""recordClick(this)""><div class = content><div class = numbers>P</div></div></button><button id = button_9 class = ""square num-button"" onclick = ""recordClick(this)""><div class = content><div class = numbers>Q</div></div></button><button id = button_10 class = ""square num-button"" onclick = ""recordClick(this)""><div class = content><div class = numbers>R</div></div></button><button id = button_11 class = ""square num-button"" onclick = ""recordClick(this)""><div class = content><div class = numbers>S</div></div></button><button id = button_12 class = ""square num-button"" onclick = ""recordClick(this)""><div class = content><div class = numbers>Y</div></div></button><button class = clear_button id = ""ClearButton"" onclick = ""clearResponse()"">BACKSPACE</button><button class = blank_button id = ""BlankButton"" onclick = ""blankResponse()"">SKIP</button><p style=""font-size: 2.4rem""><u><b>Current Answer:</b></u></p><br><br><div id=echoed_txt style=""font-size: 5rem; color:blue;""><b></b></div></div>",enter,ospan,retrieval,8fBy4YUH1hQ0TSDIO6OoAy1s1ob2,html-keyboard-response,108,843391,0.0-46.0-3.0-0.0-2.0,3,3,3,3.0,"[""Q"",""P"",""G""]","[""Q"",""P"",""G""]",1.0,3.0,,,,,,,5ffaff9cd071dd4e7ce5e31a,08:49:51,03/04/2024
1504.4000000953674,[''],0,ospan,feedback,8fBy4YUH1hQ0TSDIO6OoAy1s1ob2,html-button-response,109,845411,0.0-46.0-3.0-0.0-3.0,,,,,,,,,,,,100.0,0.0,,5ffaff9cd071dd4e7ce5e31a,08:49:51,03/04/2024
,"<p style=""font-size:75px;"">...</p>",,ospan,iti,8fBy4YUH1hQ0TSDIO6OoAy1s1ob2,html-keyboard-response,110,846416,0.0-46.0-4.0-0.0-0.0,,,,,,,,,,,,,,,5ffaff9cd071dd4e7ce5e31a,08:49:51,03/04/2024
2275.0,,,ospan,symmetry,8fBy4YUH1hQ0TSDIO6OoAy1s1ob2,symmetry-judgement-task,111,849954,0.0-46.0-4.0-0.0-1.0-0.0,,,,,,,,,,1.0,1.0,,,,5ffaff9cd071dd4e7ce5e31a,08:49:51,03/04/2024
,"<div style=""font-size: 10rem; color: #0000FF"">J</div>",,ospan,letter,8fBy4YUH1hQ0TSDIO6OoAy1s1ob2,html-keyboard-response,112,850959,0.0-46.0-4.0-0.0-1.0-1.0,,,,,,,,,,,,,,,5ffaff9cd071dd4e7ce5e31a,08:49:51,03/04/2024
2149.0,,,ospan,symmetry,8fBy4YUH1hQ0TSDIO6OoAy1s1ob2,symmetry-judgement-task,113,855097,0.0-46.0-4.0-0.0-1.0-2.0,,,,,,,,,,1.0,1.0,,,,5ffaff9cd071dd4e7ce5e31a,08:49:51,03/04/2024
,"<div style=""font-size: 10rem; color: #0000FF"">L</div>",,ospan,letter,8fBy4YUH1hQ0TSDIO6OoAy1s1ob2,html-keyboard-response,114,856103,0.0-46.0-4.0-0.0-1.0-3.0,,,,,,,,,,,,,,,5ffaff9cd071dd4e7ce5e31a,08:49:51,03/04/2024
2156.0,,,ospan,symmetry,8fBy4YUH1hQ0TSDIO6OoAy1s1ob2,symmetry-judgement-task,115,860269,0.0-46.0-4.0-0.0-1.0-4.0,,,,,,,,,,1.0,1.0,,,,5ffaff9cd071dd4e7ce5e31a,08:49:51,03/04/2024
,"<div style=""font-size: 10rem; color: #0000FF"">K</div>",,ospan,letter,8fBy4YUH1hQ0TSDIO6OoAy1s1ob2,html-keyboard-response,116,861291,0.0-46.0-4.0-0.0-1.0-5.0,,,,,,,,,,,,,,,5ffaff9cd071dd4e7ce5e31a,08:49:51,03/04/2024
2175.0,,,ospan,symmetry,8fBy4YUH1hQ0TSDIO6OoAy1s1ob2,symmetry-judgement-task,117,865495,0.0-46.0-4.0-0.0-1.0-6.0,,,,,,,,,,1.0,1.0,,,,5ffaff9cd071dd4e7ce5e31a,08:49:51,03/04/2024
,"<div style=""font-size: 10rem; color: #0000FF"">Y</div>",,ospan,letter,8fBy4YUH1hQ0TSDIO6OoAy1s1ob2,html-keyboard-response,118,866508,0.0-46.0-4.0-0.0-1.0-7.0,,,,,,,,,,,,,,,5ffaff9cd071dd4e7ce5e31a,08:49:51,03/04/2024
7506.599999904633,"<div class = numbox><p style=""font-size: 2.4rem"">Please recall the letters you saw to the best of your ability. If you do not remember a particular letter, use the SKIP button.<br><b>(When you are ready to lock in your answer, press ENTER)</b></p><button id = button_1 class = ""square num-button"" onclick = ""recordClick(this)""><div class = content><div class = numbers>C</div></div></button><button id = button_2 class = ""square num-button"" onclick = ""recordClick(this)""><div class = content><div class = numbers>G</div></div></button><button id = button_3 class = ""square num-button"" onclick = ""recordClick(this)""><div class = content><div class = numbers>H</div></div></button><button id = button_4 class = ""square num-button"" onclick = ""recordClick(this)""><div class = content><div class = numbers>J</div></div></button><button id = button_5 class = ""square num-button"" onclick = ""recordClick(this)""><div class = content><div class = numbers>K</div></div></button><button id = button_6 class = ""square num-button"" onclick = ""recordClick(this)""><div class = content><div class = numbers>L</div></div></button><button id = button_7 class = ""square num-button"" onclick = ""recordClick(this)""><div class = content><div class = numbers>N</div></div></button><button id = button_8 class = ""square num-button"" onclick = ""recordClick(this)""><div class = content><div class = numbers>P</div></div></button><button id = button_9 class = ""square num-button"" onclick = ""recordClick(this)""><div class = content><div class = numbers>Q</div></div></button><button id = button_10 class = ""square num-button"" onclick = ""recordClick(this)""><div class = content><div class = numbers>R</div></div></button><button id = button_11 class = ""square num-button"" onclick = ""recordClick(this)""><div class = content><div class = numbers>S</div></div></button><button id = button_12 class = ""square num-button"" onclick = ""recordClick(this)""><div class = content><div class = numbers>Y</div></div></button><button class = clear_button id = ""ClearButton"" onclick = ""clearResponse()"">BACKSPACE</button><button class = blank_button id = ""BlankButton"" onclick = ""blankResponse()"">SKIP</button><p style=""font-size: 2.4rem""><u><b>Current Answer:</b></u></p><br><br><div id=echoed_txt style=""font-size: 5rem; color:blue;""><b></b></div></div>",enter,ospan,retrieval,8fBy4YUH1hQ0TSDIO6OoAy1s1ob2,html-keyboard-response,119,874772,0.0-46.0-4.0-0.0-2.0,7,7,7,4.0,"[""J"",""L"",""K"",""Y""]","[""J"",""L"",""K"",""Y""]",1.0,4.0,,,,,,,5ffaff9cd071dd4e7ce5e31a,08:49:51,03/04/2024
1033.1000003814697,[''],0,ospan,feedback,8fBy4YUH1hQ0TSDIO6OoAy1s1ob2,html-button-response,120,876318,0.0-46.0-4.0-0.0-3.0,,,,,,,,,,,,100.0,0.0,,5ffaff9cd071dd4e7ce5e31a,08:49:51,03/04/2024
,"<p style=""font-size:75px;"">...</p>",,ospan,iti,8fBy4YUH1hQ0TSDIO6OoAy1s1ob2,html-keyboard-response,121,877326,0.0-46.0-4.0-1.0-0.0,,,,,,,,,,,,,,,5ffaff9cd071dd4e7ce5e31a,08:49:51,03/04/2024
2213.0,,,ospan,symmetry,8fBy4YUH1hQ0TSDIO6OoAy1s1ob2,symmetry-judgement-task,122,880626,0.0-46.0-4.0-1.0-1.0-0.0,,,,,,,,,,1.0,1.0,,,,5ffaff9cd071dd4e7ce5e31a,08:49:51,03/04/2024
,"<div style=""font-size: 10rem; color: #0000FF"">G</div>",,ospan,letter,8fBy4YUH1hQ0TSDIO6OoAy1s1ob2,html-keyboard-response,123,881644,0.0-46.0-4.0-1.0-1.0-1.0,,,,,,,,,,,,,,,5ffaff9cd071dd4e7ce5e31a,08:49:51,03/04/2024
1700.0,,,ospan,symmetry,8fBy4YUH1hQ0TSDIO6OoAy1s1ob2,symmetry-judgement-task,124,885366,0.0-46.0-4.0-1.0-1.0-2.0,,,,,,,,,,1.0,1.0,,,,5ffaff9cd071dd4e7ce5e31a,08:49:51,03/04/2024
,"<div style=""font-size: 10rem; color: #0000FF"">Y</div>",,ospan,letter,8fBy4YUH1hQ0TSDIO6OoAy1s1ob2,html-keyboard-response,125,886368,0.0-46.0-4.0-1.0-1.0-3.0,,,,,,,,,,,,,,,5ffaff9cd071dd4e7ce5e31a,08:49:51,03/04/2024
2383.0,,,ospan,symmetry,8fBy4YUH1hQ0TSDIO6OoAy1s1ob2,symmetry-judgement-task,126,890850,0.0-46.0-4.0-1.0-1.0-4.0,,,,,,,,,,1.0,1.0,,,,5ffaff9cd071dd4e7ce5e31a,08:49:51,03/04/2024
,"<div style=""font-size: 10rem; color: #0000FF"">H</div>",,ospan,letter,8fBy4YUH1hQ0TSDIO6OoAy1s1ob2,html-keyboard-response,127,891862,0.0-46.0-4.0-1.0-1.0-5.0,,,,,,,,,,,,,,,5ffaff9cd071dd4e7ce5e31a,08:49:51,03/04/2024
1375.0,,,ospan,symmetry,8fBy4YUH1hQ0TSDIO6OoAy1s1ob2,symmetry-judgement-task,128,895347,0.0-46.0-4.0-1.0-1.0-6.0,,,,,,,,,,1.0,1.0,,,,5ffaff9cd071dd4e7ce5e31a,08:49:51,03/04/2024
,"<div style=""font-size: 10rem; color: #0000FF"">N</div>",,ospan,letter,8fBy4YUH1hQ0TSDIO6OoAy1s1ob2,html-keyboard-response,129,896369,0.0-46.0-4.0-1.0-1.0-7.0,,,,,,,,,,,,,,,5ffaff9cd071dd4e7ce5e31a,08:49:51,03/04/2024
2327.0,,,ospan,symmetry,8fBy4YUH1hQ0TSDIO6OoAy1s1ob2,symmetry-judgement-task,130,900722,0.0-46.0-4.0-1.0-1.0-8.0,,,,,,,,,,1.0,1.0,,,,5ffaff9cd071dd4e7ce5e31a,08:49:51,03/04/2024
,"<div style=""font-size: 10rem; color: #0000FF"">J</div>",,ospan,letter,8fBy4YUH1hQ0TSDIO6OoAy1s1ob2,html-keyboard-response,131,901724,0.0-46.0-4.0-1.0-1.0-9.0,,,,,,,,,,,,,,,5ffaff9cd071dd4e7ce5e31a,08:49:51,03/04/2024
9209.599999904633,"<div class = numbox><p style=""font-size: 2.4rem"">Please recall the letters you saw to the best of your ability. If you do not remember a particular letter, use the SKIP button.<br><b>(When you are ready to lock in your answer, press ENTER)</b></p><button id = button_1 class = ""square num-button"" onclick = ""recordClick(this)""><div class = content><div class = numbers>C</div></div></button><button id = button_2 class = ""square num-button"" onclick = ""recordClick(this)""><div class = content><div class = numbers>G</div></div></button><button id = button_3 class = ""square num-button"" onclick = ""recordClick(this)""><div class = content><div class = numbers>H</div></div></button><button id = button_4 class = ""square num-button"" onclick = ""recordClick(this)""><div class = content><div class = numbers>J</div></div></button><button id = button_5 class = ""square num-button"" onclick = ""recordClick(this)""><div class = content><div class = numbers>K</div></div></button><button id = button_6 class = ""square num-button"" onclick = ""recordClick(this)""><div class = content><div class = numbers>L</div></div></button><button id = button_7 class = ""square num-button"" onclick = ""recordClick(this)""><div class = content><div class = numbers>N</div></div></button><button id = button_8 class = ""square num-button"" onclick = ""recordClick(this)""><div class = content><div class = numbers>P</div></div></button><button id = button_9 class = ""square num-button"" onclick = ""recordClick(this)""><div class = content><div class = numbers>Q</div></div></button><button id = button_10 class = ""square num-button"" onclick = ""recordClick(this)""><div class = content><div class = numbers>R</div></div></button><button id = button_11 class = ""square num-button"" onclick = ""recordClick(this)""><div class = content><div class = numbers>S</div></div></button><button id = button_12 class = ""square num-button"" onclick = ""recordClick(this)""><div class = content><div class = numbers>Y</div></div></button><button class = clear_button id = ""ClearButton"" onclick = ""clearResponse()"">BACKSPACE</button><button class = blank_button id = ""BlankButton"" onclick = ""blankResponse()"">SKIP</button><p style=""font-size: 2.4rem""><u><b>Current Answer:</b></u></p><br><br><div id=echoed_txt style=""font-size: 5rem; color:blue;""><b></b></div></div>",enter,ospan,retrieval,8fBy4YUH1hQ0TSDIO6OoAy1s1ob2,html-keyboard-response,132,911701,0.0-46.0-4.0-1.0-2.0,12,12,12,5.0,"[""G"",""Y"",""H"",""N"",""J""]","[""G"",""Y"",""H"",""N"",""J""]",1.0,5.0,,,,,,,5ffaff9cd071dd4e7ce5e31a,08:49:51,03/04/2024
1121.1999998092651,[''],0,ospan,feedback,8fBy4YUH1hQ0TSDIO6OoAy1s1ob2,html-button-response,133,913327,0.0-46.0-4.0-1.0-3.0,,,,,,,,,,,,100.0,0.0,,5ffaff9cd071dd4e7ce5e31a,08:49:51,03/04/2024
,"<p style=""font-size:75px;"">...</p>",,ospan,iti,8fBy4YUH1hQ0TSDIO6OoAy1s1ob2,html-keyboard-response,134,914342,0.0-46.0-4.0-2.0-0.0,,,,,,,,,,,,,,,5ffaff9cd071dd4e7ce5e31a,08:49:51,03/04/2024
3327.0,,,ospan,symmetry,8fBy4YUH1hQ0TSDIO6OoAy1s1ob2,symmetry-judgement-task,135,918724,0.0-46.0-4.0-2.0-1.0-0.0,,,,,,,,,,1.0,1.0,,,,5ffaff9cd071dd4e7ce5e31a,08:49:51,03/04/2024
,"<div style=""font-size: 10rem; color: #0000FF"">Q</div>",,ospan,letter,8fBy4YUH1hQ0TSDIO6OoAy1s1ob2,html-keyboard-response,136,919744,0.0-46.0-4.0-2.0-1.0-1.0,,,,,,,,,,,,,,,5ffaff9cd071dd4e7ce5e31a,08:49:51,03/04/2024
3030.0,,,ospan,symmetry,8fBy4YUH1hQ0TSDIO6OoAy1s1ob2,symmetry-judgement-task,137,924879,0.0-46.0-4.0-2.0-1.0-2.0,,,,,,,,,,1.0,1.0,,,,5ffaff9cd071dd4e7ce5e31a,08:49:51,03/04/2024
,"<div style=""font-size: 10rem; color: #0000FF"">Y</div>",,ospan,letter,8fBy4YUH1hQ0TSDIO6OoAy1s1ob2,html-keyboard-response,138,925900,0.0-46.0-4.0-2.0-1.0-3.0,,,,,,,,,,,,,,,5ffaff9cd071dd4e7ce5e31a,08:49:51,03/04/2024
1992.0,,,ospan,symmetry,8fBy4YUH1hQ0TSDIO6OoAy1s1ob2,symmetry-judgement-task,139,929915,0.0-46.0-4.0-2.0-1.0-4.0,,,,,,,,,,1.0,1.0,,,,5ffaff9cd071dd4e7ce5e31a,08:49:51,03/04/2024
,"<div style=""font-size: 10rem; color: #0000FF"">R</div>",,ospan,letter,8fBy4YUH1hQ0TSDIO6OoAy1s1ob2,html-keyboard-response,140,930919,0.0-46.0-4.0-2.0-1.0-5.0,,,,,,,,,,,,,,,5ffaff9cd071dd4e7ce5e31a,08:49:51,03/04/2024
4921.699999809265,"<div class = numbox><p style=""font-size: 2.4rem"">Please recall the letters you saw to the best of your ability. If you do not remember a particular letter, use the SKIP button.<br><b>(When you are ready to lock in your answer, press ENTER)</b></p><button id = button_1 class = ""square num-button"" onclick = ""recordClick(this)""><div class = content><div class = numbers>C</div></div></button><button id = button_2 class = ""square num-button"" onclick = ""recordClick(this)""><div class = content><div class = numbers>G</div></div></button><button id = button_3 class = ""square num-button"" onclick = ""recordClick(this)""><div class = content><div class = numbers>H</div></div></button><button id = button_4 class = ""square num-button"" onclick = ""recordClick(this)""><div class = content><div class = numbers>J</div></div></button><button id = button_5 class = ""square num-button"" onclick = ""recordClick(this)""><div class = content><div class = numbers>K</div></div></button><button id = button_6 class = ""square num-button"" onclick = ""recordClick(this)""><div class = content><div class = numbers>L</div></div></button><button id = button_7 class = ""square num-button"" onclick = ""recordClick(this)""><div class = content><div class = numbers>N</div></div></button><button id = button_8 class = ""square num-button"" onclick = ""recordClick(this)""><div class = content><div class = numbers>P</div></div></button><button id = button_9 class = ""square num-button"" onclick = ""recordClick(this)""><div class = content><div class = numbers>Q</div></div></button><button id = button_10 class = ""square num-button"" onclick = ""recordClick(this)""><div class = content><div class = numbers>R</div></div></button><button id = button_11 class = ""square num-button"" onclick = ""recordClick(this)""><div class = content><div class = numbers>S</div></div></button><button id = button_12 class = ""square num-button"" onclick = ""recordClick(this)""><div class = content><div class = numbers>Y</div></div></button><button class = clear_button id = ""ClearButton"" onclick = ""clearResponse()"">BACKSPACE</button><button class = blank_button id = ""BlankButton"" onclick = ""blankResponse()"">SKIP</button><p style=""font-size: 2.4rem""><u><b>Current Answer:</b></u></p><br><br><div id=echoed_txt style=""font-size: 5rem; color:blue;""><b></b></div></div>",enter,ospan,retrieval,8fBy4YUH1hQ0TSDIO6OoAy1s1ob2,html-keyboard-response,141,936594,0.0-46.0-4.0-2.0-2.0,15,15,15,3.0,"[""Q"",""Y"",""R""]","[""Q"",""Y"",""R""]",1.0,3.0,,,,,,,5ffaff9cd071dd4e7ce5e31a,08:49:51,03/04/2024
1227.8000001907349,[''],0,ospan,feedback,8fBy4YUH1hQ0TSDIO6OoAy1s1ob2,html-button-response,142,938337,0.0-46.0-4.0-2.0-3.0,,,,,,,,,,,,100.0,0.0,,5ffaff9cd071dd4e7ce5e31a,08:49:51,03/04/2024
,"<p style=""font-size:75px;"">...</p>",,ospan,iti,8fBy4YUH1hQ0TSDIO6OoAy1s1ob2,html-keyboard-response,143,939363,0.0-46.0-5.0-0.0-0.0,,,,,,,,,,,,,,,5ffaff9cd071dd4e7ce5e31a,08:49:51,03/04/2024
3240.0,,,ospan,symmetry,8fBy4YUH1hQ0TSDIO6OoAy1s1ob2,symmetry-judgement-task,144,943658,0.0-46.0-5.0-0.0-1.0-0.0,,,,,,,,,,1.0,1.0,,,,5ffaff9cd071dd4e7ce5e31a,08:49:51,03/04/2024
,"<div style=""font-size: 10rem; color: #0000FF"">L</div>",,ospan,letter,8fBy4YUH1hQ0TSDIO6OoAy1s1ob2,html-keyboard-response,145,944672,0.0-46.0-5.0-0.0-1.0-1.0,,,,,,,,,,,,,,,5ffaff9cd071dd4e7ce5e31a,08:49:51,03/04/2024
2429.0,,,ospan,symmetry,8fBy4YUH1hQ0TSDIO6OoAy1s1ob2,symmetry-judgement-task,146,949133,0.0-46.0-5.0-0.0-1.0-2.0,,,,,,,,,,1.0,1.0,,,,5ffaff9cd071dd4e7ce5e31a,08:49:51,03/04/2024
,"<div style=""font-size: 10rem; color: #0000FF"">K</div>",,ospan,letter,8fBy4YUH1hQ0TSDIO6OoAy1s1ob2,html-keyboard-response,147,950138,0.0-46.0-5.0-0.0-1.0-3.0,,,,,,,,,,,,,,,5ffaff9cd071dd4e7ce5e31a,08:49:51,03/04/2024
2392.0,,,ospan,symmetry,8fBy4YUH1hQ0TSDIO6OoAy1s1ob2,symmetry-judgement-task,148,954562,0.0-46.0-5.0-0.0-1.0-4.0,,,,,,,,,,1.0,1.0,,,,5ffaff9cd071dd4e7ce5e31a,08:49:51,03/04/2024
,"<div style=""font-size: 10rem; color: #0000FF"">C</div>",,ospan,letter,8fBy4YUH1hQ0TSDIO6OoAy1s1ob2,html-keyboard-response,149,955568,0.0-46.0-5.0-0.0-1.0-5.0,,,,,,,,,,,,,,,5ffaff9cd071dd4e7ce5e31a,08:49:51,03/04/2024
1277.0,,,ospan,symmetry,8fBy4YUH1hQ0TSDIO6OoAy1s1ob2,symmetry-judgement-task,150,958897,0.0-46.0-5.0-0.0-1.0-6.0,,,,,,,,,,1.0,1.0,,,,5ffaff9cd071dd4e7ce5e31a,08:49:51,03/04/2024
,"<div style=""font-size: 10rem; color: #0000FF"">S</div>",,ospan,letter,8fBy4YUH1hQ0TSDIO6OoAy1s1ob2,html-keyboard-response,151,959917,0.0-46.0-5.0-0.0-1.0-7.0,,,,,,,,,,,,,,,5ffaff9cd071dd4e7ce5e31a,08:49:51,03/04/2024
1923.0,,,ospan,symmetry,8fBy4YUH1hQ0TSDIO6OoAy1s1ob2,symmetry-judgement-task,152,963835,0.0-46.0-5.0-0.0-1.0-8.0,,,,,,,,,,1.0,1.0,,,,5ffaff9cd071dd4e7ce5e31a,08:49:51,03/04/2024
,"<div style=""font-size: 10rem; color: #0000FF"">H</div>",,ospan,letter,8fBy4YUH1hQ0TSDIO6OoAy1s1ob2,html-keyboard-response,153,964845,0.0-46.0-5.0-0.0-1.0-9.0,,,,,,,,,,,,,,,5ffaff9cd071dd4e7ce5e31a,08:49:51,03/04/2024
2004.0,,,ospan,symmetry,8fBy4YUH1hQ0TSDIO6OoAy1s1ob2,symmetry-judgement-task,154,968903,0.0-46.0-5.0-0.0-1.0-10.0,,,,,,,,,,1.0,1.0,,,,5ffaff9cd071dd4e7ce5e31a,08:49:51,03/04/2024
,"<div style=""font-size: 10rem; color: #0000FF"">J</div>",,ospan,letter,8fBy4YUH1hQ0TSDIO6OoAy1s1ob2,html-keyboard-response,155,969916,0.0-46.0-5.0-0.0-1.0-11.0,,,,,,,,,,,,,,,5ffaff9cd071dd4e7ce5e31a,08:49:51,03/04/2024
11048.599999904633,"<div class = numbox><p style=""font-size: 2.4rem"">Please recall the letters you saw to the best of your ability. If you do not remember a particular letter, use the SKIP button.<br><b>(When you are ready to lock in your answer, press ENTER)</b></p><button id = button_1 class = ""square num-button"" onclick = ""recordClick(this)""><div class = content><div class = numbers>C</div></div></button><button id = button_2 class = ""square num-button"" onclick = ""recordClick(this)""><div class = content><div class = numbers>G</div></div></button><button id = button_3 class = ""square num-button"" onclick = ""recordClick(this)""><div class = content><div class = numbers>H</div></div></button><button id = button_4 class = ""square num-button"" onclick = ""recordClick(this)""><div class = content><div class = numbers>J</div></div></button><button id = button_5 class = ""square num-button"" onclick = ""recordClick(this)""><div class = content><div class = numbers>K</div></div></button><button id = button_6 class = ""square num-button"" onclick = ""recordClick(this)""><div class = content><div class = numbers>L</div></div></button><button id = button_7 class = ""square num-button"" onclick = ""recordClick(this)""><div class = content><div class = numbers>N</div></div></button><button id = button_8 class = ""square num-button"" onclick = ""recordClick(this)""><div class = content><div class = numbers>P</div></div></button><button id = button_9 class = ""square num-button"" onclick = ""recordClick(this)""><div class = content><div class = numbers>Q</div></div></button><button id = button_10 class = ""square num-button"" onclick = ""recordClick(this)""><div class = content><div class = numbers>R</div></div></button><button id = button_11 class = ""square num-button"" onclick = ""recordClick(this)""><div class = content><div class = numbers>S</div></div></button><button id = button_12 class = ""square num-button"" onclick = ""recordClick(this)""><div class = content><div class = numbers>Y</div></div></button><button class = clear_button id = ""ClearButton"" onclick = ""clearResponse()"">BACKSPACE</button><button class = blank_button id = ""BlankButton"" onclick = ""blankResponse()"">SKIP</button><p style=""font-size: 2.4rem""><u><b>Current Answer:</b></u></p><br><br><div id=echoed_txt style=""font-size: 5rem; color:blue;""><b></b></div></div>",enter,ospan,retrieval,8fBy4YUH1hQ0TSDIO6OoAy1s1ob2,html-keyboard-response,156,981721,0.0-46.0-5.0-0.0-2.0,21,21,21,6.0,"[""L"",""K"",""C"",""S"",""H"",""J""]","[""L"",""K"",""C"",""S"",""H"",""J""]",1.0,6.0,,,,,,,5ffaff9cd071dd4e7ce5e31a,08:49:51,03/04/2024
1109.9000000953674,[''],0,ospan,feedback,8fBy4YUH1hQ0TSDIO6OoAy1s1ob2,html-button-response,157,983344,0.0-46.0-5.0-0.0-3.0,,,,,,,,,,,,100.0,0.0,,5ffaff9cd071dd4e7ce5e31a,08:49:51,03/04/2024
,"<p style=""font-size:75px;"">...</p>",,ospan,iti,8fBy4YUH1hQ0TSDIO6OoAy1s1ob2,html-keyboard-response,158,984361,0.0-46.0-5.0-1.0-0.0,,,,,,,,,,,,,,,5ffaff9cd071dd4e7ce5e31a,08:49:51,03/04/2024
2209.0,,,ospan,symmetry,8fBy4YUH1hQ0TSDIO6OoAy1s1ob2,symmetry-judgement-task,159,987820,0.0-46.0-5.0-1.0-1.0-0.0,,,,,,,,,,1.0,1.0,,,,5ffaff9cd071dd4e7ce5e31a,08:49:51,03/04/2024
,"<div style=""font-size: 10rem; color: #0000FF"">C</div>",,ospan,letter,8fBy4YUH1hQ0TSDIO6OoAy1s1ob2,html-keyboard-response,160,988841,0.0-46.0-5.0-1.0-1.0-1.0,,,,,,,,,,,,,,,5ffaff9cd071dd4e7ce5e31a,08:49:51,03/04/2024
2358.0,,,ospan,symmetry,8fBy4YUH1hQ0TSDIO6OoAy1s1ob2,symmetry-judgement-task,161,993262,0.0-46.0-5.0-1.0-1.0-2.0,,,,,,,,,,1.0,1.0,,,,5ffaff9cd071dd4e7ce5e31a,08:49:51,03/04/2024
,"<div style=""font-size: 10rem; color: #0000FF"">H</div>",,ospan,letter,8fBy4YUH1hQ0TSDIO6OoAy1s1ob2,html-keyboard-response,162,994272,0.0-46.0-5.0-1.0-1.0-3.0,,,,,,,,,,,,,,,5ffaff9cd071dd4e7ce5e31a,08:49:51,03/04/2024
2938.0,,,ospan,symmetry,8fBy4YUH1hQ0TSDIO6OoAy1s1ob2,symmetry-judgement-task,163,999269,0.0-46.0-5.0-1.0-1.0-4.0,,,,,,,,,,1.0,1.0,,,,5ffaff9cd071dd4e7ce5e31a,08:49:51,03/04/2024
,"<div style=""font-size: 10rem; color: #0000FF"">G</div>",,ospan,letter,8fBy4YUH1hQ0TSDIO6OoAy1s1ob2,html-keyboard-response,164,1000281,0.0-46.0-5.0-1.0-1.0-5.0,,,,,,,,,,,,,,,5ffaff9cd071dd4e7ce5e31a,08:49:51,03/04/2024
1989.0,,,ospan,symmetry,8fBy4YUH1hQ0TSDIO6OoAy1s1ob2,symmetry-judgement-task,165,1004299,0.0-46.0-5.0-1.0-1.0-6.0,,,,,,,,,,1.0,1.0,,,,5ffaff9cd071dd4e7ce5e31a,08:49:51,03/04/2024
,"<div style=""font-size: 10rem; color: #0000FF"">K</div>",,ospan,letter,8fBy4YUH1hQ0TSDIO6OoAy1s1ob2,html-keyboard-response,166,1005340,0.0-46.0-5.0-1.0-1.0-7.0,,,,,,,,,,,,,,,5ffaff9cd071dd4e7ce5e31a,08:49:51,03/04/2024
2426.0,,,ospan,symmetry,8fBy4YUH1hQ0TSDIO6OoAy1s1ob2,symmetry-judgement-task,167,1009830,0.0-46.0-5.0-1.0-1.0-8.0,,,,,,,,,,1.0,1.0,,,,5ffaff9cd071dd4e7ce5e31a,08:49:51,03/04/2024
,"<div style=""font-size: 10rem; color: #0000FF"">R</div>",,ospan,letter,8fBy4YUH1hQ0TSDIO6OoAy1s1ob2,html-keyboard-response,168,1010846,0.0-46.0-5.0-1.0-1.0-9.0,,,,,,,,,,,,,,,5ffaff9cd071dd4e7ce5e31a,08:49:51,03/04/2024
1554.0,,,ospan,symmetry,8fBy4YUH1hQ0TSDIO6OoAy1s1ob2,symmetry-judgement-task,169,1014421,0.0-46.0-5.0-1.0-1.0-10.0,,,,,,,,,,1.0,1.0,,,,5ffaff9cd071dd4e7ce5e31a,08:49:51,03/04/2024
,"<div style=""font-size: 10rem; color: #0000FF"">J</div>",,ospan,letter,8fBy4YUH1hQ0TSDIO6OoAy1s1ob2,html-keyboard-response,170,1015426,0.0-46.0-5.0-1.0-1.0-11.0,,,,,,,,,,,,,,,5ffaff9cd071dd4e7ce5e31a,08:49:51,03/04/2024
4044.0,,,ospan,symmetry,8fBy4YUH1hQ0TSDIO6OoAy1s1ob2,symmetry-judgement-task,171,1021518,0.0-46.0-5.0-1.0-1.0-12.0,,,,,,,,,,1.0,1.0,,,,5ffaff9cd071dd4e7ce5e31a,08:49:51,03/04/2024
,"<div style=""font-size: 10rem; color: #0000FF"">L</div>",,ospan,letter,8fBy4YUH1hQ0TSDIO6OoAy1s1ob2,html-keyboard-response,172,1022525,0.0-46.0-5.0-1.0-1.0-13.0,,,,,,,,,,,,,,,5ffaff9cd071dd4e7ce5e31a,08:49:51,03/04/2024
14385.5,"<div class = numbox><p style=""font-size: 2.4rem"">Please recall the letters you saw to the best of your ability. If you do not remember a particular letter, use the SKIP button.<br><b>(When you are ready to lock in your answer, press ENTER)</b></p><button id = button_1 class = ""square num-button"" onclick = ""recordClick(this)""><div class = content><div class = numbers>C</div></div></button><button id = button_2 class = ""square num-button"" onclick = ""recordClick(this)""><div class = content><div class = numbers>G</div></div></button><button id = button_3 class = ""square num-button"" onclick = ""recordClick(this)""><div class = content><div class = numbers>H</div></div></button><button id = button_4 class = ""square num-button"" onclick = ""recordClick(this)""><div class = content><div class = numbers>J</div></div></button><button id = button_5 class = ""square num-button"" onclick = ""recordClick(this)""><div class = content><div class = numbers>K</div></div></button><button id = button_6 class = ""square num-button"" onclick = ""recordClick(this)""><div class = content><div class = numbers>L</div></div></button><button id = button_7 class = ""square num-button"" onclick = ""recordClick(this)""><div class = content><div class = numbers>N</div></div></button><button id = button_8 class = ""square num-button"" onclick = ""recordClick(this)""><div class = content><div class = numbers>P</div></div></button><button id = button_9 class = ""square num-button"" onclick = ""recordClick(this)""><div class = content><div class = numbers>Q</div></div></button><button id = button_10 class = ""square num-button"" onclick = ""recordClick(this)""><div class = content><div class = numbers>R</div></div></button><button id = button_11 class = ""square num-button"" onclick = ""recordClick(this)""><div class = content><div class = numbers>S</div></div></button><button id = button_12 class = ""square num-button"" onclick = ""recordClick(this)""><div class = content><div class = numbers>Y</div></div></button><button class = clear_button id = ""ClearButton"" onclick = ""clearResponse()"">BACKSPACE</button><button class = blank_button id = ""BlankButton"" onclick = ""blankResponse()"">SKIP</button><p style=""font-size: 2.4rem""><u><b>Current Answer:</b></u></p><br><br><div id=echoed_txt style=""font-size: 5rem; color:blue;""><b></b></div></div>",enter,ospan,retrieval,8fBy4YUH1hQ0TSDIO6OoAy1s1ob2,html-keyboard-response,173,1037671,0.0-46.0-5.0-1.0-2.0,28,28,28,7.0,"[""C"",""H"",""G"",""K"",""R"",""J"",""L""]","[""C"",""H"",""G"",""K"",""R"",""J"",""L""]",1.0,7.0,,,,,,,5ffaff9cd071dd4e7ce5e31a,08:49:51,03/04/2024
1197.9000000953674,[''],0,ospan,feedback,8fBy4YUH1hQ0TSDIO6OoAy1s1ob2,html-button-response,174,1039375,0.0-46.0-5.0-1.0-3.0,,,,,,,,,,,,100.0,0.0,,5ffaff9cd071dd4e7ce5e31a,08:49:51,03/04/2024
,"<p style=""font-size:75px;"">...</p>",,ospan,iti,8fBy4YUH1hQ0TSDIO6OoAy1s1ob2,html-keyboard-response,175,1040383,0.0-46.0-6.0-0.0-0.0,,,,,,,,,,,,,,,5ffaff9cd071dd4e7ce5e31a,08:49:51,03/04/2024
1746.0,,,ospan,symmetry,8fBy4YUH1hQ0TSDIO6OoAy1s1ob2,symmetry-judgement-task,176,1043493,0.0-46.0-6.0-0.0-1.0-0.0,,,,,,,,,,1.0,1.0,,,,5ffaff9cd071dd4e7ce5e31a,08:49:51,03/04/2024
,"<div style=""font-size: 10rem; color: #0000FF"">K</div>",,ospan,letter,8fBy4YUH1hQ0TSDIO6OoAy1s1ob2,html-keyboard-response,177,1044513,0.0-46.0-6.0-0.0-1.0-1.0,,,,,,,,,,,,,,,5ffaff9cd071dd4e7ce5e31a,08:49:51,03/04/2024
1631.0,,,ospan,symmetry,8fBy4YUH1hQ0TSDIO6OoAy1s1ob2,symmetry-judgement-task,178,1048175,0.0-46.0-6.0-0.0-1.0-2.0,,,,,,,,,,1.0,1.0,,,,5ffaff9cd071dd4e7ce5e31a,08:49:51,03/04/2024
,"<div style=""font-size: 10rem; color: #0000FF"">N</div>",,ospan,letter,8fBy4YUH1hQ0TSDIO6OoAy1s1ob2,html-keyboard-response,179,1049179,0.0-46.0-6.0-0.0-1.0-3.0,,,,,,,,,,,,,,,5ffaff9cd071dd4e7ce5e31a,08:49:51,03/04/2024
1149.0,,,ospan,symmetry,8fBy4YUH1hQ0TSDIO6OoAy1s1ob2,symmetry-judgement-task,180,1052411,0.0-46.0-6.0-0.0-1.0-4.0,,,,,,,,,,1.0,1.0,,,,5ffaff9cd071dd4e7ce5e31a,08:49:51,03/04/2024
,"<div style=""font-size: 10rem; color: #0000FF"">J</div>",,ospan,letter,8fBy4YUH1hQ0TSDIO6OoAy1s1ob2,html-keyboard-response,181,1053433,0.0-46.0-6.0-0.0-1.0-5.0,,,,,,,,,,,,,,,5ffaff9cd071dd4e7ce5e31a,08:49:51,03/04/2024
1718.0,,,ospan,symmetry,8fBy4YUH1hQ0TSDIO6OoAy1s1ob2,symmetry-judgement-task,182,1057198,0.0-46.0-6.0-0.0-1.0-6.0,,,,,,,,,,1.0,1.0,,,,5ffaff9cd071dd4e7ce5e31a,08:49:51,03/04/2024
,"<div style=""font-size: 10rem; color: #0000FF"">S</div>",,ospan,letter,8fBy4YUH1hQ0TSDIO6OoAy1s1ob2,html-keyboard-response,183,1058203,0.0-46.0-6.0-0.0-1.0-7.0,,,,,,,,,,,,,,,5ffaff9cd071dd4e7ce5e31a,08:49:51,03/04/2024
2251.0,,,ospan,symmetry,8fBy4YUH1hQ0TSDIO6OoAy1s1ob2,symmetry-judgement-task,184,1062476,0.0-46.0-6.0-0.0-1.0-8.0,,,,,,,,,,1.0,1.0,,,,5ffaff9cd071dd4e7ce5e31a,08:49:51,03/04/2024
,"<div style=""font-size: 10rem; color: #0000FF"">P</div>",,ospan,letter,8fBy4YUH1hQ0TSDIO6OoAy1s1ob2,html-keyboard-response,185,1063490,0.0-46.0-6.0-0.0-1.0-9.0,,,,,,,,,,,,,,,5ffaff9cd071dd4e7ce5e31a,08:49:51,03/04/2024
8696.200000286102,"<div class = numbox><p style=""font-size: 2.4rem"">Please recall the letters you saw to the best of your ability. If you do not remember a particular letter, use the SKIP button.<br><b>(When you are ready to lock in your answer, press ENTER)</b></p><button id = button_1 class = ""square num-button"" onclick = ""recordClick(this)""><div class = content><div class = numbers>C</div></div></button><button id = button_2 class = ""square num-button"" onclick = ""recordClick(this)""><div class = content><div class = numbers>G</div></div></button><button id = button_3 class = ""square num-button"" onclick = ""recordClick(this)""><div class = content><div class = numbers>H</div></div></button><button id = button_4 class = ""square num-button"" onclick = ""recordClick(this)""><div class = content><div class = numbers>J</div></div></button><button id = button_5 class = ""square num-button"" onclick = ""recordClick(this)""><div class = content><div class = numbers>K</div></div></button><button id = button_6 class = ""square num-button"" onclick = ""recordClick(this)""><div class = content><div class = numbers>L</div></div></button><button id = button_7 class = ""square num-button"" onclick = ""recordClick(this)""><div class = content><div class = numbers>N</div></div></button><button id = button_8 class = ""square num-button"" onclick = ""recordClick(this)""><div class = content><div class = numbers>P</div></div></button><button id = button_9 class = ""square num-button"" onclick = ""recordClick(this)""><div class = content><div class = numbers>Q</div></div></button><button id = button_10 class = ""square num-button"" onclick = ""recordClick(this)""><div class = content><div class = numbers>R</div></div></button><button id = button_11 class = ""square num-button"" onclick = ""recordClick(this)""><div class = content><div class = numbers>S</div></div></button><button id = button_12 class = ""square num-button"" onclick = ""recordClick(this)""><div class = content><div class = numbers>Y</div></div></button><button class = clear_button id = ""ClearButton"" onclick = ""clearResponse()"">BACKSPACE</button><button class = blank_button id = ""BlankButton"" onclick = ""blankResponse()"">SKIP</button><p style=""font-size: 2.4rem""><u><b>Current Answer:</b></u></p><br><br><div id=echoed_txt style=""font-size: 5rem; color:blue;""><b></b></div></div>",enter,ospan,retrieval,8fBy4YUH1hQ0TSDIO6OoAy1s1ob2,html-keyboard-response,186,1072953,0.0-46.0-6.0-0.0-2.0,33,33,33,5.0,"[""K"",""N"",""J"",""S"",""P""]","[""K"",""N"",""J"",""S"",""P""]",1.0,5.0,,,,,,,5ffaff9cd071dd4e7ce5e31a,08:49:51,03/04/2024
709.0,[''],0,ospan,feedback,8fBy4YUH1hQ0TSDIO6OoAy1s1ob2,html-button-response,187,1074176,0.0-46.0-6.0-0.0-3.0,,,,,,,,,,,,100.0,0.0,,5ffaff9cd071dd4e7ce5e31a,08:49:51,03/04/2024
,"<p style=""font-size:75px;"">...</p>",,ospan,iti,8fBy4YUH1hQ0TSDIO6OoAy1s1ob2,html-keyboard-response,188,1075195,0.0-46.0-6.0-1.0-0.0,,,,,,,,,,,,,,,5ffaff9cd071dd4e7ce5e31a,08:49:51,03/04/2024
3003.0,,,ospan,symmetry,8fBy4YUH1hQ0TSDIO6OoAy1s1ob2,symmetry-judgement-task,189,1079462,0.0-46.0-6.0-1.0-1.0-0.0,,,,,,,,,,1.0,1.0,,,,5ffaff9cd071dd4e7ce5e31a,08:49:51,03/04/2024
,"<div style=""font-size: 10rem; color: #0000FF"">P</div>",,ospan,letter,8fBy4YUH1hQ0TSDIO6OoAy1s1ob2,html-keyboard-response,190,1080482,0.0-46.0-6.0-1.0-1.0-1.0,,,,,,,,,,,,,,,5ffaff9cd071dd4e7ce5e31a,08:49:51,03/04/2024
2092.0,,,ospan,symmetry,8fBy4YUH1hQ0TSDIO6OoAy1s1ob2,symmetry-judgement-task,191,1084602,0.0-46.0-6.0-1.0-1.0-2.0,,,,,,,,,,1.0,1.0,,,,5ffaff9cd071dd4e7ce5e31a,08:49:51,03/04/2024
,"<div style=""font-size: 10rem; color: #0000FF"">H</div>",,ospan,letter,8fBy4YUH1hQ0TSDIO6OoAy1s1ob2,html-keyboard-response,192,1085609,0.0-46.0-6.0-1.0-1.0-3.0,,,,,,,,,,,,,,,5ffaff9cd071dd4e7ce5e31a,08:49:51,03/04/2024
1800.0,,,ospan,symmetry,8fBy4YUH1hQ0TSDIO6OoAy1s1ob2,symmetry-judgement-task,193,1089438,0.0-46.0-6.0-1.0-1.0-4.0,,,,,,,,,,1.0,1.0,,,,5ffaff9cd071dd4e7ce5e31a,08:49:51,03/04/2024
,"<div style=""font-size: 10rem; color: #0000FF"">J</div>",,ospan,letter,8fBy4YUH1hQ0TSDIO6OoAy1s1ob2,html-keyboard-response,194,1090456,0.0-46.0-6.0-1.0-1.0-5.0,,,,,,,,,,,,,,,5ffaff9cd071dd4e7ce5e31a,08:49:51,03/04/2024
1555.0,,,ospan,symmetry,8fBy4YUH1hQ0TSDIO6OoAy1s1ob2,symmetry-judgement-task,195,1094028,0.0-46.0-6.0-1.0-1.0-6.0,,,,,,,,,,1.0,1.0,,,,5ffaff9cd071dd4e7ce5e31a,08:49:51,03/04/2024
,"<div style=""font-size: 10rem; color: #0000FF"">S</div>",,ospan,letter,8fBy4YUH1hQ0TSDIO6OoAy1s1ob2,html-keyboard-response,196,1095034,0.0-46.0-6.0-1.0-1.0-7.0,,,,,,,,,,,,,,,5ffaff9cd071dd4e7ce5e31a,08:49:51,03/04/2024
2380.0,,,ospan,symmetry,8fBy4YUH1hQ0TSDIO6OoAy1s1ob2,symmetry-judgement-task,197,1099450,0.0-46.0-6.0-1.0-1.0-8.0,,,,,,,,,,1.0,1.0,,,,5ffaff9cd071dd4e7ce5e31a,08:49:51,03/04/2024
,"<div style=""font-size: 10rem; color: #0000FF"">Q</div>",,ospan,letter,8fBy4YUH1hQ0TSDIO6OoAy1s1ob2,html-keyboard-response,198,1100457,0.0-46.0-6.0-1.0-1.0-9.0,,,,,,,,,,,,,,,5ffaff9cd071dd4e7ce5e31a,08:49:51,03/04/2024
1813.0,,,ospan,symmetry,8fBy4YUH1hQ0TSDIO6OoAy1s1ob2,symmetry-judgement-task,199,1104338,0.0-46.0-6.0-1.0-1.0-10.0,,,,,,,,,,1.0,1.0,,,,5ffaff9cd071dd4e7ce5e31a,08:49:51,03/04/2024
,"<div style=""font-size: 10rem; color: #0000FF"">N</div>",,ospan,letter,8fBy4YUH1hQ0TSDIO6OoAy1s1ob2,html-keyboard-response,200,1105357,0.0-46.0-6.0-1.0-1.0-11.0,,,,,,,,,,,,,,,5ffaff9cd071dd4e7ce5e31a,08:49:51,03/04/2024
1988.0,,,ospan,symmetry,8fBy4YUH1hQ0TSDIO6OoAy1s1ob2,symmetry-judgement-task,201,1109405,0.0-46.0-6.0-1.0-1.0-12.0,,,,,,,,,,1.0,1.0,,,,5ffaff9cd071dd4e7ce5e31a,08:49:51,03/04/2024
,"<div style=""font-size: 10rem; color: #0000FF"">G</div>",,ospan,letter,8fBy4YUH1hQ0TSDIO6OoAy1s1ob2,html-keyboard-response,202,1110410,0.0-46.0-6.0-1.0-1.0-13.0,,,,,,,,,,,,,,,5ffaff9cd071dd4e7ce5e31a,08:49:51,03/04/2024
2967.0,,,ospan,symmetry,8fBy4YUH1hQ0TSDIO6OoAy1s1ob2,symmetry-judgement-task,203,1115377,0.0-46.0-6.0-1.0-1.0-14.0,,,,,,,,,,1.0,1.0,,,,5ffaff9cd071dd4e7ce5e31a,08:49:51,03/04/2024
,"<div style=""font-size: 10rem; color: #0000FF"">R</div>",,ospan,letter,8fBy4YUH1hQ0TSDIO6OoAy1s1ob2,html-keyboard-response,204,1116381,0.0-46.0-6.0-1.0-1.0-15.0,,,,,,,,,,,,,,,5ffaff9cd071dd4e7ce5e31a,08:49:51,03/04/2024
51833.09999990463,"<div class = numbox><p style=""font-size: 2.4rem"">Please recall the letters you saw to the best of your ability. If you do not remember a particular letter, use the SKIP button.<br><b>(When you are ready to lock in your answer, press ENTER)</b></p><button id = button_1 class = ""square num-button"" onclick = ""recordClick(this)""><div class = content><div class = numbers>C</div></div></button><button id = button_2 class = ""square num-button"" onclick = ""recordClick(this)""><div class = content><div class = numbers>G</div></div></button><button id = button_3 class = ""square num-button"" onclick = ""recordClick(this)""><div class = content><div class = numbers>H</div></div></button><button id = button_4 class = ""square num-button"" onclick = ""recordClick(this)""><div class = content><div class = numbers>J</div></div></button><button id = button_5 class = ""square num-button"" onclick = ""recordClick(this)""><div class = content><div class = numbers>K</div></div></button><button id = button_6 class = ""square num-button"" onclick = ""recordClick(this)""><div class = content><div class = numbers>L</div></div></button><button id = button_7 class = ""square num-button"" onclick = ""recordClick(this)""><div class = content><div class = numbers>N</div></div></button><button id = button_8 class = ""square num-button"" onclick = ""recordClick(this)""><div class = content><div class = numbers>P</div></div></button><button id = button_9 class = ""square num-button"" onclick = ""recordClick(this)""><div class = content><div class = numbers>Q</div></div></button><button id = button_10 class = ""square num-button"" onclick = ""recordClick(this)""><div class = content><div class = numbers>R</div></div></button><button id = button_11 class = ""square num-button"" onclick = ""recordClick(this)""><div class = content><div class = numbers>S</div></div></button><button id = button_12 class = ""square num-button"" onclick = ""recordClick(this)""><div class = content><div class = numbers>Y</div></div></button><button class = clear_button id = ""ClearButton"" onclick = ""clearResponse()"">BACKSPACE</button><button class = blank_button id = ""BlankButton"" onclick = ""blankResponse()"">SKIP</button><p style=""font-size: 2.4rem""><u><b>Current Answer:</b></u></p><br><br><div id=echoed_txt style=""font-size: 5rem; color:blue;""><b></b></div></div>",enter,ospan,retrieval,8fBy4YUH1hQ0TSDIO6OoAy1s1ob2,html-keyboard-response,205,1168968,0.0-46.0-6.0-1.0-2.0,41,34,33,8.0,"[""P"",""S"",""K"",""H"",""N"",""G"",""R""]","[""P"",""H"",""J"",""S"",""Q"",""N"",""G"",""R""]",0.0,1.0,,,,,,,5ffaff9cd071dd4e7ce5e31a,08:49:51,03/04/2024
1156.9000000953674,[''],0,ospan,feedback,8fBy4YUH1hQ0TSDIO6OoAy1s1ob2,html-button-response,206,1170643,0.0-46.0-6.0-1.0-3.0,,,,,,,,,,,,100.0,0.0,,5ffaff9cd071dd4e7ce5e31a,08:49:51,03/04/2024
24418.699999809265,,"{'Q0': 'No ways to improve, I enjoyed testing my memory.'}",ospan,survey_ospan,8fBy4YUH1hQ0TSDIO6OoAy1s1ob2,lmdlab-survey-text,207,1195844,0.0-46.0-7.0,,,,,,,,,,,,,,8fBy4YUH1hQ0TSDIO6OoAy1s1ob2,5ffaff9cd071dd4e7ce5e31a,08:49:51,03/04/2024
1374.9000000953674,<p><p style='font-size: 3rem'>Great work!<br><br>This completes the symmetry and memory task.</p><br><br><br>,0,ospan,finish,8fBy4YUH1hQ0TSDIO6OoAy1s1ob2,html-button-response,208,1197222,0.0-46.0-8.0,41,34,33,,,,,,,,,100.0,,,5ffaff9cd071dd4e7ce5e31a,08:49:51,03/04/2024
