rt,stimulus,response,exp_name,exp_stage,subjectID,trial_type,trial_index,time_elapsed,internal_node_id,ospan_shown,ospan_total,ospan_abs,length,resp_actual,resp_correct,full_correct,num_correct,feedback,accuracy,correct,math_acc,math_warning,databaseID,prolificID,start_time,date
26976.89999985695,<div class = 'left_align' style='font-size: 3.25rem; line-height: 1.3;'><p class = 'center_align'><b>Welcome to the Symmetry and Memory Task</b><br><br><br><br></p>Press 'continue' to show the instructions.<br><br><br><br></div>,0,ospan,instruct,cb0NimUlfggZ5wzjxOopV9SZk8n1,html-button-response,54,469735,0.0-46.0-0.0-0.0-0.0,,,,,,,,,,,,,,,5ac3b688fa3b4e0001735a24,20:07:35,02/04/2024
20937.799999952316,"<div class = 'left_align' style='font-size: 3.25rem; line-height: 1.3;'><p class = 'center_align'><b>Symmetry and Memory Task</b><br><br></p>In this task, you will try to memorize letters you see on the screen<br>while you also view black and white grid pictures.<br><br>In the next few minutes, you will have some practice to get you familiar<br>with how the task works.<br><br>It may be difficult sometimes, but please do not worry about making mistakes!<br><br>We will begin by practicing the letter part of the task.<br><br><br><br></div>",0,ospan,instruct,cb0NimUlfggZ5wzjxOopV9SZk8n1,html-button-response,55,490925,0.0-46.0-0.0-0.0-1.0,,,,,,,,,,,,,,,5ac3b688fa3b4e0001735a24,20:07:35,02/04/2024
9206.900000095367,"<div class = 'left_align' style='font-size: 3.25rem; line-height: 1.3;'>For this practice part, letters will appear on the screen one at a time.<br><br>Try to remember each letter in the order presented.<br><br>After some letters have been shown, you will see a response screen. Your<br>goal is to report the letters you saw <b>in order</b>. If you do not remember<br>a particular letter, you will have the option to leave it blank.<br><br><br><br></div>",0,ospan,instruct,cb0NimUlfggZ5wzjxOopV9SZk8n1,html-button-response,56,500385,0.0-46.0-0.0-0.0-2.0,,,,,,,,,,,,,,,5ac3b688fa3b4e0001735a24,20:07:35,02/04/2024
3737.399999856949,"<div class = 'left_align' style='font-size: 3.25rem; line-height: 1.3;'>Remember, it is very important to get the letters in the same<br>order as you see them.<br><br>When you are ready, you may begin the letter practice.</div><br><br><br><br>",0,ospan,instruct,cb0NimUlfggZ5wzjxOopV9SZk8n1,html-button-response,57,504384,0.0-46.0-0.0-0.0-3.0,,,,,,,,,,,,,,,5ac3b688fa3b4e0001735a24,20:07:35,02/04/2024
,"<p style=""font-size:75px;"">...</p>",,ospan,iti,cb0NimUlfggZ5wzjxOopV9SZk8n1,html-keyboard-response,58,505639,0.0-46.0-0.0-1.0-0.0,,,,,,,,,,,,,,,5ac3b688fa3b4e0001735a24,20:07:35,02/04/2024
,"<div style=""font-size: 10rem; color: #0000FF"">H</div>",,ospan,letter,cb0NimUlfggZ5wzjxOopV9SZk8n1,html-keyboard-response,59,506649,0.0-46.0-0.0-1.0-1.0,,,,,,,,,,,,,,,5ac3b688fa3b4e0001735a24,20:07:35,02/04/2024
,"<div style=""font-size: 10rem; color: #0000FF"">J</div>",,ospan,letter,cb0NimUlfggZ5wzjxOopV9SZk8n1,html-keyboard-response,60,508423,0.0-46.0-0.0-1.0-2.0,,,,,,,,,,,,,,,5ac3b688fa3b4e0001735a24,20:07:35,02/04/2024
13693.199999809265,"<div class = numbox><p style=""font-size: 2.4rem"">Please recall the letters you saw to the best of your ability. If you do not remember a particular letter, use the SKIP button.<br><b>(When you are ready to lock in your answer, press ENTER)</b></p><button id = button_1 class = ""square num-button"" onclick = ""recordClick(this)""><div class = content><div class = numbers>C</div></div></button><button id = button_2 class = ""square num-button"" onclick = ""recordClick(this)""><div class = content><div class = numbers>G</div></div></button><button id = button_3 class = ""square num-button"" onclick = ""recordClick(this)""><div class = content><div class = numbers>H</div></div></button><button id = button_4 class = ""square num-button"" onclick = ""recordClick(this)""><div class = content><div class = numbers>J</div></div></button><button id = button_5 class = ""square num-button"" onclick = ""recordClick(this)""><div class = content><div class = numbers>K</div></div></button><button id = button_6 class = ""square num-button"" onclick = ""recordClick(this)""><div class = content><div class = numbers>L</div></div></button><button id = button_7 class = ""square num-button"" onclick = ""recordClick(this)""><div class = content><div class = numbers>N</div></div></button><button id = button_8 class = ""square num-button"" onclick = ""recordClick(this)""><div class = content><div class = numbers>P</div></div></button><button id = button_9 class = ""square num-button"" onclick = ""recordClick(this)""><div class = content><div class = numbers>Q</div></div></button><button id = button_10 class = ""square num-button"" onclick = ""recordClick(this)""><div class = content><div class = numbers>R</div></div></button><button id = button_11 class = ""square num-button"" onclick = ""recordClick(this)""><div class = content><div class = numbers>S</div></div></button><button id = button_12 class = ""square num-button"" onclick = ""recordClick(this)""><div class = content><div class = numbers>Y</div></div></button><button class = clear_button id = ""ClearButton"" onclick = ""clearResponse()"">BACKSPACE</button><button class = blank_button id = ""BlankButton"" onclick = ""blankResponse()"">SKIP</button><p style=""font-size: 2.4rem""><u><b>Current Answer:</b></u></p><br><br><div id=echoed_txt style=""font-size: 5rem; color:blue;""><b></b></div></div>",enter,ospan,retrieval,cb0NimUlfggZ5wzjxOopV9SZk8n1,html-keyboard-response,61,522879,0.0-46.0-0.0-1.0-3.0,NA,NA,NA,2.0,"[""H"",""J""]","[""H"",""J""]",1.0,2.0,"['<font color=""green"">H</font>', '<font color=""green"">J</font>']",,,,,,5ac3b688fa3b4e0001735a24,20:07:35,02/04/2024
1823.2000000476837,"['<p style=""font-size:44px"">Letters:<br><br><br><font color=""green"">H</font> <font color=""green"">J</font></p><br><br>']",0,ospan,practice_feedback,cb0NimUlfggZ5wzjxOopV9SZk8n1,html-button-response,62,525220,0.0-46.0-0.0-1.0-4.0,,,,,,,,,,,,,,,5ac3b688fa3b4e0001735a24,20:07:35,02/04/2024
,"<p style=""font-size:75px;"">...</p>",,ospan,iti,cb0NimUlfggZ5wzjxOopV9SZk8n1,html-keyboard-response,63,526227,0.0-46.0-0.0-2.0-0.0,,,,,,,,,,,,,,,5ac3b688fa3b4e0001735a24,20:07:35,02/04/2024
,"<div style=""font-size: 10rem; color: #0000FF"">H</div>",,ospan,letter,cb0NimUlfggZ5wzjxOopV9SZk8n1,html-keyboard-response,64,527237,0.0-46.0-0.0-2.0-1.0,,,,,,,,,,,,,,,5ac3b688fa3b4e0001735a24,20:07:35,02/04/2024
,"<div style=""font-size: 10rem; color: #0000FF"">R</div>",,ospan,letter,cb0NimUlfggZ5wzjxOopV9SZk8n1,html-keyboard-response,65,529012,0.0-46.0-0.0-2.0-2.0,,,,,,,,,,,,,,,5ac3b688fa3b4e0001735a24,20:07:35,02/04/2024
,"<div style=""font-size: 10rem; color: #0000FF"">Q</div>",,ospan,letter,cb0NimUlfggZ5wzjxOopV9SZk8n1,html-keyboard-response,66,530781,0.0-46.0-0.0-2.0-3.0,,,,,,,,,,,,,,,5ac3b688fa3b4e0001735a24,20:07:35,02/04/2024
4596.299999952316,"<div class = numbox><p style=""font-size: 2.4rem"">Please recall the letters you saw to the best of your ability. If you do not remember a particular letter, use the SKIP button.<br><b>(When you are ready to lock in your answer, press ENTER)</b></p><button id = button_1 class = ""square num-button"" onclick = ""recordClick(this)""><div class = content><div class = numbers>C</div></div></button><button id = button_2 class = ""square num-button"" onclick = ""recordClick(this)""><div class = content><div class = numbers>G</div></div></button><button id = button_3 class = ""square num-button"" onclick = ""recordClick(this)""><div class = content><div class = numbers>H</div></div></button><button id = button_4 class = ""square num-button"" onclick = ""recordClick(this)""><div class = content><div class = numbers>J</div></div></button><button id = button_5 class = ""square num-button"" onclick = ""recordClick(this)""><div class = content><div class = numbers>K</div></div></button><button id = button_6 class = ""square num-button"" onclick = ""recordClick(this)""><div class = content><div class = numbers>L</div></div></button><button id = button_7 class = ""square num-button"" onclick = ""recordClick(this)""><div class = content><div class = numbers>N</div></div></button><button id = button_8 class = ""square num-button"" onclick = ""recordClick(this)""><div class = content><div class = numbers>P</div></div></button><button id = button_9 class = ""square num-button"" onclick = ""recordClick(this)""><div class = content><div class = numbers>Q</div></div></button><button id = button_10 class = ""square num-button"" onclick = ""recordClick(this)""><div class = content><div class = numbers>R</div></div></button><button id = button_11 class = ""square num-button"" onclick = ""recordClick(this)""><div class = content><div class = numbers>S</div></div></button><button id = button_12 class = ""square num-button"" onclick = ""recordClick(this)""><div class = content><div class = numbers>Y</div></div></button><button class = clear_button id = ""ClearButton"" onclick = ""clearResponse()"">BACKSPACE</button><button class = blank_button id = ""BlankButton"" onclick = ""blankResponse()"">SKIP</button><p style=""font-size: 2.4rem""><u><b>Current Answer:</b></u></p><br><br><div id=echoed_txt style=""font-size: 5rem; color:blue;""><b></b></div></div>",enter,ospan,retrieval,cb0NimUlfggZ5wzjxOopV9SZk8n1,html-keyboard-response,67,536141,0.0-46.0-0.0-2.0-4.0,NA,NA,NA,3.0,"[""H"",""R"",""Q""]","[""H"",""R"",""Q""]",1.0,3.0,"['<font color=""green"">H</font>', '<font color=""green"">R</font>', '<font color=""green"">Q</font>']",,,,,,5ac3b688fa3b4e0001735a24,20:07:35,02/04/2024
1479.9000000953674,"['<p style=""font-size:44px"">Letters:<br><br><br><font color=""green"">H</font> <font color=""green"">R</font> <font color=""green"">Q</font></p><br><br>']",0,ospan,practice_feedback,cb0NimUlfggZ5wzjxOopV9SZk8n1,html-button-response,68,538135,0.0-46.0-0.0-2.0-5.0,,,,,,,,,,,,,,,5ac3b688fa3b4e0001735a24,20:07:35,02/04/2024
15933.599999904633,"<div class = 'left_align' style='font-size: 3.25rem; line-height: 1.3;'>Now you will practice doing the <b>symmetry judgment part</b> of the experiment.<br><br>A black and white grid picture will appear on the screen and you have to judge if it is <br>symmetrical or asymetrical.<br><br>A picture is 'mirror' symmetrical if its left half is identical to the right half when flipped.<br>Here are examples of a symmetrical and an asymetrical picture:<br><br><center><img src='Stimuli/img/symm_instructions_extra.png' style='height:420px; width:900'></img></center><br>To judge symmetry, imagine you were to fold each picture down the middle, like a book –<br>would the left half match the right half when folded onto each other?<br><br></div><br>",0,ospan,instruct,cb0NimUlfggZ5wzjxOopV9SZk8n1,html-button-response,69,554071,0.0-46.0-1.0-0.0-0.0,,,,,,,,,,,,,,,5ac3b688fa3b4e0001735a24,20:07:35,02/04/2024
7519.399999856949,"<div class = 'left_align' style='font-size: 3.25rem; line-height: 1.3;'>When you have viewed the picture and determined whether it is symmetrical or not,<br>you can <b>click the Yes or No button</b> below to answer.<br><br>If you take longer than 15 seconds, it will continue automatically<br>and record the answer as an error.</div><br>",0,ospan,instruct,cb0NimUlfggZ5wzjxOopV9SZk8n1,html-button-response,70,561843,0.0-46.0-1.0-0.0-1.0,,,,,,,,,,,,,,,5ac3b688fa3b4e0001735a24,20:07:35,02/04/2024
5867.399999856949,"<div class = 'left_align' style='font-size: 3.25rem; line-height: 1.3;'>It is <b>very</b> important that you make the symmetry judgment correctly.<br><br>It is also important that you try and judge the picture as quickly as you can.<br><br>When you are ready, click on the button below to try some practice problems.</div><br><br><br><br>",0,ospan,instruct,cb0NimUlfggZ5wzjxOopV9SZk8n1,html-button-response,71,567972,0.0-46.0-1.0-0.0-2.0,,,,,,,,,,,,,,,5ac3b688fa3b4e0001735a24,20:07:35,02/04/2024
2079.0,,,ospan,symmetry,cb0NimUlfggZ5wzjxOopV9SZk8n1,symmetry-judgement-task,72,570872,0.0-46.0-1.0-1.0-0.0,,,,,,,,,,1.0,1.0,,,,5ac3b688fa3b4e0001735a24,20:07:35,02/04/2024
,"<p style=""color:green; font-size: 35px"">Correct</p>",,ospan,feedback,cb0NimUlfggZ5wzjxOopV9SZk8n1,html-keyboard-response,73,571635,0.0-46.0-1.0-1.0-1.0,,,,,,,,,,,,,,,5ac3b688fa3b4e0001735a24,20:07:35,02/04/2024
1743.0,,,ospan,symmetry,cb0NimUlfggZ5wzjxOopV9SZk8n1,symmetry-judgement-task,74,576037,0.0-46.0-1.0-1.0-2.0,,,,,,,,,,1.0,1.0,,,,5ac3b688fa3b4e0001735a24,20:07:35,02/04/2024
,"<p style=""color:green; font-size: 35px"">Correct</p>",,ospan,feedback,cb0NimUlfggZ5wzjxOopV9SZk8n1,html-keyboard-response,75,576802,0.0-46.0-1.0-1.0-3.0,,,,,,,,,,,,,,,5ac3b688fa3b4e0001735a24,20:07:35,02/04/2024
1955.0,,,ospan,symmetry,cb0NimUlfggZ5wzjxOopV9SZk8n1,symmetry-judgement-task,76,581441,0.0-46.0-1.0-1.0-4.0,,,,,,,,,,1.0,1.0,,,,5ac3b688fa3b4e0001735a24,20:07:35,02/04/2024
,"<p style=""color:green; font-size: 35px"">Correct</p>",,ospan,feedback,cb0NimUlfggZ5wzjxOopV9SZk8n1,html-keyboard-response,77,582201,0.0-46.0-1.0-1.0-5.0,,,,,,,,,,,,,,,5ac3b688fa3b4e0001735a24,20:07:35,02/04/2024
2015.5999999046326,"<p style=""font-size: 3rem;"">You responded correctly on 3 of 3 symmetry judgments. Good job!</p><br><br>",0,ospan,practice,cb0NimUlfggZ5wzjxOopV9SZk8n1,html-button-response,78,586228,0.0-46.0-1.0-2.0,,,,,,,,,,,,,,,5ac3b688fa3b4e0001735a24,20:07:35,02/04/2024
10176.399999856949,"<div class = 'left_align' style='font-size: 3.25rem; line-height: 1.3;'>Now you will practice doing both parts of the experiment at the same time.<br><br>In the next practice set, you will be given one grid picture to judge.<br>Then letter will appear on the screen. Try to remember the letter.<br><br>It is <b>very important</b> to make the symmetry judgment as quickly and accurately as possible.<br><br>Just as before, once you have make the symmetry judgment, you can click Yes or No.<br><b>Note that you will no longer see Correct or Incorrect feedback.</div><br><br><br><br>",0,ospan,instruct,cb0NimUlfggZ5wzjxOopV9SZk8n1,html-button-response,79,596659,0.0-46.0-2.0-0.0-0.0,,,,,,,,,,,,,,,5ac3b688fa3b4e0001735a24,20:07:35,02/04/2024
6366.5,"<div class = 'left_align' style='font-size: 3.25rem; line-height: 1.3;'>After the letter goes away, another grid picture will appear, and then<br>another letter.<br><br>At the end of each set of letters and grids, you will recall the letters to the best<br>of your ability. Remember, try your best to get the letters in the correct order.<br><br>It is important to <b>quickly</b> and <b>accurately</b> make the symmetry judgments.</div><br><br><br><br>",0,ospan,instruct,cb0NimUlfggZ5wzjxOopV9SZk8n1,html-button-response,80,603288,0.0-46.0-2.0-0.0-1.0,,,,,,,,,,,,,,,5ac3b688fa3b4e0001735a24,20:07:35,02/04/2024
11886.299999952316,"<div class = 'left_align' style='font-size: 3.25rem; line-height: 1.3;'>On the feedback screen, if you are not doing well at the symmetry judgments,<br>you will also see a warning in the middle. This indicates your percent <br>correct for the grid pictures for the entire experiment.<br><br>It is <b>very</b> important for you to keep accuracy at least at 85%: <u>We can only use<br>data where the participant was at least 85% accurate on the judgments.</u> Therefore,<br> please try your best to perform well on the symmetry judgments, <b>at the same time</b><br>doing your best to recall as many letters as possible.<br><br>Click the button to try some practice problems.</div><br><br><br><br>",0,ospan,instruct,cb0NimUlfggZ5wzjxOopV9SZk8n1,html-button-response,81,615435,0.0-46.0-2.0-0.0-2.0,,,,,,,,,,,,,,,5ac3b688fa3b4e0001735a24,20:07:35,02/04/2024
,"<p style=""font-size:75px;"">...</p>",,ospan,iti,cb0NimUlfggZ5wzjxOopV9SZk8n1,html-keyboard-response,82,616694,0.0-46.0-2.0-1.0-0.0,,,,,,,,,,,,,,,5ac3b688fa3b4e0001735a24,20:07:35,02/04/2024
1564.0,,,ospan,symmetry,cb0NimUlfggZ5wzjxOopV9SZk8n1,symmetry-judgement-task,83,619427,0.0-46.0-2.0-1.0-1.0-0.0,,,,,,,,,,1.0,1.0,,,,5ac3b688fa3b4e0001735a24,20:07:35,02/04/2024
,"<div style=""font-size: 10rem; color: #0000FF"">P</div>",,ospan,letter,cb0NimUlfggZ5wzjxOopV9SZk8n1,html-keyboard-response,84,620438,0.0-46.0-2.0-1.0-1.0-1.0,,,,,,,,,,,,,,,5ac3b688fa3b4e0001735a24,20:07:35,02/04/2024
1526.0,,,ospan,symmetry,cb0NimUlfggZ5wzjxOopV9SZk8n1,symmetry-judgement-task,85,623874,0.0-46.0-2.0-1.0-1.0-2.0,,,,,,,,,,1.0,1.0,,,,5ac3b688fa3b4e0001735a24,20:07:35,02/04/2024
,"<div style=""font-size: 10rem; color: #0000FF"">R</div>",,ospan,letter,cb0NimUlfggZ5wzjxOopV9SZk8n1,html-keyboard-response,86,624889,0.0-46.0-2.0-1.0-1.0-3.0,,,,,,,,,,,,,,,5ac3b688fa3b4e0001735a24,20:07:35,02/04/2024
1521.0,,,ospan,symmetry,cb0NimUlfggZ5wzjxOopV9SZk8n1,symmetry-judgement-task,87,628320,0.0-46.0-2.0-1.0-1.0-4.0,,,,,,,,,,1.0,1.0,,,,5ac3b688fa3b4e0001735a24,20:07:35,02/04/2024
,"<div style=""font-size: 10rem; color: #0000FF"">S</div>",,ospan,letter,cb0NimUlfggZ5wzjxOopV9SZk8n1,html-keyboard-response,88,629326,0.0-46.0-2.0-1.0-1.0-5.0,,,,,,,,,,,,,,,5ac3b688fa3b4e0001735a24,20:07:35,02/04/2024
4074.7000000476837,"<div class = numbox><p style=""font-size: 2.4rem"">Please recall the letters you saw to the best of your ability. If you do not remember a particular letter, use the SKIP button.<br><b>(When you are ready to lock in your answer, press ENTER)</b></p><button id = button_1 class = ""square num-button"" onclick = ""recordClick(this)""><div class = content><div class = numbers>C</div></div></button><button id = button_2 class = ""square num-button"" onclick = ""recordClick(this)""><div class = content><div class = numbers>G</div></div></button><button id = button_3 class = ""square num-button"" onclick = ""recordClick(this)""><div class = content><div class = numbers>H</div></div></button><button id = button_4 class = ""square num-button"" onclick = ""recordClick(this)""><div class = content><div class = numbers>J</div></div></button><button id = button_5 class = ""square num-button"" onclick = ""recordClick(this)""><div class = content><div class = numbers>K</div></div></button><button id = button_6 class = ""square num-button"" onclick = ""recordClick(this)""><div class = content><div class = numbers>L</div></div></button><button id = button_7 class = ""square num-button"" onclick = ""recordClick(this)""><div class = content><div class = numbers>N</div></div></button><button id = button_8 class = ""square num-button"" onclick = ""recordClick(this)""><div class = content><div class = numbers>P</div></div></button><button id = button_9 class = ""square num-button"" onclick = ""recordClick(this)""><div class = content><div class = numbers>Q</div></div></button><button id = button_10 class = ""square num-button"" onclick = ""recordClick(this)""><div class = content><div class = numbers>R</div></div></button><button id = button_11 class = ""square num-button"" onclick = ""recordClick(this)""><div class = content><div class = numbers>S</div></div></button><button id = button_12 class = ""square num-button"" onclick = ""recordClick(this)""><div class = content><div class = numbers>Y</div></div></button><button class = clear_button id = ""ClearButton"" onclick = ""clearResponse()"">BACKSPACE</button><button class = blank_button id = ""BlankButton"" onclick = ""blankResponse()"">SKIP</button><p style=""font-size: 2.4rem""><u><b>Current Answer:</b></u></p><br><br><div id=echoed_txt style=""font-size: 5rem; color:blue;""><b></b></div></div>",enter,ospan,retrieval,cb0NimUlfggZ5wzjxOopV9SZk8n1,html-keyboard-response,89,634154,0.0-46.0-2.0-1.0-2.0-0.0,NA,NA,NA,3.0,"[""P"",""R"",""S""]","[""P"",""R"",""S""]",1.0,3.0,"['<font color=""green"">P</font>', '<font color=""green"">R</font>', '<font color=""green"">S</font>']",,,,,,5ac3b688fa3b4e0001735a24,20:07:35,02/04/2024
2256.9000000953674,"['<p style=""font-size:44px"">Letters:<br><br><br><font color=""green"">P</font> <font color=""green"">R</font> <font color=""green"">S</font></p><br><br><p style=""font-size:30px"">Symmetry:<br><br><font color=""green"">100%</font></p><br><br>']",0,ospan,practice_feedback,cb0NimUlfggZ5wzjxOopV9SZk8n1,html-button-response,90,636929,0.0-46.0-2.0-1.0-2.0-1.0,,,,,,,,,,,,,,,5ac3b688fa3b4e0001735a24,20:07:35,02/04/2024
,"<p style=""font-size:75px;"">...</p>",,ospan,iti,cb0NimUlfggZ5wzjxOopV9SZk8n1,html-keyboard-response,91,637946,0.0-46.0-2.0-2.0-0.0,,,,,,,,,,,,,,,5ac3b688fa3b4e0001735a24,20:07:35,02/04/2024
1731.0,,,ospan,symmetry,cb0NimUlfggZ5wzjxOopV9SZk8n1,symmetry-judgement-task,92,640733,0.0-46.0-2.0-2.0-1.0-0.0,,,,,,,,,,1.0,1.0,,,,5ac3b688fa3b4e0001735a24,20:07:35,02/04/2024
,"<div style=""font-size: 10rem; color: #0000FF"">Y</div>",,ospan,letter,cb0NimUlfggZ5wzjxOopV9SZk8n1,html-keyboard-response,93,641742,0.0-46.0-2.0-2.0-1.0-1.0,,,,,,,,,,,,,,,5ac3b688fa3b4e0001735a24,20:07:35,02/04/2024
1254.0,,,ospan,symmetry,cb0NimUlfggZ5wzjxOopV9SZk8n1,symmetry-judgement-task,94,644901,0.0-46.0-2.0-2.0-1.0-2.0,,,,,,,,,,1.0,1.0,,,,5ac3b688fa3b4e0001735a24,20:07:35,02/04/2024
,"<div style=""font-size: 10rem; color: #0000FF"">K</div>",,ospan,letter,cb0NimUlfggZ5wzjxOopV9SZk8n1,html-keyboard-response,95,645916,0.0-46.0-2.0-2.0-1.0-3.0,,,,,,,,,,,,,,,5ac3b688fa3b4e0001735a24,20:07:35,02/04/2024
1321.0,,,ospan,symmetry,cb0NimUlfggZ5wzjxOopV9SZk8n1,symmetry-judgement-task,96,649144,0.0-46.0-2.0-2.0-1.0-4.0,,,,,,,,,,1.0,1.0,,,,5ac3b688fa3b4e0001735a24,20:07:35,02/04/2024
,"<div style=""font-size: 10rem; color: #0000FF"">P</div>",,ospan,letter,cb0NimUlfggZ5wzjxOopV9SZk8n1,html-keyboard-response,97,650149,0.0-46.0-2.0-2.0-1.0-5.0,,,,,,,,,,,,,,,5ac3b688fa3b4e0001735a24,20:07:35,02/04/2024
4663.899999856949,"<div class = numbox><p style=""font-size: 2.4rem"">Please recall the letters you saw to the best of your ability. If you do not remember a particular letter, use the SKIP button.<br><b>(When you are ready to lock in your answer, press ENTER)</b></p><button id = button_1 class = ""square num-button"" onclick = ""recordClick(this)""><div class = content><div class = numbers>C</div></div></button><button id = button_2 class = ""square num-button"" onclick = ""recordClick(this)""><div class = content><div class = numbers>G</div></div></button><button id = button_3 class = ""square num-button"" onclick = ""recordClick(this)""><div class = content><div class = numbers>H</div></div></button><button id = button_4 class = ""square num-button"" onclick = ""recordClick(this)""><div class = content><div class = numbers>J</div></div></button><button id = button_5 class = ""square num-button"" onclick = ""recordClick(this)""><div class = content><div class = numbers>K</div></div></button><button id = button_6 class = ""square num-button"" onclick = ""recordClick(this)""><div class = content><div class = numbers>L</div></div></button><button id = button_7 class = ""square num-button"" onclick = ""recordClick(this)""><div class = content><div class = numbers>N</div></div></button><button id = button_8 class = ""square num-button"" onclick = ""recordClick(this)""><div class = content><div class = numbers>P</div></div></button><button id = button_9 class = ""square num-button"" onclick = ""recordClick(this)""><div class = content><div class = numbers>Q</div></div></button><button id = button_10 class = ""square num-button"" onclick = ""recordClick(this)""><div class = content><div class = numbers>R</div></div></button><button id = button_11 class = ""square num-button"" onclick = ""recordClick(this)""><div class = content><div class = numbers>S</div></div></button><button id = button_12 class = ""square num-button"" onclick = ""recordClick(this)""><div class = content><div class = numbers>Y</div></div></button><button class = clear_button id = ""ClearButton"" onclick = ""clearResponse()"">BACKSPACE</button><button class = blank_button id = ""BlankButton"" onclick = ""blankResponse()"">SKIP</button><p style=""font-size: 2.4rem""><u><b>Current Answer:</b></u></p><br><br><div id=echoed_txt style=""font-size: 5rem; color:blue;""><b></b></div></div>",enter,ospan,retrieval,cb0NimUlfggZ5wzjxOopV9SZk8n1,html-keyboard-response,98,655575,0.0-46.0-2.0-2.0-2.0-0.0,NA,NA,NA,3.0,"[""Y"",""K"",""P""]","[""Y"",""K"",""P""]",1.0,3.0,"['<font color=""green"">Y</font>', '<font color=""green"">K</font>', '<font color=""green"">P</font>']",,,,,,5ac3b688fa3b4e0001735a24,20:07:35,02/04/2024
1712.7999999523163,"['<p style=""font-size:44px"">Letters:<br><br><br><font color=""green"">Y</font> <font color=""green"">K</font> <font color=""green"">P</font></p><br><br><p style=""font-size:30px"">Symmetry:<br><br><font color=""green"">100%</font></p><br><br>']",0,ospan,practice_feedback,cb0NimUlfggZ5wzjxOopV9SZk8n1,html-button-response,99,657805,0.0-46.0-2.0-2.0-2.0-1.0,,,,,,,,,,,,,,,5ac3b688fa3b4e0001735a24,20:07:35,02/04/2024
28339.299999952316,"<div class = 'left_align' style='font-size: 3rem; line-height: 1.3;'><b>Great work! That is the end of practice.</b><br><br>The real trials will look just like the practice trials you just completed.<br><br><u>Here, you will not see feedback</u>. First, you will see an grid picture to judge,<br>then a letter to remember. When the recall screen appears, report the letters in the<br>order presented. If you forget a letter, remember to use the <b>blank</b> button to move to the<br>next letter. Some of the sets will have more symmetry grids and letters than others.<br><br>It is important that you do your best on both the symmetry judgments and the letter recall<br>parts of the experiment. For for the symmetry judgments, try to work as <b>quickly</b> and <br>as <b>accurately</b> as possible. Remember to keep your symmetry accuracy at 85% or above.<br><br><b>For the letters, do NOT use any external aid (e.g., writing on paper, electronic device).</b><br><br>It is <u>very important</u> to our experiment to have a <b>true</b> view of your real performance.<br><br>Do not worry if you miss some when it gets hard! This task is meant to be very challenging!<br><br>Click the button to begin.</div><br><br><br><br>",0,ospan,starting_real_here,cb0NimUlfggZ5wzjxOopV9SZk8n1,html-button-response,100,686147,0.0-46.0-2.0-3.0,,,,,,,,,,,,,,,5ac3b688fa3b4e0001735a24,20:07:35,02/04/2024
,"<p style=""font-size:75px;"">...</p>",,ospan,iti,cb0NimUlfggZ5wzjxOopV9SZk8n1,html-keyboard-response,101,687415,0.0-46.0-3.0-0.0-0.0,,,,,,,,,,,,,,,5ac3b688fa3b4e0001735a24,20:07:35,02/04/2024
1544.0,,,ospan,symmetry,cb0NimUlfggZ5wzjxOopV9SZk8n1,symmetry-judgement-task,102,690125,0.0-46.0-3.0-0.0-1.0-0.0,,,,,,,,,,1.0,1.0,,,,5ac3b688fa3b4e0001735a24,20:07:35,02/04/2024
,"<div style=""font-size: 10rem; color: #0000FF"">H</div>",,ospan,letter,cb0NimUlfggZ5wzjxOopV9SZk8n1,html-keyboard-response,103,691137,0.0-46.0-3.0-0.0-1.0-1.0,,,,,,,,,,,,,,,5ac3b688fa3b4e0001735a24,20:07:35,02/04/2024
1204.0,,,ospan,symmetry,cb0NimUlfggZ5wzjxOopV9SZk8n1,symmetry-judgement-task,104,694257,0.0-46.0-3.0-0.0-1.0-2.0,,,,,,,,,,1.0,1.0,,,,5ac3b688fa3b4e0001735a24,20:07:35,02/04/2024
,"<div style=""font-size: 10rem; color: #0000FF"">N</div>",,ospan,letter,cb0NimUlfggZ5wzjxOopV9SZk8n1,html-keyboard-response,105,695264,0.0-46.0-3.0-0.0-1.0-3.0,,,,,,,,,,,,,,,5ac3b688fa3b4e0001735a24,20:07:35,02/04/2024
1260.0,,,ospan,symmetry,cb0NimUlfggZ5wzjxOopV9SZk8n1,symmetry-judgement-task,106,698453,0.0-46.0-3.0-0.0-1.0-4.0,,,,,,,,,,1.0,1.0,,,,5ac3b688fa3b4e0001735a24,20:07:35,02/04/2024
,"<div style=""font-size: 10rem; color: #0000FF"">G</div>",,ospan,letter,cb0NimUlfggZ5wzjxOopV9SZk8n1,html-keyboard-response,107,699463,0.0-46.0-3.0-0.0-1.0-5.0,,,,,,,,,,,,,,,5ac3b688fa3b4e0001735a24,20:07:35,02/04/2024
3453.600000143051,"<div class = numbox><p style=""font-size: 2.4rem"">Please recall the letters you saw to the best of your ability. If you do not remember a particular letter, use the SKIP button.<br><b>(When you are ready to lock in your answer, press ENTER)</b></p><button id = button_1 class = ""square num-button"" onclick = ""recordClick(this)""><div class = content><div class = numbers>C</div></div></button><button id = button_2 class = ""square num-button"" onclick = ""recordClick(this)""><div class = content><div class = numbers>G</div></div></button><button id = button_3 class = ""square num-button"" onclick = ""recordClick(this)""><div class = content><div class = numbers>H</div></div></button><button id = button_4 class = ""square num-button"" onclick = ""recordClick(this)""><div class = content><div class = numbers>J</div></div></button><button id = button_5 class = ""square num-button"" onclick = ""recordClick(this)""><div class = content><div class = numbers>K</div></div></button><button id = button_6 class = ""square num-button"" onclick = ""recordClick(this)""><div class = content><div class = numbers>L</div></div></button><button id = button_7 class = ""square num-button"" onclick = ""recordClick(this)""><div class = content><div class = numbers>N</div></div></button><button id = button_8 class = ""square num-button"" onclick = ""recordClick(this)""><div class = content><div class = numbers>P</div></div></button><button id = button_9 class = ""square num-button"" onclick = ""recordClick(this)""><div class = content><div class = numbers>Q</div></div></button><button id = button_10 class = ""square num-button"" onclick = ""recordClick(this)""><div class = content><div class = numbers>R</div></div></button><button id = button_11 class = ""square num-button"" onclick = ""recordClick(this)""><div class = content><div class = numbers>S</div></div></button><button id = button_12 class = ""square num-button"" onclick = ""recordClick(this)""><div class = content><div class = numbers>Y</div></div></button><button class = clear_button id = ""ClearButton"" onclick = ""clearResponse()"">BACKSPACE</button><button class = blank_button id = ""BlankButton"" onclick = ""blankResponse()"">SKIP</button><p style=""font-size: 2.4rem""><u><b>Current Answer:</b></u></p><br><br><div id=echoed_txt style=""font-size: 5rem; color:blue;""><b></b></div></div>",enter,ospan,retrieval,cb0NimUlfggZ5wzjxOopV9SZk8n1,html-keyboard-response,108,703682,0.0-46.0-3.0-0.0-2.0,3,3,3,3.0,"[""H"",""N"",""G""]","[""H"",""N"",""G""]",1.0,3.0,,,,,,,5ac3b688fa3b4e0001735a24,20:07:35,02/04/2024
1249.2000000476837,[''],0,ospan,feedback,cb0NimUlfggZ5wzjxOopV9SZk8n1,html-button-response,109,705444,0.0-46.0-3.0-0.0-3.0,,,,,,,,,,,,100.0,0.0,,5ac3b688fa3b4e0001735a24,20:07:35,02/04/2024
,"<p style=""font-size:75px;"">...</p>",,ospan,iti,cb0NimUlfggZ5wzjxOopV9SZk8n1,html-keyboard-response,110,706448,0.0-46.0-4.0-0.0-0.0,,,,,,,,,,,,,,,5ac3b688fa3b4e0001735a24,20:07:35,02/04/2024
1528.0,,,ospan,symmetry,cb0NimUlfggZ5wzjxOopV9SZk8n1,symmetry-judgement-task,111,709024,0.0-46.0-4.0-0.0-1.0-0.0,,,,,,,,,,1.0,1.0,,,,5ac3b688fa3b4e0001735a24,20:07:35,02/04/2024
,"<div style=""font-size: 10rem; color: #0000FF"">G</div>",,ospan,letter,cb0NimUlfggZ5wzjxOopV9SZk8n1,html-keyboard-response,112,710030,0.0-46.0-4.0-0.0-1.0-1.0,,,,,,,,,,,,,,,5ac3b688fa3b4e0001735a24,20:07:35,02/04/2024
1587.0,,,ospan,symmetry,cb0NimUlfggZ5wzjxOopV9SZk8n1,symmetry-judgement-task,113,713542,0.0-46.0-4.0-0.0-1.0-2.0,,,,,,,,,,1.0,1.0,,,,5ac3b688fa3b4e0001735a24,20:07:35,02/04/2024
,"<div style=""font-size: 10rem; color: #0000FF"">K</div>",,ospan,letter,cb0NimUlfggZ5wzjxOopV9SZk8n1,html-keyboard-response,114,714550,0.0-46.0-4.0-0.0-1.0-3.0,,,,,,,,,,,,,,,5ac3b688fa3b4e0001735a24,20:07:35,02/04/2024
1535.0,,,ospan,symmetry,cb0NimUlfggZ5wzjxOopV9SZk8n1,symmetry-judgement-task,115,718088,0.0-46.0-4.0-0.0-1.0-4.0,,,,,,,,,,1.0,1.0,,,,5ac3b688fa3b4e0001735a24,20:07:35,02/04/2024
,"<div style=""font-size: 10rem; color: #0000FF"">L</div>",,ospan,letter,cb0NimUlfggZ5wzjxOopV9SZk8n1,html-keyboard-response,116,719094,0.0-46.0-4.0-0.0-1.0-5.0,,,,,,,,,,,,,,,5ac3b688fa3b4e0001735a24,20:07:35,02/04/2024
1322.0,,,ospan,symmetry,cb0NimUlfggZ5wzjxOopV9SZk8n1,symmetry-judgement-task,117,722386,0.0-46.0-4.0-0.0-1.0-6.0,,,,,,,,,,1.0,1.0,,,,5ac3b688fa3b4e0001735a24,20:07:35,02/04/2024
,"<div style=""font-size: 10rem; color: #0000FF"">Q</div>",,ospan,letter,cb0NimUlfggZ5wzjxOopV9SZk8n1,html-keyboard-response,118,723396,0.0-46.0-4.0-0.0-1.0-7.0,,,,,,,,,,,,,,,5ac3b688fa3b4e0001735a24,20:07:35,02/04/2024
4822.700000047684,"<div class = numbox><p style=""font-size: 2.4rem"">Please recall the letters you saw to the best of your ability. If you do not remember a particular letter, use the SKIP button.<br><b>(When you are ready to lock in your answer, press ENTER)</b></p><button id = button_1 class = ""square num-button"" onclick = ""recordClick(this)""><div class = content><div class = numbers>C</div></div></button><button id = button_2 class = ""square num-button"" onclick = ""recordClick(this)""><div class = content><div class = numbers>G</div></div></button><button id = button_3 class = ""square num-button"" onclick = ""recordClick(this)""><div class = content><div class = numbers>H</div></div></button><button id = button_4 class = ""square num-button"" onclick = ""recordClick(this)""><div class = content><div class = numbers>J</div></div></button><button id = button_5 class = ""square num-button"" onclick = ""recordClick(this)""><div class = content><div class = numbers>K</div></div></button><button id = button_6 class = ""square num-button"" onclick = ""recordClick(this)""><div class = content><div class = numbers>L</div></div></button><button id = button_7 class = ""square num-button"" onclick = ""recordClick(this)""><div class = content><div class = numbers>N</div></div></button><button id = button_8 class = ""square num-button"" onclick = ""recordClick(this)""><div class = content><div class = numbers>P</div></div></button><button id = button_9 class = ""square num-button"" onclick = ""recordClick(this)""><div class = content><div class = numbers>Q</div></div></button><button id = button_10 class = ""square num-button"" onclick = ""recordClick(this)""><div class = content><div class = numbers>R</div></div></button><button id = button_11 class = ""square num-button"" onclick = ""recordClick(this)""><div class = content><div class = numbers>S</div></div></button><button id = button_12 class = ""square num-button"" onclick = ""recordClick(this)""><div class = content><div class = numbers>Y</div></div></button><button class = clear_button id = ""ClearButton"" onclick = ""clearResponse()"">BACKSPACE</button><button class = blank_button id = ""BlankButton"" onclick = ""blankResponse()"">SKIP</button><p style=""font-size: 2.4rem""><u><b>Current Answer:</b></u></p><br><br><div id=echoed_txt style=""font-size: 5rem; color:blue;""><b></b></div></div>",enter,ospan,retrieval,cb0NimUlfggZ5wzjxOopV9SZk8n1,html-keyboard-response,119,728983,0.0-46.0-4.0-0.0-2.0,7,7,7,4.0,"[""G"",""K"",""L"",""Q""]","[""G"",""K"",""L"",""Q""]",1.0,4.0,,,,,,,5ac3b688fa3b4e0001735a24,20:07:35,02/04/2024
1172.7000000476837,[''],0,ospan,feedback,cb0NimUlfggZ5wzjxOopV9SZk8n1,html-button-response,120,730662,0.0-46.0-4.0-0.0-3.0,,,,,,,,,,,,100.0,0.0,,5ac3b688fa3b4e0001735a24,20:07:35,02/04/2024
,"<p style=""font-size:75px;"">...</p>",,ospan,iti,cb0NimUlfggZ5wzjxOopV9SZk8n1,html-keyboard-response,121,731664,0.0-46.0-4.0-1.0-0.0,,,,,,,,,,,,,,,5ac3b688fa3b4e0001735a24,20:07:35,02/04/2024
1167.0,,,ospan,symmetry,cb0NimUlfggZ5wzjxOopV9SZk8n1,symmetry-judgement-task,122,733994,0.0-46.0-4.0-1.0-1.0-0.0,,,,,,,,,,1.0,1.0,,,,5ac3b688fa3b4e0001735a24,20:07:35,02/04/2024
,"<div style=""font-size: 10rem; color: #0000FF"">Q</div>",,ospan,letter,cb0NimUlfggZ5wzjxOopV9SZk8n1,html-keyboard-response,123,735011,0.0-46.0-4.0-1.0-1.0-1.0,,,,,,,,,,,,,,,5ac3b688fa3b4e0001735a24,20:07:35,02/04/2024
1679.0,,,ospan,symmetry,cb0NimUlfggZ5wzjxOopV9SZk8n1,symmetry-judgement-task,124,738616,0.0-46.0-4.0-1.0-1.0-2.0,,,,,,,,,,1.0,1.0,,,,5ac3b688fa3b4e0001735a24,20:07:35,02/04/2024
,"<div style=""font-size: 10rem; color: #0000FF"">H</div>",,ospan,letter,cb0NimUlfggZ5wzjxOopV9SZk8n1,html-keyboard-response,125,739622,0.0-46.0-4.0-1.0-1.0-3.0,,,,,,,,,,,,,,,5ac3b688fa3b4e0001735a24,20:07:35,02/04/2024
1462.0,,,ospan,symmetry,cb0NimUlfggZ5wzjxOopV9SZk8n1,symmetry-judgement-task,126,743011,0.0-46.0-4.0-1.0-1.0-4.0,,,,,,,,,,1.0,1.0,,,,5ac3b688fa3b4e0001735a24,20:07:35,02/04/2024
,"<div style=""font-size: 10rem; color: #0000FF"">K</div>",,ospan,letter,cb0NimUlfggZ5wzjxOopV9SZk8n1,html-keyboard-response,127,744029,0.0-46.0-4.0-1.0-1.0-5.0,,,,,,,,,,,,,,,5ac3b688fa3b4e0001735a24,20:07:35,02/04/2024
1260.0,,,ospan,symmetry,cb0NimUlfggZ5wzjxOopV9SZk8n1,symmetry-judgement-task,128,747195,0.0-46.0-4.0-1.0-1.0-6.0,,,,,,,,,,1.0,1.0,,,,5ac3b688fa3b4e0001735a24,20:07:35,02/04/2024
,"<div style=""font-size: 10rem; color: #0000FF"">J</div>",,ospan,letter,cb0NimUlfggZ5wzjxOopV9SZk8n1,html-keyboard-response,129,748205,0.0-46.0-4.0-1.0-1.0-7.0,,,,,,,,,,,,,,,5ac3b688fa3b4e0001735a24,20:07:35,02/04/2024
1249.0,,,ospan,symmetry,cb0NimUlfggZ5wzjxOopV9SZk8n1,symmetry-judgement-task,130,751370,0.0-46.0-4.0-1.0-1.0-8.0,,,,,,,,,,1.0,1.0,,,,5ac3b688fa3b4e0001735a24,20:07:35,02/04/2024
,"<div style=""font-size: 10rem; color: #0000FF"">C</div>",,ospan,letter,cb0NimUlfggZ5wzjxOopV9SZk8n1,html-keyboard-response,131,752371,0.0-46.0-4.0-1.0-1.0-9.0,,,,,,,,,,,,,,,5ac3b688fa3b4e0001735a24,20:07:35,02/04/2024
9543.600000143051,"<div class = numbox><p style=""font-size: 2.4rem"">Please recall the letters you saw to the best of your ability. If you do not remember a particular letter, use the SKIP button.<br><b>(When you are ready to lock in your answer, press ENTER)</b></p><button id = button_1 class = ""square num-button"" onclick = ""recordClick(this)""><div class = content><div class = numbers>C</div></div></button><button id = button_2 class = ""square num-button"" onclick = ""recordClick(this)""><div class = content><div class = numbers>G</div></div></button><button id = button_3 class = ""square num-button"" onclick = ""recordClick(this)""><div class = content><div class = numbers>H</div></div></button><button id = button_4 class = ""square num-button"" onclick = ""recordClick(this)""><div class = content><div class = numbers>J</div></div></button><button id = button_5 class = ""square num-button"" onclick = ""recordClick(this)""><div class = content><div class = numbers>K</div></div></button><button id = button_6 class = ""square num-button"" onclick = ""recordClick(this)""><div class = content><div class = numbers>L</div></div></button><button id = button_7 class = ""square num-button"" onclick = ""recordClick(this)""><div class = content><div class = numbers>N</div></div></button><button id = button_8 class = ""square num-button"" onclick = ""recordClick(this)""><div class = content><div class = numbers>P</div></div></button><button id = button_9 class = ""square num-button"" onclick = ""recordClick(this)""><div class = content><div class = numbers>Q</div></div></button><button id = button_10 class = ""square num-button"" onclick = ""recordClick(this)""><div class = content><div class = numbers>R</div></div></button><button id = button_11 class = ""square num-button"" onclick = ""recordClick(this)""><div class = content><div class = numbers>S</div></div></button><button id = button_12 class = ""square num-button"" onclick = ""recordClick(this)""><div class = content><div class = numbers>Y</div></div></button><button class = clear_button id = ""ClearButton"" onclick = ""clearResponse()"">BACKSPACE</button><button class = blank_button id = ""BlankButton"" onclick = ""blankResponse()"">SKIP</button><p style=""font-size: 2.4rem""><u><b>Current Answer:</b></u></p><br><br><div id=echoed_txt style=""font-size: 5rem; color:blue;""><b></b></div></div>",enter,ospan,retrieval,cb0NimUlfggZ5wzjxOopV9SZk8n1,html-keyboard-response,132,762672,0.0-46.0-4.0-1.0-2.0,12,10,7,5.0,"[""Q"",""H"",""J"",""K"",""C""]","[""Q"",""H"",""K"",""J"",""C""]",0.0,3.0,,,,,,,5ac3b688fa3b4e0001735a24,20:07:35,02/04/2024
1601.7999999523163,[''],0,ospan,feedback,cb0NimUlfggZ5wzjxOopV9SZk8n1,html-button-response,133,764782,0.0-46.0-4.0-1.0-3.0,,,,,,,,,,,,100.0,0.0,,5ac3b688fa3b4e0001735a24,20:07:35,02/04/2024
,"<p style=""font-size:75px;"">...</p>",,ospan,iti,cb0NimUlfggZ5wzjxOopV9SZk8n1,html-keyboard-response,134,765791,0.0-46.0-4.0-2.0-0.0,,,,,,,,,,,,,,,5ac3b688fa3b4e0001735a24,20:07:35,02/04/2024
1277.0,,,ospan,symmetry,cb0NimUlfggZ5wzjxOopV9SZk8n1,symmetry-judgement-task,135,768239,0.0-46.0-4.0-2.0-1.0-0.0,,,,,,,,,,1.0,1.0,,,,5ac3b688fa3b4e0001735a24,20:07:35,02/04/2024
,"<div style=""font-size: 10rem; color: #0000FF"">Y</div>",,ospan,letter,cb0NimUlfggZ5wzjxOopV9SZk8n1,html-keyboard-response,136,769241,0.0-46.0-4.0-2.0-1.0-1.0,,,,,,,,,,,,,,,5ac3b688fa3b4e0001735a24,20:07:35,02/04/2024
1219.0,,,ospan,symmetry,cb0NimUlfggZ5wzjxOopV9SZk8n1,symmetry-judgement-task,137,772400,0.0-46.0-4.0-2.0-1.0-2.0,,,,,,,,,,1.0,1.0,,,,5ac3b688fa3b4e0001735a24,20:07:35,02/04/2024
,"<div style=""font-size: 10rem; color: #0000FF"">Q</div>",,ospan,letter,cb0NimUlfggZ5wzjxOopV9SZk8n1,html-keyboard-response,138,773407,0.0-46.0-4.0-2.0-1.0-3.0,,,,,,,,,,,,,,,5ac3b688fa3b4e0001735a24,20:07:35,02/04/2024
1247.0,,,ospan,symmetry,cb0NimUlfggZ5wzjxOopV9SZk8n1,symmetry-judgement-task,139,776564,0.0-46.0-4.0-2.0-1.0-4.0,,,,,,,,,,1.0,1.0,,,,5ac3b688fa3b4e0001735a24,20:07:35,02/04/2024
,"<div style=""font-size: 10rem; color: #0000FF"">J</div>",,ospan,letter,cb0NimUlfggZ5wzjxOopV9SZk8n1,html-keyboard-response,140,777576,0.0-46.0-4.0-2.0-1.0-5.0,,,,,,,,,,,,,,,5ac3b688fa3b4e0001735a24,20:07:35,02/04/2024
4750.899999856949,"<div class = numbox><p style=""font-size: 2.4rem"">Please recall the letters you saw to the best of your ability. If you do not remember a particular letter, use the SKIP button.<br><b>(When you are ready to lock in your answer, press ENTER)</b></p><button id = button_1 class = ""square num-button"" onclick = ""recordClick(this)""><div class = content><div class = numbers>C</div></div></button><button id = button_2 class = ""square num-button"" onclick = ""recordClick(this)""><div class = content><div class = numbers>G</div></div></button><button id = button_3 class = ""square num-button"" onclick = ""recordClick(this)""><div class = content><div class = numbers>H</div></div></button><button id = button_4 class = ""square num-button"" onclick = ""recordClick(this)""><div class = content><div class = numbers>J</div></div></button><button id = button_5 class = ""square num-button"" onclick = ""recordClick(this)""><div class = content><div class = numbers>K</div></div></button><button id = button_6 class = ""square num-button"" onclick = ""recordClick(this)""><div class = content><div class = numbers>L</div></div></button><button id = button_7 class = ""square num-button"" onclick = ""recordClick(this)""><div class = content><div class = numbers>N</div></div></button><button id = button_8 class = ""square num-button"" onclick = ""recordClick(this)""><div class = content><div class = numbers>P</div></div></button><button id = button_9 class = ""square num-button"" onclick = ""recordClick(this)""><div class = content><div class = numbers>Q</div></div></button><button id = button_10 class = ""square num-button"" onclick = ""recordClick(this)""><div class = content><div class = numbers>R</div></div></button><button id = button_11 class = ""square num-button"" onclick = ""recordClick(this)""><div class = content><div class = numbers>S</div></div></button><button id = button_12 class = ""square num-button"" onclick = ""recordClick(this)""><div class = content><div class = numbers>Y</div></div></button><button class = clear_button id = ""ClearButton"" onclick = ""clearResponse()"">BACKSPACE</button><button class = blank_button id = ""BlankButton"" onclick = ""blankResponse()"">SKIP</button><p style=""font-size: 2.4rem""><u><b>Current Answer:</b></u></p><br><br><div id=echoed_txt style=""font-size: 5rem; color:blue;""><b></b></div></div>",enter,ospan,retrieval,cb0NimUlfggZ5wzjxOopV9SZk8n1,html-keyboard-response,141,783092,0.0-46.0-4.0-2.0-2.0,15,13,10,3.0,"[""Y"",""Q"",""J""]","[""Y"",""Q"",""J""]",1.0,3.0,,,,,,,5ac3b688fa3b4e0001735a24,20:07:35,02/04/2024
1230.8999998569489,[''],0,ospan,feedback,cb0NimUlfggZ5wzjxOopV9SZk8n1,html-button-response,142,784839,0.0-46.0-4.0-2.0-3.0,,,,,,,,,,,,100.0,0.0,,5ac3b688fa3b4e0001735a24,20:07:35,02/04/2024
,"<p style=""font-size:75px;"">...</p>",,ospan,iti,cb0NimUlfggZ5wzjxOopV9SZk8n1,html-keyboard-response,143,785845,0.0-46.0-5.0-0.0-0.0,,,,,,,,,,,,,,,5ac3b688fa3b4e0001735a24,20:07:35,02/04/2024
1643.0,,,ospan,symmetry,cb0NimUlfggZ5wzjxOopV9SZk8n1,symmetry-judgement-task,144,788641,0.0-46.0-5.0-0.0-1.0-0.0,,,,,,,,,,1.0,1.0,,,,5ac3b688fa3b4e0001735a24,20:07:35,02/04/2024
,"<div style=""font-size: 10rem; color: #0000FF"">R</div>",,ospan,letter,cb0NimUlfggZ5wzjxOopV9SZk8n1,html-keyboard-response,145,789657,0.0-46.0-5.0-0.0-1.0-1.0,,,,,,,,,,,,,,,5ac3b688fa3b4e0001735a24,20:07:35,02/04/2024
2445.0,,,ospan,symmetry,cb0NimUlfggZ5wzjxOopV9SZk8n1,symmetry-judgement-task,146,794021,0.0-46.0-5.0-0.0-1.0-2.0,,,,,,,,,,1.0,1.0,,,,5ac3b688fa3b4e0001735a24,20:07:35,02/04/2024
,"<div style=""font-size: 10rem; color: #0000FF"">Y</div>",,ospan,letter,cb0NimUlfggZ5wzjxOopV9SZk8n1,html-keyboard-response,147,795036,0.0-46.0-5.0-0.0-1.0-3.0,,,,,,,,,,,,,,,5ac3b688fa3b4e0001735a24,20:07:35,02/04/2024
1430.0,,,ospan,symmetry,cb0NimUlfggZ5wzjxOopV9SZk8n1,symmetry-judgement-task,148,798375,0.0-46.0-5.0-0.0-1.0-4.0,,,,,,,,,,1.0,1.0,,,,5ac3b688fa3b4e0001735a24,20:07:35,02/04/2024
,"<div style=""font-size: 10rem; color: #0000FF"">J</div>",,ospan,letter,cb0NimUlfggZ5wzjxOopV9SZk8n1,html-keyboard-response,149,799377,0.0-46.0-5.0-0.0-1.0-5.0,,,,,,,,,,,,,,,5ac3b688fa3b4e0001735a24,20:07:35,02/04/2024
1337.0,,,ospan,symmetry,cb0NimUlfggZ5wzjxOopV9SZk8n1,symmetry-judgement-task,150,802653,0.0-46.0-5.0-0.0-1.0-6.0,,,,,,,,,,1.0,1.0,,,,5ac3b688fa3b4e0001735a24,20:07:35,02/04/2024
,"<div style=""font-size: 10rem; color: #0000FF"">P</div>",,ospan,letter,cb0NimUlfggZ5wzjxOopV9SZk8n1,html-keyboard-response,151,803667,0.0-46.0-5.0-0.0-1.0-7.0,,,,,,,,,,,,,,,5ac3b688fa3b4e0001735a24,20:07:35,02/04/2024
1204.0,,,ospan,symmetry,cb0NimUlfggZ5wzjxOopV9SZk8n1,symmetry-judgement-task,152,806794,0.0-46.0-5.0-0.0-1.0-8.0,,,,,,,,,,1.0,1.0,,,,5ac3b688fa3b4e0001735a24,20:07:35,02/04/2024
,"<div style=""font-size: 10rem; color: #0000FF"">L</div>",,ospan,letter,cb0NimUlfggZ5wzjxOopV9SZk8n1,html-keyboard-response,153,807806,0.0-46.0-5.0-0.0-1.0-9.0,,,,,,,,,,,,,,,5ac3b688fa3b4e0001735a24,20:07:35,02/04/2024
1741.0,,,ospan,symmetry,cb0NimUlfggZ5wzjxOopV9SZk8n1,symmetry-judgement-task,154,811453,0.0-46.0-5.0-0.0-1.0-10.0,,,,,,,,,,1.0,1.0,,,,5ac3b688fa3b4e0001735a24,20:07:35,02/04/2024
,"<div style=""font-size: 10rem; color: #0000FF"">G</div>",,ospan,letter,cb0NimUlfggZ5wzjxOopV9SZk8n1,html-keyboard-response,155,812466,0.0-46.0-5.0-0.0-1.0-11.0,,,,,,,,,,,,,,,5ac3b688fa3b4e0001735a24,20:07:35,02/04/2024
8412.400000095367,"<div class = numbox><p style=""font-size: 2.4rem"">Please recall the letters you saw to the best of your ability. If you do not remember a particular letter, use the SKIP button.<br><b>(When you are ready to lock in your answer, press ENTER)</b></p><button id = button_1 class = ""square num-button"" onclick = ""recordClick(this)""><div class = content><div class = numbers>C</div></div></button><button id = button_2 class = ""square num-button"" onclick = ""recordClick(this)""><div class = content><div class = numbers>G</div></div></button><button id = button_3 class = ""square num-button"" onclick = ""recordClick(this)""><div class = content><div class = numbers>H</div></div></button><button id = button_4 class = ""square num-button"" onclick = ""recordClick(this)""><div class = content><div class = numbers>J</div></div></button><button id = button_5 class = ""square num-button"" onclick = ""recordClick(this)""><div class = content><div class = numbers>K</div></div></button><button id = button_6 class = ""square num-button"" onclick = ""recordClick(this)""><div class = content><div class = numbers>L</div></div></button><button id = button_7 class = ""square num-button"" onclick = ""recordClick(this)""><div class = content><div class = numbers>N</div></div></button><button id = button_8 class = ""square num-button"" onclick = ""recordClick(this)""><div class = content><div class = numbers>P</div></div></button><button id = button_9 class = ""square num-button"" onclick = ""recordClick(this)""><div class = content><div class = numbers>Q</div></div></button><button id = button_10 class = ""square num-button"" onclick = ""recordClick(this)""><div class = content><div class = numbers>R</div></div></button><button id = button_11 class = ""square num-button"" onclick = ""recordClick(this)""><div class = content><div class = numbers>S</div></div></button><button id = button_12 class = ""square num-button"" onclick = ""recordClick(this)""><div class = content><div class = numbers>Y</div></div></button><button class = clear_button id = ""ClearButton"" onclick = ""clearResponse()"">BACKSPACE</button><button class = blank_button id = ""BlankButton"" onclick = ""blankResponse()"">SKIP</button><p style=""font-size: 2.4rem""><u><b>Current Answer:</b></u></p><br><br><div id=echoed_txt style=""font-size: 5rem; color:blue;""><b></b></div></div>",enter,ospan,retrieval,cb0NimUlfggZ5wzjxOopV9SZk8n1,html-keyboard-response,156,821646,0.0-46.0-5.0-0.0-2.0,21,16,10,6.0,"[""R"",""Y"",""J"",""L"",""P""]","[""R"",""Y"",""J"",""P"",""L"",""G""]",0.0,3.0,,,,,,,5ac3b688fa3b4e0001735a24,20:07:35,02/04/2024
1436.7999999523163,[''],0,ospan,feedback,cb0NimUlfggZ5wzjxOopV9SZk8n1,html-button-response,157,823598,0.0-46.0-5.0-0.0-3.0,,,,,,,,,,,,100.0,0.0,,5ac3b688fa3b4e0001735a24,20:07:35,02/04/2024
,"<p style=""font-size:75px;"">...</p>",,ospan,iti,cb0NimUlfggZ5wzjxOopV9SZk8n1,html-keyboard-response,158,824603,0.0-46.0-5.0-1.0-0.0,,,,,,,,,,,,,,,5ac3b688fa3b4e0001735a24,20:07:35,02/04/2024
1732.0,,,ospan,symmetry,cb0NimUlfggZ5wzjxOopV9SZk8n1,symmetry-judgement-task,159,827383,0.0-46.0-5.0-1.0-1.0-0.0,,,,,,,,,,1.0,1.0,,,,5ac3b688fa3b4e0001735a24,20:07:35,02/04/2024
,"<div style=""font-size: 10rem; color: #0000FF"">P</div>",,ospan,letter,cb0NimUlfggZ5wzjxOopV9SZk8n1,html-keyboard-response,160,828386,0.0-46.0-5.0-1.0-1.0-1.0,,,,,,,,,,,,,,,5ac3b688fa3b4e0001735a24,20:07:35,02/04/2024
1298.0,,,ospan,symmetry,cb0NimUlfggZ5wzjxOopV9SZk8n1,symmetry-judgement-task,161,831612,0.0-46.0-5.0-1.0-1.0-2.0,,,,,,,,,,1.0,1.0,,,,5ac3b688fa3b4e0001735a24,20:07:35,02/04/2024
,"<div style=""font-size: 10rem; color: #0000FF"">J</div>",,ospan,letter,cb0NimUlfggZ5wzjxOopV9SZk8n1,html-keyboard-response,162,832623,0.0-46.0-5.0-1.0-1.0-3.0,,,,,,,,,,,,,,,5ac3b688fa3b4e0001735a24,20:07:35,02/04/2024
1610.0,,,ospan,symmetry,cb0NimUlfggZ5wzjxOopV9SZk8n1,symmetry-judgement-task,163,836146,0.0-46.0-5.0-1.0-1.0-4.0,,,,,,,,,,1.0,1.0,,,,5ac3b688fa3b4e0001735a24,20:07:35,02/04/2024
,"<div style=""font-size: 10rem; color: #0000FF"">N</div>",,ospan,letter,cb0NimUlfggZ5wzjxOopV9SZk8n1,html-keyboard-response,164,837160,0.0-46.0-5.0-1.0-1.0-5.0,,,,,,,,,,,,,,,5ac3b688fa3b4e0001735a24,20:07:35,02/04/2024
1139.0,,,ospan,symmetry,cb0NimUlfggZ5wzjxOopV9SZk8n1,symmetry-judgement-task,165,840228,0.0-46.0-5.0-1.0-1.0-6.0,,,,,,,,,,1.0,1.0,,,,5ac3b688fa3b4e0001735a24,20:07:35,02/04/2024
,"<div style=""font-size: 10rem; color: #0000FF"">K</div>",,ospan,letter,cb0NimUlfggZ5wzjxOopV9SZk8n1,html-keyboard-response,166,841238,0.0-46.0-5.0-1.0-1.0-7.0,,,,,,,,,,,,,,,5ac3b688fa3b4e0001735a24,20:07:35,02/04/2024
1352.0,,,ospan,symmetry,cb0NimUlfggZ5wzjxOopV9SZk8n1,symmetry-judgement-task,167,844509,0.0-46.0-5.0-1.0-1.0-8.0,,,,,,,,,,1.0,1.0,,,,5ac3b688fa3b4e0001735a24,20:07:35,02/04/2024
,"<div style=""font-size: 10rem; color: #0000FF"">S</div>",,ospan,letter,cb0NimUlfggZ5wzjxOopV9SZk8n1,html-keyboard-response,168,845518,0.0-46.0-5.0-1.0-1.0-9.0,,,,,,,,,,,,,,,5ac3b688fa3b4e0001735a24,20:07:35,02/04/2024
1318.0,,,ospan,symmetry,cb0NimUlfggZ5wzjxOopV9SZk8n1,symmetry-judgement-task,169,848753,0.0-46.0-5.0-1.0-1.0-10.0,,,,,,,,,,1.0,1.0,,,,5ac3b688fa3b4e0001735a24,20:07:35,02/04/2024
,"<div style=""font-size: 10rem; color: #0000FF"">Q</div>",,ospan,letter,cb0NimUlfggZ5wzjxOopV9SZk8n1,html-keyboard-response,170,849763,0.0-46.0-5.0-1.0-1.0-11.0,,,,,,,,,,,,,,,5ac3b688fa3b4e0001735a24,20:07:35,02/04/2024
959.0,,,ospan,symmetry,cb0NimUlfggZ5wzjxOopV9SZk8n1,symmetry-judgement-task,171,852660,0.0-46.0-5.0-1.0-1.0-12.0,,,,,,,,,,1.0,1.0,,,,5ac3b688fa3b4e0001735a24,20:07:35,02/04/2024
,"<div style=""font-size: 10rem; color: #0000FF"">C</div>",,ospan,letter,cb0NimUlfggZ5wzjxOopV9SZk8n1,html-keyboard-response,172,853674,0.0-46.0-5.0-1.0-1.0-13.0,,,,,,,,,,,,,,,5ac3b688fa3b4e0001735a24,20:07:35,02/04/2024
13384.299999952316,"<div class = numbox><p style=""font-size: 2.4rem"">Please recall the letters you saw to the best of your ability. If you do not remember a particular letter, use the SKIP button.<br><b>(When you are ready to lock in your answer, press ENTER)</b></p><button id = button_1 class = ""square num-button"" onclick = ""recordClick(this)""><div class = content><div class = numbers>C</div></div></button><button id = button_2 class = ""square num-button"" onclick = ""recordClick(this)""><div class = content><div class = numbers>G</div></div></button><button id = button_3 class = ""square num-button"" onclick = ""recordClick(this)""><div class = content><div class = numbers>H</div></div></button><button id = button_4 class = ""square num-button"" onclick = ""recordClick(this)""><div class = content><div class = numbers>J</div></div></button><button id = button_5 class = ""square num-button"" onclick = ""recordClick(this)""><div class = content><div class = numbers>K</div></div></button><button id = button_6 class = ""square num-button"" onclick = ""recordClick(this)""><div class = content><div class = numbers>L</div></div></button><button id = button_7 class = ""square num-button"" onclick = ""recordClick(this)""><div class = content><div class = numbers>N</div></div></button><button id = button_8 class = ""square num-button"" onclick = ""recordClick(this)""><div class = content><div class = numbers>P</div></div></button><button id = button_9 class = ""square num-button"" onclick = ""recordClick(this)""><div class = content><div class = numbers>Q</div></div></button><button id = button_10 class = ""square num-button"" onclick = ""recordClick(this)""><div class = content><div class = numbers>R</div></div></button><button id = button_11 class = ""square num-button"" onclick = ""recordClick(this)""><div class = content><div class = numbers>S</div></div></button><button id = button_12 class = ""square num-button"" onclick = ""recordClick(this)""><div class = content><div class = numbers>Y</div></div></button><button class = clear_button id = ""ClearButton"" onclick = ""clearResponse()"">BACKSPACE</button><button class = blank_button id = ""BlankButton"" onclick = ""blankResponse()"">SKIP</button><p style=""font-size: 2.4rem""><u><b>Current Answer:</b></u></p><br><br><div id=echoed_txt style=""font-size: 5rem; color:blue;""><b></b></div></div>",enter,ospan,retrieval,cb0NimUlfggZ5wzjxOopV9SZk8n1,html-keyboard-response,173,867823,0.0-46.0-5.0-1.0-2.0,28,19,10,7.0,"[""P"",""J"",""N"",""S"",""K"",""L""]","[""P"",""J"",""N"",""K"",""S"",""Q"",""C""]",0.0,3.0,,,,,,,5ac3b688fa3b4e0001735a24,20:07:35,02/04/2024
1589.3000001907349,[''],0,ospan,feedback,cb0NimUlfggZ5wzjxOopV9SZk8n1,html-button-response,174,869920,0.0-46.0-5.0-1.0-3.0,,,,,,,,,,,,100.0,0.0,,5ac3b688fa3b4e0001735a24,20:07:35,02/04/2024
,"<p style=""font-size:75px;"">...</p>",,ospan,iti,cb0NimUlfggZ5wzjxOopV9SZk8n1,html-keyboard-response,175,870929,0.0-46.0-6.0-0.0-0.0,,,,,,,,,,,,,,,5ac3b688fa3b4e0001735a24,20:07:35,02/04/2024
1302.0,,,ospan,symmetry,cb0NimUlfggZ5wzjxOopV9SZk8n1,symmetry-judgement-task,176,873375,0.0-46.0-6.0-0.0-1.0-0.0,,,,,,,,,,1.0,1.0,,,,5ac3b688fa3b4e0001735a24,20:07:35,02/04/2024
,"<div style=""font-size: 10rem; color: #0000FF"">K</div>",,ospan,letter,cb0NimUlfggZ5wzjxOopV9SZk8n1,html-keyboard-response,177,874378,0.0-46.0-6.0-0.0-1.0-1.0,,,,,,,,,,,,,,,5ac3b688fa3b4e0001735a24,20:07:35,02/04/2024
1431.0,,,ospan,symmetry,cb0NimUlfggZ5wzjxOopV9SZk8n1,symmetry-judgement-task,178,877722,0.0-46.0-6.0-0.0-1.0-2.0,,,,,,,,,,1.0,1.0,,,,5ac3b688fa3b4e0001735a24,20:07:35,02/04/2024
,"<div style=""font-size: 10rem; color: #0000FF"">L</div>",,ospan,letter,cb0NimUlfggZ5wzjxOopV9SZk8n1,html-keyboard-response,179,878732,0.0-46.0-6.0-0.0-1.0-3.0,,,,,,,,,,,,,,,5ac3b688fa3b4e0001735a24,20:07:35,02/04/2024
1383.0,,,ospan,symmetry,cb0NimUlfggZ5wzjxOopV9SZk8n1,symmetry-judgement-task,180,882027,0.0-46.0-6.0-0.0-1.0-4.0,,,,,,,,,,1.0,1.0,,,,5ac3b688fa3b4e0001735a24,20:07:35,02/04/2024
,"<div style=""font-size: 10rem; color: #0000FF"">Q</div>",,ospan,letter,cb0NimUlfggZ5wzjxOopV9SZk8n1,html-keyboard-response,181,883029,0.0-46.0-6.0-0.0-1.0-5.0,,,,,,,,,,,,,,,5ac3b688fa3b4e0001735a24,20:07:35,02/04/2024
1208.0,,,ospan,symmetry,cb0NimUlfggZ5wzjxOopV9SZk8n1,symmetry-judgement-task,182,886155,0.0-46.0-6.0-0.0-1.0-6.0,,,,,,,,,,1.0,1.0,,,,5ac3b688fa3b4e0001735a24,20:07:35,02/04/2024
,"<div style=""font-size: 10rem; color: #0000FF"">H</div>",,ospan,letter,cb0NimUlfggZ5wzjxOopV9SZk8n1,html-keyboard-response,183,887170,0.0-46.0-6.0-0.0-1.0-7.0,,,,,,,,,,,,,,,5ac3b688fa3b4e0001735a24,20:07:35,02/04/2024
1449.0,,,ospan,symmetry,cb0NimUlfggZ5wzjxOopV9SZk8n1,symmetry-judgement-task,184,890541,0.0-46.0-6.0-0.0-1.0-8.0,,,,,,,,,,1.0,1.0,,,,5ac3b688fa3b4e0001735a24,20:07:35,02/04/2024
,"<div style=""font-size: 10rem; color: #0000FF"">Y</div>",,ospan,letter,cb0NimUlfggZ5wzjxOopV9SZk8n1,html-keyboard-response,185,891552,0.0-46.0-6.0-0.0-1.0-9.0,,,,,,,,,,,,,,,5ac3b688fa3b4e0001735a24,20:07:35,02/04/2024
6888.099999904633,"<div class = numbox><p style=""font-size: 2.4rem"">Please recall the letters you saw to the best of your ability. If you do not remember a particular letter, use the SKIP button.<br><b>(When you are ready to lock in your answer, press ENTER)</b></p><button id = button_1 class = ""square num-button"" onclick = ""recordClick(this)""><div class = content><div class = numbers>C</div></div></button><button id = button_2 class = ""square num-button"" onclick = ""recordClick(this)""><div class = content><div class = numbers>G</div></div></button><button id = button_3 class = ""square num-button"" onclick = ""recordClick(this)""><div class = content><div class = numbers>H</div></div></button><button id = button_4 class = ""square num-button"" onclick = ""recordClick(this)""><div class = content><div class = numbers>J</div></div></button><button id = button_5 class = ""square num-button"" onclick = ""recordClick(this)""><div class = content><div class = numbers>K</div></div></button><button id = button_6 class = ""square num-button"" onclick = ""recordClick(this)""><div class = content><div class = numbers>L</div></div></button><button id = button_7 class = ""square num-button"" onclick = ""recordClick(this)""><div class = content><div class = numbers>N</div></div></button><button id = button_8 class = ""square num-button"" onclick = ""recordClick(this)""><div class = content><div class = numbers>P</div></div></button><button id = button_9 class = ""square num-button"" onclick = ""recordClick(this)""><div class = content><div class = numbers>Q</div></div></button><button id = button_10 class = ""square num-button"" onclick = ""recordClick(this)""><div class = content><div class = numbers>R</div></div></button><button id = button_11 class = ""square num-button"" onclick = ""recordClick(this)""><div class = content><div class = numbers>S</div></div></button><button id = button_12 class = ""square num-button"" onclick = ""recordClick(this)""><div class = content><div class = numbers>Y</div></div></button><button class = clear_button id = ""ClearButton"" onclick = ""clearResponse()"">BACKSPACE</button><button class = blank_button id = ""BlankButton"" onclick = ""blankResponse()"">SKIP</button><p style=""font-size: 2.4rem""><u><b>Current Answer:</b></u></p><br><br><div id=echoed_txt style=""font-size: 5rem; color:blue;""><b></b></div></div>",enter,ospan,retrieval,cb0NimUlfggZ5wzjxOopV9SZk8n1,html-keyboard-response,186,899205,0.0-46.0-6.0-0.0-2.0,33,24,15,5.0,"[""K"",""L"",""Q"",""H"",""Y""]","[""K"",""L"",""Q"",""H"",""Y""]",1.0,5.0,,,,,,,5ac3b688fa3b4e0001735a24,20:07:35,02/04/2024
1546.0,[''],0,ospan,feedback,cb0NimUlfggZ5wzjxOopV9SZk8n1,html-button-response,187,901259,0.0-46.0-6.0-0.0-3.0,,,,,,,,,,,,100.0,0.0,,5ac3b688fa3b4e0001735a24,20:07:35,02/04/2024
,"<p style=""font-size:75px;"">...</p>",,ospan,iti,cb0NimUlfggZ5wzjxOopV9SZk8n1,html-keyboard-response,188,902275,0.0-46.0-6.0-1.0-0.0,,,,,,,,,,,,,,,5ac3b688fa3b4e0001735a24,20:07:35,02/04/2024
1605.0,,,ospan,symmetry,cb0NimUlfggZ5wzjxOopV9SZk8n1,symmetry-judgement-task,189,905040,0.0-46.0-6.0-1.0-1.0-0.0,,,,,,,,,,1.0,1.0,,,,5ac3b688fa3b4e0001735a24,20:07:35,02/04/2024
,"<div style=""font-size: 10rem; color: #0000FF"">H</div>",,ospan,letter,cb0NimUlfggZ5wzjxOopV9SZk8n1,html-keyboard-response,190,906056,0.0-46.0-6.0-1.0-1.0-1.0,,,,,,,,,,,,,,,5ac3b688fa3b4e0001735a24,20:07:35,02/04/2024
1287.0,,,ospan,symmetry,cb0NimUlfggZ5wzjxOopV9SZk8n1,symmetry-judgement-task,191,909268,0.0-46.0-6.0-1.0-1.0-2.0,,,,,,,,,,1.0,1.0,,,,5ac3b688fa3b4e0001735a24,20:07:35,02/04/2024
,"<div style=""font-size: 10rem; color: #0000FF"">J</div>",,ospan,letter,cb0NimUlfggZ5wzjxOopV9SZk8n1,html-keyboard-response,192,910271,0.0-46.0-6.0-1.0-1.0-3.0,,,,,,,,,,,,,,,5ac3b688fa3b4e0001735a24,20:07:35,02/04/2024
1267.0,,,ospan,symmetry,cb0NimUlfggZ5wzjxOopV9SZk8n1,symmetry-judgement-task,193,913454,0.0-46.0-6.0-1.0-1.0-4.0,,,,,,,,,,1.0,1.0,,,,5ac3b688fa3b4e0001735a24,20:07:35,02/04/2024
,"<div style=""font-size: 10rem; color: #0000FF"">R</div>",,ospan,letter,cb0NimUlfggZ5wzjxOopV9SZk8n1,html-keyboard-response,194,914465,0.0-46.0-6.0-1.0-1.0-5.0,,,,,,,,,,,,,,,5ac3b688fa3b4e0001735a24,20:07:35,02/04/2024
1477.0,,,ospan,symmetry,cb0NimUlfggZ5wzjxOopV9SZk8n1,symmetry-judgement-task,195,917847,0.0-46.0-6.0-1.0-1.0-6.0,,,,,,,,,,1.0,1.0,,,,5ac3b688fa3b4e0001735a24,20:07:35,02/04/2024
,"<div style=""font-size: 10rem; color: #0000FF"">P</div>",,ospan,letter,cb0NimUlfggZ5wzjxOopV9SZk8n1,html-keyboard-response,196,918863,0.0-46.0-6.0-1.0-1.0-7.0,,,,,,,,,,,,,,,5ac3b688fa3b4e0001735a24,20:07:35,02/04/2024
969.0,,,ospan,symmetry,cb0NimUlfggZ5wzjxOopV9SZk8n1,symmetry-judgement-task,197,921743,0.0-46.0-6.0-1.0-1.0-8.0,,,,,,,,,,1.0,1.0,,,,5ac3b688fa3b4e0001735a24,20:07:35,02/04/2024
,"<div style=""font-size: 10rem; color: #0000FF"">S</div>",,ospan,letter,cb0NimUlfggZ5wzjxOopV9SZk8n1,html-keyboard-response,198,922757,0.0-46.0-6.0-1.0-1.0-9.0,,,,,,,,,,,,,,,5ac3b688fa3b4e0001735a24,20:07:35,02/04/2024
1366.0,,,ospan,symmetry,cb0NimUlfggZ5wzjxOopV9SZk8n1,symmetry-judgement-task,199,926052,0.0-46.0-6.0-1.0-1.0-10.0,,,,,,,,,,1.0,1.0,,,,5ac3b688fa3b4e0001735a24,20:07:35,02/04/2024
,"<div style=""font-size: 10rem; color: #0000FF"">L</div>",,ospan,letter,cb0NimUlfggZ5wzjxOopV9SZk8n1,html-keyboard-response,200,927065,0.0-46.0-6.0-1.0-1.0-11.0,,,,,,,,,,,,,,,5ac3b688fa3b4e0001735a24,20:07:35,02/04/2024
1305.0,,,ospan,symmetry,cb0NimUlfggZ5wzjxOopV9SZk8n1,symmetry-judgement-task,201,930176,0.0-46.0-6.0-1.0-1.0-12.0,,,,,,,,,,1.0,1.0,,,,5ac3b688fa3b4e0001735a24,20:07:35,02/04/2024
,"<div style=""font-size: 10rem; color: #0000FF"">K</div>",,ospan,letter,cb0NimUlfggZ5wzjxOopV9SZk8n1,html-keyboard-response,202,931189,0.0-46.0-6.0-1.0-1.0-13.0,,,,,,,,,,,,,,,5ac3b688fa3b4e0001735a24,20:07:35,02/04/2024
1212.0,,,ospan,symmetry,cb0NimUlfggZ5wzjxOopV9SZk8n1,symmetry-judgement-task,203,934347,0.0-46.0-6.0-1.0-1.0-14.0,,,,,,,,,,1.0,1.0,,,,5ac3b688fa3b4e0001735a24,20:07:35,02/04/2024
,"<div style=""font-size: 10rem; color: #0000FF"">Q</div>",,ospan,letter,cb0NimUlfggZ5wzjxOopV9SZk8n1,html-keyboard-response,204,935359,0.0-46.0-6.0-1.0-1.0-15.0,,,,,,,,,,,,,,,5ac3b688fa3b4e0001735a24,20:07:35,02/04/2024
16642.200000047684,"<div class = numbox><p style=""font-size: 2.4rem"">Please recall the letters you saw to the best of your ability. If you do not remember a particular letter, use the SKIP button.<br><b>(When you are ready to lock in your answer, press ENTER)</b></p><button id = button_1 class = ""square num-button"" onclick = ""recordClick(this)""><div class = content><div class = numbers>C</div></div></button><button id = button_2 class = ""square num-button"" onclick = ""recordClick(this)""><div class = content><div class = numbers>G</div></div></button><button id = button_3 class = ""square num-button"" onclick = ""recordClick(this)""><div class = content><div class = numbers>H</div></div></button><button id = button_4 class = ""square num-button"" onclick = ""recordClick(this)""><div class = content><div class = numbers>J</div></div></button><button id = button_5 class = ""square num-button"" onclick = ""recordClick(this)""><div class = content><div class = numbers>K</div></div></button><button id = button_6 class = ""square num-button"" onclick = ""recordClick(this)""><div class = content><div class = numbers>L</div></div></button><button id = button_7 class = ""square num-button"" onclick = ""recordClick(this)""><div class = content><div class = numbers>N</div></div></button><button id = button_8 class = ""square num-button"" onclick = ""recordClick(this)""><div class = content><div class = numbers>P</div></div></button><button id = button_9 class = ""square num-button"" onclick = ""recordClick(this)""><div class = content><div class = numbers>Q</div></div></button><button id = button_10 class = ""square num-button"" onclick = ""recordClick(this)""><div class = content><div class = numbers>R</div></div></button><button id = button_11 class = ""square num-button"" onclick = ""recordClick(this)""><div class = content><div class = numbers>S</div></div></button><button id = button_12 class = ""square num-button"" onclick = ""recordClick(this)""><div class = content><div class = numbers>Y</div></div></button><button class = clear_button id = ""ClearButton"" onclick = ""clearResponse()"">BACKSPACE</button><button class = blank_button id = ""BlankButton"" onclick = ""blankResponse()"">SKIP</button><p style=""font-size: 2.4rem""><u><b>Current Answer:</b></u></p><br><br><div id=echoed_txt style=""font-size: 5rem; color:blue;""><b></b></div></div>",enter,ospan,retrieval,cb0NimUlfggZ5wzjxOopV9SZk8n1,html-keyboard-response,205,952764,0.0-46.0-6.0-1.0-2.0,41,28,15,8.0,"[""H"",""J"",""R"",""P"",""L"",""S"",""_"",""_""]","[""H"",""J"",""R"",""P"",""S"",""L"",""K"",""Q""]",0.0,4.0,,,,,,,5ac3b688fa3b4e0001735a24,20:07:35,02/04/2024
1396.7000000476837,[''],0,ospan,feedback,cb0NimUlfggZ5wzjxOopV9SZk8n1,html-button-response,206,954670,0.0-46.0-6.0-1.0-3.0,,,,,,,,,,,,100.0,0.0,,5ac3b688fa3b4e0001735a24,20:07:35,02/04/2024
13504.299999952316,,{'Q0': 'Enjoyed trying to remember the letters'},ospan,survey_ospan,cb0NimUlfggZ5wzjxOopV9SZk8n1,lmdlab-survey-text,207,968939,0.0-46.0-7.0,,,,,,,,,,,,,,cb0NimUlfggZ5wzjxOopV9SZk8n1,5ac3b688fa3b4e0001735a24,20:07:35,02/04/2024
1412.2000000476837,<p><p style='font-size: 3rem'>Great work!<br><br>This completes the symmetry and memory task.</p><br><br><br>,0,ospan,finish,cb0NimUlfggZ5wzjxOopV9SZk8n1,html-button-response,208,970356,0.0-46.0-8.0,41,28,15,,,,,,,,,100.0,,,5ac3b688fa3b4e0001735a24,20:07:35,02/04/2024
