rt,stimulus,response,exp_name,exp_stage,subjectID,trial_type,trial_index,time_elapsed,internal_node_id,ospan_shown,ospan_total,ospan_abs,length,resp_actual,resp_correct,full_correct,num_correct,feedback,accuracy,correct,math_acc,math_warning,databaseID,prolificID,start_time,date
2646.2000000476837,<div class = 'left_align' style='font-size: 3.25rem; line-height: 1.3;'><p class = 'center_align'><b>Welcome to the Symmetry and Memory Task</b><br><br><br><br></p>Press 'continue' to show the instructions.<br><br><br><br></div>,0,ospan,instruct,IJU2jtfXFEPhHzU8ca7RsR3VJYL2,html-button-response,54,671014,0.0-46.0-0.0-0.0-0.0,,,,,,,,,,,,,,,60670c6f988b7e2e9edd72ea,16:55:45,03/04/2024
21606.39999985695,"<div class = 'left_align' style='font-size: 3.25rem; line-height: 1.3;'><p class = 'center_align'><b>Symmetry and Memory Task</b><br><br></p>In this task, you will try to memorize letters you see on the screen<br>while you also view black and white grid pictures.<br><br>In the next few minutes, you will have some practice to get you familiar<br>with how the task works.<br><br>It may be difficult sometimes, but please do not worry about making mistakes!<br><br>We will begin by practicing the letter part of the task.<br><br><br><br></div>",0,ospan,instruct,IJU2jtfXFEPhHzU8ca7RsR3VJYL2,html-button-response,55,692880,0.0-46.0-0.0-0.0-1.0,,,,,,,,,,,,,,,60670c6f988b7e2e9edd72ea,16:55:45,03/04/2024
10222.400000095367,"<div class = 'left_align' style='font-size: 3.25rem; line-height: 1.3;'>For this practice part, letters will appear on the screen one at a time.<br><br>Try to remember each letter in the order presented.<br><br>After some letters have been shown, you will see a response screen. Your<br>goal is to report the letters you saw <b>in order</b>. If you do not remember<br>a particular letter, you will have the option to leave it blank.<br><br><br><br></div>",0,ospan,instruct,IJU2jtfXFEPhHzU8ca7RsR3VJYL2,html-button-response,56,703356,0.0-46.0-0.0-0.0-2.0,,,,,,,,,,,,,,,60670c6f988b7e2e9edd72ea,16:55:45,03/04/2024
7256.900000095367,"<div class = 'left_align' style='font-size: 3.25rem; line-height: 1.3;'>Remember, it is very important to get the letters in the same<br>order as you see them.<br><br>When you are ready, you may begin the letter practice.</div><br><br><br><br>",0,ospan,instruct,IJU2jtfXFEPhHzU8ca7RsR3VJYL2,html-button-response,57,710875,0.0-46.0-0.0-0.0-3.0,,,,,,,,,,,,,,,60670c6f988b7e2e9edd72ea,16:55:45,03/04/2024
,"<p style=""font-size:75px;"">...</p>",,ospan,iti,IJU2jtfXFEPhHzU8ca7RsR3VJYL2,html-keyboard-response,58,712130,0.0-46.0-0.0-1.0-0.0,,,,,,,,,,,,,,,60670c6f988b7e2e9edd72ea,16:55:45,03/04/2024
,"<div style=""font-size: 10rem; color: #0000FF"">G</div>",,ospan,letter,IJU2jtfXFEPhHzU8ca7RsR3VJYL2,html-keyboard-response,59,713140,0.0-46.0-0.0-1.0-1.0,,,,,,,,,,,,,,,60670c6f988b7e2e9edd72ea,16:55:45,03/04/2024
,"<div style=""font-size: 10rem; color: #0000FF"">L</div>",,ospan,letter,IJU2jtfXFEPhHzU8ca7RsR3VJYL2,html-keyboard-response,60,714909,0.0-46.0-0.0-1.0-2.0,,,,,,,,,,,,,,,60670c6f988b7e2e9edd72ea,16:55:45,03/04/2024
7711.099999904633,"<div class = numbox><p style=""font-size: 2.4rem"">Please recall the letters you saw to the best of your ability. If you do not remember a particular letter, use the SKIP button.<br><b>(When you are ready to lock in your answer, press ENTER)</b></p><button id = button_1 class = ""square num-button"" onclick = ""recordClick(this)""><div class = content><div class = numbers>C</div></div></button><button id = button_2 class = ""square num-button"" onclick = ""recordClick(this)""><div class = content><div class = numbers>G</div></div></button><button id = button_3 class = ""square num-button"" onclick = ""recordClick(this)""><div class = content><div class = numbers>H</div></div></button><button id = button_4 class = ""square num-button"" onclick = ""recordClick(this)""><div class = content><div class = numbers>J</div></div></button><button id = button_5 class = ""square num-button"" onclick = ""recordClick(this)""><div class = content><div class = numbers>K</div></div></button><button id = button_6 class = ""square num-button"" onclick = ""recordClick(this)""><div class = content><div class = numbers>L</div></div></button><button id = button_7 class = ""square num-button"" onclick = ""recordClick(this)""><div class = content><div class = numbers>N</div></div></button><button id = button_8 class = ""square num-button"" onclick = ""recordClick(this)""><div class = content><div class = numbers>P</div></div></button><button id = button_9 class = ""square num-button"" onclick = ""recordClick(this)""><div class = content><div class = numbers>Q</div></div></button><button id = button_10 class = ""square num-button"" onclick = ""recordClick(this)""><div class = content><div class = numbers>R</div></div></button><button id = button_11 class = ""square num-button"" onclick = ""recordClick(this)""><div class = content><div class = numbers>S</div></div></button><button id = button_12 class = ""square num-button"" onclick = ""recordClick(this)""><div class = content><div class = numbers>Y</div></div></button><button class = clear_button id = ""ClearButton"" onclick = ""clearResponse()"">BACKSPACE</button><button class = blank_button id = ""BlankButton"" onclick = ""blankResponse()"">SKIP</button><p style=""font-size: 2.4rem""><u><b>Current Answer:</b></u></p><br><br><div id=echoed_txt style=""font-size: 5rem; color:blue;""><b></b></div></div>",enter,ospan,retrieval,IJU2jtfXFEPhHzU8ca7RsR3VJYL2,html-keyboard-response,61,723376,0.0-46.0-0.0-1.0-3.0,NA,NA,NA,2.0,"[""G"",""L""]","[""G"",""L""]",1.0,2.0,"['<font color=""green"">G</font>', '<font color=""green"">L</font>']",,,,,,60670c6f988b7e2e9edd72ea,16:55:45,03/04/2024
1479.5,"['<p style=""font-size:44px"">Letters:<br><br><br><font color=""green"">G</font> <font color=""green"">L</font></p><br><br>']",0,ospan,practice_feedback,IJU2jtfXFEPhHzU8ca7RsR3VJYL2,html-button-response,62,725369,0.0-46.0-0.0-1.0-4.0,,,,,,,,,,,,,,,60670c6f988b7e2e9edd72ea,16:55:45,03/04/2024
,"<p style=""font-size:75px;"">...</p>",,ospan,iti,IJU2jtfXFEPhHzU8ca7RsR3VJYL2,html-keyboard-response,63,726379,0.0-46.0-0.0-2.0-0.0,,,,,,,,,,,,,,,60670c6f988b7e2e9edd72ea,16:55:45,03/04/2024
,"<div style=""font-size: 10rem; color: #0000FF"">J</div>",,ospan,letter,IJU2jtfXFEPhHzU8ca7RsR3VJYL2,html-keyboard-response,64,727381,0.0-46.0-0.0-2.0-1.0,,,,,,,,,,,,,,,60670c6f988b7e2e9edd72ea,16:55:45,03/04/2024
,"<div style=""font-size: 10rem; color: #0000FF"">N</div>",,ospan,letter,IJU2jtfXFEPhHzU8ca7RsR3VJYL2,html-keyboard-response,65,729139,0.0-46.0-0.0-2.0-2.0,,,,,,,,,,,,,,,60670c6f988b7e2e9edd72ea,16:55:45,03/04/2024
,"<div style=""font-size: 10rem; color: #0000FF"">K</div>",,ospan,letter,IJU2jtfXFEPhHzU8ca7RsR3VJYL2,html-keyboard-response,66,730898,0.0-46.0-0.0-2.0-3.0,,,,,,,,,,,,,,,60670c6f988b7e2e9edd72ea,16:55:45,03/04/2024
4864.099999904633,"<div class = numbox><p style=""font-size: 2.4rem"">Please recall the letters you saw to the best of your ability. If you do not remember a particular letter, use the SKIP button.<br><b>(When you are ready to lock in your answer, press ENTER)</b></p><button id = button_1 class = ""square num-button"" onclick = ""recordClick(this)""><div class = content><div class = numbers>C</div></div></button><button id = button_2 class = ""square num-button"" onclick = ""recordClick(this)""><div class = content><div class = numbers>G</div></div></button><button id = button_3 class = ""square num-button"" onclick = ""recordClick(this)""><div class = content><div class = numbers>H</div></div></button><button id = button_4 class = ""square num-button"" onclick = ""recordClick(this)""><div class = content><div class = numbers>J</div></div></button><button id = button_5 class = ""square num-button"" onclick = ""recordClick(this)""><div class = content><div class = numbers>K</div></div></button><button id = button_6 class = ""square num-button"" onclick = ""recordClick(this)""><div class = content><div class = numbers>L</div></div></button><button id = button_7 class = ""square num-button"" onclick = ""recordClick(this)""><div class = content><div class = numbers>N</div></div></button><button id = button_8 class = ""square num-button"" onclick = ""recordClick(this)""><div class = content><div class = numbers>P</div></div></button><button id = button_9 class = ""square num-button"" onclick = ""recordClick(this)""><div class = content><div class = numbers>Q</div></div></button><button id = button_10 class = ""square num-button"" onclick = ""recordClick(this)""><div class = content><div class = numbers>R</div></div></button><button id = button_11 class = ""square num-button"" onclick = ""recordClick(this)""><div class = content><div class = numbers>S</div></div></button><button id = button_12 class = ""square num-button"" onclick = ""recordClick(this)""><div class = content><div class = numbers>Y</div></div></button><button class = clear_button id = ""ClearButton"" onclick = ""clearResponse()"">BACKSPACE</button><button class = blank_button id = ""BlankButton"" onclick = ""blankResponse()"">SKIP</button><p style=""font-size: 2.4rem""><u><b>Current Answer:</b></u></p><br><br><div id=echoed_txt style=""font-size: 5rem; color:blue;""><b></b></div></div>",enter,ospan,retrieval,IJU2jtfXFEPhHzU8ca7RsR3VJYL2,html-keyboard-response,67,736522,0.0-46.0-0.0-2.0-4.0,NA,NA,NA,3.0,"[""J"",""N"",""K""]","[""J"",""N"",""K""]",1.0,3.0,"['<font color=""green"">J</font>', '<font color=""green"">N</font>', '<font color=""green"">K</font>']",,,,,,60670c6f988b7e2e9edd72ea,16:55:45,03/04/2024
1407.8999998569489,"['<p style=""font-size:44px"">Letters:<br><br><br><font color=""green"">J</font> <font color=""green"">N</font> <font color=""green"">K</font></p><br><br>']",0,ospan,practice_feedback,IJU2jtfXFEPhHzU8ca7RsR3VJYL2,html-button-response,68,738441,0.0-46.0-0.0-2.0-5.0,,,,,,,,,,,,,,,60670c6f988b7e2e9edd72ea,16:55:45,03/04/2024
15828.099999904633,"<div class = 'left_align' style='font-size: 3.25rem; line-height: 1.3;'>Now you will practice doing the <b>symmetry judgment part</b> of the experiment.<br><br>A black and white grid picture will appear on the screen and you have to judge if it is <br>symmetrical or asymetrical.<br><br>A picture is 'mirror' symmetrical if its left half is identical to the right half when flipped.<br>Here are examples of a symmetrical and an asymetrical picture:<br><br><center><img src='Stimuli/img/symm_instructions_extra.png' style='height:420px; width:900'></img></center><br>To judge symmetry, imagine you were to fold each picture down the middle, like a book –<br>would the left half match the right half when folded onto each other?<br><br></div><br>",0,ospan,instruct,IJU2jtfXFEPhHzU8ca7RsR3VJYL2,html-button-response,69,754270,0.0-46.0-1.0-0.0-0.0,,,,,,,,,,,,,,,60670c6f988b7e2e9edd72ea,16:55:45,03/04/2024
5785.699999809265,"<div class = 'left_align' style='font-size: 3.25rem; line-height: 1.3;'>When you have viewed the picture and determined whether it is symmetrical or not,<br>you can <b>click the Yes or No button</b> below to answer.<br><br>If you take longer than 15 seconds, it will continue automatically<br>and record the answer as an error.</div><br>",0,ospan,instruct,IJU2jtfXFEPhHzU8ca7RsR3VJYL2,html-button-response,70,760318,0.0-46.0-1.0-0.0-1.0,,,,,,,,,,,,,,,60670c6f988b7e2e9edd72ea,16:55:45,03/04/2024
5818.700000047684,"<div class = 'left_align' style='font-size: 3.25rem; line-height: 1.3;'>It is <b>very</b> important that you make the symmetry judgment correctly.<br><br>It is also important that you try and judge the picture as quickly as you can.<br><br>When you are ready, click on the button below to try some practice problems.</div><br><br><br><br>",0,ospan,instruct,IJU2jtfXFEPhHzU8ca7RsR3VJYL2,html-button-response,71,766392,0.0-46.0-1.0-0.0-2.0,,,,,,,,,,,,,,,60670c6f988b7e2e9edd72ea,16:55:45,03/04/2024
1352.0,,,ospan,symmetry,IJU2jtfXFEPhHzU8ca7RsR3VJYL2,symmetry-judgement-task,72,768582,0.0-46.0-1.0-1.0-0.0,,,,,,,,,,1.0,1.0,,,,60670c6f988b7e2e9edd72ea,16:55:45,03/04/2024
,"<p style=""color:green; font-size: 35px"">Correct</p>",,ospan,feedback,IJU2jtfXFEPhHzU8ca7RsR3VJYL2,html-keyboard-response,73,769344,0.0-46.0-1.0-1.0-1.0,,,,,,,,,,,,,,,60670c6f988b7e2e9edd72ea,16:55:45,03/04/2024
1702.0,,,ospan,symmetry,IJU2jtfXFEPhHzU8ca7RsR3VJYL2,symmetry-judgement-task,74,773740,0.0-46.0-1.0-1.0-2.0,,,,,,,,,,1.0,1.0,,,,60670c6f988b7e2e9edd72ea,16:55:45,03/04/2024
,"<p style=""color:green; font-size: 35px"">Correct</p>",,ospan,feedback,IJU2jtfXFEPhHzU8ca7RsR3VJYL2,html-keyboard-response,75,774494,0.0-46.0-1.0-1.0-3.0,,,,,,,,,,,,,,,60670c6f988b7e2e9edd72ea,16:55:45,03/04/2024
1684.0,,,ospan,symmetry,IJU2jtfXFEPhHzU8ca7RsR3VJYL2,symmetry-judgement-task,76,778850,0.0-46.0-1.0-1.0-4.0,,,,,,,,,,1.0,1.0,,,,60670c6f988b7e2e9edd72ea,16:55:45,03/04/2024
,"<p style=""color:green; font-size: 35px"">Correct</p>",,ospan,feedback,IJU2jtfXFEPhHzU8ca7RsR3VJYL2,html-keyboard-response,77,779605,0.0-46.0-1.0-1.0-5.0,,,,,,,,,,,,,,,60670c6f988b7e2e9edd72ea,16:55:45,03/04/2024
2738.4000000953674,"<p style=""font-size: 3rem;"">You responded correctly on 3 of 3 symmetry judgments. Good job!</p><br><br>",0,ospan,practice,IJU2jtfXFEPhHzU8ca7RsR3VJYL2,html-button-response,78,784354,0.0-46.0-1.0-2.0,,,,,,,,,,,,,,,60670c6f988b7e2e9edd72ea,16:55:45,03/04/2024
21269.300000190735,"<div class = 'left_align' style='font-size: 3.25rem; line-height: 1.3;'>Now you will practice doing both parts of the experiment at the same time.<br><br>In the next practice set, you will be given one grid picture to judge.<br>Then letter will appear on the screen. Try to remember the letter.<br><br>It is <b>very important</b> to make the symmetry judgment as quickly and accurately as possible.<br><br>Just as before, once you have make the symmetry judgment, you can click Yes or No.<br><b>Note that you will no longer see Correct or Incorrect feedback.</div><br><br><br><br>",0,ospan,instruct,IJU2jtfXFEPhHzU8ca7RsR3VJYL2,html-button-response,79,805887,0.0-46.0-2.0-0.0-0.0,,,,,,,,,,,,,,,60670c6f988b7e2e9edd72ea,16:55:45,03/04/2024
7520.599999904633,"<div class = 'left_align' style='font-size: 3.25rem; line-height: 1.3;'>After the letter goes away, another grid picture will appear, and then<br>another letter.<br><br>At the end of each set of letters and grids, you will recall the letters to the best<br>of your ability. Remember, try your best to get the letters in the correct order.<br><br>It is important to <b>quickly</b> and <b>accurately</b> make the symmetry judgments.</div><br><br><br><br>",0,ospan,instruct,IJU2jtfXFEPhHzU8ca7RsR3VJYL2,html-button-response,80,813673,0.0-46.0-2.0-0.0-1.0,,,,,,,,,,,,,,,60670c6f988b7e2e9edd72ea,16:55:45,03/04/2024
26920.10000014305,"<div class = 'left_align' style='font-size: 3.25rem; line-height: 1.3;'>On the feedback screen, if you are not doing well at the symmetry judgments,<br>you will also see a warning in the middle. This indicates your percent <br>correct for the grid pictures for the entire experiment.<br><br>It is <b>very</b> important for you to keep accuracy at least at 85%: <u>We can only use<br>data where the participant was at least 85% accurate on the judgments.</u> Therefore,<br> please try your best to perform well on the symmetry judgments, <b>at the same time</b><br>doing your best to recall as many letters as possible.<br><br>Click the button to try some practice problems.</div><br><br><br><br>",0,ospan,instruct,IJU2jtfXFEPhHzU8ca7RsR3VJYL2,html-button-response,81,840850,0.0-46.0-2.0-0.0-2.0,,,,,,,,,,,,,,,60670c6f988b7e2e9edd72ea,16:55:45,03/04/2024
,"<p style=""font-size:75px;"">...</p>",,ospan,iti,IJU2jtfXFEPhHzU8ca7RsR3VJYL2,html-keyboard-response,82,842120,0.0-46.0-2.0-1.0-0.0,,,,,,,,,,,,,,,60670c6f988b7e2e9edd72ea,16:55:45,03/04/2024
1416.0,,,ospan,symmetry,IJU2jtfXFEPhHzU8ca7RsR3VJYL2,symmetry-judgement-task,83,844710,0.0-46.0-2.0-1.0-1.0-0.0,,,,,,,,,,1.0,1.0,,,,60670c6f988b7e2e9edd72ea,16:55:45,03/04/2024
,"<div style=""font-size: 10rem; color: #0000FF"">Y</div>",,ospan,letter,IJU2jtfXFEPhHzU8ca7RsR3VJYL2,html-keyboard-response,84,845712,0.0-46.0-2.0-1.0-1.0-1.0,,,,,,,,,,,,,,,60670c6f988b7e2e9edd72ea,16:55:45,03/04/2024
1368.0,,,ospan,symmetry,IJU2jtfXFEPhHzU8ca7RsR3VJYL2,symmetry-judgement-task,85,849013,0.0-46.0-2.0-1.0-1.0-2.0,,,,,,,,,,1.0,1.0,,,,60670c6f988b7e2e9edd72ea,16:55:45,03/04/2024
,"<div style=""font-size: 10rem; color: #0000FF"">S</div>",,ospan,letter,IJU2jtfXFEPhHzU8ca7RsR3VJYL2,html-keyboard-response,86,850022,0.0-46.0-2.0-1.0-1.0-3.0,,,,,,,,,,,,,,,60670c6f988b7e2e9edd72ea,16:55:45,03/04/2024
1676.0,,,ospan,symmetry,IJU2jtfXFEPhHzU8ca7RsR3VJYL2,symmetry-judgement-task,87,853613,0.0-46.0-2.0-1.0-1.0-4.0,,,,,,,,,,1.0,1.0,,,,60670c6f988b7e2e9edd72ea,16:55:45,03/04/2024
,"<div style=""font-size: 10rem; color: #0000FF"">J</div>",,ospan,letter,IJU2jtfXFEPhHzU8ca7RsR3VJYL2,html-keyboard-response,88,854618,0.0-46.0-2.0-1.0-1.0-5.0,,,,,,,,,,,,,,,60670c6f988b7e2e9edd72ea,16:55:45,03/04/2024
8053.5,"<div class = numbox><p style=""font-size: 2.4rem"">Please recall the letters you saw to the best of your ability. If you do not remember a particular letter, use the SKIP button.<br><b>(When you are ready to lock in your answer, press ENTER)</b></p><button id = button_1 class = ""square num-button"" onclick = ""recordClick(this)""><div class = content><div class = numbers>C</div></div></button><button id = button_2 class = ""square num-button"" onclick = ""recordClick(this)""><div class = content><div class = numbers>G</div></div></button><button id = button_3 class = ""square num-button"" onclick = ""recordClick(this)""><div class = content><div class = numbers>H</div></div></button><button id = button_4 class = ""square num-button"" onclick = ""recordClick(this)""><div class = content><div class = numbers>J</div></div></button><button id = button_5 class = ""square num-button"" onclick = ""recordClick(this)""><div class = content><div class = numbers>K</div></div></button><button id = button_6 class = ""square num-button"" onclick = ""recordClick(this)""><div class = content><div class = numbers>L</div></div></button><button id = button_7 class = ""square num-button"" onclick = ""recordClick(this)""><div class = content><div class = numbers>N</div></div></button><button id = button_8 class = ""square num-button"" onclick = ""recordClick(this)""><div class = content><div class = numbers>P</div></div></button><button id = button_9 class = ""square num-button"" onclick = ""recordClick(this)""><div class = content><div class = numbers>Q</div></div></button><button id = button_10 class = ""square num-button"" onclick = ""recordClick(this)""><div class = content><div class = numbers>R</div></div></button><button id = button_11 class = ""square num-button"" onclick = ""recordClick(this)""><div class = content><div class = numbers>S</div></div></button><button id = button_12 class = ""square num-button"" onclick = ""recordClick(this)""><div class = content><div class = numbers>Y</div></div></button><button class = clear_button id = ""ClearButton"" onclick = ""clearResponse()"">BACKSPACE</button><button class = blank_button id = ""BlankButton"" onclick = ""blankResponse()"">SKIP</button><p style=""font-size: 2.4rem""><u><b>Current Answer:</b></u></p><br><br><div id=echoed_txt style=""font-size: 5rem; color:blue;""><b></b></div></div>",enter,ospan,retrieval,IJU2jtfXFEPhHzU8ca7RsR3VJYL2,html-keyboard-response,89,863432,0.0-46.0-2.0-1.0-2.0-0.0,NA,NA,NA,3.0,"[""Y"",""S"",""J""]","[""Y"",""S"",""J""]",1.0,3.0,"['<font color=""green"">Y</font>', '<font color=""green"">S</font>', '<font color=""green"">J</font>']",,,,,,60670c6f988b7e2e9edd72ea,16:55:45,03/04/2024
1659.2000000476837,"['<p style=""font-size:44px"">Letters:<br><br><br><font color=""green"">Y</font> <font color=""green"">S</font> <font color=""green"">J</font></p><br><br><p style=""font-size:30px"">Symmetry:<br><br><font color=""green"">100%</font></p><br><br>']",0,ospan,practice_feedback,IJU2jtfXFEPhHzU8ca7RsR3VJYL2,html-button-response,90,865598,0.0-46.0-2.0-1.0-2.0-1.0,,,,,,,,,,,,,,,60670c6f988b7e2e9edd72ea,16:55:45,03/04/2024
,"<p style=""font-size:75px;"">...</p>",,ospan,iti,IJU2jtfXFEPhHzU8ca7RsR3VJYL2,html-keyboard-response,91,866605,0.0-46.0-2.0-2.0-0.0,,,,,,,,,,,,,,,60670c6f988b7e2e9edd72ea,16:55:45,03/04/2024
1713.0,,,ospan,symmetry,IJU2jtfXFEPhHzU8ca7RsR3VJYL2,symmetry-judgement-task,92,869489,0.0-46.0-2.0-2.0-1.0-0.0,,,,,,,,,,1.0,1.0,,,,60670c6f988b7e2e9edd72ea,16:55:45,03/04/2024
,"<div style=""font-size: 10rem; color: #0000FF"">G</div>",,ospan,letter,IJU2jtfXFEPhHzU8ca7RsR3VJYL2,html-keyboard-response,93,870493,0.0-46.0-2.0-2.0-1.0-1.0,,,,,,,,,,,,,,,60670c6f988b7e2e9edd72ea,16:55:45,03/04/2024
1298.0,,,ospan,symmetry,IJU2jtfXFEPhHzU8ca7RsR3VJYL2,symmetry-judgement-task,94,873688,0.0-46.0-2.0-2.0-1.0-2.0,,,,,,,,,,1.0,1.0,,,,60670c6f988b7e2e9edd72ea,16:55:45,03/04/2024
,"<div style=""font-size: 10rem; color: #0000FF"">J</div>",,ospan,letter,IJU2jtfXFEPhHzU8ca7RsR3VJYL2,html-keyboard-response,95,874691,0.0-46.0-2.0-2.0-1.0-3.0,,,,,,,,,,,,,,,60670c6f988b7e2e9edd72ea,16:55:45,03/04/2024
1158.0,,,ospan,symmetry,IJU2jtfXFEPhHzU8ca7RsR3VJYL2,symmetry-judgement-task,96,877763,0.0-46.0-2.0-2.0-1.0-4.0,,,,,,,,,,1.0,1.0,,,,60670c6f988b7e2e9edd72ea,16:55:45,03/04/2024
,"<div style=""font-size: 10rem; color: #0000FF"">K</div>",,ospan,letter,IJU2jtfXFEPhHzU8ca7RsR3VJYL2,html-keyboard-response,97,878780,0.0-46.0-2.0-2.0-1.0-5.0,,,,,,,,,,,,,,,60670c6f988b7e2e9edd72ea,16:55:45,03/04/2024
11390.700000047684,"<div class = numbox><p style=""font-size: 2.4rem"">Please recall the letters you saw to the best of your ability. If you do not remember a particular letter, use the SKIP button.<br><b>(When you are ready to lock in your answer, press ENTER)</b></p><button id = button_1 class = ""square num-button"" onclick = ""recordClick(this)""><div class = content><div class = numbers>C</div></div></button><button id = button_2 class = ""square num-button"" onclick = ""recordClick(this)""><div class = content><div class = numbers>G</div></div></button><button id = button_3 class = ""square num-button"" onclick = ""recordClick(this)""><div class = content><div class = numbers>H</div></div></button><button id = button_4 class = ""square num-button"" onclick = ""recordClick(this)""><div class = content><div class = numbers>J</div></div></button><button id = button_5 class = ""square num-button"" onclick = ""recordClick(this)""><div class = content><div class = numbers>K</div></div></button><button id = button_6 class = ""square num-button"" onclick = ""recordClick(this)""><div class = content><div class = numbers>L</div></div></button><button id = button_7 class = ""square num-button"" onclick = ""recordClick(this)""><div class = content><div class = numbers>N</div></div></button><button id = button_8 class = ""square num-button"" onclick = ""recordClick(this)""><div class = content><div class = numbers>P</div></div></button><button id = button_9 class = ""square num-button"" onclick = ""recordClick(this)""><div class = content><div class = numbers>Q</div></div></button><button id = button_10 class = ""square num-button"" onclick = ""recordClick(this)""><div class = content><div class = numbers>R</div></div></button><button id = button_11 class = ""square num-button"" onclick = ""recordClick(this)""><div class = content><div class = numbers>S</div></div></button><button id = button_12 class = ""square num-button"" onclick = ""recordClick(this)""><div class = content><div class = numbers>Y</div></div></button><button class = clear_button id = ""ClearButton"" onclick = ""clearResponse()"">BACKSPACE</button><button class = blank_button id = ""BlankButton"" onclick = ""blankResponse()"">SKIP</button><p style=""font-size: 2.4rem""><u><b>Current Answer:</b></u></p><br><br><div id=echoed_txt style=""font-size: 5rem; color:blue;""><b></b></div></div>",enter,ospan,retrieval,IJU2jtfXFEPhHzU8ca7RsR3VJYL2,html-keyboard-response,98,890928,0.0-46.0-2.0-2.0-2.0-0.0,NA,NA,NA,3.0,"[""G"",""J"",""K""]","[""G"",""J"",""K""]",1.0,3.0,"['<font color=""green"">G</font>', '<font color=""green"">J</font>', '<font color=""green"">K</font>']",,,,,,60670c6f988b7e2e9edd72ea,16:55:45,03/04/2024
1451.0999999046326,"['<p style=""font-size:44px"">Letters:<br><br><br><font color=""green"">G</font> <font color=""green"">J</font> <font color=""green"">K</font></p><br><br><p style=""font-size:30px"">Symmetry:<br><br><font color=""green"">100%</font></p><br><br>']",0,ospan,practice_feedback,IJU2jtfXFEPhHzU8ca7RsR3VJYL2,html-button-response,99,892891,0.0-46.0-2.0-2.0-2.0-1.0,,,,,,,,,,,,,,,60670c6f988b7e2e9edd72ea,16:55:45,03/04/2024
38767.40000009537,"<div class = 'left_align' style='font-size: 3rem; line-height: 1.3;'><b>Great work! That is the end of practice.</b><br><br>The real trials will look just like the practice trials you just completed.<br><br><u>Here, you will not see feedback</u>. First, you will see an grid picture to judge,<br>then a letter to remember. When the recall screen appears, report the letters in the<br>order presented. If you forget a letter, remember to use the <b>blank</b> button to move to the<br>next letter. Some of the sets will have more symmetry grids and letters than others.<br><br>It is important that you do your best on both the symmetry judgments and the letter recall<br>parts of the experiment. For for the symmetry judgments, try to work as <b>quickly</b> and <br>as <b>accurately</b> as possible. Remember to keep your symmetry accuracy at 85% or above.<br><br><b>For the letters, do NOT use any external aid (e.g., writing on paper, electronic device).</b><br><br>It is <u>very important</u> to our experiment to have a <b>true</b> view of your real performance.<br><br>Do not worry if you miss some when it gets hard! This task is meant to be very challenging!<br><br>Click the button to begin.</div><br><br><br><br>",0,ospan,starting_real_here,IJU2jtfXFEPhHzU8ca7RsR3VJYL2,html-button-response,100,931670,0.0-46.0-2.0-3.0,,,,,,,,,,,,,,,60670c6f988b7e2e9edd72ea,16:55:45,03/04/2024
,"<p style=""font-size:75px;"">...</p>",,ospan,iti,IJU2jtfXFEPhHzU8ca7RsR3VJYL2,html-keyboard-response,101,932936,0.0-46.0-3.0-0.0-0.0,,,,,,,,,,,,,,,60670c6f988b7e2e9edd72ea,16:55:45,03/04/2024
1453.0,,,ospan,symmetry,IJU2jtfXFEPhHzU8ca7RsR3VJYL2,symmetry-judgement-task,102,935554,0.0-46.0-3.0-0.0-1.0-0.0,,,,,,,,,,1.0,1.0,,,,60670c6f988b7e2e9edd72ea,16:55:45,03/04/2024
,"<div style=""font-size: 10rem; color: #0000FF"">P</div>",,ospan,letter,IJU2jtfXFEPhHzU8ca7RsR3VJYL2,html-keyboard-response,103,936565,0.0-46.0-3.0-0.0-1.0-1.0,,,,,,,,,,,,,,,60670c6f988b7e2e9edd72ea,16:55:45,03/04/2024
2036.0,,,ospan,symmetry,IJU2jtfXFEPhHzU8ca7RsR3VJYL2,symmetry-judgement-task,104,940530,0.0-46.0-3.0-0.0-1.0-2.0,,,,,,,,,,1.0,1.0,,,,60670c6f988b7e2e9edd72ea,16:55:45,03/04/2024
,"<div style=""font-size: 10rem; color: #0000FF"">R</div>",,ospan,letter,IJU2jtfXFEPhHzU8ca7RsR3VJYL2,html-keyboard-response,105,941532,0.0-46.0-3.0-0.0-1.0-3.0,,,,,,,,,,,,,,,60670c6f988b7e2e9edd72ea,16:55:45,03/04/2024
1899.0,,,ospan,symmetry,IJU2jtfXFEPhHzU8ca7RsR3VJYL2,symmetry-judgement-task,106,945362,0.0-46.0-3.0-0.0-1.0-4.0,,,,,,,,,,1.0,1.0,,,,60670c6f988b7e2e9edd72ea,16:55:45,03/04/2024
,"<div style=""font-size: 10rem; color: #0000FF"">Q</div>",,ospan,letter,IJU2jtfXFEPhHzU8ca7RsR3VJYL2,html-keyboard-response,107,946371,0.0-46.0-3.0-0.0-1.0-5.0,,,,,,,,,,,,,,,60670c6f988b7e2e9edd72ea,16:55:45,03/04/2024
5782.700000047684,"<div class = numbox><p style=""font-size: 2.4rem"">Please recall the letters you saw to the best of your ability. If you do not remember a particular letter, use the SKIP button.<br><b>(When you are ready to lock in your answer, press ENTER)</b></p><button id = button_1 class = ""square num-button"" onclick = ""recordClick(this)""><div class = content><div class = numbers>C</div></div></button><button id = button_2 class = ""square num-button"" onclick = ""recordClick(this)""><div class = content><div class = numbers>G</div></div></button><button id = button_3 class = ""square num-button"" onclick = ""recordClick(this)""><div class = content><div class = numbers>H</div></div></button><button id = button_4 class = ""square num-button"" onclick = ""recordClick(this)""><div class = content><div class = numbers>J</div></div></button><button id = button_5 class = ""square num-button"" onclick = ""recordClick(this)""><div class = content><div class = numbers>K</div></div></button><button id = button_6 class = ""square num-button"" onclick = ""recordClick(this)""><div class = content><div class = numbers>L</div></div></button><button id = button_7 class = ""square num-button"" onclick = ""recordClick(this)""><div class = content><div class = numbers>N</div></div></button><button id = button_8 class = ""square num-button"" onclick = ""recordClick(this)""><div class = content><div class = numbers>P</div></div></button><button id = button_9 class = ""square num-button"" onclick = ""recordClick(this)""><div class = content><div class = numbers>Q</div></div></button><button id = button_10 class = ""square num-button"" onclick = ""recordClick(this)""><div class = content><div class = numbers>R</div></div></button><button id = button_11 class = ""square num-button"" onclick = ""recordClick(this)""><div class = content><div class = numbers>S</div></div></button><button id = button_12 class = ""square num-button"" onclick = ""recordClick(this)""><div class = content><div class = numbers>Y</div></div></button><button class = clear_button id = ""ClearButton"" onclick = ""clearResponse()"">BACKSPACE</button><button class = blank_button id = ""BlankButton"" onclick = ""blankResponse()"">SKIP</button><p style=""font-size: 2.4rem""><u><b>Current Answer:</b></u></p><br><br><div id=echoed_txt style=""font-size: 5rem; color:blue;""><b></b></div></div>",enter,ospan,retrieval,IJU2jtfXFEPhHzU8ca7RsR3VJYL2,html-keyboard-response,108,952915,0.0-46.0-3.0-0.0-2.0,3,3,3,3.0,"[""P"",""R"",""Q""]","[""P"",""R"",""Q""]",1.0,3.0,,,,,,,60670c6f988b7e2e9edd72ea,16:55:45,03/04/2024
1413.0,[''],0,ospan,feedback,IJU2jtfXFEPhHzU8ca7RsR3VJYL2,html-button-response,109,954833,0.0-46.0-3.0-0.0-3.0,,,,,,,,,,,,100.0,0.0,,60670c6f988b7e2e9edd72ea,16:55:45,03/04/2024
,"<p style=""font-size:75px;"">...</p>",,ospan,iti,IJU2jtfXFEPhHzU8ca7RsR3VJYL2,html-keyboard-response,110,955847,0.0-46.0-4.0-0.0-0.0,,,,,,,,,,,,,,,60670c6f988b7e2e9edd72ea,16:55:45,03/04/2024
1328.0,,,ospan,symmetry,IJU2jtfXFEPhHzU8ca7RsR3VJYL2,symmetry-judgement-task,111,958356,0.0-46.0-4.0-0.0-1.0-0.0,,,,,,,,,,1.0,1.0,,,,60670c6f988b7e2e9edd72ea,16:55:45,03/04/2024
,"<div style=""font-size: 10rem; color: #0000FF"">Y</div>",,ospan,letter,IJU2jtfXFEPhHzU8ca7RsR3VJYL2,html-keyboard-response,112,959360,0.0-46.0-4.0-0.0-1.0-1.0,,,,,,,,,,,,,,,60670c6f988b7e2e9edd72ea,16:55:45,03/04/2024
1800.0,,,ospan,symmetry,IJU2jtfXFEPhHzU8ca7RsR3VJYL2,symmetry-judgement-task,113,963081,0.0-46.0-4.0-0.0-1.0-2.0,,,,,,,,,,1.0,1.0,,,,60670c6f988b7e2e9edd72ea,16:55:45,03/04/2024
,"<div style=""font-size: 10rem; color: #0000FF"">N</div>",,ospan,letter,IJU2jtfXFEPhHzU8ca7RsR3VJYL2,html-keyboard-response,114,964093,0.0-46.0-4.0-0.0-1.0-3.0,,,,,,,,,,,,,,,60670c6f988b7e2e9edd72ea,16:55:45,03/04/2024
1052.0,,,ospan,symmetry,IJU2jtfXFEPhHzU8ca7RsR3VJYL2,symmetry-judgement-task,115,967063,0.0-46.0-4.0-0.0-1.0-4.0,,,,,,,,,,1.0,1.0,,,,60670c6f988b7e2e9edd72ea,16:55:45,03/04/2024
,"<div style=""font-size: 10rem; color: #0000FF"">R</div>",,ospan,letter,IJU2jtfXFEPhHzU8ca7RsR3VJYL2,html-keyboard-response,116,968067,0.0-46.0-4.0-0.0-1.0-5.0,,,,,,,,,,,,,,,60670c6f988b7e2e9edd72ea,16:55:45,03/04/2024
1297.0,,,ospan,symmetry,IJU2jtfXFEPhHzU8ca7RsR3VJYL2,symmetry-judgement-task,117,971290,0.0-46.0-4.0-0.0-1.0-6.0,,,,,,,,,,1.0,1.0,,,,60670c6f988b7e2e9edd72ea,16:55:45,03/04/2024
,"<div style=""font-size: 10rem; color: #0000FF"">P</div>",,ospan,letter,IJU2jtfXFEPhHzU8ca7RsR3VJYL2,html-keyboard-response,118,972300,0.0-46.0-4.0-0.0-1.0-7.0,,,,,,,,,,,,,,,60670c6f988b7e2e9edd72ea,16:55:45,03/04/2024
5365.900000095367,"<div class = numbox><p style=""font-size: 2.4rem"">Please recall the letters you saw to the best of your ability. If you do not remember a particular letter, use the SKIP button.<br><b>(When you are ready to lock in your answer, press ENTER)</b></p><button id = button_1 class = ""square num-button"" onclick = ""recordClick(this)""><div class = content><div class = numbers>C</div></div></button><button id = button_2 class = ""square num-button"" onclick = ""recordClick(this)""><div class = content><div class = numbers>G</div></div></button><button id = button_3 class = ""square num-button"" onclick = ""recordClick(this)""><div class = content><div class = numbers>H</div></div></button><button id = button_4 class = ""square num-button"" onclick = ""recordClick(this)""><div class = content><div class = numbers>J</div></div></button><button id = button_5 class = ""square num-button"" onclick = ""recordClick(this)""><div class = content><div class = numbers>K</div></div></button><button id = button_6 class = ""square num-button"" onclick = ""recordClick(this)""><div class = content><div class = numbers>L</div></div></button><button id = button_7 class = ""square num-button"" onclick = ""recordClick(this)""><div class = content><div class = numbers>N</div></div></button><button id = button_8 class = ""square num-button"" onclick = ""recordClick(this)""><div class = content><div class = numbers>P</div></div></button><button id = button_9 class = ""square num-button"" onclick = ""recordClick(this)""><div class = content><div class = numbers>Q</div></div></button><button id = button_10 class = ""square num-button"" onclick = ""recordClick(this)""><div class = content><div class = numbers>R</div></div></button><button id = button_11 class = ""square num-button"" onclick = ""recordClick(this)""><div class = content><div class = numbers>S</div></div></button><button id = button_12 class = ""square num-button"" onclick = ""recordClick(this)""><div class = content><div class = numbers>Y</div></div></button><button class = clear_button id = ""ClearButton"" onclick = ""clearResponse()"">BACKSPACE</button><button class = blank_button id = ""BlankButton"" onclick = ""blankResponse()"">SKIP</button><p style=""font-size: 2.4rem""><u><b>Current Answer:</b></u></p><br><br><div id=echoed_txt style=""font-size: 5rem; color:blue;""><b></b></div></div>",enter,ospan,retrieval,IJU2jtfXFEPhHzU8ca7RsR3VJYL2,html-keyboard-response,119,978427,0.0-46.0-4.0-0.0-2.0,7,7,7,4.0,"[""Y"",""N"",""R"",""P""]","[""Y"",""N"",""R"",""P""]",1.0,4.0,,,,,,,60670c6f988b7e2e9edd72ea,16:55:45,03/04/2024
1294.3999998569489,[''],0,ospan,feedback,IJU2jtfXFEPhHzU8ca7RsR3VJYL2,html-button-response,120,980225,0.0-46.0-4.0-0.0-3.0,,,,,,,,,,,,100.0,0.0,,60670c6f988b7e2e9edd72ea,16:55:45,03/04/2024
,"<p style=""font-size:75px;"">...</p>",,ospan,iti,IJU2jtfXFEPhHzU8ca7RsR3VJYL2,html-keyboard-response,121,981228,0.0-46.0-4.0-1.0-0.0,,,,,,,,,,,,,,,60670c6f988b7e2e9edd72ea,16:55:45,03/04/2024
1289.0,,,ospan,symmetry,IJU2jtfXFEPhHzU8ca7RsR3VJYL2,symmetry-judgement-task,122,983571,0.0-46.0-4.0-1.0-1.0-0.0,,,,,,,,,,1.0,1.0,,,,60670c6f988b7e2e9edd72ea,16:55:45,03/04/2024
,"<div style=""font-size: 10rem; color: #0000FF"">P</div>",,ospan,letter,IJU2jtfXFEPhHzU8ca7RsR3VJYL2,html-keyboard-response,123,984585,0.0-46.0-4.0-1.0-1.0-1.0,,,,,,,,,,,,,,,60670c6f988b7e2e9edd72ea,16:55:45,03/04/2024
1432.0,,,ospan,symmetry,IJU2jtfXFEPhHzU8ca7RsR3VJYL2,symmetry-judgement-task,124,987940,0.0-46.0-4.0-1.0-1.0-2.0,,,,,,,,,,1.0,1.0,,,,60670c6f988b7e2e9edd72ea,16:55:45,03/04/2024
,"<div style=""font-size: 10rem; color: #0000FF"">R</div>",,ospan,letter,IJU2jtfXFEPhHzU8ca7RsR3VJYL2,html-keyboard-response,125,988953,0.0-46.0-4.0-1.0-1.0-3.0,,,,,,,,,,,,,,,60670c6f988b7e2e9edd72ea,16:55:45,03/04/2024
1577.0,,,ospan,symmetry,IJU2jtfXFEPhHzU8ca7RsR3VJYL2,symmetry-judgement-task,126,992451,0.0-46.0-4.0-1.0-1.0-4.0,,,,,,,,,,1.0,1.0,,,,60670c6f988b7e2e9edd72ea,16:55:45,03/04/2024
,"<div style=""font-size: 10rem; color: #0000FF"">S</div>",,ospan,letter,IJU2jtfXFEPhHzU8ca7RsR3VJYL2,html-keyboard-response,127,993456,0.0-46.0-4.0-1.0-1.0-5.0,,,,,,,,,,,,,,,60670c6f988b7e2e9edd72ea,16:55:45,03/04/2024
1868.0,,,ospan,symmetry,IJU2jtfXFEPhHzU8ca7RsR3VJYL2,symmetry-judgement-task,128,997139,0.0-46.0-4.0-1.0-1.0-6.0,,,,,,,,,,1.0,1.0,,,,60670c6f988b7e2e9edd72ea,16:55:45,03/04/2024
,"<div style=""font-size: 10rem; color: #0000FF"">C</div>",,ospan,letter,IJU2jtfXFEPhHzU8ca7RsR3VJYL2,html-keyboard-response,129,998150,0.0-46.0-4.0-1.0-1.0-7.0,,,,,,,,,,,,,,,60670c6f988b7e2e9edd72ea,16:55:45,03/04/2024
1375.0,,,ospan,symmetry,IJU2jtfXFEPhHzU8ca7RsR3VJYL2,symmetry-judgement-task,130,1001463,0.0-46.0-4.0-1.0-1.0-8.0,,,,,,,,,,1.0,1.0,,,,60670c6f988b7e2e9edd72ea,16:55:45,03/04/2024
,"<div style=""font-size: 10rem; color: #0000FF"">N</div>",,ospan,letter,IJU2jtfXFEPhHzU8ca7RsR3VJYL2,html-keyboard-response,131,1002465,0.0-46.0-4.0-1.0-1.0-9.0,,,,,,,,,,,,,,,60670c6f988b7e2e9edd72ea,16:55:45,03/04/2024
6979.900000095367,"<div class = numbox><p style=""font-size: 2.4rem"">Please recall the letters you saw to the best of your ability. If you do not remember a particular letter, use the SKIP button.<br><b>(When you are ready to lock in your answer, press ENTER)</b></p><button id = button_1 class = ""square num-button"" onclick = ""recordClick(this)""><div class = content><div class = numbers>C</div></div></button><button id = button_2 class = ""square num-button"" onclick = ""recordClick(this)""><div class = content><div class = numbers>G</div></div></button><button id = button_3 class = ""square num-button"" onclick = ""recordClick(this)""><div class = content><div class = numbers>H</div></div></button><button id = button_4 class = ""square num-button"" onclick = ""recordClick(this)""><div class = content><div class = numbers>J</div></div></button><button id = button_5 class = ""square num-button"" onclick = ""recordClick(this)""><div class = content><div class = numbers>K</div></div></button><button id = button_6 class = ""square num-button"" onclick = ""recordClick(this)""><div class = content><div class = numbers>L</div></div></button><button id = button_7 class = ""square num-button"" onclick = ""recordClick(this)""><div class = content><div class = numbers>N</div></div></button><button id = button_8 class = ""square num-button"" onclick = ""recordClick(this)""><div class = content><div class = numbers>P</div></div></button><button id = button_9 class = ""square num-button"" onclick = ""recordClick(this)""><div class = content><div class = numbers>Q</div></div></button><button id = button_10 class = ""square num-button"" onclick = ""recordClick(this)""><div class = content><div class = numbers>R</div></div></button><button id = button_11 class = ""square num-button"" onclick = ""recordClick(this)""><div class = content><div class = numbers>S</div></div></button><button id = button_12 class = ""square num-button"" onclick = ""recordClick(this)""><div class = content><div class = numbers>Y</div></div></button><button class = clear_button id = ""ClearButton"" onclick = ""clearResponse()"">BACKSPACE</button><button class = blank_button id = ""BlankButton"" onclick = ""blankResponse()"">SKIP</button><p style=""font-size: 2.4rem""><u><b>Current Answer:</b></u></p><br><br><div id=echoed_txt style=""font-size: 5rem; color:blue;""><b></b></div></div>",enter,ospan,retrieval,IJU2jtfXFEPhHzU8ca7RsR3VJYL2,html-keyboard-response,132,1010204,0.0-46.0-4.0-1.0-2.0,12,12,12,5.0,"[""P"",""R"",""S"",""C"",""N""]","[""P"",""R"",""S"",""C"",""N""]",1.0,5.0,,,,,,,60670c6f988b7e2e9edd72ea,16:55:45,03/04/2024
1114.6000001430511,[''],0,ospan,feedback,IJU2jtfXFEPhHzU8ca7RsR3VJYL2,html-button-response,133,1011833,0.0-46.0-4.0-1.0-3.0,,,,,,,,,,,,100.0,0.0,,60670c6f988b7e2e9edd72ea,16:55:45,03/04/2024
,"<p style=""font-size:75px;"">...</p>",,ospan,iti,IJU2jtfXFEPhHzU8ca7RsR3VJYL2,html-keyboard-response,134,1012839,0.0-46.0-4.0-2.0-0.0,,,,,,,,,,,,,,,60670c6f988b7e2e9edd72ea,16:55:45,03/04/2024
1392.0,,,ospan,symmetry,IJU2jtfXFEPhHzU8ca7RsR3VJYL2,symmetry-judgement-task,135,1015399,0.0-46.0-4.0-2.0-1.0-0.0,,,,,,,,,,1.0,1.0,,,,60670c6f988b7e2e9edd72ea,16:55:45,03/04/2024
,"<div style=""font-size: 10rem; color: #0000FF"">K</div>",,ospan,letter,IJU2jtfXFEPhHzU8ca7RsR3VJYL2,html-keyboard-response,136,1016401,0.0-46.0-4.0-2.0-1.0-1.0,,,,,,,,,,,,,,,60670c6f988b7e2e9edd72ea,16:55:45,03/04/2024
1184.0,,,ospan,symmetry,IJU2jtfXFEPhHzU8ca7RsR3VJYL2,symmetry-judgement-task,137,1019515,0.0-46.0-4.0-2.0-1.0-2.0,,,,,,,,,,1.0,1.0,,,,60670c6f988b7e2e9edd72ea,16:55:45,03/04/2024
,"<div style=""font-size: 10rem; color: #0000FF"">L</div>",,ospan,letter,IJU2jtfXFEPhHzU8ca7RsR3VJYL2,html-keyboard-response,138,1020521,0.0-46.0-4.0-2.0-1.0-3.0,,,,,,,,,,,,,,,60670c6f988b7e2e9edd72ea,16:55:45,03/04/2024
1429.0,,,ospan,symmetry,IJU2jtfXFEPhHzU8ca7RsR3VJYL2,symmetry-judgement-task,139,1023881,0.0-46.0-4.0-2.0-1.0-4.0,,,,,,,,,,1.0,1.0,,,,60670c6f988b7e2e9edd72ea,16:55:45,03/04/2024
,"<div style=""font-size: 10rem; color: #0000FF"">C</div>",,ospan,letter,IJU2jtfXFEPhHzU8ca7RsR3VJYL2,html-keyboard-response,140,1024895,0.0-46.0-4.0-2.0-1.0-5.0,,,,,,,,,,,,,,,60670c6f988b7e2e9edd72ea,16:55:45,03/04/2024
6413.599999904633,"<div class = numbox><p style=""font-size: 2.4rem"">Please recall the letters you saw to the best of your ability. If you do not remember a particular letter, use the SKIP button.<br><b>(When you are ready to lock in your answer, press ENTER)</b></p><button id = button_1 class = ""square num-button"" onclick = ""recordClick(this)""><div class = content><div class = numbers>C</div></div></button><button id = button_2 class = ""square num-button"" onclick = ""recordClick(this)""><div class = content><div class = numbers>G</div></div></button><button id = button_3 class = ""square num-button"" onclick = ""recordClick(this)""><div class = content><div class = numbers>H</div></div></button><button id = button_4 class = ""square num-button"" onclick = ""recordClick(this)""><div class = content><div class = numbers>J</div></div></button><button id = button_5 class = ""square num-button"" onclick = ""recordClick(this)""><div class = content><div class = numbers>K</div></div></button><button id = button_6 class = ""square num-button"" onclick = ""recordClick(this)""><div class = content><div class = numbers>L</div></div></button><button id = button_7 class = ""square num-button"" onclick = ""recordClick(this)""><div class = content><div class = numbers>N</div></div></button><button id = button_8 class = ""square num-button"" onclick = ""recordClick(this)""><div class = content><div class = numbers>P</div></div></button><button id = button_9 class = ""square num-button"" onclick = ""recordClick(this)""><div class = content><div class = numbers>Q</div></div></button><button id = button_10 class = ""square num-button"" onclick = ""recordClick(this)""><div class = content><div class = numbers>R</div></div></button><button id = button_11 class = ""square num-button"" onclick = ""recordClick(this)""><div class = content><div class = numbers>S</div></div></button><button id = button_12 class = ""square num-button"" onclick = ""recordClick(this)""><div class = content><div class = numbers>Y</div></div></button><button class = clear_button id = ""ClearButton"" onclick = ""clearResponse()"">BACKSPACE</button><button class = blank_button id = ""BlankButton"" onclick = ""blankResponse()"">SKIP</button><p style=""font-size: 2.4rem""><u><b>Current Answer:</b></u></p><br><br><div id=echoed_txt style=""font-size: 5rem; color:blue;""><b></b></div></div>",enter,ospan,retrieval,IJU2jtfXFEPhHzU8ca7RsR3VJYL2,html-keyboard-response,141,1032075,0.0-46.0-4.0-2.0-2.0,15,14,12,3.0,"[""P"",""L"",""C""]","[""K"",""L"",""C""]",0.0,2.0,,,,,,,60670c6f988b7e2e9edd72ea,16:55:45,03/04/2024
1468.5999999046326,[''],0,ospan,feedback,IJU2jtfXFEPhHzU8ca7RsR3VJYL2,html-button-response,142,1034047,0.0-46.0-4.0-2.0-3.0,,,,,,,,,,,,100.0,0.0,,60670c6f988b7e2e9edd72ea,16:55:45,03/04/2024
,"<p style=""font-size:75px;"">...</p>",,ospan,iti,IJU2jtfXFEPhHzU8ca7RsR3VJYL2,html-keyboard-response,143,1035056,0.0-46.0-5.0-0.0-0.0,,,,,,,,,,,,,,,60670c6f988b7e2e9edd72ea,16:55:45,03/04/2024
2194.0,,,ospan,symmetry,IJU2jtfXFEPhHzU8ca7RsR3VJYL2,symmetry-judgement-task,144,1038313,0.0-46.0-5.0-0.0-1.0-0.0,,,,,,,,,,1.0,1.0,,,,60670c6f988b7e2e9edd72ea,16:55:45,03/04/2024
,"<div style=""font-size: 10rem; color: #0000FF"">R</div>",,ospan,letter,IJU2jtfXFEPhHzU8ca7RsR3VJYL2,html-keyboard-response,145,1039322,0.0-46.0-5.0-0.0-1.0-1.0,,,,,,,,,,,,,,,60670c6f988b7e2e9edd72ea,16:55:45,03/04/2024
1327.0,,,ospan,symmetry,IJU2jtfXFEPhHzU8ca7RsR3VJYL2,symmetry-judgement-task,146,1042566,0.0-46.0-5.0-0.0-1.0-2.0,,,,,,,,,,1.0,1.0,,,,60670c6f988b7e2e9edd72ea,16:55:45,03/04/2024
,"<div style=""font-size: 10rem; color: #0000FF"">C</div>",,ospan,letter,IJU2jtfXFEPhHzU8ca7RsR3VJYL2,html-keyboard-response,147,1043571,0.0-46.0-5.0-0.0-1.0-3.0,,,,,,,,,,,,,,,60670c6f988b7e2e9edd72ea,16:55:45,03/04/2024
1277.0,,,ospan,symmetry,IJU2jtfXFEPhHzU8ca7RsR3VJYL2,symmetry-judgement-task,148,1046755,0.0-46.0-5.0-0.0-1.0-4.0,,,,,,,,,,1.0,1.0,,,,60670c6f988b7e2e9edd72ea,16:55:45,03/04/2024
,"<div style=""font-size: 10rem; color: #0000FF"">Y</div>",,ospan,letter,IJU2jtfXFEPhHzU8ca7RsR3VJYL2,html-keyboard-response,149,1047760,0.0-46.0-5.0-0.0-1.0-5.0,,,,,,,,,,,,,,,60670c6f988b7e2e9edd72ea,16:55:45,03/04/2024
1653.0,,,ospan,symmetry,IJU2jtfXFEPhHzU8ca7RsR3VJYL2,symmetry-judgement-task,150,1051363,0.0-46.0-5.0-0.0-1.0-6.0,,,,,,,,,,1.0,1.0,,,,60670c6f988b7e2e9edd72ea,16:55:45,03/04/2024
,"<div style=""font-size: 10rem; color: #0000FF"">K</div>",,ospan,letter,IJU2jtfXFEPhHzU8ca7RsR3VJYL2,html-keyboard-response,151,1052368,0.0-46.0-5.0-0.0-1.0-7.0,,,,,,,,,,,,,,,60670c6f988b7e2e9edd72ea,16:55:45,03/04/2024
1276.0,,,ospan,symmetry,IJU2jtfXFEPhHzU8ca7RsR3VJYL2,symmetry-judgement-task,152,1055571,0.0-46.0-5.0-0.0-1.0-8.0,,,,,,,,,,1.0,1.0,,,,60670c6f988b7e2e9edd72ea,16:55:45,03/04/2024
,"<div style=""font-size: 10rem; color: #0000FF"">N</div>",,ospan,letter,IJU2jtfXFEPhHzU8ca7RsR3VJYL2,html-keyboard-response,153,1056583,0.0-46.0-5.0-0.0-1.0-9.0,,,,,,,,,,,,,,,60670c6f988b7e2e9edd72ea,16:55:45,03/04/2024
1104.0,,,ospan,symmetry,IJU2jtfXFEPhHzU8ca7RsR3VJYL2,symmetry-judgement-task,154,1059624,0.0-46.0-5.0-0.0-1.0-10.0,,,,,,,,,,1.0,1.0,,,,60670c6f988b7e2e9edd72ea,16:55:45,03/04/2024
,"<div style=""font-size: 10rem; color: #0000FF"">Q</div>",,ospan,letter,IJU2jtfXFEPhHzU8ca7RsR3VJYL2,html-keyboard-response,155,1060627,0.0-46.0-5.0-0.0-1.0-11.0,,,,,,,,,,,,,,,60670c6f988b7e2e9edd72ea,16:55:45,03/04/2024
13723.5,"<div class = numbox><p style=""font-size: 2.4rem"">Please recall the letters you saw to the best of your ability. If you do not remember a particular letter, use the SKIP button.<br><b>(When you are ready to lock in your answer, press ENTER)</b></p><button id = button_1 class = ""square num-button"" onclick = ""recordClick(this)""><div class = content><div class = numbers>C</div></div></button><button id = button_2 class = ""square num-button"" onclick = ""recordClick(this)""><div class = content><div class = numbers>G</div></div></button><button id = button_3 class = ""square num-button"" onclick = ""recordClick(this)""><div class = content><div class = numbers>H</div></div></button><button id = button_4 class = ""square num-button"" onclick = ""recordClick(this)""><div class = content><div class = numbers>J</div></div></button><button id = button_5 class = ""square num-button"" onclick = ""recordClick(this)""><div class = content><div class = numbers>K</div></div></button><button id = button_6 class = ""square num-button"" onclick = ""recordClick(this)""><div class = content><div class = numbers>L</div></div></button><button id = button_7 class = ""square num-button"" onclick = ""recordClick(this)""><div class = content><div class = numbers>N</div></div></button><button id = button_8 class = ""square num-button"" onclick = ""recordClick(this)""><div class = content><div class = numbers>P</div></div></button><button id = button_9 class = ""square num-button"" onclick = ""recordClick(this)""><div class = content><div class = numbers>Q</div></div></button><button id = button_10 class = ""square num-button"" onclick = ""recordClick(this)""><div class = content><div class = numbers>R</div></div></button><button id = button_11 class = ""square num-button"" onclick = ""recordClick(this)""><div class = content><div class = numbers>S</div></div></button><button id = button_12 class = ""square num-button"" onclick = ""recordClick(this)""><div class = content><div class = numbers>Y</div></div></button><button class = clear_button id = ""ClearButton"" onclick = ""clearResponse()"">BACKSPACE</button><button class = blank_button id = ""BlankButton"" onclick = ""blankResponse()"">SKIP</button><p style=""font-size: 2.4rem""><u><b>Current Answer:</b></u></p><br><br><div id=echoed_txt style=""font-size: 5rem; color:blue;""><b></b></div></div>",enter,ospan,retrieval,IJU2jtfXFEPhHzU8ca7RsR3VJYL2,html-keyboard-response,156,1075116,0.0-46.0-5.0-0.0-2.0,21,18,12,6.0,"[""R"",""C"",""Y"",""K"",""_"",""_""]","[""R"",""C"",""Y"",""K"",""N"",""Q""]",0.0,4.0,,,,,,,60670c6f988b7e2e9edd72ea,16:55:45,03/04/2024
1093.8000001907349,[''],0,ospan,feedback,IJU2jtfXFEPhHzU8ca7RsR3VJYL2,html-button-response,157,1076713,0.0-46.0-5.0-0.0-3.0,,,,,,,,,,,,100.0,0.0,,60670c6f988b7e2e9edd72ea,16:55:45,03/04/2024
,"<p style=""font-size:75px;"">...</p>",,ospan,iti,IJU2jtfXFEPhHzU8ca7RsR3VJYL2,html-keyboard-response,158,1077726,0.0-46.0-5.0-1.0-0.0,,,,,,,,,,,,,,,60670c6f988b7e2e9edd72ea,16:55:45,03/04/2024
1912.0,,,ospan,symmetry,IJU2jtfXFEPhHzU8ca7RsR3VJYL2,symmetry-judgement-task,159,1080864,0.0-46.0-5.0-1.0-1.0-0.0,,,,,,,,,,1.0,1.0,,,,60670c6f988b7e2e9edd72ea,16:55:45,03/04/2024
,"<div style=""font-size: 10rem; color: #0000FF"">R</div>",,ospan,letter,IJU2jtfXFEPhHzU8ca7RsR3VJYL2,html-keyboard-response,160,1081869,0.0-46.0-5.0-1.0-1.0-1.0,,,,,,,,,,,,,,,60670c6f988b7e2e9edd72ea,16:55:45,03/04/2024
1250.0,,,ospan,symmetry,IJU2jtfXFEPhHzU8ca7RsR3VJYL2,symmetry-judgement-task,161,1085053,0.0-46.0-5.0-1.0-1.0-2.0,,,,,,,,,,1.0,1.0,,,,60670c6f988b7e2e9edd72ea,16:55:45,03/04/2024
,"<div style=""font-size: 10rem; color: #0000FF"">K</div>",,ospan,letter,IJU2jtfXFEPhHzU8ca7RsR3VJYL2,html-keyboard-response,162,1086066,0.0-46.0-5.0-1.0-1.0-3.0,,,,,,,,,,,,,,,60670c6f988b7e2e9edd72ea,16:55:45,03/04/2024
1570.0,,,ospan,symmetry,IJU2jtfXFEPhHzU8ca7RsR3VJYL2,symmetry-judgement-task,163,1089567,0.0-46.0-5.0-1.0-1.0-4.0,,,,,,,,,,1.0,1.0,,,,60670c6f988b7e2e9edd72ea,16:55:45,03/04/2024
,"<div style=""font-size: 10rem; color: #0000FF"">C</div>",,ospan,letter,IJU2jtfXFEPhHzU8ca7RsR3VJYL2,html-keyboard-response,164,1090580,0.0-46.0-5.0-1.0-1.0-5.0,,,,,,,,,,,,,,,60670c6f988b7e2e9edd72ea,16:55:45,03/04/2024
1422.0,,,ospan,symmetry,IJU2jtfXFEPhHzU8ca7RsR3VJYL2,symmetry-judgement-task,165,1093932,0.0-46.0-5.0-1.0-1.0-6.0,,,,,,,,,,1.0,1.0,,,,60670c6f988b7e2e9edd72ea,16:55:45,03/04/2024
,"<div style=""font-size: 10rem; color: #0000FF"">J</div>",,ospan,letter,IJU2jtfXFEPhHzU8ca7RsR3VJYL2,html-keyboard-response,166,1094937,0.0-46.0-5.0-1.0-1.0-7.0,,,,,,,,,,,,,,,60670c6f988b7e2e9edd72ea,16:55:45,03/04/2024
1576.0,,,ospan,symmetry,IJU2jtfXFEPhHzU8ca7RsR3VJYL2,symmetry-judgement-task,167,1098463,0.0-46.0-5.0-1.0-1.0-8.0,,,,,,,,,,1.0,1.0,,,,60670c6f988b7e2e9edd72ea,16:55:45,03/04/2024
,"<div style=""font-size: 10rem; color: #0000FF"">N</div>",,ospan,letter,IJU2jtfXFEPhHzU8ca7RsR3VJYL2,html-keyboard-response,168,1099469,0.0-46.0-5.0-1.0-1.0-9.0,,,,,,,,,,,,,,,60670c6f988b7e2e9edd72ea,16:55:45,03/04/2024
1699.0,,,ospan,symmetry,IJU2jtfXFEPhHzU8ca7RsR3VJYL2,symmetry-judgement-task,169,1103092,0.0-46.0-5.0-1.0-1.0-10.0,,,,,,,,,,1.0,1.0,,,,60670c6f988b7e2e9edd72ea,16:55:45,03/04/2024
,"<div style=""font-size: 10rem; color: #0000FF"">G</div>",,ospan,letter,IJU2jtfXFEPhHzU8ca7RsR3VJYL2,html-keyboard-response,170,1104098,0.0-46.0-5.0-1.0-1.0-11.0,,,,,,,,,,,,,,,60670c6f988b7e2e9edd72ea,16:55:45,03/04/2024
1278.0,,,ospan,symmetry,IJU2jtfXFEPhHzU8ca7RsR3VJYL2,symmetry-judgement-task,171,1107287,0.0-46.0-5.0-1.0-1.0-12.0,,,,,,,,,,0.0,0.0,,,,60670c6f988b7e2e9edd72ea,16:55:45,03/04/2024
,"<div style=""font-size: 10rem; color: #0000FF"">L</div>",,ospan,letter,IJU2jtfXFEPhHzU8ca7RsR3VJYL2,html-keyboard-response,172,1108290,0.0-46.0-5.0-1.0-1.0-13.0,,,,,,,,,,,,,,,60670c6f988b7e2e9edd72ea,16:55:45,03/04/2024
15746.5,"<div class = numbox><p style=""font-size: 2.4rem"">Please recall the letters you saw to the best of your ability. If you do not remember a particular letter, use the SKIP button.<br><b>(When you are ready to lock in your answer, press ENTER)</b></p><button id = button_1 class = ""square num-button"" onclick = ""recordClick(this)""><div class = content><div class = numbers>C</div></div></button><button id = button_2 class = ""square num-button"" onclick = ""recordClick(this)""><div class = content><div class = numbers>G</div></div></button><button id = button_3 class = ""square num-button"" onclick = ""recordClick(this)""><div class = content><div class = numbers>H</div></div></button><button id = button_4 class = ""square num-button"" onclick = ""recordClick(this)""><div class = content><div class = numbers>J</div></div></button><button id = button_5 class = ""square num-button"" onclick = ""recordClick(this)""><div class = content><div class = numbers>K</div></div></button><button id = button_6 class = ""square num-button"" onclick = ""recordClick(this)""><div class = content><div class = numbers>L</div></div></button><button id = button_7 class = ""square num-button"" onclick = ""recordClick(this)""><div class = content><div class = numbers>N</div></div></button><button id = button_8 class = ""square num-button"" onclick = ""recordClick(this)""><div class = content><div class = numbers>P</div></div></button><button id = button_9 class = ""square num-button"" onclick = ""recordClick(this)""><div class = content><div class = numbers>Q</div></div></button><button id = button_10 class = ""square num-button"" onclick = ""recordClick(this)""><div class = content><div class = numbers>R</div></div></button><button id = button_11 class = ""square num-button"" onclick = ""recordClick(this)""><div class = content><div class = numbers>S</div></div></button><button id = button_12 class = ""square num-button"" onclick = ""recordClick(this)""><div class = content><div class = numbers>Y</div></div></button><button class = clear_button id = ""ClearButton"" onclick = ""clearResponse()"">BACKSPACE</button><button class = blank_button id = ""BlankButton"" onclick = ""blankResponse()"">SKIP</button><p style=""font-size: 2.4rem""><u><b>Current Answer:</b></u></p><br><br><div id=echoed_txt style=""font-size: 5rem; color:blue;""><b></b></div></div>",enter,ospan,retrieval,IJU2jtfXFEPhHzU8ca7RsR3VJYL2,html-keyboard-response,173,1124794,0.0-46.0-5.0-1.0-2.0,28,21,12,7.0,"[""R"",""K"",""C"",""_"",""_""]","[""R"",""K"",""C"",""J"",""N"",""G"",""L""]",0.0,3.0,,,,,,,60670c6f988b7e2e9edd72ea,16:55:45,03/04/2024
1333.5999999046326,[''],0,ospan,feedback,IJU2jtfXFEPhHzU8ca7RsR3VJYL2,html-button-response,174,1126645,0.0-46.0-5.0-1.0-3.0,,,,,,,,,,,,96.0,0.0,,60670c6f988b7e2e9edd72ea,16:55:45,03/04/2024
,"<p style=""font-size:75px;"">...</p>",,ospan,iti,IJU2jtfXFEPhHzU8ca7RsR3VJYL2,html-keyboard-response,175,1127648,0.0-46.0-6.0-0.0-0.0,,,,,,,,,,,,,,,60670c6f988b7e2e9edd72ea,16:55:45,03/04/2024
2204.0,,,ospan,symmetry,IJU2jtfXFEPhHzU8ca7RsR3VJYL2,symmetry-judgement-task,176,1131016,0.0-46.0-6.0-0.0-1.0-0.0,,,,,,,,,,1.0,1.0,,,,60670c6f988b7e2e9edd72ea,16:55:45,03/04/2024
,"<div style=""font-size: 10rem; color: #0000FF"">J</div>",,ospan,letter,IJU2jtfXFEPhHzU8ca7RsR3VJYL2,html-keyboard-response,177,1132018,0.0-46.0-6.0-0.0-1.0-1.0,,,,,,,,,,,,,,,60670c6f988b7e2e9edd72ea,16:55:45,03/04/2024
2304.0,,,ospan,symmetry,IJU2jtfXFEPhHzU8ca7RsR3VJYL2,symmetry-judgement-task,178,1136249,0.0-46.0-6.0-0.0-1.0-2.0,,,,,,,,,,1.0,1.0,,,,60670c6f988b7e2e9edd72ea,16:55:45,03/04/2024
,"<div style=""font-size: 10rem; color: #0000FF"">L</div>",,ospan,letter,IJU2jtfXFEPhHzU8ca7RsR3VJYL2,html-keyboard-response,179,1137251,0.0-46.0-6.0-0.0-1.0-3.0,,,,,,,,,,,,,,,60670c6f988b7e2e9edd72ea,16:55:45,03/04/2024
2734.0,,,ospan,symmetry,IJU2jtfXFEPhHzU8ca7RsR3VJYL2,symmetry-judgement-task,180,1141892,0.0-46.0-6.0-0.0-1.0-4.0,,,,,,,,,,1.0,1.0,,,,60670c6f988b7e2e9edd72ea,16:55:45,03/04/2024
,"<div style=""font-size: 10rem; color: #0000FF"">S</div>",,ospan,letter,IJU2jtfXFEPhHzU8ca7RsR3VJYL2,html-keyboard-response,181,1142894,0.0-46.0-6.0-0.0-1.0-5.0,,,,,,,,,,,,,,,60670c6f988b7e2e9edd72ea,16:55:45,03/04/2024
1639.0,,,ospan,symmetry,IJU2jtfXFEPhHzU8ca7RsR3VJYL2,symmetry-judgement-task,182,1146470,0.0-46.0-6.0-0.0-1.0-6.0,,,,,,,,,,1.0,1.0,,,,60670c6f988b7e2e9edd72ea,16:55:45,03/04/2024
,"<div style=""font-size: 10rem; color: #0000FF"">N</div>",,ospan,letter,IJU2jtfXFEPhHzU8ca7RsR3VJYL2,html-keyboard-response,183,1147481,0.0-46.0-6.0-0.0-1.0-7.0,,,,,,,,,,,,,,,60670c6f988b7e2e9edd72ea,16:55:45,03/04/2024
2424.0,,,ospan,symmetry,IJU2jtfXFEPhHzU8ca7RsR3VJYL2,symmetry-judgement-task,184,1151820,0.0-46.0-6.0-0.0-1.0-8.0,,,,,,,,,,1.0,1.0,,,,60670c6f988b7e2e9edd72ea,16:55:45,03/04/2024
,"<div style=""font-size: 10rem; color: #0000FF"">R</div>",,ospan,letter,IJU2jtfXFEPhHzU8ca7RsR3VJYL2,html-keyboard-response,185,1152836,0.0-46.0-6.0-0.0-1.0-9.0,,,,,,,,,,,,,,,60670c6f988b7e2e9edd72ea,16:55:45,03/04/2024
8025.199999809265,"<div class = numbox><p style=""font-size: 2.4rem"">Please recall the letters you saw to the best of your ability. If you do not remember a particular letter, use the SKIP button.<br><b>(When you are ready to lock in your answer, press ENTER)</b></p><button id = button_1 class = ""square num-button"" onclick = ""recordClick(this)""><div class = content><div class = numbers>C</div></div></button><button id = button_2 class = ""square num-button"" onclick = ""recordClick(this)""><div class = content><div class = numbers>G</div></div></button><button id = button_3 class = ""square num-button"" onclick = ""recordClick(this)""><div class = content><div class = numbers>H</div></div></button><button id = button_4 class = ""square num-button"" onclick = ""recordClick(this)""><div class = content><div class = numbers>J</div></div></button><button id = button_5 class = ""square num-button"" onclick = ""recordClick(this)""><div class = content><div class = numbers>K</div></div></button><button id = button_6 class = ""square num-button"" onclick = ""recordClick(this)""><div class = content><div class = numbers>L</div></div></button><button id = button_7 class = ""square num-button"" onclick = ""recordClick(this)""><div class = content><div class = numbers>N</div></div></button><button id = button_8 class = ""square num-button"" onclick = ""recordClick(this)""><div class = content><div class = numbers>P</div></div></button><button id = button_9 class = ""square num-button"" onclick = ""recordClick(this)""><div class = content><div class = numbers>Q</div></div></button><button id = button_10 class = ""square num-button"" onclick = ""recordClick(this)""><div class = content><div class = numbers>R</div></div></button><button id = button_11 class = ""square num-button"" onclick = ""recordClick(this)""><div class = content><div class = numbers>S</div></div></button><button id = button_12 class = ""square num-button"" onclick = ""recordClick(this)""><div class = content><div class = numbers>Y</div></div></button><button class = clear_button id = ""ClearButton"" onclick = ""clearResponse()"">BACKSPACE</button><button class = blank_button id = ""BlankButton"" onclick = ""blankResponse()"">SKIP</button><p style=""font-size: 2.4rem""><u><b>Current Answer:</b></u></p><br><br><div id=echoed_txt style=""font-size: 5rem; color:blue;""><b></b></div></div>",enter,ospan,retrieval,IJU2jtfXFEPhHzU8ca7RsR3VJYL2,html-keyboard-response,186,1161618,0.0-46.0-6.0-0.0-2.0,33,22,12,5.0,"[""J"",""S"",""L"",""_""]","[""J"",""L"",""S"",""N"",""R""]",0.0,1.0,,,,,,,60670c6f988b7e2e9edd72ea,16:55:45,03/04/2024
1059.3999998569489,[''],0,ospan,feedback,IJU2jtfXFEPhHzU8ca7RsR3VJYL2,html-button-response,187,1163185,0.0-46.0-6.0-0.0-3.0,,,,,,,,,,,,97.0,0.0,,60670c6f988b7e2e9edd72ea,16:55:45,03/04/2024
,"<p style=""font-size:75px;"">...</p>",,ospan,iti,IJU2jtfXFEPhHzU8ca7RsR3VJYL2,html-keyboard-response,188,1164192,0.0-46.0-6.0-1.0-0.0,,,,,,,,,,,,,,,60670c6f988b7e2e9edd72ea,16:55:45,03/04/2024
2417.0,,,ospan,symmetry,IJU2jtfXFEPhHzU8ca7RsR3VJYL2,symmetry-judgement-task,189,1167766,0.0-46.0-6.0-1.0-1.0-0.0,,,,,,,,,,1.0,1.0,,,,60670c6f988b7e2e9edd72ea,16:55:45,03/04/2024
,"<div style=""font-size: 10rem; color: #0000FF"">K</div>",,ospan,letter,IJU2jtfXFEPhHzU8ca7RsR3VJYL2,html-keyboard-response,190,1168777,0.0-46.0-6.0-1.0-1.0-1.0,,,,,,,,,,,,,,,60670c6f988b7e2e9edd72ea,16:55:45,03/04/2024
1814.0,,,ospan,symmetry,IJU2jtfXFEPhHzU8ca7RsR3VJYL2,symmetry-judgement-task,191,1172521,0.0-46.0-6.0-1.0-1.0-2.0,,,,,,,,,,1.0,1.0,,,,60670c6f988b7e2e9edd72ea,16:55:45,03/04/2024
,"<div style=""font-size: 10rem; color: #0000FF"">Y</div>",,ospan,letter,IJU2jtfXFEPhHzU8ca7RsR3VJYL2,html-keyboard-response,192,1173536,0.0-46.0-6.0-1.0-1.0-3.0,,,,,,,,,,,,,,,60670c6f988b7e2e9edd72ea,16:55:45,03/04/2024
1391.0,,,ospan,symmetry,IJU2jtfXFEPhHzU8ca7RsR3VJYL2,symmetry-judgement-task,193,1176844,0.0-46.0-6.0-1.0-1.0-4.0,,,,,,,,,,1.0,1.0,,,,60670c6f988b7e2e9edd72ea,16:55:45,03/04/2024
,"<div style=""font-size: 10rem; color: #0000FF"">C</div>",,ospan,letter,IJU2jtfXFEPhHzU8ca7RsR3VJYL2,html-keyboard-response,194,1177853,0.0-46.0-6.0-1.0-1.0-5.0,,,,,,,,,,,,,,,60670c6f988b7e2e9edd72ea,16:55:45,03/04/2024
1634.0,,,ospan,symmetry,IJU2jtfXFEPhHzU8ca7RsR3VJYL2,symmetry-judgement-task,195,1181435,0.0-46.0-6.0-1.0-1.0-6.0,,,,,,,,,,1.0,1.0,,,,60670c6f988b7e2e9edd72ea,16:55:45,03/04/2024
,"<div style=""font-size: 10rem; color: #0000FF"">N</div>",,ospan,letter,IJU2jtfXFEPhHzU8ca7RsR3VJYL2,html-keyboard-response,196,1182437,0.0-46.0-6.0-1.0-1.0-7.0,,,,,,,,,,,,,,,60670c6f988b7e2e9edd72ea,16:55:45,03/04/2024
1211.0,,,ospan,symmetry,IJU2jtfXFEPhHzU8ca7RsR3VJYL2,symmetry-judgement-task,197,1185586,0.0-46.0-6.0-1.0-1.0-8.0,,,,,,,,,,1.0,1.0,,,,60670c6f988b7e2e9edd72ea,16:55:45,03/04/2024
,"<div style=""font-size: 10rem; color: #0000FF"">Q</div>",,ospan,letter,IJU2jtfXFEPhHzU8ca7RsR3VJYL2,html-keyboard-response,198,1186595,0.0-46.0-6.0-1.0-1.0-9.0,,,,,,,,,,,,,,,60670c6f988b7e2e9edd72ea,16:55:45,03/04/2024
1302.0,,,ospan,symmetry,IJU2jtfXFEPhHzU8ca7RsR3VJYL2,symmetry-judgement-task,199,1189806,0.0-46.0-6.0-1.0-1.0-10.0,,,,,,,,,,1.0,1.0,,,,60670c6f988b7e2e9edd72ea,16:55:45,03/04/2024
,"<div style=""font-size: 10rem; color: #0000FF"">S</div>",,ospan,letter,IJU2jtfXFEPhHzU8ca7RsR3VJYL2,html-keyboard-response,200,1190813,0.0-46.0-6.0-1.0-1.0-11.0,,,,,,,,,,,,,,,60670c6f988b7e2e9edd72ea,16:55:45,03/04/2024
1705.0,,,ospan,symmetry,IJU2jtfXFEPhHzU8ca7RsR3VJYL2,symmetry-judgement-task,201,1194459,0.0-46.0-6.0-1.0-1.0-12.0,,,,,,,,,,1.0,1.0,,,,60670c6f988b7e2e9edd72ea,16:55:45,03/04/2024
,"<div style=""font-size: 10rem; color: #0000FF"">P</div>",,ospan,letter,IJU2jtfXFEPhHzU8ca7RsR3VJYL2,html-keyboard-response,202,1195468,0.0-46.0-6.0-1.0-1.0-13.0,,,,,,,,,,,,,,,60670c6f988b7e2e9edd72ea,16:55:45,03/04/2024
2064.0,,,ospan,symmetry,IJU2jtfXFEPhHzU8ca7RsR3VJYL2,symmetry-judgement-task,203,1199448,0.0-46.0-6.0-1.0-1.0-14.0,,,,,,,,,,1.0,1.0,,,,60670c6f988b7e2e9edd72ea,16:55:45,03/04/2024
,"<div style=""font-size: 10rem; color: #0000FF"">J</div>",,ospan,letter,IJU2jtfXFEPhHzU8ca7RsR3VJYL2,html-keyboard-response,204,1200455,0.0-46.0-6.0-1.0-1.0-15.0,,,,,,,,,,,,,,,60670c6f988b7e2e9edd72ea,16:55:45,03/04/2024
7717.700000047684,"<div class = numbox><p style=""font-size: 2.4rem"">Please recall the letters you saw to the best of your ability. If you do not remember a particular letter, use the SKIP button.<br><b>(When you are ready to lock in your answer, press ENTER)</b></p><button id = button_1 class = ""square num-button"" onclick = ""recordClick(this)""><div class = content><div class = numbers>C</div></div></button><button id = button_2 class = ""square num-button"" onclick = ""recordClick(this)""><div class = content><div class = numbers>G</div></div></button><button id = button_3 class = ""square num-button"" onclick = ""recordClick(this)""><div class = content><div class = numbers>H</div></div></button><button id = button_4 class = ""square num-button"" onclick = ""recordClick(this)""><div class = content><div class = numbers>J</div></div></button><button id = button_5 class = ""square num-button"" onclick = ""recordClick(this)""><div class = content><div class = numbers>K</div></div></button><button id = button_6 class = ""square num-button"" onclick = ""recordClick(this)""><div class = content><div class = numbers>L</div></div></button><button id = button_7 class = ""square num-button"" onclick = ""recordClick(this)""><div class = content><div class = numbers>N</div></div></button><button id = button_8 class = ""square num-button"" onclick = ""recordClick(this)""><div class = content><div class = numbers>P</div></div></button><button id = button_9 class = ""square num-button"" onclick = ""recordClick(this)""><div class = content><div class = numbers>Q</div></div></button><button id = button_10 class = ""square num-button"" onclick = ""recordClick(this)""><div class = content><div class = numbers>R</div></div></button><button id = button_11 class = ""square num-button"" onclick = ""recordClick(this)""><div class = content><div class = numbers>S</div></div></button><button id = button_12 class = ""square num-button"" onclick = ""recordClick(this)""><div class = content><div class = numbers>Y</div></div></button><button class = clear_button id = ""ClearButton"" onclick = ""clearResponse()"">BACKSPACE</button><button class = blank_button id = ""BlankButton"" onclick = ""blankResponse()"">SKIP</button><p style=""font-size: 2.4rem""><u><b>Current Answer:</b></u></p><br><br><div id=echoed_txt style=""font-size: 5rem; color:blue;""><b></b></div></div>",enter,ospan,retrieval,IJU2jtfXFEPhHzU8ca7RsR3VJYL2,html-keyboard-response,205,1208931,0.0-46.0-6.0-1.0-2.0,41,23,12,8.0,"[""K"",""C"",""_"",""_"",""_""]","[""K"",""Y"",""C"",""N"",""Q"",""S"",""P"",""J""]",0.0,1.0,,,,,,,60670c6f988b7e2e9edd72ea,16:55:45,03/04/2024
1252.5,[''],0,ospan,feedback,IJU2jtfXFEPhHzU8ca7RsR3VJYL2,html-button-response,206,1210696,0.0-46.0-6.0-1.0-3.0,,,,,,,,,,,,98.0,0.0,,60670c6f988b7e2e9edd72ea,16:55:45,03/04/2024
22345.0,,"{'Q0': 'Not really sure, just the same as last time was asked really.'}",ospan,survey_ospan,IJU2jtfXFEPhHzU8ca7RsR3VJYL2,lmdlab-survey-text,207,1233796,0.0-46.0-7.0,,,,,,,,,,,,,,IJU2jtfXFEPhHzU8ca7RsR3VJYL2,60670c6f988b7e2e9edd72ea,16:55:45,03/04/2024
1658.2999999523163,<p><p style='font-size: 3rem'>Great work!<br><br>This completes the symmetry and memory task.</p><br><br><br>,0,ospan,finish,IJU2jtfXFEPhHzU8ca7RsR3VJYL2,html-button-response,208,1235458,0.0-46.0-8.0,41,23,12,,,,,,,,,98.0,,,60670c6f988b7e2e9edd72ea,16:55:45,03/04/2024
