rt,stimulus,response,exp_name,exp_stage,subjectID,trial_type,trial_index,time_elapsed,internal_node_id,ospan_shown,ospan_total,ospan_abs,length,resp_actual,resp_correct,full_correct,num_correct,feedback,accuracy,correct,math_acc,math_warning,databaseID,prolificID,start_time,date
3846.8000000000466,<div class = 'left_align' style='font-size: 3.25rem; line-height: 1.3;'><p class = 'center_align'><b>Welcome to the Symmetry and Memory Task</b><br><br><br><br></p>Press 'continue' to show the instructions.<br><br><br><br></div>,0,ospan,instruct,ediBu56oJGfohOPojdReEn66hPg1,html-button-response,54,918305,0.0-46.0-0.0-0.0-0.0,,,,,,,,,,,,,,,62b5fea64b239d91783414ff,09:42:21,03/04/2024
33864.90000000014,"<div class = 'left_align' style='font-size: 3.25rem; line-height: 1.3;'><p class = 'center_align'><b>Symmetry and Memory Task</b><br><br></p>In this task, you will try to memorize letters you see on the screen<br>while you also view black and white grid pictures.<br><br>In the next few minutes, you will have some practice to get you familiar<br>with how the task works.<br><br>It may be difficult sometimes, but please do not worry about making mistakes!<br><br>We will begin by practicing the letter part of the task.<br><br><br><br></div>",0,ospan,instruct,ediBu56oJGfohOPojdReEn66hPg1,html-button-response,55,952427,0.0-46.0-0.0-0.0-1.0,,,,,,,,,,,,,,,62b5fea64b239d91783414ff,09:42:21,03/04/2024
16404.200000000186,"<div class = 'left_align' style='font-size: 3.25rem; line-height: 1.3;'>For this practice part, letters will appear on the screen one at a time.<br><br>Try to remember each letter in the order presented.<br><br>After some letters have been shown, you will see a response screen. Your<br>goal is to report the letters you saw <b>in order</b>. If you do not remember<br>a particular letter, you will have the option to leave it blank.<br><br><br><br></div>",0,ospan,instruct,ediBu56oJGfohOPojdReEn66hPg1,html-button-response,56,969085,0.0-46.0-0.0-0.0-2.0,,,,,,,,,,,,,,,62b5fea64b239d91783414ff,09:42:21,03/04/2024
1524.0,"<div class = 'left_align' style='font-size: 3.25rem; line-height: 1.3;'>Remember, it is very important to get the letters in the same<br>order as you see them.<br><br>When you are ready, you may begin the letter practice.</div><br><br><br><br>",0,ospan,instruct,ediBu56oJGfohOPojdReEn66hPg1,html-button-response,57,970874,0.0-46.0-0.0-0.0-3.0,,,,,,,,,,,,,,,62b5fea64b239d91783414ff,09:42:21,03/04/2024
,"<p style=""font-size:75px;"">...</p>",,ospan,iti,ediBu56oJGfohOPojdReEn66hPg1,html-keyboard-response,58,972148,0.0-46.0-0.0-1.0-0.0,,,,,,,,,,,,,,,62b5fea64b239d91783414ff,09:42:21,03/04/2024
,"<div style=""font-size: 10rem; color: #0000FF"">C</div>",,ospan,letter,ediBu56oJGfohOPojdReEn66hPg1,html-keyboard-response,59,973167,0.0-46.0-0.0-1.0-1.0,,,,,,,,,,,,,,,62b5fea64b239d91783414ff,09:42:21,03/04/2024
,"<div style=""font-size: 10rem; color: #0000FF"">S</div>",,ospan,letter,ediBu56oJGfohOPojdReEn66hPg1,html-keyboard-response,60,974924,0.0-46.0-0.0-1.0-2.0,,,,,,,,,,,,,,,62b5fea64b239d91783414ff,09:42:21,03/04/2024
6203.09999999986,"<div class = numbox><p style=""font-size: 2.4rem"">Please recall the letters you saw to the best of your ability. If you do not remember a particular letter, use the SKIP button.<br><b>(When you are ready to lock in your answer, press ENTER)</b></p><button id = button_1 class = ""square num-button"" onclick = ""recordClick(this)""><div class = content><div class = numbers>C</div></div></button><button id = button_2 class = ""square num-button"" onclick = ""recordClick(this)""><div class = content><div class = numbers>G</div></div></button><button id = button_3 class = ""square num-button"" onclick = ""recordClick(this)""><div class = content><div class = numbers>H</div></div></button><button id = button_4 class = ""square num-button"" onclick = ""recordClick(this)""><div class = content><div class = numbers>J</div></div></button><button id = button_5 class = ""square num-button"" onclick = ""recordClick(this)""><div class = content><div class = numbers>K</div></div></button><button id = button_6 class = ""square num-button"" onclick = ""recordClick(this)""><div class = content><div class = numbers>L</div></div></button><button id = button_7 class = ""square num-button"" onclick = ""recordClick(this)""><div class = content><div class = numbers>N</div></div></button><button id = button_8 class = ""square num-button"" onclick = ""recordClick(this)""><div class = content><div class = numbers>P</div></div></button><button id = button_9 class = ""square num-button"" onclick = ""recordClick(this)""><div class = content><div class = numbers>Q</div></div></button><button id = button_10 class = ""square num-button"" onclick = ""recordClick(this)""><div class = content><div class = numbers>R</div></div></button><button id = button_11 class = ""square num-button"" onclick = ""recordClick(this)""><div class = content><div class = numbers>S</div></div></button><button id = button_12 class = ""square num-button"" onclick = ""recordClick(this)""><div class = content><div class = numbers>Y</div></div></button><button class = clear_button id = ""ClearButton"" onclick = ""clearResponse()"">BACKSPACE</button><button class = blank_button id = ""BlankButton"" onclick = ""blankResponse()"">SKIP</button><p style=""font-size: 2.4rem""><u><b>Current Answer:</b></u></p><br><br><div id=echoed_txt style=""font-size: 5rem; color:blue;""><b></b></div></div>",enter,ospan,retrieval,ediBu56oJGfohOPojdReEn66hPg1,html-keyboard-response,61,981893,0.0-46.0-0.0-1.0-3.0,NA,NA,NA,2.0,"[""C"",""S""]","[""C"",""S""]",1.0,2.0,"['<font color=""green"">C</font>', '<font color=""green"">S</font>']",,,,,,62b5fea64b239d91783414ff,09:42:21,03/04/2024
3905.399999999907,"['<p style=""font-size:44px"">Letters:<br><br><br><font color=""green"">C</font> <font color=""green"">S</font></p><br><br>']",0,ospan,practice_feedback,ediBu56oJGfohOPojdReEn66hPg1,html-button-response,62,986313,0.0-46.0-0.0-1.0-4.0,,,,,,,,,,,,,,,62b5fea64b239d91783414ff,09:42:21,03/04/2024
,"<p style=""font-size:75px;"">...</p>",,ospan,iti,ediBu56oJGfohOPojdReEn66hPg1,html-keyboard-response,63,987314,0.0-46.0-0.0-2.0-0.0,,,,,,,,,,,,,,,62b5fea64b239d91783414ff,09:42:21,03/04/2024
,"<div style=""font-size: 10rem; color: #0000FF"">J</div>",,ospan,letter,ediBu56oJGfohOPojdReEn66hPg1,html-keyboard-response,64,988328,0.0-46.0-0.0-2.0-1.0,,,,,,,,,,,,,,,62b5fea64b239d91783414ff,09:42:21,03/04/2024
,"<div style=""font-size: 10rem; color: #0000FF"">P</div>",,ospan,letter,ediBu56oJGfohOPojdReEn66hPg1,html-keyboard-response,65,990093,0.0-46.0-0.0-2.0-2.0,,,,,,,,,,,,,,,62b5fea64b239d91783414ff,09:42:21,03/04/2024
,"<div style=""font-size: 10rem; color: #0000FF"">N</div>",,ospan,letter,ediBu56oJGfohOPojdReEn66hPg1,html-keyboard-response,66,991863,0.0-46.0-0.0-2.0-3.0,,,,,,,,,,,,,,,62b5fea64b239d91783414ff,09:42:21,03/04/2024
4574.90000000014,"<div class = numbox><p style=""font-size: 2.4rem"">Please recall the letters you saw to the best of your ability. If you do not remember a particular letter, use the SKIP button.<br><b>(When you are ready to lock in your answer, press ENTER)</b></p><button id = button_1 class = ""square num-button"" onclick = ""recordClick(this)""><div class = content><div class = numbers>C</div></div></button><button id = button_2 class = ""square num-button"" onclick = ""recordClick(this)""><div class = content><div class = numbers>G</div></div></button><button id = button_3 class = ""square num-button"" onclick = ""recordClick(this)""><div class = content><div class = numbers>H</div></div></button><button id = button_4 class = ""square num-button"" onclick = ""recordClick(this)""><div class = content><div class = numbers>J</div></div></button><button id = button_5 class = ""square num-button"" onclick = ""recordClick(this)""><div class = content><div class = numbers>K</div></div></button><button id = button_6 class = ""square num-button"" onclick = ""recordClick(this)""><div class = content><div class = numbers>L</div></div></button><button id = button_7 class = ""square num-button"" onclick = ""recordClick(this)""><div class = content><div class = numbers>N</div></div></button><button id = button_8 class = ""square num-button"" onclick = ""recordClick(this)""><div class = content><div class = numbers>P</div></div></button><button id = button_9 class = ""square num-button"" onclick = ""recordClick(this)""><div class = content><div class = numbers>Q</div></div></button><button id = button_10 class = ""square num-button"" onclick = ""recordClick(this)""><div class = content><div class = numbers>R</div></div></button><button id = button_11 class = ""square num-button"" onclick = ""recordClick(this)""><div class = content><div class = numbers>S</div></div></button><button id = button_12 class = ""square num-button"" onclick = ""recordClick(this)""><div class = content><div class = numbers>Y</div></div></button><button class = clear_button id = ""ClearButton"" onclick = ""clearResponse()"">BACKSPACE</button><button class = blank_button id = ""BlankButton"" onclick = ""blankResponse()"">SKIP</button><p style=""font-size: 2.4rem""><u><b>Current Answer:</b></u></p><br><br><div id=echoed_txt style=""font-size: 5rem; color:blue;""><b></b></div></div>",enter,ospan,retrieval,ediBu56oJGfohOPojdReEn66hPg1,html-keyboard-response,67,997197,0.0-46.0-0.0-2.0-4.0,NA,NA,NA,3.0,"[""J"",""P"",""N""]","[""J"",""P"",""N""]",1.0,3.0,"['<font color=""green"">J</font>', '<font color=""green"">P</font>', '<font color=""green"">N</font>']",,,,,,62b5fea64b239d91783414ff,09:42:21,03/04/2024
2434.6999999999534,"['<p style=""font-size:44px"">Letters:<br><br><br><font color=""green"">J</font> <font color=""green"">P</font> <font color=""green"">N</font></p><br><br>']",0,ospan,practice_feedback,ediBu56oJGfohOPojdReEn66hPg1,html-button-response,68,1000139,0.0-46.0-0.0-2.0-5.0,,,,,,,,,,,,,,,62b5fea64b239d91783414ff,09:42:21,03/04/2024
27557.600000000093,"<div class = 'left_align' style='font-size: 3.25rem; line-height: 1.3;'>Now you will practice doing the <b>symmetry judgment part</b> of the experiment.<br><br>A black and white grid picture will appear on the screen and you have to judge if it is <br>symmetrical or asymetrical.<br><br>A picture is 'mirror' symmetrical if its left half is identical to the right half when flipped.<br>Here are examples of a symmetrical and an asymetrical picture:<br><br><center><img src='Stimuli/img/symm_instructions_extra.png' style='height:420px; width:900'></img></center><br>To judge symmetry, imagine you were to fold each picture down the middle, like a book –<br>would the left half match the right half when folded onto each other?<br><br></div><br>",0,ospan,instruct,ediBu56oJGfohOPojdReEn66hPg1,html-button-response,69,1027697,0.0-46.0-1.0-0.0-0.0,,,,,,,,,,,,,,,62b5fea64b239d91783414ff,09:42:21,03/04/2024
7803.199999999953,"<div class = 'left_align' style='font-size: 3.25rem; line-height: 1.3;'>When you have viewed the picture and determined whether it is symmetrical or not,<br>you can <b>click the Yes or No button</b> below to answer.<br><br>If you take longer than 15 seconds, it will continue automatically<br>and record the answer as an error.</div><br>",0,ospan,instruct,ediBu56oJGfohOPojdReEn66hPg1,html-button-response,70,1035763,0.0-46.0-1.0-0.0-1.0,,,,,,,,,,,,,,,62b5fea64b239d91783414ff,09:42:21,03/04/2024
72066.09999999986,"<div class = 'left_align' style='font-size: 3.25rem; line-height: 1.3;'>It is <b>very</b> important that you make the symmetry judgment correctly.<br><br>It is also important that you try and judge the picture as quickly as you can.<br><br>When you are ready, click on the button below to try some practice problems.</div><br><br><br><br>",0,ospan,instruct,ediBu56oJGfohOPojdReEn66hPg1,html-button-response,71,1108084,0.0-46.0-1.0-0.0-2.0,,,,,,,,,,,,,,,62b5fea64b239d91783414ff,09:42:21,03/04/2024
2810.0,,,ospan,symmetry,ediBu56oJGfohOPojdReEn66hPg1,symmetry-judgement-task,72,1111687,0.0-46.0-1.0-1.0-0.0,,,,,,,,,,1.0,1.0,,,,62b5fea64b239d91783414ff,09:42:21,03/04/2024
,"<p style=""color:green; font-size: 35px"">Correct</p>",,ospan,feedback,ediBu56oJGfohOPojdReEn66hPg1,html-keyboard-response,73,1112441,0.0-46.0-1.0-1.0-1.0,,,,,,,,,,,,,,,62b5fea64b239d91783414ff,09:42:21,03/04/2024
1763.0,,,ospan,symmetry,ediBu56oJGfohOPojdReEn66hPg1,symmetry-judgement-task,74,1116841,0.0-46.0-1.0-1.0-2.0,,,,,,,,,,1.0,1.0,,,,62b5fea64b239d91783414ff,09:42:21,03/04/2024
,"<p style=""color:green; font-size: 35px"">Correct</p>",,ospan,feedback,ediBu56oJGfohOPojdReEn66hPg1,html-keyboard-response,75,1117608,0.0-46.0-1.0-1.0-3.0,,,,,,,,,,,,,,,62b5fea64b239d91783414ff,09:42:21,03/04/2024
1312.0,,,ospan,symmetry,ediBu56oJGfohOPojdReEn66hPg1,symmetry-judgement-task,76,1121550,0.0-46.0-1.0-1.0-4.0,,,,,,,,,,1.0,1.0,,,,62b5fea64b239d91783414ff,09:42:21,03/04/2024
,"<p style=""color:green; font-size: 35px"">Correct</p>",,ospan,feedback,ediBu56oJGfohOPojdReEn66hPg1,html-keyboard-response,77,1122305,0.0-46.0-1.0-1.0-5.0,,,,,,,,,,,,,,,62b5fea64b239d91783414ff,09:42:21,03/04/2024
9517.199999999953,"<p style=""font-size: 3rem;"">You responded correctly on 3 of 3 symmetry judgments. Good job!</p><br><br>",0,ospan,practice,ediBu56oJGfohOPojdReEn66hPg1,html-button-response,78,1133838,0.0-46.0-1.0-2.0,,,,,,,,,,,,,,,62b5fea64b239d91783414ff,09:42:21,03/04/2024
1733.7999999998137,"<div class = 'left_align' style='font-size: 3.25rem; line-height: 1.3;'>Now you will practice doing both parts of the experiment at the same time.<br><br>In the next practice set, you will be given one grid picture to judge.<br>Then letter will appear on the screen. Try to remember the letter.<br><br>It is <b>very important</b> to make the symmetry judgment as quickly and accurately as possible.<br><br>Just as before, once you have make the symmetry judgment, you can click Yes or No.<br><b>Note that you will no longer see Correct or Incorrect feedback.</div><br><br><br><br>",0,ospan,instruct,ediBu56oJGfohOPojdReEn66hPg1,html-button-response,79,1135833,0.0-46.0-2.0-0.0-0.0,,,,,,,,,,,,,,,62b5fea64b239d91783414ff,09:42:21,03/04/2024
1704.1999999999534,"<div class = 'left_align' style='font-size: 3.25rem; line-height: 1.3;'>After the letter goes away, another grid picture will appear, and then<br>another letter.<br><br>At the end of each set of letters and grids, you will recall the letters to the best<br>of your ability. Remember, try your best to get the letters in the correct order.<br><br>It is important to <b>quickly</b> and <b>accurately</b> make the symmetry judgments.</div><br><br><br><br>",0,ospan,instruct,ediBu56oJGfohOPojdReEn66hPg1,html-button-response,80,1137793,0.0-46.0-2.0-0.0-1.0,,,,,,,,,,,,,,,62b5fea64b239d91783414ff,09:42:21,03/04/2024
3300.3000000000466,"<div class = 'left_align' style='font-size: 3.25rem; line-height: 1.3;'>On the feedback screen, if you are not doing well at the symmetry judgments,<br>you will also see a warning in the middle. This indicates your percent <br>correct for the grid pictures for the entire experiment.<br><br>It is <b>very</b> important for you to keep accuracy at least at 85%: <u>We can only use<br>data where the participant was at least 85% accurate on the judgments.</u> Therefore,<br> please try your best to perform well on the symmetry judgments, <b>at the same time</b><br>doing your best to recall as many letters as possible.<br><br>Click the button to try some practice problems.</div><br><br><br><br>",0,ospan,instruct,ediBu56oJGfohOPojdReEn66hPg1,html-button-response,81,1141352,0.0-46.0-2.0-0.0-2.0,,,,,,,,,,,,,,,62b5fea64b239d91783414ff,09:42:21,03/04/2024
,"<p style=""font-size:75px;"">...</p>",,ospan,iti,ediBu56oJGfohOPojdReEn66hPg1,html-keyboard-response,82,1142619,0.0-46.0-2.0-1.0-0.0,,,,,,,,,,,,,,,62b5fea64b239d91783414ff,09:42:21,03/04/2024
1516.0,,,ospan,symmetry,ediBu56oJGfohOPojdReEn66hPg1,symmetry-judgement-task,83,1145172,0.0-46.0-2.0-1.0-1.0-0.0,,,,,,,,,,1.0,1.0,,,,62b5fea64b239d91783414ff,09:42:21,03/04/2024
,"<div style=""font-size: 10rem; color: #0000FF"">H</div>",,ospan,letter,ediBu56oJGfohOPojdReEn66hPg1,html-keyboard-response,84,1146183,0.0-46.0-2.0-1.0-1.0-1.0,,,,,,,,,,,,,,,62b5fea64b239d91783414ff,09:42:21,03/04/2024
1628.0,,,ospan,symmetry,ediBu56oJGfohOPojdReEn66hPg1,symmetry-judgement-task,85,1149715,0.0-46.0-2.0-1.0-1.0-2.0,,,,,,,,,,1.0,1.0,,,,62b5fea64b239d91783414ff,09:42:21,03/04/2024
,"<div style=""font-size: 10rem; color: #0000FF"">L</div>",,ospan,letter,ediBu56oJGfohOPojdReEn66hPg1,html-keyboard-response,86,1150718,0.0-46.0-2.0-1.0-1.0-3.0,,,,,,,,,,,,,,,62b5fea64b239d91783414ff,09:42:21,03/04/2024
1446.0,,,ospan,symmetry,ediBu56oJGfohOPojdReEn66hPg1,symmetry-judgement-task,87,1154037,0.0-46.0-2.0-1.0-1.0-4.0,,,,,,,,,,1.0,1.0,,,,62b5fea64b239d91783414ff,09:42:21,03/04/2024
,"<div style=""font-size: 10rem; color: #0000FF"">P</div>",,ospan,letter,ediBu56oJGfohOPojdReEn66hPg1,html-keyboard-response,88,1155048,0.0-46.0-2.0-1.0-1.0-5.0,,,,,,,,,,,,,,,62b5fea64b239d91783414ff,09:42:21,03/04/2024
4502.09999999986,"<div class = numbox><p style=""font-size: 2.4rem"">Please recall the letters you saw to the best of your ability. If you do not remember a particular letter, use the SKIP button.<br><b>(When you are ready to lock in your answer, press ENTER)</b></p><button id = button_1 class = ""square num-button"" onclick = ""recordClick(this)""><div class = content><div class = numbers>C</div></div></button><button id = button_2 class = ""square num-button"" onclick = ""recordClick(this)""><div class = content><div class = numbers>G</div></div></button><button id = button_3 class = ""square num-button"" onclick = ""recordClick(this)""><div class = content><div class = numbers>H</div></div></button><button id = button_4 class = ""square num-button"" onclick = ""recordClick(this)""><div class = content><div class = numbers>J</div></div></button><button id = button_5 class = ""square num-button"" onclick = ""recordClick(this)""><div class = content><div class = numbers>K</div></div></button><button id = button_6 class = ""square num-button"" onclick = ""recordClick(this)""><div class = content><div class = numbers>L</div></div></button><button id = button_7 class = ""square num-button"" onclick = ""recordClick(this)""><div class = content><div class = numbers>N</div></div></button><button id = button_8 class = ""square num-button"" onclick = ""recordClick(this)""><div class = content><div class = numbers>P</div></div></button><button id = button_9 class = ""square num-button"" onclick = ""recordClick(this)""><div class = content><div class = numbers>Q</div></div></button><button id = button_10 class = ""square num-button"" onclick = ""recordClick(this)""><div class = content><div class = numbers>R</div></div></button><button id = button_11 class = ""square num-button"" onclick = ""recordClick(this)""><div class = content><div class = numbers>S</div></div></button><button id = button_12 class = ""square num-button"" onclick = ""recordClick(this)""><div class = content><div class = numbers>Y</div></div></button><button class = clear_button id = ""ClearButton"" onclick = ""clearResponse()"">BACKSPACE</button><button class = blank_button id = ""BlankButton"" onclick = ""blankResponse()"">SKIP</button><p style=""font-size: 2.4rem""><u><b>Current Answer:</b></u></p><br><br><div id=echoed_txt style=""font-size: 5rem; color:blue;""><b></b></div></div>",enter,ospan,retrieval,ediBu56oJGfohOPojdReEn66hPg1,html-keyboard-response,89,1160317,0.0-46.0-2.0-1.0-2.0-0.0,NA,NA,NA,3.0,"[""H"",""L"",""P""]","[""H"",""L"",""P""]",1.0,3.0,"['<font color=""green"">H</font>', '<font color=""green"">L</font>', '<font color=""green"">P</font>']",,,,,,62b5fea64b239d91783414ff,09:42:21,03/04/2024
4664.899999999907,"['<p style=""font-size:44px"">Letters:<br><br><br><font color=""green"">H</font> <font color=""green"">L</font> <font color=""green"">P</font></p><br><br><p style=""font-size:30px"">Symmetry:<br><br><font color=""green"">100%</font></p><br><br>']",0,ospan,practice_feedback,ediBu56oJGfohOPojdReEn66hPg1,html-button-response,90,1165485,0.0-46.0-2.0-1.0-2.0-1.0,,,,,,,,,,,,,,,62b5fea64b239d91783414ff,09:42:21,03/04/2024
,"<p style=""font-size:75px;"">...</p>",,ospan,iti,ediBu56oJGfohOPojdReEn66hPg1,html-keyboard-response,91,1166488,0.0-46.0-2.0-2.0-0.0,,,,,,,,,,,,,,,62b5fea64b239d91783414ff,09:42:21,03/04/2024
5896.0,,,ospan,symmetry,ediBu56oJGfohOPojdReEn66hPg1,symmetry-judgement-task,92,1173499,0.0-46.0-2.0-2.0-1.0-0.0,,,,,,,,,,1.0,1.0,,,,62b5fea64b239d91783414ff,09:42:21,03/04/2024
,"<div style=""font-size: 10rem; color: #0000FF"">G</div>",,ospan,letter,ediBu56oJGfohOPojdReEn66hPg1,html-keyboard-response,93,1174517,0.0-46.0-2.0-2.0-1.0-1.0,,,,,,,,,,,,,,,62b5fea64b239d91783414ff,09:42:21,03/04/2024
1794.0,,,ospan,symmetry,ediBu56oJGfohOPojdReEn66hPg1,symmetry-judgement-task,94,1178181,0.0-46.0-2.0-2.0-1.0-2.0,,,,,,,,,,1.0,1.0,,,,62b5fea64b239d91783414ff,09:42:21,03/04/2024
,"<div style=""font-size: 10rem; color: #0000FF"">R</div>",,ospan,letter,ediBu56oJGfohOPojdReEn66hPg1,html-keyboard-response,95,1179189,0.0-46.0-2.0-2.0-1.0-3.0,,,,,,,,,,,,,,,62b5fea64b239d91783414ff,09:42:21,03/04/2024
1612.0,,,ospan,symmetry,ediBu56oJGfohOPojdReEn66hPg1,symmetry-judgement-task,96,1182681,0.0-46.0-2.0-2.0-1.0-4.0,,,,,,,,,,1.0,1.0,,,,62b5fea64b239d91783414ff,09:42:21,03/04/2024
,"<div style=""font-size: 10rem; color: #0000FF"">P</div>",,ospan,letter,ediBu56oJGfohOPojdReEn66hPg1,html-keyboard-response,97,1183690,0.0-46.0-2.0-2.0-1.0-5.0,,,,,,,,,,,,,,,62b5fea64b239d91783414ff,09:42:21,03/04/2024
4194.600000000093,"<div class = numbox><p style=""font-size: 2.4rem"">Please recall the letters you saw to the best of your ability. If you do not remember a particular letter, use the SKIP button.<br><b>(When you are ready to lock in your answer, press ENTER)</b></p><button id = button_1 class = ""square num-button"" onclick = ""recordClick(this)""><div class = content><div class = numbers>C</div></div></button><button id = button_2 class = ""square num-button"" onclick = ""recordClick(this)""><div class = content><div class = numbers>G</div></div></button><button id = button_3 class = ""square num-button"" onclick = ""recordClick(this)""><div class = content><div class = numbers>H</div></div></button><button id = button_4 class = ""square num-button"" onclick = ""recordClick(this)""><div class = content><div class = numbers>J</div></div></button><button id = button_5 class = ""square num-button"" onclick = ""recordClick(this)""><div class = content><div class = numbers>K</div></div></button><button id = button_6 class = ""square num-button"" onclick = ""recordClick(this)""><div class = content><div class = numbers>L</div></div></button><button id = button_7 class = ""square num-button"" onclick = ""recordClick(this)""><div class = content><div class = numbers>N</div></div></button><button id = button_8 class = ""square num-button"" onclick = ""recordClick(this)""><div class = content><div class = numbers>P</div></div></button><button id = button_9 class = ""square num-button"" onclick = ""recordClick(this)""><div class = content><div class = numbers>Q</div></div></button><button id = button_10 class = ""square num-button"" onclick = ""recordClick(this)""><div class = content><div class = numbers>R</div></div></button><button id = button_11 class = ""square num-button"" onclick = ""recordClick(this)""><div class = content><div class = numbers>S</div></div></button><button id = button_12 class = ""square num-button"" onclick = ""recordClick(this)""><div class = content><div class = numbers>Y</div></div></button><button class = clear_button id = ""ClearButton"" onclick = ""clearResponse()"">BACKSPACE</button><button class = blank_button id = ""BlankButton"" onclick = ""blankResponse()"">SKIP</button><p style=""font-size: 2.4rem""><u><b>Current Answer:</b></u></p><br><br><div id=echoed_txt style=""font-size: 5rem; color:blue;""><b></b></div></div>",enter,ospan,retrieval,ediBu56oJGfohOPojdReEn66hPg1,html-keyboard-response,98,1188637,0.0-46.0-2.0-2.0-2.0-0.0,NA,NA,NA,3.0,"[""G"",""R"",""P""]","[""G"",""R"",""P""]",1.0,3.0,"['<font color=""green"">G</font>', '<font color=""green"">R</font>', '<font color=""green"">P</font>']",,,,,,62b5fea64b239d91783414ff,09:42:21,03/04/2024
27194.09999999986,"['<p style=""font-size:44px"">Letters:<br><br><br><font color=""green"">G</font> <font color=""green"">R</font> <font color=""green"">P</font></p><br><br><p style=""font-size:30px"">Symmetry:<br><br><font color=""green"">100%</font></p><br><br>']",0,ospan,practice_feedback,ediBu56oJGfohOPojdReEn66hPg1,html-button-response,99,1216341,0.0-46.0-2.0-2.0-2.0-1.0,,,,,,,,,,,,,,,62b5fea64b239d91783414ff,09:42:21,03/04/2024
38527.19999999995,"<div class = 'left_align' style='font-size: 3rem; line-height: 1.3;'><b>Great work! That is the end of practice.</b><br><br>The real trials will look just like the practice trials you just completed.<br><br><u>Here, you will not see feedback</u>. First, you will see an grid picture to judge,<br>then a letter to remember. When the recall screen appears, report the letters in the<br>order presented. If you forget a letter, remember to use the <b>blank</b> button to move to the<br>next letter. Some of the sets will have more symmetry grids and letters than others.<br><br>It is important that you do your best on both the symmetry judgments and the letter recall<br>parts of the experiment. For for the symmetry judgments, try to work as <b>quickly</b> and <br>as <b>accurately</b> as possible. Remember to keep your symmetry accuracy at 85% or above.<br><br><b>For the letters, do NOT use any external aid (e.g., writing on paper, electronic device).</b><br><br>It is <u>very important</u> to our experiment to have a <b>true</b> view of your real performance.<br><br>Do not worry if you miss some when it gets hard! This task is meant to be very challenging!<br><br>Click the button to begin.</div><br><br><br><br>",0,ospan,starting_real_here,ediBu56oJGfohOPojdReEn66hPg1,html-button-response,100,1254869,0.0-46.0-2.0-3.0,,,,,,,,,,,,,,,62b5fea64b239d91783414ff,09:42:21,03/04/2024
,"<p style=""font-size:75px;"">...</p>",,ospan,iti,ediBu56oJGfohOPojdReEn66hPg1,html-keyboard-response,101,1256138,0.0-46.0-3.0-0.0-0.0,,,,,,,,,,,,,,,62b5fea64b239d91783414ff,09:42:21,03/04/2024
2395.0,,,ospan,symmetry,ediBu56oJGfohOPojdReEn66hPg1,symmetry-judgement-task,102,1259662,0.0-46.0-3.0-0.0-1.0-0.0,,,,,,,,,,1.0,1.0,,,,62b5fea64b239d91783414ff,09:42:21,03/04/2024
,"<div style=""font-size: 10rem; color: #0000FF"">G</div>",,ospan,letter,ediBu56oJGfohOPojdReEn66hPg1,html-keyboard-response,103,1260673,0.0-46.0-3.0-0.0-1.0-1.0,,,,,,,,,,,,,,,62b5fea64b239d91783414ff,09:42:21,03/04/2024
2905.0,,,ospan,symmetry,ediBu56oJGfohOPojdReEn66hPg1,symmetry-judgement-task,104,1265455,0.0-46.0-3.0-0.0-1.0-2.0,,,,,,,,,,1.0,1.0,,,,62b5fea64b239d91783414ff,09:42:21,03/04/2024
,"<div style=""font-size: 10rem; color: #0000FF"">Y</div>",,ospan,letter,ediBu56oJGfohOPojdReEn66hPg1,html-keyboard-response,105,1266463,0.0-46.0-3.0-0.0-1.0-3.0,,,,,,,,,,,,,,,62b5fea64b239d91783414ff,09:42:21,03/04/2024
1607.0,,,ospan,symmetry,ediBu56oJGfohOPojdReEn66hPg1,symmetry-judgement-task,106,1269950,0.0-46.0-3.0-0.0-1.0-4.0,,,,,,,,,,1.0,1.0,,,,62b5fea64b239d91783414ff,09:42:21,03/04/2024
,"<div style=""font-size: 10rem; color: #0000FF"">Q</div>",,ospan,letter,ediBu56oJGfohOPojdReEn66hPg1,html-keyboard-response,107,1270963,0.0-46.0-3.0-0.0-1.0-5.0,,,,,,,,,,,,,,,62b5fea64b239d91783414ff,09:42:21,03/04/2024
4477.100000000093,"<div class = numbox><p style=""font-size: 2.4rem"">Please recall the letters you saw to the best of your ability. If you do not remember a particular letter, use the SKIP button.<br><b>(When you are ready to lock in your answer, press ENTER)</b></p><button id = button_1 class = ""square num-button"" onclick = ""recordClick(this)""><div class = content><div class = numbers>C</div></div></button><button id = button_2 class = ""square num-button"" onclick = ""recordClick(this)""><div class = content><div class = numbers>G</div></div></button><button id = button_3 class = ""square num-button"" onclick = ""recordClick(this)""><div class = content><div class = numbers>H</div></div></button><button id = button_4 class = ""square num-button"" onclick = ""recordClick(this)""><div class = content><div class = numbers>J</div></div></button><button id = button_5 class = ""square num-button"" onclick = ""recordClick(this)""><div class = content><div class = numbers>K</div></div></button><button id = button_6 class = ""square num-button"" onclick = ""recordClick(this)""><div class = content><div class = numbers>L</div></div></button><button id = button_7 class = ""square num-button"" onclick = ""recordClick(this)""><div class = content><div class = numbers>N</div></div></button><button id = button_8 class = ""square num-button"" onclick = ""recordClick(this)""><div class = content><div class = numbers>P</div></div></button><button id = button_9 class = ""square num-button"" onclick = ""recordClick(this)""><div class = content><div class = numbers>Q</div></div></button><button id = button_10 class = ""square num-button"" onclick = ""recordClick(this)""><div class = content><div class = numbers>R</div></div></button><button id = button_11 class = ""square num-button"" onclick = ""recordClick(this)""><div class = content><div class = numbers>S</div></div></button><button id = button_12 class = ""square num-button"" onclick = ""recordClick(this)""><div class = content><div class = numbers>Y</div></div></button><button class = clear_button id = ""ClearButton"" onclick = ""clearResponse()"">BACKSPACE</button><button class = blank_button id = ""BlankButton"" onclick = ""blankResponse()"">SKIP</button><p style=""font-size: 2.4rem""><u><b>Current Answer:</b></u></p><br><br><div id=echoed_txt style=""font-size: 5rem; color:blue;""><b></b></div></div>",enter,ospan,retrieval,ediBu56oJGfohOPojdReEn66hPg1,html-keyboard-response,108,1276198,0.0-46.0-3.0-0.0-2.0,3,3,3,3.0,"[""G"",""Y"",""Q""]","[""G"",""Y"",""Q""]",1.0,3.0,,,,,,,62b5fea64b239d91783414ff,09:42:21,03/04/2024
2905.3000000000466,[''],0,ospan,feedback,ediBu56oJGfohOPojdReEn66hPg1,html-button-response,109,1279606,0.0-46.0-3.0-0.0-3.0,,,,,,,,,,,,100.0,0.0,,62b5fea64b239d91783414ff,09:42:21,03/04/2024
,"<p style=""font-size:75px;"">...</p>",,ospan,iti,ediBu56oJGfohOPojdReEn66hPg1,html-keyboard-response,110,1280611,0.0-46.0-4.0-0.0-0.0,,,,,,,,,,,,,,,62b5fea64b239d91783414ff,09:42:21,03/04/2024
1518.0,,,ospan,symmetry,ediBu56oJGfohOPojdReEn66hPg1,symmetry-judgement-task,111,1283167,0.0-46.0-4.0-0.0-1.0-0.0,,,,,,,,,,1.0,1.0,,,,62b5fea64b239d91783414ff,09:42:21,03/04/2024
,"<div style=""font-size: 10rem; color: #0000FF"">K</div>",,ospan,letter,ediBu56oJGfohOPojdReEn66hPg1,html-keyboard-response,112,1284169,0.0-46.0-4.0-0.0-1.0-1.0,,,,,,,,,,,,,,,62b5fea64b239d91783414ff,09:42:21,03/04/2024
2012.0,,,ospan,symmetry,ediBu56oJGfohOPojdReEn66hPg1,symmetry-judgement-task,113,1288072,0.0-46.0-4.0-0.0-1.0-2.0,,,,,,,,,,1.0,1.0,,,,62b5fea64b239d91783414ff,09:42:21,03/04/2024
,"<div style=""font-size: 10rem; color: #0000FF"">R</div>",,ospan,letter,ediBu56oJGfohOPojdReEn66hPg1,html-keyboard-response,114,1289078,0.0-46.0-4.0-0.0-1.0-3.0,,,,,,,,,,,,,,,62b5fea64b239d91783414ff,09:42:21,03/04/2024
1062.0,,,ospan,symmetry,ediBu56oJGfohOPojdReEn66hPg1,symmetry-judgement-task,115,1292032,0.0-46.0-4.0-0.0-1.0-4.0,,,,,,,,,,1.0,1.0,,,,62b5fea64b239d91783414ff,09:42:21,03/04/2024
,"<div style=""font-size: 10rem; color: #0000FF"">L</div>",,ospan,letter,ediBu56oJGfohOPojdReEn66hPg1,html-keyboard-response,116,1293045,0.0-46.0-4.0-0.0-1.0-5.0,,,,,,,,,,,,,,,62b5fea64b239d91783414ff,09:42:21,03/04/2024
1106.0,,,ospan,symmetry,ediBu56oJGfohOPojdReEn66hPg1,symmetry-judgement-task,117,1296036,0.0-46.0-4.0-0.0-1.0-6.0,,,,,,,,,,1.0,1.0,,,,62b5fea64b239d91783414ff,09:42:21,03/04/2024
,"<div style=""font-size: 10rem; color: #0000FF"">C</div>",,ospan,letter,ediBu56oJGfohOPojdReEn66hPg1,html-keyboard-response,118,1297047,0.0-46.0-4.0-0.0-1.0-7.0,,,,,,,,,,,,,,,62b5fea64b239d91783414ff,09:42:21,03/04/2024
6322.0,"<div class = numbox><p style=""font-size: 2.4rem"">Please recall the letters you saw to the best of your ability. If you do not remember a particular letter, use the SKIP button.<br><b>(When you are ready to lock in your answer, press ENTER)</b></p><button id = button_1 class = ""square num-button"" onclick = ""recordClick(this)""><div class = content><div class = numbers>C</div></div></button><button id = button_2 class = ""square num-button"" onclick = ""recordClick(this)""><div class = content><div class = numbers>G</div></div></button><button id = button_3 class = ""square num-button"" onclick = ""recordClick(this)""><div class = content><div class = numbers>H</div></div></button><button id = button_4 class = ""square num-button"" onclick = ""recordClick(this)""><div class = content><div class = numbers>J</div></div></button><button id = button_5 class = ""square num-button"" onclick = ""recordClick(this)""><div class = content><div class = numbers>K</div></div></button><button id = button_6 class = ""square num-button"" onclick = ""recordClick(this)""><div class = content><div class = numbers>L</div></div></button><button id = button_7 class = ""square num-button"" onclick = ""recordClick(this)""><div class = content><div class = numbers>N</div></div></button><button id = button_8 class = ""square num-button"" onclick = ""recordClick(this)""><div class = content><div class = numbers>P</div></div></button><button id = button_9 class = ""square num-button"" onclick = ""recordClick(this)""><div class = content><div class = numbers>Q</div></div></button><button id = button_10 class = ""square num-button"" onclick = ""recordClick(this)""><div class = content><div class = numbers>R</div></div></button><button id = button_11 class = ""square num-button"" onclick = ""recordClick(this)""><div class = content><div class = numbers>S</div></div></button><button id = button_12 class = ""square num-button"" onclick = ""recordClick(this)""><div class = content><div class = numbers>Y</div></div></button><button class = clear_button id = ""ClearButton"" onclick = ""clearResponse()"">BACKSPACE</button><button class = blank_button id = ""BlankButton"" onclick = ""blankResponse()"">SKIP</button><p style=""font-size: 2.4rem""><u><b>Current Answer:</b></u></p><br><br><div id=echoed_txt style=""font-size: 5rem; color:blue;""><b></b></div></div>",enter,ospan,retrieval,ediBu56oJGfohOPojdReEn66hPg1,html-keyboard-response,119,1304134,0.0-46.0-4.0-0.0-2.0,7,7,7,4.0,"[""K"",""R"",""L"",""C""]","[""K"",""R"",""L"",""C""]",1.0,4.0,,,,,,,62b5fea64b239d91783414ff,09:42:21,03/04/2024
28166.5,[''],0,ospan,feedback,ediBu56oJGfohOPojdReEn66hPg1,html-button-response,120,1332806,0.0-46.0-4.0-0.0-3.0,,,,,,,,,,,,100.0,0.0,,62b5fea64b239d91783414ff,09:42:21,03/04/2024
,"<p style=""font-size:75px;"">...</p>",,ospan,iti,ediBu56oJGfohOPojdReEn66hPg1,html-keyboard-response,121,1333816,0.0-46.0-4.0-1.0-0.0,,,,,,,,,,,,,,,62b5fea64b239d91783414ff,09:42:21,03/04/2024
2188.0,,,ospan,symmetry,ediBu56oJGfohOPojdReEn66hPg1,symmetry-judgement-task,122,1337135,0.0-46.0-4.0-1.0-1.0-0.0,,,,,,,,,,1.0,1.0,,,,62b5fea64b239d91783414ff,09:42:21,03/04/2024
,"<div style=""font-size: 10rem; color: #0000FF"">H</div>",,ospan,letter,ediBu56oJGfohOPojdReEn66hPg1,html-keyboard-response,123,1338152,0.0-46.0-4.0-1.0-1.0-1.0,,,,,,,,,,,,,,,62b5fea64b239d91783414ff,09:42:21,03/04/2024
6961.0,,,ospan,symmetry,ediBu56oJGfohOPojdReEn66hPg1,symmetry-judgement-task,124,1347010,0.0-46.0-4.0-1.0-1.0-2.0,,,,,,,,,,1.0,1.0,,,,62b5fea64b239d91783414ff,09:42:21,03/04/2024
,"<div style=""font-size: 10rem; color: #0000FF"">Y</div>",,ospan,letter,ediBu56oJGfohOPojdReEn66hPg1,html-keyboard-response,125,1348021,0.0-46.0-4.0-1.0-1.0-3.0,,,,,,,,,,,,,,,62b5fea64b239d91783414ff,09:42:21,03/04/2024
1578.0,,,ospan,symmetry,ediBu56oJGfohOPojdReEn66hPg1,symmetry-judgement-task,126,1351484,0.0-46.0-4.0-1.0-1.0-4.0,,,,,,,,,,1.0,1.0,,,,62b5fea64b239d91783414ff,09:42:21,03/04/2024
,"<div style=""font-size: 10rem; color: #0000FF"">K</div>",,ospan,letter,ediBu56oJGfohOPojdReEn66hPg1,html-keyboard-response,127,1352500,0.0-46.0-4.0-1.0-1.0-5.0,,,,,,,,,,,,,,,62b5fea64b239d91783414ff,09:42:21,03/04/2024
1274.0,,,ospan,symmetry,ediBu56oJGfohOPojdReEn66hPg1,symmetry-judgement-task,128,1355659,0.0-46.0-4.0-1.0-1.0-6.0,,,,,,,,,,1.0,1.0,,,,62b5fea64b239d91783414ff,09:42:21,03/04/2024
,"<div style=""font-size: 10rem; color: #0000FF"">G</div>",,ospan,letter,ediBu56oJGfohOPojdReEn66hPg1,html-keyboard-response,129,1356663,0.0-46.0-4.0-1.0-1.0-7.0,,,,,,,,,,,,,,,62b5fea64b239d91783414ff,09:42:21,03/04/2024
1236.0,,,ospan,symmetry,ediBu56oJGfohOPojdReEn66hPg1,symmetry-judgement-task,130,1359786,0.0-46.0-4.0-1.0-1.0-8.0,,,,,,,,,,1.0,1.0,,,,62b5fea64b239d91783414ff,09:42:21,03/04/2024
,"<div style=""font-size: 10rem; color: #0000FF"">L</div>",,ospan,letter,ediBu56oJGfohOPojdReEn66hPg1,html-keyboard-response,131,1360794,0.0-46.0-4.0-1.0-1.0-9.0,,,,,,,,,,,,,,,62b5fea64b239d91783414ff,09:42:21,03/04/2024
9818.300000000047,"<div class = numbox><p style=""font-size: 2.4rem"">Please recall the letters you saw to the best of your ability. If you do not remember a particular letter, use the SKIP button.<br><b>(When you are ready to lock in your answer, press ENTER)</b></p><button id = button_1 class = ""square num-button"" onclick = ""recordClick(this)""><div class = content><div class = numbers>C</div></div></button><button id = button_2 class = ""square num-button"" onclick = ""recordClick(this)""><div class = content><div class = numbers>G</div></div></button><button id = button_3 class = ""square num-button"" onclick = ""recordClick(this)""><div class = content><div class = numbers>H</div></div></button><button id = button_4 class = ""square num-button"" onclick = ""recordClick(this)""><div class = content><div class = numbers>J</div></div></button><button id = button_5 class = ""square num-button"" onclick = ""recordClick(this)""><div class = content><div class = numbers>K</div></div></button><button id = button_6 class = ""square num-button"" onclick = ""recordClick(this)""><div class = content><div class = numbers>L</div></div></button><button id = button_7 class = ""square num-button"" onclick = ""recordClick(this)""><div class = content><div class = numbers>N</div></div></button><button id = button_8 class = ""square num-button"" onclick = ""recordClick(this)""><div class = content><div class = numbers>P</div></div></button><button id = button_9 class = ""square num-button"" onclick = ""recordClick(this)""><div class = content><div class = numbers>Q</div></div></button><button id = button_10 class = ""square num-button"" onclick = ""recordClick(this)""><div class = content><div class = numbers>R</div></div></button><button id = button_11 class = ""square num-button"" onclick = ""recordClick(this)""><div class = content><div class = numbers>S</div></div></button><button id = button_12 class = ""square num-button"" onclick = ""recordClick(this)""><div class = content><div class = numbers>Y</div></div></button><button class = clear_button id = ""ClearButton"" onclick = ""clearResponse()"">BACKSPACE</button><button class = blank_button id = ""BlankButton"" onclick = ""blankResponse()"">SKIP</button><p style=""font-size: 2.4rem""><u><b>Current Answer:</b></u></p><br><br><div id=echoed_txt style=""font-size: 5rem; color:blue;""><b></b></div></div>",enter,ospan,retrieval,ediBu56oJGfohOPojdReEn66hPg1,html-keyboard-response,132,1371378,0.0-46.0-4.0-1.0-2.0,12,12,12,5.0,"[""H"",""Y"",""K"",""G"",""L""]","[""H"",""Y"",""K"",""G"",""L""]",1.0,5.0,,,,,,,62b5fea64b239d91783414ff,09:42:21,03/04/2024
1351.3000000000466,[''],0,ospan,feedback,ediBu56oJGfohOPojdReEn66hPg1,html-button-response,133,1373240,0.0-46.0-4.0-1.0-3.0,,,,,,,,,,,,100.0,0.0,,62b5fea64b239d91783414ff,09:42:21,03/04/2024
,"<p style=""font-size:75px;"">...</p>",,ospan,iti,ediBu56oJGfohOPojdReEn66hPg1,html-keyboard-response,134,1374248,0.0-46.0-4.0-2.0-0.0,,,,,,,,,,,,,,,62b5fea64b239d91783414ff,09:42:21,03/04/2024
3395.0,,,ospan,symmetry,ediBu56oJGfohOPojdReEn66hPg1,symmetry-judgement-task,135,1378767,0.0-46.0-4.0-2.0-1.0-0.0,,,,,,,,,,1.0,1.0,,,,62b5fea64b239d91783414ff,09:42:21,03/04/2024
,"<div style=""font-size: 10rem; color: #0000FF"">H</div>",,ospan,letter,ediBu56oJGfohOPojdReEn66hPg1,html-keyboard-response,136,1379771,0.0-46.0-4.0-2.0-1.0-1.0,,,,,,,,,,,,,,,62b5fea64b239d91783414ff,09:42:21,03/04/2024
1036.0,,,ospan,symmetry,ediBu56oJGfohOPojdReEn66hPg1,symmetry-judgement-task,137,1382690,0.0-46.0-4.0-2.0-1.0-2.0,,,,,,,,,,1.0,1.0,,,,62b5fea64b239d91783414ff,09:42:21,03/04/2024
,"<div style=""font-size: 10rem; color: #0000FF"">Q</div>",,ospan,letter,ediBu56oJGfohOPojdReEn66hPg1,html-keyboard-response,138,1383705,0.0-46.0-4.0-2.0-1.0-3.0,,,,,,,,,,,,,,,62b5fea64b239d91783414ff,09:42:21,03/04/2024
1075.0,,,ospan,symmetry,ediBu56oJGfohOPojdReEn66hPg1,symmetry-judgement-task,139,1386667,0.0-46.0-4.0-2.0-1.0-4.0,,,,,,,,,,1.0,1.0,,,,62b5fea64b239d91783414ff,09:42:21,03/04/2024
,"<div style=""font-size: 10rem; color: #0000FF"">S</div>",,ospan,letter,ediBu56oJGfohOPojdReEn66hPg1,html-keyboard-response,140,1387685,0.0-46.0-4.0-2.0-1.0-5.0,,,,,,,,,,,,,,,62b5fea64b239d91783414ff,09:42:21,03/04/2024
4344.800000000047,"<div class = numbox><p style=""font-size: 2.4rem"">Please recall the letters you saw to the best of your ability. If you do not remember a particular letter, use the SKIP button.<br><b>(When you are ready to lock in your answer, press ENTER)</b></p><button id = button_1 class = ""square num-button"" onclick = ""recordClick(this)""><div class = content><div class = numbers>C</div></div></button><button id = button_2 class = ""square num-button"" onclick = ""recordClick(this)""><div class = content><div class = numbers>G</div></div></button><button id = button_3 class = ""square num-button"" onclick = ""recordClick(this)""><div class = content><div class = numbers>H</div></div></button><button id = button_4 class = ""square num-button"" onclick = ""recordClick(this)""><div class = content><div class = numbers>J</div></div></button><button id = button_5 class = ""square num-button"" onclick = ""recordClick(this)""><div class = content><div class = numbers>K</div></div></button><button id = button_6 class = ""square num-button"" onclick = ""recordClick(this)""><div class = content><div class = numbers>L</div></div></button><button id = button_7 class = ""square num-button"" onclick = ""recordClick(this)""><div class = content><div class = numbers>N</div></div></button><button id = button_8 class = ""square num-button"" onclick = ""recordClick(this)""><div class = content><div class = numbers>P</div></div></button><button id = button_9 class = ""square num-button"" onclick = ""recordClick(this)""><div class = content><div class = numbers>Q</div></div></button><button id = button_10 class = ""square num-button"" onclick = ""recordClick(this)""><div class = content><div class = numbers>R</div></div></button><button id = button_11 class = ""square num-button"" onclick = ""recordClick(this)""><div class = content><div class = numbers>S</div></div></button><button id = button_12 class = ""square num-button"" onclick = ""recordClick(this)""><div class = content><div class = numbers>Y</div></div></button><button class = clear_button id = ""ClearButton"" onclick = ""clearResponse()"">BACKSPACE</button><button class = blank_button id = ""BlankButton"" onclick = ""blankResponse()"">SKIP</button><p style=""font-size: 2.4rem""><u><b>Current Answer:</b></u></p><br><br><div id=echoed_txt style=""font-size: 5rem; color:blue;""><b></b></div></div>",enter,ospan,retrieval,ediBu56oJGfohOPojdReEn66hPg1,html-keyboard-response,141,1392788,0.0-46.0-4.0-2.0-2.0,15,15,15,3.0,"[""H"",""Q"",""S""]","[""H"",""Q"",""S""]",1.0,3.0,,,,,,,62b5fea64b239d91783414ff,09:42:21,03/04/2024
726.9000000001397,[''],0,ospan,feedback,ediBu56oJGfohOPojdReEn66hPg1,html-button-response,142,1394018,0.0-46.0-4.0-2.0-3.0,,,,,,,,,,,,100.0,0.0,,62b5fea64b239d91783414ff,09:42:21,03/04/2024
,"<p style=""font-size:75px;"">...</p>",,ospan,iti,ediBu56oJGfohOPojdReEn66hPg1,html-keyboard-response,143,1395025,0.0-46.0-5.0-0.0-0.0,,,,,,,,,,,,,,,62b5fea64b239d91783414ff,09:42:21,03/04/2024
2322.0,,,ospan,symmetry,ediBu56oJGfohOPojdReEn66hPg1,symmetry-judgement-task,144,1398478,0.0-46.0-5.0-0.0-1.0-0.0,,,,,,,,,,1.0,1.0,,,,62b5fea64b239d91783414ff,09:42:21,03/04/2024
,"<div style=""font-size: 10rem; color: #0000FF"">Y</div>",,ospan,letter,ediBu56oJGfohOPojdReEn66hPg1,html-keyboard-response,145,1399484,0.0-46.0-5.0-0.0-1.0-1.0,,,,,,,,,,,,,,,62b5fea64b239d91783414ff,09:42:21,03/04/2024
1362.0,,,ospan,symmetry,ediBu56oJGfohOPojdReEn66hPg1,symmetry-judgement-task,146,1402726,0.0-46.0-5.0-0.0-1.0-2.0,,,,,,,,,,1.0,1.0,,,,62b5fea64b239d91783414ff,09:42:21,03/04/2024
,"<div style=""font-size: 10rem; color: #0000FF"">G</div>",,ospan,letter,ediBu56oJGfohOPojdReEn66hPg1,html-keyboard-response,147,1403733,0.0-46.0-5.0-0.0-1.0-3.0,,,,,,,,,,,,,,,62b5fea64b239d91783414ff,09:42:21,03/04/2024
1487.0,,,ospan,symmetry,ediBu56oJGfohOPojdReEn66hPg1,symmetry-judgement-task,148,1407101,0.0-46.0-5.0-0.0-1.0-4.0,,,,,,,,,,1.0,1.0,,,,62b5fea64b239d91783414ff,09:42:21,03/04/2024
,"<div style=""font-size: 10rem; color: #0000FF"">R</div>",,ospan,letter,ediBu56oJGfohOPojdReEn66hPg1,html-keyboard-response,149,1408111,0.0-46.0-5.0-0.0-1.0-5.0,,,,,,,,,,,,,,,62b5fea64b239d91783414ff,09:42:21,03/04/2024
1391.0,,,ospan,symmetry,ediBu56oJGfohOPojdReEn66hPg1,symmetry-judgement-task,150,1411388,0.0-46.0-5.0-0.0-1.0-6.0,,,,,,,,,,1.0,1.0,,,,62b5fea64b239d91783414ff,09:42:21,03/04/2024
,"<div style=""font-size: 10rem; color: #0000FF"">C</div>",,ospan,letter,ediBu56oJGfohOPojdReEn66hPg1,html-keyboard-response,151,1412391,0.0-46.0-5.0-0.0-1.0-7.0,,,,,,,,,,,,,,,62b5fea64b239d91783414ff,09:42:21,03/04/2024
1426.0,,,ospan,symmetry,ediBu56oJGfohOPojdReEn66hPg1,symmetry-judgement-task,152,1415705,0.0-46.0-5.0-0.0-1.0-8.0,,,,,,,,,,1.0,1.0,,,,62b5fea64b239d91783414ff,09:42:21,03/04/2024
,"<div style=""font-size: 10rem; color: #0000FF"">S</div>",,ospan,letter,ediBu56oJGfohOPojdReEn66hPg1,html-keyboard-response,153,1416709,0.0-46.0-5.0-0.0-1.0-9.0,,,,,,,,,,,,,,,62b5fea64b239d91783414ff,09:42:21,03/04/2024
1789.0,,,ospan,symmetry,ediBu56oJGfohOPojdReEn66hPg1,symmetry-judgement-task,154,1420370,0.0-46.0-5.0-0.0-1.0-10.0,,,,,,,,,,1.0,1.0,,,,62b5fea64b239d91783414ff,09:42:21,03/04/2024
,"<div style=""font-size: 10rem; color: #0000FF"">N</div>",,ospan,letter,ediBu56oJGfohOPojdReEn66hPg1,html-keyboard-response,155,1421383,0.0-46.0-5.0-0.0-1.0-11.0,,,,,,,,,,,,,,,62b5fea64b239d91783414ff,09:42:21,03/04/2024
9579.800000000047,"<div class = numbox><p style=""font-size: 2.4rem"">Please recall the letters you saw to the best of your ability. If you do not remember a particular letter, use the SKIP button.<br><b>(When you are ready to lock in your answer, press ENTER)</b></p><button id = button_1 class = ""square num-button"" onclick = ""recordClick(this)""><div class = content><div class = numbers>C</div></div></button><button id = button_2 class = ""square num-button"" onclick = ""recordClick(this)""><div class = content><div class = numbers>G</div></div></button><button id = button_3 class = ""square num-button"" onclick = ""recordClick(this)""><div class = content><div class = numbers>H</div></div></button><button id = button_4 class = ""square num-button"" onclick = ""recordClick(this)""><div class = content><div class = numbers>J</div></div></button><button id = button_5 class = ""square num-button"" onclick = ""recordClick(this)""><div class = content><div class = numbers>K</div></div></button><button id = button_6 class = ""square num-button"" onclick = ""recordClick(this)""><div class = content><div class = numbers>L</div></div></button><button id = button_7 class = ""square num-button"" onclick = ""recordClick(this)""><div class = content><div class = numbers>N</div></div></button><button id = button_8 class = ""square num-button"" onclick = ""recordClick(this)""><div class = content><div class = numbers>P</div></div></button><button id = button_9 class = ""square num-button"" onclick = ""recordClick(this)""><div class = content><div class = numbers>Q</div></div></button><button id = button_10 class = ""square num-button"" onclick = ""recordClick(this)""><div class = content><div class = numbers>R</div></div></button><button id = button_11 class = ""square num-button"" onclick = ""recordClick(this)""><div class = content><div class = numbers>S</div></div></button><button id = button_12 class = ""square num-button"" onclick = ""recordClick(this)""><div class = content><div class = numbers>Y</div></div></button><button class = clear_button id = ""ClearButton"" onclick = ""clearResponse()"">BACKSPACE</button><button class = blank_button id = ""BlankButton"" onclick = ""blankResponse()"">SKIP</button><p style=""font-size: 2.4rem""><u><b>Current Answer:</b></u></p><br><br><div id=echoed_txt style=""font-size: 5rem; color:blue;""><b></b></div></div>",enter,ospan,retrieval,ediBu56oJGfohOPojdReEn66hPg1,html-keyboard-response,156,1431715,0.0-46.0-5.0-0.0-2.0,21,19,15,6.0,"[""Y"",""G"",""R"",""C"",""N"",""S""]","[""Y"",""G"",""R"",""C"",""S"",""N""]",0.0,4.0,,,,,,,62b5fea64b239d91783414ff,09:42:21,03/04/2024
1488.5,[''],0,ospan,feedback,ediBu56oJGfohOPojdReEn66hPg1,html-button-response,157,1433712,0.0-46.0-5.0-0.0-3.0,,,,,,,,,,,,100.0,0.0,,62b5fea64b239d91783414ff,09:42:21,03/04/2024
,"<p style=""font-size:75px;"">...</p>",,ospan,iti,ediBu56oJGfohOPojdReEn66hPg1,html-keyboard-response,158,1434718,0.0-46.0-5.0-1.0-0.0,,,,,,,,,,,,,,,62b5fea64b239d91783414ff,09:42:21,03/04/2024
2698.0,,,ospan,symmetry,ediBu56oJGfohOPojdReEn66hPg1,symmetry-judgement-task,159,1438537,0.0-46.0-5.0-1.0-1.0-0.0,,,,,,,,,,1.0,1.0,,,,62b5fea64b239d91783414ff,09:42:21,03/04/2024
,"<div style=""font-size: 10rem; color: #0000FF"">L</div>",,ospan,letter,ediBu56oJGfohOPojdReEn66hPg1,html-keyboard-response,160,1439546,0.0-46.0-5.0-1.0-1.0-1.0,,,,,,,,,,,,,,,62b5fea64b239d91783414ff,09:42:21,03/04/2024
1641.0,,,ospan,symmetry,ediBu56oJGfohOPojdReEn66hPg1,symmetry-judgement-task,161,1443051,0.0-46.0-5.0-1.0-1.0-2.0,,,,,,,,,,1.0,1.0,,,,62b5fea64b239d91783414ff,09:42:21,03/04/2024
,"<div style=""font-size: 10rem; color: #0000FF"">Y</div>",,ospan,letter,ediBu56oJGfohOPojdReEn66hPg1,html-keyboard-response,162,1444061,0.0-46.0-5.0-1.0-1.0-3.0,,,,,,,,,,,,,,,62b5fea64b239d91783414ff,09:42:21,03/04/2024
922.0,,,ospan,symmetry,ediBu56oJGfohOPojdReEn66hPg1,symmetry-judgement-task,163,1446868,0.0-46.0-5.0-1.0-1.0-4.0,,,,,,,,,,1.0,1.0,,,,62b5fea64b239d91783414ff,09:42:21,03/04/2024
,"<div style=""font-size: 10rem; color: #0000FF"">K</div>",,ospan,letter,ediBu56oJGfohOPojdReEn66hPg1,html-keyboard-response,164,1447883,0.0-46.0-5.0-1.0-1.0-5.0,,,,,,,,,,,,,,,62b5fea64b239d91783414ff,09:42:21,03/04/2024
6501.0,,,ospan,symmetry,ediBu56oJGfohOPojdReEn66hPg1,symmetry-judgement-task,165,1456336,0.0-46.0-5.0-1.0-1.0-6.0,,,,,,,,,,1.0,1.0,,,,62b5fea64b239d91783414ff,09:42:21,03/04/2024
,"<div style=""font-size: 10rem; color: #0000FF"">G</div>",,ospan,letter,ediBu56oJGfohOPojdReEn66hPg1,html-keyboard-response,166,1457352,0.0-46.0-5.0-1.0-1.0-7.0,,,,,,,,,,,,,,,62b5fea64b239d91783414ff,09:42:21,03/04/2024
1972.0,,,ospan,symmetry,ediBu56oJGfohOPojdReEn66hPg1,symmetry-judgement-task,167,1461195,0.0-46.0-5.0-1.0-1.0-8.0,,,,,,,,,,1.0,1.0,,,,62b5fea64b239d91783414ff,09:42:21,03/04/2024
,"<div style=""font-size: 10rem; color: #0000FF"">R</div>",,ospan,letter,ediBu56oJGfohOPojdReEn66hPg1,html-keyboard-response,168,1462206,0.0-46.0-5.0-1.0-1.0-9.0,,,,,,,,,,,,,,,62b5fea64b239d91783414ff,09:42:21,03/04/2024
1469.0,,,ospan,symmetry,ediBu56oJGfohOPojdReEn66hPg1,symmetry-judgement-task,169,1465545,0.0-46.0-5.0-1.0-1.0-10.0,,,,,,,,,,1.0,1.0,,,,62b5fea64b239d91783414ff,09:42:21,03/04/2024
,"<div style=""font-size: 10rem; color: #0000FF"">N</div>",,ospan,letter,ediBu56oJGfohOPojdReEn66hPg1,html-keyboard-response,170,1466560,0.0-46.0-5.0-1.0-1.0-11.0,,,,,,,,,,,,,,,62b5fea64b239d91783414ff,09:42:21,03/04/2024
2099.0,,,ospan,symmetry,ediBu56oJGfohOPojdReEn66hPg1,symmetry-judgement-task,171,1470541,0.0-46.0-5.0-1.0-1.0-12.0,,,,,,,,,,1.0,1.0,,,,62b5fea64b239d91783414ff,09:42:21,03/04/2024
,"<div style=""font-size: 10rem; color: #0000FF"">Q</div>",,ospan,letter,ediBu56oJGfohOPojdReEn66hPg1,html-keyboard-response,172,1471548,0.0-46.0-5.0-1.0-1.0-13.0,,,,,,,,,,,,,,,62b5fea64b239d91783414ff,09:42:21,03/04/2024
6564.100000000093,"<div class = numbox><p style=""font-size: 2.4rem"">Please recall the letters you saw to the best of your ability. If you do not remember a particular letter, use the SKIP button.<br><b>(When you are ready to lock in your answer, press ENTER)</b></p><button id = button_1 class = ""square num-button"" onclick = ""recordClick(this)""><div class = content><div class = numbers>C</div></div></button><button id = button_2 class = ""square num-button"" onclick = ""recordClick(this)""><div class = content><div class = numbers>G</div></div></button><button id = button_3 class = ""square num-button"" onclick = ""recordClick(this)""><div class = content><div class = numbers>H</div></div></button><button id = button_4 class = ""square num-button"" onclick = ""recordClick(this)""><div class = content><div class = numbers>J</div></div></button><button id = button_5 class = ""square num-button"" onclick = ""recordClick(this)""><div class = content><div class = numbers>K</div></div></button><button id = button_6 class = ""square num-button"" onclick = ""recordClick(this)""><div class = content><div class = numbers>L</div></div></button><button id = button_7 class = ""square num-button"" onclick = ""recordClick(this)""><div class = content><div class = numbers>N</div></div></button><button id = button_8 class = ""square num-button"" onclick = ""recordClick(this)""><div class = content><div class = numbers>P</div></div></button><button id = button_9 class = ""square num-button"" onclick = ""recordClick(this)""><div class = content><div class = numbers>Q</div></div></button><button id = button_10 class = ""square num-button"" onclick = ""recordClick(this)""><div class = content><div class = numbers>R</div></div></button><button id = button_11 class = ""square num-button"" onclick = ""recordClick(this)""><div class = content><div class = numbers>S</div></div></button><button id = button_12 class = ""square num-button"" onclick = ""recordClick(this)""><div class = content><div class = numbers>Y</div></div></button><button class = clear_button id = ""ClearButton"" onclick = ""clearResponse()"">BACKSPACE</button><button class = blank_button id = ""BlankButton"" onclick = ""blankResponse()"">SKIP</button><p style=""font-size: 2.4rem""><u><b>Current Answer:</b></u></p><br><br><div id=echoed_txt style=""font-size: 5rem; color:blue;""><b></b></div></div>",enter,ospan,retrieval,ediBu56oJGfohOPojdReEn66hPg1,html-keyboard-response,173,1478876,0.0-46.0-5.0-1.0-2.0,28,19,15,7.0,"[""Y"",""L"",""G"",""R"",""N""]","[""L"",""Y"",""K"",""G"",""R"",""N"",""Q""]",0.0,0.0,,,,,,,62b5fea64b239d91783414ff,09:42:21,03/04/2024
1294.1999999999534,[''],0,ospan,feedback,ediBu56oJGfohOPojdReEn66hPg1,html-button-response,174,1480682,0.0-46.0-5.0-1.0-3.0,,,,,,,,,,,,100.0,0.0,,62b5fea64b239d91783414ff,09:42:21,03/04/2024
,"<p style=""font-size:75px;"">...</p>",,ospan,iti,ediBu56oJGfohOPojdReEn66hPg1,html-keyboard-response,175,1481695,0.0-46.0-6.0-0.0-0.0,,,,,,,,,,,,,,,62b5fea64b239d91783414ff,09:42:21,03/04/2024
1644.0,,,ospan,symmetry,ediBu56oJGfohOPojdReEn66hPg1,symmetry-judgement-task,176,1484457,0.0-46.0-6.0-0.0-1.0-0.0,,,,,,,,,,1.0,1.0,,,,62b5fea64b239d91783414ff,09:42:21,03/04/2024
,"<div style=""font-size: 10rem; color: #0000FF"">K</div>",,ospan,letter,ediBu56oJGfohOPojdReEn66hPg1,html-keyboard-response,177,1485464,0.0-46.0-6.0-0.0-1.0-1.0,,,,,,,,,,,,,,,62b5fea64b239d91783414ff,09:42:21,03/04/2024
1755.0,,,ospan,symmetry,ediBu56oJGfohOPojdReEn66hPg1,symmetry-judgement-task,178,1489089,0.0-46.0-6.0-0.0-1.0-2.0,,,,,,,,,,1.0,1.0,,,,62b5fea64b239d91783414ff,09:42:21,03/04/2024
,"<div style=""font-size: 10rem; color: #0000FF"">G</div>",,ospan,letter,ediBu56oJGfohOPojdReEn66hPg1,html-keyboard-response,179,1490106,0.0-46.0-6.0-0.0-1.0-3.0,,,,,,,,,,,,,,,62b5fea64b239d91783414ff,09:42:21,03/04/2024
2586.0,,,ospan,symmetry,ediBu56oJGfohOPojdReEn66hPg1,symmetry-judgement-task,180,1494573,0.0-46.0-6.0-0.0-1.0-4.0,,,,,,,,,,1.0,1.0,,,,62b5fea64b239d91783414ff,09:42:21,03/04/2024
,"<div style=""font-size: 10rem; color: #0000FF"">Y</div>",,ospan,letter,ediBu56oJGfohOPojdReEn66hPg1,html-keyboard-response,181,1495578,0.0-46.0-6.0-0.0-1.0-5.0,,,,,,,,,,,,,,,62b5fea64b239d91783414ff,09:42:21,03/04/2024
1064.0,,,ospan,symmetry,ediBu56oJGfohOPojdReEn66hPg1,symmetry-judgement-task,182,1498538,0.0-46.0-6.0-0.0-1.0-6.0,,,,,,,,,,1.0,1.0,,,,62b5fea64b239d91783414ff,09:42:21,03/04/2024
,"<div style=""font-size: 10rem; color: #0000FF"">J</div>",,ospan,letter,ediBu56oJGfohOPojdReEn66hPg1,html-keyboard-response,183,1499539,0.0-46.0-6.0-0.0-1.0-7.0,,,,,,,,,,,,,,,62b5fea64b239d91783414ff,09:42:21,03/04/2024
1389.0,,,ospan,symmetry,ediBu56oJGfohOPojdReEn66hPg1,symmetry-judgement-task,184,1502796,0.0-46.0-6.0-0.0-1.0-8.0,,,,,,,,,,1.0,1.0,,,,62b5fea64b239d91783414ff,09:42:21,03/04/2024
,"<div style=""font-size: 10rem; color: #0000FF"">R</div>",,ospan,letter,ediBu56oJGfohOPojdReEn66hPg1,html-keyboard-response,185,1503800,0.0-46.0-6.0-0.0-1.0-9.0,,,,,,,,,,,,,,,62b5fea64b239d91783414ff,09:42:21,03/04/2024
7789.699999999953,"<div class = numbox><p style=""font-size: 2.4rem"">Please recall the letters you saw to the best of your ability. If you do not remember a particular letter, use the SKIP button.<br><b>(When you are ready to lock in your answer, press ENTER)</b></p><button id = button_1 class = ""square num-button"" onclick = ""recordClick(this)""><div class = content><div class = numbers>C</div></div></button><button id = button_2 class = ""square num-button"" onclick = ""recordClick(this)""><div class = content><div class = numbers>G</div></div></button><button id = button_3 class = ""square num-button"" onclick = ""recordClick(this)""><div class = content><div class = numbers>H</div></div></button><button id = button_4 class = ""square num-button"" onclick = ""recordClick(this)""><div class = content><div class = numbers>J</div></div></button><button id = button_5 class = ""square num-button"" onclick = ""recordClick(this)""><div class = content><div class = numbers>K</div></div></button><button id = button_6 class = ""square num-button"" onclick = ""recordClick(this)""><div class = content><div class = numbers>L</div></div></button><button id = button_7 class = ""square num-button"" onclick = ""recordClick(this)""><div class = content><div class = numbers>N</div></div></button><button id = button_8 class = ""square num-button"" onclick = ""recordClick(this)""><div class = content><div class = numbers>P</div></div></button><button id = button_9 class = ""square num-button"" onclick = ""recordClick(this)""><div class = content><div class = numbers>Q</div></div></button><button id = button_10 class = ""square num-button"" onclick = ""recordClick(this)""><div class = content><div class = numbers>R</div></div></button><button id = button_11 class = ""square num-button"" onclick = ""recordClick(this)""><div class = content><div class = numbers>S</div></div></button><button id = button_12 class = ""square num-button"" onclick = ""recordClick(this)""><div class = content><div class = numbers>Y</div></div></button><button class = clear_button id = ""ClearButton"" onclick = ""clearResponse()"">BACKSPACE</button><button class = blank_button id = ""BlankButton"" onclick = ""blankResponse()"">SKIP</button><p style=""font-size: 2.4rem""><u><b>Current Answer:</b></u></p><br><br><div id=echoed_txt style=""font-size: 5rem; color:blue;""><b></b></div></div>",enter,ospan,retrieval,ediBu56oJGfohOPojdReEn66hPg1,html-keyboard-response,186,1512340,0.0-46.0-6.0-0.0-2.0,33,24,20,5.0,"[""K"",""G"",""Y"",""J"",""R""]","[""K"",""G"",""Y"",""J"",""R""]",1.0,5.0,,,,,,,62b5fea64b239d91783414ff,09:42:21,03/04/2024
1665.3999999999069,[''],0,ospan,feedback,ediBu56oJGfohOPojdReEn66hPg1,html-button-response,187,1514519,0.0-46.0-6.0-0.0-3.0,,,,,,,,,,,,100.0,0.0,,62b5fea64b239d91783414ff,09:42:21,03/04/2024
,"<p style=""font-size:75px;"">...</p>",,ospan,iti,ediBu56oJGfohOPojdReEn66hPg1,html-keyboard-response,188,1515530,0.0-46.0-6.0-1.0-0.0,,,,,,,,,,,,,,,62b5fea64b239d91783414ff,09:42:21,03/04/2024
1518.0,,,ospan,symmetry,ediBu56oJGfohOPojdReEn66hPg1,symmetry-judgement-task,189,1518163,0.0-46.0-6.0-1.0-1.0-0.0,,,,,,,,,,1.0,1.0,,,,62b5fea64b239d91783414ff,09:42:21,03/04/2024
,"<div style=""font-size: 10rem; color: #0000FF"">Q</div>",,ospan,letter,ediBu56oJGfohOPojdReEn66hPg1,html-keyboard-response,190,1519176,0.0-46.0-6.0-1.0-1.0-1.0,,,,,,,,,,,,,,,62b5fea64b239d91783414ff,09:42:21,03/04/2024
1092.0,,,ospan,symmetry,ediBu56oJGfohOPojdReEn66hPg1,symmetry-judgement-task,191,1522170,0.0-46.0-6.0-1.0-1.0-2.0,,,,,,,,,,1.0,1.0,,,,62b5fea64b239d91783414ff,09:42:21,03/04/2024
,"<div style=""font-size: 10rem; color: #0000FF"">N</div>",,ospan,letter,ediBu56oJGfohOPojdReEn66hPg1,html-keyboard-response,192,1523188,0.0-46.0-6.0-1.0-1.0-3.0,,,,,,,,,,,,,,,62b5fea64b239d91783414ff,09:42:21,03/04/2024
968.0,,,ospan,symmetry,ediBu56oJGfohOPojdReEn66hPg1,symmetry-judgement-task,193,1526030,0.0-46.0-6.0-1.0-1.0-4.0,,,,,,,,,,1.0,1.0,,,,62b5fea64b239d91783414ff,09:42:21,03/04/2024
,"<div style=""font-size: 10rem; color: #0000FF"">R</div>",,ospan,letter,ediBu56oJGfohOPojdReEn66hPg1,html-keyboard-response,194,1527031,0.0-46.0-6.0-1.0-1.0-5.0,,,,,,,,,,,,,,,62b5fea64b239d91783414ff,09:42:21,03/04/2024
899.0,,,ospan,symmetry,ediBu56oJGfohOPojdReEn66hPg1,symmetry-judgement-task,195,1529825,0.0-46.0-6.0-1.0-1.0-6.0,,,,,,,,,,1.0,1.0,,,,62b5fea64b239d91783414ff,09:42:21,03/04/2024
,"<div style=""font-size: 10rem; color: #0000FF"">C</div>",,ospan,letter,ediBu56oJGfohOPojdReEn66hPg1,html-keyboard-response,196,1530835,0.0-46.0-6.0-1.0-1.0-7.0,,,,,,,,,,,,,,,62b5fea64b239d91783414ff,09:42:21,03/04/2024
1125.0,,,ospan,symmetry,ediBu56oJGfohOPojdReEn66hPg1,symmetry-judgement-task,197,1533838,0.0-46.0-6.0-1.0-1.0-8.0,,,,,,,,,,1.0,1.0,,,,62b5fea64b239d91783414ff,09:42:21,03/04/2024
,"<div style=""font-size: 10rem; color: #0000FF"">G</div>",,ospan,letter,ediBu56oJGfohOPojdReEn66hPg1,html-keyboard-response,198,1534852,0.0-46.0-6.0-1.0-1.0-9.0,,,,,,,,,,,,,,,62b5fea64b239d91783414ff,09:42:21,03/04/2024
3010.0,,,ospan,symmetry,ediBu56oJGfohOPojdReEn66hPg1,symmetry-judgement-task,199,1539736,0.0-46.0-6.0-1.0-1.0-10.0,,,,,,,,,,1.0,1.0,,,,62b5fea64b239d91783414ff,09:42:21,03/04/2024
,"<div style=""font-size: 10rem; color: #0000FF"">K</div>",,ospan,letter,ediBu56oJGfohOPojdReEn66hPg1,html-keyboard-response,200,1540749,0.0-46.0-6.0-1.0-1.0-11.0,,,,,,,,,,,,,,,62b5fea64b239d91783414ff,09:42:21,03/04/2024
1009.0,,,ospan,symmetry,ediBu56oJGfohOPojdReEn66hPg1,symmetry-judgement-task,201,1543630,0.0-46.0-6.0-1.0-1.0-12.0,,,,,,,,,,1.0,1.0,,,,62b5fea64b239d91783414ff,09:42:21,03/04/2024
,"<div style=""font-size: 10rem; color: #0000FF"">H</div>",,ospan,letter,ediBu56oJGfohOPojdReEn66hPg1,html-keyboard-response,202,1544636,0.0-46.0-6.0-1.0-1.0-13.0,,,,,,,,,,,,,,,62b5fea64b239d91783414ff,09:42:21,03/04/2024
1488.0,,,ospan,symmetry,ediBu56oJGfohOPojdReEn66hPg1,symmetry-judgement-task,203,1548019,0.0-46.0-6.0-1.0-1.0-14.0,,,,,,,,,,1.0,1.0,,,,62b5fea64b239d91783414ff,09:42:21,03/04/2024
,"<div style=""font-size: 10rem; color: #0000FF"">P</div>",,ospan,letter,ediBu56oJGfohOPojdReEn66hPg1,html-keyboard-response,204,1549022,0.0-46.0-6.0-1.0-1.0-15.0,,,,,,,,,,,,,,,62b5fea64b239d91783414ff,09:42:21,03/04/2024
6033.5,"<div class = numbox><p style=""font-size: 2.4rem"">Please recall the letters you saw to the best of your ability. If you do not remember a particular letter, use the SKIP button.<br><b>(When you are ready to lock in your answer, press ENTER)</b></p><button id = button_1 class = ""square num-button"" onclick = ""recordClick(this)""><div class = content><div class = numbers>C</div></div></button><button id = button_2 class = ""square num-button"" onclick = ""recordClick(this)""><div class = content><div class = numbers>G</div></div></button><button id = button_3 class = ""square num-button"" onclick = ""recordClick(this)""><div class = content><div class = numbers>H</div></div></button><button id = button_4 class = ""square num-button"" onclick = ""recordClick(this)""><div class = content><div class = numbers>J</div></div></button><button id = button_5 class = ""square num-button"" onclick = ""recordClick(this)""><div class = content><div class = numbers>K</div></div></button><button id = button_6 class = ""square num-button"" onclick = ""recordClick(this)""><div class = content><div class = numbers>L</div></div></button><button id = button_7 class = ""square num-button"" onclick = ""recordClick(this)""><div class = content><div class = numbers>N</div></div></button><button id = button_8 class = ""square num-button"" onclick = ""recordClick(this)""><div class = content><div class = numbers>P</div></div></button><button id = button_9 class = ""square num-button"" onclick = ""recordClick(this)""><div class = content><div class = numbers>Q</div></div></button><button id = button_10 class = ""square num-button"" onclick = ""recordClick(this)""><div class = content><div class = numbers>R</div></div></button><button id = button_11 class = ""square num-button"" onclick = ""recordClick(this)""><div class = content><div class = numbers>S</div></div></button><button id = button_12 class = ""square num-button"" onclick = ""recordClick(this)""><div class = content><div class = numbers>Y</div></div></button><button class = clear_button id = ""ClearButton"" onclick = ""clearResponse()"">BACKSPACE</button><button class = blank_button id = ""BlankButton"" onclick = ""blankResponse()"">SKIP</button><p style=""font-size: 2.4rem""><u><b>Current Answer:</b></u></p><br><br><div id=echoed_txt style=""font-size: 5rem; color:blue;""><b></b></div></div>",enter,ospan,retrieval,ediBu56oJGfohOPojdReEn66hPg1,html-keyboard-response,205,1555819,0.0-46.0-6.0-1.0-2.0,41,27,20,8.0,"[""Q"",""N"",""R""]","[""Q"",""N"",""R"",""C"",""G"",""K"",""H"",""P""]",0.0,3.0,,,,,,,62b5fea64b239d91783414ff,09:42:21,03/04/2024
1684.1999999999534,[''],0,ospan,feedback,ediBu56oJGfohOPojdReEn66hPg1,html-button-response,206,1558017,0.0-46.0-6.0-1.0-3.0,,,,,,,,,,,,100.0,0.0,,62b5fea64b239d91783414ff,09:42:21,03/04/2024
13766.299999999814,,{'Q0': 'it was interesting\n'},ospan,survey_ospan,ediBu56oJGfohOPojdReEn66hPg1,lmdlab-survey-text,207,1572545,0.0-46.0-7.0,,,,,,,,,,,,,,ediBu56oJGfohOPojdReEn66hPg1,62b5fea64b239d91783414ff,09:42:21,03/04/2024
1071.0,<p><p style='font-size: 3rem'>Great work!<br><br>This completes the symmetry and memory task.</p><br><br><br>,0,ospan,finish,ediBu56oJGfohOPojdReEn66hPg1,html-button-response,208,1573618,0.0-46.0-8.0,41,27,20,,,,,,,,,100.0,,,62b5fea64b239d91783414ff,09:42:21,03/04/2024
