rt,stimulus,response,exp_name,exp_stage,subjectID,trial_type,trial_index,time_elapsed,internal_node_id,ospan_shown,ospan_total,ospan_abs,length,resp_actual,resp_correct,full_correct,num_correct,feedback,accuracy,correct,math_acc,math_warning,databaseID,prolificID,start_time,date
1422.800000000745,<div class = 'left_align' style='font-size: 3.25rem; line-height: 1.3;'><p class = 'center_align'><b>Welcome to the Symmetry and Memory Task</b><br><br><br><br></p>Press 'continue' to show the instructions.<br><br><br><br></div>,0,ospan,instruct,JusxvgTtifOINzb9zquDv4JOTKq2,html-button-response,51,630822,0.0-43.0-0.0-0.0-0.0,,,,,,,,,,,,,,,5c86faba6ec6b80001044908,13:37:01,06/03/2024
4533.79999999702,"<div class = 'left_align' style='font-size: 3.25rem; line-height: 1.3;'><p class = 'center_align'><b>Symmetry and Memory Task</b><br><br></p>In this task, you will try to memorize letters you see on the screen<br>while you also view black and white grid pictures.<br><br>In the next few minutes, you will have some practice to get you familiar<br>with how the task works.<br><br>It may be difficult sometimes, but please do not worry about making mistakes!<br><br>We will begin by practicing the letter part of the task.<br><br><br><br></div>",0,ospan,instruct,JusxvgTtifOINzb9zquDv4JOTKq2,html-button-response,52,635613,0.0-43.0-0.0-0.0-1.0,,,,,,,,,,,,,,,5c86faba6ec6b80001044908,13:37:01,06/03/2024
5100.70000000298,"<div class = 'left_align' style='font-size: 3.25rem; line-height: 1.3;'>For this practice part, letters will appear on the screen one at a time.<br><br>Try to remember each letter in the order presented.<br><br>After some letters have been shown, you will see a response screen. Your<br>goal is to report the letters you saw <b>in order</b>. If you do not remember<br>a particular letter, you will have the option to leave it blank.<br><br><br><br></div>",0,ospan,instruct,JusxvgTtifOINzb9zquDv4JOTKq2,html-button-response,53,640973,0.0-43.0-0.0-0.0-2.0,,,,,,,,,,,,,,,5c86faba6ec6b80001044908,13:37:01,06/03/2024
1014.8999999985099,"<div class = 'left_align' style='font-size: 3.25rem; line-height: 1.3;'>Remember, it is very important to get the letters in the same<br>order as you see them.<br><br>When you are ready, you may begin the letter practice.</div><br><br><br><br>",0,ospan,instruct,JusxvgTtifOINzb9zquDv4JOTKq2,html-button-response,54,642255,0.0-43.0-0.0-0.0-3.0,,,,,,,,,,,,,,,5c86faba6ec6b80001044908,13:37:01,06/03/2024
,"<p style=""font-size:75px;"">...</p>",,ospan,iti,JusxvgTtifOINzb9zquDv4JOTKq2,html-keyboard-response,55,643523,0.0-43.0-0.0-1.0-0.0,,,,,,,,,,,,,,,5c86faba6ec6b80001044908,13:37:01,06/03/2024
,"<div style=""font-size: 10rem; color: #0000FF"">C</div>",,ospan,letter,JusxvgTtifOINzb9zquDv4JOTKq2,html-keyboard-response,56,644540,0.0-43.0-0.0-1.0-1.0,,,,,,,,,,,,,,,5c86faba6ec6b80001044908,13:37:01,06/03/2024
,"<div style=""font-size: 10rem; color: #0000FF"">S</div>",,ospan,letter,JusxvgTtifOINzb9zquDv4JOTKq2,html-keyboard-response,57,646317,0.0-43.0-0.0-1.0-2.0,,,,,,,,,,,,,,,5c86faba6ec6b80001044908,13:37:01,06/03/2024
9925.70000000298,"<div class = numbox><p style=""font-size: 2.4rem"">Please recall the letters you saw to the best of your ability. If you do not remember a particular letter, use the SKIP button.<br><b>(When you are ready to lock in your answer, press ENTER)</b></p><button id = button_1 class = ""square num-button"" onclick = ""recordClick(this)""><div class = content><div class = numbers>C</div></div></button><button id = button_2 class = ""square num-button"" onclick = ""recordClick(this)""><div class = content><div class = numbers>G</div></div></button><button id = button_3 class = ""square num-button"" onclick = ""recordClick(this)""><div class = content><div class = numbers>H</div></div></button><button id = button_4 class = ""square num-button"" onclick = ""recordClick(this)""><div class = content><div class = numbers>J</div></div></button><button id = button_5 class = ""square num-button"" onclick = ""recordClick(this)""><div class = content><div class = numbers>K</div></div></button><button id = button_6 class = ""square num-button"" onclick = ""recordClick(this)""><div class = content><div class = numbers>L</div></div></button><button id = button_7 class = ""square num-button"" onclick = ""recordClick(this)""><div class = content><div class = numbers>N</div></div></button><button id = button_8 class = ""square num-button"" onclick = ""recordClick(this)""><div class = content><div class = numbers>P</div></div></button><button id = button_9 class = ""square num-button"" onclick = ""recordClick(this)""><div class = content><div class = numbers>Q</div></div></button><button id = button_10 class = ""square num-button"" onclick = ""recordClick(this)""><div class = content><div class = numbers>R</div></div></button><button id = button_11 class = ""square num-button"" onclick = ""recordClick(this)""><div class = content><div class = numbers>S</div></div></button><button id = button_12 class = ""square num-button"" onclick = ""recordClick(this)""><div class = content><div class = numbers>Y</div></div></button><button class = clear_button id = ""ClearButton"" onclick = ""clearResponse()"">BACKSPACE</button><button class = blank_button id = ""BlankButton"" onclick = ""blankResponse()"">SKIP</button><p style=""font-size: 2.4rem""><u><b>Current Answer:</b></u></p><br><br><div id=echoed_txt style=""font-size: 5rem; color:blue;""><b></b></div></div>",enter,ospan,retrieval,JusxvgTtifOINzb9zquDv4JOTKq2,html-keyboard-response,58,656998,0.0-43.0-0.0-1.0-3.0,NA,NA,NA,2.0,"[""C"",""S""]","[""C"",""S""]",1.0,2.0,"['<font color=""green"">C</font>', '<font color=""green"">S</font>']",,,,,,5c86faba6ec6b80001044908,13:37:01,06/03/2024
4188.0,"['<p style=""font-size:44px"">Letters:<br><br><br><font color=""green"">C</font> <font color=""green"">S</font></p><br><br>']",0,ospan,practice_feedback,JusxvgTtifOINzb9zquDv4JOTKq2,html-button-response,59,661690,0.0-43.0-0.0-1.0-4.0,,,,,,,,,,,,,,,5c86faba6ec6b80001044908,13:37:01,06/03/2024
,"<p style=""font-size:75px;"">...</p>",,ospan,iti,JusxvgTtifOINzb9zquDv4JOTKq2,html-keyboard-response,60,662699,0.0-43.0-0.0-2.0-0.0,,,,,,,,,,,,,,,5c86faba6ec6b80001044908,13:37:01,06/03/2024
,"<div style=""font-size: 10rem; color: #0000FF"">S</div>",,ospan,letter,JusxvgTtifOINzb9zquDv4JOTKq2,html-keyboard-response,61,663715,0.0-43.0-0.0-2.0-1.0,,,,,,,,,,,,,,,5c86faba6ec6b80001044908,13:37:01,06/03/2024
,"<div style=""font-size: 10rem; color: #0000FF"">Q</div>",,ospan,letter,JusxvgTtifOINzb9zquDv4JOTKq2,html-keyboard-response,62,665497,0.0-43.0-0.0-2.0-2.0,,,,,,,,,,,,,,,5c86faba6ec6b80001044908,13:37:01,06/03/2024
,"<div style=""font-size: 10rem; color: #0000FF"">H</div>",,ospan,letter,JusxvgTtifOINzb9zquDv4JOTKq2,html-keyboard-response,63,667279,0.0-43.0-0.0-2.0-3.0,,,,,,,,,,,,,,,5c86faba6ec6b80001044908,13:37:01,06/03/2024
5949.900000002235,"<div class = numbox><p style=""font-size: 2.4rem"">Please recall the letters you saw to the best of your ability. If you do not remember a particular letter, use the SKIP button.<br><b>(When you are ready to lock in your answer, press ENTER)</b></p><button id = button_1 class = ""square num-button"" onclick = ""recordClick(this)""><div class = content><div class = numbers>C</div></div></button><button id = button_2 class = ""square num-button"" onclick = ""recordClick(this)""><div class = content><div class = numbers>G</div></div></button><button id = button_3 class = ""square num-button"" onclick = ""recordClick(this)""><div class = content><div class = numbers>H</div></div></button><button id = button_4 class = ""square num-button"" onclick = ""recordClick(this)""><div class = content><div class = numbers>J</div></div></button><button id = button_5 class = ""square num-button"" onclick = ""recordClick(this)""><div class = content><div class = numbers>K</div></div></button><button id = button_6 class = ""square num-button"" onclick = ""recordClick(this)""><div class = content><div class = numbers>L</div></div></button><button id = button_7 class = ""square num-button"" onclick = ""recordClick(this)""><div class = content><div class = numbers>N</div></div></button><button id = button_8 class = ""square num-button"" onclick = ""recordClick(this)""><div class = content><div class = numbers>P</div></div></button><button id = button_9 class = ""square num-button"" onclick = ""recordClick(this)""><div class = content><div class = numbers>Q</div></div></button><button id = button_10 class = ""square num-button"" onclick = ""recordClick(this)""><div class = content><div class = numbers>R</div></div></button><button id = button_11 class = ""square num-button"" onclick = ""recordClick(this)""><div class = content><div class = numbers>S</div></div></button><button id = button_12 class = ""square num-button"" onclick = ""recordClick(this)""><div class = content><div class = numbers>Y</div></div></button><button class = clear_button id = ""ClearButton"" onclick = ""clearResponse()"">BACKSPACE</button><button class = blank_button id = ""BlankButton"" onclick = ""blankResponse()"">SKIP</button><p style=""font-size: 2.4rem""><u><b>Current Answer:</b></u></p><br><br><div id=echoed_txt style=""font-size: 5rem; color:blue;""><b></b></div></div>",enter,ospan,retrieval,JusxvgTtifOINzb9zquDv4JOTKq2,html-keyboard-response,64,673980,0.0-43.0-0.0-2.0-4.0,NA,NA,NA,3.0,"[""S"",""Q"",""H""]","[""S"",""Q"",""H""]",1.0,3.0,"['<font color=""green"">S</font>', '<font color=""green"">Q</font>', '<font color=""green"">H</font>']",,,,,,5c86faba6ec6b80001044908,13:37:01,06/03/2024
959.1000000014901,"['<p style=""font-size:44px"">Letters:<br><br><br><font color=""green"">S</font> <font color=""green"">Q</font> <font color=""green"">H</font></p><br><br>']",0,ospan,practice_feedback,JusxvgTtifOINzb9zquDv4JOTKq2,html-button-response,65,675453,0.0-43.0-0.0-2.0-5.0,,,,,,,,,,,,,,,5c86faba6ec6b80001044908,13:37:01,06/03/2024
11021.800000000745,"<div class = 'left_align' style='font-size: 3.25rem; line-height: 1.3;'>Now you will practice doing the <b>symmetry judgment part</b> of the experiment.<br><br>A black and white grid picture will appear on the screen and you have to judge if it is <br>symmetrical or asymetrical.<br><br>A picture is 'mirror' symmetrical if its left half is identical to the right half when flipped.<br>Here are examples of a symmetrical and an asymetrical picture:<br><br><center><img src='Stimuli/img/symm_instructions_extra.png' style='height:420px; width:900'></img></center><br>To judge symmetry, imagine you were to fold each picture down the middle, like a book –<br>would the left half match the right half when folded onto each other?<br><br></div><br>",0,ospan,instruct,JusxvgTtifOINzb9zquDv4JOTKq2,html-button-response,66,686477,0.0-43.0-1.0-0.0-0.0,,,,,,,,,,,,,,,5c86faba6ec6b80001044908,13:37:01,06/03/2024
3448.599999997765,"<div class = 'left_align' style='font-size: 3.25rem; line-height: 1.3;'>When you have viewed the picture and determined whether it is symmetrical or not,<br>you can <b>click the Yes or No button</b> below to answer.<br><br>If you take longer than 15 seconds, it will continue automatically<br>and record the answer as an error.</div><br>",0,ospan,instruct,JusxvgTtifOINzb9zquDv4JOTKq2,html-button-response,67,690185,0.0-43.0-1.0-0.0-1.0,,,,,,,,,,,,,,,5c86faba6ec6b80001044908,13:37:01,06/03/2024
2620.7999999970198,"<div class = 'left_align' style='font-size: 3.25rem; line-height: 1.3;'>It is <b>very</b> important that you make the symmetry judgment correctly.<br><br>It is also important that you try and judge the picture as quickly as you can.<br><br>When you are ready, click on the button below to try some practice problems.</div><br><br><br><br>",0,ospan,instruct,JusxvgTtifOINzb9zquDv4JOTKq2,html-button-response,68,693060,0.0-43.0-1.0-0.0-2.0,,,,,,,,,,,,,,,5c86faba6ec6b80001044908,13:37:01,06/03/2024
2248.0,,,ospan,symmetry,JusxvgTtifOINzb9zquDv4JOTKq2,symmetry-judgement-task,69,696167,0.0-43.0-1.0-1.0-0.0,,,,,,,,,,1.0,1.0,,,,5c86faba6ec6b80001044908,13:37:01,06/03/2024
,"<p style=""color:green; font-size: 35px"">Correct</p>",,ospan,feedback,JusxvgTtifOINzb9zquDv4JOTKq2,html-keyboard-response,70,696920,0.0-43.0-1.0-1.0-1.0,,,,,,,,,,,,,,,5c86faba6ec6b80001044908,13:37:01,06/03/2024
1562.0,,,ospan,symmetry,JusxvgTtifOINzb9zquDv4JOTKq2,symmetry-judgement-task,71,701333,0.0-43.0-1.0-1.0-2.0,,,,,,,,,,1.0,1.0,,,,5c86faba6ec6b80001044908,13:37:01,06/03/2024
,"<p style=""color:green; font-size: 35px"">Correct</p>",,ospan,feedback,JusxvgTtifOINzb9zquDv4JOTKq2,html-keyboard-response,72,702099,0.0-43.0-1.0-1.0-3.0,,,,,,,,,,,,,,,5c86faba6ec6b80001044908,13:37:01,06/03/2024
959.0,,,ospan,symmetry,JusxvgTtifOINzb9zquDv4JOTKq2,symmetry-judgement-task,73,705915,0.0-43.0-1.0-1.0-4.0,,,,,,,,,,1.0,1.0,,,,5c86faba6ec6b80001044908,13:37:01,06/03/2024
,"<p style=""color:green; font-size: 35px"">Correct</p>",,ospan,feedback,JusxvgTtifOINzb9zquDv4JOTKq2,html-keyboard-response,74,706681,0.0-43.0-1.0-1.0-5.0,,,,,,,,,,,,,,,5c86faba6ec6b80001044908,13:37:01,06/03/2024
1174.5999999977648,"<p style=""font-size: 3rem;"">You responded correctly on 3 of 3 symmetry judgments. Good job!</p><br><br>",0,ospan,practice,JusxvgTtifOINzb9zquDv4JOTKq2,html-button-response,75,709872,0.0-43.0-1.0-2.0,,,,,,,,,,,,,,,5c86faba6ec6b80001044908,13:37:01,06/03/2024
3890.89999999851,"<div class = 'left_align' style='font-size: 3.25rem; line-height: 1.3;'>Now you will practice doing both parts of the experiment at the same time.<br><br>In the next practice set, you will be given one grid picture to judge.<br>Then letter will appear on the screen. Try to remember the letter.<br><br>It is <b>very important</b> to make the symmetry judgment as quickly and accurately as possible.<br><br>Just as before, once you have make the symmetry judgment, you can click Yes or No.<br><b>Note that you will no longer see Correct or Incorrect feedback.</div><br><br><br><br>",0,ospan,instruct,JusxvgTtifOINzb9zquDv4JOTKq2,html-button-response,76,714022,0.0-43.0-2.0-0.0-0.0,,,,,,,,,,,,,,,5c86faba6ec6b80001044908,13:37:01,06/03/2024
3811.39999999851,"<div class = 'left_align' style='font-size: 3.25rem; line-height: 1.3;'>After the letter goes away, another grid picture will appear, and then<br>another letter.<br><br>At the end of each set of letters and grids, you will recall the letters to the best<br>of your ability. Remember, try your best to get the letters in the correct order.<br><br>It is important to <b>quickly</b> and <b>accurately</b> make the symmetry judgments.</div><br><br><br><br>",0,ospan,instruct,JusxvgTtifOINzb9zquDv4JOTKq2,html-button-response,77,718091,0.0-43.0-2.0-0.0-1.0,,,,,,,,,,,,,,,5c86faba6ec6b80001044908,13:37:01,06/03/2024
9218.5,"<div class = 'left_align' style='font-size: 3.25rem; line-height: 1.3;'>On the feedback screen, if you are not doing well at the symmetry judgments,<br>you will also see a warning in the middle. This indicates your percent <br>correct for the grid pictures for the entire experiment.<br><br>It is <b>very</b> important for you to keep accuracy at least at 85%: <u>We can only use<br>data where the participant was at least 85% accurate on the judgments.</u> Therefore,<br> please try your best to perform well on the symmetry judgments, <b>at the same time</b><br>doing your best to recall as many letters as possible.<br><br>Click the button to try some practice problems.</div><br><br><br><br>",0,ospan,instruct,JusxvgTtifOINzb9zquDv4JOTKq2,html-button-response,78,727563,0.0-43.0-2.0-0.0-2.0,,,,,,,,,,,,,,,5c86faba6ec6b80001044908,13:37:01,06/03/2024
,"<p style=""font-size:75px;"">...</p>",,ospan,iti,JusxvgTtifOINzb9zquDv4JOTKq2,html-keyboard-response,79,728838,0.0-43.0-2.0-1.0-0.0,,,,,,,,,,,,,,,5c86faba6ec6b80001044908,13:37:01,06/03/2024
1422.0,,,ospan,symmetry,JusxvgTtifOINzb9zquDv4JOTKq2,symmetry-judgement-task,80,731638,0.0-43.0-2.0-1.0-1.0-0.0,,,,,,,,,,1.0,1.0,,,,5c86faba6ec6b80001044908,13:37:01,06/03/2024
,"<div style=""font-size: 10rem; color: #0000FF"">H</div>",,ospan,letter,JusxvgTtifOINzb9zquDv4JOTKq2,html-keyboard-response,81,732652,0.0-43.0-2.0-1.0-1.0-1.0,,,,,,,,,,,,,,,5c86faba6ec6b80001044908,13:37:01,06/03/2024
1087.0,,,ospan,symmetry,JusxvgTtifOINzb9zquDv4JOTKq2,symmetry-judgement-task,82,735869,0.0-43.0-2.0-1.0-1.0-2.0,,,,,,,,,,1.0,1.0,,,,5c86faba6ec6b80001044908,13:37:01,06/03/2024
,"<div style=""font-size: 10rem; color: #0000FF"">L</div>",,ospan,letter,JusxvgTtifOINzb9zquDv4JOTKq2,html-keyboard-response,83,736885,0.0-43.0-2.0-1.0-1.0-3.0,,,,,,,,,,,,,,,5c86faba6ec6b80001044908,13:37:01,06/03/2024
1231.0,,,ospan,symmetry,JusxvgTtifOINzb9zquDv4JOTKq2,symmetry-judgement-task,84,740250,0.0-43.0-2.0-1.0-1.0-4.0,,,,,,,,,,1.0,1.0,,,,5c86faba6ec6b80001044908,13:37:01,06/03/2024
,"<div style=""font-size: 10rem; color: #0000FF"">J</div>",,ospan,letter,JusxvgTtifOINzb9zquDv4JOTKq2,html-keyboard-response,85,741266,0.0-43.0-2.0-1.0-1.0-5.0,,,,,,,,,,,,,,,5c86faba6ec6b80001044908,13:37:01,06/03/2024
4409.099999997765,"<div class = numbox><p style=""font-size: 2.4rem"">Please recall the letters you saw to the best of your ability. If you do not remember a particular letter, use the SKIP button.<br><b>(When you are ready to lock in your answer, press ENTER)</b></p><button id = button_1 class = ""square num-button"" onclick = ""recordClick(this)""><div class = content><div class = numbers>C</div></div></button><button id = button_2 class = ""square num-button"" onclick = ""recordClick(this)""><div class = content><div class = numbers>G</div></div></button><button id = button_3 class = ""square num-button"" onclick = ""recordClick(this)""><div class = content><div class = numbers>H</div></div></button><button id = button_4 class = ""square num-button"" onclick = ""recordClick(this)""><div class = content><div class = numbers>J</div></div></button><button id = button_5 class = ""square num-button"" onclick = ""recordClick(this)""><div class = content><div class = numbers>K</div></div></button><button id = button_6 class = ""square num-button"" onclick = ""recordClick(this)""><div class = content><div class = numbers>L</div></div></button><button id = button_7 class = ""square num-button"" onclick = ""recordClick(this)""><div class = content><div class = numbers>N</div></div></button><button id = button_8 class = ""square num-button"" onclick = ""recordClick(this)""><div class = content><div class = numbers>P</div></div></button><button id = button_9 class = ""square num-button"" onclick = ""recordClick(this)""><div class = content><div class = numbers>Q</div></div></button><button id = button_10 class = ""square num-button"" onclick = ""recordClick(this)""><div class = content><div class = numbers>R</div></div></button><button id = button_11 class = ""square num-button"" onclick = ""recordClick(this)""><div class = content><div class = numbers>S</div></div></button><button id = button_12 class = ""square num-button"" onclick = ""recordClick(this)""><div class = content><div class = numbers>Y</div></div></button><button class = clear_button id = ""ClearButton"" onclick = ""clearResponse()"">BACKSPACE</button><button class = blank_button id = ""BlankButton"" onclick = ""blankResponse()"">SKIP</button><p style=""font-size: 2.4rem""><u><b>Current Answer:</b></u></p><br><br><div id=echoed_txt style=""font-size: 5rem; color:blue;""><b></b></div></div>",enter,ospan,retrieval,JusxvgTtifOINzb9zquDv4JOTKq2,html-keyboard-response,86,746442,0.0-43.0-2.0-1.0-2.0-0.0,NA,NA,NA,3.0,"[""H"",""L"",""J""]","[""H"",""L"",""J""]",1.0,3.0,"['<font color=""green"">H</font>', '<font color=""green"">L</font>', '<font color=""green"">J</font>']",,,,,,5c86faba6ec6b80001044908,13:37:01,06/03/2024
1590.0,"['<p style=""font-size:44px"">Letters:<br><br><br><font color=""green"">H</font> <font color=""green"">L</font> <font color=""green"">J</font></p><br><br><p style=""font-size:30px"">Symmetry:<br><br><font color=""green"">100%</font></p><br><br>']",0,ospan,practice_feedback,JusxvgTtifOINzb9zquDv4JOTKq2,html-button-response,87,748539,0.0-43.0-2.0-1.0-2.0-1.0,,,,,,,,,,,,,,,5c86faba6ec6b80001044908,13:37:01,06/03/2024
,"<p style=""font-size:75px;"">...</p>",,ospan,iti,JusxvgTtifOINzb9zquDv4JOTKq2,html-keyboard-response,88,749547,0.0-43.0-2.0-2.0-0.0,,,,,,,,,,,,,,,5c86faba6ec6b80001044908,13:37:01,06/03/2024
1393.0,,,ospan,symmetry,JusxvgTtifOINzb9zquDv4JOTKq2,symmetry-judgement-task,89,752279,0.0-43.0-2.0-2.0-1.0-0.0,,,,,,,,,,1.0,1.0,,,,5c86faba6ec6b80001044908,13:37:01,06/03/2024
,"<div style=""font-size: 10rem; color: #0000FF"">R</div>",,ospan,letter,JusxvgTtifOINzb9zquDv4JOTKq2,html-keyboard-response,90,753295,0.0-43.0-2.0-2.0-1.0-1.0,,,,,,,,,,,,,,,5c86faba6ec6b80001044908,13:37:01,06/03/2024
2109.0,,,ospan,symmetry,JusxvgTtifOINzb9zquDv4JOTKq2,symmetry-judgement-task,91,757511,0.0-43.0-2.0-2.0-1.0-2.0,,,,,,,,,,1.0,1.0,,,,5c86faba6ec6b80001044908,13:37:01,06/03/2024
,"<div style=""font-size: 10rem; color: #0000FF"">J</div>",,ospan,letter,JusxvgTtifOINzb9zquDv4JOTKq2,html-keyboard-response,92,758525,0.0-43.0-2.0-2.0-1.0-3.0,,,,,,,,,,,,,,,5c86faba6ec6b80001044908,13:37:01,06/03/2024
1122.0,,,ospan,symmetry,JusxvgTtifOINzb9zquDv4JOTKq2,symmetry-judgement-task,93,761759,0.0-43.0-2.0-2.0-1.0-4.0,,,,,,,,,,1.0,1.0,,,,5c86faba6ec6b80001044908,13:37:01,06/03/2024
,"<div style=""font-size: 10rem; color: #0000FF"">G</div>",,ospan,letter,JusxvgTtifOINzb9zquDv4JOTKq2,html-keyboard-response,94,762773,0.0-43.0-2.0-2.0-1.0-5.0,,,,,,,,,,,,,,,5c86faba6ec6b80001044908,13:37:01,06/03/2024
4909.39999999851,"<div class = numbox><p style=""font-size: 2.4rem"">Please recall the letters you saw to the best of your ability. If you do not remember a particular letter, use the SKIP button.<br><b>(When you are ready to lock in your answer, press ENTER)</b></p><button id = button_1 class = ""square num-button"" onclick = ""recordClick(this)""><div class = content><div class = numbers>C</div></div></button><button id = button_2 class = ""square num-button"" onclick = ""recordClick(this)""><div class = content><div class = numbers>G</div></div></button><button id = button_3 class = ""square num-button"" onclick = ""recordClick(this)""><div class = content><div class = numbers>H</div></div></button><button id = button_4 class = ""square num-button"" onclick = ""recordClick(this)""><div class = content><div class = numbers>J</div></div></button><button id = button_5 class = ""square num-button"" onclick = ""recordClick(this)""><div class = content><div class = numbers>K</div></div></button><button id = button_6 class = ""square num-button"" onclick = ""recordClick(this)""><div class = content><div class = numbers>L</div></div></button><button id = button_7 class = ""square num-button"" onclick = ""recordClick(this)""><div class = content><div class = numbers>N</div></div></button><button id = button_8 class = ""square num-button"" onclick = ""recordClick(this)""><div class = content><div class = numbers>P</div></div></button><button id = button_9 class = ""square num-button"" onclick = ""recordClick(this)""><div class = content><div class = numbers>Q</div></div></button><button id = button_10 class = ""square num-button"" onclick = ""recordClick(this)""><div class = content><div class = numbers>R</div></div></button><button id = button_11 class = ""square num-button"" onclick = ""recordClick(this)""><div class = content><div class = numbers>S</div></div></button><button id = button_12 class = ""square num-button"" onclick = ""recordClick(this)""><div class = content><div class = numbers>Y</div></div></button><button class = clear_button id = ""ClearButton"" onclick = ""clearResponse()"">BACKSPACE</button><button class = blank_button id = ""BlankButton"" onclick = ""blankResponse()"">SKIP</button><p style=""font-size: 2.4rem""><u><b>Current Answer:</b></u></p><br><br><div id=echoed_txt style=""font-size: 5rem; color:blue;""><b></b></div></div>",enter,ospan,retrieval,JusxvgTtifOINzb9zquDv4JOTKq2,html-keyboard-response,95,768436,0.0-43.0-2.0-2.0-2.0-0.0,NA,NA,NA,3.0,"[""R"",""J"",""G""]","[""R"",""J"",""G""]",1.0,3.0,"['<font color=""green"">R</font>', '<font color=""green"">J</font>', '<font color=""green"">G</font>']",,,,,,5c86faba6ec6b80001044908,13:37:01,06/03/2024
851.6999999992549,"['<p style=""font-size:44px"">Letters:<br><br><br><font color=""green"">R</font> <font color=""green"">J</font> <font color=""green"">G</font></p><br><br><p style=""font-size:30px"">Symmetry:<br><br><font color=""green"">100%</font></p><br><br>']",0,ospan,practice_feedback,JusxvgTtifOINzb9zquDv4JOTKq2,html-button-response,96,769792,0.0-43.0-2.0-2.0-2.0-1.0,,,,,,,,,,,,,,,5c86faba6ec6b80001044908,13:37:01,06/03/2024
11728.199999999255,"<div class = 'left_align' style='font-size: 3rem; line-height: 1.3;'><b>Great work! That is the end of practice.</b><br><br>The real trials will look just like the practice trials you just completed.<br><br><u>Here, you will not see feedback</u>. First, you will see an grid picture to judge,<br>then a letter to remember. When the recall screen appears, report the letters in the<br>order presented. If you forget a letter, remember to use the <b>blank</b> button to move to the<br>next letter. Some of the sets will have more symmetry grids and letters than others.<br><br>It is important that you do your best on both the symmetry judgments and the letter recall<br>parts of the experiment. For for the symmetry judgments, try to work as <b>quickly</b> and <br>as <b>accurately</b> as possible. Remember to keep your symmetry accuracy at 85% or above.<br><br><b>For the letters, do NOT use any external aid (e.g., writing on paper, electronic device).</b><br><br>It is <u>very important</u> to our experiment to have a <b>true</b> view of your real performance.<br><br>Do not worry if you miss some when it gets hard! This task is meant to be very challenging!<br><br>Click the button to begin.</div><br><br><br><br>",0,ospan,starting_real_here,JusxvgTtifOINzb9zquDv4JOTKq2,html-button-response,97,781522,0.0-43.0-2.0-3.0,,,,,,,,,,,,,,,5c86faba6ec6b80001044908,13:37:01,06/03/2024
,"<p style=""font-size:75px;"">...</p>",,ospan,iti,JusxvgTtifOINzb9zquDv4JOTKq2,html-keyboard-response,98,782784,0.0-43.0-3.0-0.0-0.0,,,,,,,,,,,,,,,5c86faba6ec6b80001044908,13:37:01,06/03/2024
1385.0,,,ospan,symmetry,JusxvgTtifOINzb9zquDv4JOTKq2,symmetry-judgement-task,99,785515,0.0-43.0-3.0-0.0-1.0-0.0,,,,,,,,,,1.0,1.0,,,,5c86faba6ec6b80001044908,13:37:01,06/03/2024
,"<div style=""font-size: 10rem; color: #0000FF"">S</div>",,ospan,letter,JusxvgTtifOINzb9zquDv4JOTKq2,html-keyboard-response,100,786531,0.0-43.0-3.0-0.0-1.0-1.0,,,,,,,,,,,,,,,5c86faba6ec6b80001044908,13:37:01,06/03/2024
1909.0,,,ospan,symmetry,JusxvgTtifOINzb9zquDv4JOTKq2,symmetry-judgement-task,101,790579,0.0-43.0-3.0-0.0-1.0-2.0,,,,,,,,,,1.0,1.0,,,,5c86faba6ec6b80001044908,13:37:01,06/03/2024
,"<div style=""font-size: 10rem; color: #0000FF"">K</div>",,ospan,letter,JusxvgTtifOINzb9zquDv4JOTKq2,html-keyboard-response,102,791596,0.0-43.0-3.0-0.0-1.0-3.0,,,,,,,,,,,,,,,5c86faba6ec6b80001044908,13:37:01,06/03/2024
937.0,,,ospan,symmetry,JusxvgTtifOINzb9zquDv4JOTKq2,symmetry-judgement-task,103,794693,0.0-43.0-3.0-0.0-1.0-4.0,,,,,,,,,,1.0,1.0,,,,5c86faba6ec6b80001044908,13:37:01,06/03/2024
,"<div style=""font-size: 10rem; color: #0000FF"">C</div>",,ospan,letter,JusxvgTtifOINzb9zquDv4JOTKq2,html-keyboard-response,104,795709,0.0-43.0-3.0-0.0-1.0-5.0,,,,,,,,,,,,,,,5c86faba6ec6b80001044908,13:37:01,06/03/2024
2895.10000000149,"<div class = numbox><p style=""font-size: 2.4rem"">Please recall the letters you saw to the best of your ability. If you do not remember a particular letter, use the SKIP button.<br><b>(When you are ready to lock in your answer, press ENTER)</b></p><button id = button_1 class = ""square num-button"" onclick = ""recordClick(this)""><div class = content><div class = numbers>C</div></div></button><button id = button_2 class = ""square num-button"" onclick = ""recordClick(this)""><div class = content><div class = numbers>G</div></div></button><button id = button_3 class = ""square num-button"" onclick = ""recordClick(this)""><div class = content><div class = numbers>H</div></div></button><button id = button_4 class = ""square num-button"" onclick = ""recordClick(this)""><div class = content><div class = numbers>J</div></div></button><button id = button_5 class = ""square num-button"" onclick = ""recordClick(this)""><div class = content><div class = numbers>K</div></div></button><button id = button_6 class = ""square num-button"" onclick = ""recordClick(this)""><div class = content><div class = numbers>L</div></div></button><button id = button_7 class = ""square num-button"" onclick = ""recordClick(this)""><div class = content><div class = numbers>N</div></div></button><button id = button_8 class = ""square num-button"" onclick = ""recordClick(this)""><div class = content><div class = numbers>P</div></div></button><button id = button_9 class = ""square num-button"" onclick = ""recordClick(this)""><div class = content><div class = numbers>Q</div></div></button><button id = button_10 class = ""square num-button"" onclick = ""recordClick(this)""><div class = content><div class = numbers>R</div></div></button><button id = button_11 class = ""square num-button"" onclick = ""recordClick(this)""><div class = content><div class = numbers>S</div></div></button><button id = button_12 class = ""square num-button"" onclick = ""recordClick(this)""><div class = content><div class = numbers>Y</div></div></button><button class = clear_button id = ""ClearButton"" onclick = ""clearResponse()"">BACKSPACE</button><button class = blank_button id = ""BlankButton"" onclick = ""blankResponse()"">SKIP</button><p style=""font-size: 2.4rem""><u><b>Current Answer:</b></u></p><br><br><div id=echoed_txt style=""font-size: 5rem; color:blue;""><b></b></div></div>",enter,ospan,retrieval,JusxvgTtifOINzb9zquDv4JOTKq2,html-keyboard-response,105,799372,0.0-43.0-3.0-0.0-2.0,3,3,3,3.0,"[""S"",""K"",""C""]","[""S"",""K"",""C""]",1.0,3.0,,,,,,,5c86faba6ec6b80001044908,13:37:01,06/03/2024
933.5,[''],0,ospan,feedback,JusxvgTtifOINzb9zquDv4JOTKq2,html-button-response,106,800810,0.0-43.0-3.0-0.0-3.0,,,,,,,,,,,,100.0,0.0,,5c86faba6ec6b80001044908,13:37:01,06/03/2024
,"<p style=""font-size:75px;"">...</p>",,ospan,iti,JusxvgTtifOINzb9zquDv4JOTKq2,html-keyboard-response,107,801819,0.0-43.0-4.0-0.0-0.0,,,,,,,,,,,,,,,5c86faba6ec6b80001044908,13:37:01,06/03/2024
1319.0,,,ospan,symmetry,JusxvgTtifOINzb9zquDv4JOTKq2,symmetry-judgement-task,108,804490,0.0-43.0-4.0-0.0-1.0-0.0,,,,,,,,,,1.0,1.0,,,,5c86faba6ec6b80001044908,13:37:01,06/03/2024
,"<div style=""font-size: 10rem; color: #0000FF"">G</div>",,ospan,letter,JusxvgTtifOINzb9zquDv4JOTKq2,html-keyboard-response,109,805506,0.0-43.0-4.0-0.0-1.0-1.0,,,,,,,,,,,,,,,5c86faba6ec6b80001044908,13:37:01,06/03/2024
922.0,,,ospan,symmetry,JusxvgTtifOINzb9zquDv4JOTKq2,symmetry-judgement-task,110,808539,0.0-43.0-4.0-0.0-1.0-2.0,,,,,,,,,,1.0,1.0,,,,5c86faba6ec6b80001044908,13:37:01,06/03/2024
,"<div style=""font-size: 10rem; color: #0000FF"">R</div>",,ospan,letter,JusxvgTtifOINzb9zquDv4JOTKq2,html-keyboard-response,111,809555,0.0-43.0-4.0-0.0-1.0-3.0,,,,,,,,,,,,,,,5c86faba6ec6b80001044908,13:37:01,06/03/2024
837.0,,,ospan,symmetry,JusxvgTtifOINzb9zquDv4JOTKq2,symmetry-judgement-task,112,812502,0.0-43.0-4.0-0.0-1.0-4.0,,,,,,,,,,1.0,1.0,,,,5c86faba6ec6b80001044908,13:37:01,06/03/2024
,"<div style=""font-size: 10rem; color: #0000FF"">H</div>",,ospan,letter,JusxvgTtifOINzb9zquDv4JOTKq2,html-keyboard-response,113,813519,0.0-43.0-4.0-0.0-1.0-5.0,,,,,,,,,,,,,,,5c86faba6ec6b80001044908,13:37:01,06/03/2024
988.0,,,ospan,symmetry,JusxvgTtifOINzb9zquDv4JOTKq2,symmetry-judgement-task,114,816617,0.0-43.0-4.0-0.0-1.0-6.0,,,,,,,,,,1.0,1.0,,,,5c86faba6ec6b80001044908,13:37:01,06/03/2024
,"<div style=""font-size: 10rem; color: #0000FF"">J</div>",,ospan,letter,JusxvgTtifOINzb9zquDv4JOTKq2,html-keyboard-response,115,817634,0.0-43.0-4.0-0.0-1.0-7.0,,,,,,,,,,,,,,,5c86faba6ec6b80001044908,13:37:01,06/03/2024
3454.7000000029802,"<div class = numbox><p style=""font-size: 2.4rem"">Please recall the letters you saw to the best of your ability. If you do not remember a particular letter, use the SKIP button.<br><b>(When you are ready to lock in your answer, press ENTER)</b></p><button id = button_1 class = ""square num-button"" onclick = ""recordClick(this)""><div class = content><div class = numbers>C</div></div></button><button id = button_2 class = ""square num-button"" onclick = ""recordClick(this)""><div class = content><div class = numbers>G</div></div></button><button id = button_3 class = ""square num-button"" onclick = ""recordClick(this)""><div class = content><div class = numbers>H</div></div></button><button id = button_4 class = ""square num-button"" onclick = ""recordClick(this)""><div class = content><div class = numbers>J</div></div></button><button id = button_5 class = ""square num-button"" onclick = ""recordClick(this)""><div class = content><div class = numbers>K</div></div></button><button id = button_6 class = ""square num-button"" onclick = ""recordClick(this)""><div class = content><div class = numbers>L</div></div></button><button id = button_7 class = ""square num-button"" onclick = ""recordClick(this)""><div class = content><div class = numbers>N</div></div></button><button id = button_8 class = ""square num-button"" onclick = ""recordClick(this)""><div class = content><div class = numbers>P</div></div></button><button id = button_9 class = ""square num-button"" onclick = ""recordClick(this)""><div class = content><div class = numbers>Q</div></div></button><button id = button_10 class = ""square num-button"" onclick = ""recordClick(this)""><div class = content><div class = numbers>R</div></div></button><button id = button_11 class = ""square num-button"" onclick = ""recordClick(this)""><div class = content><div class = numbers>S</div></div></button><button id = button_12 class = ""square num-button"" onclick = ""recordClick(this)""><div class = content><div class = numbers>Y</div></div></button><button class = clear_button id = ""ClearButton"" onclick = ""clearResponse()"">BACKSPACE</button><button class = blank_button id = ""BlankButton"" onclick = ""blankResponse()"">SKIP</button><p style=""font-size: 2.4rem""><u><b>Current Answer:</b></u></p><br><br><div id=echoed_txt style=""font-size: 5rem; color:blue;""><b></b></div></div>",enter,ospan,retrieval,JusxvgTtifOINzb9zquDv4JOTKq2,html-keyboard-response,116,821856,0.0-43.0-4.0-0.0-2.0,7,7,7,4.0,"[""G"",""R"",""H"",""J""]","[""G"",""R"",""H"",""J""]",1.0,4.0,,,,,,,5c86faba6ec6b80001044908,13:37:01,06/03/2024
824.2999999970198,[''],0,ospan,feedback,JusxvgTtifOINzb9zquDv4JOTKq2,html-button-response,117,823193,0.0-43.0-4.0-0.0-3.0,,,,,,,,,,,,100.0,0.0,,5c86faba6ec6b80001044908,13:37:01,06/03/2024
,"<p style=""font-size:75px;"">...</p>",,ospan,iti,JusxvgTtifOINzb9zquDv4JOTKq2,html-keyboard-response,118,824197,0.0-43.0-4.0-1.0-0.0,,,,,,,,,,,,,,,5c86faba6ec6b80001044908,13:37:01,06/03/2024
1415.0,,,ospan,symmetry,JusxvgTtifOINzb9zquDv4JOTKq2,symmetry-judgement-task,119,826947,0.0-43.0-4.0-1.0-1.0-0.0,,,,,,,,,,1.0,1.0,,,,5c86faba6ec6b80001044908,13:37:01,06/03/2024
,"<div style=""font-size: 10rem; color: #0000FF"">Q</div>",,ospan,letter,JusxvgTtifOINzb9zquDv4JOTKq2,html-keyboard-response,120,827964,0.0-43.0-4.0-1.0-1.0-1.0,,,,,,,,,,,,,,,5c86faba6ec6b80001044908,13:37:01,06/03/2024
1058.0,,,ospan,symmetry,JusxvgTtifOINzb9zquDv4JOTKq2,symmetry-judgement-task,121,831229,0.0-43.0-4.0-1.0-1.0-2.0,,,,,,,,,,1.0,1.0,,,,5c86faba6ec6b80001044908,13:37:01,06/03/2024
,"<div style=""font-size: 10rem; color: #0000FF"">P</div>",,ospan,letter,JusxvgTtifOINzb9zquDv4JOTKq2,html-keyboard-response,122,832245,0.0-43.0-4.0-1.0-1.0-3.0,,,,,,,,,,,,,,,5c86faba6ec6b80001044908,13:37:01,06/03/2024
759.0,,,ospan,symmetry,JusxvgTtifOINzb9zquDv4JOTKq2,symmetry-judgement-task,123,835149,0.0-43.0-4.0-1.0-1.0-4.0,,,,,,,,,,1.0,1.0,,,,5c86faba6ec6b80001044908,13:37:01,06/03/2024
,"<div style=""font-size: 10rem; color: #0000FF"">C</div>",,ospan,letter,JusxvgTtifOINzb9zquDv4JOTKq2,html-keyboard-response,124,836160,0.0-43.0-4.0-1.0-1.0-5.0,,,,,,,,,,,,,,,5c86faba6ec6b80001044908,13:37:01,06/03/2024
795.0,,,ospan,symmetry,JusxvgTtifOINzb9zquDv4JOTKq2,symmetry-judgement-task,125,839060,0.0-43.0-4.0-1.0-1.0-6.0,,,,,,,,,,1.0,1.0,,,,5c86faba6ec6b80001044908,13:37:01,06/03/2024
,"<div style=""font-size: 10rem; color: #0000FF"">K</div>",,ospan,letter,JusxvgTtifOINzb9zquDv4JOTKq2,html-keyboard-response,126,840074,0.0-43.0-4.0-1.0-1.0-7.0,,,,,,,,,,,,,,,5c86faba6ec6b80001044908,13:37:01,06/03/2024
1183.0,,,ospan,symmetry,JusxvgTtifOINzb9zquDv4JOTKq2,symmetry-judgement-task,127,843373,0.0-43.0-4.0-1.0-1.0-8.0,,,,,,,,,,1.0,1.0,,,,5c86faba6ec6b80001044908,13:37:01,06/03/2024
,"<div style=""font-size: 10rem; color: #0000FF"">S</div>",,ospan,letter,JusxvgTtifOINzb9zquDv4JOTKq2,html-keyboard-response,128,844389,0.0-43.0-4.0-1.0-1.0-9.0,,,,,,,,,,,,,,,5c86faba6ec6b80001044908,13:37:01,06/03/2024
5872.60000000149,"<div class = numbox><p style=""font-size: 2.4rem"">Please recall the letters you saw to the best of your ability. If you do not remember a particular letter, use the SKIP button.<br><b>(When you are ready to lock in your answer, press ENTER)</b></p><button id = button_1 class = ""square num-button"" onclick = ""recordClick(this)""><div class = content><div class = numbers>C</div></div></button><button id = button_2 class = ""square num-button"" onclick = ""recordClick(this)""><div class = content><div class = numbers>G</div></div></button><button id = button_3 class = ""square num-button"" onclick = ""recordClick(this)""><div class = content><div class = numbers>H</div></div></button><button id = button_4 class = ""square num-button"" onclick = ""recordClick(this)""><div class = content><div class = numbers>J</div></div></button><button id = button_5 class = ""square num-button"" onclick = ""recordClick(this)""><div class = content><div class = numbers>K</div></div></button><button id = button_6 class = ""square num-button"" onclick = ""recordClick(this)""><div class = content><div class = numbers>L</div></div></button><button id = button_7 class = ""square num-button"" onclick = ""recordClick(this)""><div class = content><div class = numbers>N</div></div></button><button id = button_8 class = ""square num-button"" onclick = ""recordClick(this)""><div class = content><div class = numbers>P</div></div></button><button id = button_9 class = ""square num-button"" onclick = ""recordClick(this)""><div class = content><div class = numbers>Q</div></div></button><button id = button_10 class = ""square num-button"" onclick = ""recordClick(this)""><div class = content><div class = numbers>R</div></div></button><button id = button_11 class = ""square num-button"" onclick = ""recordClick(this)""><div class = content><div class = numbers>S</div></div></button><button id = button_12 class = ""square num-button"" onclick = ""recordClick(this)""><div class = content><div class = numbers>Y</div></div></button><button class = clear_button id = ""ClearButton"" onclick = ""clearResponse()"">BACKSPACE</button><button class = blank_button id = ""BlankButton"" onclick = ""blankResponse()"">SKIP</button><p style=""font-size: 2.4rem""><u><b>Current Answer:</b></u></p><br><br><div id=echoed_txt style=""font-size: 5rem; color:blue;""><b></b></div></div>",enter,ospan,retrieval,JusxvgTtifOINzb9zquDv4JOTKq2,html-keyboard-response,129,851029,0.0-43.0-4.0-1.0-2.0,12,12,12,5.0,"[""Q"",""P"",""C"",""K"",""S""]","[""Q"",""P"",""C"",""K"",""S""]",1.0,5.0,,,,,,,5c86faba6ec6b80001044908,13:37:01,06/03/2024
960.9000000022352,[''],0,ospan,feedback,JusxvgTtifOINzb9zquDv4JOTKq2,html-button-response,130,852499,0.0-43.0-4.0-1.0-3.0,,,,,,,,,,,,100.0,0.0,,5c86faba6ec6b80001044908,13:37:01,06/03/2024
,"<p style=""font-size:75px;"">...</p>",,ospan,iti,JusxvgTtifOINzb9zquDv4JOTKq2,html-keyboard-response,131,853513,0.0-43.0-4.0-2.0-0.0,,,,,,,,,,,,,,,5c86faba6ec6b80001044908,13:37:01,06/03/2024
1115.0,,,ospan,symmetry,JusxvgTtifOINzb9zquDv4JOTKq2,symmetry-judgement-task,132,855985,0.0-43.0-4.0-2.0-1.0-0.0,,,,,,,,,,1.0,1.0,,,,5c86faba6ec6b80001044908,13:37:01,06/03/2024
,"<div style=""font-size: 10rem; color: #0000FF"">P</div>",,ospan,letter,JusxvgTtifOINzb9zquDv4JOTKq2,html-keyboard-response,133,857001,0.0-43.0-4.0-2.0-1.0-1.0,,,,,,,,,,,,,,,5c86faba6ec6b80001044908,13:37:01,06/03/2024
1445.0,,,ospan,symmetry,JusxvgTtifOINzb9zquDv4JOTKq2,symmetry-judgement-task,134,860551,0.0-43.0-4.0-2.0-1.0-2.0,,,,,,,,,,1.0,1.0,,,,5c86faba6ec6b80001044908,13:37:01,06/03/2024
,"<div style=""font-size: 10rem; color: #0000FF"">S</div>",,ospan,letter,JusxvgTtifOINzb9zquDv4JOTKq2,html-keyboard-response,135,861565,0.0-43.0-4.0-2.0-1.0-3.0,,,,,,,,,,,,,,,5c86faba6ec6b80001044908,13:37:01,06/03/2024
925.0,,,ospan,symmetry,JusxvgTtifOINzb9zquDv4JOTKq2,symmetry-judgement-task,136,864582,0.0-43.0-4.0-2.0-1.0-4.0,,,,,,,,,,1.0,1.0,,,,5c86faba6ec6b80001044908,13:37:01,06/03/2024
,"<div style=""font-size: 10rem; color: #0000FF"">L</div>",,ospan,letter,JusxvgTtifOINzb9zquDv4JOTKq2,html-keyboard-response,137,865597,0.0-43.0-4.0-2.0-1.0-5.0,,,,,,,,,,,,,,,5c86faba6ec6b80001044908,13:37:01,06/03/2024
3437.300000000745,"<div class = numbox><p style=""font-size: 2.4rem"">Please recall the letters you saw to the best of your ability. If you do not remember a particular letter, use the SKIP button.<br><b>(When you are ready to lock in your answer, press ENTER)</b></p><button id = button_1 class = ""square num-button"" onclick = ""recordClick(this)""><div class = content><div class = numbers>C</div></div></button><button id = button_2 class = ""square num-button"" onclick = ""recordClick(this)""><div class = content><div class = numbers>G</div></div></button><button id = button_3 class = ""square num-button"" onclick = ""recordClick(this)""><div class = content><div class = numbers>H</div></div></button><button id = button_4 class = ""square num-button"" onclick = ""recordClick(this)""><div class = content><div class = numbers>J</div></div></button><button id = button_5 class = ""square num-button"" onclick = ""recordClick(this)""><div class = content><div class = numbers>K</div></div></button><button id = button_6 class = ""square num-button"" onclick = ""recordClick(this)""><div class = content><div class = numbers>L</div></div></button><button id = button_7 class = ""square num-button"" onclick = ""recordClick(this)""><div class = content><div class = numbers>N</div></div></button><button id = button_8 class = ""square num-button"" onclick = ""recordClick(this)""><div class = content><div class = numbers>P</div></div></button><button id = button_9 class = ""square num-button"" onclick = ""recordClick(this)""><div class = content><div class = numbers>Q</div></div></button><button id = button_10 class = ""square num-button"" onclick = ""recordClick(this)""><div class = content><div class = numbers>R</div></div></button><button id = button_11 class = ""square num-button"" onclick = ""recordClick(this)""><div class = content><div class = numbers>S</div></div></button><button id = button_12 class = ""square num-button"" onclick = ""recordClick(this)""><div class = content><div class = numbers>Y</div></div></button><button class = clear_button id = ""ClearButton"" onclick = ""clearResponse()"">BACKSPACE</button><button class = blank_button id = ""BlankButton"" onclick = ""blankResponse()"">SKIP</button><p style=""font-size: 2.4rem""><u><b>Current Answer:</b></u></p><br><br><div id=echoed_txt style=""font-size: 5rem; color:blue;""><b></b></div></div>",enter,ospan,retrieval,JusxvgTtifOINzb9zquDv4JOTKq2,html-keyboard-response,138,869788,0.0-43.0-4.0-2.0-2.0,15,15,15,3.0,"[""P"",""S"",""L""]","[""P"",""S"",""L""]",1.0,3.0,,,,,,,5c86faba6ec6b80001044908,13:37:01,06/03/2024
870.3000000007451,[''],0,ospan,feedback,JusxvgTtifOINzb9zquDv4JOTKq2,html-button-response,139,871167,0.0-43.0-4.0-2.0-3.0,,,,,,,,,,,,100.0,0.0,,5c86faba6ec6b80001044908,13:37:01,06/03/2024
,"<p style=""font-size:75px;"">...</p>",,ospan,iti,JusxvgTtifOINzb9zquDv4JOTKq2,html-keyboard-response,140,872181,0.0-43.0-5.0-0.0-0.0,,,,,,,,,,,,,,,5c86faba6ec6b80001044908,13:37:01,06/03/2024
1516.0,,,ospan,symmetry,JusxvgTtifOINzb9zquDv4JOTKq2,symmetry-judgement-task,141,874776,0.0-43.0-5.0-0.0-1.0-0.0,,,,,,,,,,1.0,1.0,,,,5c86faba6ec6b80001044908,13:37:01,06/03/2024
,"<div style=""font-size: 10rem; color: #0000FF"">N</div>",,ospan,letter,JusxvgTtifOINzb9zquDv4JOTKq2,html-keyboard-response,142,875792,0.0-43.0-5.0-0.0-1.0-1.0,,,,,,,,,,,,,,,5c86faba6ec6b80001044908,13:37:01,06/03/2024
1182.0,,,ospan,symmetry,JusxvgTtifOINzb9zquDv4JOTKq2,symmetry-judgement-task,143,879124,0.0-43.0-5.0-0.0-1.0-2.0,,,,,,,,,,1.0,1.0,,,,5c86faba6ec6b80001044908,13:37:01,06/03/2024
,"<div style=""font-size: 10rem; color: #0000FF"">H</div>",,ospan,letter,JusxvgTtifOINzb9zquDv4JOTKq2,html-keyboard-response,144,880140,0.0-43.0-5.0-0.0-1.0-3.0,,,,,,,,,,,,,,,5c86faba6ec6b80001044908,13:37:01,06/03/2024
1093.0,,,ospan,symmetry,JusxvgTtifOINzb9zquDv4JOTKq2,symmetry-judgement-task,145,883358,0.0-43.0-5.0-0.0-1.0-4.0,,,,,,,,,,1.0,1.0,,,,5c86faba6ec6b80001044908,13:37:01,06/03/2024
,"<div style=""font-size: 10rem; color: #0000FF"">S</div>",,ospan,letter,JusxvgTtifOINzb9zquDv4JOTKq2,html-keyboard-response,146,884374,0.0-43.0-5.0-0.0-1.0-5.0,,,,,,,,,,,,,,,5c86faba6ec6b80001044908,13:37:01,06/03/2024
919.0,,,ospan,symmetry,JusxvgTtifOINzb9zquDv4JOTKq2,symmetry-judgement-task,147,887471,0.0-43.0-5.0-0.0-1.0-6.0,,,,,,,,,,1.0,1.0,,,,5c86faba6ec6b80001044908,13:37:01,06/03/2024
,"<div style=""font-size: 10rem; color: #0000FF"">J</div>",,ospan,letter,JusxvgTtifOINzb9zquDv4JOTKq2,html-keyboard-response,148,888472,0.0-43.0-5.0-0.0-1.0-7.0,,,,,,,,,,,,,,,5c86faba6ec6b80001044908,13:37:01,06/03/2024
915.0,,,ospan,symmetry,JusxvgTtifOINzb9zquDv4JOTKq2,symmetry-judgement-task,149,891521,0.0-43.0-5.0-0.0-1.0-8.0,,,,,,,,,,1.0,1.0,,,,5c86faba6ec6b80001044908,13:37:01,06/03/2024
,"<div style=""font-size: 10rem; color: #0000FF"">Q</div>",,ospan,letter,JusxvgTtifOINzb9zquDv4JOTKq2,html-keyboard-response,150,892536,0.0-43.0-5.0-0.0-1.0-9.0,,,,,,,,,,,,,,,5c86faba6ec6b80001044908,13:37:01,06/03/2024
1424.0,,,ospan,symmetry,JusxvgTtifOINzb9zquDv4JOTKq2,symmetry-judgement-task,151,896035,0.0-43.0-5.0-0.0-1.0-10.0,,,,,,,,,,1.0,1.0,,,,5c86faba6ec6b80001044908,13:37:01,06/03/2024
,"<div style=""font-size: 10rem; color: #0000FF"">R</div>",,ospan,letter,JusxvgTtifOINzb9zquDv4JOTKq2,html-keyboard-response,152,897051,0.0-43.0-5.0-0.0-1.0-11.0,,,,,,,,,,,,,,,5c86faba6ec6b80001044908,13:37:01,06/03/2024
5734.0,"<div class = numbox><p style=""font-size: 2.4rem"">Please recall the letters you saw to the best of your ability. If you do not remember a particular letter, use the SKIP button.<br><b>(When you are ready to lock in your answer, press ENTER)</b></p><button id = button_1 class = ""square num-button"" onclick = ""recordClick(this)""><div class = content><div class = numbers>C</div></div></button><button id = button_2 class = ""square num-button"" onclick = ""recordClick(this)""><div class = content><div class = numbers>G</div></div></button><button id = button_3 class = ""square num-button"" onclick = ""recordClick(this)""><div class = content><div class = numbers>H</div></div></button><button id = button_4 class = ""square num-button"" onclick = ""recordClick(this)""><div class = content><div class = numbers>J</div></div></button><button id = button_5 class = ""square num-button"" onclick = ""recordClick(this)""><div class = content><div class = numbers>K</div></div></button><button id = button_6 class = ""square num-button"" onclick = ""recordClick(this)""><div class = content><div class = numbers>L</div></div></button><button id = button_7 class = ""square num-button"" onclick = ""recordClick(this)""><div class = content><div class = numbers>N</div></div></button><button id = button_8 class = ""square num-button"" onclick = ""recordClick(this)""><div class = content><div class = numbers>P</div></div></button><button id = button_9 class = ""square num-button"" onclick = ""recordClick(this)""><div class = content><div class = numbers>Q</div></div></button><button id = button_10 class = ""square num-button"" onclick = ""recordClick(this)""><div class = content><div class = numbers>R</div></div></button><button id = button_11 class = ""square num-button"" onclick = ""recordClick(this)""><div class = content><div class = numbers>S</div></div></button><button id = button_12 class = ""square num-button"" onclick = ""recordClick(this)""><div class = content><div class = numbers>Y</div></div></button><button class = clear_button id = ""ClearButton"" onclick = ""clearResponse()"">BACKSPACE</button><button class = blank_button id = ""BlankButton"" onclick = ""blankResponse()"">SKIP</button><p style=""font-size: 2.4rem""><u><b>Current Answer:</b></u></p><br><br><div id=echoed_txt style=""font-size: 5rem; color:blue;""><b></b></div></div>",enter,ospan,retrieval,JusxvgTtifOINzb9zquDv4JOTKq2,html-keyboard-response,153,903552,0.0-43.0-5.0-0.0-2.0,21,21,21,6.0,"[""N"",""H"",""S"",""J"",""Q"",""R""]","[""N"",""H"",""S"",""J"",""Q"",""R""]",1.0,6.0,,,,,,,5c86faba6ec6b80001044908,13:37:01,06/03/2024
658.8000000007451,[''],0,ospan,feedback,JusxvgTtifOINzb9zquDv4JOTKq2,html-button-response,154,904724,0.0-43.0-5.0-0.0-3.0,,,,,,,,,,,,100.0,0.0,,5c86faba6ec6b80001044908,13:37:01,06/03/2024
,"<p style=""font-size:75px;"">...</p>",,ospan,iti,JusxvgTtifOINzb9zquDv4JOTKq2,html-keyboard-response,155,905728,0.0-43.0-5.0-1.0-0.0,,,,,,,,,,,,,,,5c86faba6ec6b80001044908,13:37:01,06/03/2024
1416.0,,,ospan,symmetry,JusxvgTtifOINzb9zquDv4JOTKq2,symmetry-judgement-task,156,908546,0.0-43.0-5.0-1.0-1.0-0.0,,,,,,,,,,1.0,1.0,,,,5c86faba6ec6b80001044908,13:37:01,06/03/2024
,"<div style=""font-size: 10rem; color: #0000FF"">P</div>",,ospan,letter,JusxvgTtifOINzb9zquDv4JOTKq2,html-keyboard-response,157,909562,0.0-43.0-5.0-1.0-1.0-1.0,,,,,,,,,,,,,,,5c86faba6ec6b80001044908,13:37:01,06/03/2024
933.0,,,ospan,symmetry,JusxvgTtifOINzb9zquDv4JOTKq2,symmetry-judgement-task,158,912627,0.0-43.0-5.0-1.0-1.0-2.0,,,,,,,,,,1.0,1.0,,,,5c86faba6ec6b80001044908,13:37:01,06/03/2024
,"<div style=""font-size: 10rem; color: #0000FF"">K</div>",,ospan,letter,JusxvgTtifOINzb9zquDv4JOTKq2,html-keyboard-response,159,913643,0.0-43.0-5.0-1.0-1.0-3.0,,,,,,,,,,,,,,,5c86faba6ec6b80001044908,13:37:01,06/03/2024
1243.0,,,ospan,symmetry,JusxvgTtifOINzb9zquDv4JOTKq2,symmetry-judgement-task,160,916993,0.0-43.0-5.0-1.0-1.0-4.0,,,,,,,,,,1.0,1.0,,,,5c86faba6ec6b80001044908,13:37:01,06/03/2024
,"<div style=""font-size: 10rem; color: #0000FF"">J</div>",,ospan,letter,JusxvgTtifOINzb9zquDv4JOTKq2,html-keyboard-response,161,918009,0.0-43.0-5.0-1.0-1.0-5.0,,,,,,,,,,,,,,,5c86faba6ec6b80001044908,13:37:01,06/03/2024
873.0,,,ospan,symmetry,JusxvgTtifOINzb9zquDv4JOTKq2,symmetry-judgement-task,162,921008,0.0-43.0-5.0-1.0-1.0-6.0,,,,,,,,,,1.0,1.0,,,,5c86faba6ec6b80001044908,13:37:01,06/03/2024
,"<div style=""font-size: 10rem; color: #0000FF"">R</div>",,ospan,letter,JusxvgTtifOINzb9zquDv4JOTKq2,html-keyboard-response,163,922024,0.0-43.0-5.0-1.0-1.0-7.0,,,,,,,,,,,,,,,5c86faba6ec6b80001044908,13:37:01,06/03/2024
1313.0,,,ospan,symmetry,JusxvgTtifOINzb9zquDv4JOTKq2,symmetry-judgement-task,164,925438,0.0-43.0-5.0-1.0-1.0-8.0,,,,,,,,,,1.0,1.0,,,,5c86faba6ec6b80001044908,13:37:01,06/03/2024
,"<div style=""font-size: 10rem; color: #0000FF"">G</div>",,ospan,letter,JusxvgTtifOINzb9zquDv4JOTKq2,html-keyboard-response,165,926452,0.0-43.0-5.0-1.0-1.0-9.0,,,,,,,,,,,,,,,5c86faba6ec6b80001044908,13:37:01,06/03/2024
965.0,,,ospan,symmetry,JusxvgTtifOINzb9zquDv4JOTKq2,symmetry-judgement-task,166,929521,0.0-43.0-5.0-1.0-1.0-10.0,,,,,,,,,,1.0,1.0,,,,5c86faba6ec6b80001044908,13:37:01,06/03/2024
,"<div style=""font-size: 10rem; color: #0000FF"">Y</div>",,ospan,letter,JusxvgTtifOINzb9zquDv4JOTKq2,html-keyboard-response,167,930536,0.0-43.0-5.0-1.0-1.0-11.0,,,,,,,,,,,,,,,5c86faba6ec6b80001044908,13:37:01,06/03/2024
964.0,,,ospan,symmetry,JusxvgTtifOINzb9zquDv4JOTKq2,symmetry-judgement-task,168,933603,0.0-43.0-5.0-1.0-1.0-12.0,,,,,,,,,,1.0,1.0,,,,5c86faba6ec6b80001044908,13:37:01,06/03/2024
,"<div style=""font-size: 10rem; color: #0000FF"">H</div>",,ospan,letter,JusxvgTtifOINzb9zquDv4JOTKq2,html-keyboard-response,169,934618,0.0-43.0-5.0-1.0-1.0-13.0,,,,,,,,,,,,,,,5c86faba6ec6b80001044908,13:37:01,06/03/2024
7013.10000000149,"<div class = numbox><p style=""font-size: 2.4rem"">Please recall the letters you saw to the best of your ability. If you do not remember a particular letter, use the SKIP button.<br><b>(When you are ready to lock in your answer, press ENTER)</b></p><button id = button_1 class = ""square num-button"" onclick = ""recordClick(this)""><div class = content><div class = numbers>C</div></div></button><button id = button_2 class = ""square num-button"" onclick = ""recordClick(this)""><div class = content><div class = numbers>G</div></div></button><button id = button_3 class = ""square num-button"" onclick = ""recordClick(this)""><div class = content><div class = numbers>H</div></div></button><button id = button_4 class = ""square num-button"" onclick = ""recordClick(this)""><div class = content><div class = numbers>J</div></div></button><button id = button_5 class = ""square num-button"" onclick = ""recordClick(this)""><div class = content><div class = numbers>K</div></div></button><button id = button_6 class = ""square num-button"" onclick = ""recordClick(this)""><div class = content><div class = numbers>L</div></div></button><button id = button_7 class = ""square num-button"" onclick = ""recordClick(this)""><div class = content><div class = numbers>N</div></div></button><button id = button_8 class = ""square num-button"" onclick = ""recordClick(this)""><div class = content><div class = numbers>P</div></div></button><button id = button_9 class = ""square num-button"" onclick = ""recordClick(this)""><div class = content><div class = numbers>Q</div></div></button><button id = button_10 class = ""square num-button"" onclick = ""recordClick(this)""><div class = content><div class = numbers>R</div></div></button><button id = button_11 class = ""square num-button"" onclick = ""recordClick(this)""><div class = content><div class = numbers>S</div></div></button><button id = button_12 class = ""square num-button"" onclick = ""recordClick(this)""><div class = content><div class = numbers>Y</div></div></button><button class = clear_button id = ""ClearButton"" onclick = ""clearResponse()"">BACKSPACE</button><button class = blank_button id = ""BlankButton"" onclick = ""blankResponse()"">SKIP</button><p style=""font-size: 2.4rem""><u><b>Current Answer:</b></u></p><br><br><div id=echoed_txt style=""font-size: 5rem; color:blue;""><b></b></div></div>",enter,ospan,retrieval,JusxvgTtifOINzb9zquDv4JOTKq2,html-keyboard-response,170,942395,0.0-43.0-5.0-1.0-2.0,28,24,21,7.0,"[""P"",""K"",""G"",""R"",""Y"",""H""]","[""P"",""K"",""J"",""R"",""G"",""Y"",""H""]",0.0,3.0,,,,,,,5c86faba6ec6b80001044908,13:37:01,06/03/2024
723.0999999977648,[''],0,ospan,feedback,JusxvgTtifOINzb9zquDv4JOTKq2,html-button-response,171,943624,0.0-43.0-5.0-1.0-3.0,,,,,,,,,,,,100.0,0.0,,5c86faba6ec6b80001044908,13:37:01,06/03/2024
,"<p style=""font-size:75px;"">...</p>",,ospan,iti,JusxvgTtifOINzb9zquDv4JOTKq2,html-keyboard-response,172,944632,0.0-43.0-6.0-0.0-0.0,,,,,,,,,,,,,,,5c86faba6ec6b80001044908,13:37:01,06/03/2024
1416.0,,,ospan,symmetry,JusxvgTtifOINzb9zquDv4JOTKq2,symmetry-judgement-task,173,947530,0.0-43.0-6.0-0.0-1.0-0.0,,,,,,,,,,1.0,1.0,,,,5c86faba6ec6b80001044908,13:37:01,06/03/2024
,"<div style=""font-size: 10rem; color: #0000FF"">N</div>",,ospan,letter,JusxvgTtifOINzb9zquDv4JOTKq2,html-keyboard-response,174,948545,0.0-43.0-6.0-0.0-1.0-1.0,,,,,,,,,,,,,,,5c86faba6ec6b80001044908,13:37:01,06/03/2024
1153.0,,,ospan,symmetry,JusxvgTtifOINzb9zquDv4JOTKq2,symmetry-judgement-task,175,951778,0.0-43.0-6.0-0.0-1.0-2.0,,,,,,,,,,1.0,1.0,,,,5c86faba6ec6b80001044908,13:37:01,06/03/2024
,"<div style=""font-size: 10rem; color: #0000FF"">P</div>",,ospan,letter,JusxvgTtifOINzb9zquDv4JOTKq2,html-keyboard-response,176,952794,0.0-43.0-6.0-0.0-1.0-3.0,,,,,,,,,,,,,,,5c86faba6ec6b80001044908,13:37:01,06/03/2024
974.0,,,ospan,symmetry,JusxvgTtifOINzb9zquDv4JOTKq2,symmetry-judgement-task,177,955876,0.0-43.0-6.0-0.0-1.0-4.0,,,,,,,,,,1.0,1.0,,,,5c86faba6ec6b80001044908,13:37:01,06/03/2024
,"<div style=""font-size: 10rem; color: #0000FF"">Q</div>",,ospan,letter,JusxvgTtifOINzb9zquDv4JOTKq2,html-keyboard-response,178,956892,0.0-43.0-6.0-0.0-1.0-5.0,,,,,,,,,,,,,,,5c86faba6ec6b80001044908,13:37:01,06/03/2024
1021.0,,,ospan,symmetry,JusxvgTtifOINzb9zquDv4JOTKq2,symmetry-judgement-task,179,960024,0.0-43.0-6.0-0.0-1.0-6.0,,,,,,,,,,1.0,1.0,,,,5c86faba6ec6b80001044908,13:37:01,06/03/2024
,"<div style=""font-size: 10rem; color: #0000FF"">G</div>",,ospan,letter,JusxvgTtifOINzb9zquDv4JOTKq2,html-keyboard-response,180,961025,0.0-43.0-6.0-0.0-1.0-7.0,,,,,,,,,,,,,,,5c86faba6ec6b80001044908,13:37:01,06/03/2024
1063.0,,,ospan,symmetry,JusxvgTtifOINzb9zquDv4JOTKq2,symmetry-judgement-task,181,964205,0.0-43.0-6.0-0.0-1.0-8.0,,,,,,,,,,1.0,1.0,,,,5c86faba6ec6b80001044908,13:37:01,06/03/2024
,"<div style=""font-size: 10rem; color: #0000FF"">L</div>",,ospan,letter,JusxvgTtifOINzb9zquDv4JOTKq2,html-keyboard-response,182,965221,0.0-43.0-6.0-0.0-1.0-9.0,,,,,,,,,,,,,,,5c86faba6ec6b80001044908,13:37:01,06/03/2024
7480.89999999851,"<div class = numbox><p style=""font-size: 2.4rem"">Please recall the letters you saw to the best of your ability. If you do not remember a particular letter, use the SKIP button.<br><b>(When you are ready to lock in your answer, press ENTER)</b></p><button id = button_1 class = ""square num-button"" onclick = ""recordClick(this)""><div class = content><div class = numbers>C</div></div></button><button id = button_2 class = ""square num-button"" onclick = ""recordClick(this)""><div class = content><div class = numbers>G</div></div></button><button id = button_3 class = ""square num-button"" onclick = ""recordClick(this)""><div class = content><div class = numbers>H</div></div></button><button id = button_4 class = ""square num-button"" onclick = ""recordClick(this)""><div class = content><div class = numbers>J</div></div></button><button id = button_5 class = ""square num-button"" onclick = ""recordClick(this)""><div class = content><div class = numbers>K</div></div></button><button id = button_6 class = ""square num-button"" onclick = ""recordClick(this)""><div class = content><div class = numbers>L</div></div></button><button id = button_7 class = ""square num-button"" onclick = ""recordClick(this)""><div class = content><div class = numbers>N</div></div></button><button id = button_8 class = ""square num-button"" onclick = ""recordClick(this)""><div class = content><div class = numbers>P</div></div></button><button id = button_9 class = ""square num-button"" onclick = ""recordClick(this)""><div class = content><div class = numbers>Q</div></div></button><button id = button_10 class = ""square num-button"" onclick = ""recordClick(this)""><div class = content><div class = numbers>R</div></div></button><button id = button_11 class = ""square num-button"" onclick = ""recordClick(this)""><div class = content><div class = numbers>S</div></div></button><button id = button_12 class = ""square num-button"" onclick = ""recordClick(this)""><div class = content><div class = numbers>Y</div></div></button><button class = clear_button id = ""ClearButton"" onclick = ""clearResponse()"">BACKSPACE</button><button class = blank_button id = ""BlankButton"" onclick = ""blankResponse()"">SKIP</button><p style=""font-size: 2.4rem""><u><b>Current Answer:</b></u></p><br><br><div id=echoed_txt style=""font-size: 5rem; color:blue;""><b></b></div></div>",enter,ospan,retrieval,JusxvgTtifOINzb9zquDv4JOTKq2,html-keyboard-response,183,973455,0.0-43.0-6.0-0.0-2.0,33,29,26,5.0,"[""N"",""P"",""Q"",""G"",""L""]","[""N"",""P"",""Q"",""G"",""L""]",1.0,5.0,,,,,,,5c86faba6ec6b80001044908,13:37:01,06/03/2024
729.3999999985099,[''],0,ospan,feedback,JusxvgTtifOINzb9zquDv4JOTKq2,html-button-response,184,974697,0.0-43.0-6.0-0.0-3.0,,,,,,,,,,,,100.0,0.0,,5c86faba6ec6b80001044908,13:37:01,06/03/2024
,"<p style=""font-size:75px;"">...</p>",,ospan,iti,JusxvgTtifOINzb9zquDv4JOTKq2,html-keyboard-response,185,975711,0.0-43.0-6.0-1.0-0.0,,,,,,,,,,,,,,,5c86faba6ec6b80001044908,13:37:01,06/03/2024
1535.0,,,ospan,symmetry,JusxvgTtifOINzb9zquDv4JOTKq2,symmetry-judgement-task,186,978583,0.0-43.0-6.0-1.0-1.0-0.0,,,,,,,,,,1.0,1.0,,,,5c86faba6ec6b80001044908,13:37:01,06/03/2024
,"<div style=""font-size: 10rem; color: #0000FF"">S</div>",,ospan,letter,JusxvgTtifOINzb9zquDv4JOTKq2,html-keyboard-response,187,979599,0.0-43.0-6.0-1.0-1.0-1.0,,,,,,,,,,,,,,,5c86faba6ec6b80001044908,13:37:01,06/03/2024
965.0,,,ospan,symmetry,JusxvgTtifOINzb9zquDv4JOTKq2,symmetry-judgement-task,188,982665,0.0-43.0-6.0-1.0-1.0-2.0,,,,,,,,,,1.0,1.0,,,,5c86faba6ec6b80001044908,13:37:01,06/03/2024
,"<div style=""font-size: 10rem; color: #0000FF"">J</div>",,ospan,letter,JusxvgTtifOINzb9zquDv4JOTKq2,html-keyboard-response,189,983680,0.0-43.0-6.0-1.0-1.0-3.0,,,,,,,,,,,,,,,5c86faba6ec6b80001044908,13:37:01,06/03/2024
1143.0,,,ospan,symmetry,JusxvgTtifOINzb9zquDv4JOTKq2,symmetry-judgement-task,190,986929,0.0-43.0-6.0-1.0-1.0-4.0,,,,,,,,,,1.0,1.0,,,,5c86faba6ec6b80001044908,13:37:01,06/03/2024
,"<div style=""font-size: 10rem; color: #0000FF"">G</div>",,ospan,letter,JusxvgTtifOINzb9zquDv4JOTKq2,html-keyboard-response,191,987945,0.0-43.0-6.0-1.0-1.0-5.0,,,,,,,,,,,,,,,5c86faba6ec6b80001044908,13:37:01,06/03/2024
1006.0,,,ospan,symmetry,JusxvgTtifOINzb9zquDv4JOTKq2,symmetry-judgement-task,192,990762,0.0-43.0-6.0-1.0-1.0-6.0,,,,,,,,,,1.0,1.0,,,,5c86faba6ec6b80001044908,13:37:01,06/03/2024
,"<div style=""font-size: 10rem; color: #0000FF"">P</div>",,ospan,letter,JusxvgTtifOINzb9zquDv4JOTKq2,html-keyboard-response,193,991771,0.0-43.0-6.0-1.0-1.0-7.0,,,,,,,,,,,,,,,5c86faba6ec6b80001044908,13:37:01,06/03/2024
1523.0,,,ospan,symmetry,JusxvgTtifOINzb9zquDv4JOTKq2,symmetry-judgement-task,194,995660,0.0-43.0-6.0-1.0-1.0-8.0,,,,,,,,,,1.0,1.0,,,,5c86faba6ec6b80001044908,13:37:01,06/03/2024
,"<div style=""font-size: 10rem; color: #0000FF"">N</div>",,ospan,letter,JusxvgTtifOINzb9zquDv4JOTKq2,html-keyboard-response,195,996674,0.0-43.0-6.0-1.0-1.0-9.0,,,,,,,,,,,,,,,5c86faba6ec6b80001044908,13:37:01,06/03/2024
1045.0,,,ospan,symmetry,JusxvgTtifOINzb9zquDv4JOTKq2,symmetry-judgement-task,196,999825,0.0-43.0-6.0-1.0-1.0-10.0,,,,,,,,,,1.0,1.0,,,,5c86faba6ec6b80001044908,13:37:01,06/03/2024
,"<div style=""font-size: 10rem; color: #0000FF"">C</div>",,ospan,letter,JusxvgTtifOINzb9zquDv4JOTKq2,html-keyboard-response,197,1000839,0.0-43.0-6.0-1.0-1.0-11.0,,,,,,,,,,,,,,,5c86faba6ec6b80001044908,13:37:01,06/03/2024
1007.0,,,ospan,symmetry,JusxvgTtifOINzb9zquDv4JOTKq2,symmetry-judgement-task,198,1003923,0.0-43.0-6.0-1.0-1.0-12.0,,,,,,,,,,1.0,1.0,,,,5c86faba6ec6b80001044908,13:37:01,06/03/2024
,"<div style=""font-size: 10rem; color: #0000FF"">Y</div>",,ospan,letter,JusxvgTtifOINzb9zquDv4JOTKq2,html-keyboard-response,199,1004925,0.0-43.0-6.0-1.0-1.0-13.0,,,,,,,,,,,,,,,5c86faba6ec6b80001044908,13:37:01,06/03/2024
1058.0,,,ospan,symmetry,JusxvgTtifOINzb9zquDv4JOTKq2,symmetry-judgement-task,200,1008087,0.0-43.0-6.0-1.0-1.0-14.0,,,,,,,,,,1.0,1.0,,,,5c86faba6ec6b80001044908,13:37:01,06/03/2024
,"<div style=""font-size: 10rem; color: #0000FF"">K</div>",,ospan,letter,JusxvgTtifOINzb9zquDv4JOTKq2,html-keyboard-response,201,1009103,0.0-43.0-6.0-1.0-1.0-15.0,,,,,,,,,,,,,,,5c86faba6ec6b80001044908,13:37:01,06/03/2024
6848.699999999255,"<div class = numbox><p style=""font-size: 2.4rem"">Please recall the letters you saw to the best of your ability. If you do not remember a particular letter, use the SKIP button.<br><b>(When you are ready to lock in your answer, press ENTER)</b></p><button id = button_1 class = ""square num-button"" onclick = ""recordClick(this)""><div class = content><div class = numbers>C</div></div></button><button id = button_2 class = ""square num-button"" onclick = ""recordClick(this)""><div class = content><div class = numbers>G</div></div></button><button id = button_3 class = ""square num-button"" onclick = ""recordClick(this)""><div class = content><div class = numbers>H</div></div></button><button id = button_4 class = ""square num-button"" onclick = ""recordClick(this)""><div class = content><div class = numbers>J</div></div></button><button id = button_5 class = ""square num-button"" onclick = ""recordClick(this)""><div class = content><div class = numbers>K</div></div></button><button id = button_6 class = ""square num-button"" onclick = ""recordClick(this)""><div class = content><div class = numbers>L</div></div></button><button id = button_7 class = ""square num-button"" onclick = ""recordClick(this)""><div class = content><div class = numbers>N</div></div></button><button id = button_8 class = ""square num-button"" onclick = ""recordClick(this)""><div class = content><div class = numbers>P</div></div></button><button id = button_9 class = ""square num-button"" onclick = ""recordClick(this)""><div class = content><div class = numbers>Q</div></div></button><button id = button_10 class = ""square num-button"" onclick = ""recordClick(this)""><div class = content><div class = numbers>R</div></div></button><button id = button_11 class = ""square num-button"" onclick = ""recordClick(this)""><div class = content><div class = numbers>S</div></div></button><button id = button_12 class = ""square num-button"" onclick = ""recordClick(this)""><div class = content><div class = numbers>Y</div></div></button><button class = clear_button id = ""ClearButton"" onclick = ""clearResponse()"">BACKSPACE</button><button class = blank_button id = ""BlankButton"" onclick = ""blankResponse()"">SKIP</button><p style=""font-size: 2.4rem""><u><b>Current Answer:</b></u></p><br><br><div id=echoed_txt style=""font-size: 5rem; color:blue;""><b></b></div></div>",enter,ospan,retrieval,JusxvgTtifOINzb9zquDv4JOTKq2,html-keyboard-response,202,1016719,0.0-43.0-6.0-1.0-2.0,41,36,26,8.0,"[""S"",""J"",""G"",""P"",""N"",""C"",""Y""]","[""S"",""J"",""G"",""P"",""N"",""C"",""Y"",""K""]",0.0,7.0,,,,,,,5c86faba6ec6b80001044908,13:37:01,06/03/2024
1633.699999999255,[''],0,ospan,feedback,JusxvgTtifOINzb9zquDv4JOTKq2,html-button-response,203,1018867,0.0-43.0-6.0-1.0-3.0,,,,,,,,,,,,100.0,0.0,,5c86faba6ec6b80001044908,13:37:01,06/03/2024
4671.099999997765,,{'Q0': 'nothing'},ospan,survey_ospan,JusxvgTtifOINzb9zquDv4JOTKq2,lmdlab-survey-text,204,1024297,0.0-43.0-7.0,,,,,,,,,,,,,,JusxvgTtifOINzb9zquDv4JOTKq2,5c86faba6ec6b80001044908,13:37:01,06/03/2024
909.3999999985099,<p><p style='font-size: 3rem'>Great work!<br><br>This completes the symmetry and memory task.</p><br><br><br>,0,ospan,finish,JusxvgTtifOINzb9zquDv4JOTKq2,html-button-response,205,1025209,0.0-43.0-8.0,41,36,26,,,,,,,,,100.0,,,5c86faba6ec6b80001044908,13:37:01,06/03/2024
