rt,stimulus,response,exp_name,exp_stage,subjectID,trial_type,trial_index,time_elapsed,internal_node_id,ospan_shown,ospan_total,ospan_abs,length,resp_actual,resp_correct,full_correct,num_correct,feedback,accuracy,correct,math_acc,math_warning,databaseID,prolificID,start_time,date
3008.5999999940395,<div class = 'left_align' style='font-size: 3.25rem; line-height: 1.3;'><p class = 'center_align'><b>Welcome to the Symmetry and Memory Task</b><br><br><br><br></p>Press 'continue' to show the instructions.<br><br><br><br></div>,0,ospan,instruct,5BREXee4RbfpRt0rIotY1Kz7z573,html-button-response,54,707165,0.0-46.0-0.0-0.0-0.0,,,,,,,,,,,,,,,608b0f7f4699c09aa348c57f,17:09:10,04/04/2024
27935.70000001788,"<div class = 'left_align' style='font-size: 3.25rem; line-height: 1.3;'><p class = 'center_align'><b>Symmetry and Memory Task</b><br><br></p>In this task, you will try to memorize letters you see on the screen<br>while you also view black and white grid pictures.<br><br>In the next few minutes, you will have some practice to get you familiar<br>with how the task works.<br><br>It may be difficult sometimes, but please do not worry about making mistakes!<br><br>We will begin by practicing the letter part of the task.<br><br><br><br></div>",0,ospan,instruct,5BREXee4RbfpRt0rIotY1Kz7z573,html-button-response,55,735368,0.0-46.0-0.0-0.0-1.0,,,,,,,,,,,,,,,608b0f7f4699c09aa348c57f,17:09:10,04/04/2024
18587.0,"<div class = 'left_align' style='font-size: 3.25rem; line-height: 1.3;'>For this practice part, letters will appear on the screen one at a time.<br><br>Try to remember each letter in the order presented.<br><br>After some letters have been shown, you will see a response screen. Your<br>goal is to report the letters you saw <b>in order</b>. If you do not remember<br>a particular letter, you will have the option to leave it blank.<br><br><br><br></div>",0,ospan,instruct,5BREXee4RbfpRt0rIotY1Kz7z573,html-button-response,56,754214,0.0-46.0-0.0-0.0-2.0,,,,,,,,,,,,,,,608b0f7f4699c09aa348c57f,17:09:10,04/04/2024
40993.5,"<div class = 'left_align' style='font-size: 3.25rem; line-height: 1.3;'>Remember, it is very important to get the letters in the same<br>order as you see them.<br><br>When you are ready, you may begin the letter practice.</div><br><br><br><br>",0,ospan,instruct,5BREXee4RbfpRt0rIotY1Kz7z573,html-button-response,57,795463,0.0-46.0-0.0-0.0-3.0,,,,,,,,,,,,,,,608b0f7f4699c09aa348c57f,17:09:10,04/04/2024
,"<p style=""font-size:75px;"">...</p>",,ospan,iti,5BREXee4RbfpRt0rIotY1Kz7z573,html-keyboard-response,58,796737,0.0-46.0-0.0-1.0-0.0,,,,,,,,,,,,,,,608b0f7f4699c09aa348c57f,17:09:10,04/04/2024
,"<div style=""font-size: 10rem; color: #0000FF"">R</div>",,ospan,letter,5BREXee4RbfpRt0rIotY1Kz7z573,html-keyboard-response,59,797740,0.0-46.0-0.0-1.0-1.0,,,,,,,,,,,,,,,608b0f7f4699c09aa348c57f,17:09:10,04/04/2024
,"<div style=""font-size: 10rem; color: #0000FF"">L</div>",,ospan,letter,5BREXee4RbfpRt0rIotY1Kz7z573,html-keyboard-response,60,799498,0.0-46.0-0.0-1.0-2.0,,,,,,,,,,,,,,,608b0f7f4699c09aa348c57f,17:09:10,04/04/2024
9661.699999988079,"<div class = numbox><p style=""font-size: 2.4rem"">Please recall the letters you saw to the best of your ability. If you do not remember a particular letter, use the SKIP button.<br><b>(When you are ready to lock in your answer, press ENTER)</b></p><button id = button_1 class = ""square num-button"" onclick = ""recordClick(this)""><div class = content><div class = numbers>C</div></div></button><button id = button_2 class = ""square num-button"" onclick = ""recordClick(this)""><div class = content><div class = numbers>G</div></div></button><button id = button_3 class = ""square num-button"" onclick = ""recordClick(this)""><div class = content><div class = numbers>H</div></div></button><button id = button_4 class = ""square num-button"" onclick = ""recordClick(this)""><div class = content><div class = numbers>J</div></div></button><button id = button_5 class = ""square num-button"" onclick = ""recordClick(this)""><div class = content><div class = numbers>K</div></div></button><button id = button_6 class = ""square num-button"" onclick = ""recordClick(this)""><div class = content><div class = numbers>L</div></div></button><button id = button_7 class = ""square num-button"" onclick = ""recordClick(this)""><div class = content><div class = numbers>N</div></div></button><button id = button_8 class = ""square num-button"" onclick = ""recordClick(this)""><div class = content><div class = numbers>P</div></div></button><button id = button_9 class = ""square num-button"" onclick = ""recordClick(this)""><div class = content><div class = numbers>Q</div></div></button><button id = button_10 class = ""square num-button"" onclick = ""recordClick(this)""><div class = content><div class = numbers>R</div></div></button><button id = button_11 class = ""square num-button"" onclick = ""recordClick(this)""><div class = content><div class = numbers>S</div></div></button><button id = button_12 class = ""square num-button"" onclick = ""recordClick(this)""><div class = content><div class = numbers>Y</div></div></button><button class = clear_button id = ""ClearButton"" onclick = ""clearResponse()"">BACKSPACE</button><button class = blank_button id = ""BlankButton"" onclick = ""blankResponse()"">SKIP</button><p style=""font-size: 2.4rem""><u><b>Current Answer:</b></u></p><br><br><div id=echoed_txt style=""font-size: 5rem; color:blue;""><b></b></div></div>",enter,ospan,retrieval,5BREXee4RbfpRt0rIotY1Kz7z573,html-keyboard-response,61,809913,0.0-46.0-0.0-1.0-3.0,NA,NA,NA,2.0,"[""R"",""L""]","[""R"",""L""]",1.0,2.0,"['<font color=""green"">R</font>', '<font color=""green"">L</font>']",,,,,,608b0f7f4699c09aa348c57f,17:09:10,04/04/2024
2263.699999988079,"['<p style=""font-size:44px"">Letters:<br><br><br><font color=""green"">R</font> <font color=""green"">L</font></p><br><br>']",0,ospan,practice_feedback,5BREXee4RbfpRt0rIotY1Kz7z573,html-button-response,62,812688,0.0-46.0-0.0-1.0-4.0,,,,,,,,,,,,,,,608b0f7f4699c09aa348c57f,17:09:10,04/04/2024
,"<p style=""font-size:75px;"">...</p>",,ospan,iti,5BREXee4RbfpRt0rIotY1Kz7z573,html-keyboard-response,63,813700,0.0-46.0-0.0-2.0-0.0,,,,,,,,,,,,,,,608b0f7f4699c09aa348c57f,17:09:10,04/04/2024
,"<div style=""font-size: 10rem; color: #0000FF"">S</div>",,ospan,letter,5BREXee4RbfpRt0rIotY1Kz7z573,html-keyboard-response,64,814711,0.0-46.0-0.0-2.0-1.0,,,,,,,,,,,,,,,608b0f7f4699c09aa348c57f,17:09:10,04/04/2024
,"<div style=""font-size: 10rem; color: #0000FF"">Q</div>",,ospan,letter,5BREXee4RbfpRt0rIotY1Kz7z573,html-keyboard-response,65,816483,0.0-46.0-0.0-2.0-2.0,,,,,,,,,,,,,,,608b0f7f4699c09aa348c57f,17:09:10,04/04/2024
,"<div style=""font-size: 10rem; color: #0000FF"">H</div>",,ospan,letter,5BREXee4RbfpRt0rIotY1Kz7z573,html-keyboard-response,66,818246,0.0-46.0-0.0-2.0-3.0,,,,,,,,,,,,,,,608b0f7f4699c09aa348c57f,17:09:10,04/04/2024
8289.299999982119,"<div class = numbox><p style=""font-size: 2.4rem"">Please recall the letters you saw to the best of your ability. If you do not remember a particular letter, use the SKIP button.<br><b>(When you are ready to lock in your answer, press ENTER)</b></p><button id = button_1 class = ""square num-button"" onclick = ""recordClick(this)""><div class = content><div class = numbers>C</div></div></button><button id = button_2 class = ""square num-button"" onclick = ""recordClick(this)""><div class = content><div class = numbers>G</div></div></button><button id = button_3 class = ""square num-button"" onclick = ""recordClick(this)""><div class = content><div class = numbers>H</div></div></button><button id = button_4 class = ""square num-button"" onclick = ""recordClick(this)""><div class = content><div class = numbers>J</div></div></button><button id = button_5 class = ""square num-button"" onclick = ""recordClick(this)""><div class = content><div class = numbers>K</div></div></button><button id = button_6 class = ""square num-button"" onclick = ""recordClick(this)""><div class = content><div class = numbers>L</div></div></button><button id = button_7 class = ""square num-button"" onclick = ""recordClick(this)""><div class = content><div class = numbers>N</div></div></button><button id = button_8 class = ""square num-button"" onclick = ""recordClick(this)""><div class = content><div class = numbers>P</div></div></button><button id = button_9 class = ""square num-button"" onclick = ""recordClick(this)""><div class = content><div class = numbers>Q</div></div></button><button id = button_10 class = ""square num-button"" onclick = ""recordClick(this)""><div class = content><div class = numbers>R</div></div></button><button id = button_11 class = ""square num-button"" onclick = ""recordClick(this)""><div class = content><div class = numbers>S</div></div></button><button id = button_12 class = ""square num-button"" onclick = ""recordClick(this)""><div class = content><div class = numbers>Y</div></div></button><button class = clear_button id = ""ClearButton"" onclick = ""clearResponse()"">BACKSPACE</button><button class = blank_button id = ""BlankButton"" onclick = ""blankResponse()"">SKIP</button><p style=""font-size: 2.4rem""><u><b>Current Answer:</b></u></p><br><br><div id=echoed_txt style=""font-size: 5rem; color:blue;""><b></b></div></div>",enter,ospan,retrieval,5BREXee4RbfpRt0rIotY1Kz7z573,html-keyboard-response,67,827298,0.0-46.0-0.0-2.0-4.0,NA,NA,NA,3.0,"[""S"",""Q"",""H""]","[""S"",""Q"",""H""]",1.0,3.0,"['<font color=""green"">S</font>', '<font color=""green"">Q</font>', '<font color=""green"">H</font>']",,,,,,608b0f7f4699c09aa348c57f,17:09:10,04/04/2024
2718.0,"['<p style=""font-size:44px"">Letters:<br><br><br><font color=""green"">S</font> <font color=""green"">Q</font> <font color=""green"">H</font></p><br><br>']",0,ospan,practice_feedback,5BREXee4RbfpRt0rIotY1Kz7z573,html-button-response,68,830526,0.0-46.0-0.0-2.0-5.0,,,,,,,,,,,,,,,608b0f7f4699c09aa348c57f,17:09:10,04/04/2024
21917.90000000596,"<div class = 'left_align' style='font-size: 3.25rem; line-height: 1.3;'>Now you will practice doing the <b>symmetry judgment part</b> of the experiment.<br><br>A black and white grid picture will appear on the screen and you have to judge if it is <br>symmetrical or asymetrical.<br><br>A picture is 'mirror' symmetrical if its left half is identical to the right half when flipped.<br>Here are examples of a symmetrical and an asymetrical picture:<br><br><center><img src='Stimuli/img/symm_instructions_extra.png' style='height:420px; width:900'></img></center><br>To judge symmetry, imagine you were to fold each picture down the middle, like a book –<br>would the left half match the right half when folded onto each other?<br><br></div><br>",0,ospan,instruct,5BREXee4RbfpRt0rIotY1Kz7z573,html-button-response,69,852446,0.0-46.0-1.0-0.0-0.0,,,,,,,,,,,,,,,608b0f7f4699c09aa348c57f,17:09:10,04/04/2024
10399.799999982119,"<div class = 'left_align' style='font-size: 3.25rem; line-height: 1.3;'>When you have viewed the picture and determined whether it is symmetrical or not,<br>you can <b>click the Yes or No button</b> below to answer.<br><br>If you take longer than 15 seconds, it will continue automatically<br>and record the answer as an error.</div><br>",0,ospan,instruct,5BREXee4RbfpRt0rIotY1Kz7z573,html-button-response,70,863113,0.0-46.0-1.0-0.0-1.0,,,,,,,,,,,,,,,608b0f7f4699c09aa348c57f,17:09:10,04/04/2024
9080.90000000596,"<div class = 'left_align' style='font-size: 3.25rem; line-height: 1.3;'>It is <b>very</b> important that you make the symmetry judgment correctly.<br><br>It is also important that you try and judge the picture as quickly as you can.<br><br>When you are ready, click on the button below to try some practice problems.</div><br><br><br><br>",0,ospan,instruct,5BREXee4RbfpRt0rIotY1Kz7z573,html-button-response,71,872460,0.0-46.0-1.0-0.0-2.0,,,,,,,,,,,,,,,608b0f7f4699c09aa348c57f,17:09:10,04/04/2024
2139.0,,,ospan,symmetry,5BREXee4RbfpRt0rIotY1Kz7z573,symmetry-judgement-task,72,875404,0.0-46.0-1.0-1.0-0.0,,,,,,,,,,1.0,1.0,,,,608b0f7f4699c09aa348c57f,17:09:10,04/04/2024
,"<p style=""color:green; font-size: 35px"">Correct</p>",,ospan,feedback,5BREXee4RbfpRt0rIotY1Kz7z573,html-keyboard-response,73,876160,0.0-46.0-1.0-1.0-1.0,,,,,,,,,,,,,,,608b0f7f4699c09aa348c57f,17:09:10,04/04/2024
1676.0,,,ospan,symmetry,5BREXee4RbfpRt0rIotY1Kz7z573,symmetry-judgement-task,74,880639,0.0-46.0-1.0-1.0-2.0,,,,,,,,,,1.0,1.0,,,,608b0f7f4699c09aa348c57f,17:09:10,04/04/2024
,"<p style=""color:green; font-size: 35px"">Correct</p>",,ospan,feedback,5BREXee4RbfpRt0rIotY1Kz7z573,html-keyboard-response,75,881396,0.0-46.0-1.0-1.0-3.0,,,,,,,,,,,,,,,608b0f7f4699c09aa348c57f,17:09:10,04/04/2024
1505.0,,,ospan,symmetry,5BREXee4RbfpRt0rIotY1Kz7z573,symmetry-judgement-task,76,885792,0.0-46.0-1.0-1.0-4.0,,,,,,,,,,1.0,1.0,,,,608b0f7f4699c09aa348c57f,17:09:10,04/04/2024
,"<p style=""color:green; font-size: 35px"">Correct</p>",,ospan,feedback,5BREXee4RbfpRt0rIotY1Kz7z573,html-keyboard-response,77,886558,0.0-46.0-1.0-1.0-5.0,,,,,,,,,,,,,,,608b0f7f4699c09aa348c57f,17:09:10,04/04/2024
1960.5,"<p style=""font-size: 3rem;"">You responded correctly on 3 of 3 symmetry judgments. Good job!</p><br><br>",0,ospan,practice,5BREXee4RbfpRt0rIotY1Kz7z573,html-button-response,78,890526,0.0-46.0-1.0-2.0,,,,,,,,,,,,,,,608b0f7f4699c09aa348c57f,17:09:10,04/04/2024
14021.699999988079,"<div class = 'left_align' style='font-size: 3.25rem; line-height: 1.3;'>Now you will practice doing both parts of the experiment at the same time.<br><br>In the next practice set, you will be given one grid picture to judge.<br>Then letter will appear on the screen. Try to remember the letter.<br><br>It is <b>very important</b> to make the symmetry judgment as quickly and accurately as possible.<br><br>Just as before, once you have make the symmetry judgment, you can click Yes or No.<br><b>Note that you will no longer see Correct or Incorrect feedback.</div><br><br><br><br>",0,ospan,instruct,5BREXee4RbfpRt0rIotY1Kz7z573,html-button-response,79,904801,0.0-46.0-2.0-0.0-0.0,,,,,,,,,,,,,,,608b0f7f4699c09aa348c57f,17:09:10,04/04/2024
11888.09999999404,"<div class = 'left_align' style='font-size: 3.25rem; line-height: 1.3;'>After the letter goes away, another grid picture will appear, and then<br>another letter.<br><br>At the end of each set of letters and grids, you will recall the letters to the best<br>of your ability. Remember, try your best to get the letters in the correct order.<br><br>It is important to <b>quickly</b> and <b>accurately</b> make the symmetry judgments.</div><br><br><br><br>",0,ospan,instruct,5BREXee4RbfpRt0rIotY1Kz7z573,html-button-response,80,916955,0.0-46.0-2.0-0.0-1.0,,,,,,,,,,,,,,,608b0f7f4699c09aa348c57f,17:09:10,04/04/2024
17283.5,"<div class = 'left_align' style='font-size: 3.25rem; line-height: 1.3;'>On the feedback screen, if you are not doing well at the symmetry judgments,<br>you will also see a warning in the middle. This indicates your percent <br>correct for the grid pictures for the entire experiment.<br><br>It is <b>very</b> important for you to keep accuracy at least at 85%: <u>We can only use<br>data where the participant was at least 85% accurate on the judgments.</u> Therefore,<br> please try your best to perform well on the symmetry judgments, <b>at the same time</b><br>doing your best to recall as many letters as possible.<br><br>Click the button to try some practice problems.</div><br><br><br><br>",0,ospan,instruct,5BREXee4RbfpRt0rIotY1Kz7z573,html-button-response,81,934505,0.0-46.0-2.0-0.0-2.0,,,,,,,,,,,,,,,608b0f7f4699c09aa348c57f,17:09:10,04/04/2024
,"<p style=""font-size:75px;"">...</p>",,ospan,iti,5BREXee4RbfpRt0rIotY1Kz7z573,html-keyboard-response,82,935785,0.0-46.0-2.0-1.0-0.0,,,,,,,,,,,,,,,608b0f7f4699c09aa348c57f,17:09:10,04/04/2024
1387.0,,,ospan,symmetry,5BREXee4RbfpRt0rIotY1Kz7z573,symmetry-judgement-task,83,938471,0.0-46.0-2.0-1.0-1.0-0.0,,,,,,,,,,1.0,1.0,,,,608b0f7f4699c09aa348c57f,17:09:10,04/04/2024
,"<div style=""font-size: 10rem; color: #0000FF"">N</div>",,ospan,letter,5BREXee4RbfpRt0rIotY1Kz7z573,html-keyboard-response,84,939475,0.0-46.0-2.0-1.0-1.0-1.0,,,,,,,,,,,,,,,608b0f7f4699c09aa348c57f,17:09:10,04/04/2024
1348.0,,,ospan,symmetry,5BREXee4RbfpRt0rIotY1Kz7z573,symmetry-judgement-task,85,942861,0.0-46.0-2.0-1.0-1.0-2.0,,,,,,,,,,1.0,1.0,,,,608b0f7f4699c09aa348c57f,17:09:10,04/04/2024
,"<div style=""font-size: 10rem; color: #0000FF"">P</div>",,ospan,letter,5BREXee4RbfpRt0rIotY1Kz7z573,html-keyboard-response,86,943866,0.0-46.0-2.0-1.0-1.0-3.0,,,,,,,,,,,,,,,608b0f7f4699c09aa348c57f,17:09:10,04/04/2024
1302.0,,,ospan,symmetry,5BREXee4RbfpRt0rIotY1Kz7z573,symmetry-judgement-task,87,947176,0.0-46.0-2.0-1.0-1.0-4.0,,,,,,,,,,1.0,1.0,,,,608b0f7f4699c09aa348c57f,17:09:10,04/04/2024
,"<div style=""font-size: 10rem; color: #0000FF"">L</div>",,ospan,letter,5BREXee4RbfpRt0rIotY1Kz7z573,html-keyboard-response,88,948180,0.0-46.0-2.0-1.0-1.0-5.0,,,,,,,,,,,,,,,608b0f7f4699c09aa348c57f,17:09:10,04/04/2024
4874.300000011921,"<div class = numbox><p style=""font-size: 2.4rem"">Please recall the letters you saw to the best of your ability. If you do not remember a particular letter, use the SKIP button.<br><b>(When you are ready to lock in your answer, press ENTER)</b></p><button id = button_1 class = ""square num-button"" onclick = ""recordClick(this)""><div class = content><div class = numbers>C</div></div></button><button id = button_2 class = ""square num-button"" onclick = ""recordClick(this)""><div class = content><div class = numbers>G</div></div></button><button id = button_3 class = ""square num-button"" onclick = ""recordClick(this)""><div class = content><div class = numbers>H</div></div></button><button id = button_4 class = ""square num-button"" onclick = ""recordClick(this)""><div class = content><div class = numbers>J</div></div></button><button id = button_5 class = ""square num-button"" onclick = ""recordClick(this)""><div class = content><div class = numbers>K</div></div></button><button id = button_6 class = ""square num-button"" onclick = ""recordClick(this)""><div class = content><div class = numbers>L</div></div></button><button id = button_7 class = ""square num-button"" onclick = ""recordClick(this)""><div class = content><div class = numbers>N</div></div></button><button id = button_8 class = ""square num-button"" onclick = ""recordClick(this)""><div class = content><div class = numbers>P</div></div></button><button id = button_9 class = ""square num-button"" onclick = ""recordClick(this)""><div class = content><div class = numbers>Q</div></div></button><button id = button_10 class = ""square num-button"" onclick = ""recordClick(this)""><div class = content><div class = numbers>R</div></div></button><button id = button_11 class = ""square num-button"" onclick = ""recordClick(this)""><div class = content><div class = numbers>S</div></div></button><button id = button_12 class = ""square num-button"" onclick = ""recordClick(this)""><div class = content><div class = numbers>Y</div></div></button><button class = clear_button id = ""ClearButton"" onclick = ""clearResponse()"">BACKSPACE</button><button class = blank_button id = ""BlankButton"" onclick = ""blankResponse()"">SKIP</button><p style=""font-size: 2.4rem""><u><b>Current Answer:</b></u></p><br><br><div id=echoed_txt style=""font-size: 5rem; color:blue;""><b></b></div></div>",enter,ospan,retrieval,5BREXee4RbfpRt0rIotY1Kz7z573,html-keyboard-response,89,953807,0.0-46.0-2.0-1.0-2.0-0.0,NA,NA,NA,3.0,"[""N"",""P"",""L""]","[""N"",""P"",""L""]",1.0,3.0,"['<font color=""green"">N</font>', '<font color=""green"">P</font>', '<font color=""green"">L</font>']",,,,,,608b0f7f4699c09aa348c57f,17:09:10,04/04/2024
1959.5999999940395,"['<p style=""font-size:44px"">Letters:<br><br><br><font color=""green"">N</font> <font color=""green"">P</font> <font color=""green"">L</font></p><br><br><p style=""font-size:30px"">Symmetry:<br><br><font color=""green"">100%</font></p><br><br>']",0,ospan,practice_feedback,5BREXee4RbfpRt0rIotY1Kz7z573,html-button-response,90,956274,0.0-46.0-2.0-1.0-2.0-1.0,,,,,,,,,,,,,,,608b0f7f4699c09aa348c57f,17:09:10,04/04/2024
,"<p style=""font-size:75px;"">...</p>",,ospan,iti,5BREXee4RbfpRt0rIotY1Kz7z573,html-keyboard-response,91,957277,0.0-46.0-2.0-2.0-0.0,,,,,,,,,,,,,,,608b0f7f4699c09aa348c57f,17:09:10,04/04/2024
1412.0,,,ospan,symmetry,5BREXee4RbfpRt0rIotY1Kz7z573,symmetry-judgement-task,92,959962,0.0-46.0-2.0-2.0-1.0-0.0,,,,,,,,,,1.0,1.0,,,,608b0f7f4699c09aa348c57f,17:09:10,04/04/2024
,"<div style=""font-size: 10rem; color: #0000FF"">Y</div>",,ospan,letter,5BREXee4RbfpRt0rIotY1Kz7z573,html-keyboard-response,93,960978,0.0-46.0-2.0-2.0-1.0-1.0,,,,,,,,,,,,,,,608b0f7f4699c09aa348c57f,17:09:10,04/04/2024
1132.0,,,ospan,symmetry,5BREXee4RbfpRt0rIotY1Kz7z573,symmetry-judgement-task,94,964127,0.0-46.0-2.0-2.0-1.0-2.0,,,,,,,,,,1.0,1.0,,,,608b0f7f4699c09aa348c57f,17:09:10,04/04/2024
,"<div style=""font-size: 10rem; color: #0000FF"">Q</div>",,ospan,letter,5BREXee4RbfpRt0rIotY1Kz7z573,html-keyboard-response,95,965135,0.0-46.0-2.0-2.0-1.0-3.0,,,,,,,,,,,,,,,608b0f7f4699c09aa348c57f,17:09:10,04/04/2024
1184.0,,,ospan,symmetry,5BREXee4RbfpRt0rIotY1Kz7z573,symmetry-judgement-task,96,968333,0.0-46.0-2.0-2.0-1.0-4.0,,,,,,,,,,1.0,1.0,,,,608b0f7f4699c09aa348c57f,17:09:10,04/04/2024
,"<div style=""font-size: 10rem; color: #0000FF"">H</div>",,ospan,letter,5BREXee4RbfpRt0rIotY1Kz7z573,html-keyboard-response,97,969338,0.0-46.0-2.0-2.0-1.0-5.0,,,,,,,,,,,,,,,608b0f7f4699c09aa348c57f,17:09:10,04/04/2024
7674.800000011921,"<div class = numbox><p style=""font-size: 2.4rem"">Please recall the letters you saw to the best of your ability. If you do not remember a particular letter, use the SKIP button.<br><b>(When you are ready to lock in your answer, press ENTER)</b></p><button id = button_1 class = ""square num-button"" onclick = ""recordClick(this)""><div class = content><div class = numbers>C</div></div></button><button id = button_2 class = ""square num-button"" onclick = ""recordClick(this)""><div class = content><div class = numbers>G</div></div></button><button id = button_3 class = ""square num-button"" onclick = ""recordClick(this)""><div class = content><div class = numbers>H</div></div></button><button id = button_4 class = ""square num-button"" onclick = ""recordClick(this)""><div class = content><div class = numbers>J</div></div></button><button id = button_5 class = ""square num-button"" onclick = ""recordClick(this)""><div class = content><div class = numbers>K</div></div></button><button id = button_6 class = ""square num-button"" onclick = ""recordClick(this)""><div class = content><div class = numbers>L</div></div></button><button id = button_7 class = ""square num-button"" onclick = ""recordClick(this)""><div class = content><div class = numbers>N</div></div></button><button id = button_8 class = ""square num-button"" onclick = ""recordClick(this)""><div class = content><div class = numbers>P</div></div></button><button id = button_9 class = ""square num-button"" onclick = ""recordClick(this)""><div class = content><div class = numbers>Q</div></div></button><button id = button_10 class = ""square num-button"" onclick = ""recordClick(this)""><div class = content><div class = numbers>R</div></div></button><button id = button_11 class = ""square num-button"" onclick = ""recordClick(this)""><div class = content><div class = numbers>S</div></div></button><button id = button_12 class = ""square num-button"" onclick = ""recordClick(this)""><div class = content><div class = numbers>Y</div></div></button><button class = clear_button id = ""ClearButton"" onclick = ""clearResponse()"">BACKSPACE</button><button class = blank_button id = ""BlankButton"" onclick = ""blankResponse()"">SKIP</button><p style=""font-size: 2.4rem""><u><b>Current Answer:</b></u></p><br><br><div id=echoed_txt style=""font-size: 5rem; color:blue;""><b></b></div></div>",enter,ospan,retrieval,5BREXee4RbfpRt0rIotY1Kz7z573,html-keyboard-response,98,977767,0.0-46.0-2.0-2.0-2.0-0.0,NA,NA,NA,3.0,"[""Y"",""Q"",""H""]","[""Y"",""Q"",""H""]",1.0,3.0,"['<font color=""green"">Y</font>', '<font color=""green"">Q</font>', '<font color=""green"">H</font>']",,,,,,608b0f7f4699c09aa348c57f,17:09:10,04/04/2024
1977.800000011921,"['<p style=""font-size:44px"">Letters:<br><br><br><font color=""green"">Y</font> <font color=""green"">Q</font> <font color=""green"">H</font></p><br><br><p style=""font-size:30px"">Symmetry:<br><br><font color=""green"">100%</font></p><br><br>']",0,ospan,practice_feedback,5BREXee4RbfpRt0rIotY1Kz7z573,html-button-response,99,980257,0.0-46.0-2.0-2.0-2.0-1.0,,,,,,,,,,,,,,,608b0f7f4699c09aa348c57f,17:09:10,04/04/2024
33796.19999998808,"<div class = 'left_align' style='font-size: 3rem; line-height: 1.3;'><b>Great work! That is the end of practice.</b><br><br>The real trials will look just like the practice trials you just completed.<br><br><u>Here, you will not see feedback</u>. First, you will see an grid picture to judge,<br>then a letter to remember. When the recall screen appears, report the letters in the<br>order presented. If you forget a letter, remember to use the <b>blank</b> button to move to the<br>next letter. Some of the sets will have more symmetry grids and letters than others.<br><br>It is important that you do your best on both the symmetry judgments and the letter recall<br>parts of the experiment. For for the symmetry judgments, try to work as <b>quickly</b> and <br>as <b>accurately</b> as possible. Remember to keep your symmetry accuracy at 85% or above.<br><br><b>For the letters, do NOT use any external aid (e.g., writing on paper, electronic device).</b><br><br>It is <u>very important</u> to our experiment to have a <b>true</b> view of your real performance.<br><br>Do not worry if you miss some when it gets hard! This task is meant to be very challenging!<br><br>Click the button to begin.</div><br><br><br><br>",0,ospan,starting_real_here,5BREXee4RbfpRt0rIotY1Kz7z573,html-button-response,100,1014042,0.0-46.0-2.0-3.0,,,,,,,,,,,,,,,608b0f7f4699c09aa348c57f,17:09:10,04/04/2024
,"<p style=""font-size:75px;"">...</p>",,ospan,iti,5BREXee4RbfpRt0rIotY1Kz7z573,html-keyboard-response,101,1015318,0.0-46.0-3.0-0.0-0.0,,,,,,,,,,,,,,,608b0f7f4699c09aa348c57f,17:09:10,04/04/2024
1325.0,,,ospan,symmetry,5BREXee4RbfpRt0rIotY1Kz7z573,symmetry-judgement-task,102,1017932,0.0-46.0-3.0-0.0-1.0-0.0,,,,,,,,,,1.0,1.0,,,,608b0f7f4699c09aa348c57f,17:09:10,04/04/2024
,"<div style=""font-size: 10rem; color: #0000FF"">S</div>",,ospan,letter,5BREXee4RbfpRt0rIotY1Kz7z573,html-keyboard-response,103,1018946,0.0-46.0-3.0-0.0-1.0-1.0,,,,,,,,,,,,,,,608b0f7f4699c09aa348c57f,17:09:10,04/04/2024
1386.0,,,ospan,symmetry,5BREXee4RbfpRt0rIotY1Kz7z573,symmetry-judgement-task,104,1022336,0.0-46.0-3.0-0.0-1.0-2.0,,,,,,,,,,1.0,1.0,,,,608b0f7f4699c09aa348c57f,17:09:10,04/04/2024
,"<div style=""font-size: 10rem; color: #0000FF"">R</div>",,ospan,letter,5BREXee4RbfpRt0rIotY1Kz7z573,html-keyboard-response,105,1023342,0.0-46.0-3.0-0.0-1.0-3.0,,,,,,,,,,,,,,,608b0f7f4699c09aa348c57f,17:09:10,04/04/2024
1260.0,,,ospan,symmetry,5BREXee4RbfpRt0rIotY1Kz7z573,symmetry-judgement-task,106,1026629,0.0-46.0-3.0-0.0-1.0-4.0,,,,,,,,,,1.0,1.0,,,,608b0f7f4699c09aa348c57f,17:09:10,04/04/2024
,"<div style=""font-size: 10rem; color: #0000FF"">J</div>",,ospan,letter,5BREXee4RbfpRt0rIotY1Kz7z573,html-keyboard-response,107,1027631,0.0-46.0-3.0-0.0-1.0-5.0,,,,,,,,,,,,,,,608b0f7f4699c09aa348c57f,17:09:10,04/04/2024
5874.199999988079,"<div class = numbox><p style=""font-size: 2.4rem"">Please recall the letters you saw to the best of your ability. If you do not remember a particular letter, use the SKIP button.<br><b>(When you are ready to lock in your answer, press ENTER)</b></p><button id = button_1 class = ""square num-button"" onclick = ""recordClick(this)""><div class = content><div class = numbers>C</div></div></button><button id = button_2 class = ""square num-button"" onclick = ""recordClick(this)""><div class = content><div class = numbers>G</div></div></button><button id = button_3 class = ""square num-button"" onclick = ""recordClick(this)""><div class = content><div class = numbers>H</div></div></button><button id = button_4 class = ""square num-button"" onclick = ""recordClick(this)""><div class = content><div class = numbers>J</div></div></button><button id = button_5 class = ""square num-button"" onclick = ""recordClick(this)""><div class = content><div class = numbers>K</div></div></button><button id = button_6 class = ""square num-button"" onclick = ""recordClick(this)""><div class = content><div class = numbers>L</div></div></button><button id = button_7 class = ""square num-button"" onclick = ""recordClick(this)""><div class = content><div class = numbers>N</div></div></button><button id = button_8 class = ""square num-button"" onclick = ""recordClick(this)""><div class = content><div class = numbers>P</div></div></button><button id = button_9 class = ""square num-button"" onclick = ""recordClick(this)""><div class = content><div class = numbers>Q</div></div></button><button id = button_10 class = ""square num-button"" onclick = ""recordClick(this)""><div class = content><div class = numbers>R</div></div></button><button id = button_11 class = ""square num-button"" onclick = ""recordClick(this)""><div class = content><div class = numbers>S</div></div></button><button id = button_12 class = ""square num-button"" onclick = ""recordClick(this)""><div class = content><div class = numbers>Y</div></div></button><button class = clear_button id = ""ClearButton"" onclick = ""clearResponse()"">BACKSPACE</button><button class = blank_button id = ""BlankButton"" onclick = ""blankResponse()"">SKIP</button><p style=""font-size: 2.4rem""><u><b>Current Answer:</b></u></p><br><br><div id=echoed_txt style=""font-size: 5rem; color:blue;""><b></b></div></div>",enter,ospan,retrieval,5BREXee4RbfpRt0rIotY1Kz7z573,html-keyboard-response,108,1034265,0.0-46.0-3.0-0.0-2.0,3,3,3,3.0,"[""S"",""R"",""J""]","[""S"",""R"",""J""]",1.0,3.0,,,,,,,608b0f7f4699c09aa348c57f,17:09:10,04/04/2024
1607.699999988079,[''],0,ospan,feedback,5BREXee4RbfpRt0rIotY1Kz7z573,html-button-response,109,1036375,0.0-46.0-3.0-0.0-3.0,,,,,,,,,,,,100.0,0.0,,608b0f7f4699c09aa348c57f,17:09:10,04/04/2024
,"<p style=""font-size:75px;"">...</p>",,ospan,iti,5BREXee4RbfpRt0rIotY1Kz7z573,html-keyboard-response,110,1037383,0.0-46.0-4.0-0.0-0.0,,,,,,,,,,,,,,,608b0f7f4699c09aa348c57f,17:09:10,04/04/2024
1338.0,,,ospan,symmetry,5BREXee4RbfpRt0rIotY1Kz7z573,symmetry-judgement-task,111,1039980,0.0-46.0-4.0-0.0-1.0-0.0,,,,,,,,,,1.0,1.0,,,,608b0f7f4699c09aa348c57f,17:09:10,04/04/2024
,"<div style=""font-size: 10rem; color: #0000FF"">Y</div>",,ospan,letter,5BREXee4RbfpRt0rIotY1Kz7z573,html-keyboard-response,112,1040994,0.0-46.0-4.0-0.0-1.0-1.0,,,,,,,,,,,,,,,608b0f7f4699c09aa348c57f,17:09:10,04/04/2024
1474.0,,,ospan,symmetry,5BREXee4RbfpRt0rIotY1Kz7z573,symmetry-judgement-task,113,1044523,0.0-46.0-4.0-0.0-1.0-2.0,,,,,,,,,,1.0,1.0,,,,608b0f7f4699c09aa348c57f,17:09:10,04/04/2024
,"<div style=""font-size: 10rem; color: #0000FF"">L</div>",,ospan,letter,5BREXee4RbfpRt0rIotY1Kz7z573,html-keyboard-response,114,1045533,0.0-46.0-4.0-0.0-1.0-3.0,,,,,,,,,,,,,,,608b0f7f4699c09aa348c57f,17:09:10,04/04/2024
1547.0,,,ospan,symmetry,5BREXee4RbfpRt0rIotY1Kz7z573,symmetry-judgement-task,115,1049054,0.0-46.0-4.0-0.0-1.0-4.0,,,,,,,,,,1.0,1.0,,,,608b0f7f4699c09aa348c57f,17:09:10,04/04/2024
,"<div style=""font-size: 10rem; color: #0000FF"">G</div>",,ospan,letter,5BREXee4RbfpRt0rIotY1Kz7z573,html-keyboard-response,116,1050067,0.0-46.0-4.0-0.0-1.0-5.0,,,,,,,,,,,,,,,608b0f7f4699c09aa348c57f,17:09:10,04/04/2024
1416.0,,,ospan,symmetry,5BREXee4RbfpRt0rIotY1Kz7z573,symmetry-judgement-task,117,1053454,0.0-46.0-4.0-0.0-1.0-6.0,,,,,,,,,,1.0,1.0,,,,608b0f7f4699c09aa348c57f,17:09:10,04/04/2024
,"<div style=""font-size: 10rem; color: #0000FF"">P</div>",,ospan,letter,5BREXee4RbfpRt0rIotY1Kz7z573,html-keyboard-response,118,1054467,0.0-46.0-4.0-0.0-1.0-7.0,,,,,,,,,,,,,,,608b0f7f4699c09aa348c57f,17:09:10,04/04/2024
6880.899999976158,"<div class = numbox><p style=""font-size: 2.4rem"">Please recall the letters you saw to the best of your ability. If you do not remember a particular letter, use the SKIP button.<br><b>(When you are ready to lock in your answer, press ENTER)</b></p><button id = button_1 class = ""square num-button"" onclick = ""recordClick(this)""><div class = content><div class = numbers>C</div></div></button><button id = button_2 class = ""square num-button"" onclick = ""recordClick(this)""><div class = content><div class = numbers>G</div></div></button><button id = button_3 class = ""square num-button"" onclick = ""recordClick(this)""><div class = content><div class = numbers>H</div></div></button><button id = button_4 class = ""square num-button"" onclick = ""recordClick(this)""><div class = content><div class = numbers>J</div></div></button><button id = button_5 class = ""square num-button"" onclick = ""recordClick(this)""><div class = content><div class = numbers>K</div></div></button><button id = button_6 class = ""square num-button"" onclick = ""recordClick(this)""><div class = content><div class = numbers>L</div></div></button><button id = button_7 class = ""square num-button"" onclick = ""recordClick(this)""><div class = content><div class = numbers>N</div></div></button><button id = button_8 class = ""square num-button"" onclick = ""recordClick(this)""><div class = content><div class = numbers>P</div></div></button><button id = button_9 class = ""square num-button"" onclick = ""recordClick(this)""><div class = content><div class = numbers>Q</div></div></button><button id = button_10 class = ""square num-button"" onclick = ""recordClick(this)""><div class = content><div class = numbers>R</div></div></button><button id = button_11 class = ""square num-button"" onclick = ""recordClick(this)""><div class = content><div class = numbers>S</div></div></button><button id = button_12 class = ""square num-button"" onclick = ""recordClick(this)""><div class = content><div class = numbers>Y</div></div></button><button class = clear_button id = ""ClearButton"" onclick = ""clearResponse()"">BACKSPACE</button><button class = blank_button id = ""BlankButton"" onclick = ""blankResponse()"">SKIP</button><p style=""font-size: 2.4rem""><u><b>Current Answer:</b></u></p><br><br><div id=echoed_txt style=""font-size: 5rem; color:blue;""><b></b></div></div>",enter,ospan,retrieval,5BREXee4RbfpRt0rIotY1Kz7z573,html-keyboard-response,119,1062124,0.0-46.0-4.0-0.0-2.0,7,7,7,4.0,"[""Y"",""L"",""G"",""P""]","[""Y"",""L"",""G"",""P""]",1.0,4.0,,,,,,,608b0f7f4699c09aa348c57f,17:09:10,04/04/2024
1748.300000011921,[''],0,ospan,feedback,5BREXee4RbfpRt0rIotY1Kz7z573,html-button-response,120,1064386,0.0-46.0-4.0-0.0-3.0,,,,,,,,,,,,100.0,0.0,,608b0f7f4699c09aa348c57f,17:09:10,04/04/2024
,"<p style=""font-size:75px;"">...</p>",,ospan,iti,5BREXee4RbfpRt0rIotY1Kz7z573,html-keyboard-response,121,1065403,0.0-46.0-4.0-1.0-0.0,,,,,,,,,,,,,,,608b0f7f4699c09aa348c57f,17:09:10,04/04/2024
1599.0,,,ospan,symmetry,5BREXee4RbfpRt0rIotY1Kz7z573,symmetry-judgement-task,122,1068054,0.0-46.0-4.0-1.0-1.0-0.0,,,,,,,,,,1.0,1.0,,,,608b0f7f4699c09aa348c57f,17:09:10,04/04/2024
,"<div style=""font-size: 10rem; color: #0000FF"">G</div>",,ospan,letter,5BREXee4RbfpRt0rIotY1Kz7z573,html-keyboard-response,123,1069068,0.0-46.0-4.0-1.0-1.0-1.0,,,,,,,,,,,,,,,608b0f7f4699c09aa348c57f,17:09:10,04/04/2024
1782.0,,,ospan,symmetry,5BREXee4RbfpRt0rIotY1Kz7z573,symmetry-judgement-task,124,1072847,0.0-46.0-4.0-1.0-1.0-2.0,,,,,,,,,,1.0,1.0,,,,608b0f7f4699c09aa348c57f,17:09:10,04/04/2024
,"<div style=""font-size: 10rem; color: #0000FF"">L</div>",,ospan,letter,5BREXee4RbfpRt0rIotY1Kz7z573,html-keyboard-response,125,1073859,0.0-46.0-4.0-1.0-1.0-3.0,,,,,,,,,,,,,,,608b0f7f4699c09aa348c57f,17:09:10,04/04/2024
1334.0,,,ospan,symmetry,5BREXee4RbfpRt0rIotY1Kz7z573,symmetry-judgement-task,126,1077224,0.0-46.0-4.0-1.0-1.0-4.0,,,,,,,,,,1.0,1.0,,,,608b0f7f4699c09aa348c57f,17:09:10,04/04/2024
,"<div style=""font-size: 10rem; color: #0000FF"">Y</div>",,ospan,letter,5BREXee4RbfpRt0rIotY1Kz7z573,html-keyboard-response,127,1078234,0.0-46.0-4.0-1.0-1.0-5.0,,,,,,,,,,,,,,,608b0f7f4699c09aa348c57f,17:09:10,04/04/2024
1435.0,,,ospan,symmetry,5BREXee4RbfpRt0rIotY1Kz7z573,symmetry-judgement-task,128,1081668,0.0-46.0-4.0-1.0-1.0-6.0,,,,,,,,,,1.0,1.0,,,,608b0f7f4699c09aa348c57f,17:09:10,04/04/2024
,"<div style=""font-size: 10rem; color: #0000FF"">C</div>",,ospan,letter,5BREXee4RbfpRt0rIotY1Kz7z573,html-keyboard-response,129,1082681,0.0-46.0-4.0-1.0-1.0-7.0,,,,,,,,,,,,,,,608b0f7f4699c09aa348c57f,17:09:10,04/04/2024
1558.0,,,ospan,symmetry,5BREXee4RbfpRt0rIotY1Kz7z573,symmetry-judgement-task,130,1086242,0.0-46.0-4.0-1.0-1.0-8.0,,,,,,,,,,1.0,1.0,,,,608b0f7f4699c09aa348c57f,17:09:10,04/04/2024
,"<div style=""font-size: 10rem; color: #0000FF"">S</div>",,ospan,letter,5BREXee4RbfpRt0rIotY1Kz7z573,html-keyboard-response,131,1087251,0.0-46.0-4.0-1.0-1.0-9.0,,,,,,,,,,,,,,,608b0f7f4699c09aa348c57f,17:09:10,04/04/2024
7387.699999988079,"<div class = numbox><p style=""font-size: 2.4rem"">Please recall the letters you saw to the best of your ability. If you do not remember a particular letter, use the SKIP button.<br><b>(When you are ready to lock in your answer, press ENTER)</b></p><button id = button_1 class = ""square num-button"" onclick = ""recordClick(this)""><div class = content><div class = numbers>C</div></div></button><button id = button_2 class = ""square num-button"" onclick = ""recordClick(this)""><div class = content><div class = numbers>G</div></div></button><button id = button_3 class = ""square num-button"" onclick = ""recordClick(this)""><div class = content><div class = numbers>H</div></div></button><button id = button_4 class = ""square num-button"" onclick = ""recordClick(this)""><div class = content><div class = numbers>J</div></div></button><button id = button_5 class = ""square num-button"" onclick = ""recordClick(this)""><div class = content><div class = numbers>K</div></div></button><button id = button_6 class = ""square num-button"" onclick = ""recordClick(this)""><div class = content><div class = numbers>L</div></div></button><button id = button_7 class = ""square num-button"" onclick = ""recordClick(this)""><div class = content><div class = numbers>N</div></div></button><button id = button_8 class = ""square num-button"" onclick = ""recordClick(this)""><div class = content><div class = numbers>P</div></div></button><button id = button_9 class = ""square num-button"" onclick = ""recordClick(this)""><div class = content><div class = numbers>Q</div></div></button><button id = button_10 class = ""square num-button"" onclick = ""recordClick(this)""><div class = content><div class = numbers>R</div></div></button><button id = button_11 class = ""square num-button"" onclick = ""recordClick(this)""><div class = content><div class = numbers>S</div></div></button><button id = button_12 class = ""square num-button"" onclick = ""recordClick(this)""><div class = content><div class = numbers>Y</div></div></button><button class = clear_button id = ""ClearButton"" onclick = ""clearResponse()"">BACKSPACE</button><button class = blank_button id = ""BlankButton"" onclick = ""blankResponse()"">SKIP</button><p style=""font-size: 2.4rem""><u><b>Current Answer:</b></u></p><br><br><div id=echoed_txt style=""font-size: 5rem; color:blue;""><b></b></div></div>",enter,ospan,retrieval,5BREXee4RbfpRt0rIotY1Kz7z573,html-keyboard-response,132,1095401,0.0-46.0-4.0-1.0-2.0,12,12,12,5.0,"[""G"",""L"",""Y"",""C"",""S""]","[""G"",""L"",""Y"",""C"",""S""]",1.0,5.0,,,,,,,608b0f7f4699c09aa348c57f,17:09:10,04/04/2024
1458.5,[''],0,ospan,feedback,5BREXee4RbfpRt0rIotY1Kz7z573,html-button-response,133,1097363,0.0-46.0-4.0-1.0-3.0,,,,,,,,,,,,100.0,0.0,,608b0f7f4699c09aa348c57f,17:09:10,04/04/2024
,"<p style=""font-size:75px;"">...</p>",,ospan,iti,5BREXee4RbfpRt0rIotY1Kz7z573,html-keyboard-response,134,1098370,0.0-46.0-4.0-2.0-0.0,,,,,,,,,,,,,,,608b0f7f4699c09aa348c57f,17:09:10,04/04/2024
1795.0,,,ospan,symmetry,5BREXee4RbfpRt0rIotY1Kz7z573,symmetry-judgement-task,135,1101261,0.0-46.0-4.0-2.0-1.0-0.0,,,,,,,,,,1.0,1.0,,,,608b0f7f4699c09aa348c57f,17:09:10,04/04/2024
,"<div style=""font-size: 10rem; color: #0000FF"">J</div>",,ospan,letter,5BREXee4RbfpRt0rIotY1Kz7z573,html-keyboard-response,136,1102263,0.0-46.0-4.0-2.0-1.0-1.0,,,,,,,,,,,,,,,608b0f7f4699c09aa348c57f,17:09:10,04/04/2024
1493.0,,,ospan,symmetry,5BREXee4RbfpRt0rIotY1Kz7z573,symmetry-judgement-task,137,1105744,0.0-46.0-4.0-2.0-1.0-2.0,,,,,,,,,,1.0,1.0,,,,608b0f7f4699c09aa348c57f,17:09:10,04/04/2024
,"<div style=""font-size: 10rem; color: #0000FF"">C</div>",,ospan,letter,5BREXee4RbfpRt0rIotY1Kz7z573,html-keyboard-response,138,1106757,0.0-46.0-4.0-2.0-1.0-3.0,,,,,,,,,,,,,,,608b0f7f4699c09aa348c57f,17:09:10,04/04/2024
1414.0,,,ospan,symmetry,5BREXee4RbfpRt0rIotY1Kz7z573,symmetry-judgement-task,139,1110179,0.0-46.0-4.0-2.0-1.0-4.0,,,,,,,,,,1.0,1.0,,,,608b0f7f4699c09aa348c57f,17:09:10,04/04/2024
,"<div style=""font-size: 10rem; color: #0000FF"">Q</div>",,ospan,letter,5BREXee4RbfpRt0rIotY1Kz7z573,html-keyboard-response,140,1111184,0.0-46.0-4.0-2.0-1.0-5.0,,,,,,,,,,,,,,,608b0f7f4699c09aa348c57f,17:09:10,04/04/2024
10283.799999982119,"<div class = numbox><p style=""font-size: 2.4rem"">Please recall the letters you saw to the best of your ability. If you do not remember a particular letter, use the SKIP button.<br><b>(When you are ready to lock in your answer, press ENTER)</b></p><button id = button_1 class = ""square num-button"" onclick = ""recordClick(this)""><div class = content><div class = numbers>C</div></div></button><button id = button_2 class = ""square num-button"" onclick = ""recordClick(this)""><div class = content><div class = numbers>G</div></div></button><button id = button_3 class = ""square num-button"" onclick = ""recordClick(this)""><div class = content><div class = numbers>H</div></div></button><button id = button_4 class = ""square num-button"" onclick = ""recordClick(this)""><div class = content><div class = numbers>J</div></div></button><button id = button_5 class = ""square num-button"" onclick = ""recordClick(this)""><div class = content><div class = numbers>K</div></div></button><button id = button_6 class = ""square num-button"" onclick = ""recordClick(this)""><div class = content><div class = numbers>L</div></div></button><button id = button_7 class = ""square num-button"" onclick = ""recordClick(this)""><div class = content><div class = numbers>N</div></div></button><button id = button_8 class = ""square num-button"" onclick = ""recordClick(this)""><div class = content><div class = numbers>P</div></div></button><button id = button_9 class = ""square num-button"" onclick = ""recordClick(this)""><div class = content><div class = numbers>Q</div></div></button><button id = button_10 class = ""square num-button"" onclick = ""recordClick(this)""><div class = content><div class = numbers>R</div></div></button><button id = button_11 class = ""square num-button"" onclick = ""recordClick(this)""><div class = content><div class = numbers>S</div></div></button><button id = button_12 class = ""square num-button"" onclick = ""recordClick(this)""><div class = content><div class = numbers>Y</div></div></button><button class = clear_button id = ""ClearButton"" onclick = ""clearResponse()"">BACKSPACE</button><button class = blank_button id = ""BlankButton"" onclick = ""blankResponse()"">SKIP</button><p style=""font-size: 2.4rem""><u><b>Current Answer:</b></u></p><br><br><div id=echoed_txt style=""font-size: 5rem; color:blue;""><b></b></div></div>",enter,ospan,retrieval,5BREXee4RbfpRt0rIotY1Kz7z573,html-keyboard-response,141,1122221,0.0-46.0-4.0-2.0-2.0,15,15,15,3.0,"[""J"",""C"",""Q""]","[""J"",""C"",""Q""]",1.0,3.0,,,,,,,608b0f7f4699c09aa348c57f,17:09:10,04/04/2024
2009.7999999821186,[''],0,ospan,feedback,5BREXee4RbfpRt0rIotY1Kz7z573,html-button-response,142,1124734,0.0-46.0-4.0-2.0-3.0,,,,,,,,,,,,100.0,0.0,,608b0f7f4699c09aa348c57f,17:09:10,04/04/2024
,"<p style=""font-size:75px;"">...</p>",,ospan,iti,5BREXee4RbfpRt0rIotY1Kz7z573,html-keyboard-response,143,1125737,0.0-46.0-5.0-0.0-0.0,,,,,,,,,,,,,,,608b0f7f4699c09aa348c57f,17:09:10,04/04/2024
1715.0,,,ospan,symmetry,5BREXee4RbfpRt0rIotY1Kz7z573,symmetry-judgement-task,144,1128511,0.0-46.0-5.0-0.0-1.0-0.0,,,,,,,,,,1.0,1.0,,,,608b0f7f4699c09aa348c57f,17:09:10,04/04/2024
,"<div style=""font-size: 10rem; color: #0000FF"">R</div>",,ospan,letter,5BREXee4RbfpRt0rIotY1Kz7z573,html-keyboard-response,145,1129519,0.0-46.0-5.0-0.0-1.0-1.0,,,,,,,,,,,,,,,608b0f7f4699c09aa348c57f,17:09:10,04/04/2024
1402.0,,,ospan,symmetry,5BREXee4RbfpRt0rIotY1Kz7z573,symmetry-judgement-task,146,1132905,0.0-46.0-5.0-0.0-1.0-2.0,,,,,,,,,,1.0,1.0,,,,608b0f7f4699c09aa348c57f,17:09:10,04/04/2024
,"<div style=""font-size: 10rem; color: #0000FF"">L</div>",,ospan,letter,5BREXee4RbfpRt0rIotY1Kz7z573,html-keyboard-response,147,1133917,0.0-46.0-5.0-0.0-1.0-3.0,,,,,,,,,,,,,,,608b0f7f4699c09aa348c57f,17:09:10,04/04/2024
1536.0,,,ospan,symmetry,5BREXee4RbfpRt0rIotY1Kz7z573,symmetry-judgement-task,148,1137601,0.0-46.0-5.0-0.0-1.0-4.0,,,,,,,,,,1.0,1.0,,,,608b0f7f4699c09aa348c57f,17:09:10,04/04/2024
,"<div style=""font-size: 10rem; color: #0000FF"">G</div>",,ospan,letter,5BREXee4RbfpRt0rIotY1Kz7z573,html-keyboard-response,149,1138612,0.0-46.0-5.0-0.0-1.0-5.0,,,,,,,,,,,,,,,608b0f7f4699c09aa348c57f,17:09:10,04/04/2024
1367.0,,,ospan,symmetry,5BREXee4RbfpRt0rIotY1Kz7z573,symmetry-judgement-task,150,1141968,0.0-46.0-5.0-0.0-1.0-6.0,,,,,,,,,,1.0,1.0,,,,608b0f7f4699c09aa348c57f,17:09:10,04/04/2024
,"<div style=""font-size: 10rem; color: #0000FF"">H</div>",,ospan,letter,5BREXee4RbfpRt0rIotY1Kz7z573,html-keyboard-response,151,1142975,0.0-46.0-5.0-0.0-1.0-7.0,,,,,,,,,,,,,,,608b0f7f4699c09aa348c57f,17:09:10,04/04/2024
1205.0,,,ospan,symmetry,5BREXee4RbfpRt0rIotY1Kz7z573,symmetry-judgement-task,152,1146224,0.0-46.0-5.0-0.0-1.0-8.0,,,,,,,,,,1.0,1.0,,,,608b0f7f4699c09aa348c57f,17:09:10,04/04/2024
,"<div style=""font-size: 10rem; color: #0000FF"">K</div>",,ospan,letter,5BREXee4RbfpRt0rIotY1Kz7z573,html-keyboard-response,153,1147225,0.0-46.0-5.0-0.0-1.0-9.0,,,,,,,,,,,,,,,608b0f7f4699c09aa348c57f,17:09:10,04/04/2024
1404.0,,,ospan,symmetry,5BREXee4RbfpRt0rIotY1Kz7z573,symmetry-judgement-task,154,1150620,0.0-46.0-5.0-0.0-1.0-10.0,,,,,,,,,,1.0,1.0,,,,608b0f7f4699c09aa348c57f,17:09:10,04/04/2024
,"<div style=""font-size: 10rem; color: #0000FF"">Q</div>",,ospan,letter,5BREXee4RbfpRt0rIotY1Kz7z573,html-keyboard-response,155,1151633,0.0-46.0-5.0-0.0-1.0-11.0,,,,,,,,,,,,,,,608b0f7f4699c09aa348c57f,17:09:10,04/04/2024
22184.19999998808,"<div class = numbox><p style=""font-size: 2.4rem"">Please recall the letters you saw to the best of your ability. If you do not remember a particular letter, use the SKIP button.<br><b>(When you are ready to lock in your answer, press ENTER)</b></p><button id = button_1 class = ""square num-button"" onclick = ""recordClick(this)""><div class = content><div class = numbers>C</div></div></button><button id = button_2 class = ""square num-button"" onclick = ""recordClick(this)""><div class = content><div class = numbers>G</div></div></button><button id = button_3 class = ""square num-button"" onclick = ""recordClick(this)""><div class = content><div class = numbers>H</div></div></button><button id = button_4 class = ""square num-button"" onclick = ""recordClick(this)""><div class = content><div class = numbers>J</div></div></button><button id = button_5 class = ""square num-button"" onclick = ""recordClick(this)""><div class = content><div class = numbers>K</div></div></button><button id = button_6 class = ""square num-button"" onclick = ""recordClick(this)""><div class = content><div class = numbers>L</div></div></button><button id = button_7 class = ""square num-button"" onclick = ""recordClick(this)""><div class = content><div class = numbers>N</div></div></button><button id = button_8 class = ""square num-button"" onclick = ""recordClick(this)""><div class = content><div class = numbers>P</div></div></button><button id = button_9 class = ""square num-button"" onclick = ""recordClick(this)""><div class = content><div class = numbers>Q</div></div></button><button id = button_10 class = ""square num-button"" onclick = ""recordClick(this)""><div class = content><div class = numbers>R</div></div></button><button id = button_11 class = ""square num-button"" onclick = ""recordClick(this)""><div class = content><div class = numbers>S</div></div></button><button id = button_12 class = ""square num-button"" onclick = ""recordClick(this)""><div class = content><div class = numbers>Y</div></div></button><button class = clear_button id = ""ClearButton"" onclick = ""clearResponse()"">BACKSPACE</button><button class = blank_button id = ""BlankButton"" onclick = ""blankResponse()"">SKIP</button><p style=""font-size: 2.4rem""><u><b>Current Answer:</b></u></p><br><br><div id=echoed_txt style=""font-size: 5rem; color:blue;""><b></b></div></div>",enter,ospan,retrieval,5BREXee4RbfpRt0rIotY1Kz7z573,html-keyboard-response,156,1174583,0.0-46.0-5.0-0.0-2.0,21,19,15,6.0,"[""R"",""L"",""G"",""H"",""Q""]","[""R"",""L"",""G"",""H"",""K"",""Q""]",0.0,4.0,,,,,,,608b0f7f4699c09aa348c57f,17:09:10,04/04/2024
1781.2999999821186,[''],0,ospan,feedback,5BREXee4RbfpRt0rIotY1Kz7z573,html-button-response,157,1176878,0.0-46.0-5.0-0.0-3.0,,,,,,,,,,,,100.0,0.0,,608b0f7f4699c09aa348c57f,17:09:10,04/04/2024
,"<p style=""font-size:75px;"">...</p>",,ospan,iti,5BREXee4RbfpRt0rIotY1Kz7z573,html-keyboard-response,158,1177880,0.0-46.0-5.0-1.0-0.0,,,,,,,,,,,,,,,608b0f7f4699c09aa348c57f,17:09:10,04/04/2024
1647.0,,,ospan,symmetry,5BREXee4RbfpRt0rIotY1Kz7z573,symmetry-judgement-task,159,1180590,0.0-46.0-5.0-1.0-1.0-0.0,,,,,,,,,,1.0,1.0,,,,608b0f7f4699c09aa348c57f,17:09:10,04/04/2024
,"<div style=""font-size: 10rem; color: #0000FF"">H</div>",,ospan,letter,5BREXee4RbfpRt0rIotY1Kz7z573,html-keyboard-response,160,1181593,0.0-46.0-5.0-1.0-1.0-1.0,,,,,,,,,,,,,,,608b0f7f4699c09aa348c57f,17:09:10,04/04/2024
1218.0,,,ospan,symmetry,5BREXee4RbfpRt0rIotY1Kz7z573,symmetry-judgement-task,161,1184801,0.0-46.0-5.0-1.0-1.0-2.0,,,,,,,,,,1.0,1.0,,,,608b0f7f4699c09aa348c57f,17:09:10,04/04/2024
,"<div style=""font-size: 10rem; color: #0000FF"">K</div>",,ospan,letter,5BREXee4RbfpRt0rIotY1Kz7z573,html-keyboard-response,162,1185810,0.0-46.0-5.0-1.0-1.0-3.0,,,,,,,,,,,,,,,608b0f7f4699c09aa348c57f,17:09:10,04/04/2024
1475.0,,,ospan,symmetry,5BREXee4RbfpRt0rIotY1Kz7z573,symmetry-judgement-task,163,1189288,0.0-46.0-5.0-1.0-1.0-4.0,,,,,,,,,,1.0,1.0,,,,608b0f7f4699c09aa348c57f,17:09:10,04/04/2024
,"<div style=""font-size: 10rem; color: #0000FF"">Q</div>",,ospan,letter,5BREXee4RbfpRt0rIotY1Kz7z573,html-keyboard-response,164,1190304,0.0-46.0-5.0-1.0-1.0-5.0,,,,,,,,,,,,,,,608b0f7f4699c09aa348c57f,17:09:10,04/04/2024
1390.0,,,ospan,symmetry,5BREXee4RbfpRt0rIotY1Kz7z573,symmetry-judgement-task,165,1193690,0.0-46.0-5.0-1.0-1.0-6.0,,,,,,,,,,1.0,1.0,,,,608b0f7f4699c09aa348c57f,17:09:10,04/04/2024
,"<div style=""font-size: 10rem; color: #0000FF"">C</div>",,ospan,letter,5BREXee4RbfpRt0rIotY1Kz7z573,html-keyboard-response,166,1194706,0.0-46.0-5.0-1.0-1.0-7.0,,,,,,,,,,,,,,,608b0f7f4699c09aa348c57f,17:09:10,04/04/2024
1557.0,,,ospan,symmetry,5BREXee4RbfpRt0rIotY1Kz7z573,symmetry-judgement-task,167,1198240,0.0-46.0-5.0-1.0-1.0-8.0,,,,,,,,,,1.0,1.0,,,,608b0f7f4699c09aa348c57f,17:09:10,04/04/2024
,"<div style=""font-size: 10rem; color: #0000FF"">Y</div>",,ospan,letter,5BREXee4RbfpRt0rIotY1Kz7z573,html-keyboard-response,168,1199244,0.0-46.0-5.0-1.0-1.0-9.0,,,,,,,,,,,,,,,608b0f7f4699c09aa348c57f,17:09:10,04/04/2024
1265.0,,,ospan,symmetry,5BREXee4RbfpRt0rIotY1Kz7z573,symmetry-judgement-task,169,1202492,0.0-46.0-5.0-1.0-1.0-10.0,,,,,,,,,,1.0,1.0,,,,608b0f7f4699c09aa348c57f,17:09:10,04/04/2024
,"<div style=""font-size: 10rem; color: #0000FF"">P</div>",,ospan,letter,5BREXee4RbfpRt0rIotY1Kz7z573,html-keyboard-response,170,1203495,0.0-46.0-5.0-1.0-1.0-11.0,,,,,,,,,,,,,,,608b0f7f4699c09aa348c57f,17:09:10,04/04/2024
1440.0,,,ospan,symmetry,5BREXee4RbfpRt0rIotY1Kz7z573,symmetry-judgement-task,171,1206953,0.0-46.0-5.0-1.0-1.0-12.0,,,,,,,,,,1.0,1.0,,,,608b0f7f4699c09aa348c57f,17:09:10,04/04/2024
,"<div style=""font-size: 10rem; color: #0000FF"">J</div>",,ospan,letter,5BREXee4RbfpRt0rIotY1Kz7z573,html-keyboard-response,172,1207966,0.0-46.0-5.0-1.0-1.0-13.0,,,,,,,,,,,,,,,608b0f7f4699c09aa348c57f,17:09:10,04/04/2024
11124.799999982119,"<div class = numbox><p style=""font-size: 2.4rem"">Please recall the letters you saw to the best of your ability. If you do not remember a particular letter, use the SKIP button.<br><b>(When you are ready to lock in your answer, press ENTER)</b></p><button id = button_1 class = ""square num-button"" onclick = ""recordClick(this)""><div class = content><div class = numbers>C</div></div></button><button id = button_2 class = ""square num-button"" onclick = ""recordClick(this)""><div class = content><div class = numbers>G</div></div></button><button id = button_3 class = ""square num-button"" onclick = ""recordClick(this)""><div class = content><div class = numbers>H</div></div></button><button id = button_4 class = ""square num-button"" onclick = ""recordClick(this)""><div class = content><div class = numbers>J</div></div></button><button id = button_5 class = ""square num-button"" onclick = ""recordClick(this)""><div class = content><div class = numbers>K</div></div></button><button id = button_6 class = ""square num-button"" onclick = ""recordClick(this)""><div class = content><div class = numbers>L</div></div></button><button id = button_7 class = ""square num-button"" onclick = ""recordClick(this)""><div class = content><div class = numbers>N</div></div></button><button id = button_8 class = ""square num-button"" onclick = ""recordClick(this)""><div class = content><div class = numbers>P</div></div></button><button id = button_9 class = ""square num-button"" onclick = ""recordClick(this)""><div class = content><div class = numbers>Q</div></div></button><button id = button_10 class = ""square num-button"" onclick = ""recordClick(this)""><div class = content><div class = numbers>R</div></div></button><button id = button_11 class = ""square num-button"" onclick = ""recordClick(this)""><div class = content><div class = numbers>S</div></div></button><button id = button_12 class = ""square num-button"" onclick = ""recordClick(this)""><div class = content><div class = numbers>Y</div></div></button><button class = clear_button id = ""ClearButton"" onclick = ""clearResponse()"">BACKSPACE</button><button class = blank_button id = ""BlankButton"" onclick = ""blankResponse()"">SKIP</button><p style=""font-size: 2.4rem""><u><b>Current Answer:</b></u></p><br><br><div id=echoed_txt style=""font-size: 5rem; color:blue;""><b></b></div></div>",enter,ospan,retrieval,5BREXee4RbfpRt0rIotY1Kz7z573,html-keyboard-response,173,1219844,0.0-46.0-5.0-1.0-2.0,28,26,22,7.0,"[""H"",""K"",""Q"",""C"",""Y"",""P"",""J""]","[""H"",""K"",""Q"",""C"",""Y"",""P"",""J""]",1.0,7.0,,,,,,,608b0f7f4699c09aa348c57f,17:09:10,04/04/2024
1496.5,[''],0,ospan,feedback,5BREXee4RbfpRt0rIotY1Kz7z573,html-button-response,174,1221846,0.0-46.0-5.0-1.0-3.0,,,,,,,,,,,,100.0,0.0,,608b0f7f4699c09aa348c57f,17:09:10,04/04/2024
,"<p style=""font-size:75px;"">...</p>",,ospan,iti,5BREXee4RbfpRt0rIotY1Kz7z573,html-keyboard-response,175,1222856,0.0-46.0-6.0-0.0-0.0,,,,,,,,,,,,,,,608b0f7f4699c09aa348c57f,17:09:10,04/04/2024
1229.0,,,ospan,symmetry,5BREXee4RbfpRt0rIotY1Kz7z573,symmetry-judgement-task,176,1225546,0.0-46.0-6.0-0.0-1.0-0.0,,,,,,,,,,1.0,1.0,,,,608b0f7f4699c09aa348c57f,17:09:10,04/04/2024
,"<div style=""font-size: 10rem; color: #0000FF"">P</div>",,ospan,letter,5BREXee4RbfpRt0rIotY1Kz7z573,html-keyboard-response,177,1226551,0.0-46.0-6.0-0.0-1.0-1.0,,,,,,,,,,,,,,,608b0f7f4699c09aa348c57f,17:09:10,04/04/2024
1492.0,,,ospan,symmetry,5BREXee4RbfpRt0rIotY1Kz7z573,symmetry-judgement-task,178,1230017,0.0-46.0-6.0-0.0-1.0-2.0,,,,,,,,,,1.0,1.0,,,,608b0f7f4699c09aa348c57f,17:09:10,04/04/2024
,"<div style=""font-size: 10rem; color: #0000FF"">Y</div>",,ospan,letter,5BREXee4RbfpRt0rIotY1Kz7z573,html-keyboard-response,179,1231030,0.0-46.0-6.0-0.0-1.0-3.0,,,,,,,,,,,,,,,608b0f7f4699c09aa348c57f,17:09:10,04/04/2024
1241.0,,,ospan,symmetry,5BREXee4RbfpRt0rIotY1Kz7z573,symmetry-judgement-task,180,1234283,0.0-46.0-6.0-0.0-1.0-4.0,,,,,,,,,,1.0,1.0,,,,608b0f7f4699c09aa348c57f,17:09:10,04/04/2024
,"<div style=""font-size: 10rem; color: #0000FF"">R</div>",,ospan,letter,5BREXee4RbfpRt0rIotY1Kz7z573,html-keyboard-response,181,1235288,0.0-46.0-6.0-0.0-1.0-5.0,,,,,,,,,,,,,,,608b0f7f4699c09aa348c57f,17:09:10,04/04/2024
1227.0,,,ospan,symmetry,5BREXee4RbfpRt0rIotY1Kz7z573,symmetry-judgement-task,182,1238514,0.0-46.0-6.0-0.0-1.0-6.0,,,,,,,,,,1.0,1.0,,,,608b0f7f4699c09aa348c57f,17:09:10,04/04/2024
,"<div style=""font-size: 10rem; color: #0000FF"">C</div>",,ospan,letter,5BREXee4RbfpRt0rIotY1Kz7z573,html-keyboard-response,183,1239531,0.0-46.0-6.0-0.0-1.0-7.0,,,,,,,,,,,,,,,608b0f7f4699c09aa348c57f,17:09:10,04/04/2024
1606.0,,,ospan,symmetry,5BREXee4RbfpRt0rIotY1Kz7z573,symmetry-judgement-task,184,1243175,0.0-46.0-6.0-0.0-1.0-8.0,,,,,,,,,,1.0,1.0,,,,608b0f7f4699c09aa348c57f,17:09:10,04/04/2024
,"<div style=""font-size: 10rem; color: #0000FF"">K</div>",,ospan,letter,5BREXee4RbfpRt0rIotY1Kz7z573,html-keyboard-response,185,1244190,0.0-46.0-6.0-0.0-1.0-9.0,,,,,,,,,,,,,,,608b0f7f4699c09aa348c57f,17:09:10,04/04/2024
15831.800000011921,"<div class = numbox><p style=""font-size: 2.4rem"">Please recall the letters you saw to the best of your ability. If you do not remember a particular letter, use the SKIP button.<br><b>(When you are ready to lock in your answer, press ENTER)</b></p><button id = button_1 class = ""square num-button"" onclick = ""recordClick(this)""><div class = content><div class = numbers>C</div></div></button><button id = button_2 class = ""square num-button"" onclick = ""recordClick(this)""><div class = content><div class = numbers>G</div></div></button><button id = button_3 class = ""square num-button"" onclick = ""recordClick(this)""><div class = content><div class = numbers>H</div></div></button><button id = button_4 class = ""square num-button"" onclick = ""recordClick(this)""><div class = content><div class = numbers>J</div></div></button><button id = button_5 class = ""square num-button"" onclick = ""recordClick(this)""><div class = content><div class = numbers>K</div></div></button><button id = button_6 class = ""square num-button"" onclick = ""recordClick(this)""><div class = content><div class = numbers>L</div></div></button><button id = button_7 class = ""square num-button"" onclick = ""recordClick(this)""><div class = content><div class = numbers>N</div></div></button><button id = button_8 class = ""square num-button"" onclick = ""recordClick(this)""><div class = content><div class = numbers>P</div></div></button><button id = button_9 class = ""square num-button"" onclick = ""recordClick(this)""><div class = content><div class = numbers>Q</div></div></button><button id = button_10 class = ""square num-button"" onclick = ""recordClick(this)""><div class = content><div class = numbers>R</div></div></button><button id = button_11 class = ""square num-button"" onclick = ""recordClick(this)""><div class = content><div class = numbers>S</div></div></button><button id = button_12 class = ""square num-button"" onclick = ""recordClick(this)""><div class = content><div class = numbers>Y</div></div></button><button class = clear_button id = ""ClearButton"" onclick = ""clearResponse()"">BACKSPACE</button><button class = blank_button id = ""BlankButton"" onclick = ""blankResponse()"">SKIP</button><p style=""font-size: 2.4rem""><u><b>Current Answer:</b></u></p><br><br><div id=echoed_txt style=""font-size: 5rem; color:blue;""><b></b></div></div>",enter,ospan,retrieval,5BREXee4RbfpRt0rIotY1Kz7z573,html-keyboard-response,186,1260777,0.0-46.0-6.0-0.0-2.0,33,31,27,5.0,"[""P"",""Y"",""R"",""C"",""K""]","[""P"",""Y"",""R"",""C"",""K""]",1.0,5.0,,,,,,,608b0f7f4699c09aa348c57f,17:09:10,04/04/2024
1897.2999999821186,[''],0,ospan,feedback,5BREXee4RbfpRt0rIotY1Kz7z573,html-button-response,187,1263191,0.0-46.0-6.0-0.0-3.0,,,,,,,,,,,,100.0,0.0,,608b0f7f4699c09aa348c57f,17:09:10,04/04/2024
,"<p style=""font-size:75px;"">...</p>",,ospan,iti,5BREXee4RbfpRt0rIotY1Kz7z573,html-keyboard-response,188,1264197,0.0-46.0-6.0-1.0-0.0,,,,,,,,,,,,,,,608b0f7f4699c09aa348c57f,17:09:10,04/04/2024
1707.0,,,ospan,symmetry,5BREXee4RbfpRt0rIotY1Kz7z573,symmetry-judgement-task,189,1267416,0.0-46.0-6.0-1.0-1.0-0.0,,,,,,,,,,1.0,1.0,,,,608b0f7f4699c09aa348c57f,17:09:10,04/04/2024
,"<div style=""font-size: 10rem; color: #0000FF"">P</div>",,ospan,letter,5BREXee4RbfpRt0rIotY1Kz7z573,html-keyboard-response,190,1268426,0.0-46.0-6.0-1.0-1.0-1.0,,,,,,,,,,,,,,,608b0f7f4699c09aa348c57f,17:09:10,04/04/2024
1153.0,,,ospan,symmetry,5BREXee4RbfpRt0rIotY1Kz7z573,symmetry-judgement-task,191,1271578,0.0-46.0-6.0-1.0-1.0-2.0,,,,,,,,,,1.0,1.0,,,,608b0f7f4699c09aa348c57f,17:09:10,04/04/2024
,"<div style=""font-size: 10rem; color: #0000FF"">S</div>",,ospan,letter,5BREXee4RbfpRt0rIotY1Kz7z573,html-keyboard-response,192,1272583,0.0-46.0-6.0-1.0-1.0-3.0,,,,,,,,,,,,,,,608b0f7f4699c09aa348c57f,17:09:10,04/04/2024
1563.0,,,ospan,symmetry,5BREXee4RbfpRt0rIotY1Kz7z573,symmetry-judgement-task,193,1276161,0.0-46.0-6.0-1.0-1.0-4.0,,,,,,,,,,1.0,1.0,,,,608b0f7f4699c09aa348c57f,17:09:10,04/04/2024
,"<div style=""font-size: 10rem; color: #0000FF"">L</div>",,ospan,letter,5BREXee4RbfpRt0rIotY1Kz7z573,html-keyboard-response,194,1277164,0.0-46.0-6.0-1.0-1.0-5.0,,,,,,,,,,,,,,,608b0f7f4699c09aa348c57f,17:09:10,04/04/2024
1393.0,,,ospan,symmetry,5BREXee4RbfpRt0rIotY1Kz7z573,symmetry-judgement-task,195,1280550,0.0-46.0-6.0-1.0-1.0-6.0,,,,,,,,,,1.0,1.0,,,,608b0f7f4699c09aa348c57f,17:09:10,04/04/2024
,"<div style=""font-size: 10rem; color: #0000FF"">K</div>",,ospan,letter,5BREXee4RbfpRt0rIotY1Kz7z573,html-keyboard-response,196,1281556,0.0-46.0-6.0-1.0-1.0-7.0,,,,,,,,,,,,,,,608b0f7f4699c09aa348c57f,17:09:10,04/04/2024
1541.0,,,ospan,symmetry,5BREXee4RbfpRt0rIotY1Kz7z573,symmetry-judgement-task,197,1285271,0.0-46.0-6.0-1.0-1.0-8.0,,,,,,,,,,1.0,1.0,,,,608b0f7f4699c09aa348c57f,17:09:10,04/04/2024
,"<div style=""font-size: 10rem; color: #0000FF"">H</div>",,ospan,letter,5BREXee4RbfpRt0rIotY1Kz7z573,html-keyboard-response,198,1286277,0.0-46.0-6.0-1.0-1.0-9.0,,,,,,,,,,,,,,,608b0f7f4699c09aa348c57f,17:09:10,04/04/2024
1367.0,,,ospan,symmetry,5BREXee4RbfpRt0rIotY1Kz7z573,symmetry-judgement-task,199,1289634,0.0-46.0-6.0-1.0-1.0-10.0,,,,,,,,,,1.0,1.0,,,,608b0f7f4699c09aa348c57f,17:09:10,04/04/2024
,"<div style=""font-size: 10rem; color: #0000FF"">C</div>",,ospan,letter,5BREXee4RbfpRt0rIotY1Kz7z573,html-keyboard-response,200,1290641,0.0-46.0-6.0-1.0-1.0-11.0,,,,,,,,,,,,,,,608b0f7f4699c09aa348c57f,17:09:10,04/04/2024
1682.0,,,ospan,symmetry,5BREXee4RbfpRt0rIotY1Kz7z573,symmetry-judgement-task,201,1294368,0.0-46.0-6.0-1.0-1.0-12.0,,,,,,,,,,1.0,1.0,,,,608b0f7f4699c09aa348c57f,17:09:10,04/04/2024
,"<div style=""font-size: 10rem; color: #0000FF"">G</div>",,ospan,letter,5BREXee4RbfpRt0rIotY1Kz7z573,html-keyboard-response,202,1295373,0.0-46.0-6.0-1.0-1.0-13.0,,,,,,,,,,,,,,,608b0f7f4699c09aa348c57f,17:09:10,04/04/2024
2520.0,,,ospan,symmetry,5BREXee4RbfpRt0rIotY1Kz7z573,symmetry-judgement-task,203,1299907,0.0-46.0-6.0-1.0-1.0-14.0,,,,,,,,,,1.0,1.0,,,,608b0f7f4699c09aa348c57f,17:09:10,04/04/2024
,"<div style=""font-size: 10rem; color: #0000FF"">R</div>",,ospan,letter,5BREXee4RbfpRt0rIotY1Kz7z573,html-keyboard-response,204,1300919,0.0-46.0-6.0-1.0-1.0-15.0,,,,,,,,,,,,,,,608b0f7f4699c09aa348c57f,17:09:10,04/04/2024
20596.899999976158,"<div class = numbox><p style=""font-size: 2.4rem"">Please recall the letters you saw to the best of your ability. If you do not remember a particular letter, use the SKIP button.<br><b>(When you are ready to lock in your answer, press ENTER)</b></p><button id = button_1 class = ""square num-button"" onclick = ""recordClick(this)""><div class = content><div class = numbers>C</div></div></button><button id = button_2 class = ""square num-button"" onclick = ""recordClick(this)""><div class = content><div class = numbers>G</div></div></button><button id = button_3 class = ""square num-button"" onclick = ""recordClick(this)""><div class = content><div class = numbers>H</div></div></button><button id = button_4 class = ""square num-button"" onclick = ""recordClick(this)""><div class = content><div class = numbers>J</div></div></button><button id = button_5 class = ""square num-button"" onclick = ""recordClick(this)""><div class = content><div class = numbers>K</div></div></button><button id = button_6 class = ""square num-button"" onclick = ""recordClick(this)""><div class = content><div class = numbers>L</div></div></button><button id = button_7 class = ""square num-button"" onclick = ""recordClick(this)""><div class = content><div class = numbers>N</div></div></button><button id = button_8 class = ""square num-button"" onclick = ""recordClick(this)""><div class = content><div class = numbers>P</div></div></button><button id = button_9 class = ""square num-button"" onclick = ""recordClick(this)""><div class = content><div class = numbers>Q</div></div></button><button id = button_10 class = ""square num-button"" onclick = ""recordClick(this)""><div class = content><div class = numbers>R</div></div></button><button id = button_11 class = ""square num-button"" onclick = ""recordClick(this)""><div class = content><div class = numbers>S</div></div></button><button id = button_12 class = ""square num-button"" onclick = ""recordClick(this)""><div class = content><div class = numbers>Y</div></div></button><button class = clear_button id = ""ClearButton"" onclick = ""clearResponse()"">BACKSPACE</button><button class = blank_button id = ""BlankButton"" onclick = ""blankResponse()"">SKIP</button><p style=""font-size: 2.4rem""><u><b>Current Answer:</b></u></p><br><br><div id=echoed_txt style=""font-size: 5rem; color:blue;""><b></b></div></div>",enter,ospan,retrieval,5BREXee4RbfpRt0rIotY1Kz7z573,html-keyboard-response,205,1322278,0.0-46.0-6.0-1.0-2.0,41,35,27,8.0,"[""P"",""S"",""L"",""C"",""K"",""H"",""G""]","[""P"",""S"",""L"",""K"",""H"",""C"",""G"",""R""]",0.0,4.0,,,,,,,608b0f7f4699c09aa348c57f,17:09:10,04/04/2024
5708.800000011921,[''],0,ospan,feedback,5BREXee4RbfpRt0rIotY1Kz7z573,html-button-response,206,1328492,0.0-46.0-6.0-1.0-3.0,,,,,,,,,,,,100.0,0.0,,608b0f7f4699c09aa348c57f,17:09:10,04/04/2024
113594.79999998212,,"{'Q0': 'The buttons were weird to press so there were one or two times i would click it and it wouldnt input a letter so i had to go back and re-enter the letter, which was quite annoying and at one point made me momentarily forget the letters.'}",ospan,survey_ospan,5BREXee4RbfpRt0rIotY1Kz7z573,lmdlab-survey-text,207,1442849,0.0-46.0-7.0,,,,,,,,,,,,,,5BREXee4RbfpRt0rIotY1Kz7z573,608b0f7f4699c09aa348c57f,17:09:10,04/04/2024
1732.2000000178814,<p><p style='font-size: 3rem'>Great work!<br><br>This completes the symmetry and memory task.</p><br><br><br>,0,ospan,finish,5BREXee4RbfpRt0rIotY1Kz7z573,html-button-response,208,1444584,0.0-46.0-8.0,41,35,27,,,,,,,,,100.0,,,608b0f7f4699c09aa348c57f,17:09:10,04/04/2024
