rt,stimulus,response,exp_name,exp_stage,subjectID,trial_type,trial_index,time_elapsed,internal_node_id,ospan_shown,ospan_total,ospan_abs,length,resp_actual,resp_correct,full_correct,num_correct,feedback,accuracy,correct,math_acc,math_warning,databaseID,prolificID,start_time,date
1396.3000000000466,<div class = 'left_align' style='font-size: 3.25rem; line-height: 1.3;'><p class = 'center_align'><b>Welcome to the Symmetry and Memory Task</b><br><br><br><br></p>Press 'continue' to show the instructions.<br><br><br><br></div>,0,ospan,instruct,NuQpVhsQ2jYm2ZCoXCxKGSzsmKP2,html-button-response,54,401876,0.0-46.0-0.0-0.0-0.0,,,,,,,,,,,,,,,5cc19050dfef1a00019523b6,20:33:41,03/04/2024
7720.0,"<div class = 'left_align' style='font-size: 3.25rem; line-height: 1.3;'><p class = 'center_align'><b>Symmetry and Memory Task</b><br><br></p>In this task, you will try to memorize letters you see on the screen<br>while you also view black and white grid pictures.<br><br>In the next few minutes, you will have some practice to get you familiar<br>with how the task works.<br><br>It may be difficult sometimes, but please do not worry about making mistakes!<br><br>We will begin by practicing the letter part of the task.<br><br><br><br></div>",0,ospan,instruct,NuQpVhsQ2jYm2ZCoXCxKGSzsmKP2,html-button-response,55,409858,0.0-46.0-0.0-0.0-1.0,,,,,,,,,,,,,,,5cc19050dfef1a00019523b6,20:33:41,03/04/2024
8724.699999999953,"<div class = 'left_align' style='font-size: 3.25rem; line-height: 1.3;'>For this practice part, letters will appear on the screen one at a time.<br><br>Try to remember each letter in the order presented.<br><br>After some letters have been shown, you will see a response screen. Your<br>goal is to report the letters you saw <b>in order</b>. If you do not remember<br>a particular letter, you will have the option to leave it blank.<br><br><br><br></div>",0,ospan,instruct,NuQpVhsQ2jYm2ZCoXCxKGSzsmKP2,html-button-response,56,418848,0.0-46.0-0.0-0.0-2.0,,,,,,,,,,,,,,,5cc19050dfef1a00019523b6,20:33:41,03/04/2024
3619.5999999998603,"<div class = 'left_align' style='font-size: 3.25rem; line-height: 1.3;'>Remember, it is very important to get the letters in the same<br>order as you see them.<br><br>When you are ready, you may begin the letter practice.</div><br><br><br><br>",0,ospan,instruct,NuQpVhsQ2jYm2ZCoXCxKGSzsmKP2,html-button-response,57,422729,0.0-46.0-0.0-0.0-3.0,,,,,,,,,,,,,,,5cc19050dfef1a00019523b6,20:33:41,03/04/2024
,"<p style=""font-size:75px;"">...</p>",,ospan,iti,NuQpVhsQ2jYm2ZCoXCxKGSzsmKP2,html-keyboard-response,58,424005,0.0-46.0-0.0-1.0-0.0,,,,,,,,,,,,,,,5cc19050dfef1a00019523b6,20:33:41,03/04/2024
,"<div style=""font-size: 10rem; color: #0000FF"">K</div>",,ospan,letter,NuQpVhsQ2jYm2ZCoXCxKGSzsmKP2,html-keyboard-response,59,425019,0.0-46.0-0.0-1.0-1.0,,,,,,,,,,,,,,,5cc19050dfef1a00019523b6,20:33:41,03/04/2024
,"<div style=""font-size: 10rem; color: #0000FF"">P</div>",,ospan,letter,NuQpVhsQ2jYm2ZCoXCxKGSzsmKP2,html-keyboard-response,60,426793,0.0-46.0-0.0-1.0-2.0,,,,,,,,,,,,,,,5cc19050dfef1a00019523b6,20:33:41,03/04/2024
7865.90000000014,"<div class = numbox><p style=""font-size: 2.4rem"">Please recall the letters you saw to the best of your ability. If you do not remember a particular letter, use the SKIP button.<br><b>(When you are ready to lock in your answer, press ENTER)</b></p><button id = button_1 class = ""square num-button"" onclick = ""recordClick(this)""><div class = content><div class = numbers>C</div></div></button><button id = button_2 class = ""square num-button"" onclick = ""recordClick(this)""><div class = content><div class = numbers>G</div></div></button><button id = button_3 class = ""square num-button"" onclick = ""recordClick(this)""><div class = content><div class = numbers>H</div></div></button><button id = button_4 class = ""square num-button"" onclick = ""recordClick(this)""><div class = content><div class = numbers>J</div></div></button><button id = button_5 class = ""square num-button"" onclick = ""recordClick(this)""><div class = content><div class = numbers>K</div></div></button><button id = button_6 class = ""square num-button"" onclick = ""recordClick(this)""><div class = content><div class = numbers>L</div></div></button><button id = button_7 class = ""square num-button"" onclick = ""recordClick(this)""><div class = content><div class = numbers>N</div></div></button><button id = button_8 class = ""square num-button"" onclick = ""recordClick(this)""><div class = content><div class = numbers>P</div></div></button><button id = button_9 class = ""square num-button"" onclick = ""recordClick(this)""><div class = content><div class = numbers>Q</div></div></button><button id = button_10 class = ""square num-button"" onclick = ""recordClick(this)""><div class = content><div class = numbers>R</div></div></button><button id = button_11 class = ""square num-button"" onclick = ""recordClick(this)""><div class = content><div class = numbers>S</div></div></button><button id = button_12 class = ""square num-button"" onclick = ""recordClick(this)""><div class = content><div class = numbers>Y</div></div></button><button class = clear_button id = ""ClearButton"" onclick = ""clearResponse()"">BACKSPACE</button><button class = blank_button id = ""BlankButton"" onclick = ""blankResponse()"">SKIP</button><p style=""font-size: 2.4rem""><u><b>Current Answer:</b></u></p><br><br><div id=echoed_txt style=""font-size: 5rem; color:blue;""><b></b></div></div>",enter,ospan,retrieval,NuQpVhsQ2jYm2ZCoXCxKGSzsmKP2,html-keyboard-response,61,435424,0.0-46.0-0.0-1.0-3.0,NA,NA,NA,2.0,"[""K"",""P""]","[""K"",""P""]",1.0,2.0,"['<font color=""green"">K</font>', '<font color=""green"">P</font>']",,,,,,5cc19050dfef1a00019523b6,20:33:41,03/04/2024
986.1999999999534,"['<p style=""font-size:44px"">Letters:<br><br><br><font color=""green"">K</font> <font color=""green"">P</font></p><br><br>']",0,ospan,practice_feedback,NuQpVhsQ2jYm2ZCoXCxKGSzsmKP2,html-button-response,62,436920,0.0-46.0-0.0-1.0-4.0,,,,,,,,,,,,,,,5cc19050dfef1a00019523b6,20:33:41,03/04/2024
,"<p style=""font-size:75px;"">...</p>",,ospan,iti,NuQpVhsQ2jYm2ZCoXCxKGSzsmKP2,html-keyboard-response,63,437937,0.0-46.0-0.0-2.0-0.0,,,,,,,,,,,,,,,5cc19050dfef1a00019523b6,20:33:41,03/04/2024
,"<div style=""font-size: 10rem; color: #0000FF"">K</div>",,ospan,letter,NuQpVhsQ2jYm2ZCoXCxKGSzsmKP2,html-keyboard-response,64,438952,0.0-46.0-0.0-2.0-1.0,,,,,,,,,,,,,,,5cc19050dfef1a00019523b6,20:33:41,03/04/2024
,"<div style=""font-size: 10rem; color: #0000FF"">Q</div>",,ospan,letter,NuQpVhsQ2jYm2ZCoXCxKGSzsmKP2,html-keyboard-response,65,440719,0.0-46.0-0.0-2.0-2.0,,,,,,,,,,,,,,,5cc19050dfef1a00019523b6,20:33:41,03/04/2024
,"<div style=""font-size: 10rem; color: #0000FF"">R</div>",,ospan,letter,NuQpVhsQ2jYm2ZCoXCxKGSzsmKP2,html-keyboard-response,66,442481,0.0-46.0-0.0-2.0-3.0,,,,,,,,,,,,,,,5cc19050dfef1a00019523b6,20:33:41,03/04/2024
3278.0,"<div class = numbox><p style=""font-size: 2.4rem"">Please recall the letters you saw to the best of your ability. If you do not remember a particular letter, use the SKIP button.<br><b>(When you are ready to lock in your answer, press ENTER)</b></p><button id = button_1 class = ""square num-button"" onclick = ""recordClick(this)""><div class = content><div class = numbers>C</div></div></button><button id = button_2 class = ""square num-button"" onclick = ""recordClick(this)""><div class = content><div class = numbers>G</div></div></button><button id = button_3 class = ""square num-button"" onclick = ""recordClick(this)""><div class = content><div class = numbers>H</div></div></button><button id = button_4 class = ""square num-button"" onclick = ""recordClick(this)""><div class = content><div class = numbers>J</div></div></button><button id = button_5 class = ""square num-button"" onclick = ""recordClick(this)""><div class = content><div class = numbers>K</div></div></button><button id = button_6 class = ""square num-button"" onclick = ""recordClick(this)""><div class = content><div class = numbers>L</div></div></button><button id = button_7 class = ""square num-button"" onclick = ""recordClick(this)""><div class = content><div class = numbers>N</div></div></button><button id = button_8 class = ""square num-button"" onclick = ""recordClick(this)""><div class = content><div class = numbers>P</div></div></button><button id = button_9 class = ""square num-button"" onclick = ""recordClick(this)""><div class = content><div class = numbers>Q</div></div></button><button id = button_10 class = ""square num-button"" onclick = ""recordClick(this)""><div class = content><div class = numbers>R</div></div></button><button id = button_11 class = ""square num-button"" onclick = ""recordClick(this)""><div class = content><div class = numbers>S</div></div></button><button id = button_12 class = ""square num-button"" onclick = ""recordClick(this)""><div class = content><div class = numbers>Y</div></div></button><button class = clear_button id = ""ClearButton"" onclick = ""clearResponse()"">BACKSPACE</button><button class = blank_button id = ""BlankButton"" onclick = ""blankResponse()"">SKIP</button><p style=""font-size: 2.4rem""><u><b>Current Answer:</b></u></p><br><br><div id=echoed_txt style=""font-size: 5rem; color:blue;""><b></b></div></div>",enter,ospan,retrieval,NuQpVhsQ2jYm2ZCoXCxKGSzsmKP2,html-keyboard-response,67,446512,0.0-46.0-0.0-2.0-4.0,NA,NA,NA,3.0,"[""K"",""Q"",""R""]","[""K"",""Q"",""R""]",1.0,3.0,"['<font color=""green"">K</font>', '<font color=""green"">Q</font>', '<font color=""green"">R</font>']",,,,,,5cc19050dfef1a00019523b6,20:33:41,03/04/2024
1083.8999999999069,"['<p style=""font-size:44px"">Letters:<br><br><br><font color=""green"">K</font> <font color=""green"">Q</font> <font color=""green"">R</font></p><br><br>']",0,ospan,practice_feedback,NuQpVhsQ2jYm2ZCoXCxKGSzsmKP2,html-button-response,68,448109,0.0-46.0-0.0-2.0-5.0,,,,,,,,,,,,,,,5cc19050dfef1a00019523b6,20:33:41,03/04/2024
65141.89999999991,"<div class = 'left_align' style='font-size: 3.25rem; line-height: 1.3;'>Now you will practice doing the <b>symmetry judgment part</b> of the experiment.<br><br>A black and white grid picture will appear on the screen and you have to judge if it is <br>symmetrical or asymetrical.<br><br>A picture is 'mirror' symmetrical if its left half is identical to the right half when flipped.<br>Here are examples of a symmetrical and an asymetrical picture:<br><br><center><img src='Stimuli/img/symm_instructions_extra.png' style='height:420px; width:900'></img></center><br>To judge symmetry, imagine you were to fold each picture down the middle, like a book –<br>would the left half match the right half when folded onto each other?<br><br></div><br>",0,ospan,instruct,NuQpVhsQ2jYm2ZCoXCxKGSzsmKP2,html-button-response,69,513253,0.0-46.0-1.0-0.0-0.0,,,,,,,,,,,,,,,5cc19050dfef1a00019523b6,20:33:41,03/04/2024
4273.40000000014,"<div class = 'left_align' style='font-size: 3.25rem; line-height: 1.3;'>When you have viewed the picture and determined whether it is symmetrical or not,<br>you can <b>click the Yes or No button</b> below to answer.<br><br>If you take longer than 15 seconds, it will continue automatically<br>and record the answer as an error.</div><br>",0,ospan,instruct,NuQpVhsQ2jYm2ZCoXCxKGSzsmKP2,html-button-response,70,517790,0.0-46.0-1.0-0.0-1.0,,,,,,,,,,,,,,,5cc19050dfef1a00019523b6,20:33:41,03/04/2024
99474.3999999999,"<div class = 'left_align' style='font-size: 3.25rem; line-height: 1.3;'>It is <b>very</b> important that you make the symmetry judgment correctly.<br><br>It is also important that you try and judge the picture as quickly as you can.<br><br>When you are ready, click on the button below to try some practice problems.</div><br><br><br><br>",0,ospan,instruct,NuQpVhsQ2jYm2ZCoXCxKGSzsmKP2,html-button-response,71,617529,0.0-46.0-1.0-0.0-2.0,,,,,,,,,,,,,,,5cc19050dfef1a00019523b6,20:33:41,03/04/2024
2078.0,,,ospan,symmetry,NuQpVhsQ2jYm2ZCoXCxKGSzsmKP2,symmetry-judgement-task,72,620441,0.0-46.0-1.0-1.0-0.0,,,,,,,,,,1.0,1.0,,,,5cc19050dfef1a00019523b6,20:33:41,03/04/2024
,"<p style=""color:green; font-size: 35px"">Correct</p>",,ospan,feedback,NuQpVhsQ2jYm2ZCoXCxKGSzsmKP2,html-keyboard-response,73,621202,0.0-46.0-1.0-1.0-1.0,,,,,,,,,,,,,,,5cc19050dfef1a00019523b6,20:33:41,03/04/2024
1633.0,,,ospan,symmetry,NuQpVhsQ2jYm2ZCoXCxKGSzsmKP2,symmetry-judgement-task,74,625596,0.0-46.0-1.0-1.0-2.0,,,,,,,,,,1.0,1.0,,,,5cc19050dfef1a00019523b6,20:33:41,03/04/2024
,"<p style=""color:green; font-size: 35px"">Correct</p>",,ospan,feedback,NuQpVhsQ2jYm2ZCoXCxKGSzsmKP2,html-keyboard-response,75,626349,0.0-46.0-1.0-1.0-3.0,,,,,,,,,,,,,,,5cc19050dfef1a00019523b6,20:33:41,03/04/2024
2409.0,,,ospan,symmetry,NuQpVhsQ2jYm2ZCoXCxKGSzsmKP2,symmetry-judgement-task,76,631517,0.0-46.0-1.0-1.0-4.0,,,,,,,,,,1.0,1.0,,,,5cc19050dfef1a00019523b6,20:33:41,03/04/2024
,"<p style=""color:green; font-size: 35px"">Correct</p>",,ospan,feedback,NuQpVhsQ2jYm2ZCoXCxKGSzsmKP2,html-keyboard-response,77,632282,0.0-46.0-1.0-1.0-5.0,,,,,,,,,,,,,,,5cc19050dfef1a00019523b6,20:33:41,03/04/2024
5683.699999999953,"<p style=""font-size: 3rem;"">You responded correctly on 3 of 3 symmetry judgments. Good job!</p><br><br>",0,ospan,practice,NuQpVhsQ2jYm2ZCoXCxKGSzsmKP2,html-button-response,78,639979,0.0-46.0-1.0-2.0,,,,,,,,,,,,,,,5cc19050dfef1a00019523b6,20:33:41,03/04/2024
5344.0,"<div class = 'left_align' style='font-size: 3.25rem; line-height: 1.3;'>Now you will practice doing both parts of the experiment at the same time.<br><br>In the next practice set, you will be given one grid picture to judge.<br>Then letter will appear on the screen. Try to remember the letter.<br><br>It is <b>very important</b> to make the symmetry judgment as quickly and accurately as possible.<br><br>Just as before, once you have make the symmetry judgment, you can click Yes or No.<br><b>Note that you will no longer see Correct or Incorrect feedback.</div><br><br><br><br>",0,ospan,instruct,NuQpVhsQ2jYm2ZCoXCxKGSzsmKP2,html-button-response,79,645584,0.0-46.0-2.0-0.0-0.0,,,,,,,,,,,,,,,5cc19050dfef1a00019523b6,20:33:41,03/04/2024
3115.0999999998603,"<div class = 'left_align' style='font-size: 3.25rem; line-height: 1.3;'>After the letter goes away, another grid picture will appear, and then<br>another letter.<br><br>At the end of each set of letters and grids, you will recall the letters to the best<br>of your ability. Remember, try your best to get the letters in the correct order.<br><br>It is important to <b>quickly</b> and <b>accurately</b> make the symmetry judgments.</div><br><br><br><br>",0,ospan,instruct,NuQpVhsQ2jYm2ZCoXCxKGSzsmKP2,html-button-response,80,648960,0.0-46.0-2.0-0.0-1.0,,,,,,,,,,,,,,,5cc19050dfef1a00019523b6,20:33:41,03/04/2024
8018.40000000014,"<div class = 'left_align' style='font-size: 3.25rem; line-height: 1.3;'>On the feedback screen, if you are not doing well at the symmetry judgments,<br>you will also see a warning in the middle. This indicates your percent <br>correct for the grid pictures for the entire experiment.<br><br>It is <b>very</b> important for you to keep accuracy at least at 85%: <u>We can only use<br>data where the participant was at least 85% accurate on the judgments.</u> Therefore,<br> please try your best to perform well on the symmetry judgments, <b>at the same time</b><br>doing your best to recall as many letters as possible.<br><br>Click the button to try some practice problems.</div><br><br><br><br>",0,ospan,instruct,NuQpVhsQ2jYm2ZCoXCxKGSzsmKP2,html-button-response,81,657233,0.0-46.0-2.0-0.0-2.0,,,,,,,,,,,,,,,5cc19050dfef1a00019523b6,20:33:41,03/04/2024
,"<p style=""font-size:75px;"">...</p>",,ospan,iti,NuQpVhsQ2jYm2ZCoXCxKGSzsmKP2,html-keyboard-response,82,658503,0.0-46.0-2.0-1.0-0.0,,,,,,,,,,,,,,,5cc19050dfef1a00019523b6,20:33:41,03/04/2024
1755.0,,,ospan,symmetry,NuQpVhsQ2jYm2ZCoXCxKGSzsmKP2,symmetry-judgement-task,83,661488,0.0-46.0-2.0-1.0-1.0-0.0,,,,,,,,,,1.0,1.0,,,,5cc19050dfef1a00019523b6,20:33:41,03/04/2024
,"<div style=""font-size: 10rem; color: #0000FF"">J</div>",,ospan,letter,NuQpVhsQ2jYm2ZCoXCxKGSzsmKP2,html-keyboard-response,84,662502,0.0-46.0-2.0-1.0-1.0-1.0,,,,,,,,,,,,,,,5cc19050dfef1a00019523b6,20:33:41,03/04/2024
2588.0,,,ospan,symmetry,NuQpVhsQ2jYm2ZCoXCxKGSzsmKP2,symmetry-judgement-task,85,667072,0.0-46.0-2.0-1.0-1.0-2.0,,,,,,,,,,1.0,1.0,,,,5cc19050dfef1a00019523b6,20:33:41,03/04/2024
,"<div style=""font-size: 10rem; color: #0000FF"">K</div>",,ospan,letter,NuQpVhsQ2jYm2ZCoXCxKGSzsmKP2,html-keyboard-response,86,668074,0.0-46.0-2.0-1.0-1.0-3.0,,,,,,,,,,,,,,,5cc19050dfef1a00019523b6,20:33:41,03/04/2024
1507.0,,,ospan,symmetry,NuQpVhsQ2jYm2ZCoXCxKGSzsmKP2,symmetry-judgement-task,87,671586,0.0-46.0-2.0-1.0-1.0-4.0,,,,,,,,,,1.0,1.0,,,,5cc19050dfef1a00019523b6,20:33:41,03/04/2024
,"<div style=""font-size: 10rem; color: #0000FF"">R</div>",,ospan,letter,NuQpVhsQ2jYm2ZCoXCxKGSzsmKP2,html-keyboard-response,88,672597,0.0-46.0-2.0-1.0-1.0-5.0,,,,,,,,,,,,,,,5cc19050dfef1a00019523b6,20:33:41,03/04/2024
8963.800000000047,"<div class = numbox><p style=""font-size: 2.4rem"">Please recall the letters you saw to the best of your ability. If you do not remember a particular letter, use the SKIP button.<br><b>(When you are ready to lock in your answer, press ENTER)</b></p><button id = button_1 class = ""square num-button"" onclick = ""recordClick(this)""><div class = content><div class = numbers>C</div></div></button><button id = button_2 class = ""square num-button"" onclick = ""recordClick(this)""><div class = content><div class = numbers>G</div></div></button><button id = button_3 class = ""square num-button"" onclick = ""recordClick(this)""><div class = content><div class = numbers>H</div></div></button><button id = button_4 class = ""square num-button"" onclick = ""recordClick(this)""><div class = content><div class = numbers>J</div></div></button><button id = button_5 class = ""square num-button"" onclick = ""recordClick(this)""><div class = content><div class = numbers>K</div></div></button><button id = button_6 class = ""square num-button"" onclick = ""recordClick(this)""><div class = content><div class = numbers>L</div></div></button><button id = button_7 class = ""square num-button"" onclick = ""recordClick(this)""><div class = content><div class = numbers>N</div></div></button><button id = button_8 class = ""square num-button"" onclick = ""recordClick(this)""><div class = content><div class = numbers>P</div></div></button><button id = button_9 class = ""square num-button"" onclick = ""recordClick(this)""><div class = content><div class = numbers>Q</div></div></button><button id = button_10 class = ""square num-button"" onclick = ""recordClick(this)""><div class = content><div class = numbers>R</div></div></button><button id = button_11 class = ""square num-button"" onclick = ""recordClick(this)""><div class = content><div class = numbers>S</div></div></button><button id = button_12 class = ""square num-button"" onclick = ""recordClick(this)""><div class = content><div class = numbers>Y</div></div></button><button class = clear_button id = ""ClearButton"" onclick = ""clearResponse()"">BACKSPACE</button><button class = blank_button id = ""BlankButton"" onclick = ""blankResponse()"">SKIP</button><p style=""font-size: 2.4rem""><u><b>Current Answer:</b></u></p><br><br><div id=echoed_txt style=""font-size: 5rem; color:blue;""><b></b></div></div>",enter,ospan,retrieval,NuQpVhsQ2jYm2ZCoXCxKGSzsmKP2,html-keyboard-response,89,682314,0.0-46.0-2.0-1.0-2.0-0.0,NA,NA,NA,3.0,"[""J"",""K"",""R""]","[""J"",""K"",""R""]",1.0,3.0,"['<font color=""green"">J</font>', '<font color=""green"">K</font>', '<font color=""green"">R</font>']",,,,,,5cc19050dfef1a00019523b6,20:33:41,03/04/2024
1001.3000000000466,"['<p style=""font-size:44px"">Letters:<br><br><br><font color=""green"">J</font> <font color=""green"">K</font> <font color=""green"">R</font></p><br><br><p style=""font-size:30px"">Symmetry:<br><br><font color=""green"">100%</font></p><br><br>']",0,ospan,practice_feedback,NuQpVhsQ2jYm2ZCoXCxKGSzsmKP2,html-button-response,90,683825,0.0-46.0-2.0-1.0-2.0-1.0,,,,,,,,,,,,,,,5cc19050dfef1a00019523b6,20:33:41,03/04/2024
,"<p style=""font-size:75px;"">...</p>",,ospan,iti,NuQpVhsQ2jYm2ZCoXCxKGSzsmKP2,html-keyboard-response,91,684832,0.0-46.0-2.0-2.0-0.0,,,,,,,,,,,,,,,5cc19050dfef1a00019523b6,20:33:41,03/04/2024
1606.0,,,ospan,symmetry,NuQpVhsQ2jYm2ZCoXCxKGSzsmKP2,symmetry-judgement-task,92,687693,0.0-46.0-2.0-2.0-1.0-0.0,,,,,,,,,,1.0,1.0,,,,5cc19050dfef1a00019523b6,20:33:41,03/04/2024
,"<div style=""font-size: 10rem; color: #0000FF"">Q</div>",,ospan,letter,NuQpVhsQ2jYm2ZCoXCxKGSzsmKP2,html-keyboard-response,93,688708,0.0-46.0-2.0-2.0-1.0-1.0,,,,,,,,,,,,,,,5cc19050dfef1a00019523b6,20:33:41,03/04/2024
1455.0,,,ospan,symmetry,NuQpVhsQ2jYm2ZCoXCxKGSzsmKP2,symmetry-judgement-task,94,692166,0.0-46.0-2.0-2.0-1.0-2.0,,,,,,,,,,1.0,1.0,,,,5cc19050dfef1a00019523b6,20:33:41,03/04/2024
,"<div style=""font-size: 10rem; color: #0000FF"">G</div>",,ospan,letter,NuQpVhsQ2jYm2ZCoXCxKGSzsmKP2,html-keyboard-response,95,693170,0.0-46.0-2.0-2.0-1.0-3.0,,,,,,,,,,,,,,,5cc19050dfef1a00019523b6,20:33:41,03/04/2024
1950.0,,,ospan,symmetry,NuQpVhsQ2jYm2ZCoXCxKGSzsmKP2,symmetry-judgement-task,96,697167,0.0-46.0-2.0-2.0-1.0-4.0,,,,,,,,,,1.0,1.0,,,,5cc19050dfef1a00019523b6,20:33:41,03/04/2024
,"<div style=""font-size: 10rem; color: #0000FF"">K</div>",,ospan,letter,NuQpVhsQ2jYm2ZCoXCxKGSzsmKP2,html-keyboard-response,97,698170,0.0-46.0-2.0-2.0-1.0-5.0,,,,,,,,,,,,,,,5cc19050dfef1a00019523b6,20:33:41,03/04/2024
4580.699999999953,"<div class = numbox><p style=""font-size: 2.4rem"">Please recall the letters you saw to the best of your ability. If you do not remember a particular letter, use the SKIP button.<br><b>(When you are ready to lock in your answer, press ENTER)</b></p><button id = button_1 class = ""square num-button"" onclick = ""recordClick(this)""><div class = content><div class = numbers>C</div></div></button><button id = button_2 class = ""square num-button"" onclick = ""recordClick(this)""><div class = content><div class = numbers>G</div></div></button><button id = button_3 class = ""square num-button"" onclick = ""recordClick(this)""><div class = content><div class = numbers>H</div></div></button><button id = button_4 class = ""square num-button"" onclick = ""recordClick(this)""><div class = content><div class = numbers>J</div></div></button><button id = button_5 class = ""square num-button"" onclick = ""recordClick(this)""><div class = content><div class = numbers>K</div></div></button><button id = button_6 class = ""square num-button"" onclick = ""recordClick(this)""><div class = content><div class = numbers>L</div></div></button><button id = button_7 class = ""square num-button"" onclick = ""recordClick(this)""><div class = content><div class = numbers>N</div></div></button><button id = button_8 class = ""square num-button"" onclick = ""recordClick(this)""><div class = content><div class = numbers>P</div></div></button><button id = button_9 class = ""square num-button"" onclick = ""recordClick(this)""><div class = content><div class = numbers>Q</div></div></button><button id = button_10 class = ""square num-button"" onclick = ""recordClick(this)""><div class = content><div class = numbers>R</div></div></button><button id = button_11 class = ""square num-button"" onclick = ""recordClick(this)""><div class = content><div class = numbers>S</div></div></button><button id = button_12 class = ""square num-button"" onclick = ""recordClick(this)""><div class = content><div class = numbers>Y</div></div></button><button class = clear_button id = ""ClearButton"" onclick = ""clearResponse()"">BACKSPACE</button><button class = blank_button id = ""BlankButton"" onclick = ""blankResponse()"">SKIP</button><p style=""font-size: 2.4rem""><u><b>Current Answer:</b></u></p><br><br><div id=echoed_txt style=""font-size: 5rem; color:blue;""><b></b></div></div>",enter,ospan,retrieval,NuQpVhsQ2jYm2ZCoXCxKGSzsmKP2,html-keyboard-response,98,703501,0.0-46.0-2.0-2.0-2.0-0.0,NA,NA,NA,3.0,"[""Q"",""G"",""K""]","[""Q"",""G"",""K""]",1.0,3.0,"['<font color=""green"">Q</font>', '<font color=""green"">G</font>', '<font color=""green"">K</font>']",,,,,,5cc19050dfef1a00019523b6,20:33:41,03/04/2024
1249.4000000001397,"['<p style=""font-size:44px"">Letters:<br><br><br><font color=""green"">Q</font> <font color=""green"">G</font> <font color=""green"">K</font></p><br><br><p style=""font-size:30px"">Symmetry:<br><br><font color=""green"">100%</font></p><br><br>']",0,ospan,practice_feedback,NuQpVhsQ2jYm2ZCoXCxKGSzsmKP2,html-button-response,99,705253,0.0-46.0-2.0-2.0-2.0-1.0,,,,,,,,,,,,,,,5cc19050dfef1a00019523b6,20:33:41,03/04/2024
3115.100000000093,"<div class = 'left_align' style='font-size: 3rem; line-height: 1.3;'><b>Great work! That is the end of practice.</b><br><br>The real trials will look just like the practice trials you just completed.<br><br><u>Here, you will not see feedback</u>. First, you will see an grid picture to judge,<br>then a letter to remember. When the recall screen appears, report the letters in the<br>order presented. If you forget a letter, remember to use the <b>blank</b> button to move to the<br>next letter. Some of the sets will have more symmetry grids and letters than others.<br><br>It is important that you do your best on both the symmetry judgments and the letter recall<br>parts of the experiment. For for the symmetry judgments, try to work as <b>quickly</b> and <br>as <b>accurately</b> as possible. Remember to keep your symmetry accuracy at 85% or above.<br><br><b>For the letters, do NOT use any external aid (e.g., writing on paper, electronic device).</b><br><br>It is <u>very important</u> to our experiment to have a <b>true</b> view of your real performance.<br><br>Do not worry if you miss some when it gets hard! This task is meant to be very challenging!<br><br>Click the button to begin.</div><br><br><br><br>",0,ospan,starting_real_here,NuQpVhsQ2jYm2ZCoXCxKGSzsmKP2,html-button-response,100,708371,0.0-46.0-2.0-3.0,,,,,,,,,,,,,,,5cc19050dfef1a00019523b6,20:33:41,03/04/2024
,"<p style=""font-size:75px;"">...</p>",,ospan,iti,NuQpVhsQ2jYm2ZCoXCxKGSzsmKP2,html-keyboard-response,101,709632,0.0-46.0-3.0-0.0-0.0,,,,,,,,,,,,,,,5cc19050dfef1a00019523b6,20:33:41,03/04/2024
1625.0,,,ospan,symmetry,NuQpVhsQ2jYm2ZCoXCxKGSzsmKP2,symmetry-judgement-task,102,712519,0.0-46.0-3.0-0.0-1.0-0.0,,,,,,,,,,1.0,1.0,,,,5cc19050dfef1a00019523b6,20:33:41,03/04/2024
,"<div style=""font-size: 10rem; color: #0000FF"">H</div>",,ospan,letter,NuQpVhsQ2jYm2ZCoXCxKGSzsmKP2,html-keyboard-response,103,713535,0.0-46.0-3.0-0.0-1.0-1.0,,,,,,,,,,,,,,,5cc19050dfef1a00019523b6,20:33:41,03/04/2024
1211.0,,,ospan,symmetry,NuQpVhsQ2jYm2ZCoXCxKGSzsmKP2,symmetry-judgement-task,104,716734,0.0-46.0-3.0-0.0-1.0-2.0,,,,,,,,,,1.0,1.0,,,,5cc19050dfef1a00019523b6,20:33:41,03/04/2024
,"<div style=""font-size: 10rem; color: #0000FF"">N</div>",,ospan,letter,NuQpVhsQ2jYm2ZCoXCxKGSzsmKP2,html-keyboard-response,105,717748,0.0-46.0-3.0-0.0-1.0-3.0,,,,,,,,,,,,,,,5cc19050dfef1a00019523b6,20:33:41,03/04/2024
1672.0,,,ospan,symmetry,NuQpVhsQ2jYm2ZCoXCxKGSzsmKP2,symmetry-judgement-task,106,721420,0.0-46.0-3.0-0.0-1.0-4.0,,,,,,,,,,1.0,1.0,,,,5cc19050dfef1a00019523b6,20:33:41,03/04/2024
,"<div style=""font-size: 10rem; color: #0000FF"">Q</div>",,ospan,letter,NuQpVhsQ2jYm2ZCoXCxKGSzsmKP2,html-keyboard-response,107,722431,0.0-46.0-3.0-0.0-1.0-5.0,,,,,,,,,,,,,,,5cc19050dfef1a00019523b6,20:33:41,03/04/2024
3175.5,"<div class = numbox><p style=""font-size: 2.4rem"">Please recall the letters you saw to the best of your ability. If you do not remember a particular letter, use the SKIP button.<br><b>(When you are ready to lock in your answer, press ENTER)</b></p><button id = button_1 class = ""square num-button"" onclick = ""recordClick(this)""><div class = content><div class = numbers>C</div></div></button><button id = button_2 class = ""square num-button"" onclick = ""recordClick(this)""><div class = content><div class = numbers>G</div></div></button><button id = button_3 class = ""square num-button"" onclick = ""recordClick(this)""><div class = content><div class = numbers>H</div></div></button><button id = button_4 class = ""square num-button"" onclick = ""recordClick(this)""><div class = content><div class = numbers>J</div></div></button><button id = button_5 class = ""square num-button"" onclick = ""recordClick(this)""><div class = content><div class = numbers>K</div></div></button><button id = button_6 class = ""square num-button"" onclick = ""recordClick(this)""><div class = content><div class = numbers>L</div></div></button><button id = button_7 class = ""square num-button"" onclick = ""recordClick(this)""><div class = content><div class = numbers>N</div></div></button><button id = button_8 class = ""square num-button"" onclick = ""recordClick(this)""><div class = content><div class = numbers>P</div></div></button><button id = button_9 class = ""square num-button"" onclick = ""recordClick(this)""><div class = content><div class = numbers>Q</div></div></button><button id = button_10 class = ""square num-button"" onclick = ""recordClick(this)""><div class = content><div class = numbers>R</div></div></button><button id = button_11 class = ""square num-button"" onclick = ""recordClick(this)""><div class = content><div class = numbers>S</div></div></button><button id = button_12 class = ""square num-button"" onclick = ""recordClick(this)""><div class = content><div class = numbers>Y</div></div></button><button class = clear_button id = ""ClearButton"" onclick = ""clearResponse()"">BACKSPACE</button><button class = blank_button id = ""BlankButton"" onclick = ""blankResponse()"">SKIP</button><p style=""font-size: 2.4rem""><u><b>Current Answer:</b></u></p><br><br><div id=echoed_txt style=""font-size: 5rem; color:blue;""><b></b></div></div>",enter,ospan,retrieval,NuQpVhsQ2jYm2ZCoXCxKGSzsmKP2,html-keyboard-response,108,726366,0.0-46.0-3.0-0.0-2.0,3,3,3,3.0,"[""H"",""N"",""Q""]","[""H"",""N"",""Q""]",1.0,3.0,,,,,,,5cc19050dfef1a00019523b6,20:33:41,03/04/2024
1361.8999999999069,[''],0,ospan,feedback,NuQpVhsQ2jYm2ZCoXCxKGSzsmKP2,html-button-response,109,728231,0.0-46.0-3.0-0.0-3.0,,,,,,,,,,,,100.0,0.0,,5cc19050dfef1a00019523b6,20:33:41,03/04/2024
,"<p style=""font-size:75px;"">...</p>",,ospan,iti,NuQpVhsQ2jYm2ZCoXCxKGSzsmKP2,html-keyboard-response,110,729237,0.0-46.0-4.0-0.0-0.0,,,,,,,,,,,,,,,5cc19050dfef1a00019523b6,20:33:41,03/04/2024
1701.0,,,ospan,symmetry,NuQpVhsQ2jYm2ZCoXCxKGSzsmKP2,symmetry-judgement-task,111,732186,0.0-46.0-4.0-0.0-1.0-0.0,,,,,,,,,,1.0,1.0,,,,5cc19050dfef1a00019523b6,20:33:41,03/04/2024
,"<div style=""font-size: 10rem; color: #0000FF"">C</div>",,ospan,letter,NuQpVhsQ2jYm2ZCoXCxKGSzsmKP2,html-keyboard-response,112,733202,0.0-46.0-4.0-0.0-1.0-1.0,,,,,,,,,,,,,,,5cc19050dfef1a00019523b6,20:33:41,03/04/2024
1628.0,,,ospan,symmetry,NuQpVhsQ2jYm2ZCoXCxKGSzsmKP2,symmetry-judgement-task,113,736909,0.0-46.0-4.0-0.0-1.0-2.0,,,,,,,,,,1.0,1.0,,,,5cc19050dfef1a00019523b6,20:33:41,03/04/2024
,"<div style=""font-size: 10rem; color: #0000FF"">N</div>",,ospan,letter,NuQpVhsQ2jYm2ZCoXCxKGSzsmKP2,html-keyboard-response,114,737924,0.0-46.0-4.0-0.0-1.0-3.0,,,,,,,,,,,,,,,5cc19050dfef1a00019523b6,20:33:41,03/04/2024
1295.0,,,ospan,symmetry,NuQpVhsQ2jYm2ZCoXCxKGSzsmKP2,symmetry-judgement-task,115,741240,0.0-46.0-4.0-0.0-1.0-4.0,,,,,,,,,,1.0,1.0,,,,5cc19050dfef1a00019523b6,20:33:41,03/04/2024
,"<div style=""font-size: 10rem; color: #0000FF"">R</div>",,ospan,letter,NuQpVhsQ2jYm2ZCoXCxKGSzsmKP2,html-keyboard-response,116,742241,0.0-46.0-4.0-0.0-1.0-5.0,,,,,,,,,,,,,,,5cc19050dfef1a00019523b6,20:33:41,03/04/2024
2941.0,,,ospan,symmetry,NuQpVhsQ2jYm2ZCoXCxKGSzsmKP2,symmetry-judgement-task,117,747277,0.0-46.0-4.0-0.0-1.0-6.0,,,,,,,,,,1.0,1.0,,,,5cc19050dfef1a00019523b6,20:33:41,03/04/2024
,"<div style=""font-size: 10rem; color: #0000FF"">P</div>",,ospan,letter,NuQpVhsQ2jYm2ZCoXCxKGSzsmKP2,html-keyboard-response,118,748285,0.0-46.0-4.0-0.0-1.0-7.0,,,,,,,,,,,,,,,5cc19050dfef1a00019523b6,20:33:41,03/04/2024
4792.399999999907,"<div class = numbox><p style=""font-size: 2.4rem"">Please recall the letters you saw to the best of your ability. If you do not remember a particular letter, use the SKIP button.<br><b>(When you are ready to lock in your answer, press ENTER)</b></p><button id = button_1 class = ""square num-button"" onclick = ""recordClick(this)""><div class = content><div class = numbers>C</div></div></button><button id = button_2 class = ""square num-button"" onclick = ""recordClick(this)""><div class = content><div class = numbers>G</div></div></button><button id = button_3 class = ""square num-button"" onclick = ""recordClick(this)""><div class = content><div class = numbers>H</div></div></button><button id = button_4 class = ""square num-button"" onclick = ""recordClick(this)""><div class = content><div class = numbers>J</div></div></button><button id = button_5 class = ""square num-button"" onclick = ""recordClick(this)""><div class = content><div class = numbers>K</div></div></button><button id = button_6 class = ""square num-button"" onclick = ""recordClick(this)""><div class = content><div class = numbers>L</div></div></button><button id = button_7 class = ""square num-button"" onclick = ""recordClick(this)""><div class = content><div class = numbers>N</div></div></button><button id = button_8 class = ""square num-button"" onclick = ""recordClick(this)""><div class = content><div class = numbers>P</div></div></button><button id = button_9 class = ""square num-button"" onclick = ""recordClick(this)""><div class = content><div class = numbers>Q</div></div></button><button id = button_10 class = ""square num-button"" onclick = ""recordClick(this)""><div class = content><div class = numbers>R</div></div></button><button id = button_11 class = ""square num-button"" onclick = ""recordClick(this)""><div class = content><div class = numbers>S</div></div></button><button id = button_12 class = ""square num-button"" onclick = ""recordClick(this)""><div class = content><div class = numbers>Y</div></div></button><button class = clear_button id = ""ClearButton"" onclick = ""clearResponse()"">BACKSPACE</button><button class = blank_button id = ""BlankButton"" onclick = ""blankResponse()"">SKIP</button><p style=""font-size: 2.4rem""><u><b>Current Answer:</b></u></p><br><br><div id=echoed_txt style=""font-size: 5rem; color:blue;""><b></b></div></div>",enter,ospan,retrieval,NuQpVhsQ2jYm2ZCoXCxKGSzsmKP2,html-keyboard-response,119,753845,0.0-46.0-4.0-0.0-2.0,7,7,7,4.0,"[""C"",""N"",""R"",""P""]","[""C"",""N"",""R"",""P""]",1.0,4.0,,,,,,,5cc19050dfef1a00019523b6,20:33:41,03/04/2024
846.5999999998603,[''],0,ospan,feedback,NuQpVhsQ2jYm2ZCoXCxKGSzsmKP2,html-button-response,120,755204,0.0-46.0-4.0-0.0-3.0,,,,,,,,,,,,100.0,0.0,,5cc19050dfef1a00019523b6,20:33:41,03/04/2024
,"<p style=""font-size:75px;"">...</p>",,ospan,iti,NuQpVhsQ2jYm2ZCoXCxKGSzsmKP2,html-keyboard-response,121,756217,0.0-46.0-4.0-1.0-0.0,,,,,,,,,,,,,,,5cc19050dfef1a00019523b6,20:33:41,03/04/2024
1221.0,,,ospan,symmetry,NuQpVhsQ2jYm2ZCoXCxKGSzsmKP2,symmetry-judgement-task,122,758687,0.0-46.0-4.0-1.0-1.0-0.0,,,,,,,,,,1.0,1.0,,,,5cc19050dfef1a00019523b6,20:33:41,03/04/2024
,"<div style=""font-size: 10rem; color: #0000FF"">L</div>",,ospan,letter,NuQpVhsQ2jYm2ZCoXCxKGSzsmKP2,html-keyboard-response,123,759700,0.0-46.0-4.0-1.0-1.0-1.0,,,,,,,,,,,,,,,5cc19050dfef1a00019523b6,20:33:41,03/04/2024
1069.0,,,ospan,symmetry,NuQpVhsQ2jYm2ZCoXCxKGSzsmKP2,symmetry-judgement-task,124,762805,0.0-46.0-4.0-1.0-1.0-2.0,,,,,,,,,,1.0,1.0,,,,5cc19050dfef1a00019523b6,20:33:41,03/04/2024
,"<div style=""font-size: 10rem; color: #0000FF"">G</div>",,ospan,letter,NuQpVhsQ2jYm2ZCoXCxKGSzsmKP2,html-keyboard-response,125,763813,0.0-46.0-4.0-1.0-1.0-3.0,,,,,,,,,,,,,,,5cc19050dfef1a00019523b6,20:33:41,03/04/2024
1605.0,,,ospan,symmetry,NuQpVhsQ2jYm2ZCoXCxKGSzsmKP2,symmetry-judgement-task,126,767570,0.0-46.0-4.0-1.0-1.0-4.0,,,,,,,,,,1.0,1.0,,,,5cc19050dfef1a00019523b6,20:33:41,03/04/2024
,"<div style=""font-size: 10rem; color: #0000FF"">R</div>",,ospan,letter,NuQpVhsQ2jYm2ZCoXCxKGSzsmKP2,html-keyboard-response,127,768586,0.0-46.0-4.0-1.0-1.0-5.0,,,,,,,,,,,,,,,5cc19050dfef1a00019523b6,20:33:41,03/04/2024
1918.0,,,ospan,symmetry,NuQpVhsQ2jYm2ZCoXCxKGSzsmKP2,symmetry-judgement-task,128,772541,0.0-46.0-4.0-1.0-1.0-6.0,,,,,,,,,,1.0,1.0,,,,5cc19050dfef1a00019523b6,20:33:41,03/04/2024
,"<div style=""font-size: 10rem; color: #0000FF"">H</div>",,ospan,letter,NuQpVhsQ2jYm2ZCoXCxKGSzsmKP2,html-keyboard-response,129,773543,0.0-46.0-4.0-1.0-1.0-7.0,,,,,,,,,,,,,,,5cc19050dfef1a00019523b6,20:33:41,03/04/2024
1007.0,,,ospan,symmetry,NuQpVhsQ2jYm2ZCoXCxKGSzsmKP2,symmetry-judgement-task,130,776673,0.0-46.0-4.0-1.0-1.0-8.0,,,,,,,,,,1.0,1.0,,,,5cc19050dfef1a00019523b6,20:33:41,03/04/2024
,"<div style=""font-size: 10rem; color: #0000FF"">Y</div>",,ospan,letter,NuQpVhsQ2jYm2ZCoXCxKGSzsmKP2,html-keyboard-response,131,777675,0.0-46.0-4.0-1.0-1.0-9.0,,,,,,,,,,,,,,,5cc19050dfef1a00019523b6,20:33:41,03/04/2024
5012.800000000047,"<div class = numbox><p style=""font-size: 2.4rem"">Please recall the letters you saw to the best of your ability. If you do not remember a particular letter, use the SKIP button.<br><b>(When you are ready to lock in your answer, press ENTER)</b></p><button id = button_1 class = ""square num-button"" onclick = ""recordClick(this)""><div class = content><div class = numbers>C</div></div></button><button id = button_2 class = ""square num-button"" onclick = ""recordClick(this)""><div class = content><div class = numbers>G</div></div></button><button id = button_3 class = ""square num-button"" onclick = ""recordClick(this)""><div class = content><div class = numbers>H</div></div></button><button id = button_4 class = ""square num-button"" onclick = ""recordClick(this)""><div class = content><div class = numbers>J</div></div></button><button id = button_5 class = ""square num-button"" onclick = ""recordClick(this)""><div class = content><div class = numbers>K</div></div></button><button id = button_6 class = ""square num-button"" onclick = ""recordClick(this)""><div class = content><div class = numbers>L</div></div></button><button id = button_7 class = ""square num-button"" onclick = ""recordClick(this)""><div class = content><div class = numbers>N</div></div></button><button id = button_8 class = ""square num-button"" onclick = ""recordClick(this)""><div class = content><div class = numbers>P</div></div></button><button id = button_9 class = ""square num-button"" onclick = ""recordClick(this)""><div class = content><div class = numbers>Q</div></div></button><button id = button_10 class = ""square num-button"" onclick = ""recordClick(this)""><div class = content><div class = numbers>R</div></div></button><button id = button_11 class = ""square num-button"" onclick = ""recordClick(this)""><div class = content><div class = numbers>S</div></div></button><button id = button_12 class = ""square num-button"" onclick = ""recordClick(this)""><div class = content><div class = numbers>Y</div></div></button><button class = clear_button id = ""ClearButton"" onclick = ""clearResponse()"">BACKSPACE</button><button class = blank_button id = ""BlankButton"" onclick = ""blankResponse()"">SKIP</button><p style=""font-size: 2.4rem""><u><b>Current Answer:</b></u></p><br><br><div id=echoed_txt style=""font-size: 5rem; color:blue;""><b></b></div></div>",enter,ospan,retrieval,NuQpVhsQ2jYm2ZCoXCxKGSzsmKP2,html-keyboard-response,132,783452,0.0-46.0-4.0-1.0-2.0,12,12,12,5.0,"[""L"",""G"",""R"",""H"",""Y""]","[""L"",""G"",""R"",""H"",""Y""]",1.0,5.0,,,,,,,5cc19050dfef1a00019523b6,20:33:41,03/04/2024
2709.0999999998603,[''],0,ospan,feedback,NuQpVhsQ2jYm2ZCoXCxKGSzsmKP2,html-button-response,133,786663,0.0-46.0-4.0-1.0-3.0,,,,,,,,,,,,100.0,0.0,,5cc19050dfef1a00019523b6,20:33:41,03/04/2024
,"<p style=""font-size:75px;"">...</p>",,ospan,iti,NuQpVhsQ2jYm2ZCoXCxKGSzsmKP2,html-keyboard-response,134,787676,0.0-46.0-4.0-2.0-0.0,,,,,,,,,,,,,,,5cc19050dfef1a00019523b6,20:33:41,03/04/2024
2115.0,,,ospan,symmetry,NuQpVhsQ2jYm2ZCoXCxKGSzsmKP2,symmetry-judgement-task,135,791070,0.0-46.0-4.0-2.0-1.0-0.0,,,,,,,,,,1.0,1.0,,,,5cc19050dfef1a00019523b6,20:33:41,03/04/2024
,"<div style=""font-size: 10rem; color: #0000FF"">Y</div>",,ospan,letter,NuQpVhsQ2jYm2ZCoXCxKGSzsmKP2,html-keyboard-response,136,792085,0.0-46.0-4.0-2.0-1.0-1.0,,,,,,,,,,,,,,,5cc19050dfef1a00019523b6,20:33:41,03/04/2024
1087.0,,,ospan,symmetry,NuQpVhsQ2jYm2ZCoXCxKGSzsmKP2,symmetry-judgement-task,137,795207,0.0-46.0-4.0-2.0-1.0-2.0,,,,,,,,,,1.0,1.0,,,,5cc19050dfef1a00019523b6,20:33:41,03/04/2024
,"<div style=""font-size: 10rem; color: #0000FF"">G</div>",,ospan,letter,NuQpVhsQ2jYm2ZCoXCxKGSzsmKP2,html-keyboard-response,138,796221,0.0-46.0-4.0-2.0-1.0-3.0,,,,,,,,,,,,,,,5cc19050dfef1a00019523b6,20:33:41,03/04/2024
1832.0,,,ospan,symmetry,NuQpVhsQ2jYm2ZCoXCxKGSzsmKP2,symmetry-judgement-task,139,800055,0.0-46.0-4.0-2.0-1.0-4.0,,,,,,,,,,1.0,1.0,,,,5cc19050dfef1a00019523b6,20:33:41,03/04/2024
,"<div style=""font-size: 10rem; color: #0000FF"">J</div>",,ospan,letter,NuQpVhsQ2jYm2ZCoXCxKGSzsmKP2,html-keyboard-response,140,801067,0.0-46.0-4.0-2.0-1.0-5.0,,,,,,,,,,,,,,,5cc19050dfef1a00019523b6,20:33:41,03/04/2024
4794.100000000093,"<div class = numbox><p style=""font-size: 2.4rem"">Please recall the letters you saw to the best of your ability. If you do not remember a particular letter, use the SKIP button.<br><b>(When you are ready to lock in your answer, press ENTER)</b></p><button id = button_1 class = ""square num-button"" onclick = ""recordClick(this)""><div class = content><div class = numbers>C</div></div></button><button id = button_2 class = ""square num-button"" onclick = ""recordClick(this)""><div class = content><div class = numbers>G</div></div></button><button id = button_3 class = ""square num-button"" onclick = ""recordClick(this)""><div class = content><div class = numbers>H</div></div></button><button id = button_4 class = ""square num-button"" onclick = ""recordClick(this)""><div class = content><div class = numbers>J</div></div></button><button id = button_5 class = ""square num-button"" onclick = ""recordClick(this)""><div class = content><div class = numbers>K</div></div></button><button id = button_6 class = ""square num-button"" onclick = ""recordClick(this)""><div class = content><div class = numbers>L</div></div></button><button id = button_7 class = ""square num-button"" onclick = ""recordClick(this)""><div class = content><div class = numbers>N</div></div></button><button id = button_8 class = ""square num-button"" onclick = ""recordClick(this)""><div class = content><div class = numbers>P</div></div></button><button id = button_9 class = ""square num-button"" onclick = ""recordClick(this)""><div class = content><div class = numbers>Q</div></div></button><button id = button_10 class = ""square num-button"" onclick = ""recordClick(this)""><div class = content><div class = numbers>R</div></div></button><button id = button_11 class = ""square num-button"" onclick = ""recordClick(this)""><div class = content><div class = numbers>S</div></div></button><button id = button_12 class = ""square num-button"" onclick = ""recordClick(this)""><div class = content><div class = numbers>Y</div></div></button><button class = clear_button id = ""ClearButton"" onclick = ""clearResponse()"">BACKSPACE</button><button class = blank_button id = ""BlankButton"" onclick = ""blankResponse()"">SKIP</button><p style=""font-size: 2.4rem""><u><b>Current Answer:</b></u></p><br><br><div id=echoed_txt style=""font-size: 5rem; color:blue;""><b></b></div></div>",enter,ospan,retrieval,NuQpVhsQ2jYm2ZCoXCxKGSzsmKP2,html-keyboard-response,141,806627,0.0-46.0-4.0-2.0-2.0,15,15,15,3.0,"[""Y"",""G"",""J""]","[""Y"",""G"",""J""]",1.0,3.0,,,,,,,5cc19050dfef1a00019523b6,20:33:41,03/04/2024
1603.8000000000466,[''],0,ospan,feedback,NuQpVhsQ2jYm2ZCoXCxKGSzsmKP2,html-button-response,142,808736,0.0-46.0-4.0-2.0-3.0,,,,,,,,,,,,100.0,0.0,,5cc19050dfef1a00019523b6,20:33:41,03/04/2024
,"<p style=""font-size:75px;"">...</p>",,ospan,iti,NuQpVhsQ2jYm2ZCoXCxKGSzsmKP2,html-keyboard-response,143,809745,0.0-46.0-5.0-0.0-0.0,,,,,,,,,,,,,,,5cc19050dfef1a00019523b6,20:33:41,03/04/2024
1335.0,,,ospan,symmetry,NuQpVhsQ2jYm2ZCoXCxKGSzsmKP2,symmetry-judgement-task,144,812327,0.0-46.0-5.0-0.0-1.0-0.0,,,,,,,,,,1.0,1.0,,,,5cc19050dfef1a00019523b6,20:33:41,03/04/2024
,"<div style=""font-size: 10rem; color: #0000FF"">J</div>",,ospan,letter,NuQpVhsQ2jYm2ZCoXCxKGSzsmKP2,html-keyboard-response,145,813339,0.0-46.0-5.0-0.0-1.0-1.0,,,,,,,,,,,,,,,5cc19050dfef1a00019523b6,20:33:41,03/04/2024
1244.0,,,ospan,symmetry,NuQpVhsQ2jYm2ZCoXCxKGSzsmKP2,symmetry-judgement-task,146,816396,0.0-46.0-5.0-0.0-1.0-2.0,,,,,,,,,,1.0,1.0,,,,5cc19050dfef1a00019523b6,20:33:41,03/04/2024
,"<div style=""font-size: 10rem; color: #0000FF"">C</div>",,ospan,letter,NuQpVhsQ2jYm2ZCoXCxKGSzsmKP2,html-keyboard-response,147,817398,0.0-46.0-5.0-0.0-1.0-3.0,,,,,,,,,,,,,,,5cc19050dfef1a00019523b6,20:33:41,03/04/2024
1309.0,,,ospan,symmetry,NuQpVhsQ2jYm2ZCoXCxKGSzsmKP2,symmetry-judgement-task,148,820715,0.0-46.0-5.0-0.0-1.0-4.0,,,,,,,,,,1.0,1.0,,,,5cc19050dfef1a00019523b6,20:33:41,03/04/2024
,"<div style=""font-size: 10rem; color: #0000FF"">P</div>",,ospan,letter,NuQpVhsQ2jYm2ZCoXCxKGSzsmKP2,html-keyboard-response,149,821716,0.0-46.0-5.0-0.0-1.0-5.0,,,,,,,,,,,,,,,5cc19050dfef1a00019523b6,20:33:41,03/04/2024
1503.0,,,ospan,symmetry,NuQpVhsQ2jYm2ZCoXCxKGSzsmKP2,symmetry-judgement-task,150,825243,0.0-46.0-5.0-0.0-1.0-6.0,,,,,,,,,,1.0,1.0,,,,5cc19050dfef1a00019523b6,20:33:41,03/04/2024
,"<div style=""font-size: 10rem; color: #0000FF"">L</div>",,ospan,letter,NuQpVhsQ2jYm2ZCoXCxKGSzsmKP2,html-keyboard-response,151,826255,0.0-46.0-5.0-0.0-1.0-7.0,,,,,,,,,,,,,,,5cc19050dfef1a00019523b6,20:33:41,03/04/2024
1336.0,,,ospan,symmetry,NuQpVhsQ2jYm2ZCoXCxKGSzsmKP2,symmetry-judgement-task,152,829619,0.0-46.0-5.0-0.0-1.0-8.0,,,,,,,,,,1.0,1.0,,,,5cc19050dfef1a00019523b6,20:33:41,03/04/2024
,"<div style=""font-size: 10rem; color: #0000FF"">G</div>",,ospan,letter,NuQpVhsQ2jYm2ZCoXCxKGSzsmKP2,html-keyboard-response,153,830621,0.0-46.0-5.0-0.0-1.0-9.0,,,,,,,,,,,,,,,5cc19050dfef1a00019523b6,20:33:41,03/04/2024
1156.0,,,ospan,symmetry,NuQpVhsQ2jYm2ZCoXCxKGSzsmKP2,symmetry-judgement-task,154,833780,0.0-46.0-5.0-0.0-1.0-10.0,,,,,,,,,,1.0,1.0,,,,5cc19050dfef1a00019523b6,20:33:41,03/04/2024
,"<div style=""font-size: 10rem; color: #0000FF"">Q</div>",,ospan,letter,NuQpVhsQ2jYm2ZCoXCxKGSzsmKP2,html-keyboard-response,155,834795,0.0-46.0-5.0-0.0-1.0-11.0,,,,,,,,,,,,,,,5cc19050dfef1a00019523b6,20:33:41,03/04/2024
9352.699999999953,"<div class = numbox><p style=""font-size: 2.4rem"">Please recall the letters you saw to the best of your ability. If you do not remember a particular letter, use the SKIP button.<br><b>(When you are ready to lock in your answer, press ENTER)</b></p><button id = button_1 class = ""square num-button"" onclick = ""recordClick(this)""><div class = content><div class = numbers>C</div></div></button><button id = button_2 class = ""square num-button"" onclick = ""recordClick(this)""><div class = content><div class = numbers>G</div></div></button><button id = button_3 class = ""square num-button"" onclick = ""recordClick(this)""><div class = content><div class = numbers>H</div></div></button><button id = button_4 class = ""square num-button"" onclick = ""recordClick(this)""><div class = content><div class = numbers>J</div></div></button><button id = button_5 class = ""square num-button"" onclick = ""recordClick(this)""><div class = content><div class = numbers>K</div></div></button><button id = button_6 class = ""square num-button"" onclick = ""recordClick(this)""><div class = content><div class = numbers>L</div></div></button><button id = button_7 class = ""square num-button"" onclick = ""recordClick(this)""><div class = content><div class = numbers>N</div></div></button><button id = button_8 class = ""square num-button"" onclick = ""recordClick(this)""><div class = content><div class = numbers>P</div></div></button><button id = button_9 class = ""square num-button"" onclick = ""recordClick(this)""><div class = content><div class = numbers>Q</div></div></button><button id = button_10 class = ""square num-button"" onclick = ""recordClick(this)""><div class = content><div class = numbers>R</div></div></button><button id = button_11 class = ""square num-button"" onclick = ""recordClick(this)""><div class = content><div class = numbers>S</div></div></button><button id = button_12 class = ""square num-button"" onclick = ""recordClick(this)""><div class = content><div class = numbers>Y</div></div></button><button class = clear_button id = ""ClearButton"" onclick = ""clearResponse()"">BACKSPACE</button><button class = blank_button id = ""BlankButton"" onclick = ""blankResponse()"">SKIP</button><p style=""font-size: 2.4rem""><u><b>Current Answer:</b></u></p><br><br><div id=echoed_txt style=""font-size: 5rem; color:blue;""><b></b></div></div>",enter,ospan,retrieval,NuQpVhsQ2jYm2ZCoXCxKGSzsmKP2,html-keyboard-response,156,844915,0.0-46.0-5.0-0.0-2.0,21,18,15,6.0,"[""J"",""_"",""Q"",""L"",""G"",""P""]","[""J"",""C"",""P"",""L"",""G"",""Q""]",0.0,3.0,,,,,,,5cc19050dfef1a00019523b6,20:33:41,03/04/2024
942.8000000000466,[''],0,ospan,feedback,NuQpVhsQ2jYm2ZCoXCxKGSzsmKP2,html-button-response,157,846363,0.0-46.0-5.0-0.0-3.0,,,,,,,,,,,,100.0,0.0,,5cc19050dfef1a00019523b6,20:33:41,03/04/2024
,"<p style=""font-size:75px;"">...</p>",,ospan,iti,NuQpVhsQ2jYm2ZCoXCxKGSzsmKP2,html-keyboard-response,158,847374,0.0-46.0-5.0-1.0-0.0,,,,,,,,,,,,,,,5cc19050dfef1a00019523b6,20:33:41,03/04/2024
2486.0,,,ospan,symmetry,NuQpVhsQ2jYm2ZCoXCxKGSzsmKP2,symmetry-judgement-task,159,850925,0.0-46.0-5.0-1.0-1.0-0.0,,,,,,,,,,1.0,1.0,,,,5cc19050dfef1a00019523b6,20:33:41,03/04/2024
,"<div style=""font-size: 10rem; color: #0000FF"">K</div>",,ospan,letter,NuQpVhsQ2jYm2ZCoXCxKGSzsmKP2,html-keyboard-response,160,851938,0.0-46.0-5.0-1.0-1.0-1.0,,,,,,,,,,,,,,,5cc19050dfef1a00019523b6,20:33:41,03/04/2024
2406.0,,,ospan,symmetry,NuQpVhsQ2jYm2ZCoXCxKGSzsmKP2,symmetry-judgement-task,161,856378,0.0-46.0-5.0-1.0-1.0-2.0,,,,,,,,,,1.0,1.0,,,,5cc19050dfef1a00019523b6,20:33:41,03/04/2024
,"<div style=""font-size: 10rem; color: #0000FF"">J</div>",,ospan,letter,NuQpVhsQ2jYm2ZCoXCxKGSzsmKP2,html-keyboard-response,162,857392,0.0-46.0-5.0-1.0-1.0-3.0,,,,,,,,,,,,,,,5cc19050dfef1a00019523b6,20:33:41,03/04/2024
1625.0,,,ospan,symmetry,NuQpVhsQ2jYm2ZCoXCxKGSzsmKP2,symmetry-judgement-task,163,861036,0.0-46.0-5.0-1.0-1.0-4.0,,,,,,,,,,1.0,1.0,,,,5cc19050dfef1a00019523b6,20:33:41,03/04/2024
,"<div style=""font-size: 10rem; color: #0000FF"">H</div>",,ospan,letter,NuQpVhsQ2jYm2ZCoXCxKGSzsmKP2,html-keyboard-response,164,862038,0.0-46.0-5.0-1.0-1.0-5.0,,,,,,,,,,,,,,,5cc19050dfef1a00019523b6,20:33:41,03/04/2024
1105.0,,,ospan,symmetry,NuQpVhsQ2jYm2ZCoXCxKGSzsmKP2,symmetry-judgement-task,165,865196,0.0-46.0-5.0-1.0-1.0-6.0,,,,,,,,,,1.0,1.0,,,,5cc19050dfef1a00019523b6,20:33:41,03/04/2024
,"<div style=""font-size: 10rem; color: #0000FF"">G</div>",,ospan,letter,NuQpVhsQ2jYm2ZCoXCxKGSzsmKP2,html-keyboard-response,166,866212,0.0-46.0-5.0-1.0-1.0-7.0,,,,,,,,,,,,,,,5cc19050dfef1a00019523b6,20:33:41,03/04/2024
786.0,,,ospan,symmetry,NuQpVhsQ2jYm2ZCoXCxKGSzsmKP2,symmetry-judgement-task,167,869039,0.0-46.0-5.0-1.0-1.0-8.0,,,,,,,,,,1.0,1.0,,,,5cc19050dfef1a00019523b6,20:33:41,03/04/2024
,"<div style=""font-size: 10rem; color: #0000FF"">Y</div>",,ospan,letter,NuQpVhsQ2jYm2ZCoXCxKGSzsmKP2,html-keyboard-response,168,870052,0.0-46.0-5.0-1.0-1.0-9.0,,,,,,,,,,,,,,,5cc19050dfef1a00019523b6,20:33:41,03/04/2024
1509.0,,,ospan,symmetry,NuQpVhsQ2jYm2ZCoXCxKGSzsmKP2,symmetry-judgement-task,169,873595,0.0-46.0-5.0-1.0-1.0-10.0,,,,,,,,,,1.0,1.0,,,,5cc19050dfef1a00019523b6,20:33:41,03/04/2024
,"<div style=""font-size: 10rem; color: #0000FF"">S</div>",,ospan,letter,NuQpVhsQ2jYm2ZCoXCxKGSzsmKP2,html-keyboard-response,170,874611,0.0-46.0-5.0-1.0-1.0-11.0,,,,,,,,,,,,,,,5cc19050dfef1a00019523b6,20:33:41,03/04/2024
1582.0,,,ospan,symmetry,NuQpVhsQ2jYm2ZCoXCxKGSzsmKP2,symmetry-judgement-task,171,878187,0.0-46.0-5.0-1.0-1.0-12.0,,,,,,,,,,1.0,1.0,,,,5cc19050dfef1a00019523b6,20:33:41,03/04/2024
,"<div style=""font-size: 10rem; color: #0000FF"">R</div>",,ospan,letter,NuQpVhsQ2jYm2ZCoXCxKGSzsmKP2,html-keyboard-response,172,879192,0.0-46.0-5.0-1.0-1.0-13.0,,,,,,,,,,,,,,,5cc19050dfef1a00019523b6,20:33:41,03/04/2024
5680.5,"<div class = numbox><p style=""font-size: 2.4rem"">Please recall the letters you saw to the best of your ability. If you do not remember a particular letter, use the SKIP button.<br><b>(When you are ready to lock in your answer, press ENTER)</b></p><button id = button_1 class = ""square num-button"" onclick = ""recordClick(this)""><div class = content><div class = numbers>C</div></div></button><button id = button_2 class = ""square num-button"" onclick = ""recordClick(this)""><div class = content><div class = numbers>G</div></div></button><button id = button_3 class = ""square num-button"" onclick = ""recordClick(this)""><div class = content><div class = numbers>H</div></div></button><button id = button_4 class = ""square num-button"" onclick = ""recordClick(this)""><div class = content><div class = numbers>J</div></div></button><button id = button_5 class = ""square num-button"" onclick = ""recordClick(this)""><div class = content><div class = numbers>K</div></div></button><button id = button_6 class = ""square num-button"" onclick = ""recordClick(this)""><div class = content><div class = numbers>L</div></div></button><button id = button_7 class = ""square num-button"" onclick = ""recordClick(this)""><div class = content><div class = numbers>N</div></div></button><button id = button_8 class = ""square num-button"" onclick = ""recordClick(this)""><div class = content><div class = numbers>P</div></div></button><button id = button_9 class = ""square num-button"" onclick = ""recordClick(this)""><div class = content><div class = numbers>Q</div></div></button><button id = button_10 class = ""square num-button"" onclick = ""recordClick(this)""><div class = content><div class = numbers>R</div></div></button><button id = button_11 class = ""square num-button"" onclick = ""recordClick(this)""><div class = content><div class = numbers>S</div></div></button><button id = button_12 class = ""square num-button"" onclick = ""recordClick(this)""><div class = content><div class = numbers>Y</div></div></button><button class = clear_button id = ""ClearButton"" onclick = ""clearResponse()"">BACKSPACE</button><button class = blank_button id = ""BlankButton"" onclick = ""blankResponse()"">SKIP</button><p style=""font-size: 2.4rem""><u><b>Current Answer:</b></u></p><br><br><div id=echoed_txt style=""font-size: 5rem; color:blue;""><b></b></div></div>",enter,ospan,retrieval,NuQpVhsQ2jYm2ZCoXCxKGSzsmKP2,html-keyboard-response,173,885631,0.0-46.0-5.0-1.0-2.0,28,23,15,7.0,"[""K"",""H"",""J"",""G"",""Y"",""S"",""R""]","[""K"",""J"",""H"",""G"",""Y"",""S"",""R""]",0.0,5.0,,,,,,,5cc19050dfef1a00019523b6,20:33:41,03/04/2024
1321.1999999999534,[''],0,ospan,feedback,NuQpVhsQ2jYm2ZCoXCxKGSzsmKP2,html-button-response,174,887470,0.0-46.0-5.0-1.0-3.0,,,,,,,,,,,,100.0,0.0,,5cc19050dfef1a00019523b6,20:33:41,03/04/2024
,"<p style=""font-size:75px;"">...</p>",,ospan,iti,NuQpVhsQ2jYm2ZCoXCxKGSzsmKP2,html-keyboard-response,175,888473,0.0-46.0-6.0-0.0-0.0,,,,,,,,,,,,,,,5cc19050dfef1a00019523b6,20:33:41,03/04/2024
1511.0,,,ospan,symmetry,NuQpVhsQ2jYm2ZCoXCxKGSzsmKP2,symmetry-judgement-task,176,891046,0.0-46.0-6.0-0.0-1.0-0.0,,,,,,,,,,1.0,1.0,,,,5cc19050dfef1a00019523b6,20:33:41,03/04/2024
,"<div style=""font-size: 10rem; color: #0000FF"">Y</div>",,ospan,letter,NuQpVhsQ2jYm2ZCoXCxKGSzsmKP2,html-keyboard-response,177,892062,0.0-46.0-6.0-0.0-1.0-1.0,,,,,,,,,,,,,,,5cc19050dfef1a00019523b6,20:33:41,03/04/2024
1034.0,,,ospan,symmetry,NuQpVhsQ2jYm2ZCoXCxKGSzsmKP2,symmetry-judgement-task,178,895146,0.0-46.0-6.0-0.0-1.0-2.0,,,,,,,,,,1.0,1.0,,,,5cc19050dfef1a00019523b6,20:33:41,03/04/2024
,"<div style=""font-size: 10rem; color: #0000FF"">Q</div>",,ospan,letter,NuQpVhsQ2jYm2ZCoXCxKGSzsmKP2,html-keyboard-response,179,896150,0.0-46.0-6.0-0.0-1.0-3.0,,,,,,,,,,,,,,,5cc19050dfef1a00019523b6,20:33:41,03/04/2024
1456.0,,,ospan,symmetry,NuQpVhsQ2jYm2ZCoXCxKGSzsmKP2,symmetry-judgement-task,180,899679,0.0-46.0-6.0-0.0-1.0-4.0,,,,,,,,,,1.0,1.0,,,,5cc19050dfef1a00019523b6,20:33:41,03/04/2024
,"<div style=""font-size: 10rem; color: #0000FF"">L</div>",,ospan,letter,NuQpVhsQ2jYm2ZCoXCxKGSzsmKP2,html-keyboard-response,181,900693,0.0-46.0-6.0-0.0-1.0-5.0,,,,,,,,,,,,,,,5cc19050dfef1a00019523b6,20:33:41,03/04/2024
1070.0,,,ospan,symmetry,NuQpVhsQ2jYm2ZCoXCxKGSzsmKP2,symmetry-judgement-task,182,903804,0.0-46.0-6.0-0.0-1.0-6.0,,,,,,,,,,1.0,1.0,,,,5cc19050dfef1a00019523b6,20:33:41,03/04/2024
,"<div style=""font-size: 10rem; color: #0000FF"">R</div>",,ospan,letter,NuQpVhsQ2jYm2ZCoXCxKGSzsmKP2,html-keyboard-response,183,904816,0.0-46.0-6.0-0.0-1.0-7.0,,,,,,,,,,,,,,,5cc19050dfef1a00019523b6,20:33:41,03/04/2024
1080.0,,,ospan,symmetry,NuQpVhsQ2jYm2ZCoXCxKGSzsmKP2,symmetry-judgement-task,184,907915,0.0-46.0-6.0-0.0-1.0-8.0,,,,,,,,,,1.0,1.0,,,,5cc19050dfef1a00019523b6,20:33:41,03/04/2024
,"<div style=""font-size: 10rem; color: #0000FF"">C</div>",,ospan,letter,NuQpVhsQ2jYm2ZCoXCxKGSzsmKP2,html-keyboard-response,185,908926,0.0-46.0-6.0-0.0-1.0-9.0,,,,,,,,,,,,,,,5cc19050dfef1a00019523b6,20:33:41,03/04/2024
4391.700000000186,"<div class = numbox><p style=""font-size: 2.4rem"">Please recall the letters you saw to the best of your ability. If you do not remember a particular letter, use the SKIP button.<br><b>(When you are ready to lock in your answer, press ENTER)</b></p><button id = button_1 class = ""square num-button"" onclick = ""recordClick(this)""><div class = content><div class = numbers>C</div></div></button><button id = button_2 class = ""square num-button"" onclick = ""recordClick(this)""><div class = content><div class = numbers>G</div></div></button><button id = button_3 class = ""square num-button"" onclick = ""recordClick(this)""><div class = content><div class = numbers>H</div></div></button><button id = button_4 class = ""square num-button"" onclick = ""recordClick(this)""><div class = content><div class = numbers>J</div></div></button><button id = button_5 class = ""square num-button"" onclick = ""recordClick(this)""><div class = content><div class = numbers>K</div></div></button><button id = button_6 class = ""square num-button"" onclick = ""recordClick(this)""><div class = content><div class = numbers>L</div></div></button><button id = button_7 class = ""square num-button"" onclick = ""recordClick(this)""><div class = content><div class = numbers>N</div></div></button><button id = button_8 class = ""square num-button"" onclick = ""recordClick(this)""><div class = content><div class = numbers>P</div></div></button><button id = button_9 class = ""square num-button"" onclick = ""recordClick(this)""><div class = content><div class = numbers>Q</div></div></button><button id = button_10 class = ""square num-button"" onclick = ""recordClick(this)""><div class = content><div class = numbers>R</div></div></button><button id = button_11 class = ""square num-button"" onclick = ""recordClick(this)""><div class = content><div class = numbers>S</div></div></button><button id = button_12 class = ""square num-button"" onclick = ""recordClick(this)""><div class = content><div class = numbers>Y</div></div></button><button class = clear_button id = ""ClearButton"" onclick = ""clearResponse()"">BACKSPACE</button><button class = blank_button id = ""BlankButton"" onclick = ""blankResponse()"">SKIP</button><p style=""font-size: 2.4rem""><u><b>Current Answer:</b></u></p><br><br><div id=echoed_txt style=""font-size: 5rem; color:blue;""><b></b></div></div>",enter,ospan,retrieval,NuQpVhsQ2jYm2ZCoXCxKGSzsmKP2,html-keyboard-response,186,914085,0.0-46.0-6.0-0.0-2.0,33,28,20,5.0,"[""Y"",""Q"",""L"",""R"",""C""]","[""Y"",""Q"",""L"",""R"",""C""]",1.0,5.0,,,,,,,5cc19050dfef1a00019523b6,20:33:41,03/04/2024
1134.8000000000466,[''],0,ospan,feedback,NuQpVhsQ2jYm2ZCoXCxKGSzsmKP2,html-button-response,187,915726,0.0-46.0-6.0-0.0-3.0,,,,,,,,,,,,100.0,0.0,,5cc19050dfef1a00019523b6,20:33:41,03/04/2024
,"<p style=""font-size:75px;"">...</p>",,ospan,iti,NuQpVhsQ2jYm2ZCoXCxKGSzsmKP2,html-keyboard-response,188,916743,0.0-46.0-6.0-1.0-0.0,,,,,,,,,,,,,,,5cc19050dfef1a00019523b6,20:33:41,03/04/2024
1389.0,,,ospan,symmetry,NuQpVhsQ2jYm2ZCoXCxKGSzsmKP2,symmetry-judgement-task,189,919391,0.0-46.0-6.0-1.0-1.0-0.0,,,,,,,,,,1.0,1.0,,,,5cc19050dfef1a00019523b6,20:33:41,03/04/2024
,"<div style=""font-size: 10rem; color: #0000FF"">S</div>",,ospan,letter,NuQpVhsQ2jYm2ZCoXCxKGSzsmKP2,html-keyboard-response,190,920400,0.0-46.0-6.0-1.0-1.0-1.0,,,,,,,,,,,,,,,5cc19050dfef1a00019523b6,20:33:41,03/04/2024
1311.0,,,ospan,symmetry,NuQpVhsQ2jYm2ZCoXCxKGSzsmKP2,symmetry-judgement-task,191,923776,0.0-46.0-6.0-1.0-1.0-2.0,,,,,,,,,,1.0,1.0,,,,5cc19050dfef1a00019523b6,20:33:41,03/04/2024
,"<div style=""font-size: 10rem; color: #0000FF"">K</div>",,ospan,letter,NuQpVhsQ2jYm2ZCoXCxKGSzsmKP2,html-keyboard-response,192,924790,0.0-46.0-6.0-1.0-1.0-3.0,,,,,,,,,,,,,,,5cc19050dfef1a00019523b6,20:33:41,03/04/2024
1022.0,,,ospan,symmetry,NuQpVhsQ2jYm2ZCoXCxKGSzsmKP2,symmetry-judgement-task,193,927816,0.0-46.0-6.0-1.0-1.0-4.0,,,,,,,,,,1.0,1.0,,,,5cc19050dfef1a00019523b6,20:33:41,03/04/2024
,"<div style=""font-size: 10rem; color: #0000FF"">R</div>",,ospan,letter,NuQpVhsQ2jYm2ZCoXCxKGSzsmKP2,html-keyboard-response,194,928831,0.0-46.0-6.0-1.0-1.0-5.0,,,,,,,,,,,,,,,5cc19050dfef1a00019523b6,20:33:41,03/04/2024
988.0,,,ospan,symmetry,NuQpVhsQ2jYm2ZCoXCxKGSzsmKP2,symmetry-judgement-task,195,931827,0.0-46.0-6.0-1.0-1.0-6.0,,,,,,,,,,1.0,1.0,,,,5cc19050dfef1a00019523b6,20:33:41,03/04/2024
,"<div style=""font-size: 10rem; color: #0000FF"">H</div>",,ospan,letter,NuQpVhsQ2jYm2ZCoXCxKGSzsmKP2,html-keyboard-response,196,932842,0.0-46.0-6.0-1.0-1.0-7.0,,,,,,,,,,,,,,,5cc19050dfef1a00019523b6,20:33:41,03/04/2024
1451.0,,,ospan,symmetry,NuQpVhsQ2jYm2ZCoXCxKGSzsmKP2,symmetry-judgement-task,197,936402,0.0-46.0-6.0-1.0-1.0-8.0,,,,,,,,,,1.0,1.0,,,,5cc19050dfef1a00019523b6,20:33:41,03/04/2024
,"<div style=""font-size: 10rem; color: #0000FF"">Q</div>",,ospan,letter,NuQpVhsQ2jYm2ZCoXCxKGSzsmKP2,html-keyboard-response,198,937404,0.0-46.0-6.0-1.0-1.0-9.0,,,,,,,,,,,,,,,5cc19050dfef1a00019523b6,20:33:41,03/04/2024
1142.0,,,ospan,symmetry,NuQpVhsQ2jYm2ZCoXCxKGSzsmKP2,symmetry-judgement-task,199,940577,0.0-46.0-6.0-1.0-1.0-10.0,,,,,,,,,,1.0,1.0,,,,5cc19050dfef1a00019523b6,20:33:41,03/04/2024
,"<div style=""font-size: 10rem; color: #0000FF"">G</div>",,ospan,letter,NuQpVhsQ2jYm2ZCoXCxKGSzsmKP2,html-keyboard-response,200,941591,0.0-46.0-6.0-1.0-1.0-11.0,,,,,,,,,,,,,,,5cc19050dfef1a00019523b6,20:33:41,03/04/2024
1117.0,,,ospan,symmetry,NuQpVhsQ2jYm2ZCoXCxKGSzsmKP2,symmetry-judgement-task,201,944818,0.0-46.0-6.0-1.0-1.0-12.0,,,,,,,,,,1.0,1.0,,,,5cc19050dfef1a00019523b6,20:33:41,03/04/2024
,"<div style=""font-size: 10rem; color: #0000FF"">Y</div>",,ospan,letter,NuQpVhsQ2jYm2ZCoXCxKGSzsmKP2,html-keyboard-response,202,945820,0.0-46.0-6.0-1.0-1.0-13.0,,,,,,,,,,,,,,,5cc19050dfef1a00019523b6,20:33:41,03/04/2024
1062.0,,,ospan,symmetry,NuQpVhsQ2jYm2ZCoXCxKGSzsmKP2,symmetry-judgement-task,203,948896,0.0-46.0-6.0-1.0-1.0-14.0,,,,,,,,,,1.0,1.0,,,,5cc19050dfef1a00019523b6,20:33:41,03/04/2024
,"<div style=""font-size: 10rem; color: #0000FF"">N</div>",,ospan,letter,NuQpVhsQ2jYm2ZCoXCxKGSzsmKP2,html-keyboard-response,204,949909,0.0-46.0-6.0-1.0-1.0-15.0,,,,,,,,,,,,,,,5cc19050dfef1a00019523b6,20:33:41,03/04/2024
5461.5,"<div class = numbox><p style=""font-size: 2.4rem"">Please recall the letters you saw to the best of your ability. If you do not remember a particular letter, use the SKIP button.<br><b>(When you are ready to lock in your answer, press ENTER)</b></p><button id = button_1 class = ""square num-button"" onclick = ""recordClick(this)""><div class = content><div class = numbers>C</div></div></button><button id = button_2 class = ""square num-button"" onclick = ""recordClick(this)""><div class = content><div class = numbers>G</div></div></button><button id = button_3 class = ""square num-button"" onclick = ""recordClick(this)""><div class = content><div class = numbers>H</div></div></button><button id = button_4 class = ""square num-button"" onclick = ""recordClick(this)""><div class = content><div class = numbers>J</div></div></button><button id = button_5 class = ""square num-button"" onclick = ""recordClick(this)""><div class = content><div class = numbers>K</div></div></button><button id = button_6 class = ""square num-button"" onclick = ""recordClick(this)""><div class = content><div class = numbers>L</div></div></button><button id = button_7 class = ""square num-button"" onclick = ""recordClick(this)""><div class = content><div class = numbers>N</div></div></button><button id = button_8 class = ""square num-button"" onclick = ""recordClick(this)""><div class = content><div class = numbers>P</div></div></button><button id = button_9 class = ""square num-button"" onclick = ""recordClick(this)""><div class = content><div class = numbers>Q</div></div></button><button id = button_10 class = ""square num-button"" onclick = ""recordClick(this)""><div class = content><div class = numbers>R</div></div></button><button id = button_11 class = ""square num-button"" onclick = ""recordClick(this)""><div class = content><div class = numbers>S</div></div></button><button id = button_12 class = ""square num-button"" onclick = ""recordClick(this)""><div class = content><div class = numbers>Y</div></div></button><button class = clear_button id = ""ClearButton"" onclick = ""clearResponse()"">BACKSPACE</button><button class = blank_button id = ""BlankButton"" onclick = ""blankResponse()"">SKIP</button><p style=""font-size: 2.4rem""><u><b>Current Answer:</b></u></p><br><br><div id=echoed_txt style=""font-size: 5rem; color:blue;""><b></b></div></div>",enter,ospan,retrieval,NuQpVhsQ2jYm2ZCoXCxKGSzsmKP2,html-keyboard-response,205,956134,0.0-46.0-6.0-1.0-2.0,41,33,20,8.0,"[""S"",""K"",""R"",""H"",""Q"",""Y"",""N""]","[""S"",""K"",""R"",""H"",""Q"",""G"",""Y"",""N""]",0.0,5.0,,,,,,,5cc19050dfef1a00019523b6,20:33:41,03/04/2024
919.9000000001397,[''],0,ospan,feedback,NuQpVhsQ2jYm2ZCoXCxKGSzsmKP2,html-button-response,206,957562,0.0-46.0-6.0-1.0-3.0,,,,,,,,,,,,100.0,0.0,,5cc19050dfef1a00019523b6,20:33:41,03/04/2024
16637.299999999814,,"{'Q0': 'it was fine, would be good to know accuracy each round so you know if you remembered well or not'}",ospan,survey_ospan,NuQpVhsQ2jYm2ZCoXCxKGSzsmKP2,lmdlab-survey-text,207,974967,0.0-46.0-7.0,,,,,,,,,,,,,,NuQpVhsQ2jYm2ZCoXCxKGSzsmKP2,5cc19050dfef1a00019523b6,20:33:41,03/04/2024
1177.7999999998137,<p><p style='font-size: 3rem'>Great work!<br><br>This completes the symmetry and memory task.</p><br><br><br>,0,ospan,finish,NuQpVhsQ2jYm2ZCoXCxKGSzsmKP2,html-button-response,208,976148,0.0-46.0-8.0,41,33,20,,,,,,,,,100.0,,,5cc19050dfef1a00019523b6,20:33:41,03/04/2024
