rt,stimulus,response,exp_name,exp_stage,subjectID,trial_type,trial_index,time_elapsed,internal_node_id,ospan_shown,ospan_total,ospan_abs,length,resp_actual,resp_correct,full_correct,num_correct,feedback,accuracy,correct,math_acc,math_warning,databaseID,prolificID,start_time,date
1811.699999988079,<div class = 'left_align' style='font-size: 3.25rem; line-height: 1.3;'><p class = 'center_align'><b>Welcome to the Symmetry and Memory Task</b><br><br><br><br></p>Press 'continue' to show the instructions.<br><br><br><br></div>,0,ospan,instruct,iMGEaU9pRKgVPffyC0wYkt7R6412,html-button-response,54,424355,0.0-46.0-0.0-0.0-0.0,,,,,,,,,,,,,,,655faeaa22964920719a77b3,09:31:10,03/04/2024
6708.099999964237,"<div class = 'left_align' style='font-size: 3.25rem; line-height: 1.3;'><p class = 'center_align'><b>Symmetry and Memory Task</b><br><br></p>In this task, you will try to memorize letters you see on the screen<br>while you also view black and white grid pictures.<br><br>In the next few minutes, you will have some practice to get you familiar<br>with how the task works.<br><br>It may be difficult sometimes, but please do not worry about making mistakes!<br><br>We will begin by practicing the letter part of the task.<br><br><br><br></div>",0,ospan,instruct,iMGEaU9pRKgVPffyC0wYkt7R6412,html-button-response,55,431329,0.0-46.0-0.0-0.0-1.0,,,,,,,,,,,,,,,655faeaa22964920719a77b3,09:31:10,03/04/2024
6744.199999988079,"<div class = 'left_align' style='font-size: 3.25rem; line-height: 1.3;'>For this practice part, letters will appear on the screen one at a time.<br><br>Try to remember each letter in the order presented.<br><br>After some letters have been shown, you will see a response screen. Your<br>goal is to report the letters you saw <b>in order</b>. If you do not remember<br>a particular letter, you will have the option to leave it blank.<br><br><br><br></div>",0,ospan,instruct,iMGEaU9pRKgVPffyC0wYkt7R6412,html-button-response,56,438341,0.0-46.0-0.0-0.0-2.0,,,,,,,,,,,,,,,655faeaa22964920719a77b3,09:31:10,03/04/2024
2750.300000011921,"<div class = 'left_align' style='font-size: 3.25rem; line-height: 1.3;'>Remember, it is very important to get the letters in the same<br>order as you see them.<br><br>When you are ready, you may begin the letter practice.</div><br><br><br><br>",0,ospan,instruct,iMGEaU9pRKgVPffyC0wYkt7R6412,html-button-response,57,441355,0.0-46.0-0.0-0.0-3.0,,,,,,,,,,,,,,,655faeaa22964920719a77b3,09:31:10,03/04/2024
,"<p style=""font-size:75px;"">...</p>",,ospan,iti,iMGEaU9pRKgVPffyC0wYkt7R6412,html-keyboard-response,58,442636,0.0-46.0-0.0-1.0-0.0,,,,,,,,,,,,,,,655faeaa22964920719a77b3,09:31:10,03/04/2024
,"<div style=""font-size: 10rem; color: #0000FF"">Q</div>",,ospan,letter,iMGEaU9pRKgVPffyC0wYkt7R6412,html-keyboard-response,59,443659,0.0-46.0-0.0-1.0-1.0,,,,,,,,,,,,,,,655faeaa22964920719a77b3,09:31:10,03/04/2024
,"<div style=""font-size: 10rem; color: #0000FF"">R</div>",,ospan,letter,iMGEaU9pRKgVPffyC0wYkt7R6412,html-keyboard-response,60,445451,0.0-46.0-0.0-1.0-2.0,,,,,,,,,,,,,,,655faeaa22964920719a77b3,09:31:10,03/04/2024
6414.300000011921,"<div class = numbox><p style=""font-size: 2.4rem"">Please recall the letters you saw to the best of your ability. If you do not remember a particular letter, use the SKIP button.<br><b>(When you are ready to lock in your answer, press ENTER)</b></p><button id = button_1 class = ""square num-button"" onclick = ""recordClick(this)""><div class = content><div class = numbers>C</div></div></button><button id = button_2 class = ""square num-button"" onclick = ""recordClick(this)""><div class = content><div class = numbers>G</div></div></button><button id = button_3 class = ""square num-button"" onclick = ""recordClick(this)""><div class = content><div class = numbers>H</div></div></button><button id = button_4 class = ""square num-button"" onclick = ""recordClick(this)""><div class = content><div class = numbers>J</div></div></button><button id = button_5 class = ""square num-button"" onclick = ""recordClick(this)""><div class = content><div class = numbers>K</div></div></button><button id = button_6 class = ""square num-button"" onclick = ""recordClick(this)""><div class = content><div class = numbers>L</div></div></button><button id = button_7 class = ""square num-button"" onclick = ""recordClick(this)""><div class = content><div class = numbers>N</div></div></button><button id = button_8 class = ""square num-button"" onclick = ""recordClick(this)""><div class = content><div class = numbers>P</div></div></button><button id = button_9 class = ""square num-button"" onclick = ""recordClick(this)""><div class = content><div class = numbers>Q</div></div></button><button id = button_10 class = ""square num-button"" onclick = ""recordClick(this)""><div class = content><div class = numbers>R</div></div></button><button id = button_11 class = ""square num-button"" onclick = ""recordClick(this)""><div class = content><div class = numbers>S</div></div></button><button id = button_12 class = ""square num-button"" onclick = ""recordClick(this)""><div class = content><div class = numbers>Y</div></div></button><button class = clear_button id = ""ClearButton"" onclick = ""clearResponse()"">BACKSPACE</button><button class = blank_button id = ""BlankButton"" onclick = ""blankResponse()"">SKIP</button><p style=""font-size: 2.4rem""><u><b>Current Answer:</b></u></p><br><br><div id=echoed_txt style=""font-size: 5rem; color:blue;""><b></b></div></div>",enter,ospan,retrieval,iMGEaU9pRKgVPffyC0wYkt7R6412,html-keyboard-response,61,452635,0.0-46.0-0.0-1.0-3.0,NA,NA,NA,2.0,"[""Q"",""R""]","[""Q"",""R""]",1.0,2.0,"['<font color=""green"">Q</font>', '<font color=""green"">R</font>']",,,,,,655faeaa22964920719a77b3,09:31:10,03/04/2024
1674.0,"['<p style=""font-size:44px"">Letters:<br><br><br><font color=""green"">Q</font> <font color=""green"">R</font></p><br><br>']",0,ospan,practice_feedback,iMGEaU9pRKgVPffyC0wYkt7R6412,html-button-response,62,454839,0.0-46.0-0.0-1.0-4.0,,,,,,,,,,,,,,,655faeaa22964920719a77b3,09:31:10,03/04/2024
,"<p style=""font-size:75px;"">...</p>",,ospan,iti,iMGEaU9pRKgVPffyC0wYkt7R6412,html-keyboard-response,63,455852,0.0-46.0-0.0-2.0-0.0,,,,,,,,,,,,,,,655faeaa22964920719a77b3,09:31:10,03/04/2024
,"<div style=""font-size: 10rem; color: #0000FF"">K</div>",,ospan,letter,iMGEaU9pRKgVPffyC0wYkt7R6412,html-keyboard-response,64,456876,0.0-46.0-0.0-2.0-1.0,,,,,,,,,,,,,,,655faeaa22964920719a77b3,09:31:10,03/04/2024
,"<div style=""font-size: 10rem; color: #0000FF"">Y</div>",,ospan,letter,iMGEaU9pRKgVPffyC0wYkt7R6412,html-keyboard-response,65,458667,0.0-46.0-0.0-2.0-2.0,,,,,,,,,,,,,,,655faeaa22964920719a77b3,09:31:10,03/04/2024
,"<div style=""font-size: 10rem; color: #0000FF"">C</div>",,ospan,letter,iMGEaU9pRKgVPffyC0wYkt7R6412,html-keyboard-response,66,460460,0.0-46.0-0.0-2.0-3.0,,,,,,,,,,,,,,,655faeaa22964920719a77b3,09:31:10,03/04/2024
4763.0,"<div class = numbox><p style=""font-size: 2.4rem"">Please recall the letters you saw to the best of your ability. If you do not remember a particular letter, use the SKIP button.<br><b>(When you are ready to lock in your answer, press ENTER)</b></p><button id = button_1 class = ""square num-button"" onclick = ""recordClick(this)""><div class = content><div class = numbers>C</div></div></button><button id = button_2 class = ""square num-button"" onclick = ""recordClick(this)""><div class = content><div class = numbers>G</div></div></button><button id = button_3 class = ""square num-button"" onclick = ""recordClick(this)""><div class = content><div class = numbers>H</div></div></button><button id = button_4 class = ""square num-button"" onclick = ""recordClick(this)""><div class = content><div class = numbers>J</div></div></button><button id = button_5 class = ""square num-button"" onclick = ""recordClick(this)""><div class = content><div class = numbers>K</div></div></button><button id = button_6 class = ""square num-button"" onclick = ""recordClick(this)""><div class = content><div class = numbers>L</div></div></button><button id = button_7 class = ""square num-button"" onclick = ""recordClick(this)""><div class = content><div class = numbers>N</div></div></button><button id = button_8 class = ""square num-button"" onclick = ""recordClick(this)""><div class = content><div class = numbers>P</div></div></button><button id = button_9 class = ""square num-button"" onclick = ""recordClick(this)""><div class = content><div class = numbers>Q</div></div></button><button id = button_10 class = ""square num-button"" onclick = ""recordClick(this)""><div class = content><div class = numbers>R</div></div></button><button id = button_11 class = ""square num-button"" onclick = ""recordClick(this)""><div class = content><div class = numbers>S</div></div></button><button id = button_12 class = ""square num-button"" onclick = ""recordClick(this)""><div class = content><div class = numbers>Y</div></div></button><button class = clear_button id = ""ClearButton"" onclick = ""clearResponse()"">BACKSPACE</button><button class = blank_button id = ""BlankButton"" onclick = ""blankResponse()"">SKIP</button><p style=""font-size: 2.4rem""><u><b>Current Answer:</b></u></p><br><br><div id=echoed_txt style=""font-size: 5rem; color:blue;""><b></b></div></div>",enter,ospan,retrieval,iMGEaU9pRKgVPffyC0wYkt7R6412,html-keyboard-response,67,465992,0.0-46.0-0.0-2.0-4.0,NA,NA,NA,3.0,"[""K"",""Y"",""C""]","[""K"",""Y"",""C""]",1.0,3.0,"['<font color=""green"">K</font>', '<font color=""green"">Y</font>', '<font color=""green"">C</font>']",,,,,,655faeaa22964920719a77b3,09:31:10,03/04/2024
1429.1000000238419,"['<p style=""font-size:44px"">Letters:<br><br><br><font color=""green"">K</font> <font color=""green"">Y</font> <font color=""green"">C</font></p><br><br>']",0,ospan,practice_feedback,iMGEaU9pRKgVPffyC0wYkt7R6412,html-button-response,68,467939,0.0-46.0-0.0-2.0-5.0,,,,,,,,,,,,,,,655faeaa22964920719a77b3,09:31:10,03/04/2024
13386.300000011921,"<div class = 'left_align' style='font-size: 3.25rem; line-height: 1.3;'>Now you will practice doing the <b>symmetry judgment part</b> of the experiment.<br><br>A black and white grid picture will appear on the screen and you have to judge if it is <br>symmetrical or asymetrical.<br><br>A picture is 'mirror' symmetrical if its left half is identical to the right half when flipped.<br>Here are examples of a symmetrical and an asymetrical picture:<br><br><center><img src='Stimuli/img/symm_instructions_extra.png' style='height:420px; width:900'></img></center><br>To judge symmetry, imagine you were to fold each picture down the middle, like a book –<br>would the left half match the right half when folded onto each other?<br><br></div><br>",0,ospan,instruct,iMGEaU9pRKgVPffyC0wYkt7R6412,html-button-response,69,481327,0.0-46.0-1.0-0.0-0.0,,,,,,,,,,,,,,,655faeaa22964920719a77b3,09:31:10,03/04/2024
2357.399999976158,"<div class = 'left_align' style='font-size: 3.25rem; line-height: 1.3;'>When you have viewed the picture and determined whether it is symmetrical or not,<br>you can <b>click the Yes or No button</b> below to answer.<br><br>If you take longer than 15 seconds, it will continue automatically<br>and record the answer as an error.</div><br>",0,ospan,instruct,iMGEaU9pRKgVPffyC0wYkt7R6412,html-button-response,70,483938,0.0-46.0-1.0-0.0-1.0,,,,,,,,,,,,,,,655faeaa22964920719a77b3,09:31:10,03/04/2024
1056.3999999761581,"<div class = 'left_align' style='font-size: 3.25rem; line-height: 1.3;'>It is <b>very</b> important that you make the symmetry judgment correctly.<br><br>It is also important that you try and judge the picture as quickly as you can.<br><br>When you are ready, click on the button below to try some practice problems.</div><br><br><br><br>",0,ospan,instruct,iMGEaU9pRKgVPffyC0wYkt7R6412,html-button-response,71,485261,0.0-46.0-1.0-0.0-2.0,,,,,,,,,,,,,,,655faeaa22964920719a77b3,09:31:10,03/04/2024
1484.0,,,ospan,symmetry,iMGEaU9pRKgVPffyC0wYkt7R6412,symmetry-judgement-task,72,487564,0.0-46.0-1.0-1.0-0.0,,,,,,,,,,1.0,1.0,,,,655faeaa22964920719a77b3,09:31:10,03/04/2024
,"<p style=""color:green; font-size: 35px"">Correct</p>",,ospan,feedback,iMGEaU9pRKgVPffyC0wYkt7R6412,html-keyboard-response,73,488332,0.0-46.0-1.0-1.0-1.0,,,,,,,,,,,,,,,655faeaa22964920719a77b3,09:31:10,03/04/2024
1151.0,,,ospan,symmetry,iMGEaU9pRKgVPffyC0wYkt7R6412,symmetry-judgement-task,74,492140,0.0-46.0-1.0-1.0-2.0,,,,,,,,,,1.0,1.0,,,,655faeaa22964920719a77b3,09:31:10,03/04/2024
,"<p style=""color:green; font-size: 35px"">Correct</p>",,ospan,feedback,iMGEaU9pRKgVPffyC0wYkt7R6412,html-keyboard-response,75,492908,0.0-46.0-1.0-1.0-3.0,,,,,,,,,,,,,,,655faeaa22964920719a77b3,09:31:10,03/04/2024
2366.0,,,ospan,symmetry,iMGEaU9pRKgVPffyC0wYkt7R6412,symmetry-judgement-task,76,497932,0.0-46.0-1.0-1.0-4.0,,,,,,,,,,1.0,1.0,,,,655faeaa22964920719a77b3,09:31:10,03/04/2024
,"<p style=""color:green; font-size: 35px"">Correct</p>",,ospan,feedback,iMGEaU9pRKgVPffyC0wYkt7R6412,html-keyboard-response,77,498700,0.0-46.0-1.0-1.0-5.0,,,,,,,,,,,,,,,655faeaa22964920719a77b3,09:31:10,03/04/2024
1471.199999988079,"<p style=""font-size: 3rem;"">You responded correctly on 3 of 3 symmetry judgments. Good job!</p><br><br>",0,ospan,practice,iMGEaU9pRKgVPffyC0wYkt7R6412,html-button-response,78,502189,0.0-46.0-1.0-2.0,,,,,,,,,,,,,,,655faeaa22964920719a77b3,09:31:10,03/04/2024
2149.699999988079,"<div class = 'left_align' style='font-size: 3.25rem; line-height: 1.3;'>Now you will practice doing both parts of the experiment at the same time.<br><br>In the next practice set, you will be given one grid picture to judge.<br>Then letter will appear on the screen. Try to remember the letter.<br><br>It is <b>very important</b> to make the symmetry judgment as quickly and accurately as possible.<br><br>Just as before, once you have make the symmetry judgment, you can click Yes or No.<br><b>Note that you will no longer see Correct or Incorrect feedback.</div><br><br><br><br>",0,ospan,instruct,iMGEaU9pRKgVPffyC0wYkt7R6412,html-button-response,79,504595,0.0-46.0-2.0-0.0-0.0,,,,,,,,,,,,,,,655faeaa22964920719a77b3,09:31:10,03/04/2024
2029.1000000238419,"<div class = 'left_align' style='font-size: 3.25rem; line-height: 1.3;'>After the letter goes away, another grid picture will appear, and then<br>another letter.<br><br>At the end of each set of letters and grids, you will recall the letters to the best<br>of your ability. Remember, try your best to get the letters in the correct order.<br><br>It is important to <b>quickly</b> and <b>accurately</b> make the symmetry judgments.</div><br><br><br><br>",0,ospan,instruct,iMGEaU9pRKgVPffyC0wYkt7R6412,html-button-response,80,506905,0.0-46.0-2.0-0.0-1.0,,,,,,,,,,,,,,,655faeaa22964920719a77b3,09:31:10,03/04/2024
3558.400000035763,"<div class = 'left_align' style='font-size: 3.25rem; line-height: 1.3;'>On the feedback screen, if you are not doing well at the symmetry judgments,<br>you will also see a warning in the middle. This indicates your percent <br>correct for the grid pictures for the entire experiment.<br><br>It is <b>very</b> important for you to keep accuracy at least at 85%: <u>We can only use<br>data where the participant was at least 85% accurate on the judgments.</u> Therefore,<br> please try your best to perform well on the symmetry judgments, <b>at the same time</b><br>doing your best to recall as many letters as possible.<br><br>Click the button to try some practice problems.</div><br><br><br><br>",0,ospan,instruct,iMGEaU9pRKgVPffyC0wYkt7R6412,html-button-response,81,510739,0.0-46.0-2.0-0.0-2.0,,,,,,,,,,,,,,,655faeaa22964920719a77b3,09:31:10,03/04/2024
,"<p style=""font-size:75px;"">...</p>",,ospan,iti,iMGEaU9pRKgVPffyC0wYkt7R6412,html-keyboard-response,82,512044,0.0-46.0-2.0-1.0-0.0,,,,,,,,,,,,,,,655faeaa22964920719a77b3,09:31:10,03/04/2024
1363.0,,,ospan,symmetry,iMGEaU9pRKgVPffyC0wYkt7R6412,symmetry-judgement-task,83,514540,0.0-46.0-2.0-1.0-1.0-0.0,,,,,,,,,,1.0,1.0,,,,655faeaa22964920719a77b3,09:31:10,03/04/2024
,"<div style=""font-size: 10rem; color: #0000FF"">K</div>",,ospan,letter,iMGEaU9pRKgVPffyC0wYkt7R6412,html-keyboard-response,84,515564,0.0-46.0-2.0-1.0-1.0-1.0,,,,,,,,,,,,,,,655faeaa22964920719a77b3,09:31:10,03/04/2024
1773.0,,,ospan,symmetry,iMGEaU9pRKgVPffyC0wYkt7R6412,symmetry-judgement-task,85,519244,0.0-46.0-2.0-1.0-1.0-2.0,,,,,,,,,,1.0,1.0,,,,655faeaa22964920719a77b3,09:31:10,03/04/2024
,"<div style=""font-size: 10rem; color: #0000FF"">Y</div>",,ospan,letter,iMGEaU9pRKgVPffyC0wYkt7R6412,html-keyboard-response,86,520268,0.0-46.0-2.0-1.0-1.0-3.0,,,,,,,,,,,,,,,655faeaa22964920719a77b3,09:31:10,03/04/2024
1336.0,,,ospan,symmetry,iMGEaU9pRKgVPffyC0wYkt7R6412,symmetry-judgement-task,87,523500,0.0-46.0-2.0-1.0-1.0-4.0,,,,,,,,,,1.0,1.0,,,,655faeaa22964920719a77b3,09:31:10,03/04/2024
,"<div style=""font-size: 10rem; color: #0000FF"">N</div>",,ospan,letter,iMGEaU9pRKgVPffyC0wYkt7R6412,html-keyboard-response,88,524524,0.0-46.0-2.0-1.0-1.0-5.0,,,,,,,,,,,,,,,655faeaa22964920719a77b3,09:31:10,03/04/2024
4367.400000035763,"<div class = numbox><p style=""font-size: 2.4rem"">Please recall the letters you saw to the best of your ability. If you do not remember a particular letter, use the SKIP button.<br><b>(When you are ready to lock in your answer, press ENTER)</b></p><button id = button_1 class = ""square num-button"" onclick = ""recordClick(this)""><div class = content><div class = numbers>C</div></div></button><button id = button_2 class = ""square num-button"" onclick = ""recordClick(this)""><div class = content><div class = numbers>G</div></div></button><button id = button_3 class = ""square num-button"" onclick = ""recordClick(this)""><div class = content><div class = numbers>H</div></div></button><button id = button_4 class = ""square num-button"" onclick = ""recordClick(this)""><div class = content><div class = numbers>J</div></div></button><button id = button_5 class = ""square num-button"" onclick = ""recordClick(this)""><div class = content><div class = numbers>K</div></div></button><button id = button_6 class = ""square num-button"" onclick = ""recordClick(this)""><div class = content><div class = numbers>L</div></div></button><button id = button_7 class = ""square num-button"" onclick = ""recordClick(this)""><div class = content><div class = numbers>N</div></div></button><button id = button_8 class = ""square num-button"" onclick = ""recordClick(this)""><div class = content><div class = numbers>P</div></div></button><button id = button_9 class = ""square num-button"" onclick = ""recordClick(this)""><div class = content><div class = numbers>Q</div></div></button><button id = button_10 class = ""square num-button"" onclick = ""recordClick(this)""><div class = content><div class = numbers>R</div></div></button><button id = button_11 class = ""square num-button"" onclick = ""recordClick(this)""><div class = content><div class = numbers>S</div></div></button><button id = button_12 class = ""square num-button"" onclick = ""recordClick(this)""><div class = content><div class = numbers>Y</div></div></button><button class = clear_button id = ""ClearButton"" onclick = ""clearResponse()"">BACKSPACE</button><button class = blank_button id = ""BlankButton"" onclick = ""blankResponse()"">SKIP</button><p style=""font-size: 2.4rem""><u><b>Current Answer:</b></u></p><br><br><div id=echoed_txt style=""font-size: 5rem; color:blue;""><b></b></div></div>",enter,ospan,retrieval,iMGEaU9pRKgVPffyC0wYkt7R6412,html-keyboard-response,89,529662,0.0-46.0-2.0-1.0-2.0-0.0,NA,NA,NA,3.0,"[""K"",""Y"",""N""]","[""K"",""Y"",""N""]",1.0,3.0,"['<font color=""green"">K</font>', '<font color=""green"">Y</font>', '<font color=""green"">N</font>']",,,,,,655faeaa22964920719a77b3,09:31:10,03/04/2024
798.6999999880791,"['<p style=""font-size:44px"">Letters:<br><br><br><font color=""green"">K</font> <font color=""green"">Y</font> <font color=""green"">N</font></p><br><br><p style=""font-size:30px"">Symmetry:<br><br><font color=""green"">100%</font></p><br><br>']",0,ospan,practice_feedback,iMGEaU9pRKgVPffyC0wYkt7R6412,html-button-response,90,530989,0.0-46.0-2.0-1.0-2.0-1.0,,,,,,,,,,,,,,,655faeaa22964920719a77b3,09:31:10,03/04/2024
,"<p style=""font-size:75px;"">...</p>",,ospan,iti,iMGEaU9pRKgVPffyC0wYkt7R6412,html-keyboard-response,91,532012,0.0-46.0-2.0-2.0-0.0,,,,,,,,,,,,,,,655faeaa22964920719a77b3,09:31:10,03/04/2024
1417.0,,,ospan,symmetry,iMGEaU9pRKgVPffyC0wYkt7R6412,symmetry-judgement-task,92,534476,0.0-46.0-2.0-2.0-1.0-0.0,,,,,,,,,,1.0,1.0,,,,655faeaa22964920719a77b3,09:31:10,03/04/2024
,"<div style=""font-size: 10rem; color: #0000FF"">R</div>",,ospan,letter,iMGEaU9pRKgVPffyC0wYkt7R6412,html-keyboard-response,93,535500,0.0-46.0-2.0-2.0-1.0-1.0,,,,,,,,,,,,,,,655faeaa22964920719a77b3,09:31:10,03/04/2024
1152.0,,,ospan,symmetry,iMGEaU9pRKgVPffyC0wYkt7R6412,symmetry-judgement-task,94,538572,0.0-46.0-2.0-2.0-1.0-2.0,,,,,,,,,,1.0,1.0,,,,655faeaa22964920719a77b3,09:31:10,03/04/2024
,"<div style=""font-size: 10rem; color: #0000FF"">Q</div>",,ospan,letter,iMGEaU9pRKgVPffyC0wYkt7R6412,html-keyboard-response,95,539596,0.0-46.0-2.0-2.0-1.0-3.0,,,,,,,,,,,,,,,655faeaa22964920719a77b3,09:31:10,03/04/2024
970.0,,,ospan,symmetry,iMGEaU9pRKgVPffyC0wYkt7R6412,symmetry-judgement-task,96,542475,0.0-46.0-2.0-2.0-1.0-4.0,,,,,,,,,,1.0,1.0,,,,655faeaa22964920719a77b3,09:31:10,03/04/2024
,"<div style=""font-size: 10rem; color: #0000FF"">J</div>",,ospan,letter,iMGEaU9pRKgVPffyC0wYkt7R6412,html-keyboard-response,97,543500,0.0-46.0-2.0-2.0-1.0-5.0,,,,,,,,,,,,,,,655faeaa22964920719a77b3,09:31:10,03/04/2024
3789.0,"<div class = numbox><p style=""font-size: 2.4rem"">Please recall the letters you saw to the best of your ability. If you do not remember a particular letter, use the SKIP button.<br><b>(When you are ready to lock in your answer, press ENTER)</b></p><button id = button_1 class = ""square num-button"" onclick = ""recordClick(this)""><div class = content><div class = numbers>C</div></div></button><button id = button_2 class = ""square num-button"" onclick = ""recordClick(this)""><div class = content><div class = numbers>G</div></div></button><button id = button_3 class = ""square num-button"" onclick = ""recordClick(this)""><div class = content><div class = numbers>H</div></div></button><button id = button_4 class = ""square num-button"" onclick = ""recordClick(this)""><div class = content><div class = numbers>J</div></div></button><button id = button_5 class = ""square num-button"" onclick = ""recordClick(this)""><div class = content><div class = numbers>K</div></div></button><button id = button_6 class = ""square num-button"" onclick = ""recordClick(this)""><div class = content><div class = numbers>L</div></div></button><button id = button_7 class = ""square num-button"" onclick = ""recordClick(this)""><div class = content><div class = numbers>N</div></div></button><button id = button_8 class = ""square num-button"" onclick = ""recordClick(this)""><div class = content><div class = numbers>P</div></div></button><button id = button_9 class = ""square num-button"" onclick = ""recordClick(this)""><div class = content><div class = numbers>Q</div></div></button><button id = button_10 class = ""square num-button"" onclick = ""recordClick(this)""><div class = content><div class = numbers>R</div></div></button><button id = button_11 class = ""square num-button"" onclick = ""recordClick(this)""><div class = content><div class = numbers>S</div></div></button><button id = button_12 class = ""square num-button"" onclick = ""recordClick(this)""><div class = content><div class = numbers>Y</div></div></button><button class = clear_button id = ""ClearButton"" onclick = ""clearResponse()"">BACKSPACE</button><button class = blank_button id = ""BlankButton"" onclick = ""blankResponse()"">SKIP</button><p style=""font-size: 2.4rem""><u><b>Current Answer:</b></u></p><br><br><div id=echoed_txt style=""font-size: 5rem; color:blue;""><b></b></div></div>",enter,ospan,retrieval,iMGEaU9pRKgVPffyC0wYkt7R6412,html-keyboard-response,98,548059,0.0-46.0-2.0-2.0-2.0-0.0,NA,NA,NA,3.0,"[""R"",""Q"",""J""]","[""R"",""Q"",""J""]",1.0,3.0,"['<font color=""green"">R</font>', '<font color=""green"">Q</font>', '<font color=""green"">J</font>']",,,,,,655faeaa22964920719a77b3,09:31:10,03/04/2024
1381.5,"['<p style=""font-size:44px"">Letters:<br><br><br><font color=""green"">R</font> <font color=""green"">Q</font> <font color=""green"">J</font></p><br><br><p style=""font-size:30px"">Symmetry:<br><br><font color=""green"">100%</font></p><br><br>']",0,ospan,practice_feedback,iMGEaU9pRKgVPffyC0wYkt7R6412,html-button-response,99,549972,0.0-46.0-2.0-2.0-2.0-1.0,,,,,,,,,,,,,,,655faeaa22964920719a77b3,09:31:10,03/04/2024
6782.5,"<div class = 'left_align' style='font-size: 3rem; line-height: 1.3;'><b>Great work! That is the end of practice.</b><br><br>The real trials will look just like the practice trials you just completed.<br><br><u>Here, you will not see feedback</u>. First, you will see an grid picture to judge,<br>then a letter to remember. When the recall screen appears, report the letters in the<br>order presented. If you forget a letter, remember to use the <b>blank</b> button to move to the<br>next letter. Some of the sets will have more symmetry grids and letters than others.<br><br>It is important that you do your best on both the symmetry judgments and the letter recall<br>parts of the experiment. For for the symmetry judgments, try to work as <b>quickly</b> and <br>as <b>accurately</b> as possible. Remember to keep your symmetry accuracy at 85% or above.<br><br><b>For the letters, do NOT use any external aid (e.g., writing on paper, electronic device).</b><br><br>It is <u>very important</u> to our experiment to have a <b>true</b> view of your real performance.<br><br>Do not worry if you miss some when it gets hard! This task is meant to be very challenging!<br><br>Click the button to begin.</div><br><br><br><br>",0,ospan,starting_real_here,iMGEaU9pRKgVPffyC0wYkt7R6412,html-button-response,100,556756,0.0-46.0-2.0-3.0,,,,,,,,,,,,,,,655faeaa22964920719a77b3,09:31:10,03/04/2024
,"<p style=""font-size:75px;"">...</p>",,ospan,iti,iMGEaU9pRKgVPffyC0wYkt7R6412,html-keyboard-response,101,558060,0.0-46.0-3.0-0.0-0.0,,,,,,,,,,,,,,,655faeaa22964920719a77b3,09:31:10,03/04/2024
1442.0,,,ospan,symmetry,iMGEaU9pRKgVPffyC0wYkt7R6412,symmetry-judgement-task,102,560556,0.0-46.0-3.0-0.0-1.0-0.0,,,,,,,,,,1.0,1.0,,,,655faeaa22964920719a77b3,09:31:10,03/04/2024
,"<div style=""font-size: 10rem; color: #0000FF"">K</div>",,ospan,letter,iMGEaU9pRKgVPffyC0wYkt7R6412,html-keyboard-response,103,561580,0.0-46.0-3.0-0.0-1.0-1.0,,,,,,,,,,,,,,,655faeaa22964920719a77b3,09:31:10,03/04/2024
1239.0,,,ospan,symmetry,iMGEaU9pRKgVPffyC0wYkt7R6412,symmetry-judgement-task,104,564716,0.0-46.0-3.0-0.0-1.0-2.0,,,,,,,,,,1.0,1.0,,,,655faeaa22964920719a77b3,09:31:10,03/04/2024
,"<div style=""font-size: 10rem; color: #0000FF"">H</div>",,ospan,letter,iMGEaU9pRKgVPffyC0wYkt7R6412,html-keyboard-response,105,565740,0.0-46.0-3.0-0.0-1.0-3.0,,,,,,,,,,,,,,,655faeaa22964920719a77b3,09:31:10,03/04/2024
938.0,,,ospan,symmetry,iMGEaU9pRKgVPffyC0wYkt7R6412,symmetry-judgement-task,106,568588,0.0-46.0-3.0-0.0-1.0-4.0,,,,,,,,,,1.0,1.0,,,,655faeaa22964920719a77b3,09:31:10,03/04/2024
,"<div style=""font-size: 10rem; color: #0000FF"">C</div>",,ospan,letter,iMGEaU9pRKgVPffyC0wYkt7R6412,html-keyboard-response,107,569612,0.0-46.0-3.0-0.0-1.0-5.0,,,,,,,,,,,,,,,655faeaa22964920719a77b3,09:31:10,03/04/2024
4528.5,"<div class = numbox><p style=""font-size: 2.4rem"">Please recall the letters you saw to the best of your ability. If you do not remember a particular letter, use the SKIP button.<br><b>(When you are ready to lock in your answer, press ENTER)</b></p><button id = button_1 class = ""square num-button"" onclick = ""recordClick(this)""><div class = content><div class = numbers>C</div></div></button><button id = button_2 class = ""square num-button"" onclick = ""recordClick(this)""><div class = content><div class = numbers>G</div></div></button><button id = button_3 class = ""square num-button"" onclick = ""recordClick(this)""><div class = content><div class = numbers>H</div></div></button><button id = button_4 class = ""square num-button"" onclick = ""recordClick(this)""><div class = content><div class = numbers>J</div></div></button><button id = button_5 class = ""square num-button"" onclick = ""recordClick(this)""><div class = content><div class = numbers>K</div></div></button><button id = button_6 class = ""square num-button"" onclick = ""recordClick(this)""><div class = content><div class = numbers>L</div></div></button><button id = button_7 class = ""square num-button"" onclick = ""recordClick(this)""><div class = content><div class = numbers>N</div></div></button><button id = button_8 class = ""square num-button"" onclick = ""recordClick(this)""><div class = content><div class = numbers>P</div></div></button><button id = button_9 class = ""square num-button"" onclick = ""recordClick(this)""><div class = content><div class = numbers>Q</div></div></button><button id = button_10 class = ""square num-button"" onclick = ""recordClick(this)""><div class = content><div class = numbers>R</div></div></button><button id = button_11 class = ""square num-button"" onclick = ""recordClick(this)""><div class = content><div class = numbers>S</div></div></button><button id = button_12 class = ""square num-button"" onclick = ""recordClick(this)""><div class = content><div class = numbers>Y</div></div></button><button class = clear_button id = ""ClearButton"" onclick = ""clearResponse()"">BACKSPACE</button><button class = blank_button id = ""BlankButton"" onclick = ""blankResponse()"">SKIP</button><p style=""font-size: 2.4rem""><u><b>Current Answer:</b></u></p><br><br><div id=echoed_txt style=""font-size: 5rem; color:blue;""><b></b></div></div>",enter,ospan,retrieval,iMGEaU9pRKgVPffyC0wYkt7R6412,html-keyboard-response,108,574911,0.0-46.0-3.0-0.0-2.0,3,3,3,3.0,"[""K"",""H"",""C""]","[""K"",""H"",""C""]",1.0,3.0,,,,,,,655faeaa22964920719a77b3,09:31:10,03/04/2024
1051.1000000238419,[''],0,ospan,feedback,iMGEaU9pRKgVPffyC0wYkt7R6412,html-button-response,109,576489,0.0-46.0-3.0-0.0-3.0,,,,,,,,,,,,100.0,0.0,,655faeaa22964920719a77b3,09:31:10,03/04/2024
,"<p style=""font-size:75px;"">...</p>",,ospan,iti,iMGEaU9pRKgVPffyC0wYkt7R6412,html-keyboard-response,110,577516,0.0-46.0-4.0-0.0-0.0,,,,,,,,,,,,,,,655faeaa22964920719a77b3,09:31:10,03/04/2024
1521.0,,,ospan,symmetry,iMGEaU9pRKgVPffyC0wYkt7R6412,symmetry-judgement-task,111,580172,0.0-46.0-4.0-0.0-1.0-0.0,,,,,,,,,,1.0,1.0,,,,655faeaa22964920719a77b3,09:31:10,03/04/2024
,"<div style=""font-size: 10rem; color: #0000FF"">G</div>",,ospan,letter,iMGEaU9pRKgVPffyC0wYkt7R6412,html-keyboard-response,112,581196,0.0-46.0-4.0-0.0-1.0-1.0,,,,,,,,,,,,,,,655faeaa22964920719a77b3,09:31:10,03/04/2024
1157.0,,,ospan,symmetry,iMGEaU9pRKgVPffyC0wYkt7R6412,symmetry-judgement-task,113,584268,0.0-46.0-4.0-0.0-1.0-2.0,,,,,,,,,,1.0,1.0,,,,655faeaa22964920719a77b3,09:31:10,03/04/2024
,"<div style=""font-size: 10rem; color: #0000FF"">N</div>",,ospan,letter,iMGEaU9pRKgVPffyC0wYkt7R6412,html-keyboard-response,114,585292,0.0-46.0-4.0-0.0-1.0-3.0,,,,,,,,,,,,,,,655faeaa22964920719a77b3,09:31:10,03/04/2024
1172.0,,,ospan,symmetry,iMGEaU9pRKgVPffyC0wYkt7R6412,symmetry-judgement-task,115,588364,0.0-46.0-4.0-0.0-1.0-4.0,,,,,,,,,,1.0,1.0,,,,655faeaa22964920719a77b3,09:31:10,03/04/2024
,"<div style=""font-size: 10rem; color: #0000FF"">P</div>",,ospan,letter,iMGEaU9pRKgVPffyC0wYkt7R6412,html-keyboard-response,116,589388,0.0-46.0-4.0-0.0-1.0-5.0,,,,,,,,,,,,,,,655faeaa22964920719a77b3,09:31:10,03/04/2024
1357.0,,,ospan,symmetry,iMGEaU9pRKgVPffyC0wYkt7R6412,symmetry-judgement-task,117,592652,0.0-46.0-4.0-0.0-1.0-6.0,,,,,,,,,,1.0,1.0,,,,655faeaa22964920719a77b3,09:31:10,03/04/2024
,"<div style=""font-size: 10rem; color: #0000FF"">C</div>",,ospan,letter,iMGEaU9pRKgVPffyC0wYkt7R6412,html-keyboard-response,118,593676,0.0-46.0-4.0-0.0-1.0-7.0,,,,,,,,,,,,,,,655faeaa22964920719a77b3,09:31:10,03/04/2024
4339.800000011921,"<div class = numbox><p style=""font-size: 2.4rem"">Please recall the letters you saw to the best of your ability. If you do not remember a particular letter, use the SKIP button.<br><b>(When you are ready to lock in your answer, press ENTER)</b></p><button id = button_1 class = ""square num-button"" onclick = ""recordClick(this)""><div class = content><div class = numbers>C</div></div></button><button id = button_2 class = ""square num-button"" onclick = ""recordClick(this)""><div class = content><div class = numbers>G</div></div></button><button id = button_3 class = ""square num-button"" onclick = ""recordClick(this)""><div class = content><div class = numbers>H</div></div></button><button id = button_4 class = ""square num-button"" onclick = ""recordClick(this)""><div class = content><div class = numbers>J</div></div></button><button id = button_5 class = ""square num-button"" onclick = ""recordClick(this)""><div class = content><div class = numbers>K</div></div></button><button id = button_6 class = ""square num-button"" onclick = ""recordClick(this)""><div class = content><div class = numbers>L</div></div></button><button id = button_7 class = ""square num-button"" onclick = ""recordClick(this)""><div class = content><div class = numbers>N</div></div></button><button id = button_8 class = ""square num-button"" onclick = ""recordClick(this)""><div class = content><div class = numbers>P</div></div></button><button id = button_9 class = ""square num-button"" onclick = ""recordClick(this)""><div class = content><div class = numbers>Q</div></div></button><button id = button_10 class = ""square num-button"" onclick = ""recordClick(this)""><div class = content><div class = numbers>R</div></div></button><button id = button_11 class = ""square num-button"" onclick = ""recordClick(this)""><div class = content><div class = numbers>S</div></div></button><button id = button_12 class = ""square num-button"" onclick = ""recordClick(this)""><div class = content><div class = numbers>Y</div></div></button><button class = clear_button id = ""ClearButton"" onclick = ""clearResponse()"">BACKSPACE</button><button class = blank_button id = ""BlankButton"" onclick = ""blankResponse()"">SKIP</button><p style=""font-size: 2.4rem""><u><b>Current Answer:</b></u></p><br><br><div id=echoed_txt style=""font-size: 5rem; color:blue;""><b></b></div></div>",enter,ospan,retrieval,iMGEaU9pRKgVPffyC0wYkt7R6412,html-keyboard-response,119,598786,0.0-46.0-4.0-0.0-2.0,7,7,7,4.0,"[""G"",""N"",""P"",""C""]","[""G"",""N"",""P"",""C""]",1.0,4.0,,,,,,,655faeaa22964920719a77b3,09:31:10,03/04/2024
1018.6999999880791,[''],0,ospan,feedback,iMGEaU9pRKgVPffyC0wYkt7R6412,html-button-response,120,600327,0.0-46.0-4.0-0.0-3.0,,,,,,,,,,,,100.0,0.0,,655faeaa22964920719a77b3,09:31:10,03/04/2024
,"<p style=""font-size:75px;"">...</p>",,ospan,iti,iMGEaU9pRKgVPffyC0wYkt7R6412,html-keyboard-response,121,601356,0.0-46.0-4.0-1.0-0.0,,,,,,,,,,,,,,,655faeaa22964920719a77b3,09:31:10,03/04/2024
1974.0,,,ospan,symmetry,iMGEaU9pRKgVPffyC0wYkt7R6412,symmetry-judgement-task,122,604460,0.0-46.0-4.0-1.0-1.0-0.0,,,,,,,,,,1.0,1.0,,,,655faeaa22964920719a77b3,09:31:10,03/04/2024
,"<div style=""font-size: 10rem; color: #0000FF"">N</div>",,ospan,letter,iMGEaU9pRKgVPffyC0wYkt7R6412,html-keyboard-response,123,605484,0.0-46.0-4.0-1.0-1.0-1.0,,,,,,,,,,,,,,,655faeaa22964920719a77b3,09:31:10,03/04/2024
1145.0,,,ospan,symmetry,iMGEaU9pRKgVPffyC0wYkt7R6412,symmetry-judgement-task,124,608524,0.0-46.0-4.0-1.0-1.0-2.0,,,,,,,,,,1.0,1.0,,,,655faeaa22964920719a77b3,09:31:10,03/04/2024
,"<div style=""font-size: 10rem; color: #0000FF"">R</div>",,ospan,letter,iMGEaU9pRKgVPffyC0wYkt7R6412,html-keyboard-response,125,609549,0.0-46.0-4.0-1.0-1.0-3.0,,,,,,,,,,,,,,,655faeaa22964920719a77b3,09:31:10,03/04/2024
1150.0,,,ospan,symmetry,iMGEaU9pRKgVPffyC0wYkt7R6412,symmetry-judgement-task,126,612620,0.0-46.0-4.0-1.0-1.0-4.0,,,,,,,,,,1.0,1.0,,,,655faeaa22964920719a77b3,09:31:10,03/04/2024
,"<div style=""font-size: 10rem; color: #0000FF"">H</div>",,ospan,letter,iMGEaU9pRKgVPffyC0wYkt7R6412,html-keyboard-response,127,613644,0.0-46.0-4.0-1.0-1.0-5.0,,,,,,,,,,,,,,,655faeaa22964920719a77b3,09:31:10,03/04/2024
1057.0,,,ospan,symmetry,iMGEaU9pRKgVPffyC0wYkt7R6412,symmetry-judgement-task,128,616620,0.0-46.0-4.0-1.0-1.0-6.0,,,,,,,,,,1.0,1.0,,,,655faeaa22964920719a77b3,09:31:10,03/04/2024
,"<div style=""font-size: 10rem; color: #0000FF"">P</div>",,ospan,letter,iMGEaU9pRKgVPffyC0wYkt7R6412,html-keyboard-response,129,617644,0.0-46.0-4.0-1.0-1.0-7.0,,,,,,,,,,,,,,,655faeaa22964920719a77b3,09:31:10,03/04/2024
1290.0,,,ospan,symmetry,iMGEaU9pRKgVPffyC0wYkt7R6412,symmetry-judgement-task,130,620844,0.0-46.0-4.0-1.0-1.0-8.0,,,,,,,,,,1.0,1.0,,,,655faeaa22964920719a77b3,09:31:10,03/04/2024
,"<div style=""font-size: 10rem; color: #0000FF"">C</div>",,ospan,letter,iMGEaU9pRKgVPffyC0wYkt7R6412,html-keyboard-response,131,621869,0.0-46.0-4.0-1.0-1.0-9.0,,,,,,,,,,,,,,,655faeaa22964920719a77b3,09:31:10,03/04/2024
5033.699999988079,"<div class = numbox><p style=""font-size: 2.4rem"">Please recall the letters you saw to the best of your ability. If you do not remember a particular letter, use the SKIP button.<br><b>(When you are ready to lock in your answer, press ENTER)</b></p><button id = button_1 class = ""square num-button"" onclick = ""recordClick(this)""><div class = content><div class = numbers>C</div></div></button><button id = button_2 class = ""square num-button"" onclick = ""recordClick(this)""><div class = content><div class = numbers>G</div></div></button><button id = button_3 class = ""square num-button"" onclick = ""recordClick(this)""><div class = content><div class = numbers>H</div></div></button><button id = button_4 class = ""square num-button"" onclick = ""recordClick(this)""><div class = content><div class = numbers>J</div></div></button><button id = button_5 class = ""square num-button"" onclick = ""recordClick(this)""><div class = content><div class = numbers>K</div></div></button><button id = button_6 class = ""square num-button"" onclick = ""recordClick(this)""><div class = content><div class = numbers>L</div></div></button><button id = button_7 class = ""square num-button"" onclick = ""recordClick(this)""><div class = content><div class = numbers>N</div></div></button><button id = button_8 class = ""square num-button"" onclick = ""recordClick(this)""><div class = content><div class = numbers>P</div></div></button><button id = button_9 class = ""square num-button"" onclick = ""recordClick(this)""><div class = content><div class = numbers>Q</div></div></button><button id = button_10 class = ""square num-button"" onclick = ""recordClick(this)""><div class = content><div class = numbers>R</div></div></button><button id = button_11 class = ""square num-button"" onclick = ""recordClick(this)""><div class = content><div class = numbers>S</div></div></button><button id = button_12 class = ""square num-button"" onclick = ""recordClick(this)""><div class = content><div class = numbers>Y</div></div></button><button class = clear_button id = ""ClearButton"" onclick = ""clearResponse()"">BACKSPACE</button><button class = blank_button id = ""BlankButton"" onclick = ""blankResponse()"">SKIP</button><p style=""font-size: 2.4rem""><u><b>Current Answer:</b></u></p><br><br><div id=echoed_txt style=""font-size: 5rem; color:blue;""><b></b></div></div>",enter,ospan,retrieval,iMGEaU9pRKgVPffyC0wYkt7R6412,html-keyboard-response,132,627672,0.0-46.0-4.0-1.0-2.0,12,12,12,5.0,"[""N"",""R"",""H"",""P"",""C""]","[""N"",""R"",""H"",""P"",""C""]",1.0,5.0,,,,,,,655faeaa22964920719a77b3,09:31:10,03/04/2024
816.0,[''],0,ospan,feedback,iMGEaU9pRKgVPffyC0wYkt7R6412,html-button-response,133,628990,0.0-46.0-4.0-1.0-3.0,,,,,,,,,,,,100.0,0.0,,655faeaa22964920719a77b3,09:31:10,03/04/2024
,"<p style=""font-size:75px;"">...</p>",,ospan,iti,iMGEaU9pRKgVPffyC0wYkt7R6412,html-keyboard-response,134,629996,0.0-46.0-4.0-2.0-0.0,,,,,,,,,,,,,,,655faeaa22964920719a77b3,09:31:10,03/04/2024
1300.0,,,ospan,symmetry,iMGEaU9pRKgVPffyC0wYkt7R6412,symmetry-judgement-task,135,632428,0.0-46.0-4.0-2.0-1.0-0.0,,,,,,,,,,1.0,1.0,,,,655faeaa22964920719a77b3,09:31:10,03/04/2024
,"<div style=""font-size: 10rem; color: #0000FF"">Q</div>",,ospan,letter,iMGEaU9pRKgVPffyC0wYkt7R6412,html-keyboard-response,136,633453,0.0-46.0-4.0-2.0-1.0-1.0,,,,,,,,,,,,,,,655faeaa22964920719a77b3,09:31:10,03/04/2024
1217.0,,,ospan,symmetry,iMGEaU9pRKgVPffyC0wYkt7R6412,symmetry-judgement-task,137,636556,0.0-46.0-4.0-2.0-1.0-2.0,,,,,,,,,,1.0,1.0,,,,655faeaa22964920719a77b3,09:31:10,03/04/2024
,"<div style=""font-size: 10rem; color: #0000FF"">N</div>",,ospan,letter,iMGEaU9pRKgVPffyC0wYkt7R6412,html-keyboard-response,138,637581,0.0-46.0-4.0-2.0-1.0-3.0,,,,,,,,,,,,,,,655faeaa22964920719a77b3,09:31:10,03/04/2024
1158.0,,,ospan,symmetry,iMGEaU9pRKgVPffyC0wYkt7R6412,symmetry-judgement-task,139,640652,0.0-46.0-4.0-2.0-1.0-4.0,,,,,,,,,,1.0,1.0,,,,655faeaa22964920719a77b3,09:31:10,03/04/2024
,"<div style=""font-size: 10rem; color: #0000FF"">G</div>",,ospan,letter,iMGEaU9pRKgVPffyC0wYkt7R6412,html-keyboard-response,140,641676,0.0-46.0-4.0-2.0-1.0-5.0,,,,,,,,,,,,,,,655faeaa22964920719a77b3,09:31:10,03/04/2024
3739.899999976158,"<div class = numbox><p style=""font-size: 2.4rem"">Please recall the letters you saw to the best of your ability. If you do not remember a particular letter, use the SKIP button.<br><b>(When you are ready to lock in your answer, press ENTER)</b></p><button id = button_1 class = ""square num-button"" onclick = ""recordClick(this)""><div class = content><div class = numbers>C</div></div></button><button id = button_2 class = ""square num-button"" onclick = ""recordClick(this)""><div class = content><div class = numbers>G</div></div></button><button id = button_3 class = ""square num-button"" onclick = ""recordClick(this)""><div class = content><div class = numbers>H</div></div></button><button id = button_4 class = ""square num-button"" onclick = ""recordClick(this)""><div class = content><div class = numbers>J</div></div></button><button id = button_5 class = ""square num-button"" onclick = ""recordClick(this)""><div class = content><div class = numbers>K</div></div></button><button id = button_6 class = ""square num-button"" onclick = ""recordClick(this)""><div class = content><div class = numbers>L</div></div></button><button id = button_7 class = ""square num-button"" onclick = ""recordClick(this)""><div class = content><div class = numbers>N</div></div></button><button id = button_8 class = ""square num-button"" onclick = ""recordClick(this)""><div class = content><div class = numbers>P</div></div></button><button id = button_9 class = ""square num-button"" onclick = ""recordClick(this)""><div class = content><div class = numbers>Q</div></div></button><button id = button_10 class = ""square num-button"" onclick = ""recordClick(this)""><div class = content><div class = numbers>R</div></div></button><button id = button_11 class = ""square num-button"" onclick = ""recordClick(this)""><div class = content><div class = numbers>S</div></div></button><button id = button_12 class = ""square num-button"" onclick = ""recordClick(this)""><div class = content><div class = numbers>Y</div></div></button><button class = clear_button id = ""ClearButton"" onclick = ""clearResponse()"">BACKSPACE</button><button class = blank_button id = ""BlankButton"" onclick = ""blankResponse()"">SKIP</button><p style=""font-size: 2.4rem""><u><b>Current Answer:</b></u></p><br><br><div id=echoed_txt style=""font-size: 5rem; color:blue;""><b></b></div></div>",enter,ospan,retrieval,iMGEaU9pRKgVPffyC0wYkt7R6412,html-keyboard-response,141,646186,0.0-46.0-4.0-2.0-2.0,15,15,15,3.0,"[""Q"",""N"",""G""]","[""Q"",""N"",""G""]",1.0,3.0,,,,,,,655faeaa22964920719a77b3,09:31:10,03/04/2024
703.2000000476837,[''],0,ospan,feedback,iMGEaU9pRKgVPffyC0wYkt7R6412,html-button-response,142,647405,0.0-46.0-4.0-2.0-3.0,,,,,,,,,,,,100.0,0.0,,655faeaa22964920719a77b3,09:31:10,03/04/2024
,"<p style=""font-size:75px;"">...</p>",,ospan,iti,iMGEaU9pRKgVPffyC0wYkt7R6412,html-keyboard-response,143,648429,0.0-46.0-5.0-0.0-0.0,,,,,,,,,,,,,,,655faeaa22964920719a77b3,09:31:10,03/04/2024
1869.0,,,ospan,symmetry,iMGEaU9pRKgVPffyC0wYkt7R6412,symmetry-judgement-task,144,651436,0.0-46.0-5.0-0.0-1.0-0.0,,,,,,,,,,1.0,1.0,,,,655faeaa22964920719a77b3,09:31:10,03/04/2024
,"<div style=""font-size: 10rem; color: #0000FF"">P</div>",,ospan,letter,iMGEaU9pRKgVPffyC0wYkt7R6412,html-keyboard-response,145,652460,0.0-46.0-5.0-0.0-1.0-1.0,,,,,,,,,,,,,,,655faeaa22964920719a77b3,09:31:10,03/04/2024
1412.0,,,ospan,symmetry,iMGEaU9pRKgVPffyC0wYkt7R6412,symmetry-judgement-task,146,655692,0.0-46.0-5.0-0.0-1.0-2.0,,,,,,,,,,1.0,1.0,,,,655faeaa22964920719a77b3,09:31:10,03/04/2024
,"<div style=""font-size: 10rem; color: #0000FF"">C</div>",,ospan,letter,iMGEaU9pRKgVPffyC0wYkt7R6412,html-keyboard-response,147,656716,0.0-46.0-5.0-0.0-1.0-3.0,,,,,,,,,,,,,,,655faeaa22964920719a77b3,09:31:10,03/04/2024
1363.0,,,ospan,symmetry,iMGEaU9pRKgVPffyC0wYkt7R6412,symmetry-judgement-task,148,659980,0.0-46.0-5.0-0.0-1.0-4.0,,,,,,,,,,1.0,1.0,,,,655faeaa22964920719a77b3,09:31:10,03/04/2024
,"<div style=""font-size: 10rem; color: #0000FF"">Y</div>",,ospan,letter,iMGEaU9pRKgVPffyC0wYkt7R6412,html-keyboard-response,149,661004,0.0-46.0-5.0-0.0-1.0-5.0,,,,,,,,,,,,,,,655faeaa22964920719a77b3,09:31:10,03/04/2024
1340.0,,,ospan,symmetry,iMGEaU9pRKgVPffyC0wYkt7R6412,symmetry-judgement-task,150,664268,0.0-46.0-5.0-0.0-1.0-6.0,,,,,,,,,,1.0,1.0,,,,655faeaa22964920719a77b3,09:31:10,03/04/2024
,"<div style=""font-size: 10rem; color: #0000FF"">H</div>",,ospan,letter,iMGEaU9pRKgVPffyC0wYkt7R6412,html-keyboard-response,151,665293,0.0-46.0-5.0-0.0-1.0-7.0,,,,,,,,,,,,,,,655faeaa22964920719a77b3,09:31:10,03/04/2024
1174.0,,,ospan,symmetry,iMGEaU9pRKgVPffyC0wYkt7R6412,symmetry-judgement-task,152,668365,0.0-46.0-5.0-0.0-1.0-8.0,,,,,,,,,,1.0,1.0,,,,655faeaa22964920719a77b3,09:31:10,03/04/2024
,"<div style=""font-size: 10rem; color: #0000FF"">G</div>",,ospan,letter,iMGEaU9pRKgVPffyC0wYkt7R6412,html-keyboard-response,153,669389,0.0-46.0-5.0-0.0-1.0-9.0,,,,,,,,,,,,,,,655faeaa22964920719a77b3,09:31:10,03/04/2024
1368.0,,,ospan,symmetry,iMGEaU9pRKgVPffyC0wYkt7R6412,symmetry-judgement-task,154,672685,0.0-46.0-5.0-0.0-1.0-10.0,,,,,,,,,,1.0,1.0,,,,655faeaa22964920719a77b3,09:31:10,03/04/2024
,"<div style=""font-size: 10rem; color: #0000FF"">R</div>",,ospan,letter,iMGEaU9pRKgVPffyC0wYkt7R6412,html-keyboard-response,155,673709,0.0-46.0-5.0-0.0-1.0-11.0,,,,,,,,,,,,,,,655faeaa22964920719a77b3,09:31:10,03/04/2024
8247.600000023842,"<div class = numbox><p style=""font-size: 2.4rem"">Please recall the letters you saw to the best of your ability. If you do not remember a particular letter, use the SKIP button.<br><b>(When you are ready to lock in your answer, press ENTER)</b></p><button id = button_1 class = ""square num-button"" onclick = ""recordClick(this)""><div class = content><div class = numbers>C</div></div></button><button id = button_2 class = ""square num-button"" onclick = ""recordClick(this)""><div class = content><div class = numbers>G</div></div></button><button id = button_3 class = ""square num-button"" onclick = ""recordClick(this)""><div class = content><div class = numbers>H</div></div></button><button id = button_4 class = ""square num-button"" onclick = ""recordClick(this)""><div class = content><div class = numbers>J</div></div></button><button id = button_5 class = ""square num-button"" onclick = ""recordClick(this)""><div class = content><div class = numbers>K</div></div></button><button id = button_6 class = ""square num-button"" onclick = ""recordClick(this)""><div class = content><div class = numbers>L</div></div></button><button id = button_7 class = ""square num-button"" onclick = ""recordClick(this)""><div class = content><div class = numbers>N</div></div></button><button id = button_8 class = ""square num-button"" onclick = ""recordClick(this)""><div class = content><div class = numbers>P</div></div></button><button id = button_9 class = ""square num-button"" onclick = ""recordClick(this)""><div class = content><div class = numbers>Q</div></div></button><button id = button_10 class = ""square num-button"" onclick = ""recordClick(this)""><div class = content><div class = numbers>R</div></div></button><button id = button_11 class = ""square num-button"" onclick = ""recordClick(this)""><div class = content><div class = numbers>S</div></div></button><button id = button_12 class = ""square num-button"" onclick = ""recordClick(this)""><div class = content><div class = numbers>Y</div></div></button><button class = clear_button id = ""ClearButton"" onclick = ""clearResponse()"">BACKSPACE</button><button class = blank_button id = ""BlankButton"" onclick = ""blankResponse()"">SKIP</button><p style=""font-size: 2.4rem""><u><b>Current Answer:</b></u></p><br><br><div id=echoed_txt style=""font-size: 5rem; color:blue;""><b></b></div></div>",enter,ospan,retrieval,iMGEaU9pRKgVPffyC0wYkt7R6412,html-keyboard-response,156,682726,0.0-46.0-5.0-0.0-2.0,21,21,21,6.0,"[""P"",""C"",""Y"",""H"",""G"",""R""]","[""P"",""C"",""Y"",""H"",""G"",""R""]",1.0,6.0,,,,,,,655faeaa22964920719a77b3,09:31:10,03/04/2024
1642.2000000476837,[''],0,ospan,feedback,iMGEaU9pRKgVPffyC0wYkt7R6412,html-button-response,157,684889,0.0-46.0-5.0-0.0-3.0,,,,,,,,,,,,100.0,0.0,,655faeaa22964920719a77b3,09:31:10,03/04/2024
,"<p style=""font-size:75px;"">...</p>",,ospan,iti,iMGEaU9pRKgVPffyC0wYkt7R6412,html-keyboard-response,158,685901,0.0-46.0-5.0-1.0-0.0,,,,,,,,,,,,,,,655faeaa22964920719a77b3,09:31:10,03/04/2024
1522.0,,,ospan,symmetry,iMGEaU9pRKgVPffyC0wYkt7R6412,symmetry-judgement-task,159,688460,0.0-46.0-5.0-1.0-1.0-0.0,,,,,,,,,,1.0,1.0,,,,655faeaa22964920719a77b3,09:31:10,03/04/2024
,"<div style=""font-size: 10rem; color: #0000FF"">G</div>",,ospan,letter,iMGEaU9pRKgVPffyC0wYkt7R6412,html-keyboard-response,160,689485,0.0-46.0-5.0-1.0-1.0-1.0,,,,,,,,,,,,,,,655faeaa22964920719a77b3,09:31:10,03/04/2024
1031.0,,,ospan,symmetry,iMGEaU9pRKgVPffyC0wYkt7R6412,symmetry-judgement-task,161,692428,0.0-46.0-5.0-1.0-1.0-2.0,,,,,,,,,,1.0,1.0,,,,655faeaa22964920719a77b3,09:31:10,03/04/2024
,"<div style=""font-size: 10rem; color: #0000FF"">Q</div>",,ospan,letter,iMGEaU9pRKgVPffyC0wYkt7R6412,html-keyboard-response,162,693452,0.0-46.0-5.0-1.0-1.0-3.0,,,,,,,,,,,,,,,655faeaa22964920719a77b3,09:31:10,03/04/2024
1029.0,,,ospan,symmetry,iMGEaU9pRKgVPffyC0wYkt7R6412,symmetry-judgement-task,163,696396,0.0-46.0-5.0-1.0-1.0-4.0,,,,,,,,,,1.0,1.0,,,,655faeaa22964920719a77b3,09:31:10,03/04/2024
,"<div style=""font-size: 10rem; color: #0000FF"">H</div>",,ospan,letter,iMGEaU9pRKgVPffyC0wYkt7R6412,html-keyboard-response,164,697421,0.0-46.0-5.0-1.0-1.0-5.0,,,,,,,,,,,,,,,655faeaa22964920719a77b3,09:31:10,03/04/2024
885.0,,,ospan,symmetry,iMGEaU9pRKgVPffyC0wYkt7R6412,symmetry-judgement-task,165,700236,0.0-46.0-5.0-1.0-1.0-6.0,,,,,,,,,,1.0,1.0,,,,655faeaa22964920719a77b3,09:31:10,03/04/2024
,"<div style=""font-size: 10rem; color: #0000FF"">N</div>",,ospan,letter,iMGEaU9pRKgVPffyC0wYkt7R6412,html-keyboard-response,166,701261,0.0-46.0-5.0-1.0-1.0-7.0,,,,,,,,,,,,,,,655faeaa22964920719a77b3,09:31:10,03/04/2024
1009.0,,,ospan,symmetry,iMGEaU9pRKgVPffyC0wYkt7R6412,symmetry-judgement-task,167,704173,0.0-46.0-5.0-1.0-1.0-8.0,,,,,,,,,,1.0,1.0,,,,655faeaa22964920719a77b3,09:31:10,03/04/2024
,"<div style=""font-size: 10rem; color: #0000FF"">Y</div>",,ospan,letter,iMGEaU9pRKgVPffyC0wYkt7R6412,html-keyboard-response,168,705197,0.0-46.0-5.0-1.0-1.0-9.0,,,,,,,,,,,,,,,655faeaa22964920719a77b3,09:31:10,03/04/2024
1069.0,,,ospan,symmetry,iMGEaU9pRKgVPffyC0wYkt7R6412,symmetry-judgement-task,169,708173,0.0-46.0-5.0-1.0-1.0-10.0,,,,,,,,,,1.0,1.0,,,,655faeaa22964920719a77b3,09:31:10,03/04/2024
,"<div style=""font-size: 10rem; color: #0000FF"">P</div>",,ospan,letter,iMGEaU9pRKgVPffyC0wYkt7R6412,html-keyboard-response,170,709197,0.0-46.0-5.0-1.0-1.0-11.0,,,,,,,,,,,,,,,655faeaa22964920719a77b3,09:31:10,03/04/2024
1194.0,,,ospan,symmetry,iMGEaU9pRKgVPffyC0wYkt7R6412,symmetry-judgement-task,171,712300,0.0-46.0-5.0-1.0-1.0-12.0,,,,,,,,,,1.0,1.0,,,,655faeaa22964920719a77b3,09:31:10,03/04/2024
,"<div style=""font-size: 10rem; color: #0000FF"">L</div>",,ospan,letter,iMGEaU9pRKgVPffyC0wYkt7R6412,html-keyboard-response,172,713325,0.0-46.0-5.0-1.0-1.0-13.0,,,,,,,,,,,,,,,655faeaa22964920719a77b3,09:31:10,03/04/2024
8188.399999976158,"<div class = numbox><p style=""font-size: 2.4rem"">Please recall the letters you saw to the best of your ability. If you do not remember a particular letter, use the SKIP button.<br><b>(When you are ready to lock in your answer, press ENTER)</b></p><button id = button_1 class = ""square num-button"" onclick = ""recordClick(this)""><div class = content><div class = numbers>C</div></div></button><button id = button_2 class = ""square num-button"" onclick = ""recordClick(this)""><div class = content><div class = numbers>G</div></div></button><button id = button_3 class = ""square num-button"" onclick = ""recordClick(this)""><div class = content><div class = numbers>H</div></div></button><button id = button_4 class = ""square num-button"" onclick = ""recordClick(this)""><div class = content><div class = numbers>J</div></div></button><button id = button_5 class = ""square num-button"" onclick = ""recordClick(this)""><div class = content><div class = numbers>K</div></div></button><button id = button_6 class = ""square num-button"" onclick = ""recordClick(this)""><div class = content><div class = numbers>L</div></div></button><button id = button_7 class = ""square num-button"" onclick = ""recordClick(this)""><div class = content><div class = numbers>N</div></div></button><button id = button_8 class = ""square num-button"" onclick = ""recordClick(this)""><div class = content><div class = numbers>P</div></div></button><button id = button_9 class = ""square num-button"" onclick = ""recordClick(this)""><div class = content><div class = numbers>Q</div></div></button><button id = button_10 class = ""square num-button"" onclick = ""recordClick(this)""><div class = content><div class = numbers>R</div></div></button><button id = button_11 class = ""square num-button"" onclick = ""recordClick(this)""><div class = content><div class = numbers>S</div></div></button><button id = button_12 class = ""square num-button"" onclick = ""recordClick(this)""><div class = content><div class = numbers>Y</div></div></button><button class = clear_button id = ""ClearButton"" onclick = ""clearResponse()"">BACKSPACE</button><button class = blank_button id = ""BlankButton"" onclick = ""blankResponse()"">SKIP</button><p style=""font-size: 2.4rem""><u><b>Current Answer:</b></u></p><br><br><div id=echoed_txt style=""font-size: 5rem; color:blue;""><b></b></div></div>",enter,ospan,retrieval,iMGEaU9pRKgVPffyC0wYkt7R6412,html-keyboard-response,173,722283,0.0-46.0-5.0-1.0-2.0,28,27,21,7.0,"[""G"",""Q"",""H"",""N"",""Y"",""P"",""R""]","[""G"",""Q"",""H"",""N"",""Y"",""P"",""L""]",0.0,6.0,,,,,,,655faeaa22964920719a77b3,09:31:10,03/04/2024
1008.0,[''],0,ospan,feedback,iMGEaU9pRKgVPffyC0wYkt7R6412,html-button-response,174,723806,0.0-46.0-5.0-1.0-3.0,,,,,,,,,,,,100.0,0.0,,655faeaa22964920719a77b3,09:31:10,03/04/2024
,"<p style=""font-size:75px;"">...</p>",,ospan,iti,iMGEaU9pRKgVPffyC0wYkt7R6412,html-keyboard-response,175,724813,0.0-46.0-6.0-0.0-0.0,,,,,,,,,,,,,,,655faeaa22964920719a77b3,09:31:10,03/04/2024
1710.0,,,ospan,symmetry,iMGEaU9pRKgVPffyC0wYkt7R6412,symmetry-judgement-task,176,727661,0.0-46.0-6.0-0.0-1.0-0.0,,,,,,,,,,1.0,1.0,,,,655faeaa22964920719a77b3,09:31:10,03/04/2024
,"<div style=""font-size: 10rem; color: #0000FF"">H</div>",,ospan,letter,iMGEaU9pRKgVPffyC0wYkt7R6412,html-keyboard-response,177,728685,0.0-46.0-6.0-0.0-1.0-1.0,,,,,,,,,,,,,,,655faeaa22964920719a77b3,09:31:10,03/04/2024
925.0,,,ospan,symmetry,iMGEaU9pRKgVPffyC0wYkt7R6412,symmetry-judgement-task,178,731532,0.0-46.0-6.0-0.0-1.0-2.0,,,,,,,,,,1.0,1.0,,,,655faeaa22964920719a77b3,09:31:10,03/04/2024
,"<div style=""font-size: 10rem; color: #0000FF"">Q</div>",,ospan,letter,iMGEaU9pRKgVPffyC0wYkt7R6412,html-keyboard-response,179,732556,0.0-46.0-6.0-0.0-1.0-3.0,,,,,,,,,,,,,,,655faeaa22964920719a77b3,09:31:10,03/04/2024
1388.0,,,ospan,symmetry,iMGEaU9pRKgVPffyC0wYkt7R6412,symmetry-judgement-task,180,735853,0.0-46.0-6.0-0.0-1.0-4.0,,,,,,,,,,1.0,1.0,,,,655faeaa22964920719a77b3,09:31:10,03/04/2024
,"<div style=""font-size: 10rem; color: #0000FF"">Y</div>",,ospan,letter,iMGEaU9pRKgVPffyC0wYkt7R6412,html-keyboard-response,181,736876,0.0-46.0-6.0-0.0-1.0-5.0,,,,,,,,,,,,,,,655faeaa22964920719a77b3,09:31:10,03/04/2024
1207.0,,,ospan,symmetry,iMGEaU9pRKgVPffyC0wYkt7R6412,symmetry-judgement-task,182,739980,0.0-46.0-6.0-0.0-1.0-6.0,,,,,,,,,,1.0,1.0,,,,655faeaa22964920719a77b3,09:31:10,03/04/2024
,"<div style=""font-size: 10rem; color: #0000FF"">P</div>",,ospan,letter,iMGEaU9pRKgVPffyC0wYkt7R6412,html-keyboard-response,183,741005,0.0-46.0-6.0-0.0-1.0-7.0,,,,,,,,,,,,,,,655faeaa22964920719a77b3,09:31:10,03/04/2024
1061.0,,,ospan,symmetry,iMGEaU9pRKgVPffyC0wYkt7R6412,symmetry-judgement-task,184,743981,0.0-46.0-6.0-0.0-1.0-8.0,,,,,,,,,,1.0,1.0,,,,655faeaa22964920719a77b3,09:31:10,03/04/2024
,"<div style=""font-size: 10rem; color: #0000FF"">S</div>",,ospan,letter,iMGEaU9pRKgVPffyC0wYkt7R6412,html-keyboard-response,185,745005,0.0-46.0-6.0-0.0-1.0-9.0,,,,,,,,,,,,,,,655faeaa22964920719a77b3,09:31:10,03/04/2024
5869.799999952316,"<div class = numbox><p style=""font-size: 2.4rem"">Please recall the letters you saw to the best of your ability. If you do not remember a particular letter, use the SKIP button.<br><b>(When you are ready to lock in your answer, press ENTER)</b></p><button id = button_1 class = ""square num-button"" onclick = ""recordClick(this)""><div class = content><div class = numbers>C</div></div></button><button id = button_2 class = ""square num-button"" onclick = ""recordClick(this)""><div class = content><div class = numbers>G</div></div></button><button id = button_3 class = ""square num-button"" onclick = ""recordClick(this)""><div class = content><div class = numbers>H</div></div></button><button id = button_4 class = ""square num-button"" onclick = ""recordClick(this)""><div class = content><div class = numbers>J</div></div></button><button id = button_5 class = ""square num-button"" onclick = ""recordClick(this)""><div class = content><div class = numbers>K</div></div></button><button id = button_6 class = ""square num-button"" onclick = ""recordClick(this)""><div class = content><div class = numbers>L</div></div></button><button id = button_7 class = ""square num-button"" onclick = ""recordClick(this)""><div class = content><div class = numbers>N</div></div></button><button id = button_8 class = ""square num-button"" onclick = ""recordClick(this)""><div class = content><div class = numbers>P</div></div></button><button id = button_9 class = ""square num-button"" onclick = ""recordClick(this)""><div class = content><div class = numbers>Q</div></div></button><button id = button_10 class = ""square num-button"" onclick = ""recordClick(this)""><div class = content><div class = numbers>R</div></div></button><button id = button_11 class = ""square num-button"" onclick = ""recordClick(this)""><div class = content><div class = numbers>S</div></div></button><button id = button_12 class = ""square num-button"" onclick = ""recordClick(this)""><div class = content><div class = numbers>Y</div></div></button><button class = clear_button id = ""ClearButton"" onclick = ""clearResponse()"">BACKSPACE</button><button class = blank_button id = ""BlankButton"" onclick = ""blankResponse()"">SKIP</button><p style=""font-size: 2.4rem""><u><b>Current Answer:</b></u></p><br><br><div id=echoed_txt style=""font-size: 5rem; color:blue;""><b></b></div></div>",enter,ospan,retrieval,iMGEaU9pRKgVPffyC0wYkt7R6412,html-keyboard-response,186,751645,0.0-46.0-6.0-0.0-2.0,33,32,26,5.0,"[""H"",""Q"",""Y"",""P"",""S""]","[""H"",""Q"",""Y"",""P"",""S""]",1.0,5.0,,,,,,,655faeaa22964920719a77b3,09:31:10,03/04/2024
865.1999999880791,[''],0,ospan,feedback,iMGEaU9pRKgVPffyC0wYkt7R6412,html-button-response,187,753039,0.0-46.0-6.0-0.0-3.0,,,,,,,,,,,,100.0,0.0,,655faeaa22964920719a77b3,09:31:10,03/04/2024
,"<p style=""font-size:75px;"">...</p>",,ospan,iti,iMGEaU9pRKgVPffyC0wYkt7R6412,html-keyboard-response,188,754061,0.0-46.0-6.0-1.0-0.0,,,,,,,,,,,,,,,655faeaa22964920719a77b3,09:31:10,03/04/2024
1477.0,,,ospan,symmetry,iMGEaU9pRKgVPffyC0wYkt7R6412,symmetry-judgement-task,189,756685,0.0-46.0-6.0-1.0-1.0-0.0,,,,,,,,,,1.0,1.0,,,,655faeaa22964920719a77b3,09:31:10,03/04/2024
,"<div style=""font-size: 10rem; color: #0000FF"">Q</div>",,ospan,letter,iMGEaU9pRKgVPffyC0wYkt7R6412,html-keyboard-response,190,757709,0.0-46.0-6.0-1.0-1.0-1.0,,,,,,,,,,,,,,,655faeaa22964920719a77b3,09:31:10,03/04/2024
1269.0,,,ospan,symmetry,iMGEaU9pRKgVPffyC0wYkt7R6412,symmetry-judgement-task,191,760877,0.0-46.0-6.0-1.0-1.0-2.0,,,,,,,,,,1.0,1.0,,,,655faeaa22964920719a77b3,09:31:10,03/04/2024
,"<div style=""font-size: 10rem; color: #0000FF"">J</div>",,ospan,letter,iMGEaU9pRKgVPffyC0wYkt7R6412,html-keyboard-response,192,761901,0.0-46.0-6.0-1.0-1.0-3.0,,,,,,,,,,,,,,,655faeaa22964920719a77b3,09:31:10,03/04/2024
1019.0,,,ospan,symmetry,iMGEaU9pRKgVPffyC0wYkt7R6412,symmetry-judgement-task,193,764845,0.0-46.0-6.0-1.0-1.0-4.0,,,,,,,,,,1.0,1.0,,,,655faeaa22964920719a77b3,09:31:10,03/04/2024
,"<div style=""font-size: 10rem; color: #0000FF"">K</div>",,ospan,letter,iMGEaU9pRKgVPffyC0wYkt7R6412,html-keyboard-response,194,765869,0.0-46.0-6.0-1.0-1.0-5.0,,,,,,,,,,,,,,,655faeaa22964920719a77b3,09:31:10,03/04/2024
845.0,,,ospan,symmetry,iMGEaU9pRKgVPffyC0wYkt7R6412,symmetry-judgement-task,195,768621,0.0-46.0-6.0-1.0-1.0-6.0,,,,,,,,,,1.0,1.0,,,,655faeaa22964920719a77b3,09:31:10,03/04/2024
,"<div style=""font-size: 10rem; color: #0000FF"">Y</div>",,ospan,letter,iMGEaU9pRKgVPffyC0wYkt7R6412,html-keyboard-response,196,769645,0.0-46.0-6.0-1.0-1.0-7.0,,,,,,,,,,,,,,,655faeaa22964920719a77b3,09:31:10,03/04/2024
1056.0,,,ospan,symmetry,iMGEaU9pRKgVPffyC0wYkt7R6412,symmetry-judgement-task,197,772621,0.0-46.0-6.0-1.0-1.0-8.0,,,,,,,,,,1.0,1.0,,,,655faeaa22964920719a77b3,09:31:10,03/04/2024
,"<div style=""font-size: 10rem; color: #0000FF"">N</div>",,ospan,letter,iMGEaU9pRKgVPffyC0wYkt7R6412,html-keyboard-response,198,773645,0.0-46.0-6.0-1.0-1.0-9.0,,,,,,,,,,,,,,,655faeaa22964920719a77b3,09:31:10,03/04/2024
1951.0,,,ospan,symmetry,iMGEaU9pRKgVPffyC0wYkt7R6412,symmetry-judgement-task,199,777517,0.0-46.0-6.0-1.0-1.0-10.0,,,,,,,,,,1.0,1.0,,,,655faeaa22964920719a77b3,09:31:10,03/04/2024
,"<div style=""font-size: 10rem; color: #0000FF"">P</div>",,ospan,letter,iMGEaU9pRKgVPffyC0wYkt7R6412,html-keyboard-response,200,778541,0.0-46.0-6.0-1.0-1.0-11.0,,,,,,,,,,,,,,,655faeaa22964920719a77b3,09:31:10,03/04/2024
1369.0,,,ospan,symmetry,iMGEaU9pRKgVPffyC0wYkt7R6412,symmetry-judgement-task,201,781804,0.0-46.0-6.0-1.0-1.0-12.0,,,,,,,,,,1.0,1.0,,,,655faeaa22964920719a77b3,09:31:10,03/04/2024
,"<div style=""font-size: 10rem; color: #0000FF"">G</div>",,ospan,letter,iMGEaU9pRKgVPffyC0wYkt7R6412,html-keyboard-response,202,782829,0.0-46.0-6.0-1.0-1.0-13.0,,,,,,,,,,,,,,,655faeaa22964920719a77b3,09:31:10,03/04/2024
1277.0,,,ospan,symmetry,iMGEaU9pRKgVPffyC0wYkt7R6412,symmetry-judgement-task,203,785997,0.0-46.0-6.0-1.0-1.0-14.0,,,,,,,,,,1.0,1.0,,,,655faeaa22964920719a77b3,09:31:10,03/04/2024
,"<div style=""font-size: 10rem; color: #0000FF"">S</div>",,ospan,letter,iMGEaU9pRKgVPffyC0wYkt7R6412,html-keyboard-response,204,787020,0.0-46.0-6.0-1.0-1.0-15.0,,,,,,,,,,,,,,,655faeaa22964920719a77b3,09:31:10,03/04/2024
9584.600000023842,"<div class = numbox><p style=""font-size: 2.4rem"">Please recall the letters you saw to the best of your ability. If you do not remember a particular letter, use the SKIP button.<br><b>(When you are ready to lock in your answer, press ENTER)</b></p><button id = button_1 class = ""square num-button"" onclick = ""recordClick(this)""><div class = content><div class = numbers>C</div></div></button><button id = button_2 class = ""square num-button"" onclick = ""recordClick(this)""><div class = content><div class = numbers>G</div></div></button><button id = button_3 class = ""square num-button"" onclick = ""recordClick(this)""><div class = content><div class = numbers>H</div></div></button><button id = button_4 class = ""square num-button"" onclick = ""recordClick(this)""><div class = content><div class = numbers>J</div></div></button><button id = button_5 class = ""square num-button"" onclick = ""recordClick(this)""><div class = content><div class = numbers>K</div></div></button><button id = button_6 class = ""square num-button"" onclick = ""recordClick(this)""><div class = content><div class = numbers>L</div></div></button><button id = button_7 class = ""square num-button"" onclick = ""recordClick(this)""><div class = content><div class = numbers>N</div></div></button><button id = button_8 class = ""square num-button"" onclick = ""recordClick(this)""><div class = content><div class = numbers>P</div></div></button><button id = button_9 class = ""square num-button"" onclick = ""recordClick(this)""><div class = content><div class = numbers>Q</div></div></button><button id = button_10 class = ""square num-button"" onclick = ""recordClick(this)""><div class = content><div class = numbers>R</div></div></button><button id = button_11 class = ""square num-button"" onclick = ""recordClick(this)""><div class = content><div class = numbers>S</div></div></button><button id = button_12 class = ""square num-button"" onclick = ""recordClick(this)""><div class = content><div class = numbers>Y</div></div></button><button class = clear_button id = ""ClearButton"" onclick = ""clearResponse()"">BACKSPACE</button><button class = blank_button id = ""BlankButton"" onclick = ""blankResponse()"">SKIP</button><p style=""font-size: 2.4rem""><u><b>Current Answer:</b></u></p><br><br><div id=echoed_txt style=""font-size: 5rem; color:blue;""><b></b></div></div>",enter,ospan,retrieval,iMGEaU9pRKgVPffyC0wYkt7R6412,html-keyboard-response,205,797375,0.0-46.0-6.0-1.0-2.0,41,33,26,8.0,"[""Q"",""Y"",""P"",""R"",""Q"",""J"",""S""]","[""Q"",""J"",""K"",""Y"",""N"",""P"",""G"",""S""]",0.0,1.0,,,,,,,655faeaa22964920719a77b3,09:31:10,03/04/2024
936.9000000357628,[''],0,ospan,feedback,iMGEaU9pRKgVPffyC0wYkt7R6412,html-button-response,206,798839,0.0-46.0-6.0-1.0-3.0,,,,,,,,,,,,100.0,0.0,,655faeaa22964920719a77b3,09:31:10,03/04/2024
18883.399999976158,,{'Q0': 'a little challenging task but clear and not too long'},ospan,survey_ospan,iMGEaU9pRKgVPffyC0wYkt7R6412,lmdlab-survey-text,207,818477,0.0-46.0-7.0,,,,,,,,,,,,,,iMGEaU9pRKgVPffyC0wYkt7R6412,655faeaa22964920719a77b3,09:31:10,03/04/2024
1408.5,<p><p style='font-size: 3rem'>Great work!<br><br>This completes the symmetry and memory task.</p><br><br><br>,0,ospan,finish,iMGEaU9pRKgVPffyC0wYkt7R6412,html-button-response,208,819889,0.0-46.0-8.0,41,33,26,,,,,,,,,100.0,,,655faeaa22964920719a77b3,09:31:10,03/04/2024
