rt,stimulus,response,exp_name,exp_stage,subjectID,trial_type,trial_index,time_elapsed,internal_node_id,ospan_shown,ospan_total,ospan_abs,length,resp_actual,resp_correct,full_correct,num_correct,feedback,accuracy,correct,math_acc,math_warning,databaseID,prolificID,start_time,date
1547.9000000953674,<div class = 'left_align' style='font-size: 3.25rem; line-height: 1.3;'><p class = 'center_align'><b>Welcome to the Symmetry and Memory Task</b><br><br><br><br></p>Press 'continue' to show the instructions.<br><br><br><br></div>,0,ospan,instruct,srLr8lxFnpYbtaZG0WYWqZjNiXg1,html-button-response,54,475314,0.0-46.0-0.0-0.0-0.0,,,,,,,,,,,,,,,60394fde95a5a03dcc668c4b,16:54:48,03/04/2024
5428.0,"<div class = 'left_align' style='font-size: 3.25rem; line-height: 1.3;'><p class = 'center_align'><b>Symmetry and Memory Task</b><br><br></p>In this task, you will try to memorize letters you see on the screen<br>while you also view black and white grid pictures.<br><br>In the next few minutes, you will have some practice to get you familiar<br>with how the task works.<br><br>It may be difficult sometimes, but please do not worry about making mistakes!<br><br>We will begin by practicing the letter part of the task.<br><br><br><br></div>",0,ospan,instruct,srLr8lxFnpYbtaZG0WYWqZjNiXg1,html-button-response,55,481003,0.0-46.0-0.0-0.0-1.0,,,,,,,,,,,,,,,60394fde95a5a03dcc668c4b,16:54:48,03/04/2024
6013.200000047684,"<div class = 'left_align' style='font-size: 3.25rem; line-height: 1.3;'>For this practice part, letters will appear on the screen one at a time.<br><br>Try to remember each letter in the order presented.<br><br>After some letters have been shown, you will see a response screen. Your<br>goal is to report the letters you saw <b>in order</b>. If you do not remember<br>a particular letter, you will have the option to leave it blank.<br><br><br><br></div>",0,ospan,instruct,srLr8lxFnpYbtaZG0WYWqZjNiXg1,html-button-response,56,487270,0.0-46.0-0.0-0.0-2.0,,,,,,,,,,,,,,,60394fde95a5a03dcc668c4b,16:54:48,03/04/2024
1665.2999999523163,"<div class = 'left_align' style='font-size: 3.25rem; line-height: 1.3;'>Remember, it is very important to get the letters in the same<br>order as you see them.<br><br>When you are ready, you may begin the letter practice.</div><br><br><br><br>",0,ospan,instruct,srLr8lxFnpYbtaZG0WYWqZjNiXg1,html-button-response,57,489194,0.0-46.0-0.0-0.0-3.0,,,,,,,,,,,,,,,60394fde95a5a03dcc668c4b,16:54:48,03/04/2024
,"<p style=""font-size:75px;"">...</p>",,ospan,iti,srLr8lxFnpYbtaZG0WYWqZjNiXg1,html-keyboard-response,58,490477,0.0-46.0-0.0-1.0-0.0,,,,,,,,,,,,,,,60394fde95a5a03dcc668c4b,16:54:48,03/04/2024
,"<div style=""font-size: 10rem; color: #0000FF"">L</div>",,ospan,letter,srLr8lxFnpYbtaZG0WYWqZjNiXg1,html-keyboard-response,59,491483,0.0-46.0-0.0-1.0-1.0,,,,,,,,,,,,,,,60394fde95a5a03dcc668c4b,16:54:48,03/04/2024
,"<div style=""font-size: 10rem; color: #0000FF"">J</div>",,ospan,letter,srLr8lxFnpYbtaZG0WYWqZjNiXg1,html-keyboard-response,60,493246,0.0-46.0-0.0-1.0-2.0,,,,,,,,,,,,,,,60394fde95a5a03dcc668c4b,16:54:48,03/04/2024
5245.900000095367,"<div class = numbox><p style=""font-size: 2.4rem"">Please recall the letters you saw to the best of your ability. If you do not remember a particular letter, use the SKIP button.<br><b>(When you are ready to lock in your answer, press ENTER)</b></p><button id = button_1 class = ""square num-button"" onclick = ""recordClick(this)""><div class = content><div class = numbers>C</div></div></button><button id = button_2 class = ""square num-button"" onclick = ""recordClick(this)""><div class = content><div class = numbers>G</div></div></button><button id = button_3 class = ""square num-button"" onclick = ""recordClick(this)""><div class = content><div class = numbers>H</div></div></button><button id = button_4 class = ""square num-button"" onclick = ""recordClick(this)""><div class = content><div class = numbers>J</div></div></button><button id = button_5 class = ""square num-button"" onclick = ""recordClick(this)""><div class = content><div class = numbers>K</div></div></button><button id = button_6 class = ""square num-button"" onclick = ""recordClick(this)""><div class = content><div class = numbers>L</div></div></button><button id = button_7 class = ""square num-button"" onclick = ""recordClick(this)""><div class = content><div class = numbers>N</div></div></button><button id = button_8 class = ""square num-button"" onclick = ""recordClick(this)""><div class = content><div class = numbers>P</div></div></button><button id = button_9 class = ""square num-button"" onclick = ""recordClick(this)""><div class = content><div class = numbers>Q</div></div></button><button id = button_10 class = ""square num-button"" onclick = ""recordClick(this)""><div class = content><div class = numbers>R</div></div></button><button id = button_11 class = ""square num-button"" onclick = ""recordClick(this)""><div class = content><div class = numbers>S</div></div></button><button id = button_12 class = ""square num-button"" onclick = ""recordClick(this)""><div class = content><div class = numbers>Y</div></div></button><button class = clear_button id = ""ClearButton"" onclick = ""clearResponse()"">BACKSPACE</button><button class = blank_button id = ""BlankButton"" onclick = ""blankResponse()"">SKIP</button><p style=""font-size: 2.4rem""><u><b>Current Answer:</b></u></p><br><br><div id=echoed_txt style=""font-size: 5rem; color:blue;""><b></b></div></div>",enter,ospan,retrieval,srLr8lxFnpYbtaZG0WYWqZjNiXg1,html-keyboard-response,61,499257,0.0-46.0-0.0-1.0-3.0,NA,NA,NA,2.0,"[""L"",""J""]","[""L"",""J""]",1.0,2.0,"['<font color=""green"">L</font>', '<font color=""green"">J</font>']",,,,,,60394fde95a5a03dcc668c4b,16:54:48,03/04/2024
1170.0999999046326,"['<p style=""font-size:44px"">Letters:<br><br><br><font color=""green"">L</font> <font color=""green"">J</font></p><br><br>']",0,ospan,practice_feedback,srLr8lxFnpYbtaZG0WYWqZjNiXg1,html-button-response,62,500938,0.0-46.0-0.0-1.0-4.0,,,,,,,,,,,,,,,60394fde95a5a03dcc668c4b,16:54:48,03/04/2024
,"<p style=""font-size:75px;"">...</p>",,ospan,iti,srLr8lxFnpYbtaZG0WYWqZjNiXg1,html-keyboard-response,63,501941,0.0-46.0-0.0-2.0-0.0,,,,,,,,,,,,,,,60394fde95a5a03dcc668c4b,16:54:48,03/04/2024
,"<div style=""font-size: 10rem; color: #0000FF"">N</div>",,ospan,letter,srLr8lxFnpYbtaZG0WYWqZjNiXg1,html-keyboard-response,64,502954,0.0-46.0-0.0-2.0-1.0,,,,,,,,,,,,,,,60394fde95a5a03dcc668c4b,16:54:48,03/04/2024
,"<div style=""font-size: 10rem; color: #0000FF"">K</div>",,ospan,letter,srLr8lxFnpYbtaZG0WYWqZjNiXg1,html-keyboard-response,65,504710,0.0-46.0-0.0-2.0-2.0,,,,,,,,,,,,,,,60394fde95a5a03dcc668c4b,16:54:48,03/04/2024
,"<div style=""font-size: 10rem; color: #0000FF"">P</div>",,ospan,letter,srLr8lxFnpYbtaZG0WYWqZjNiXg1,html-keyboard-response,66,506470,0.0-46.0-0.0-2.0-3.0,,,,,,,,,,,,,,,60394fde95a5a03dcc668c4b,16:54:48,03/04/2024
4071.2000000476837,"<div class = numbox><p style=""font-size: 2.4rem"">Please recall the letters you saw to the best of your ability. If you do not remember a particular letter, use the SKIP button.<br><b>(When you are ready to lock in your answer, press ENTER)</b></p><button id = button_1 class = ""square num-button"" onclick = ""recordClick(this)""><div class = content><div class = numbers>C</div></div></button><button id = button_2 class = ""square num-button"" onclick = ""recordClick(this)""><div class = content><div class = numbers>G</div></div></button><button id = button_3 class = ""square num-button"" onclick = ""recordClick(this)""><div class = content><div class = numbers>H</div></div></button><button id = button_4 class = ""square num-button"" onclick = ""recordClick(this)""><div class = content><div class = numbers>J</div></div></button><button id = button_5 class = ""square num-button"" onclick = ""recordClick(this)""><div class = content><div class = numbers>K</div></div></button><button id = button_6 class = ""square num-button"" onclick = ""recordClick(this)""><div class = content><div class = numbers>L</div></div></button><button id = button_7 class = ""square num-button"" onclick = ""recordClick(this)""><div class = content><div class = numbers>N</div></div></button><button id = button_8 class = ""square num-button"" onclick = ""recordClick(this)""><div class = content><div class = numbers>P</div></div></button><button id = button_9 class = ""square num-button"" onclick = ""recordClick(this)""><div class = content><div class = numbers>Q</div></div></button><button id = button_10 class = ""square num-button"" onclick = ""recordClick(this)""><div class = content><div class = numbers>R</div></div></button><button id = button_11 class = ""square num-button"" onclick = ""recordClick(this)""><div class = content><div class = numbers>S</div></div></button><button id = button_12 class = ""square num-button"" onclick = ""recordClick(this)""><div class = content><div class = numbers>Y</div></div></button><button class = clear_button id = ""ClearButton"" onclick = ""clearResponse()"">BACKSPACE</button><button class = blank_button id = ""BlankButton"" onclick = ""blankResponse()"">SKIP</button><p style=""font-size: 2.4rem""><u><b>Current Answer:</b></u></p><br><br><div id=echoed_txt style=""font-size: 5rem; color:blue;""><b></b></div></div>",enter,ospan,retrieval,srLr8lxFnpYbtaZG0WYWqZjNiXg1,html-keyboard-response,67,511302,0.0-46.0-0.0-2.0-4.0,NA,NA,NA,3.0,"[""N"",""K"",""P""]","[""N"",""K"",""P""]",1.0,3.0,"['<font color=""green"">N</font>', '<font color=""green"">K</font>', '<font color=""green"">P</font>']",,,,,,60394fde95a5a03dcc668c4b,16:54:48,03/04/2024
1250.5999999046326,"['<p style=""font-size:44px"">Letters:<br><br><br><font color=""green"">N</font> <font color=""green"">K</font> <font color=""green"">P</font></p><br><br>']",0,ospan,practice_feedback,srLr8lxFnpYbtaZG0WYWqZjNiXg1,html-button-response,68,513059,0.0-46.0-0.0-2.0-5.0,,,,,,,,,,,,,,,60394fde95a5a03dcc668c4b,16:54:48,03/04/2024
12768.600000143051,"<div class = 'left_align' style='font-size: 3.25rem; line-height: 1.3;'>Now you will practice doing the <b>symmetry judgment part</b> of the experiment.<br><br>A black and white grid picture will appear on the screen and you have to judge if it is <br>symmetrical or asymetrical.<br><br>A picture is 'mirror' symmetrical if its left half is identical to the right half when flipped.<br>Here are examples of a symmetrical and an asymetrical picture:<br><br><center><img src='Stimuli/img/symm_instructions_extra.png' style='height:420px; width:900'></img></center><br>To judge symmetry, imagine you were to fold each picture down the middle, like a book –<br>would the left half match the right half when folded onto each other?<br><br></div><br>",0,ospan,instruct,srLr8lxFnpYbtaZG0WYWqZjNiXg1,html-button-response,69,525830,0.0-46.0-1.0-0.0-0.0,,,,,,,,,,,,,,,60394fde95a5a03dcc668c4b,16:54:48,03/04/2024
4383.899999856949,"<div class = 'left_align' style='font-size: 3.25rem; line-height: 1.3;'>When you have viewed the picture and determined whether it is symmetrical or not,<br>you can <b>click the Yes or No button</b> below to answer.<br><br>If you take longer than 15 seconds, it will continue automatically<br>and record the answer as an error.</div><br>",0,ospan,instruct,srLr8lxFnpYbtaZG0WYWqZjNiXg1,html-button-response,70,530469,0.0-46.0-1.0-0.0-1.0,,,,,,,,,,,,,,,60394fde95a5a03dcc668c4b,16:54:48,03/04/2024
4871.599999904633,"<div class = 'left_align' style='font-size: 3.25rem; line-height: 1.3;'>It is <b>very</b> important that you make the symmetry judgment correctly.<br><br>It is also important that you try and judge the picture as quickly as you can.<br><br>When you are ready, click on the button below to try some practice problems.</div><br><br><br><br>",0,ospan,instruct,srLr8lxFnpYbtaZG0WYWqZjNiXg1,html-button-response,71,535607,0.0-46.0-1.0-0.0-2.0,,,,,,,,,,,,,,,60394fde95a5a03dcc668c4b,16:54:48,03/04/2024
3333.0,,,ospan,symmetry,srLr8lxFnpYbtaZG0WYWqZjNiXg1,symmetry-judgement-task,72,539766,0.0-46.0-1.0-1.0-0.0,,,,,,,,,,1.0,1.0,,,,60394fde95a5a03dcc668c4b,16:54:48,03/04/2024
,"<p style=""color:green; font-size: 35px"">Correct</p>",,ospan,feedback,srLr8lxFnpYbtaZG0WYWqZjNiXg1,html-keyboard-response,73,540531,0.0-46.0-1.0-1.0-1.0,,,,,,,,,,,,,,,60394fde95a5a03dcc668c4b,16:54:48,03/04/2024
4905.0,,,ospan,symmetry,srLr8lxFnpYbtaZG0WYWqZjNiXg1,symmetry-judgement-task,74,548136,0.0-46.0-1.0-1.0-2.0,,,,,,,,,,1.0,1.0,,,,60394fde95a5a03dcc668c4b,16:54:48,03/04/2024
,"<p style=""color:green; font-size: 35px"">Correct</p>",,ospan,feedback,srLr8lxFnpYbtaZG0WYWqZjNiXg1,html-keyboard-response,75,548888,0.0-46.0-1.0-1.0-3.0,,,,,,,,,,,,,,,60394fde95a5a03dcc668c4b,16:54:48,03/04/2024
4064.0,,,ospan,symmetry,srLr8lxFnpYbtaZG0WYWqZjNiXg1,symmetry-judgement-task,76,555682,0.0-46.0-1.0-1.0-4.0,,,,,,,,,,1.0,1.0,,,,60394fde95a5a03dcc668c4b,16:54:48,03/04/2024
,"<p style=""color:green; font-size: 35px"">Correct</p>",,ospan,feedback,srLr8lxFnpYbtaZG0WYWqZjNiXg1,html-keyboard-response,77,556437,0.0-46.0-1.0-1.0-5.0,,,,,,,,,,,,,,,60394fde95a5a03dcc668c4b,16:54:48,03/04/2024
1917.8000001907349,"<p style=""font-size: 3rem;"">You responded correctly on 3 of 3 symmetry judgments. Good job!</p><br><br>",0,ospan,practice,srLr8lxFnpYbtaZG0WYWqZjNiXg1,html-button-response,78,560369,0.0-46.0-1.0-2.0,,,,,,,,,,,,,,,60394fde95a5a03dcc668c4b,16:54:48,03/04/2024
4148.700000047684,"<div class = 'left_align' style='font-size: 3.25rem; line-height: 1.3;'>Now you will practice doing both parts of the experiment at the same time.<br><br>In the next practice set, you will be given one grid picture to judge.<br>Then letter will appear on the screen. Try to remember the letter.<br><br>It is <b>very important</b> to make the symmetry judgment as quickly and accurately as possible.<br><br>Just as before, once you have make the symmetry judgment, you can click Yes or No.<br><b>Note that you will no longer see Correct or Incorrect feedback.</div><br><br><br><br>",0,ospan,instruct,srLr8lxFnpYbtaZG0WYWqZjNiXg1,html-button-response,79,564782,0.0-46.0-2.0-0.0-0.0,,,,,,,,,,,,,,,60394fde95a5a03dcc668c4b,16:54:48,03/04/2024
2666.7999999523163,"<div class = 'left_align' style='font-size: 3.25rem; line-height: 1.3;'>After the letter goes away, another grid picture will appear, and then<br>another letter.<br><br>At the end of each set of letters and grids, you will recall the letters to the best<br>of your ability. Remember, try your best to get the letters in the correct order.<br><br>It is important to <b>quickly</b> and <b>accurately</b> make the symmetry judgments.</div><br><br><br><br>",0,ospan,instruct,srLr8lxFnpYbtaZG0WYWqZjNiXg1,html-button-response,80,567703,0.0-46.0-2.0-0.0-1.0,,,,,,,,,,,,,,,60394fde95a5a03dcc668c4b,16:54:48,03/04/2024
5110.200000047684,"<div class = 'left_align' style='font-size: 3.25rem; line-height: 1.3;'>On the feedback screen, if you are not doing well at the symmetry judgments,<br>you will also see a warning in the middle. This indicates your percent <br>correct for the grid pictures for the entire experiment.<br><br>It is <b>very</b> important for you to keep accuracy at least at 85%: <u>We can only use<br>data where the participant was at least 85% accurate on the judgments.</u> Therefore,<br> please try your best to perform well on the symmetry judgments, <b>at the same time</b><br>doing your best to recall as many letters as possible.<br><br>Click the button to try some practice problems.</div><br><br><br><br>",0,ospan,instruct,srLr8lxFnpYbtaZG0WYWqZjNiXg1,html-button-response,81,573073,0.0-46.0-2.0-0.0-2.0,,,,,,,,,,,,,,,60394fde95a5a03dcc668c4b,16:54:48,03/04/2024
,"<p style=""font-size:75px;"">...</p>",,ospan,iti,srLr8lxFnpYbtaZG0WYWqZjNiXg1,html-keyboard-response,82,574343,0.0-46.0-2.0-1.0-0.0,,,,,,,,,,,,,,,60394fde95a5a03dcc668c4b,16:54:48,03/04/2024
3347.0,,,ospan,symmetry,srLr8lxFnpYbtaZG0WYWqZjNiXg1,symmetry-judgement-task,83,578922,0.0-46.0-2.0-1.0-1.0-0.0,,,,,,,,,,1.0,1.0,,,,60394fde95a5a03dcc668c4b,16:54:48,03/04/2024
,"<div style=""font-size: 10rem; color: #0000FF"">G</div>",,ospan,letter,srLr8lxFnpYbtaZG0WYWqZjNiXg1,html-keyboard-response,84,579934,0.0-46.0-2.0-1.0-1.0-1.0,,,,,,,,,,,,,,,60394fde95a5a03dcc668c4b,16:54:48,03/04/2024
3778.0,,,ospan,symmetry,srLr8lxFnpYbtaZG0WYWqZjNiXg1,symmetry-judgement-task,85,585708,0.0-46.0-2.0-1.0-1.0-2.0,,,,,,,,,,1.0,1.0,,,,60394fde95a5a03dcc668c4b,16:54:48,03/04/2024
,"<div style=""font-size: 10rem; color: #0000FF"">Y</div>",,ospan,letter,srLr8lxFnpYbtaZG0WYWqZjNiXg1,html-keyboard-response,86,586710,0.0-46.0-2.0-1.0-1.0-3.0,,,,,,,,,,,,,,,60394fde95a5a03dcc668c4b,16:54:48,03/04/2024
1925.0,,,ospan,symmetry,srLr8lxFnpYbtaZG0WYWqZjNiXg1,symmetry-judgement-task,87,590590,0.0-46.0-2.0-1.0-1.0-4.0,,,,,,,,,,1.0,1.0,,,,60394fde95a5a03dcc668c4b,16:54:48,03/04/2024
,"<div style=""font-size: 10rem; color: #0000FF"">P</div>",,ospan,letter,srLr8lxFnpYbtaZG0WYWqZjNiXg1,html-keyboard-response,88,591607,0.0-46.0-2.0-1.0-1.0-5.0,,,,,,,,,,,,,,,60394fde95a5a03dcc668c4b,16:54:48,03/04/2024
4368.5,"<div class = numbox><p style=""font-size: 2.4rem"">Please recall the letters you saw to the best of your ability. If you do not remember a particular letter, use the SKIP button.<br><b>(When you are ready to lock in your answer, press ENTER)</b></p><button id = button_1 class = ""square num-button"" onclick = ""recordClick(this)""><div class = content><div class = numbers>C</div></div></button><button id = button_2 class = ""square num-button"" onclick = ""recordClick(this)""><div class = content><div class = numbers>G</div></div></button><button id = button_3 class = ""square num-button"" onclick = ""recordClick(this)""><div class = content><div class = numbers>H</div></div></button><button id = button_4 class = ""square num-button"" onclick = ""recordClick(this)""><div class = content><div class = numbers>J</div></div></button><button id = button_5 class = ""square num-button"" onclick = ""recordClick(this)""><div class = content><div class = numbers>K</div></div></button><button id = button_6 class = ""square num-button"" onclick = ""recordClick(this)""><div class = content><div class = numbers>L</div></div></button><button id = button_7 class = ""square num-button"" onclick = ""recordClick(this)""><div class = content><div class = numbers>N</div></div></button><button id = button_8 class = ""square num-button"" onclick = ""recordClick(this)""><div class = content><div class = numbers>P</div></div></button><button id = button_9 class = ""square num-button"" onclick = ""recordClick(this)""><div class = content><div class = numbers>Q</div></div></button><button id = button_10 class = ""square num-button"" onclick = ""recordClick(this)""><div class = content><div class = numbers>R</div></div></button><button id = button_11 class = ""square num-button"" onclick = ""recordClick(this)""><div class = content><div class = numbers>S</div></div></button><button id = button_12 class = ""square num-button"" onclick = ""recordClick(this)""><div class = content><div class = numbers>Y</div></div></button><button class = clear_button id = ""ClearButton"" onclick = ""clearResponse()"">BACKSPACE</button><button class = blank_button id = ""BlankButton"" onclick = ""blankResponse()"">SKIP</button><p style=""font-size: 2.4rem""><u><b>Current Answer:</b></u></p><br><br><div id=echoed_txt style=""font-size: 5rem; color:blue;""><b></b></div></div>",enter,ospan,retrieval,srLr8lxFnpYbtaZG0WYWqZjNiXg1,html-keyboard-response,89,596733,0.0-46.0-2.0-1.0-2.0-0.0,NA,NA,NA,3.0,"[""G"",""Y"",""P""]","[""G"",""Y"",""P""]",1.0,3.0,"['<font color=""green"">G</font>', '<font color=""green"">Y</font>', '<font color=""green"">P</font>']",,,,,,60394fde95a5a03dcc668c4b,16:54:48,03/04/2024
1391.3999998569489,"['<p style=""font-size:44px"">Letters:<br><br><br><font color=""green"">G</font> <font color=""green"">Y</font> <font color=""green"">P</font></p><br><br><p style=""font-size:30px"">Symmetry:<br><br><font color=""green"">100%</font></p><br><br>']",0,ospan,practice_feedback,srLr8lxFnpYbtaZG0WYWqZjNiXg1,html-button-response,90,598637,0.0-46.0-2.0-1.0-2.0-1.0,,,,,,,,,,,,,,,60394fde95a5a03dcc668c4b,16:54:48,03/04/2024
,"<p style=""font-size:75px;"">...</p>",,ospan,iti,srLr8lxFnpYbtaZG0WYWqZjNiXg1,html-keyboard-response,91,599641,0.0-46.0-2.0-2.0-0.0,,,,,,,,,,,,,,,60394fde95a5a03dcc668c4b,16:54:48,03/04/2024
2987.0,,,ospan,symmetry,srLr8lxFnpYbtaZG0WYWqZjNiXg1,symmetry-judgement-task,92,603862,0.0-46.0-2.0-2.0-1.0-0.0,,,,,,,,,,1.0,1.0,,,,60394fde95a5a03dcc668c4b,16:54:48,03/04/2024
,"<div style=""font-size: 10rem; color: #0000FF"">K</div>",,ospan,letter,srLr8lxFnpYbtaZG0WYWqZjNiXg1,html-keyboard-response,93,604863,0.0-46.0-2.0-2.0-1.0-1.0,,,,,,,,,,,,,,,60394fde95a5a03dcc668c4b,16:54:48,03/04/2024
2866.0,,,ospan,symmetry,srLr8lxFnpYbtaZG0WYWqZjNiXg1,symmetry-judgement-task,94,609767,0.0-46.0-2.0-2.0-1.0-2.0,,,,,,,,,,1.0,1.0,,,,60394fde95a5a03dcc668c4b,16:54:48,03/04/2024
,"<div style=""font-size: 10rem; color: #0000FF"">Y</div>",,ospan,letter,srLr8lxFnpYbtaZG0WYWqZjNiXg1,html-keyboard-response,95,610775,0.0-46.0-2.0-2.0-1.0-3.0,,,,,,,,,,,,,,,60394fde95a5a03dcc668c4b,16:54:48,03/04/2024
2060.0,,,ospan,symmetry,srLr8lxFnpYbtaZG0WYWqZjNiXg1,symmetry-judgement-task,96,614812,0.0-46.0-2.0-2.0-1.0-4.0,,,,,,,,,,1.0,1.0,,,,60394fde95a5a03dcc668c4b,16:54:48,03/04/2024
,"<div style=""font-size: 10rem; color: #0000FF"">H</div>",,ospan,letter,srLr8lxFnpYbtaZG0WYWqZjNiXg1,html-keyboard-response,97,615815,0.0-46.0-2.0-2.0-1.0-5.0,,,,,,,,,,,,,,,60394fde95a5a03dcc668c4b,16:54:48,03/04/2024
4378.300000190735,"<div class = numbox><p style=""font-size: 2.4rem"">Please recall the letters you saw to the best of your ability. If you do not remember a particular letter, use the SKIP button.<br><b>(When you are ready to lock in your answer, press ENTER)</b></p><button id = button_1 class = ""square num-button"" onclick = ""recordClick(this)""><div class = content><div class = numbers>C</div></div></button><button id = button_2 class = ""square num-button"" onclick = ""recordClick(this)""><div class = content><div class = numbers>G</div></div></button><button id = button_3 class = ""square num-button"" onclick = ""recordClick(this)""><div class = content><div class = numbers>H</div></div></button><button id = button_4 class = ""square num-button"" onclick = ""recordClick(this)""><div class = content><div class = numbers>J</div></div></button><button id = button_5 class = ""square num-button"" onclick = ""recordClick(this)""><div class = content><div class = numbers>K</div></div></button><button id = button_6 class = ""square num-button"" onclick = ""recordClick(this)""><div class = content><div class = numbers>L</div></div></button><button id = button_7 class = ""square num-button"" onclick = ""recordClick(this)""><div class = content><div class = numbers>N</div></div></button><button id = button_8 class = ""square num-button"" onclick = ""recordClick(this)""><div class = content><div class = numbers>P</div></div></button><button id = button_9 class = ""square num-button"" onclick = ""recordClick(this)""><div class = content><div class = numbers>Q</div></div></button><button id = button_10 class = ""square num-button"" onclick = ""recordClick(this)""><div class = content><div class = numbers>R</div></div></button><button id = button_11 class = ""square num-button"" onclick = ""recordClick(this)""><div class = content><div class = numbers>S</div></div></button><button id = button_12 class = ""square num-button"" onclick = ""recordClick(this)""><div class = content><div class = numbers>Y</div></div></button><button class = clear_button id = ""ClearButton"" onclick = ""clearResponse()"">BACKSPACE</button><button class = blank_button id = ""BlankButton"" onclick = ""blankResponse()"">SKIP</button><p style=""font-size: 2.4rem""><u><b>Current Answer:</b></u></p><br><br><div id=echoed_txt style=""font-size: 5rem; color:blue;""><b></b></div></div>",enter,ospan,retrieval,srLr8lxFnpYbtaZG0WYWqZjNiXg1,html-keyboard-response,98,620954,0.0-46.0-2.0-2.0-2.0-0.0,NA,NA,NA,3.0,"[""K"",""Y"",""H""]","[""K"",""Y"",""H""]",1.0,3.0,"['<font color=""green"">K</font>', '<font color=""green"">Y</font>', '<font color=""green"">H</font>']",,,,,,60394fde95a5a03dcc668c4b,16:54:48,03/04/2024
1997.6000001430511,"['<p style=""font-size:44px"">Letters:<br><br><br><font color=""green"">K</font> <font color=""green"">Y</font> <font color=""green"">H</font></p><br><br><p style=""font-size:30px"">Symmetry:<br><br><font color=""green"">100%</font></p><br><br>']",0,ospan,practice_feedback,srLr8lxFnpYbtaZG0WYWqZjNiXg1,html-button-response,99,623469,0.0-46.0-2.0-2.0-2.0-1.0,,,,,,,,,,,,,,,60394fde95a5a03dcc668c4b,16:54:48,03/04/2024
4297.400000095367,"<div class = 'left_align' style='font-size: 3rem; line-height: 1.3;'><b>Great work! That is the end of practice.</b><br><br>The real trials will look just like the practice trials you just completed.<br><br><u>Here, you will not see feedback</u>. First, you will see an grid picture to judge,<br>then a letter to remember. When the recall screen appears, report the letters in the<br>order presented. If you forget a letter, remember to use the <b>blank</b> button to move to the<br>next letter. Some of the sets will have more symmetry grids and letters than others.<br><br>It is important that you do your best on both the symmetry judgments and the letter recall<br>parts of the experiment. For for the symmetry judgments, try to work as <b>quickly</b> and <br>as <b>accurately</b> as possible. Remember to keep your symmetry accuracy at 85% or above.<br><br><b>For the letters, do NOT use any external aid (e.g., writing on paper, electronic device).</b><br><br>It is <u>very important</u> to our experiment to have a <b>true</b> view of your real performance.<br><br>Do not worry if you miss some when it gets hard! This task is meant to be very challenging!<br><br>Click the button to begin.</div><br><br><br><br>",0,ospan,starting_real_here,srLr8lxFnpYbtaZG0WYWqZjNiXg1,html-button-response,100,627768,0.0-46.0-2.0-3.0,,,,,,,,,,,,,,,60394fde95a5a03dcc668c4b,16:54:48,03/04/2024
,"<p style=""font-size:75px;"">...</p>",,ospan,iti,srLr8lxFnpYbtaZG0WYWqZjNiXg1,html-keyboard-response,101,629023,0.0-46.0-3.0-0.0-0.0,,,,,,,,,,,,,,,60394fde95a5a03dcc668c4b,16:54:48,03/04/2024
2346.0,,,ospan,symmetry,srLr8lxFnpYbtaZG0WYWqZjNiXg1,symmetry-judgement-task,102,632600,0.0-46.0-3.0-0.0-1.0-0.0,,,,,,,,,,1.0,1.0,,,,60394fde95a5a03dcc668c4b,16:54:48,03/04/2024
,"<div style=""font-size: 10rem; color: #0000FF"">S</div>",,ospan,letter,srLr8lxFnpYbtaZG0WYWqZjNiXg1,html-keyboard-response,103,633602,0.0-46.0-3.0-0.0-1.0-1.0,,,,,,,,,,,,,,,60394fde95a5a03dcc668c4b,16:54:48,03/04/2024
3704.0,,,ospan,symmetry,srLr8lxFnpYbtaZG0WYWqZjNiXg1,symmetry-judgement-task,104,639264,0.0-46.0-3.0-0.0-1.0-2.0,,,,,,,,,,1.0,1.0,,,,60394fde95a5a03dcc668c4b,16:54:48,03/04/2024
,"<div style=""font-size: 10rem; color: #0000FF"">C</div>",,ospan,letter,srLr8lxFnpYbtaZG0WYWqZjNiXg1,html-keyboard-response,105,640276,0.0-46.0-3.0-0.0-1.0-3.0,,,,,,,,,,,,,,,60394fde95a5a03dcc668c4b,16:54:48,03/04/2024
2505.0,,,ospan,symmetry,srLr8lxFnpYbtaZG0WYWqZjNiXg1,symmetry-judgement-task,106,644739,0.0-46.0-3.0-0.0-1.0-4.0,,,,,,,,,,1.0,1.0,,,,60394fde95a5a03dcc668c4b,16:54:48,03/04/2024
,"<div style=""font-size: 10rem; color: #0000FF"">L</div>",,ospan,letter,srLr8lxFnpYbtaZG0WYWqZjNiXg1,html-keyboard-response,107,645745,0.0-46.0-3.0-0.0-1.0-5.0,,,,,,,,,,,,,,,60394fde95a5a03dcc668c4b,16:54:48,03/04/2024
4209.900000095367,"<div class = numbox><p style=""font-size: 2.4rem"">Please recall the letters you saw to the best of your ability. If you do not remember a particular letter, use the SKIP button.<br><b>(When you are ready to lock in your answer, press ENTER)</b></p><button id = button_1 class = ""square num-button"" onclick = ""recordClick(this)""><div class = content><div class = numbers>C</div></div></button><button id = button_2 class = ""square num-button"" onclick = ""recordClick(this)""><div class = content><div class = numbers>G</div></div></button><button id = button_3 class = ""square num-button"" onclick = ""recordClick(this)""><div class = content><div class = numbers>H</div></div></button><button id = button_4 class = ""square num-button"" onclick = ""recordClick(this)""><div class = content><div class = numbers>J</div></div></button><button id = button_5 class = ""square num-button"" onclick = ""recordClick(this)""><div class = content><div class = numbers>K</div></div></button><button id = button_6 class = ""square num-button"" onclick = ""recordClick(this)""><div class = content><div class = numbers>L</div></div></button><button id = button_7 class = ""square num-button"" onclick = ""recordClick(this)""><div class = content><div class = numbers>N</div></div></button><button id = button_8 class = ""square num-button"" onclick = ""recordClick(this)""><div class = content><div class = numbers>P</div></div></button><button id = button_9 class = ""square num-button"" onclick = ""recordClick(this)""><div class = content><div class = numbers>Q</div></div></button><button id = button_10 class = ""square num-button"" onclick = ""recordClick(this)""><div class = content><div class = numbers>R</div></div></button><button id = button_11 class = ""square num-button"" onclick = ""recordClick(this)""><div class = content><div class = numbers>S</div></div></button><button id = button_12 class = ""square num-button"" onclick = ""recordClick(this)""><div class = content><div class = numbers>Y</div></div></button><button class = clear_button id = ""ClearButton"" onclick = ""clearResponse()"">BACKSPACE</button><button class = blank_button id = ""BlankButton"" onclick = ""blankResponse()"">SKIP</button><p style=""font-size: 2.4rem""><u><b>Current Answer:</b></u></p><br><br><div id=echoed_txt style=""font-size: 5rem; color:blue;""><b></b></div></div>",enter,ospan,retrieval,srLr8lxFnpYbtaZG0WYWqZjNiXg1,html-keyboard-response,108,650720,0.0-46.0-3.0-0.0-2.0,3,3,3,3.0,"[""S"",""C"",""L""]","[""S"",""C"",""L""]",1.0,3.0,,,,,,,60394fde95a5a03dcc668c4b,16:54:48,03/04/2024
1157.9000000953674,[''],0,ospan,feedback,srLr8lxFnpYbtaZG0WYWqZjNiXg1,html-button-response,109,652395,0.0-46.0-3.0-0.0-3.0,,,,,,,,,,,,100.0,0.0,,60394fde95a5a03dcc668c4b,16:54:48,03/04/2024
,"<p style=""font-size:75px;"">...</p>",,ospan,iti,srLr8lxFnpYbtaZG0WYWqZjNiXg1,html-keyboard-response,110,653401,0.0-46.0-4.0-0.0-0.0,,,,,,,,,,,,,,,60394fde95a5a03dcc668c4b,16:54:48,03/04/2024
2746.0,,,ospan,symmetry,srLr8lxFnpYbtaZG0WYWqZjNiXg1,symmetry-judgement-task,111,657377,0.0-46.0-4.0-0.0-1.0-0.0,,,,,,,,,,1.0,1.0,,,,60394fde95a5a03dcc668c4b,16:54:48,03/04/2024
,"<div style=""font-size: 10rem; color: #0000FF"">R</div>",,ospan,letter,srLr8lxFnpYbtaZG0WYWqZjNiXg1,html-keyboard-response,112,658378,0.0-46.0-4.0-0.0-1.0-1.0,,,,,,,,,,,,,,,60394fde95a5a03dcc668c4b,16:54:48,03/04/2024
2592.0,,,ospan,symmetry,srLr8lxFnpYbtaZG0WYWqZjNiXg1,symmetry-judgement-task,113,662938,0.0-46.0-4.0-0.0-1.0-2.0,,,,,,,,,,1.0,1.0,,,,60394fde95a5a03dcc668c4b,16:54:48,03/04/2024
,"<div style=""font-size: 10rem; color: #0000FF"">C</div>",,ospan,letter,srLr8lxFnpYbtaZG0WYWqZjNiXg1,html-keyboard-response,114,663952,0.0-46.0-4.0-0.0-1.0-3.0,,,,,,,,,,,,,,,60394fde95a5a03dcc668c4b,16:54:48,03/04/2024
2203.0,,,ospan,symmetry,srLr8lxFnpYbtaZG0WYWqZjNiXg1,symmetry-judgement-task,115,668154,0.0-46.0-4.0-0.0-1.0-4.0,,,,,,,,,,1.0,1.0,,,,60394fde95a5a03dcc668c4b,16:54:48,03/04/2024
,"<div style=""font-size: 10rem; color: #0000FF"">S</div>",,ospan,letter,srLr8lxFnpYbtaZG0WYWqZjNiXg1,html-keyboard-response,116,669166,0.0-46.0-4.0-0.0-1.0-5.0,,,,,,,,,,,,,,,60394fde95a5a03dcc668c4b,16:54:48,03/04/2024
2019.0,,,ospan,symmetry,srLr8lxFnpYbtaZG0WYWqZjNiXg1,symmetry-judgement-task,117,673152,0.0-46.0-4.0-0.0-1.0-6.0,,,,,,,,,,1.0,1.0,,,,60394fde95a5a03dcc668c4b,16:54:48,03/04/2024
,"<div style=""font-size: 10rem; color: #0000FF"">L</div>",,ospan,letter,srLr8lxFnpYbtaZG0WYWqZjNiXg1,html-keyboard-response,118,674156,0.0-46.0-4.0-0.0-1.0-7.0,,,,,,,,,,,,,,,60394fde95a5a03dcc668c4b,16:54:48,03/04/2024
5351.899999856949,"<div class = numbox><p style=""font-size: 2.4rem"">Please recall the letters you saw to the best of your ability. If you do not remember a particular letter, use the SKIP button.<br><b>(When you are ready to lock in your answer, press ENTER)</b></p><button id = button_1 class = ""square num-button"" onclick = ""recordClick(this)""><div class = content><div class = numbers>C</div></div></button><button id = button_2 class = ""square num-button"" onclick = ""recordClick(this)""><div class = content><div class = numbers>G</div></div></button><button id = button_3 class = ""square num-button"" onclick = ""recordClick(this)""><div class = content><div class = numbers>H</div></div></button><button id = button_4 class = ""square num-button"" onclick = ""recordClick(this)""><div class = content><div class = numbers>J</div></div></button><button id = button_5 class = ""square num-button"" onclick = ""recordClick(this)""><div class = content><div class = numbers>K</div></div></button><button id = button_6 class = ""square num-button"" onclick = ""recordClick(this)""><div class = content><div class = numbers>L</div></div></button><button id = button_7 class = ""square num-button"" onclick = ""recordClick(this)""><div class = content><div class = numbers>N</div></div></button><button id = button_8 class = ""square num-button"" onclick = ""recordClick(this)""><div class = content><div class = numbers>P</div></div></button><button id = button_9 class = ""square num-button"" onclick = ""recordClick(this)""><div class = content><div class = numbers>Q</div></div></button><button id = button_10 class = ""square num-button"" onclick = ""recordClick(this)""><div class = content><div class = numbers>R</div></div></button><button id = button_11 class = ""square num-button"" onclick = ""recordClick(this)""><div class = content><div class = numbers>S</div></div></button><button id = button_12 class = ""square num-button"" onclick = ""recordClick(this)""><div class = content><div class = numbers>Y</div></div></button><button class = clear_button id = ""ClearButton"" onclick = ""clearResponse()"">BACKSPACE</button><button class = blank_button id = ""BlankButton"" onclick = ""blankResponse()"">SKIP</button><p style=""font-size: 2.4rem""><u><b>Current Answer:</b></u></p><br><br><div id=echoed_txt style=""font-size: 5rem; color:blue;""><b></b></div></div>",enter,ospan,retrieval,srLr8lxFnpYbtaZG0WYWqZjNiXg1,html-keyboard-response,119,680272,0.0-46.0-4.0-0.0-2.0,7,7,7,4.0,"[""R"",""C"",""S"",""L""]","[""R"",""C"",""S"",""L""]",1.0,4.0,,,,,,,60394fde95a5a03dcc668c4b,16:54:48,03/04/2024
1183.1000001430511,[''],0,ospan,feedback,srLr8lxFnpYbtaZG0WYWqZjNiXg1,html-button-response,120,681964,0.0-46.0-4.0-0.0-3.0,,,,,,,,,,,,100.0,0.0,,60394fde95a5a03dcc668c4b,16:54:48,03/04/2024
,"<p style=""font-size:75px;"">...</p>",,ospan,iti,srLr8lxFnpYbtaZG0WYWqZjNiXg1,html-keyboard-response,121,682978,0.0-46.0-4.0-1.0-0.0,,,,,,,,,,,,,,,60394fde95a5a03dcc668c4b,16:54:48,03/04/2024
3326.0,,,ospan,symmetry,srLr8lxFnpYbtaZG0WYWqZjNiXg1,symmetry-judgement-task,122,687545,0.0-46.0-4.0-1.0-1.0-0.0,,,,,,,,,,1.0,1.0,,,,60394fde95a5a03dcc668c4b,16:54:48,03/04/2024
,"<div style=""font-size: 10rem; color: #0000FF"">S</div>",,ospan,letter,srLr8lxFnpYbtaZG0WYWqZjNiXg1,html-keyboard-response,123,688556,0.0-46.0-4.0-1.0-1.0-1.0,,,,,,,,,,,,,,,60394fde95a5a03dcc668c4b,16:54:48,03/04/2024
3128.0,,,ospan,symmetry,srLr8lxFnpYbtaZG0WYWqZjNiXg1,symmetry-judgement-task,124,693666,0.0-46.0-4.0-1.0-1.0-2.0,,,,,,,,,,1.0,1.0,,,,60394fde95a5a03dcc668c4b,16:54:48,03/04/2024
,"<div style=""font-size: 10rem; color: #0000FF"">R</div>",,ospan,letter,srLr8lxFnpYbtaZG0WYWqZjNiXg1,html-keyboard-response,125,694673,0.0-46.0-4.0-1.0-1.0-3.0,,,,,,,,,,,,,,,60394fde95a5a03dcc668c4b,16:54:48,03/04/2024
1715.0,,,ospan,symmetry,srLr8lxFnpYbtaZG0WYWqZjNiXg1,symmetry-judgement-task,126,698365,0.0-46.0-4.0-1.0-1.0-4.0,,,,,,,,,,1.0,1.0,,,,60394fde95a5a03dcc668c4b,16:54:48,03/04/2024
,"<div style=""font-size: 10rem; color: #0000FF"">G</div>",,ospan,letter,srLr8lxFnpYbtaZG0WYWqZjNiXg1,html-keyboard-response,127,699372,0.0-46.0-4.0-1.0-1.0-5.0,,,,,,,,,,,,,,,60394fde95a5a03dcc668c4b,16:54:48,03/04/2024
1585.0,,,ospan,symmetry,srLr8lxFnpYbtaZG0WYWqZjNiXg1,symmetry-judgement-task,128,702962,0.0-46.0-4.0-1.0-1.0-6.0,,,,,,,,,,1.0,1.0,,,,60394fde95a5a03dcc668c4b,16:54:48,03/04/2024
,"<div style=""font-size: 10rem; color: #0000FF"">H</div>",,ospan,letter,srLr8lxFnpYbtaZG0WYWqZjNiXg1,html-keyboard-response,129,703976,0.0-46.0-4.0-1.0-1.0-7.0,,,,,,,,,,,,,,,60394fde95a5a03dcc668c4b,16:54:48,03/04/2024
1963.0,,,ospan,symmetry,srLr8lxFnpYbtaZG0WYWqZjNiXg1,symmetry-judgement-task,130,707920,0.0-46.0-4.0-1.0-1.0-8.0,,,,,,,,,,1.0,1.0,,,,60394fde95a5a03dcc668c4b,16:54:48,03/04/2024
,"<div style=""font-size: 10rem; color: #0000FF"">Q</div>",,ospan,letter,srLr8lxFnpYbtaZG0WYWqZjNiXg1,html-keyboard-response,131,708923,0.0-46.0-4.0-1.0-1.0-9.0,,,,,,,,,,,,,,,60394fde95a5a03dcc668c4b,16:54:48,03/04/2024
6042.900000095367,"<div class = numbox><p style=""font-size: 2.4rem"">Please recall the letters you saw to the best of your ability. If you do not remember a particular letter, use the SKIP button.<br><b>(When you are ready to lock in your answer, press ENTER)</b></p><button id = button_1 class = ""square num-button"" onclick = ""recordClick(this)""><div class = content><div class = numbers>C</div></div></button><button id = button_2 class = ""square num-button"" onclick = ""recordClick(this)""><div class = content><div class = numbers>G</div></div></button><button id = button_3 class = ""square num-button"" onclick = ""recordClick(this)""><div class = content><div class = numbers>H</div></div></button><button id = button_4 class = ""square num-button"" onclick = ""recordClick(this)""><div class = content><div class = numbers>J</div></div></button><button id = button_5 class = ""square num-button"" onclick = ""recordClick(this)""><div class = content><div class = numbers>K</div></div></button><button id = button_6 class = ""square num-button"" onclick = ""recordClick(this)""><div class = content><div class = numbers>L</div></div></button><button id = button_7 class = ""square num-button"" onclick = ""recordClick(this)""><div class = content><div class = numbers>N</div></div></button><button id = button_8 class = ""square num-button"" onclick = ""recordClick(this)""><div class = content><div class = numbers>P</div></div></button><button id = button_9 class = ""square num-button"" onclick = ""recordClick(this)""><div class = content><div class = numbers>Q</div></div></button><button id = button_10 class = ""square num-button"" onclick = ""recordClick(this)""><div class = content><div class = numbers>R</div></div></button><button id = button_11 class = ""square num-button"" onclick = ""recordClick(this)""><div class = content><div class = numbers>S</div></div></button><button id = button_12 class = ""square num-button"" onclick = ""recordClick(this)""><div class = content><div class = numbers>Y</div></div></button><button class = clear_button id = ""ClearButton"" onclick = ""clearResponse()"">BACKSPACE</button><button class = blank_button id = ""BlankButton"" onclick = ""blankResponse()"">SKIP</button><p style=""font-size: 2.4rem""><u><b>Current Answer:</b></u></p><br><br><div id=echoed_txt style=""font-size: 5rem; color:blue;""><b></b></div></div>",enter,ospan,retrieval,srLr8lxFnpYbtaZG0WYWqZjNiXg1,html-keyboard-response,132,715726,0.0-46.0-4.0-1.0-2.0,12,11,7,5.0,"[""S"",""R"",""C"",""H"",""Q""]","[""S"",""R"",""G"",""H"",""Q""]",0.0,4.0,,,,,,,60394fde95a5a03dcc668c4b,16:54:48,03/04/2024
1189.0,[''],0,ospan,feedback,srLr8lxFnpYbtaZG0WYWqZjNiXg1,html-button-response,133,717431,0.0-46.0-4.0-1.0-3.0,,,,,,,,,,,,100.0,0.0,,60394fde95a5a03dcc668c4b,16:54:48,03/04/2024
,"<p style=""font-size:75px;"">...</p>",,ospan,iti,srLr8lxFnpYbtaZG0WYWqZjNiXg1,html-keyboard-response,134,718441,0.0-46.0-4.0-2.0-0.0,,,,,,,,,,,,,,,60394fde95a5a03dcc668c4b,16:54:48,03/04/2024
2381.0,,,ospan,symmetry,srLr8lxFnpYbtaZG0WYWqZjNiXg1,symmetry-judgement-task,135,722080,0.0-46.0-4.0-2.0-1.0-0.0,,,,,,,,,,1.0,1.0,,,,60394fde95a5a03dcc668c4b,16:54:48,03/04/2024
,"<div style=""font-size: 10rem; color: #0000FF"">G</div>",,ospan,letter,srLr8lxFnpYbtaZG0WYWqZjNiXg1,html-keyboard-response,136,723084,0.0-46.0-4.0-2.0-1.0-1.0,,,,,,,,,,,,,,,60394fde95a5a03dcc668c4b,16:54:48,03/04/2024
1544.0,,,ospan,symmetry,srLr8lxFnpYbtaZG0WYWqZjNiXg1,symmetry-judgement-task,137,726596,0.0-46.0-4.0-2.0-1.0-2.0,,,,,,,,,,1.0,1.0,,,,60394fde95a5a03dcc668c4b,16:54:48,03/04/2024
,"<div style=""font-size: 10rem; color: #0000FF"">J</div>",,ospan,letter,srLr8lxFnpYbtaZG0WYWqZjNiXg1,html-keyboard-response,138,727611,0.0-46.0-4.0-2.0-1.0-3.0,,,,,,,,,,,,,,,60394fde95a5a03dcc668c4b,16:54:48,03/04/2024
1516.0,,,ospan,symmetry,srLr8lxFnpYbtaZG0WYWqZjNiXg1,symmetry-judgement-task,139,731110,0.0-46.0-4.0-2.0-1.0-4.0,,,,,,,,,,1.0,1.0,,,,60394fde95a5a03dcc668c4b,16:54:48,03/04/2024
,"<div style=""font-size: 10rem; color: #0000FF"">C</div>",,ospan,letter,srLr8lxFnpYbtaZG0WYWqZjNiXg1,html-keyboard-response,140,732118,0.0-46.0-4.0-2.0-1.0-5.0,,,,,,,,,,,,,,,60394fde95a5a03dcc668c4b,16:54:48,03/04/2024
4026.0,"<div class = numbox><p style=""font-size: 2.4rem"">Please recall the letters you saw to the best of your ability. If you do not remember a particular letter, use the SKIP button.<br><b>(When you are ready to lock in your answer, press ENTER)</b></p><button id = button_1 class = ""square num-button"" onclick = ""recordClick(this)""><div class = content><div class = numbers>C</div></div></button><button id = button_2 class = ""square num-button"" onclick = ""recordClick(this)""><div class = content><div class = numbers>G</div></div></button><button id = button_3 class = ""square num-button"" onclick = ""recordClick(this)""><div class = content><div class = numbers>H</div></div></button><button id = button_4 class = ""square num-button"" onclick = ""recordClick(this)""><div class = content><div class = numbers>J</div></div></button><button id = button_5 class = ""square num-button"" onclick = ""recordClick(this)""><div class = content><div class = numbers>K</div></div></button><button id = button_6 class = ""square num-button"" onclick = ""recordClick(this)""><div class = content><div class = numbers>L</div></div></button><button id = button_7 class = ""square num-button"" onclick = ""recordClick(this)""><div class = content><div class = numbers>N</div></div></button><button id = button_8 class = ""square num-button"" onclick = ""recordClick(this)""><div class = content><div class = numbers>P</div></div></button><button id = button_9 class = ""square num-button"" onclick = ""recordClick(this)""><div class = content><div class = numbers>Q</div></div></button><button id = button_10 class = ""square num-button"" onclick = ""recordClick(this)""><div class = content><div class = numbers>R</div></div></button><button id = button_11 class = ""square num-button"" onclick = ""recordClick(this)""><div class = content><div class = numbers>S</div></div></button><button id = button_12 class = ""square num-button"" onclick = ""recordClick(this)""><div class = content><div class = numbers>Y</div></div></button><button class = clear_button id = ""ClearButton"" onclick = ""clearResponse()"">BACKSPACE</button><button class = blank_button id = ""BlankButton"" onclick = ""blankResponse()"">SKIP</button><p style=""font-size: 2.4rem""><u><b>Current Answer:</b></u></p><br><br><div id=echoed_txt style=""font-size: 5rem; color:blue;""><b></b></div></div>",enter,ospan,retrieval,srLr8lxFnpYbtaZG0WYWqZjNiXg1,html-keyboard-response,141,736905,0.0-46.0-4.0-2.0-2.0,15,14,10,3.0,"[""G"",""J"",""C""]","[""G"",""J"",""C""]",1.0,3.0,,,,,,,60394fde95a5a03dcc668c4b,16:54:48,03/04/2024
2117.0999999046326,[''],0,ospan,feedback,srLr8lxFnpYbtaZG0WYWqZjNiXg1,html-button-response,142,739524,0.0-46.0-4.0-2.0-3.0,,,,,,,,,,,,100.0,0.0,,60394fde95a5a03dcc668c4b,16:54:48,03/04/2024
,"<p style=""font-size:75px;"">...</p>",,ospan,iti,srLr8lxFnpYbtaZG0WYWqZjNiXg1,html-keyboard-response,143,740527,0.0-46.0-5.0-0.0-0.0,,,,,,,,,,,,,,,60394fde95a5a03dcc668c4b,16:54:48,03/04/2024
2388.0,,,ospan,symmetry,srLr8lxFnpYbtaZG0WYWqZjNiXg1,symmetry-judgement-task,144,744160,0.0-46.0-5.0-0.0-1.0-0.0,,,,,,,,,,1.0,1.0,,,,60394fde95a5a03dcc668c4b,16:54:48,03/04/2024
,"<div style=""font-size: 10rem; color: #0000FF"">K</div>",,ospan,letter,srLr8lxFnpYbtaZG0WYWqZjNiXg1,html-keyboard-response,145,745176,0.0-46.0-5.0-0.0-1.0-1.0,,,,,,,,,,,,,,,60394fde95a5a03dcc668c4b,16:54:48,03/04/2024
2533.0,,,ospan,symmetry,srLr8lxFnpYbtaZG0WYWqZjNiXg1,symmetry-judgement-task,146,749703,0.0-46.0-5.0-0.0-1.0-2.0,,,,,,,,,,1.0,1.0,,,,60394fde95a5a03dcc668c4b,16:54:48,03/04/2024
,"<div style=""font-size: 10rem; color: #0000FF"">R</div>",,ospan,letter,srLr8lxFnpYbtaZG0WYWqZjNiXg1,html-keyboard-response,147,750720,0.0-46.0-5.0-0.0-1.0-3.0,,,,,,,,,,,,,,,60394fde95a5a03dcc668c4b,16:54:48,03/04/2024
1690.0,,,ospan,symmetry,srLr8lxFnpYbtaZG0WYWqZjNiXg1,symmetry-judgement-task,148,754363,0.0-46.0-5.0-0.0-1.0-4.0,,,,,,,,,,1.0,1.0,,,,60394fde95a5a03dcc668c4b,16:54:48,03/04/2024
,"<div style=""font-size: 10rem; color: #0000FF"">C</div>",,ospan,letter,srLr8lxFnpYbtaZG0WYWqZjNiXg1,html-keyboard-response,149,755380,0.0-46.0-5.0-0.0-1.0-5.0,,,,,,,,,,,,,,,60394fde95a5a03dcc668c4b,16:54:48,03/04/2024
2521.0,,,ospan,symmetry,srLr8lxFnpYbtaZG0WYWqZjNiXg1,symmetry-judgement-task,150,759879,0.0-46.0-5.0-0.0-1.0-6.0,,,,,,,,,,1.0,1.0,,,,60394fde95a5a03dcc668c4b,16:54:48,03/04/2024
,"<div style=""font-size: 10rem; color: #0000FF"">P</div>",,ospan,letter,srLr8lxFnpYbtaZG0WYWqZjNiXg1,html-keyboard-response,151,760884,0.0-46.0-5.0-0.0-1.0-7.0,,,,,,,,,,,,,,,60394fde95a5a03dcc668c4b,16:54:48,03/04/2024
1806.0,,,ospan,symmetry,srLr8lxFnpYbtaZG0WYWqZjNiXg1,symmetry-judgement-task,152,764684,0.0-46.0-5.0-0.0-1.0-8.0,,,,,,,,,,1.0,1.0,,,,60394fde95a5a03dcc668c4b,16:54:48,03/04/2024
,"<div style=""font-size: 10rem; color: #0000FF"">L</div>",,ospan,letter,srLr8lxFnpYbtaZG0WYWqZjNiXg1,html-keyboard-response,153,765687,0.0-46.0-5.0-0.0-1.0-9.0,,,,,,,,,,,,,,,60394fde95a5a03dcc668c4b,16:54:48,03/04/2024
1570.0,,,ospan,symmetry,srLr8lxFnpYbtaZG0WYWqZjNiXg1,symmetry-judgement-task,154,769227,0.0-46.0-5.0-0.0-1.0-10.0,,,,,,,,,,1.0,1.0,,,,60394fde95a5a03dcc668c4b,16:54:48,03/04/2024
,"<div style=""font-size: 10rem; color: #0000FF"">H</div>",,ospan,letter,srLr8lxFnpYbtaZG0WYWqZjNiXg1,html-keyboard-response,155,770229,0.0-46.0-5.0-0.0-1.0-11.0,,,,,,,,,,,,,,,60394fde95a5a03dcc668c4b,16:54:48,03/04/2024
6491.900000095367,"<div class = numbox><p style=""font-size: 2.4rem"">Please recall the letters you saw to the best of your ability. If you do not remember a particular letter, use the SKIP button.<br><b>(When you are ready to lock in your answer, press ENTER)</b></p><button id = button_1 class = ""square num-button"" onclick = ""recordClick(this)""><div class = content><div class = numbers>C</div></div></button><button id = button_2 class = ""square num-button"" onclick = ""recordClick(this)""><div class = content><div class = numbers>G</div></div></button><button id = button_3 class = ""square num-button"" onclick = ""recordClick(this)""><div class = content><div class = numbers>H</div></div></button><button id = button_4 class = ""square num-button"" onclick = ""recordClick(this)""><div class = content><div class = numbers>J</div></div></button><button id = button_5 class = ""square num-button"" onclick = ""recordClick(this)""><div class = content><div class = numbers>K</div></div></button><button id = button_6 class = ""square num-button"" onclick = ""recordClick(this)""><div class = content><div class = numbers>L</div></div></button><button id = button_7 class = ""square num-button"" onclick = ""recordClick(this)""><div class = content><div class = numbers>N</div></div></button><button id = button_8 class = ""square num-button"" onclick = ""recordClick(this)""><div class = content><div class = numbers>P</div></div></button><button id = button_9 class = ""square num-button"" onclick = ""recordClick(this)""><div class = content><div class = numbers>Q</div></div></button><button id = button_10 class = ""square num-button"" onclick = ""recordClick(this)""><div class = content><div class = numbers>R</div></div></button><button id = button_11 class = ""square num-button"" onclick = ""recordClick(this)""><div class = content><div class = numbers>S</div></div></button><button id = button_12 class = ""square num-button"" onclick = ""recordClick(this)""><div class = content><div class = numbers>Y</div></div></button><button class = clear_button id = ""ClearButton"" onclick = ""clearResponse()"">BACKSPACE</button><button class = blank_button id = ""BlankButton"" onclick = ""blankResponse()"">SKIP</button><p style=""font-size: 2.4rem""><u><b>Current Answer:</b></u></p><br><br><div id=echoed_txt style=""font-size: 5rem; color:blue;""><b></b></div></div>",enter,ospan,retrieval,srLr8lxFnpYbtaZG0WYWqZjNiXg1,html-keyboard-response,156,777488,0.0-46.0-5.0-0.0-2.0,21,20,16,6.0,"[""K"",""R"",""C"",""P"",""L"",""H""]","[""K"",""R"",""C"",""P"",""L"",""H""]",1.0,6.0,,,,,,,60394fde95a5a03dcc668c4b,16:54:48,03/04/2024
1305.0,[''],0,ospan,feedback,srLr8lxFnpYbtaZG0WYWqZjNiXg1,html-button-response,157,779306,0.0-46.0-5.0-0.0-3.0,,,,,,,,,,,,100.0,0.0,,60394fde95a5a03dcc668c4b,16:54:48,03/04/2024
,"<p style=""font-size:75px;"">...</p>",,ospan,iti,srLr8lxFnpYbtaZG0WYWqZjNiXg1,html-keyboard-response,158,780322,0.0-46.0-5.0-1.0-0.0,,,,,,,,,,,,,,,60394fde95a5a03dcc668c4b,16:54:48,03/04/2024
1898.0,,,ospan,symmetry,srLr8lxFnpYbtaZG0WYWqZjNiXg1,symmetry-judgement-task,159,783459,0.0-46.0-5.0-1.0-1.0-0.0,,,,,,,,,,1.0,1.0,,,,60394fde95a5a03dcc668c4b,16:54:48,03/04/2024
,"<div style=""font-size: 10rem; color: #0000FF"">N</div>",,ospan,letter,srLr8lxFnpYbtaZG0WYWqZjNiXg1,html-keyboard-response,160,784462,0.0-46.0-5.0-1.0-1.0-1.0,,,,,,,,,,,,,,,60394fde95a5a03dcc668c4b,16:54:48,03/04/2024
3062.0,,,ospan,symmetry,srLr8lxFnpYbtaZG0WYWqZjNiXg1,symmetry-judgement-task,161,789506,0.0-46.0-5.0-1.0-1.0-2.0,,,,,,,,,,1.0,1.0,,,,60394fde95a5a03dcc668c4b,16:54:48,03/04/2024
,"<div style=""font-size: 10rem; color: #0000FF"">J</div>",,ospan,letter,srLr8lxFnpYbtaZG0WYWqZjNiXg1,html-keyboard-response,162,790521,0.0-46.0-5.0-1.0-1.0-3.0,,,,,,,,,,,,,,,60394fde95a5a03dcc668c4b,16:54:48,03/04/2024
1840.0,,,ospan,symmetry,srLr8lxFnpYbtaZG0WYWqZjNiXg1,symmetry-judgement-task,163,794352,0.0-46.0-5.0-1.0-1.0-4.0,,,,,,,,,,1.0,1.0,,,,60394fde95a5a03dcc668c4b,16:54:48,03/04/2024
,"<div style=""font-size: 10rem; color: #0000FF"">H</div>",,ospan,letter,srLr8lxFnpYbtaZG0WYWqZjNiXg1,html-keyboard-response,164,795364,0.0-46.0-5.0-1.0-1.0-5.0,,,,,,,,,,,,,,,60394fde95a5a03dcc668c4b,16:54:48,03/04/2024
1589.0,,,ospan,symmetry,srLr8lxFnpYbtaZG0WYWqZjNiXg1,symmetry-judgement-task,165,798901,0.0-46.0-5.0-1.0-1.0-6.0,,,,,,,,,,1.0,1.0,,,,60394fde95a5a03dcc668c4b,16:54:48,03/04/2024
,"<div style=""font-size: 10rem; color: #0000FF"">Y</div>",,ospan,letter,srLr8lxFnpYbtaZG0WYWqZjNiXg1,html-keyboard-response,166,799909,0.0-46.0-5.0-1.0-1.0-7.0,,,,,,,,,,,,,,,60394fde95a5a03dcc668c4b,16:54:48,03/04/2024
1781.0,,,ospan,symmetry,srLr8lxFnpYbtaZG0WYWqZjNiXg1,symmetry-judgement-task,167,803644,0.0-46.0-5.0-1.0-1.0-8.0,,,,,,,,,,1.0,1.0,,,,60394fde95a5a03dcc668c4b,16:54:48,03/04/2024
,"<div style=""font-size: 10rem; color: #0000FF"">L</div>",,ospan,letter,srLr8lxFnpYbtaZG0WYWqZjNiXg1,html-keyboard-response,168,804648,0.0-46.0-5.0-1.0-1.0-9.0,,,,,,,,,,,,,,,60394fde95a5a03dcc668c4b,16:54:48,03/04/2024
3102.0,,,ospan,symmetry,srLr8lxFnpYbtaZG0WYWqZjNiXg1,symmetry-judgement-task,169,809712,0.0-46.0-5.0-1.0-1.0-10.0,,,,,,,,,,1.0,1.0,,,,60394fde95a5a03dcc668c4b,16:54:48,03/04/2024
,"<div style=""font-size: 10rem; color: #0000FF"">P</div>",,ospan,letter,srLr8lxFnpYbtaZG0WYWqZjNiXg1,html-keyboard-response,170,810724,0.0-46.0-5.0-1.0-1.0-11.0,,,,,,,,,,,,,,,60394fde95a5a03dcc668c4b,16:54:48,03/04/2024
1891.0,,,ospan,symmetry,srLr8lxFnpYbtaZG0WYWqZjNiXg1,symmetry-judgement-task,171,814621,0.0-46.0-5.0-1.0-1.0-12.0,,,,,,,,,,1.0,1.0,,,,60394fde95a5a03dcc668c4b,16:54:48,03/04/2024
,"<div style=""font-size: 10rem; color: #0000FF"">G</div>",,ospan,letter,srLr8lxFnpYbtaZG0WYWqZjNiXg1,html-keyboard-response,172,815632,0.0-46.0-5.0-1.0-1.0-13.0,,,,,,,,,,,,,,,60394fde95a5a03dcc668c4b,16:54:48,03/04/2024
13279.299999952316,"<div class = numbox><p style=""font-size: 2.4rem"">Please recall the letters you saw to the best of your ability. If you do not remember a particular letter, use the SKIP button.<br><b>(When you are ready to lock in your answer, press ENTER)</b></p><button id = button_1 class = ""square num-button"" onclick = ""recordClick(this)""><div class = content><div class = numbers>C</div></div></button><button id = button_2 class = ""square num-button"" onclick = ""recordClick(this)""><div class = content><div class = numbers>G</div></div></button><button id = button_3 class = ""square num-button"" onclick = ""recordClick(this)""><div class = content><div class = numbers>H</div></div></button><button id = button_4 class = ""square num-button"" onclick = ""recordClick(this)""><div class = content><div class = numbers>J</div></div></button><button id = button_5 class = ""square num-button"" onclick = ""recordClick(this)""><div class = content><div class = numbers>K</div></div></button><button id = button_6 class = ""square num-button"" onclick = ""recordClick(this)""><div class = content><div class = numbers>L</div></div></button><button id = button_7 class = ""square num-button"" onclick = ""recordClick(this)""><div class = content><div class = numbers>N</div></div></button><button id = button_8 class = ""square num-button"" onclick = ""recordClick(this)""><div class = content><div class = numbers>P</div></div></button><button id = button_9 class = ""square num-button"" onclick = ""recordClick(this)""><div class = content><div class = numbers>Q</div></div></button><button id = button_10 class = ""square num-button"" onclick = ""recordClick(this)""><div class = content><div class = numbers>R</div></div></button><button id = button_11 class = ""square num-button"" onclick = ""recordClick(this)""><div class = content><div class = numbers>S</div></div></button><button id = button_12 class = ""square num-button"" onclick = ""recordClick(this)""><div class = content><div class = numbers>Y</div></div></button><button class = clear_button id = ""ClearButton"" onclick = ""clearResponse()"">BACKSPACE</button><button class = blank_button id = ""BlankButton"" onclick = ""blankResponse()"">SKIP</button><p style=""font-size: 2.4rem""><u><b>Current Answer:</b></u></p><br><br><div id=echoed_txt style=""font-size: 5rem; color:blue;""><b></b></div></div>",enter,ospan,retrieval,srLr8lxFnpYbtaZG0WYWqZjNiXg1,html-keyboard-response,173,829676,0.0-46.0-5.0-1.0-2.0,28,21,16,7.0,"[""N"",""H"",""Y"",""J"",""_""]","[""N"",""J"",""H"",""Y"",""L"",""P"",""G""]",0.0,1.0,,,,,,,60394fde95a5a03dcc668c4b,16:54:48,03/04/2024
1904.2999999523163,[''],0,ospan,feedback,srLr8lxFnpYbtaZG0WYWqZjNiXg1,html-button-response,174,832086,0.0-46.0-5.0-1.0-3.0,,,,,,,,,,,,100.0,0.0,,60394fde95a5a03dcc668c4b,16:54:48,03/04/2024
,"<p style=""font-size:75px;"">...</p>",,ospan,iti,srLr8lxFnpYbtaZG0WYWqZjNiXg1,html-keyboard-response,175,833093,0.0-46.0-6.0-0.0-0.0,,,,,,,,,,,,,,,60394fde95a5a03dcc668c4b,16:54:48,03/04/2024
3142.0,,,ospan,symmetry,srLr8lxFnpYbtaZG0WYWqZjNiXg1,symmetry-judgement-task,176,837480,0.0-46.0-6.0-0.0-1.0-0.0,,,,,,,,,,1.0,1.0,,,,60394fde95a5a03dcc668c4b,16:54:48,03/04/2024
,"<div style=""font-size: 10rem; color: #0000FF"">Q</div>",,ospan,letter,srLr8lxFnpYbtaZG0WYWqZjNiXg1,html-keyboard-response,177,838492,0.0-46.0-6.0-0.0-1.0-1.0,,,,,,,,,,,,,,,60394fde95a5a03dcc668c4b,16:54:48,03/04/2024
2464.0,,,ospan,symmetry,srLr8lxFnpYbtaZG0WYWqZjNiXg1,symmetry-judgement-task,178,842967,0.0-46.0-6.0-0.0-1.0-2.0,,,,,,,,,,1.0,1.0,,,,60394fde95a5a03dcc668c4b,16:54:48,03/04/2024
,"<div style=""font-size: 10rem; color: #0000FF"">H</div>",,ospan,letter,srLr8lxFnpYbtaZG0WYWqZjNiXg1,html-keyboard-response,179,843974,0.0-46.0-6.0-0.0-1.0-3.0,,,,,,,,,,,,,,,60394fde95a5a03dcc668c4b,16:54:48,03/04/2024
2327.0,,,ospan,symmetry,srLr8lxFnpYbtaZG0WYWqZjNiXg1,symmetry-judgement-task,180,848274,0.0-46.0-6.0-0.0-1.0-4.0,,,,,,,,,,1.0,1.0,,,,60394fde95a5a03dcc668c4b,16:54:48,03/04/2024
,"<div style=""font-size: 10rem; color: #0000FF"">L</div>",,ospan,letter,srLr8lxFnpYbtaZG0WYWqZjNiXg1,html-keyboard-response,181,849288,0.0-46.0-6.0-0.0-1.0-5.0,,,,,,,,,,,,,,,60394fde95a5a03dcc668c4b,16:54:48,03/04/2024
2831.0,,,ospan,symmetry,srLr8lxFnpYbtaZG0WYWqZjNiXg1,symmetry-judgement-task,182,854066,0.0-46.0-6.0-0.0-1.0-6.0,,,,,,,,,,1.0,1.0,,,,60394fde95a5a03dcc668c4b,16:54:48,03/04/2024
,"<div style=""font-size: 10rem; color: #0000FF"">S</div>",,ospan,letter,srLr8lxFnpYbtaZG0WYWqZjNiXg1,html-keyboard-response,183,855069,0.0-46.0-6.0-0.0-1.0-7.0,,,,,,,,,,,,,,,60394fde95a5a03dcc668c4b,16:54:48,03/04/2024
2177.0,,,ospan,symmetry,srLr8lxFnpYbtaZG0WYWqZjNiXg1,symmetry-judgement-task,184,859226,0.0-46.0-6.0-0.0-1.0-8.0,,,,,,,,,,1.0,1.0,,,,60394fde95a5a03dcc668c4b,16:54:48,03/04/2024
,"<div style=""font-size: 10rem; color: #0000FF"">P</div>",,ospan,letter,srLr8lxFnpYbtaZG0WYWqZjNiXg1,html-keyboard-response,185,860234,0.0-46.0-6.0-0.0-1.0-9.0,,,,,,,,,,,,,,,60394fde95a5a03dcc668c4b,16:54:48,03/04/2024
6002.5,"<div class = numbox><p style=""font-size: 2.4rem"">Please recall the letters you saw to the best of your ability. If you do not remember a particular letter, use the SKIP button.<br><b>(When you are ready to lock in your answer, press ENTER)</b></p><button id = button_1 class = ""square num-button"" onclick = ""recordClick(this)""><div class = content><div class = numbers>C</div></div></button><button id = button_2 class = ""square num-button"" onclick = ""recordClick(this)""><div class = content><div class = numbers>G</div></div></button><button id = button_3 class = ""square num-button"" onclick = ""recordClick(this)""><div class = content><div class = numbers>H</div></div></button><button id = button_4 class = ""square num-button"" onclick = ""recordClick(this)""><div class = content><div class = numbers>J</div></div></button><button id = button_5 class = ""square num-button"" onclick = ""recordClick(this)""><div class = content><div class = numbers>K</div></div></button><button id = button_6 class = ""square num-button"" onclick = ""recordClick(this)""><div class = content><div class = numbers>L</div></div></button><button id = button_7 class = ""square num-button"" onclick = ""recordClick(this)""><div class = content><div class = numbers>N</div></div></button><button id = button_8 class = ""square num-button"" onclick = ""recordClick(this)""><div class = content><div class = numbers>P</div></div></button><button id = button_9 class = ""square num-button"" onclick = ""recordClick(this)""><div class = content><div class = numbers>Q</div></div></button><button id = button_10 class = ""square num-button"" onclick = ""recordClick(this)""><div class = content><div class = numbers>R</div></div></button><button id = button_11 class = ""square num-button"" onclick = ""recordClick(this)""><div class = content><div class = numbers>S</div></div></button><button id = button_12 class = ""square num-button"" onclick = ""recordClick(this)""><div class = content><div class = numbers>Y</div></div></button><button class = clear_button id = ""ClearButton"" onclick = ""clearResponse()"">BACKSPACE</button><button class = blank_button id = ""BlankButton"" onclick = ""blankResponse()"">SKIP</button><p style=""font-size: 2.4rem""><u><b>Current Answer:</b></u></p><br><br><div id=echoed_txt style=""font-size: 5rem; color:blue;""><b></b></div></div>",enter,ospan,retrieval,srLr8lxFnpYbtaZG0WYWqZjNiXg1,html-keyboard-response,186,866994,0.0-46.0-6.0-0.0-2.0,33,26,21,5.0,"[""Q"",""H"",""L"",""S"",""P""]","[""Q"",""H"",""L"",""S"",""P""]",1.0,5.0,,,,,,,60394fde95a5a03dcc668c4b,16:54:48,03/04/2024
1431.4000000953674,[''],0,ospan,feedback,srLr8lxFnpYbtaZG0WYWqZjNiXg1,html-button-response,187,868935,0.0-46.0-6.0-0.0-3.0,,,,,,,,,,,,100.0,0.0,,60394fde95a5a03dcc668c4b,16:54:48,03/04/2024
,"<p style=""font-size:75px;"">...</p>",,ospan,iti,srLr8lxFnpYbtaZG0WYWqZjNiXg1,html-keyboard-response,188,869943,0.0-46.0-6.0-1.0-0.0,,,,,,,,,,,,,,,60394fde95a5a03dcc668c4b,16:54:48,03/04/2024
2675.0,,,ospan,symmetry,srLr8lxFnpYbtaZG0WYWqZjNiXg1,symmetry-judgement-task,189,873849,0.0-46.0-6.0-1.0-1.0-0.0,,,,,,,,,,1.0,1.0,,,,60394fde95a5a03dcc668c4b,16:54:48,03/04/2024
,"<div style=""font-size: 10rem; color: #0000FF"">J</div>",,ospan,letter,srLr8lxFnpYbtaZG0WYWqZjNiXg1,html-keyboard-response,190,874860,0.0-46.0-6.0-1.0-1.0-1.0,,,,,,,,,,,,,,,60394fde95a5a03dcc668c4b,16:54:48,03/04/2024
4734.0,,,ospan,symmetry,srLr8lxFnpYbtaZG0WYWqZjNiXg1,symmetry-judgement-task,191,881587,0.0-46.0-6.0-1.0-1.0-2.0,,,,,,,,,,1.0,1.0,,,,60394fde95a5a03dcc668c4b,16:54:48,03/04/2024
,"<div style=""font-size: 10rem; color: #0000FF"">Q</div>",,ospan,letter,srLr8lxFnpYbtaZG0WYWqZjNiXg1,html-keyboard-response,192,882598,0.0-46.0-6.0-1.0-1.0-3.0,,,,,,,,,,,,,,,60394fde95a5a03dcc668c4b,16:54:48,03/04/2024
5055.0,,,ospan,symmetry,srLr8lxFnpYbtaZG0WYWqZjNiXg1,symmetry-judgement-task,193,889654,0.0-46.0-6.0-1.0-1.0-4.0,,,,,,,,,,1.0,1.0,,,,60394fde95a5a03dcc668c4b,16:54:48,03/04/2024
,"<div style=""font-size: 10rem; color: #0000FF"">L</div>",,ospan,letter,srLr8lxFnpYbtaZG0WYWqZjNiXg1,html-keyboard-response,194,890668,0.0-46.0-6.0-1.0-1.0-5.0,,,,,,,,,,,,,,,60394fde95a5a03dcc668c4b,16:54:48,03/04/2024
2739.0,,,ospan,symmetry,srLr8lxFnpYbtaZG0WYWqZjNiXg1,symmetry-judgement-task,195,895417,0.0-46.0-6.0-1.0-1.0-6.0,,,,,,,,,,1.0,1.0,,,,60394fde95a5a03dcc668c4b,16:54:48,03/04/2024
,"<div style=""font-size: 10rem; color: #0000FF"">G</div>",,ospan,letter,srLr8lxFnpYbtaZG0WYWqZjNiXg1,html-keyboard-response,196,896433,0.0-46.0-6.0-1.0-1.0-7.0,,,,,,,,,,,,,,,60394fde95a5a03dcc668c4b,16:54:48,03/04/2024
4793.0,,,ospan,symmetry,srLr8lxFnpYbtaZG0WYWqZjNiXg1,symmetry-judgement-task,197,903234,0.0-46.0-6.0-1.0-1.0-8.0,,,,,,,,,,1.0,1.0,,,,60394fde95a5a03dcc668c4b,16:54:48,03/04/2024
,"<div style=""font-size: 10rem; color: #0000FF"">H</div>",,ospan,letter,srLr8lxFnpYbtaZG0WYWqZjNiXg1,html-keyboard-response,198,904243,0.0-46.0-6.0-1.0-1.0-9.0,,,,,,,,,,,,,,,60394fde95a5a03dcc668c4b,16:54:48,03/04/2024
2421.0,,,ospan,symmetry,srLr8lxFnpYbtaZG0WYWqZjNiXg1,symmetry-judgement-task,199,908634,0.0-46.0-6.0-1.0-1.0-10.0,,,,,,,,,,1.0,1.0,,,,60394fde95a5a03dcc668c4b,16:54:48,03/04/2024
,"<div style=""font-size: 10rem; color: #0000FF"">P</div>",,ospan,letter,srLr8lxFnpYbtaZG0WYWqZjNiXg1,html-keyboard-response,200,909637,0.0-46.0-6.0-1.0-1.0-11.0,,,,,,,,,,,,,,,60394fde95a5a03dcc668c4b,16:54:48,03/04/2024
1626.0,,,ospan,symmetry,srLr8lxFnpYbtaZG0WYWqZjNiXg1,symmetry-judgement-task,201,913257,0.0-46.0-6.0-1.0-1.0-12.0,,,,,,,,,,1.0,1.0,,,,60394fde95a5a03dcc668c4b,16:54:48,03/04/2024
,"<div style=""font-size: 10rem; color: #0000FF"">C</div>",,ospan,letter,srLr8lxFnpYbtaZG0WYWqZjNiXg1,html-keyboard-response,202,914268,0.0-46.0-6.0-1.0-1.0-13.0,,,,,,,,,,,,,,,60394fde95a5a03dcc668c4b,16:54:48,03/04/2024
2036.0,,,ospan,symmetry,srLr8lxFnpYbtaZG0WYWqZjNiXg1,symmetry-judgement-task,203,918253,0.0-46.0-6.0-1.0-1.0-14.0,,,,,,,,,,1.0,1.0,,,,60394fde95a5a03dcc668c4b,16:54:48,03/04/2024
,"<div style=""font-size: 10rem; color: #0000FF"">Y</div>",,ospan,letter,srLr8lxFnpYbtaZG0WYWqZjNiXg1,html-keyboard-response,204,919256,0.0-46.0-6.0-1.0-1.0-15.0,,,,,,,,,,,,,,,60394fde95a5a03dcc668c4b,16:54:48,03/04/2024
12598.5,"<div class = numbox><p style=""font-size: 2.4rem"">Please recall the letters you saw to the best of your ability. If you do not remember a particular letter, use the SKIP button.<br><b>(When you are ready to lock in your answer, press ENTER)</b></p><button id = button_1 class = ""square num-button"" onclick = ""recordClick(this)""><div class = content><div class = numbers>C</div></div></button><button id = button_2 class = ""square num-button"" onclick = ""recordClick(this)""><div class = content><div class = numbers>G</div></div></button><button id = button_3 class = ""square num-button"" onclick = ""recordClick(this)""><div class = content><div class = numbers>H</div></div></button><button id = button_4 class = ""square num-button"" onclick = ""recordClick(this)""><div class = content><div class = numbers>J</div></div></button><button id = button_5 class = ""square num-button"" onclick = ""recordClick(this)""><div class = content><div class = numbers>K</div></div></button><button id = button_6 class = ""square num-button"" onclick = ""recordClick(this)""><div class = content><div class = numbers>L</div></div></button><button id = button_7 class = ""square num-button"" onclick = ""recordClick(this)""><div class = content><div class = numbers>N</div></div></button><button id = button_8 class = ""square num-button"" onclick = ""recordClick(this)""><div class = content><div class = numbers>P</div></div></button><button id = button_9 class = ""square num-button"" onclick = ""recordClick(this)""><div class = content><div class = numbers>Q</div></div></button><button id = button_10 class = ""square num-button"" onclick = ""recordClick(this)""><div class = content><div class = numbers>R</div></div></button><button id = button_11 class = ""square num-button"" onclick = ""recordClick(this)""><div class = content><div class = numbers>S</div></div></button><button id = button_12 class = ""square num-button"" onclick = ""recordClick(this)""><div class = content><div class = numbers>Y</div></div></button><button class = clear_button id = ""ClearButton"" onclick = ""clearResponse()"">BACKSPACE</button><button class = blank_button id = ""BlankButton"" onclick = ""blankResponse()"">SKIP</button><p style=""font-size: 2.4rem""><u><b>Current Answer:</b></u></p><br><br><div id=echoed_txt style=""font-size: 5rem; color:blue;""><b></b></div></div>",enter,ospan,retrieval,srLr8lxFnpYbtaZG0WYWqZjNiXg1,html-keyboard-response,205,932610,0.0-46.0-6.0-1.0-2.0,41,33,21,8.0,"[""J"",""Q"",""L"",""G"",""H"",""P"",""C""]","[""J"",""Q"",""L"",""G"",""H"",""P"",""C"",""Y""]",0.0,7.0,,,,,,,60394fde95a5a03dcc668c4b,16:54:48,03/04/2024
1526.1000001430511,[''],0,ospan,feedback,srLr8lxFnpYbtaZG0WYWqZjNiXg1,html-button-response,206,934641,0.0-46.0-6.0-1.0-3.0,,,,,,,,,,,,100.0,0.0,,60394fde95a5a03dcc668c4b,16:54:48,03/04/2024
10554.300000190735,,{'Q0': 'the letters were fun.'},ospan,survey_ospan,srLr8lxFnpYbtaZG0WYWqZjNiXg1,lmdlab-survey-text,207,945960,0.0-46.0-7.0,,,,,,,,,,,,,,srLr8lxFnpYbtaZG0WYWqZjNiXg1,60394fde95a5a03dcc668c4b,16:54:48,03/04/2024
1478.3999998569489,<p><p style='font-size: 3rem'>Great work!<br><br>This completes the symmetry and memory task.</p><br><br><br>,0,ospan,finish,srLr8lxFnpYbtaZG0WYWqZjNiXg1,html-button-response,208,947441,0.0-46.0-8.0,41,33,21,,,,,,,,,100.0,,,60394fde95a5a03dcc668c4b,16:54:48,03/04/2024
