rt,stimulus,response,exp_name,exp_stage,subjectID,trial_type,trial_index,time_elapsed,internal_node_id,ospan_shown,ospan_total,ospan_abs,length,resp_actual,resp_correct,full_correct,num_correct,feedback,accuracy,correct,math_acc,math_warning,databaseID,prolificID,start_time,date
1739.5999999940395,<div class = 'left_align' style='font-size: 3.25rem; line-height: 1.3;'><p class = 'center_align'><b>Welcome to the Symmetry and Memory Task</b><br><br><br><br></p>Press 'continue' to show the instructions.<br><br><br><br></div>,0,ospan,instruct,lcI74iVNIDgRFXyiEKla5wo7Bjo2,html-button-response,54,459113,0.0-46.0-0.0-0.0-0.0,,,,,,,,,,,,,,,5918a8230afea70001a58b53,11:53:58,03/04/2024
7900.5,"<div class = 'left_align' style='font-size: 3.25rem; line-height: 1.3;'><p class = 'center_align'><b>Symmetry and Memory Task</b><br><br></p>In this task, you will try to memorize letters you see on the screen<br>while you also view black and white grid pictures.<br><br>In the next few minutes, you will have some practice to get you familiar<br>with how the task works.<br><br>It may be difficult sometimes, but please do not worry about making mistakes!<br><br>We will begin by practicing the letter part of the task.<br><br><br><br></div>",0,ospan,instruct,lcI74iVNIDgRFXyiEKla5wo7Bjo2,html-button-response,55,467269,0.0-46.0-0.0-0.0-1.0,,,,,,,,,,,,,,,5918a8230afea70001a58b53,11:53:58,03/04/2024
10273.800000011921,"<div class = 'left_align' style='font-size: 3.25rem; line-height: 1.3;'>For this practice part, letters will appear on the screen one at a time.<br><br>Try to remember each letter in the order presented.<br><br>After some letters have been shown, you will see a response screen. Your<br>goal is to report the letters you saw <b>in order</b>. If you do not remember<br>a particular letter, you will have the option to leave it blank.<br><br><br><br></div>",0,ospan,instruct,lcI74iVNIDgRFXyiEKla5wo7Bjo2,html-button-response,56,477797,0.0-46.0-0.0-0.0-2.0,,,,,,,,,,,,,,,5918a8230afea70001a58b53,11:53:58,03/04/2024
2776.5,"<div class = 'left_align' style='font-size: 3.25rem; line-height: 1.3;'>Remember, it is very important to get the letters in the same<br>order as you see them.<br><br>When you are ready, you may begin the letter practice.</div><br><br><br><br>",0,ospan,instruct,lcI74iVNIDgRFXyiEKla5wo7Bjo2,html-button-response,57,480827,0.0-46.0-0.0-0.0-3.0,,,,,,,,,,,,,,,5918a8230afea70001a58b53,11:53:58,03/04/2024
,"<p style=""font-size:75px;"">...</p>",,ospan,iti,lcI74iVNIDgRFXyiEKla5wo7Bjo2,html-keyboard-response,58,482085,0.0-46.0-0.0-1.0-0.0,,,,,,,,,,,,,,,5918a8230afea70001a58b53,11:53:58,03/04/2024
,"<div style=""font-size: 10rem; color: #0000FF"">H</div>",,ospan,letter,lcI74iVNIDgRFXyiEKla5wo7Bjo2,html-keyboard-response,59,483093,0.0-46.0-0.0-1.0-1.0,,,,,,,,,,,,,,,5918a8230afea70001a58b53,11:53:58,03/04/2024
,"<div style=""font-size: 10rem; color: #0000FF"">G</div>",,ospan,letter,lcI74iVNIDgRFXyiEKla5wo7Bjo2,html-keyboard-response,60,484854,0.0-46.0-0.0-1.0-2.0,,,,,,,,,,,,,,,5918a8230afea70001a58b53,11:53:58,03/04/2024
6088.5,"<div class = numbox><p style=""font-size: 2.4rem"">Please recall the letters you saw to the best of your ability. If you do not remember a particular letter, use the SKIP button.<br><b>(When you are ready to lock in your answer, press ENTER)</b></p><button id = button_1 class = ""square num-button"" onclick = ""recordClick(this)""><div class = content><div class = numbers>C</div></div></button><button id = button_2 class = ""square num-button"" onclick = ""recordClick(this)""><div class = content><div class = numbers>G</div></div></button><button id = button_3 class = ""square num-button"" onclick = ""recordClick(this)""><div class = content><div class = numbers>H</div></div></button><button id = button_4 class = ""square num-button"" onclick = ""recordClick(this)""><div class = content><div class = numbers>J</div></div></button><button id = button_5 class = ""square num-button"" onclick = ""recordClick(this)""><div class = content><div class = numbers>K</div></div></button><button id = button_6 class = ""square num-button"" onclick = ""recordClick(this)""><div class = content><div class = numbers>L</div></div></button><button id = button_7 class = ""square num-button"" onclick = ""recordClick(this)""><div class = content><div class = numbers>N</div></div></button><button id = button_8 class = ""square num-button"" onclick = ""recordClick(this)""><div class = content><div class = numbers>P</div></div></button><button id = button_9 class = ""square num-button"" onclick = ""recordClick(this)""><div class = content><div class = numbers>Q</div></div></button><button id = button_10 class = ""square num-button"" onclick = ""recordClick(this)""><div class = content><div class = numbers>R</div></div></button><button id = button_11 class = ""square num-button"" onclick = ""recordClick(this)""><div class = content><div class = numbers>S</div></div></button><button id = button_12 class = ""square num-button"" onclick = ""recordClick(this)""><div class = content><div class = numbers>Y</div></div></button><button class = clear_button id = ""ClearButton"" onclick = ""clearResponse()"">BACKSPACE</button><button class = blank_button id = ""BlankButton"" onclick = ""blankResponse()"">SKIP</button><p style=""font-size: 2.4rem""><u><b>Current Answer:</b></u></p><br><br><div id=echoed_txt style=""font-size: 5rem; color:blue;""><b></b></div></div>",enter,ospan,retrieval,lcI74iVNIDgRFXyiEKla5wo7Bjo2,html-keyboard-response,61,491699,0.0-46.0-0.0-1.0-3.0,NA,NA,NA,2.0,"[""H"",""G""]","[""H"",""G""]",1.0,2.0,"['<font color=""green"">H</font>', '<font color=""green"">G</font>']",,,,,,5918a8230afea70001a58b53,11:53:58,03/04/2024
1423.699999988079,"['<p style=""font-size:44px"">Letters:<br><br><br><font color=""green"">H</font> <font color=""green"">G</font></p><br><br>']",0,ospan,practice_feedback,lcI74iVNIDgRFXyiEKla5wo7Bjo2,html-button-response,62,493627,0.0-46.0-0.0-1.0-4.0,,,,,,,,,,,,,,,5918a8230afea70001a58b53,11:53:58,03/04/2024
,"<p style=""font-size:75px;"">...</p>",,ospan,iti,lcI74iVNIDgRFXyiEKla5wo7Bjo2,html-keyboard-response,63,494635,0.0-46.0-0.0-2.0-0.0,,,,,,,,,,,,,,,5918a8230afea70001a58b53,11:53:58,03/04/2024
,"<div style=""font-size: 10rem; color: #0000FF"">R</div>",,ospan,letter,lcI74iVNIDgRFXyiEKla5wo7Bjo2,html-keyboard-response,64,495640,0.0-46.0-0.0-2.0-1.0,,,,,,,,,,,,,,,5918a8230afea70001a58b53,11:53:58,03/04/2024
,"<div style=""font-size: 10rem; color: #0000FF"">C</div>",,ospan,letter,lcI74iVNIDgRFXyiEKla5wo7Bjo2,html-keyboard-response,65,497394,0.0-46.0-0.0-2.0-2.0,,,,,,,,,,,,,,,5918a8230afea70001a58b53,11:53:58,03/04/2024
,"<div style=""font-size: 10rem; color: #0000FF"">Q</div>",,ospan,letter,lcI74iVNIDgRFXyiEKla5wo7Bjo2,html-keyboard-response,66,499156,0.0-46.0-0.0-2.0-3.0,,,,,,,,,,,,,,,5918a8230afea70001a58b53,11:53:58,03/04/2024
3405.699999988079,"<div class = numbox><p style=""font-size: 2.4rem"">Please recall the letters you saw to the best of your ability. If you do not remember a particular letter, use the SKIP button.<br><b>(When you are ready to lock in your answer, press ENTER)</b></p><button id = button_1 class = ""square num-button"" onclick = ""recordClick(this)""><div class = content><div class = numbers>C</div></div></button><button id = button_2 class = ""square num-button"" onclick = ""recordClick(this)""><div class = content><div class = numbers>G</div></div></button><button id = button_3 class = ""square num-button"" onclick = ""recordClick(this)""><div class = content><div class = numbers>H</div></div></button><button id = button_4 class = ""square num-button"" onclick = ""recordClick(this)""><div class = content><div class = numbers>J</div></div></button><button id = button_5 class = ""square num-button"" onclick = ""recordClick(this)""><div class = content><div class = numbers>K</div></div></button><button id = button_6 class = ""square num-button"" onclick = ""recordClick(this)""><div class = content><div class = numbers>L</div></div></button><button id = button_7 class = ""square num-button"" onclick = ""recordClick(this)""><div class = content><div class = numbers>N</div></div></button><button id = button_8 class = ""square num-button"" onclick = ""recordClick(this)""><div class = content><div class = numbers>P</div></div></button><button id = button_9 class = ""square num-button"" onclick = ""recordClick(this)""><div class = content><div class = numbers>Q</div></div></button><button id = button_10 class = ""square num-button"" onclick = ""recordClick(this)""><div class = content><div class = numbers>R</div></div></button><button id = button_11 class = ""square num-button"" onclick = ""recordClick(this)""><div class = content><div class = numbers>S</div></div></button><button id = button_12 class = ""square num-button"" onclick = ""recordClick(this)""><div class = content><div class = numbers>Y</div></div></button><button class = clear_button id = ""ClearButton"" onclick = ""clearResponse()"">BACKSPACE</button><button class = blank_button id = ""BlankButton"" onclick = ""blankResponse()"">SKIP</button><p style=""font-size: 2.4rem""><u><b>Current Answer:</b></u></p><br><br><div id=echoed_txt style=""font-size: 5rem; color:blue;""><b></b></div></div>",enter,ospan,retrieval,lcI74iVNIDgRFXyiEKla5wo7Bjo2,html-keyboard-response,67,503316,0.0-46.0-0.0-2.0-4.0,NA,NA,NA,3.0,"[""R"",""C"",""Q""]","[""R"",""C"",""Q""]",1.0,3.0,"['<font color=""green"">R</font>', '<font color=""green"">C</font>', '<font color=""green"">Q</font>']",,,,,,5918a8230afea70001a58b53,11:53:58,03/04/2024
767.5,"['<p style=""font-size:44px"">Letters:<br><br><br><font color=""green"">R</font> <font color=""green"">C</font> <font color=""green"">Q</font></p><br><br>']",0,ospan,practice_feedback,lcI74iVNIDgRFXyiEKla5wo7Bjo2,html-button-response,68,504587,0.0-46.0-0.0-2.0-5.0,,,,,,,,,,,,,,,5918a8230afea70001a58b53,11:53:58,03/04/2024
16248.800000011921,"<div class = 'left_align' style='font-size: 3.25rem; line-height: 1.3;'>Now you will practice doing the <b>symmetry judgment part</b> of the experiment.<br><br>A black and white grid picture will appear on the screen and you have to judge if it is <br>symmetrical or asymetrical.<br><br>A picture is 'mirror' symmetrical if its left half is identical to the right half when flipped.<br>Here are examples of a symmetrical and an asymetrical picture:<br><br><center><img src='Stimuli/img/symm_instructions_extra.png' style='height:420px; width:900'></img></center><br>To judge symmetry, imagine you were to fold each picture down the middle, like a book –<br>would the left half match the right half when folded onto each other?<br><br></div><br>",0,ospan,instruct,lcI74iVNIDgRFXyiEKla5wo7Bjo2,html-button-response,69,520838,0.0-46.0-1.0-0.0-0.0,,,,,,,,,,,,,,,5918a8230afea70001a58b53,11:53:58,03/04/2024
4528.199999988079,"<div class = 'left_align' style='font-size: 3.25rem; line-height: 1.3;'>When you have viewed the picture and determined whether it is symmetrical or not,<br>you can <b>click the Yes or No button</b> below to answer.<br><br>If you take longer than 15 seconds, it will continue automatically<br>and record the answer as an error.</div><br>",0,ospan,instruct,lcI74iVNIDgRFXyiEKla5wo7Bjo2,html-button-response,70,525622,0.0-46.0-1.0-0.0-1.0,,,,,,,,,,,,,,,5918a8230afea70001a58b53,11:53:58,03/04/2024
4342.5,"<div class = 'left_align' style='font-size: 3.25rem; line-height: 1.3;'>It is <b>very</b> important that you make the symmetry judgment correctly.<br><br>It is also important that you try and judge the picture as quickly as you can.<br><br>When you are ready, click on the button below to try some practice problems.</div><br><br><br><br>",0,ospan,instruct,lcI74iVNIDgRFXyiEKla5wo7Bjo2,html-button-response,71,530222,0.0-46.0-1.0-0.0-2.0,,,,,,,,,,,,,,,5918a8230afea70001a58b53,11:53:58,03/04/2024
3572.0,,,ospan,symmetry,lcI74iVNIDgRFXyiEKla5wo7Bjo2,symmetry-judgement-task,72,534595,0.0-46.0-1.0-1.0-0.0,,,,,,,,,,1.0,1.0,,,,5918a8230afea70001a58b53,11:53:58,03/04/2024
,"<p style=""color:green; font-size: 35px"">Correct</p>",,ospan,feedback,lcI74iVNIDgRFXyiEKla5wo7Bjo2,html-keyboard-response,73,535352,0.0-46.0-1.0-1.0-1.0,,,,,,,,,,,,,,,5918a8230afea70001a58b53,11:53:58,03/04/2024
1692.0,,,ospan,symmetry,lcI74iVNIDgRFXyiEKla5wo7Bjo2,symmetry-judgement-task,74,539702,0.0-46.0-1.0-1.0-2.0,,,,,,,,,,1.0,1.0,,,,5918a8230afea70001a58b53,11:53:58,03/04/2024
,"<p style=""color:green; font-size: 35px"">Correct</p>",,ospan,feedback,lcI74iVNIDgRFXyiEKla5wo7Bjo2,html-keyboard-response,75,540459,0.0-46.0-1.0-1.0-3.0,,,,,,,,,,,,,,,5918a8230afea70001a58b53,11:53:58,03/04/2024
1317.0,,,ospan,symmetry,lcI74iVNIDgRFXyiEKla5wo7Bjo2,symmetry-judgement-task,76,544452,0.0-46.0-1.0-1.0-4.0,,,,,,,,,,1.0,1.0,,,,5918a8230afea70001a58b53,11:53:58,03/04/2024
,"<p style=""color:green; font-size: 35px"">Correct</p>",,ospan,feedback,lcI74iVNIDgRFXyiEKla5wo7Bjo2,html-keyboard-response,77,545207,0.0-46.0-1.0-1.0-5.0,,,,,,,,,,,,,,,5918a8230afea70001a58b53,11:53:58,03/04/2024
1432.0999999940395,"<p style=""font-size: 3rem;"">You responded correctly on 3 of 3 symmetry judgments. Good job!</p><br><br>",0,ospan,practice,lcI74iVNIDgRFXyiEKla5wo7Bjo2,html-button-response,78,548644,0.0-46.0-1.0-2.0,,,,,,,,,,,,,,,5918a8230afea70001a58b53,11:53:58,03/04/2024
11701.09999999404,"<div class = 'left_align' style='font-size: 3.25rem; line-height: 1.3;'>Now you will practice doing both parts of the experiment at the same time.<br><br>In the next practice set, you will be given one grid picture to judge.<br>Then letter will appear on the screen. Try to remember the letter.<br><br>It is <b>very important</b> to make the symmetry judgment as quickly and accurately as possible.<br><br>Just as before, once you have make the symmetry judgment, you can click Yes or No.<br><b>Note that you will no longer see Correct or Incorrect feedback.</div><br><br><br><br>",0,ospan,instruct,lcI74iVNIDgRFXyiEKla5wo7Bjo2,html-button-response,79,560600,0.0-46.0-2.0-0.0-0.0,,,,,,,,,,,,,,,5918a8230afea70001a58b53,11:53:58,03/04/2024
6744.9000000059605,"<div class = 'left_align' style='font-size: 3.25rem; line-height: 1.3;'>After the letter goes away, another grid picture will appear, and then<br>another letter.<br><br>At the end of each set of letters and grids, you will recall the letters to the best<br>of your ability. Remember, try your best to get the letters in the correct order.<br><br>It is important to <b>quickly</b> and <b>accurately</b> make the symmetry judgments.</div><br><br><br><br>",0,ospan,instruct,lcI74iVNIDgRFXyiEKla5wo7Bjo2,html-button-response,80,567603,0.0-46.0-2.0-0.0-1.0,,,,,,,,,,,,,,,5918a8230afea70001a58b53,11:53:58,03/04/2024
14640.5,"<div class = 'left_align' style='font-size: 3.25rem; line-height: 1.3;'>On the feedback screen, if you are not doing well at the symmetry judgments,<br>you will also see a warning in the middle. This indicates your percent <br>correct for the grid pictures for the entire experiment.<br><br>It is <b>very</b> important for you to keep accuracy at least at 85%: <u>We can only use<br>data where the participant was at least 85% accurate on the judgments.</u> Therefore,<br> please try your best to perform well on the symmetry judgments, <b>at the same time</b><br>doing your best to recall as many letters as possible.<br><br>Click the button to try some practice problems.</div><br><br><br><br>",0,ospan,instruct,lcI74iVNIDgRFXyiEKla5wo7Bjo2,html-button-response,81,582502,0.0-46.0-2.0-0.0-2.0,,,,,,,,,,,,,,,5918a8230afea70001a58b53,11:53:58,03/04/2024
,"<p style=""font-size:75px;"">...</p>",,ospan,iti,lcI74iVNIDgRFXyiEKla5wo7Bjo2,html-keyboard-response,82,583761,0.0-46.0-2.0-1.0-0.0,,,,,,,,,,,,,,,5918a8230afea70001a58b53,11:53:58,03/04/2024
1663.0,,,ospan,symmetry,lcI74iVNIDgRFXyiEKla5wo7Bjo2,symmetry-judgement-task,83,586589,0.0-46.0-2.0-1.0-1.0-0.0,,,,,,,,,,1.0,1.0,,,,5918a8230afea70001a58b53,11:53:58,03/04/2024
,"<div style=""font-size: 10rem; color: #0000FF"">K</div>",,ospan,letter,lcI74iVNIDgRFXyiEKla5wo7Bjo2,html-keyboard-response,84,587596,0.0-46.0-2.0-1.0-1.0-1.0,,,,,,,,,,,,,,,5918a8230afea70001a58b53,11:53:58,03/04/2024
1466.0,,,ospan,symmetry,lcI74iVNIDgRFXyiEKla5wo7Bjo2,symmetry-judgement-task,85,590978,0.0-46.0-2.0-1.0-1.0-2.0,,,,,,,,,,1.0,1.0,,,,5918a8230afea70001a58b53,11:53:58,03/04/2024
,"<div style=""font-size: 10rem; color: #0000FF"">N</div>",,ospan,letter,lcI74iVNIDgRFXyiEKla5wo7Bjo2,html-keyboard-response,86,591981,0.0-46.0-2.0-1.0-1.0-3.0,,,,,,,,,,,,,,,5918a8230afea70001a58b53,11:53:58,03/04/2024
1827.0,,,ospan,symmetry,lcI74iVNIDgRFXyiEKla5wo7Bjo2,symmetry-judgement-task,87,595736,0.0-46.0-2.0-1.0-1.0-4.0,,,,,,,,,,1.0,1.0,,,,5918a8230afea70001a58b53,11:53:58,03/04/2024
,"<div style=""font-size: 10rem; color: #0000FF"">H</div>",,ospan,letter,lcI74iVNIDgRFXyiEKla5wo7Bjo2,html-keyboard-response,88,596743,0.0-46.0-2.0-1.0-1.0-5.0,,,,,,,,,,,,,,,5918a8230afea70001a58b53,11:53:58,03/04/2024
4099.300000011921,"<div class = numbox><p style=""font-size: 2.4rem"">Please recall the letters you saw to the best of your ability. If you do not remember a particular letter, use the SKIP button.<br><b>(When you are ready to lock in your answer, press ENTER)</b></p><button id = button_1 class = ""square num-button"" onclick = ""recordClick(this)""><div class = content><div class = numbers>C</div></div></button><button id = button_2 class = ""square num-button"" onclick = ""recordClick(this)""><div class = content><div class = numbers>G</div></div></button><button id = button_3 class = ""square num-button"" onclick = ""recordClick(this)""><div class = content><div class = numbers>H</div></div></button><button id = button_4 class = ""square num-button"" onclick = ""recordClick(this)""><div class = content><div class = numbers>J</div></div></button><button id = button_5 class = ""square num-button"" onclick = ""recordClick(this)""><div class = content><div class = numbers>K</div></div></button><button id = button_6 class = ""square num-button"" onclick = ""recordClick(this)""><div class = content><div class = numbers>L</div></div></button><button id = button_7 class = ""square num-button"" onclick = ""recordClick(this)""><div class = content><div class = numbers>N</div></div></button><button id = button_8 class = ""square num-button"" onclick = ""recordClick(this)""><div class = content><div class = numbers>P</div></div></button><button id = button_9 class = ""square num-button"" onclick = ""recordClick(this)""><div class = content><div class = numbers>Q</div></div></button><button id = button_10 class = ""square num-button"" onclick = ""recordClick(this)""><div class = content><div class = numbers>R</div></div></button><button id = button_11 class = ""square num-button"" onclick = ""recordClick(this)""><div class = content><div class = numbers>S</div></div></button><button id = button_12 class = ""square num-button"" onclick = ""recordClick(this)""><div class = content><div class = numbers>Y</div></div></button><button class = clear_button id = ""ClearButton"" onclick = ""clearResponse()"">BACKSPACE</button><button class = blank_button id = ""BlankButton"" onclick = ""blankResponse()"">SKIP</button><p style=""font-size: 2.4rem""><u><b>Current Answer:</b></u></p><br><br><div id=echoed_txt style=""font-size: 5rem; color:blue;""><b></b></div></div>",enter,ospan,retrieval,lcI74iVNIDgRFXyiEKla5wo7Bjo2,html-keyboard-response,89,601599,0.0-46.0-2.0-1.0-2.0-0.0,NA,NA,NA,3.0,"[""K"",""N"",""H""]","[""K"",""N"",""H""]",1.0,3.0,"['<font color=""green"">K</font>', '<font color=""green"">N</font>', '<font color=""green"">H</font>']",,,,,,5918a8230afea70001a58b53,11:53:58,03/04/2024
1368.0,"['<p style=""font-size:44px"">Letters:<br><br><br><font color=""green"">K</font> <font color=""green"">N</font> <font color=""green"">H</font></p><br><br><p style=""font-size:30px"">Symmetry:<br><br><font color=""green"">100%</font></p><br><br>']",0,ospan,practice_feedback,lcI74iVNIDgRFXyiEKla5wo7Bjo2,html-button-response,90,603470,0.0-46.0-2.0-1.0-2.0-1.0,,,,,,,,,,,,,,,5918a8230afea70001a58b53,11:53:58,03/04/2024
,"<p style=""font-size:75px;"">...</p>",,ospan,iti,lcI74iVNIDgRFXyiEKla5wo7Bjo2,html-keyboard-response,91,604476,0.0-46.0-2.0-2.0-0.0,,,,,,,,,,,,,,,5918a8230afea70001a58b53,11:53:58,03/04/2024
1307.0,,,ospan,symmetry,lcI74iVNIDgRFXyiEKla5wo7Bjo2,symmetry-judgement-task,92,606938,0.0-46.0-2.0-2.0-1.0-0.0,,,,,,,,,,1.0,1.0,,,,5918a8230afea70001a58b53,11:53:58,03/04/2024
,"<div style=""font-size: 10rem; color: #0000FF"">Y</div>",,ospan,letter,lcI74iVNIDgRFXyiEKla5wo7Bjo2,html-keyboard-response,93,607945,0.0-46.0-2.0-2.0-1.0-1.0,,,,,,,,,,,,,,,5918a8230afea70001a58b53,11:53:58,03/04/2024
1674.0,,,ospan,symmetry,lcI74iVNIDgRFXyiEKla5wo7Bjo2,symmetry-judgement-task,94,611539,0.0-46.0-2.0-2.0-1.0-2.0,,,,,,,,,,1.0,1.0,,,,5918a8230afea70001a58b53,11:53:58,03/04/2024
,"<div style=""font-size: 10rem; color: #0000FF"">C</div>",,ospan,letter,lcI74iVNIDgRFXyiEKla5wo7Bjo2,html-keyboard-response,95,612541,0.0-46.0-2.0-2.0-1.0-3.0,,,,,,,,,,,,,,,5918a8230afea70001a58b53,11:53:58,03/04/2024
1195.0,,,ospan,symmetry,lcI74iVNIDgRFXyiEKla5wo7Bjo2,symmetry-judgement-task,96,615661,0.0-46.0-2.0-2.0-1.0-4.0,,,,,,,,,,1.0,1.0,,,,5918a8230afea70001a58b53,11:53:58,03/04/2024
,"<div style=""font-size: 10rem; color: #0000FF"">S</div>",,ospan,letter,lcI74iVNIDgRFXyiEKla5wo7Bjo2,html-keyboard-response,97,616665,0.0-46.0-2.0-2.0-1.0-5.0,,,,,,,,,,,,,,,5918a8230afea70001a58b53,11:53:58,03/04/2024
4283.4000000059605,"<div class = numbox><p style=""font-size: 2.4rem"">Please recall the letters you saw to the best of your ability. If you do not remember a particular letter, use the SKIP button.<br><b>(When you are ready to lock in your answer, press ENTER)</b></p><button id = button_1 class = ""square num-button"" onclick = ""recordClick(this)""><div class = content><div class = numbers>C</div></div></button><button id = button_2 class = ""square num-button"" onclick = ""recordClick(this)""><div class = content><div class = numbers>G</div></div></button><button id = button_3 class = ""square num-button"" onclick = ""recordClick(this)""><div class = content><div class = numbers>H</div></div></button><button id = button_4 class = ""square num-button"" onclick = ""recordClick(this)""><div class = content><div class = numbers>J</div></div></button><button id = button_5 class = ""square num-button"" onclick = ""recordClick(this)""><div class = content><div class = numbers>K</div></div></button><button id = button_6 class = ""square num-button"" onclick = ""recordClick(this)""><div class = content><div class = numbers>L</div></div></button><button id = button_7 class = ""square num-button"" onclick = ""recordClick(this)""><div class = content><div class = numbers>N</div></div></button><button id = button_8 class = ""square num-button"" onclick = ""recordClick(this)""><div class = content><div class = numbers>P</div></div></button><button id = button_9 class = ""square num-button"" onclick = ""recordClick(this)""><div class = content><div class = numbers>Q</div></div></button><button id = button_10 class = ""square num-button"" onclick = ""recordClick(this)""><div class = content><div class = numbers>R</div></div></button><button id = button_11 class = ""square num-button"" onclick = ""recordClick(this)""><div class = content><div class = numbers>S</div></div></button><button id = button_12 class = ""square num-button"" onclick = ""recordClick(this)""><div class = content><div class = numbers>Y</div></div></button><button class = clear_button id = ""ClearButton"" onclick = ""clearResponse()"">BACKSPACE</button><button class = blank_button id = ""BlankButton"" onclick = ""blankResponse()"">SKIP</button><p style=""font-size: 2.4rem""><u><b>Current Answer:</b></u></p><br><br><div id=echoed_txt style=""font-size: 5rem; color:blue;""><b></b></div></div>",enter,ospan,retrieval,lcI74iVNIDgRFXyiEKla5wo7Bjo2,html-keyboard-response,98,621702,0.0-46.0-2.0-2.0-2.0-0.0,NA,NA,NA,3.0,"[""Y"",""C"",""S""]","[""Y"",""C"",""S""]",1.0,3.0,"['<font color=""green"">Y</font>', '<font color=""green"">C</font>', '<font color=""green"">S</font>']",,,,,,5918a8230afea70001a58b53,11:53:58,03/04/2024
891.4000000059605,"['<p style=""font-size:44px"">Letters:<br><br><br><font color=""green"">Y</font> <font color=""green"">C</font> <font color=""green"">S</font></p><br><br><p style=""font-size:30px"">Symmetry:<br><br><font color=""green"">100%</font></p><br><br>']",0,ospan,practice_feedback,lcI74iVNIDgRFXyiEKla5wo7Bjo2,html-button-response,99,623099,0.0-46.0-2.0-2.0-2.0-1.0,,,,,,,,,,,,,,,5918a8230afea70001a58b53,11:53:58,03/04/2024
19746.0,"<div class = 'left_align' style='font-size: 3rem; line-height: 1.3;'><b>Great work! That is the end of practice.</b><br><br>The real trials will look just like the practice trials you just completed.<br><br><u>Here, you will not see feedback</u>. First, you will see an grid picture to judge,<br>then a letter to remember. When the recall screen appears, report the letters in the<br>order presented. If you forget a letter, remember to use the <b>blank</b> button to move to the<br>next letter. Some of the sets will have more symmetry grids and letters than others.<br><br>It is important that you do your best on both the symmetry judgments and the letter recall<br>parts of the experiment. For for the symmetry judgments, try to work as <b>quickly</b> and <br>as <b>accurately</b> as possible. Remember to keep your symmetry accuracy at 85% or above.<br><br><b>For the letters, do NOT use any external aid (e.g., writing on paper, electronic device).</b><br><br>It is <u>very important</u> to our experiment to have a <b>true</b> view of your real performance.<br><br>Do not worry if you miss some when it gets hard! This task is meant to be very challenging!<br><br>Click the button to begin.</div><br><br><br><br>",0,ospan,starting_real_here,lcI74iVNIDgRFXyiEKla5wo7Bjo2,html-button-response,100,642848,0.0-46.0-2.0-3.0,,,,,,,,,,,,,,,5918a8230afea70001a58b53,11:53:58,03/04/2024
,"<p style=""font-size:75px;"">...</p>",,ospan,iti,lcI74iVNIDgRFXyiEKla5wo7Bjo2,html-keyboard-response,101,644109,0.0-46.0-3.0-0.0-0.0,,,,,,,,,,,,,,,5918a8230afea70001a58b53,11:53:58,03/04/2024
1886.0,,,ospan,symmetry,lcI74iVNIDgRFXyiEKla5wo7Bjo2,symmetry-judgement-task,102,647205,0.0-46.0-3.0-0.0-1.0-0.0,,,,,,,,,,1.0,1.0,,,,5918a8230afea70001a58b53,11:53:58,03/04/2024
,"<div style=""font-size: 10rem; color: #0000FF"">L</div>",,ospan,letter,lcI74iVNIDgRFXyiEKla5wo7Bjo2,html-keyboard-response,103,648211,0.0-46.0-3.0-0.0-1.0-1.0,,,,,,,,,,,,,,,5918a8230afea70001a58b53,11:53:58,03/04/2024
1458.0,,,ospan,symmetry,lcI74iVNIDgRFXyiEKla5wo7Bjo2,symmetry-judgement-task,104,651583,0.0-46.0-3.0-0.0-1.0-2.0,,,,,,,,,,1.0,1.0,,,,5918a8230afea70001a58b53,11:53:58,03/04/2024
,"<div style=""font-size: 10rem; color: #0000FF"">Q</div>",,ospan,letter,lcI74iVNIDgRFXyiEKla5wo7Bjo2,html-keyboard-response,105,652587,0.0-46.0-3.0-0.0-1.0-3.0,,,,,,,,,,,,,,,5918a8230afea70001a58b53,11:53:58,03/04/2024
1566.0,,,ospan,symmetry,lcI74iVNIDgRFXyiEKla5wo7Bjo2,symmetry-judgement-task,106,656077,0.0-46.0-3.0-0.0-1.0-4.0,,,,,,,,,,1.0,1.0,,,,5918a8230afea70001a58b53,11:53:58,03/04/2024
,"<div style=""font-size: 10rem; color: #0000FF"">C</div>",,ospan,letter,lcI74iVNIDgRFXyiEKla5wo7Bjo2,html-keyboard-response,107,657083,0.0-46.0-3.0-0.0-1.0-5.0,,,,,,,,,,,,,,,5918a8230afea70001a58b53,11:53:58,03/04/2024
4840.5999999940395,"<div class = numbox><p style=""font-size: 2.4rem"">Please recall the letters you saw to the best of your ability. If you do not remember a particular letter, use the SKIP button.<br><b>(When you are ready to lock in your answer, press ENTER)</b></p><button id = button_1 class = ""square num-button"" onclick = ""recordClick(this)""><div class = content><div class = numbers>C</div></div></button><button id = button_2 class = ""square num-button"" onclick = ""recordClick(this)""><div class = content><div class = numbers>G</div></div></button><button id = button_3 class = ""square num-button"" onclick = ""recordClick(this)""><div class = content><div class = numbers>H</div></div></button><button id = button_4 class = ""square num-button"" onclick = ""recordClick(this)""><div class = content><div class = numbers>J</div></div></button><button id = button_5 class = ""square num-button"" onclick = ""recordClick(this)""><div class = content><div class = numbers>K</div></div></button><button id = button_6 class = ""square num-button"" onclick = ""recordClick(this)""><div class = content><div class = numbers>L</div></div></button><button id = button_7 class = ""square num-button"" onclick = ""recordClick(this)""><div class = content><div class = numbers>N</div></div></button><button id = button_8 class = ""square num-button"" onclick = ""recordClick(this)""><div class = content><div class = numbers>P</div></div></button><button id = button_9 class = ""square num-button"" onclick = ""recordClick(this)""><div class = content><div class = numbers>Q</div></div></button><button id = button_10 class = ""square num-button"" onclick = ""recordClick(this)""><div class = content><div class = numbers>R</div></div></button><button id = button_11 class = ""square num-button"" onclick = ""recordClick(this)""><div class = content><div class = numbers>S</div></div></button><button id = button_12 class = ""square num-button"" onclick = ""recordClick(this)""><div class = content><div class = numbers>Y</div></div></button><button class = clear_button id = ""ClearButton"" onclick = ""clearResponse()"">BACKSPACE</button><button class = blank_button id = ""BlankButton"" onclick = ""blankResponse()"">SKIP</button><p style=""font-size: 2.4rem""><u><b>Current Answer:</b></u></p><br><br><div id=echoed_txt style=""font-size: 5rem; color:blue;""><b></b></div></div>",enter,ospan,retrieval,lcI74iVNIDgRFXyiEKla5wo7Bjo2,html-keyboard-response,108,662681,0.0-46.0-3.0-0.0-2.0,3,3,3,3.0,"[""L"",""Q"",""C""]","[""L"",""Q"",""C""]",1.0,3.0,,,,,,,5918a8230afea70001a58b53,11:53:58,03/04/2024
838.1999999880791,[''],0,ospan,feedback,lcI74iVNIDgRFXyiEKla5wo7Bjo2,html-button-response,109,664022,0.0-46.0-3.0-0.0-3.0,,,,,,,,,,,,100.0,0.0,,5918a8230afea70001a58b53,11:53:58,03/04/2024
,"<p style=""font-size:75px;"">...</p>",,ospan,iti,lcI74iVNIDgRFXyiEKla5wo7Bjo2,html-keyboard-response,110,665024,0.0-46.0-4.0-0.0-0.0,,,,,,,,,,,,,,,5918a8230afea70001a58b53,11:53:58,03/04/2024
2705.0,,,ospan,symmetry,lcI74iVNIDgRFXyiEKla5wo7Bjo2,symmetry-judgement-task,111,668916,0.0-46.0-4.0-0.0-1.0-0.0,,,,,,,,,,1.0,1.0,,,,5918a8230afea70001a58b53,11:53:58,03/04/2024
,"<div style=""font-size: 10rem; color: #0000FF"">L</div>",,ospan,letter,lcI74iVNIDgRFXyiEKla5wo7Bjo2,html-keyboard-response,112,669919,0.0-46.0-4.0-0.0-1.0-1.0,,,,,,,,,,,,,,,5918a8230afea70001a58b53,11:53:58,03/04/2024
2574.0,,,ospan,symmetry,lcI74iVNIDgRFXyiEKla5wo7Bjo2,symmetry-judgement-task,113,674481,0.0-46.0-4.0-0.0-1.0-2.0,,,,,,,,,,1.0,1.0,,,,5918a8230afea70001a58b53,11:53:58,03/04/2024
,"<div style=""font-size: 10rem; color: #0000FF"">K</div>",,ospan,letter,lcI74iVNIDgRFXyiEKla5wo7Bjo2,html-keyboard-response,114,675485,0.0-46.0-4.0-0.0-1.0-3.0,,,,,,,,,,,,,,,5918a8230afea70001a58b53,11:53:58,03/04/2024
2821.0,,,ospan,symmetry,lcI74iVNIDgRFXyiEKla5wo7Bjo2,symmetry-judgement-task,115,680510,0.0-46.0-4.0-0.0-1.0-4.0,,,,,,,,,,1.0,1.0,,,,5918a8230afea70001a58b53,11:53:58,03/04/2024
,"<div style=""font-size: 10rem; color: #0000FF"">H</div>",,ospan,letter,lcI74iVNIDgRFXyiEKla5wo7Bjo2,html-keyboard-response,116,681517,0.0-46.0-4.0-0.0-1.0-5.0,,,,,,,,,,,,,,,5918a8230afea70001a58b53,11:53:58,03/04/2024
3835.0,,,ospan,symmetry,lcI74iVNIDgRFXyiEKla5wo7Bjo2,symmetry-judgement-task,117,687258,0.0-46.0-4.0-0.0-1.0-6.0,,,,,,,,,,1.0,1.0,,,,5918a8230afea70001a58b53,11:53:58,03/04/2024
,"<div style=""font-size: 10rem; color: #0000FF"">P</div>",,ospan,letter,lcI74iVNIDgRFXyiEKla5wo7Bjo2,html-keyboard-response,118,688262,0.0-46.0-4.0-0.0-1.0-7.0,,,,,,,,,,,,,,,5918a8230afea70001a58b53,11:53:58,03/04/2024
4371.4000000059605,"<div class = numbox><p style=""font-size: 2.4rem"">Please recall the letters you saw to the best of your ability. If you do not remember a particular letter, use the SKIP button.<br><b>(When you are ready to lock in your answer, press ENTER)</b></p><button id = button_1 class = ""square num-button"" onclick = ""recordClick(this)""><div class = content><div class = numbers>C</div></div></button><button id = button_2 class = ""square num-button"" onclick = ""recordClick(this)""><div class = content><div class = numbers>G</div></div></button><button id = button_3 class = ""square num-button"" onclick = ""recordClick(this)""><div class = content><div class = numbers>H</div></div></button><button id = button_4 class = ""square num-button"" onclick = ""recordClick(this)""><div class = content><div class = numbers>J</div></div></button><button id = button_5 class = ""square num-button"" onclick = ""recordClick(this)""><div class = content><div class = numbers>K</div></div></button><button id = button_6 class = ""square num-button"" onclick = ""recordClick(this)""><div class = content><div class = numbers>L</div></div></button><button id = button_7 class = ""square num-button"" onclick = ""recordClick(this)""><div class = content><div class = numbers>N</div></div></button><button id = button_8 class = ""square num-button"" onclick = ""recordClick(this)""><div class = content><div class = numbers>P</div></div></button><button id = button_9 class = ""square num-button"" onclick = ""recordClick(this)""><div class = content><div class = numbers>Q</div></div></button><button id = button_10 class = ""square num-button"" onclick = ""recordClick(this)""><div class = content><div class = numbers>R</div></div></button><button id = button_11 class = ""square num-button"" onclick = ""recordClick(this)""><div class = content><div class = numbers>S</div></div></button><button id = button_12 class = ""square num-button"" onclick = ""recordClick(this)""><div class = content><div class = numbers>Y</div></div></button><button class = clear_button id = ""ClearButton"" onclick = ""clearResponse()"">BACKSPACE</button><button class = blank_button id = ""BlankButton"" onclick = ""blankResponse()"">SKIP</button><p style=""font-size: 2.4rem""><u><b>Current Answer:</b></u></p><br><br><div id=echoed_txt style=""font-size: 5rem; color:blue;""><b></b></div></div>",enter,ospan,retrieval,lcI74iVNIDgRFXyiEKla5wo7Bjo2,html-keyboard-response,119,693392,0.0-46.0-4.0-0.0-2.0,7,7,7,4.0,"[""L"",""K"",""H"",""P""]","[""L"",""K"",""H"",""P""]",1.0,4.0,,,,,,,5918a8230afea70001a58b53,11:53:58,03/04/2024
666.1000000238419,[''],0,ospan,feedback,lcI74iVNIDgRFXyiEKla5wo7Bjo2,html-button-response,120,694563,0.0-46.0-4.0-0.0-3.0,,,,,,,,,,,,100.0,0.0,,5918a8230afea70001a58b53,11:53:58,03/04/2024
,"<p style=""font-size:75px;"">...</p>",,ospan,iti,lcI74iVNIDgRFXyiEKla5wo7Bjo2,html-keyboard-response,121,695572,0.0-46.0-4.0-1.0-0.0,,,,,,,,,,,,,,,5918a8230afea70001a58b53,11:53:58,03/04/2024
2512.0,,,ospan,symmetry,lcI74iVNIDgRFXyiEKla5wo7Bjo2,symmetry-judgement-task,122,699132,0.0-46.0-4.0-1.0-1.0-0.0,,,,,,,,,,1.0,1.0,,,,5918a8230afea70001a58b53,11:53:58,03/04/2024
,"<div style=""font-size: 10rem; color: #0000FF"">S</div>",,ospan,letter,lcI74iVNIDgRFXyiEKla5wo7Bjo2,html-keyboard-response,123,700137,0.0-46.0-4.0-1.0-1.0-1.0,,,,,,,,,,,,,,,5918a8230afea70001a58b53,11:53:58,03/04/2024
1993.0,,,ospan,symmetry,lcI74iVNIDgRFXyiEKla5wo7Bjo2,symmetry-judgement-task,124,703925,0.0-46.0-4.0-1.0-1.0-2.0,,,,,,,,,,1.0,1.0,,,,5918a8230afea70001a58b53,11:53:58,03/04/2024
,"<div style=""font-size: 10rem; color: #0000FF"">J</div>",,ospan,letter,lcI74iVNIDgRFXyiEKla5wo7Bjo2,html-keyboard-response,125,704928,0.0-46.0-4.0-1.0-1.0-3.0,,,,,,,,,,,,,,,5918a8230afea70001a58b53,11:53:58,03/04/2024
1579.0,,,ospan,symmetry,lcI74iVNIDgRFXyiEKla5wo7Bjo2,symmetry-judgement-task,126,708422,0.0-46.0-4.0-1.0-1.0-4.0,,,,,,,,,,1.0,1.0,,,,5918a8230afea70001a58b53,11:53:58,03/04/2024
,"<div style=""font-size: 10rem; color: #0000FF"">L</div>",,ospan,letter,lcI74iVNIDgRFXyiEKla5wo7Bjo2,html-keyboard-response,127,709427,0.0-46.0-4.0-1.0-1.0-5.0,,,,,,,,,,,,,,,5918a8230afea70001a58b53,11:53:58,03/04/2024
2485.0,,,ospan,symmetry,lcI74iVNIDgRFXyiEKla5wo7Bjo2,symmetry-judgement-task,128,713825,0.0-46.0-4.0-1.0-1.0-6.0,,,,,,,,,,1.0,1.0,,,,5918a8230afea70001a58b53,11:53:58,03/04/2024
,"<div style=""font-size: 10rem; color: #0000FF"">R</div>",,ospan,letter,lcI74iVNIDgRFXyiEKla5wo7Bjo2,html-keyboard-response,129,714830,0.0-46.0-4.0-1.0-1.0-7.0,,,,,,,,,,,,,,,5918a8230afea70001a58b53,11:53:58,03/04/2024
1898.0,,,ospan,symmetry,lcI74iVNIDgRFXyiEKla5wo7Bjo2,symmetry-judgement-task,130,718675,0.0-46.0-4.0-1.0-1.0-8.0,,,,,,,,,,1.0,1.0,,,,5918a8230afea70001a58b53,11:53:58,03/04/2024
,"<div style=""font-size: 10rem; color: #0000FF"">Q</div>",,ospan,letter,lcI74iVNIDgRFXyiEKla5wo7Bjo2,html-keyboard-response,131,719680,0.0-46.0-4.0-1.0-1.0-9.0,,,,,,,,,,,,,,,5918a8230afea70001a58b53,11:53:58,03/04/2024
5351.4000000059605,"<div class = numbox><p style=""font-size: 2.4rem"">Please recall the letters you saw to the best of your ability. If you do not remember a particular letter, use the SKIP button.<br><b>(When you are ready to lock in your answer, press ENTER)</b></p><button id = button_1 class = ""square num-button"" onclick = ""recordClick(this)""><div class = content><div class = numbers>C</div></div></button><button id = button_2 class = ""square num-button"" onclick = ""recordClick(this)""><div class = content><div class = numbers>G</div></div></button><button id = button_3 class = ""square num-button"" onclick = ""recordClick(this)""><div class = content><div class = numbers>H</div></div></button><button id = button_4 class = ""square num-button"" onclick = ""recordClick(this)""><div class = content><div class = numbers>J</div></div></button><button id = button_5 class = ""square num-button"" onclick = ""recordClick(this)""><div class = content><div class = numbers>K</div></div></button><button id = button_6 class = ""square num-button"" onclick = ""recordClick(this)""><div class = content><div class = numbers>L</div></div></button><button id = button_7 class = ""square num-button"" onclick = ""recordClick(this)""><div class = content><div class = numbers>N</div></div></button><button id = button_8 class = ""square num-button"" onclick = ""recordClick(this)""><div class = content><div class = numbers>P</div></div></button><button id = button_9 class = ""square num-button"" onclick = ""recordClick(this)""><div class = content><div class = numbers>Q</div></div></button><button id = button_10 class = ""square num-button"" onclick = ""recordClick(this)""><div class = content><div class = numbers>R</div></div></button><button id = button_11 class = ""square num-button"" onclick = ""recordClick(this)""><div class = content><div class = numbers>S</div></div></button><button id = button_12 class = ""square num-button"" onclick = ""recordClick(this)""><div class = content><div class = numbers>Y</div></div></button><button class = clear_button id = ""ClearButton"" onclick = ""clearResponse()"">BACKSPACE</button><button class = blank_button id = ""BlankButton"" onclick = ""blankResponse()"">SKIP</button><p style=""font-size: 2.4rem""><u><b>Current Answer:</b></u></p><br><br><div id=echoed_txt style=""font-size: 5rem; color:blue;""><b></b></div></div>",enter,ospan,retrieval,lcI74iVNIDgRFXyiEKla5wo7Bjo2,html-keyboard-response,132,725789,0.0-46.0-4.0-1.0-2.0,12,10,7,5.0,"[""S"",""L"",""J"",""R"",""Q""]","[""S"",""J"",""L"",""R"",""Q""]",0.0,3.0,,,,,,,5918a8230afea70001a58b53,11:53:58,03/04/2024
592.5,[''],0,ospan,feedback,lcI74iVNIDgRFXyiEKla5wo7Bjo2,html-button-response,133,726886,0.0-46.0-4.0-1.0-3.0,,,,,,,,,,,,100.0,0.0,,5918a8230afea70001a58b53,11:53:58,03/04/2024
,"<p style=""font-size:75px;"">...</p>",,ospan,iti,lcI74iVNIDgRFXyiEKla5wo7Bjo2,html-keyboard-response,134,727890,0.0-46.0-4.0-2.0-0.0,,,,,,,,,,,,,,,5918a8230afea70001a58b53,11:53:58,03/04/2024
1785.0,,,ospan,symmetry,lcI74iVNIDgRFXyiEKla5wo7Bjo2,symmetry-judgement-task,135,730850,0.0-46.0-4.0-2.0-1.0-0.0,,,,,,,,,,1.0,1.0,,,,5918a8230afea70001a58b53,11:53:58,03/04/2024
,"<div style=""font-size: 10rem; color: #0000FF"">K</div>",,ospan,letter,lcI74iVNIDgRFXyiEKla5wo7Bjo2,html-keyboard-response,136,731854,0.0-46.0-4.0-2.0-1.0-1.0,,,,,,,,,,,,,,,5918a8230afea70001a58b53,11:53:58,03/04/2024
1567.0,,,ospan,symmetry,lcI74iVNIDgRFXyiEKla5wo7Bjo2,symmetry-judgement-task,137,735327,0.0-46.0-4.0-2.0-1.0-2.0,,,,,,,,,,1.0,1.0,,,,5918a8230afea70001a58b53,11:53:58,03/04/2024
,"<div style=""font-size: 10rem; color: #0000FF"">Y</div>",,ospan,letter,lcI74iVNIDgRFXyiEKla5wo7Bjo2,html-keyboard-response,138,736334,0.0-46.0-4.0-2.0-1.0-3.0,,,,,,,,,,,,,,,5918a8230afea70001a58b53,11:53:58,03/04/2024
1193.0,,,ospan,symmetry,lcI74iVNIDgRFXyiEKla5wo7Bjo2,symmetry-judgement-task,139,739440,0.0-46.0-4.0-2.0-1.0-4.0,,,,,,,,,,1.0,1.0,,,,5918a8230afea70001a58b53,11:53:58,03/04/2024
,"<div style=""font-size: 10rem; color: #0000FF"">N</div>",,ospan,letter,lcI74iVNIDgRFXyiEKla5wo7Bjo2,html-keyboard-response,140,740445,0.0-46.0-4.0-2.0-1.0-5.0,,,,,,,,,,,,,,,5918a8230afea70001a58b53,11:53:58,03/04/2024
5062.5999999940395,"<div class = numbox><p style=""font-size: 2.4rem"">Please recall the letters you saw to the best of your ability. If you do not remember a particular letter, use the SKIP button.<br><b>(When you are ready to lock in your answer, press ENTER)</b></p><button id = button_1 class = ""square num-button"" onclick = ""recordClick(this)""><div class = content><div class = numbers>C</div></div></button><button id = button_2 class = ""square num-button"" onclick = ""recordClick(this)""><div class = content><div class = numbers>G</div></div></button><button id = button_3 class = ""square num-button"" onclick = ""recordClick(this)""><div class = content><div class = numbers>H</div></div></button><button id = button_4 class = ""square num-button"" onclick = ""recordClick(this)""><div class = content><div class = numbers>J</div></div></button><button id = button_5 class = ""square num-button"" onclick = ""recordClick(this)""><div class = content><div class = numbers>K</div></div></button><button id = button_6 class = ""square num-button"" onclick = ""recordClick(this)""><div class = content><div class = numbers>L</div></div></button><button id = button_7 class = ""square num-button"" onclick = ""recordClick(this)""><div class = content><div class = numbers>N</div></div></button><button id = button_8 class = ""square num-button"" onclick = ""recordClick(this)""><div class = content><div class = numbers>P</div></div></button><button id = button_9 class = ""square num-button"" onclick = ""recordClick(this)""><div class = content><div class = numbers>Q</div></div></button><button id = button_10 class = ""square num-button"" onclick = ""recordClick(this)""><div class = content><div class = numbers>R</div></div></button><button id = button_11 class = ""square num-button"" onclick = ""recordClick(this)""><div class = content><div class = numbers>S</div></div></button><button id = button_12 class = ""square num-button"" onclick = ""recordClick(this)""><div class = content><div class = numbers>Y</div></div></button><button class = clear_button id = ""ClearButton"" onclick = ""clearResponse()"">BACKSPACE</button><button class = blank_button id = ""BlankButton"" onclick = ""blankResponse()"">SKIP</button><p style=""font-size: 2.4rem""><u><b>Current Answer:</b></u></p><br><br><div id=echoed_txt style=""font-size: 5rem; color:blue;""><b></b></div></div>",enter,ospan,retrieval,lcI74iVNIDgRFXyiEKla5wo7Bjo2,html-keyboard-response,141,746265,0.0-46.0-4.0-2.0-2.0,15,13,10,3.0,"[""K"",""Y"",""N""]","[""K"",""Y"",""N""]",1.0,3.0,,,,,,,5918a8230afea70001a58b53,11:53:58,03/04/2024
912.8000000119209,[''],0,ospan,feedback,lcI74iVNIDgRFXyiEKla5wo7Bjo2,html-button-response,142,747685,0.0-46.0-4.0-2.0-3.0,,,,,,,,,,,,100.0,0.0,,5918a8230afea70001a58b53,11:53:58,03/04/2024
,"<p style=""font-size:75px;"">...</p>",,ospan,iti,lcI74iVNIDgRFXyiEKla5wo7Bjo2,html-keyboard-response,143,748693,0.0-46.0-5.0-0.0-0.0,,,,,,,,,,,,,,,5918a8230afea70001a58b53,11:53:58,03/04/2024
2048.0,,,ospan,symmetry,lcI74iVNIDgRFXyiEKla5wo7Bjo2,symmetry-judgement-task,144,751905,0.0-46.0-5.0-0.0-1.0-0.0,,,,,,,,,,1.0,1.0,,,,5918a8230afea70001a58b53,11:53:58,03/04/2024
,"<div style=""font-size: 10rem; color: #0000FF"">S</div>",,ospan,letter,lcI74iVNIDgRFXyiEKla5wo7Bjo2,html-keyboard-response,145,752912,0.0-46.0-5.0-0.0-1.0-1.0,,,,,,,,,,,,,,,5918a8230afea70001a58b53,11:53:58,03/04/2024
1324.0,,,ospan,symmetry,lcI74iVNIDgRFXyiEKla5wo7Bjo2,symmetry-judgement-task,146,756144,0.0-46.0-5.0-0.0-1.0-2.0,,,,,,,,,,1.0,1.0,,,,5918a8230afea70001a58b53,11:53:58,03/04/2024
,"<div style=""font-size: 10rem; color: #0000FF"">P</div>",,ospan,letter,lcI74iVNIDgRFXyiEKla5wo7Bjo2,html-keyboard-response,147,757148,0.0-46.0-5.0-0.0-1.0-3.0,,,,,,,,,,,,,,,5918a8230afea70001a58b53,11:53:58,03/04/2024
2647.0,,,ospan,symmetry,lcI74iVNIDgRFXyiEKla5wo7Bjo2,symmetry-judgement-task,148,761711,0.0-46.0-5.0-0.0-1.0-4.0,,,,,,,,,,1.0,1.0,,,,5918a8230afea70001a58b53,11:53:58,03/04/2024
,"<div style=""font-size: 10rem; color: #0000FF"">R</div>",,ospan,letter,lcI74iVNIDgRFXyiEKla5wo7Bjo2,html-keyboard-response,149,762717,0.0-46.0-5.0-0.0-1.0-5.0,,,,,,,,,,,,,,,5918a8230afea70001a58b53,11:53:58,03/04/2024
1094.0,,,ospan,symmetry,lcI74iVNIDgRFXyiEKla5wo7Bjo2,symmetry-judgement-task,150,765726,0.0-46.0-5.0-0.0-1.0-6.0,,,,,,,,,,1.0,1.0,,,,5918a8230afea70001a58b53,11:53:58,03/04/2024
,"<div style=""font-size: 10rem; color: #0000FF"">N</div>",,ospan,letter,lcI74iVNIDgRFXyiEKla5wo7Bjo2,html-keyboard-response,151,766732,0.0-46.0-5.0-0.0-1.0-7.0,,,,,,,,,,,,,,,5918a8230afea70001a58b53,11:53:58,03/04/2024
1438.0,,,ospan,symmetry,lcI74iVNIDgRFXyiEKla5wo7Bjo2,symmetry-judgement-task,152,770091,0.0-46.0-5.0-0.0-1.0-8.0,,,,,,,,,,1.0,1.0,,,,5918a8230afea70001a58b53,11:53:58,03/04/2024
,"<div style=""font-size: 10rem; color: #0000FF"">C</div>",,ospan,letter,lcI74iVNIDgRFXyiEKla5wo7Bjo2,html-keyboard-response,153,771098,0.0-46.0-5.0-0.0-1.0-9.0,,,,,,,,,,,,,,,5918a8230afea70001a58b53,11:53:58,03/04/2024
1606.0,,,ospan,symmetry,lcI74iVNIDgRFXyiEKla5wo7Bjo2,symmetry-judgement-task,154,774623,0.0-46.0-5.0-0.0-1.0-10.0,,,,,,,,,,1.0,1.0,,,,5918a8230afea70001a58b53,11:53:58,03/04/2024
,"<div style=""font-size: 10rem; color: #0000FF"">H</div>",,ospan,letter,lcI74iVNIDgRFXyiEKla5wo7Bjo2,html-keyboard-response,155,775628,0.0-46.0-5.0-0.0-1.0-11.0,,,,,,,,,,,,,,,5918a8230afea70001a58b53,11:53:58,03/04/2024
5806.5,"<div class = numbox><p style=""font-size: 2.4rem"">Please recall the letters you saw to the best of your ability. If you do not remember a particular letter, use the SKIP button.<br><b>(When you are ready to lock in your answer, press ENTER)</b></p><button id = button_1 class = ""square num-button"" onclick = ""recordClick(this)""><div class = content><div class = numbers>C</div></div></button><button id = button_2 class = ""square num-button"" onclick = ""recordClick(this)""><div class = content><div class = numbers>G</div></div></button><button id = button_3 class = ""square num-button"" onclick = ""recordClick(this)""><div class = content><div class = numbers>H</div></div></button><button id = button_4 class = ""square num-button"" onclick = ""recordClick(this)""><div class = content><div class = numbers>J</div></div></button><button id = button_5 class = ""square num-button"" onclick = ""recordClick(this)""><div class = content><div class = numbers>K</div></div></button><button id = button_6 class = ""square num-button"" onclick = ""recordClick(this)""><div class = content><div class = numbers>L</div></div></button><button id = button_7 class = ""square num-button"" onclick = ""recordClick(this)""><div class = content><div class = numbers>N</div></div></button><button id = button_8 class = ""square num-button"" onclick = ""recordClick(this)""><div class = content><div class = numbers>P</div></div></button><button id = button_9 class = ""square num-button"" onclick = ""recordClick(this)""><div class = content><div class = numbers>Q</div></div></button><button id = button_10 class = ""square num-button"" onclick = ""recordClick(this)""><div class = content><div class = numbers>R</div></div></button><button id = button_11 class = ""square num-button"" onclick = ""recordClick(this)""><div class = content><div class = numbers>S</div></div></button><button id = button_12 class = ""square num-button"" onclick = ""recordClick(this)""><div class = content><div class = numbers>Y</div></div></button><button class = clear_button id = ""ClearButton"" onclick = ""clearResponse()"">BACKSPACE</button><button class = blank_button id = ""BlankButton"" onclick = ""blankResponse()"">SKIP</button><p style=""font-size: 2.4rem""><u><b>Current Answer:</b></u></p><br><br><div id=echoed_txt style=""font-size: 5rem; color:blue;""><b></b></div></div>",enter,ospan,retrieval,lcI74iVNIDgRFXyiEKla5wo7Bjo2,html-keyboard-response,156,782191,0.0-46.0-5.0-0.0-2.0,21,19,16,6.0,"[""S"",""P"",""R"",""N"",""C"",""H""]","[""S"",""P"",""R"",""N"",""C"",""H""]",1.0,6.0,,,,,,,5918a8230afea70001a58b53,11:53:58,03/04/2024
824.5,[''],0,ospan,feedback,lcI74iVNIDgRFXyiEKla5wo7Bjo2,html-button-response,157,783519,0.0-46.0-5.0-0.0-3.0,,,,,,,,,,,,100.0,0.0,,5918a8230afea70001a58b53,11:53:58,03/04/2024
,"<p style=""font-size:75px;"">...</p>",,ospan,iti,lcI74iVNIDgRFXyiEKla5wo7Bjo2,html-keyboard-response,158,784522,0.0-46.0-5.0-1.0-0.0,,,,,,,,,,,,,,,5918a8230afea70001a58b53,11:53:58,03/04/2024
1678.0,,,ospan,symmetry,lcI74iVNIDgRFXyiEKla5wo7Bjo2,symmetry-judgement-task,159,787256,0.0-46.0-5.0-1.0-1.0-0.0,,,,,,,,,,1.0,1.0,,,,5918a8230afea70001a58b53,11:53:58,03/04/2024
,"<div style=""font-size: 10rem; color: #0000FF"">L</div>",,ospan,letter,lcI74iVNIDgRFXyiEKla5wo7Bjo2,html-keyboard-response,160,788263,0.0-46.0-5.0-1.0-1.0-1.0,,,,,,,,,,,,,,,5918a8230afea70001a58b53,11:53:58,03/04/2024
1166.0,,,ospan,symmetry,lcI74iVNIDgRFXyiEKla5wo7Bjo2,symmetry-judgement-task,161,791348,0.0-46.0-5.0-1.0-1.0-2.0,,,,,,,,,,1.0,1.0,,,,5918a8230afea70001a58b53,11:53:58,03/04/2024
,"<div style=""font-size: 10rem; color: #0000FF"">S</div>",,ospan,letter,lcI74iVNIDgRFXyiEKla5wo7Bjo2,html-keyboard-response,162,792353,0.0-46.0-5.0-1.0-1.0-3.0,,,,,,,,,,,,,,,5918a8230afea70001a58b53,11:53:58,03/04/2024
1502.0,,,ospan,symmetry,lcI74iVNIDgRFXyiEKla5wo7Bjo2,symmetry-judgement-task,163,795782,0.0-46.0-5.0-1.0-1.0-4.0,,,,,,,,,,1.0,1.0,,,,5918a8230afea70001a58b53,11:53:58,03/04/2024
,"<div style=""font-size: 10rem; color: #0000FF"">Q</div>",,ospan,letter,lcI74iVNIDgRFXyiEKla5wo7Bjo2,html-keyboard-response,164,796785,0.0-46.0-5.0-1.0-1.0-5.0,,,,,,,,,,,,,,,5918a8230afea70001a58b53,11:53:58,03/04/2024
883.0,,,ospan,symmetry,lcI74iVNIDgRFXyiEKla5wo7Bjo2,symmetry-judgement-task,165,799575,0.0-46.0-5.0-1.0-1.0-6.0,,,,,,,,,,1.0,1.0,,,,5918a8230afea70001a58b53,11:53:58,03/04/2024
,"<div style=""font-size: 10rem; color: #0000FF"">P</div>",,ospan,letter,lcI74iVNIDgRFXyiEKla5wo7Bjo2,html-keyboard-response,166,800581,0.0-46.0-5.0-1.0-1.0-7.0,,,,,,,,,,,,,,,5918a8230afea70001a58b53,11:53:58,03/04/2024
1623.0,,,ospan,symmetry,lcI74iVNIDgRFXyiEKla5wo7Bjo2,symmetry-judgement-task,167,804144,0.0-46.0-5.0-1.0-1.0-8.0,,,,,,,,,,1.0,1.0,,,,5918a8230afea70001a58b53,11:53:58,03/04/2024
,"<div style=""font-size: 10rem; color: #0000FF"">K</div>",,ospan,letter,lcI74iVNIDgRFXyiEKla5wo7Bjo2,html-keyboard-response,168,805151,0.0-46.0-5.0-1.0-1.0-9.0,,,,,,,,,,,,,,,5918a8230afea70001a58b53,11:53:58,03/04/2024
1881.0,,,ospan,symmetry,lcI74iVNIDgRFXyiEKla5wo7Bjo2,symmetry-judgement-task,169,808942,0.0-46.0-5.0-1.0-1.0-10.0,,,,,,,,,,1.0,1.0,,,,5918a8230afea70001a58b53,11:53:58,03/04/2024
,"<div style=""font-size: 10rem; color: #0000FF"">R</div>",,ospan,letter,lcI74iVNIDgRFXyiEKla5wo7Bjo2,html-keyboard-response,170,809949,0.0-46.0-5.0-1.0-1.0-11.0,,,,,,,,,,,,,,,5918a8230afea70001a58b53,11:53:58,03/04/2024
2156.0,,,ospan,symmetry,lcI74iVNIDgRFXyiEKla5wo7Bjo2,symmetry-judgement-task,171,814028,0.0-46.0-5.0-1.0-1.0-12.0,,,,,,,,,,1.0,1.0,,,,5918a8230afea70001a58b53,11:53:58,03/04/2024
,"<div style=""font-size: 10rem; color: #0000FF"">C</div>",,ospan,letter,lcI74iVNIDgRFXyiEKla5wo7Bjo2,html-keyboard-response,172,815034,0.0-46.0-5.0-1.0-1.0-13.0,,,,,,,,,,,,,,,5918a8230afea70001a58b53,11:53:58,03/04/2024
9724.199999988079,"<div class = numbox><p style=""font-size: 2.4rem"">Please recall the letters you saw to the best of your ability. If you do not remember a particular letter, use the SKIP button.<br><b>(When you are ready to lock in your answer, press ENTER)</b></p><button id = button_1 class = ""square num-button"" onclick = ""recordClick(this)""><div class = content><div class = numbers>C</div></div></button><button id = button_2 class = ""square num-button"" onclick = ""recordClick(this)""><div class = content><div class = numbers>G</div></div></button><button id = button_3 class = ""square num-button"" onclick = ""recordClick(this)""><div class = content><div class = numbers>H</div></div></button><button id = button_4 class = ""square num-button"" onclick = ""recordClick(this)""><div class = content><div class = numbers>J</div></div></button><button id = button_5 class = ""square num-button"" onclick = ""recordClick(this)""><div class = content><div class = numbers>K</div></div></button><button id = button_6 class = ""square num-button"" onclick = ""recordClick(this)""><div class = content><div class = numbers>L</div></div></button><button id = button_7 class = ""square num-button"" onclick = ""recordClick(this)""><div class = content><div class = numbers>N</div></div></button><button id = button_8 class = ""square num-button"" onclick = ""recordClick(this)""><div class = content><div class = numbers>P</div></div></button><button id = button_9 class = ""square num-button"" onclick = ""recordClick(this)""><div class = content><div class = numbers>Q</div></div></button><button id = button_10 class = ""square num-button"" onclick = ""recordClick(this)""><div class = content><div class = numbers>R</div></div></button><button id = button_11 class = ""square num-button"" onclick = ""recordClick(this)""><div class = content><div class = numbers>S</div></div></button><button id = button_12 class = ""square num-button"" onclick = ""recordClick(this)""><div class = content><div class = numbers>Y</div></div></button><button class = clear_button id = ""ClearButton"" onclick = ""clearResponse()"">BACKSPACE</button><button class = blank_button id = ""BlankButton"" onclick = ""blankResponse()"">SKIP</button><p style=""font-size: 2.4rem""><u><b>Current Answer:</b></u></p><br><br><div id=echoed_txt style=""font-size: 5rem; color:blue;""><b></b></div></div>",enter,ospan,retrieval,lcI74iVNIDgRFXyiEKla5wo7Bjo2,html-keyboard-response,173,825516,0.0-46.0-5.0-1.0-2.0,28,21,16,7.0,"[""L"",""S"",""P"",""Q"",""R"",""C""]","[""L"",""S"",""Q"",""P"",""K"",""R"",""C""]",0.0,2.0,,,,,,,5918a8230afea70001a58b53,11:53:58,03/04/2024
668.6000000238419,[''],0,ospan,feedback,lcI74iVNIDgRFXyiEKla5wo7Bjo2,html-button-response,174,826688,0.0-46.0-5.0-1.0-3.0,,,,,,,,,,,,100.0,0.0,,5918a8230afea70001a58b53,11:53:58,03/04/2024
,"<p style=""font-size:75px;"">...</p>",,ospan,iti,lcI74iVNIDgRFXyiEKla5wo7Bjo2,html-keyboard-response,175,827696,0.0-46.0-6.0-0.0-0.0,,,,,,,,,,,,,,,5918a8230afea70001a58b53,11:53:58,03/04/2024
1744.0,,,ospan,symmetry,lcI74iVNIDgRFXyiEKla5wo7Bjo2,symmetry-judgement-task,176,830609,0.0-46.0-6.0-0.0-1.0-0.0,,,,,,,,,,1.0,1.0,,,,5918a8230afea70001a58b53,11:53:58,03/04/2024
,"<div style=""font-size: 10rem; color: #0000FF"">N</div>",,ospan,letter,lcI74iVNIDgRFXyiEKla5wo7Bjo2,html-keyboard-response,177,831615,0.0-46.0-6.0-0.0-1.0-1.0,,,,,,,,,,,,,,,5918a8230afea70001a58b53,11:53:58,03/04/2024
1050.0,,,ospan,symmetry,lcI74iVNIDgRFXyiEKla5wo7Bjo2,symmetry-judgement-task,178,834575,0.0-46.0-6.0-0.0-1.0-2.0,,,,,,,,,,1.0,1.0,,,,5918a8230afea70001a58b53,11:53:58,03/04/2024
,"<div style=""font-size: 10rem; color: #0000FF"">S</div>",,ospan,letter,lcI74iVNIDgRFXyiEKla5wo7Bjo2,html-keyboard-response,179,835581,0.0-46.0-6.0-0.0-1.0-3.0,,,,,,,,,,,,,,,5918a8230afea70001a58b53,11:53:58,03/04/2024
1129.0,,,ospan,symmetry,lcI74iVNIDgRFXyiEKla5wo7Bjo2,symmetry-judgement-task,180,838626,0.0-46.0-6.0-0.0-1.0-4.0,,,,,,,,,,1.0,1.0,,,,5918a8230afea70001a58b53,11:53:58,03/04/2024
,"<div style=""font-size: 10rem; color: #0000FF"">K</div>",,ospan,letter,lcI74iVNIDgRFXyiEKla5wo7Bjo2,html-keyboard-response,181,839633,0.0-46.0-6.0-0.0-1.0-5.0,,,,,,,,,,,,,,,5918a8230afea70001a58b53,11:53:58,03/04/2024
2664.0,,,ospan,symmetry,lcI74iVNIDgRFXyiEKla5wo7Bjo2,symmetry-judgement-task,182,844218,0.0-46.0-6.0-0.0-1.0-6.0,,,,,,,,,,1.0,1.0,,,,5918a8230afea70001a58b53,11:53:58,03/04/2024
,"<div style=""font-size: 10rem; color: #0000FF"">H</div>",,ospan,letter,lcI74iVNIDgRFXyiEKla5wo7Bjo2,html-keyboard-response,183,845225,0.0-46.0-6.0-0.0-1.0-7.0,,,,,,,,,,,,,,,5918a8230afea70001a58b53,11:53:58,03/04/2024
1825.0,,,ospan,symmetry,lcI74iVNIDgRFXyiEKla5wo7Bjo2,symmetry-judgement-task,184,848979,0.0-46.0-6.0-0.0-1.0-8.0,,,,,,,,,,1.0,1.0,,,,5918a8230afea70001a58b53,11:53:58,03/04/2024
,"<div style=""font-size: 10rem; color: #0000FF"">P</div>",,ospan,letter,lcI74iVNIDgRFXyiEKla5wo7Bjo2,html-keyboard-response,185,849985,0.0-46.0-6.0-0.0-1.0-9.0,,,,,,,,,,,,,,,5918a8230afea70001a58b53,11:53:58,03/04/2024
6569.199999988079,"<div class = numbox><p style=""font-size: 2.4rem"">Please recall the letters you saw to the best of your ability. If you do not remember a particular letter, use the SKIP button.<br><b>(When you are ready to lock in your answer, press ENTER)</b></p><button id = button_1 class = ""square num-button"" onclick = ""recordClick(this)""><div class = content><div class = numbers>C</div></div></button><button id = button_2 class = ""square num-button"" onclick = ""recordClick(this)""><div class = content><div class = numbers>G</div></div></button><button id = button_3 class = ""square num-button"" onclick = ""recordClick(this)""><div class = content><div class = numbers>H</div></div></button><button id = button_4 class = ""square num-button"" onclick = ""recordClick(this)""><div class = content><div class = numbers>J</div></div></button><button id = button_5 class = ""square num-button"" onclick = ""recordClick(this)""><div class = content><div class = numbers>K</div></div></button><button id = button_6 class = ""square num-button"" onclick = ""recordClick(this)""><div class = content><div class = numbers>L</div></div></button><button id = button_7 class = ""square num-button"" onclick = ""recordClick(this)""><div class = content><div class = numbers>N</div></div></button><button id = button_8 class = ""square num-button"" onclick = ""recordClick(this)""><div class = content><div class = numbers>P</div></div></button><button id = button_9 class = ""square num-button"" onclick = ""recordClick(this)""><div class = content><div class = numbers>Q</div></div></button><button id = button_10 class = ""square num-button"" onclick = ""recordClick(this)""><div class = content><div class = numbers>R</div></div></button><button id = button_11 class = ""square num-button"" onclick = ""recordClick(this)""><div class = content><div class = numbers>S</div></div></button><button id = button_12 class = ""square num-button"" onclick = ""recordClick(this)""><div class = content><div class = numbers>Y</div></div></button><button class = clear_button id = ""ClearButton"" onclick = ""clearResponse()"">BACKSPACE</button><button class = blank_button id = ""BlankButton"" onclick = ""blankResponse()"">SKIP</button><p style=""font-size: 2.4rem""><u><b>Current Answer:</b></u></p><br><br><div id=echoed_txt style=""font-size: 5rem; color:blue;""><b></b></div></div>",enter,ospan,retrieval,lcI74iVNIDgRFXyiEKla5wo7Bjo2,html-keyboard-response,186,857311,0.0-46.0-6.0-0.0-2.0,33,26,21,5.0,"[""N"",""S"",""K"",""H"",""P""]","[""N"",""S"",""K"",""H"",""P""]",1.0,5.0,,,,,,,5918a8230afea70001a58b53,11:53:58,03/04/2024
617.5999999940395,[''],0,ospan,feedback,lcI74iVNIDgRFXyiEKla5wo7Bjo2,html-button-response,187,858432,0.0-46.0-6.0-0.0-3.0,,,,,,,,,,,,100.0,0.0,,5918a8230afea70001a58b53,11:53:58,03/04/2024
,"<p style=""font-size:75px;"">...</p>",,ospan,iti,lcI74iVNIDgRFXyiEKla5wo7Bjo2,html-keyboard-response,188,859438,0.0-46.0-6.0-1.0-0.0,,,,,,,,,,,,,,,5918a8230afea70001a58b53,11:53:58,03/04/2024
2216.0,,,ospan,symmetry,lcI74iVNIDgRFXyiEKla5wo7Bjo2,symmetry-judgement-task,189,862816,0.0-46.0-6.0-1.0-1.0-0.0,,,,,,,,,,1.0,1.0,,,,5918a8230afea70001a58b53,11:53:58,03/04/2024
,"<div style=""font-size: 10rem; color: #0000FF"">N</div>",,ospan,letter,lcI74iVNIDgRFXyiEKla5wo7Bjo2,html-keyboard-response,190,863822,0.0-46.0-6.0-1.0-1.0-1.0,,,,,,,,,,,,,,,5918a8230afea70001a58b53,11:53:58,03/04/2024
1144.0,,,ospan,symmetry,lcI74iVNIDgRFXyiEKla5wo7Bjo2,symmetry-judgement-task,191,866878,0.0-46.0-6.0-1.0-1.0-2.0,,,,,,,,,,1.0,1.0,,,,5918a8230afea70001a58b53,11:53:58,03/04/2024
,"<div style=""font-size: 10rem; color: #0000FF"">L</div>",,ospan,letter,lcI74iVNIDgRFXyiEKla5wo7Bjo2,html-keyboard-response,192,867883,0.0-46.0-6.0-1.0-1.0-3.0,,,,,,,,,,,,,,,5918a8230afea70001a58b53,11:53:58,03/04/2024
1190.0,,,ospan,symmetry,lcI74iVNIDgRFXyiEKla5wo7Bjo2,symmetry-judgement-task,193,871003,0.0-46.0-6.0-1.0-1.0-4.0,,,,,,,,,,1.0,1.0,,,,5918a8230afea70001a58b53,11:53:58,03/04/2024
,"<div style=""font-size: 10rem; color: #0000FF"">C</div>",,ospan,letter,lcI74iVNIDgRFXyiEKla5wo7Bjo2,html-keyboard-response,194,872007,0.0-46.0-6.0-1.0-1.0-5.0,,,,,,,,,,,,,,,5918a8230afea70001a58b53,11:53:58,03/04/2024
1839.0,,,ospan,symmetry,lcI74iVNIDgRFXyiEKla5wo7Bjo2,symmetry-judgement-task,195,875770,0.0-46.0-6.0-1.0-1.0-6.0,,,,,,,,,,1.0,1.0,,,,5918a8230afea70001a58b53,11:53:58,03/04/2024
,"<div style=""font-size: 10rem; color: #0000FF"">P</div>",,ospan,letter,lcI74iVNIDgRFXyiEKla5wo7Bjo2,html-keyboard-response,196,876776,0.0-46.0-6.0-1.0-1.0-7.0,,,,,,,,,,,,,,,5918a8230afea70001a58b53,11:53:58,03/04/2024
1178.0,,,ospan,symmetry,lcI74iVNIDgRFXyiEKla5wo7Bjo2,symmetry-judgement-task,197,879882,0.0-46.0-6.0-1.0-1.0-8.0,,,,,,,,,,1.0,1.0,,,,5918a8230afea70001a58b53,11:53:58,03/04/2024
,"<div style=""font-size: 10rem; color: #0000FF"">R</div>",,ospan,letter,lcI74iVNIDgRFXyiEKla5wo7Bjo2,html-keyboard-response,198,880888,0.0-46.0-6.0-1.0-1.0-9.0,,,,,,,,,,,,,,,5918a8230afea70001a58b53,11:53:58,03/04/2024
1295.0,,,ospan,symmetry,lcI74iVNIDgRFXyiEKla5wo7Bjo2,symmetry-judgement-task,199,884095,0.0-46.0-6.0-1.0-1.0-10.0,,,,,,,,,,1.0,1.0,,,,5918a8230afea70001a58b53,11:53:58,03/04/2024
,"<div style=""font-size: 10rem; color: #0000FF"">Q</div>",,ospan,letter,lcI74iVNIDgRFXyiEKla5wo7Bjo2,html-keyboard-response,200,885099,0.0-46.0-6.0-1.0-1.0-11.0,,,,,,,,,,,,,,,5918a8230afea70001a58b53,11:53:58,03/04/2024
2068.0,,,ospan,symmetry,lcI74iVNIDgRFXyiEKla5wo7Bjo2,symmetry-judgement-task,201,889090,0.0-46.0-6.0-1.0-1.0-12.0,,,,,,,,,,1.0,1.0,,,,5918a8230afea70001a58b53,11:53:58,03/04/2024
,"<div style=""font-size: 10rem; color: #0000FF"">J</div>",,ospan,letter,lcI74iVNIDgRFXyiEKla5wo7Bjo2,html-keyboard-response,202,890094,0.0-46.0-6.0-1.0-1.0-13.0,,,,,,,,,,,,,,,5918a8230afea70001a58b53,11:53:58,03/04/2024
1801.0,,,ospan,symmetry,lcI74iVNIDgRFXyiEKla5wo7Bjo2,symmetry-judgement-task,203,893813,0.0-46.0-6.0-1.0-1.0-14.0,,,,,,,,,,1.0,1.0,,,,5918a8230afea70001a58b53,11:53:58,03/04/2024
,"<div style=""font-size: 10rem; color: #0000FF"">Y</div>",,ospan,letter,lcI74iVNIDgRFXyiEKla5wo7Bjo2,html-keyboard-response,204,894819,0.0-46.0-6.0-1.0-1.0-15.0,,,,,,,,,,,,,,,5918a8230afea70001a58b53,11:53:58,03/04/2024
6324.5,"<div class = numbox><p style=""font-size: 2.4rem"">Please recall the letters you saw to the best of your ability. If you do not remember a particular letter, use the SKIP button.<br><b>(When you are ready to lock in your answer, press ENTER)</b></p><button id = button_1 class = ""square num-button"" onclick = ""recordClick(this)""><div class = content><div class = numbers>C</div></div></button><button id = button_2 class = ""square num-button"" onclick = ""recordClick(this)""><div class = content><div class = numbers>G</div></div></button><button id = button_3 class = ""square num-button"" onclick = ""recordClick(this)""><div class = content><div class = numbers>H</div></div></button><button id = button_4 class = ""square num-button"" onclick = ""recordClick(this)""><div class = content><div class = numbers>J</div></div></button><button id = button_5 class = ""square num-button"" onclick = ""recordClick(this)""><div class = content><div class = numbers>K</div></div></button><button id = button_6 class = ""square num-button"" onclick = ""recordClick(this)""><div class = content><div class = numbers>L</div></div></button><button id = button_7 class = ""square num-button"" onclick = ""recordClick(this)""><div class = content><div class = numbers>N</div></div></button><button id = button_8 class = ""square num-button"" onclick = ""recordClick(this)""><div class = content><div class = numbers>P</div></div></button><button id = button_9 class = ""square num-button"" onclick = ""recordClick(this)""><div class = content><div class = numbers>Q</div></div></button><button id = button_10 class = ""square num-button"" onclick = ""recordClick(this)""><div class = content><div class = numbers>R</div></div></button><button id = button_11 class = ""square num-button"" onclick = ""recordClick(this)""><div class = content><div class = numbers>S</div></div></button><button id = button_12 class = ""square num-button"" onclick = ""recordClick(this)""><div class = content><div class = numbers>Y</div></div></button><button class = clear_button id = ""ClearButton"" onclick = ""clearResponse()"">BACKSPACE</button><button class = blank_button id = ""BlankButton"" onclick = ""blankResponse()"">SKIP</button><p style=""font-size: 2.4rem""><u><b>Current Answer:</b></u></p><br><br><div id=echoed_txt style=""font-size: 5rem; color:blue;""><b></b></div></div>",enter,ospan,retrieval,lcI74iVNIDgRFXyiEKla5wo7Bjo2,html-keyboard-response,205,901896,0.0-46.0-6.0-1.0-2.0,41,31,21,8.0,"[""N"",""L"",""C"",""P"",""Q"",""R"",""J""]","[""N"",""L"",""C"",""P"",""R"",""Q"",""J"",""Y""]",0.0,5.0,,,,,,,5918a8230afea70001a58b53,11:53:58,03/04/2024
1439.699999988079,[''],0,ospan,feedback,lcI74iVNIDgRFXyiEKla5wo7Bjo2,html-button-response,206,903842,0.0-46.0-6.0-1.0-3.0,,,,,,,,,,,,100.0,0.0,,5918a8230afea70001a58b53,11:53:58,03/04/2024
8970.5,,{'Q0': 'was difficult with more grids'},ospan,survey_ospan,lcI74iVNIDgRFXyiEKla5wo7Bjo2,lmdlab-survey-text,207,913570,0.0-46.0-7.0,,,,,,,,,,,,,,lcI74iVNIDgRFXyiEKla5wo7Bjo2,5918a8230afea70001a58b53,11:53:58,03/04/2024
1065.9000000059605,<p><p style='font-size: 3rem'>Great work!<br><br>This completes the symmetry and memory task.</p><br><br><br>,0,ospan,finish,lcI74iVNIDgRFXyiEKla5wo7Bjo2,html-button-response,208,914640,0.0-46.0-8.0,41,31,21,,,,,,,,,100.0,,,5918a8230afea70001a58b53,11:53:58,03/04/2024
