rt,stimulus,response,exp_name,exp_stage,subjectID,trial_type,trial_index,time_elapsed,internal_node_id,ospan_shown,ospan_total,ospan_abs,length,resp_actual,resp_correct,full_correct,num_correct,feedback,accuracy,correct,math_acc,math_warning,databaseID,prolificID,start_time,date
3116.9000000059605,<div class = 'left_align' style='font-size: 3.25rem; line-height: 1.3;'><p class = 'center_align'><b>Welcome to the Symmetry and Memory Task</b><br><br><br><br></p>Press 'continue' to show the instructions.<br><br><br><br></div>,0,ospan,instruct,MxOH3OE0u3hrUU7zrHp1lCZkrmr1,html-button-response,54,872362,0.0-46.0-0.0-0.0-0.0,,,,,,,,,,,,,,,60c341ec2ed9da27095ffab4,10:01:46,03/04/2024
6058.4000000059605,"<div class = 'left_align' style='font-size: 3.25rem; line-height: 1.3;'><p class = 'center_align'><b>Symmetry and Memory Task</b><br><br></p>In this task, you will try to memorize letters you see on the screen<br>while you also view black and white grid pictures.<br><br>In the next few minutes, you will have some practice to get you familiar<br>with how the task works.<br><br>It may be difficult sometimes, but please do not worry about making mistakes!<br><br>We will begin by practicing the letter part of the task.<br><br><br><br></div>",0,ospan,instruct,MxOH3OE0u3hrUU7zrHp1lCZkrmr1,html-button-response,55,878678,0.0-46.0-0.0-0.0-1.0,,,,,,,,,,,,,,,60c341ec2ed9da27095ffab4,10:01:46,03/04/2024
719.7999999970198,"<div class = 'left_align' style='font-size: 3.25rem; line-height: 1.3;'>For this practice part, letters will appear on the screen one at a time.<br><br>Try to remember each letter in the order presented.<br><br>After some letters have been shown, you will see a response screen. Your<br>goal is to report the letters you saw <b>in order</b>. If you do not remember<br>a particular letter, you will have the option to leave it blank.<br><br><br><br></div>",0,ospan,instruct,MxOH3OE0u3hrUU7zrHp1lCZkrmr1,html-button-response,56,879652,0.0-46.0-0.0-0.0-2.0,,,,,,,,,,,,,,,60c341ec2ed9da27095ffab4,10:01:46,03/04/2024
787.6000000089407,"<div class = 'left_align' style='font-size: 3.25rem; line-height: 1.3;'>Remember, it is very important to get the letters in the same<br>order as you see them.<br><br>When you are ready, you may begin the letter practice.</div><br><br><br><br>",0,ospan,instruct,MxOH3OE0u3hrUU7zrHp1lCZkrmr1,html-button-response,57,880708,0.0-46.0-0.0-0.0-3.0,,,,,,,,,,,,,,,60c341ec2ed9da27095ffab4,10:01:46,03/04/2024
,"<p style=""font-size:75px;"">...</p>",,ospan,iti,MxOH3OE0u3hrUU7zrHp1lCZkrmr1,html-keyboard-response,58,881988,0.0-46.0-0.0-1.0-0.0,,,,,,,,,,,,,,,60c341ec2ed9da27095ffab4,10:01:46,03/04/2024
,"<div style=""font-size: 10rem; color: #0000FF"">Y</div>",,ospan,letter,MxOH3OE0u3hrUU7zrHp1lCZkrmr1,html-keyboard-response,59,883001,0.0-46.0-0.0-1.0-1.0,,,,,,,,,,,,,,,60c341ec2ed9da27095ffab4,10:01:46,03/04/2024
,"<div style=""font-size: 10rem; color: #0000FF"">C</div>",,ospan,letter,MxOH3OE0u3hrUU7zrHp1lCZkrmr1,html-keyboard-response,60,884772,0.0-46.0-0.0-1.0-2.0,,,,,,,,,,,,,,,60c341ec2ed9da27095ffab4,10:01:46,03/04/2024
10692.09999999404,"<div class = numbox><p style=""font-size: 2.4rem"">Please recall the letters you saw to the best of your ability. If you do not remember a particular letter, use the SKIP button.<br><b>(When you are ready to lock in your answer, press ENTER)</b></p><button id = button_1 class = ""square num-button"" onclick = ""recordClick(this)""><div class = content><div class = numbers>C</div></div></button><button id = button_2 class = ""square num-button"" onclick = ""recordClick(this)""><div class = content><div class = numbers>G</div></div></button><button id = button_3 class = ""square num-button"" onclick = ""recordClick(this)""><div class = content><div class = numbers>H</div></div></button><button id = button_4 class = ""square num-button"" onclick = ""recordClick(this)""><div class = content><div class = numbers>J</div></div></button><button id = button_5 class = ""square num-button"" onclick = ""recordClick(this)""><div class = content><div class = numbers>K</div></div></button><button id = button_6 class = ""square num-button"" onclick = ""recordClick(this)""><div class = content><div class = numbers>L</div></div></button><button id = button_7 class = ""square num-button"" onclick = ""recordClick(this)""><div class = content><div class = numbers>N</div></div></button><button id = button_8 class = ""square num-button"" onclick = ""recordClick(this)""><div class = content><div class = numbers>P</div></div></button><button id = button_9 class = ""square num-button"" onclick = ""recordClick(this)""><div class = content><div class = numbers>Q</div></div></button><button id = button_10 class = ""square num-button"" onclick = ""recordClick(this)""><div class = content><div class = numbers>R</div></div></button><button id = button_11 class = ""square num-button"" onclick = ""recordClick(this)""><div class = content><div class = numbers>S</div></div></button><button id = button_12 class = ""square num-button"" onclick = ""recordClick(this)""><div class = content><div class = numbers>Y</div></div></button><button class = clear_button id = ""ClearButton"" onclick = ""clearResponse()"">BACKSPACE</button><button class = blank_button id = ""BlankButton"" onclick = ""blankResponse()"">SKIP</button><p style=""font-size: 2.4rem""><u><b>Current Answer:</b></u></p><br><br><div id=echoed_txt style=""font-size: 5rem; color:blue;""><b></b></div></div>",enter,ospan,retrieval,MxOH3OE0u3hrUU7zrHp1lCZkrmr1,html-keyboard-response,61,896234,0.0-46.0-0.0-1.0-3.0,NA,NA,NA,2.0,"[""Y"",""C""]","[""Y"",""C""]",1.0,2.0,"['<font color=""green"">Y</font>', '<font color=""green"">C</font>']",,,,,,60c341ec2ed9da27095ffab4,10:01:46,03/04/2024
1788.1000000089407,"['<p style=""font-size:44px"">Letters:<br><br><br><font color=""green"">Y</font> <font color=""green"">C</font></p><br><br>']",0,ospan,practice_feedback,MxOH3OE0u3hrUU7zrHp1lCZkrmr1,html-button-response,62,898546,0.0-46.0-0.0-1.0-4.0,,,,,,,,,,,,,,,60c341ec2ed9da27095ffab4,10:01:46,03/04/2024
,"<p style=""font-size:75px;"">...</p>",,ospan,iti,MxOH3OE0u3hrUU7zrHp1lCZkrmr1,html-keyboard-response,63,899563,0.0-46.0-0.0-2.0-0.0,,,,,,,,,,,,,,,60c341ec2ed9da27095ffab4,10:01:46,03/04/2024
,"<div style=""font-size: 10rem; color: #0000FF"">L</div>",,ospan,letter,MxOH3OE0u3hrUU7zrHp1lCZkrmr1,html-keyboard-response,64,900580,0.0-46.0-0.0-2.0-1.0,,,,,,,,,,,,,,,60c341ec2ed9da27095ffab4,10:01:46,03/04/2024
,"<div style=""font-size: 10rem; color: #0000FF"">Q</div>",,ospan,letter,MxOH3OE0u3hrUU7zrHp1lCZkrmr1,html-keyboard-response,65,902347,0.0-46.0-0.0-2.0-2.0,,,,,,,,,,,,,,,60c341ec2ed9da27095ffab4,10:01:46,03/04/2024
,"<div style=""font-size: 10rem; color: #0000FF"">N</div>",,ospan,letter,MxOH3OE0u3hrUU7zrHp1lCZkrmr1,html-keyboard-response,66,904120,0.0-46.0-0.0-2.0-3.0,,,,,,,,,,,,,,,60c341ec2ed9da27095ffab4,10:01:46,03/04/2024
5492.899999991059,"<div class = numbox><p style=""font-size: 2.4rem"">Please recall the letters you saw to the best of your ability. If you do not remember a particular letter, use the SKIP button.<br><b>(When you are ready to lock in your answer, press ENTER)</b></p><button id = button_1 class = ""square num-button"" onclick = ""recordClick(this)""><div class = content><div class = numbers>C</div></div></button><button id = button_2 class = ""square num-button"" onclick = ""recordClick(this)""><div class = content><div class = numbers>G</div></div></button><button id = button_3 class = ""square num-button"" onclick = ""recordClick(this)""><div class = content><div class = numbers>H</div></div></button><button id = button_4 class = ""square num-button"" onclick = ""recordClick(this)""><div class = content><div class = numbers>J</div></div></button><button id = button_5 class = ""square num-button"" onclick = ""recordClick(this)""><div class = content><div class = numbers>K</div></div></button><button id = button_6 class = ""square num-button"" onclick = ""recordClick(this)""><div class = content><div class = numbers>L</div></div></button><button id = button_7 class = ""square num-button"" onclick = ""recordClick(this)""><div class = content><div class = numbers>N</div></div></button><button id = button_8 class = ""square num-button"" onclick = ""recordClick(this)""><div class = content><div class = numbers>P</div></div></button><button id = button_9 class = ""square num-button"" onclick = ""recordClick(this)""><div class = content><div class = numbers>Q</div></div></button><button id = button_10 class = ""square num-button"" onclick = ""recordClick(this)""><div class = content><div class = numbers>R</div></div></button><button id = button_11 class = ""square num-button"" onclick = ""recordClick(this)""><div class = content><div class = numbers>S</div></div></button><button id = button_12 class = ""square num-button"" onclick = ""recordClick(this)""><div class = content><div class = numbers>Y</div></div></button><button class = clear_button id = ""ClearButton"" onclick = ""clearResponse()"">BACKSPACE</button><button class = blank_button id = ""BlankButton"" onclick = ""blankResponse()"">SKIP</button><p style=""font-size: 2.4rem""><u><b>Current Answer:</b></u></p><br><br><div id=echoed_txt style=""font-size: 5rem; color:blue;""><b></b></div></div>",enter,ospan,retrieval,MxOH3OE0u3hrUU7zrHp1lCZkrmr1,html-keyboard-response,67,910378,0.0-46.0-0.0-2.0-4.0,NA,NA,NA,3.0,"[""L"",""Q"",""N""]","[""L"",""Q"",""N""]",1.0,3.0,"['<font color=""green"">L</font>', '<font color=""green"">Q</font>', '<font color=""green"">N</font>']",,,,,,60c341ec2ed9da27095ffab4,10:01:46,03/04/2024
3159.5999999940395,"['<p style=""font-size:44px"">Letters:<br><br><br><font color=""green"">L</font> <font color=""green"">Q</font> <font color=""green"">N</font></p><br><br>']",0,ospan,practice_feedback,MxOH3OE0u3hrUU7zrHp1lCZkrmr1,html-button-response,68,914048,0.0-46.0-0.0-2.0-5.0,,,,,,,,,,,,,,,60c341ec2ed9da27095ffab4,10:01:46,03/04/2024
11614.40000000596,"<div class = 'left_align' style='font-size: 3.25rem; line-height: 1.3;'>Now you will practice doing the <b>symmetry judgment part</b> of the experiment.<br><br>A black and white grid picture will appear on the screen and you have to judge if it is <br>symmetrical or asymetrical.<br><br>A picture is 'mirror' symmetrical if its left half is identical to the right half when flipped.<br>Here are examples of a symmetrical and an asymetrical picture:<br><br><center><img src='Stimuli/img/symm_instructions_extra.png' style='height:420px; width:900'></img></center><br>To judge symmetry, imagine you were to fold each picture down the middle, like a book –<br>would the left half match the right half when folded onto each other?<br><br></div><br>",0,ospan,instruct,MxOH3OE0u3hrUU7zrHp1lCZkrmr1,html-button-response,69,925664,0.0-46.0-1.0-0.0-0.0,,,,,,,,,,,,,,,60c341ec2ed9da27095ffab4,10:01:46,03/04/2024
2153.7000000029802,"<div class = 'left_align' style='font-size: 3.25rem; line-height: 1.3;'>When you have viewed the picture and determined whether it is symmetrical or not,<br>you can <b>click the Yes or No button</b> below to answer.<br><br>If you take longer than 15 seconds, it will continue automatically<br>and record the answer as an error.</div><br>",0,ospan,instruct,MxOH3OE0u3hrUU7zrHp1lCZkrmr1,html-button-response,70,928076,0.0-46.0-1.0-0.0-1.0,,,,,,,,,,,,,,,60c341ec2ed9da27095ffab4,10:01:46,03/04/2024
551.5999999940395,"<div class = 'left_align' style='font-size: 3.25rem; line-height: 1.3;'>It is <b>very</b> important that you make the symmetry judgment correctly.<br><br>It is also important that you try and judge the picture as quickly as you can.<br><br>When you are ready, click on the button below to try some practice problems.</div><br><br><br><br>",0,ospan,instruct,MxOH3OE0u3hrUU7zrHp1lCZkrmr1,html-button-response,71,928896,0.0-46.0-1.0-0.0-2.0,,,,,,,,,,,,,,,60c341ec2ed9da27095ffab4,10:01:46,03/04/2024
3898.0,,,ospan,symmetry,MxOH3OE0u3hrUU7zrHp1lCZkrmr1,symmetry-judgement-task,72,933626,0.0-46.0-1.0-1.0-0.0,,,,,,,,,,1.0,1.0,,,,60c341ec2ed9da27095ffab4,10:01:46,03/04/2024
,"<p style=""color:green; font-size: 35px"">Correct</p>",,ospan,feedback,MxOH3OE0u3hrUU7zrHp1lCZkrmr1,html-keyboard-response,73,934382,0.0-46.0-1.0-1.0-1.0,,,,,,,,,,,,,,,60c341ec2ed9da27095ffab4,10:01:46,03/04/2024
2930.0,,,ospan,symmetry,MxOH3OE0u3hrUU7zrHp1lCZkrmr1,symmetry-judgement-task,74,940075,0.0-46.0-1.0-1.0-2.0,,,,,,,,,,1.0,1.0,,,,60c341ec2ed9da27095ffab4,10:01:46,03/04/2024
,"<p style=""color:green; font-size: 35px"">Correct</p>",,ospan,feedback,MxOH3OE0u3hrUU7zrHp1lCZkrmr1,html-keyboard-response,75,940828,0.0-46.0-1.0-1.0-3.0,,,,,,,,,,,,,,,60c341ec2ed9da27095ffab4,10:01:46,03/04/2024
3183.0,,,ospan,symmetry,MxOH3OE0u3hrUU7zrHp1lCZkrmr1,symmetry-judgement-task,76,946834,0.0-46.0-1.0-1.0-4.0,,,,,,,,,,1.0,1.0,,,,60c341ec2ed9da27095ffab4,10:01:46,03/04/2024
,"<p style=""color:green; font-size: 35px"">Correct</p>",,ospan,feedback,MxOH3OE0u3hrUU7zrHp1lCZkrmr1,html-keyboard-response,77,947591,0.0-46.0-1.0-1.0-5.0,,,,,,,,,,,,,,,60c341ec2ed9da27095ffab4,10:01:46,03/04/2024
1824.6000000089407,"<p style=""font-size: 3rem;"">You responded correctly on 3 of 3 symmetry judgments. Good job!</p><br><br>",0,ospan,practice,MxOH3OE0u3hrUU7zrHp1lCZkrmr1,html-button-response,78,951426,0.0-46.0-1.0-2.0,,,,,,,,,,,,,,,60c341ec2ed9da27095ffab4,10:01:46,03/04/2024
979.5999999940395,"<div class = 'left_align' style='font-size: 3.25rem; line-height: 1.3;'>Now you will practice doing both parts of the experiment at the same time.<br><br>In the next practice set, you will be given one grid picture to judge.<br>Then letter will appear on the screen. Try to remember the letter.<br><br>It is <b>very important</b> to make the symmetry judgment as quickly and accurately as possible.<br><br>Just as before, once you have make the symmetry judgment, you can click Yes or No.<br><b>Note that you will no longer see Correct or Incorrect feedback.</div><br><br><br><br>",0,ospan,instruct,MxOH3OE0u3hrUU7zrHp1lCZkrmr1,html-button-response,79,952672,0.0-46.0-2.0-0.0-0.0,,,,,,,,,,,,,,,60c341ec2ed9da27095ffab4,10:01:46,03/04/2024
8068.29999999702,"<div class = 'left_align' style='font-size: 3.25rem; line-height: 1.3;'>After the letter goes away, another grid picture will appear, and then<br>another letter.<br><br>At the end of each set of letters and grids, you will recall the letters to the best<br>of your ability. Remember, try your best to get the letters in the correct order.<br><br>It is important to <b>quickly</b> and <b>accurately</b> make the symmetry judgments.</div><br><br><br><br>",0,ospan,instruct,MxOH3OE0u3hrUU7zrHp1lCZkrmr1,html-button-response,80,960999,0.0-46.0-2.0-0.0-1.0,,,,,,,,,,,,,,,60c341ec2ed9da27095ffab4,10:01:46,03/04/2024
2217.1000000089407,"<div class = 'left_align' style='font-size: 3.25rem; line-height: 1.3;'>On the feedback screen, if you are not doing well at the symmetry judgments,<br>you will also see a warning in the middle. This indicates your percent <br>correct for the grid pictures for the entire experiment.<br><br>It is <b>very</b> important for you to keep accuracy at least at 85%: <u>We can only use<br>data where the participant was at least 85% accurate on the judgments.</u> Therefore,<br> please try your best to perform well on the symmetry judgments, <b>at the same time</b><br>doing your best to recall as many letters as possible.<br><br>Click the button to try some practice problems.</div><br><br><br><br>",0,ospan,instruct,MxOH3OE0u3hrUU7zrHp1lCZkrmr1,html-button-response,81,963494,0.0-46.0-2.0-0.0-2.0,,,,,,,,,,,,,,,60c341ec2ed9da27095ffab4,10:01:46,03/04/2024
,"<p style=""font-size:75px;"">...</p>",,ospan,iti,MxOH3OE0u3hrUU7zrHp1lCZkrmr1,html-keyboard-response,82,964763,0.0-46.0-2.0-1.0-0.0,,,,,,,,,,,,,,,60c341ec2ed9da27095ffab4,10:01:46,03/04/2024
3730.0,,,ospan,symmetry,MxOH3OE0u3hrUU7zrHp1lCZkrmr1,symmetry-judgement-task,83,969780,0.0-46.0-2.0-1.0-1.0-0.0,,,,,,,,,,1.0,1.0,,,,60c341ec2ed9da27095ffab4,10:01:46,03/04/2024
,"<div style=""font-size: 10rem; color: #0000FF"">N</div>",,ospan,letter,MxOH3OE0u3hrUU7zrHp1lCZkrmr1,html-keyboard-response,84,970798,0.0-46.0-2.0-1.0-1.0-1.0,,,,,,,,,,,,,,,60c341ec2ed9da27095ffab4,10:01:46,03/04/2024
2100.0,,,ospan,symmetry,MxOH3OE0u3hrUU7zrHp1lCZkrmr1,symmetry-judgement-task,85,975020,0.0-46.0-2.0-1.0-1.0-2.0,,,,,,,,,,1.0,1.0,,,,60c341ec2ed9da27095ffab4,10:01:46,03/04/2024
,"<div style=""font-size: 10rem; color: #0000FF"">P</div>",,ospan,letter,MxOH3OE0u3hrUU7zrHp1lCZkrmr1,html-keyboard-response,86,976021,0.0-46.0-2.0-1.0-1.0-3.0,,,,,,,,,,,,,,,60c341ec2ed9da27095ffab4,10:01:46,03/04/2024
3772.0,,,ospan,symmetry,MxOH3OE0u3hrUU7zrHp1lCZkrmr1,symmetry-judgement-task,87,981830,0.0-46.0-2.0-1.0-1.0-4.0,,,,,,,,,,1.0,1.0,,,,60c341ec2ed9da27095ffab4,10:01:46,03/04/2024
,"<div style=""font-size: 10rem; color: #0000FF"">J</div>",,ospan,letter,MxOH3OE0u3hrUU7zrHp1lCZkrmr1,html-keyboard-response,88,982832,0.0-46.0-2.0-1.0-1.0-5.0,,,,,,,,,,,,,,,60c341ec2ed9da27095ffab4,10:01:46,03/04/2024
4704.70000000298,"<div class = numbox><p style=""font-size: 2.4rem"">Please recall the letters you saw to the best of your ability. If you do not remember a particular letter, use the SKIP button.<br><b>(When you are ready to lock in your answer, press ENTER)</b></p><button id = button_1 class = ""square num-button"" onclick = ""recordClick(this)""><div class = content><div class = numbers>C</div></div></button><button id = button_2 class = ""square num-button"" onclick = ""recordClick(this)""><div class = content><div class = numbers>G</div></div></button><button id = button_3 class = ""square num-button"" onclick = ""recordClick(this)""><div class = content><div class = numbers>H</div></div></button><button id = button_4 class = ""square num-button"" onclick = ""recordClick(this)""><div class = content><div class = numbers>J</div></div></button><button id = button_5 class = ""square num-button"" onclick = ""recordClick(this)""><div class = content><div class = numbers>K</div></div></button><button id = button_6 class = ""square num-button"" onclick = ""recordClick(this)""><div class = content><div class = numbers>L</div></div></button><button id = button_7 class = ""square num-button"" onclick = ""recordClick(this)""><div class = content><div class = numbers>N</div></div></button><button id = button_8 class = ""square num-button"" onclick = ""recordClick(this)""><div class = content><div class = numbers>P</div></div></button><button id = button_9 class = ""square num-button"" onclick = ""recordClick(this)""><div class = content><div class = numbers>Q</div></div></button><button id = button_10 class = ""square num-button"" onclick = ""recordClick(this)""><div class = content><div class = numbers>R</div></div></button><button id = button_11 class = ""square num-button"" onclick = ""recordClick(this)""><div class = content><div class = numbers>S</div></div></button><button id = button_12 class = ""square num-button"" onclick = ""recordClick(this)""><div class = content><div class = numbers>Y</div></div></button><button class = clear_button id = ""ClearButton"" onclick = ""clearResponse()"">BACKSPACE</button><button class = blank_button id = ""BlankButton"" onclick = ""blankResponse()"">SKIP</button><p style=""font-size: 2.4rem""><u><b>Current Answer:</b></u></p><br><br><div id=echoed_txt style=""font-size: 5rem; color:blue;""><b></b></div></div>",enter,ospan,retrieval,MxOH3OE0u3hrUU7zrHp1lCZkrmr1,html-keyboard-response,89,988291,0.0-46.0-2.0-1.0-2.0-0.0,NA,NA,NA,3.0,"[""N"",""P"",""J""]","[""N"",""P"",""J""]",1.0,3.0,"['<font color=""green"">N</font>', '<font color=""green"">P</font>', '<font color=""green"">J</font>']",,,,,,60c341ec2ed9da27095ffab4,10:01:46,03/04/2024
1461.0,"['<p style=""font-size:44px"">Letters:<br><br><br><font color=""green"">N</font> <font color=""green"">P</font> <font color=""green"">J</font></p><br><br><p style=""font-size:30px"">Symmetry:<br><br><font color=""green"">100%</font></p><br><br>']",0,ospan,practice_feedback,MxOH3OE0u3hrUU7zrHp1lCZkrmr1,html-button-response,90,990282,0.0-46.0-2.0-1.0-2.0-1.0,,,,,,,,,,,,,,,60c341ec2ed9da27095ffab4,10:01:46,03/04/2024
,"<p style=""font-size:75px;"">...</p>",,ospan,iti,MxOH3OE0u3hrUU7zrHp1lCZkrmr1,html-keyboard-response,91,991294,0.0-46.0-2.0-2.0-0.0,,,,,,,,,,,,,,,60c341ec2ed9da27095ffab4,10:01:46,03/04/2024
2146.0,,,ospan,symmetry,MxOH3OE0u3hrUU7zrHp1lCZkrmr1,symmetry-judgement-task,92,994694,0.0-46.0-2.0-2.0-1.0-0.0,,,,,,,,,,1.0,1.0,,,,60c341ec2ed9da27095ffab4,10:01:46,03/04/2024
,"<div style=""font-size: 10rem; color: #0000FF"">P</div>",,ospan,letter,MxOH3OE0u3hrUU7zrHp1lCZkrmr1,html-keyboard-response,93,995702,0.0-46.0-2.0-2.0-1.0-1.0,,,,,,,,,,,,,,,60c341ec2ed9da27095ffab4,10:01:46,03/04/2024
1500.0,,,ospan,symmetry,MxOH3OE0u3hrUU7zrHp1lCZkrmr1,symmetry-judgement-task,94,999184,0.0-46.0-2.0-2.0-1.0-2.0,,,,,,,,,,1.0,1.0,,,,60c341ec2ed9da27095ffab4,10:01:46,03/04/2024
,"<div style=""font-size: 10rem; color: #0000FF"">G</div>",,ospan,letter,MxOH3OE0u3hrUU7zrHp1lCZkrmr1,html-keyboard-response,95,1000202,0.0-46.0-2.0-2.0-1.0-3.0,,,,,,,,,,,,,,,60c341ec2ed9da27095ffab4,10:01:46,03/04/2024
2121.0,,,ospan,symmetry,MxOH3OE0u3hrUU7zrHp1lCZkrmr1,symmetry-judgement-task,96,1004435,0.0-46.0-2.0-2.0-1.0-4.0,,,,,,,,,,1.0,1.0,,,,60c341ec2ed9da27095ffab4,10:01:46,03/04/2024
,"<div style=""font-size: 10rem; color: #0000FF"">H</div>",,ospan,letter,MxOH3OE0u3hrUU7zrHp1lCZkrmr1,html-keyboard-response,97,1005439,0.0-46.0-2.0-2.0-1.0-5.0,,,,,,,,,,,,,,,60c341ec2ed9da27095ffab4,10:01:46,03/04/2024
4942.100000008941,"<div class = numbox><p style=""font-size: 2.4rem"">Please recall the letters you saw to the best of your ability. If you do not remember a particular letter, use the SKIP button.<br><b>(When you are ready to lock in your answer, press ENTER)</b></p><button id = button_1 class = ""square num-button"" onclick = ""recordClick(this)""><div class = content><div class = numbers>C</div></div></button><button id = button_2 class = ""square num-button"" onclick = ""recordClick(this)""><div class = content><div class = numbers>G</div></div></button><button id = button_3 class = ""square num-button"" onclick = ""recordClick(this)""><div class = content><div class = numbers>H</div></div></button><button id = button_4 class = ""square num-button"" onclick = ""recordClick(this)""><div class = content><div class = numbers>J</div></div></button><button id = button_5 class = ""square num-button"" onclick = ""recordClick(this)""><div class = content><div class = numbers>K</div></div></button><button id = button_6 class = ""square num-button"" onclick = ""recordClick(this)""><div class = content><div class = numbers>L</div></div></button><button id = button_7 class = ""square num-button"" onclick = ""recordClick(this)""><div class = content><div class = numbers>N</div></div></button><button id = button_8 class = ""square num-button"" onclick = ""recordClick(this)""><div class = content><div class = numbers>P</div></div></button><button id = button_9 class = ""square num-button"" onclick = ""recordClick(this)""><div class = content><div class = numbers>Q</div></div></button><button id = button_10 class = ""square num-button"" onclick = ""recordClick(this)""><div class = content><div class = numbers>R</div></div></button><button id = button_11 class = ""square num-button"" onclick = ""recordClick(this)""><div class = content><div class = numbers>S</div></div></button><button id = button_12 class = ""square num-button"" onclick = ""recordClick(this)""><div class = content><div class = numbers>Y</div></div></button><button class = clear_button id = ""ClearButton"" onclick = ""clearResponse()"">BACKSPACE</button><button class = blank_button id = ""BlankButton"" onclick = ""blankResponse()"">SKIP</button><p style=""font-size: 2.4rem""><u><b>Current Answer:</b></u></p><br><br><div id=echoed_txt style=""font-size: 5rem; color:blue;""><b></b></div></div>",enter,ospan,retrieval,MxOH3OE0u3hrUU7zrHp1lCZkrmr1,html-keyboard-response,98,1011139,0.0-46.0-2.0-2.0-2.0-0.0,NA,NA,NA,3.0,"[""P"",""G"",""H""]","[""P"",""G"",""H""]",1.0,3.0,"['<font color=""green"">P</font>', '<font color=""green"">G</font>', '<font color=""green"">H</font>']",,,,,,60c341ec2ed9da27095ffab4,10:01:46,03/04/2024
608.7000000029802,"['<p style=""font-size:44px"">Letters:<br><br><br><font color=""green"">P</font> <font color=""green"">G</font> <font color=""green"">H</font></p><br><br><p style=""font-size:30px"">Symmetry:<br><br><font color=""green"">100%</font></p><br><br>']",0,ospan,practice_feedback,MxOH3OE0u3hrUU7zrHp1lCZkrmr1,html-button-response,99,1012256,0.0-46.0-2.0-2.0-2.0-1.0,,,,,,,,,,,,,,,60c341ec2ed9da27095ffab4,10:01:46,03/04/2024
29462.20000000298,"<div class = 'left_align' style='font-size: 3rem; line-height: 1.3;'><b>Great work! That is the end of practice.</b><br><br>The real trials will look just like the practice trials you just completed.<br><br><u>Here, you will not see feedback</u>. First, you will see an grid picture to judge,<br>then a letter to remember. When the recall screen appears, report the letters in the<br>order presented. If you forget a letter, remember to use the <b>blank</b> button to move to the<br>next letter. Some of the sets will have more symmetry grids and letters than others.<br><br>It is important that you do your best on both the symmetry judgments and the letter recall<br>parts of the experiment. For for the symmetry judgments, try to work as <b>quickly</b> and <br>as <b>accurately</b> as possible. Remember to keep your symmetry accuracy at 85% or above.<br><br><b>For the letters, do NOT use any external aid (e.g., writing on paper, electronic device).</b><br><br>It is <u>very important</u> to our experiment to have a <b>true</b> view of your real performance.<br><br>Do not worry if you miss some when it gets hard! This task is meant to be very challenging!<br><br>Click the button to begin.</div><br><br><br><br>",0,ospan,starting_real_here,MxOH3OE0u3hrUU7zrHp1lCZkrmr1,html-button-response,100,1041720,0.0-46.0-2.0-3.0,,,,,,,,,,,,,,,60c341ec2ed9da27095ffab4,10:01:46,03/04/2024
,"<p style=""font-size:75px;"">...</p>",,ospan,iti,MxOH3OE0u3hrUU7zrHp1lCZkrmr1,html-keyboard-response,101,1043004,0.0-46.0-3.0-0.0-0.0,,,,,,,,,,,,,,,60c341ec2ed9da27095ffab4,10:01:46,03/04/2024
1748.0,,,ospan,symmetry,MxOH3OE0u3hrUU7zrHp1lCZkrmr1,symmetry-judgement-task,102,1046062,0.0-46.0-3.0-0.0-1.0-0.0,,,,,,,,,,1.0,1.0,,,,60c341ec2ed9da27095ffab4,10:01:46,03/04/2024
,"<div style=""font-size: 10rem; color: #0000FF"">S</div>",,ospan,letter,MxOH3OE0u3hrUU7zrHp1lCZkrmr1,html-keyboard-response,103,1047065,0.0-46.0-3.0-0.0-1.0-1.0,,,,,,,,,,,,,,,60c341ec2ed9da27095ffab4,10:01:46,03/04/2024
2568.0,,,ospan,symmetry,MxOH3OE0u3hrUU7zrHp1lCZkrmr1,symmetry-judgement-task,104,1051846,0.0-46.0-3.0-0.0-1.0-2.0,,,,,,,,,,1.0,1.0,,,,60c341ec2ed9da27095ffab4,10:01:46,03/04/2024
,"<div style=""font-size: 10rem; color: #0000FF"">Q</div>",,ospan,letter,MxOH3OE0u3hrUU7zrHp1lCZkrmr1,html-keyboard-response,105,1052866,0.0-46.0-3.0-0.0-1.0-3.0,,,,,,,,,,,,,,,60c341ec2ed9da27095ffab4,10:01:46,03/04/2024
3634.0,,,ospan,symmetry,MxOH3OE0u3hrUU7zrHp1lCZkrmr1,symmetry-judgement-task,106,1058682,0.0-46.0-3.0-0.0-1.0-4.0,,,,,,,,,,1.0,1.0,,,,60c341ec2ed9da27095ffab4,10:01:46,03/04/2024
,"<div style=""font-size: 10rem; color: #0000FF"">C</div>",,ospan,letter,MxOH3OE0u3hrUU7zrHp1lCZkrmr1,html-keyboard-response,107,1059697,0.0-46.0-3.0-0.0-1.0-5.0,,,,,,,,,,,,,,,60c341ec2ed9da27095ffab4,10:01:46,03/04/2024
6970.699999988079,"<div class = numbox><p style=""font-size: 2.4rem"">Please recall the letters you saw to the best of your ability. If you do not remember a particular letter, use the SKIP button.<br><b>(When you are ready to lock in your answer, press ENTER)</b></p><button id = button_1 class = ""square num-button"" onclick = ""recordClick(this)""><div class = content><div class = numbers>C</div></div></button><button id = button_2 class = ""square num-button"" onclick = ""recordClick(this)""><div class = content><div class = numbers>G</div></div></button><button id = button_3 class = ""square num-button"" onclick = ""recordClick(this)""><div class = content><div class = numbers>H</div></div></button><button id = button_4 class = ""square num-button"" onclick = ""recordClick(this)""><div class = content><div class = numbers>J</div></div></button><button id = button_5 class = ""square num-button"" onclick = ""recordClick(this)""><div class = content><div class = numbers>K</div></div></button><button id = button_6 class = ""square num-button"" onclick = ""recordClick(this)""><div class = content><div class = numbers>L</div></div></button><button id = button_7 class = ""square num-button"" onclick = ""recordClick(this)""><div class = content><div class = numbers>N</div></div></button><button id = button_8 class = ""square num-button"" onclick = ""recordClick(this)""><div class = content><div class = numbers>P</div></div></button><button id = button_9 class = ""square num-button"" onclick = ""recordClick(this)""><div class = content><div class = numbers>Q</div></div></button><button id = button_10 class = ""square num-button"" onclick = ""recordClick(this)""><div class = content><div class = numbers>R</div></div></button><button id = button_11 class = ""square num-button"" onclick = ""recordClick(this)""><div class = content><div class = numbers>S</div></div></button><button id = button_12 class = ""square num-button"" onclick = ""recordClick(this)""><div class = content><div class = numbers>Y</div></div></button><button class = clear_button id = ""ClearButton"" onclick = ""clearResponse()"">BACKSPACE</button><button class = blank_button id = ""BlankButton"" onclick = ""blankResponse()"">SKIP</button><p style=""font-size: 2.4rem""><u><b>Current Answer:</b></u></p><br><br><div id=echoed_txt style=""font-size: 5rem; color:blue;""><b></b></div></div>",enter,ospan,retrieval,MxOH3OE0u3hrUU7zrHp1lCZkrmr1,html-keyboard-response,108,1067426,0.0-46.0-3.0-0.0-2.0,3,3,3,3.0,"[""S"",""Q"",""C""]","[""S"",""Q"",""C""]",1.0,3.0,,,,,,,60c341ec2ed9da27095ffab4,10:01:46,03/04/2024
1165.199999988079,[''],0,ospan,feedback,MxOH3OE0u3hrUU7zrHp1lCZkrmr1,html-button-response,109,1069110,0.0-46.0-3.0-0.0-3.0,,,,,,,,,,,,100.0,0.0,,60c341ec2ed9da27095ffab4,10:01:46,03/04/2024
,"<p style=""font-size:75px;"">...</p>",,ospan,iti,MxOH3OE0u3hrUU7zrHp1lCZkrmr1,html-keyboard-response,110,1070120,0.0-46.0-4.0-0.0-0.0,,,,,,,,,,,,,,,60c341ec2ed9da27095ffab4,10:01:46,03/04/2024
2489.0,,,ospan,symmetry,MxOH3OE0u3hrUU7zrHp1lCZkrmr1,symmetry-judgement-task,111,1074283,0.0-46.0-4.0-0.0-1.0-0.0,,,,,,,,,,1.0,1.0,,,,60c341ec2ed9da27095ffab4,10:01:46,03/04/2024
,"<div style=""font-size: 10rem; color: #0000FF"">C</div>",,ospan,letter,MxOH3OE0u3hrUU7zrHp1lCZkrmr1,html-keyboard-response,112,1075292,0.0-46.0-4.0-0.0-1.0-1.0,,,,,,,,,,,,,,,60c341ec2ed9da27095ffab4,10:01:46,03/04/2024
3335.0,,,ospan,symmetry,MxOH3OE0u3hrUU7zrHp1lCZkrmr1,symmetry-judgement-task,113,1081108,0.0-46.0-4.0-0.0-1.0-2.0,,,,,,,,,,1.0,1.0,,,,60c341ec2ed9da27095ffab4,10:01:46,03/04/2024
,"<div style=""font-size: 10rem; color: #0000FF"">R</div>",,ospan,letter,MxOH3OE0u3hrUU7zrHp1lCZkrmr1,html-keyboard-response,114,1082118,0.0-46.0-4.0-0.0-1.0-3.0,,,,,,,,,,,,,,,60c341ec2ed9da27095ffab4,10:01:46,03/04/2024
4562.0,,,ospan,symmetry,MxOH3OE0u3hrUU7zrHp1lCZkrmr1,symmetry-judgement-task,115,1089073,0.0-46.0-4.0-0.0-1.0-4.0,,,,,,,,,,1.0,1.0,,,,60c341ec2ed9da27095ffab4,10:01:46,03/04/2024
,"<div style=""font-size: 10rem; color: #0000FF"">K</div>",,ospan,letter,MxOH3OE0u3hrUU7zrHp1lCZkrmr1,html-keyboard-response,116,1090083,0.0-46.0-4.0-0.0-1.0-5.0,,,,,,,,,,,,,,,60c341ec2ed9da27095ffab4,10:01:46,03/04/2024
2861.0,,,ospan,symmetry,MxOH3OE0u3hrUU7zrHp1lCZkrmr1,symmetry-judgement-task,117,1095609,0.0-46.0-4.0-0.0-1.0-6.0,,,,,,,,,,1.0,1.0,,,,60c341ec2ed9da27095ffab4,10:01:46,03/04/2024
,"<div style=""font-size: 10rem; color: #0000FF"">N</div>",,ospan,letter,MxOH3OE0u3hrUU7zrHp1lCZkrmr1,html-keyboard-response,118,1096612,0.0-46.0-4.0-0.0-1.0-7.0,,,,,,,,,,,,,,,60c341ec2ed9da27095ffab4,10:01:46,03/04/2024
5781.0,"<div class = numbox><p style=""font-size: 2.4rem"">Please recall the letters you saw to the best of your ability. If you do not remember a particular letter, use the SKIP button.<br><b>(When you are ready to lock in your answer, press ENTER)</b></p><button id = button_1 class = ""square num-button"" onclick = ""recordClick(this)""><div class = content><div class = numbers>C</div></div></button><button id = button_2 class = ""square num-button"" onclick = ""recordClick(this)""><div class = content><div class = numbers>G</div></div></button><button id = button_3 class = ""square num-button"" onclick = ""recordClick(this)""><div class = content><div class = numbers>H</div></div></button><button id = button_4 class = ""square num-button"" onclick = ""recordClick(this)""><div class = content><div class = numbers>J</div></div></button><button id = button_5 class = ""square num-button"" onclick = ""recordClick(this)""><div class = content><div class = numbers>K</div></div></button><button id = button_6 class = ""square num-button"" onclick = ""recordClick(this)""><div class = content><div class = numbers>L</div></div></button><button id = button_7 class = ""square num-button"" onclick = ""recordClick(this)""><div class = content><div class = numbers>N</div></div></button><button id = button_8 class = ""square num-button"" onclick = ""recordClick(this)""><div class = content><div class = numbers>P</div></div></button><button id = button_9 class = ""square num-button"" onclick = ""recordClick(this)""><div class = content><div class = numbers>Q</div></div></button><button id = button_10 class = ""square num-button"" onclick = ""recordClick(this)""><div class = content><div class = numbers>R</div></div></button><button id = button_11 class = ""square num-button"" onclick = ""recordClick(this)""><div class = content><div class = numbers>S</div></div></button><button id = button_12 class = ""square num-button"" onclick = ""recordClick(this)""><div class = content><div class = numbers>Y</div></div></button><button class = clear_button id = ""ClearButton"" onclick = ""clearResponse()"">BACKSPACE</button><button class = blank_button id = ""BlankButton"" onclick = ""blankResponse()"">SKIP</button><p style=""font-size: 2.4rem""><u><b>Current Answer:</b></u></p><br><br><div id=echoed_txt style=""font-size: 5rem; color:blue;""><b></b></div></div>",enter,ospan,retrieval,MxOH3OE0u3hrUU7zrHp1lCZkrmr1,html-keyboard-response,119,1103155,0.0-46.0-4.0-0.0-2.0,7,7,7,4.0,"[""C"",""R"",""K"",""N""]","[""C"",""R"",""K"",""N""]",1.0,4.0,,,,,,,60c341ec2ed9da27095ffab4,10:01:46,03/04/2024
762.5,[''],0,ospan,feedback,MxOH3OE0u3hrUU7zrHp1lCZkrmr1,html-button-response,120,1104426,0.0-46.0-4.0-0.0-3.0,,,,,,,,,,,,100.0,0.0,,60c341ec2ed9da27095ffab4,10:01:46,03/04/2024
,"<p style=""font-size:75px;"">...</p>",,ospan,iti,MxOH3OE0u3hrUU7zrHp1lCZkrmr1,html-keyboard-response,121,1105442,0.0-46.0-4.0-1.0-0.0,,,,,,,,,,,,,,,60c341ec2ed9da27095ffab4,10:01:46,03/04/2024
2591.0,,,ospan,symmetry,MxOH3OE0u3hrUU7zrHp1lCZkrmr1,symmetry-judgement-task,122,1109470,0.0-46.0-4.0-1.0-1.0-0.0,,,,,,,,,,1.0,1.0,,,,60c341ec2ed9da27095ffab4,10:01:46,03/04/2024
,"<div style=""font-size: 10rem; color: #0000FF"">P</div>",,ospan,letter,MxOH3OE0u3hrUU7zrHp1lCZkrmr1,html-keyboard-response,123,1110474,0.0-46.0-4.0-1.0-1.0-1.0,,,,,,,,,,,,,,,60c341ec2ed9da27095ffab4,10:01:46,03/04/2024
4220.0,,,ospan,symmetry,MxOH3OE0u3hrUU7zrHp1lCZkrmr1,symmetry-judgement-task,124,1117061,0.0-46.0-4.0-1.0-1.0-2.0,,,,,,,,,,0.0,0.0,,,,60c341ec2ed9da27095ffab4,10:01:46,03/04/2024
,"<div style=""font-size: 10rem; color: #0000FF"">N</div>",,ospan,letter,MxOH3OE0u3hrUU7zrHp1lCZkrmr1,html-keyboard-response,125,1118068,0.0-46.0-4.0-1.0-1.0-3.0,,,,,,,,,,,,,,,60c341ec2ed9da27095ffab4,10:01:46,03/04/2024
2823.0,,,ospan,symmetry,MxOH3OE0u3hrUU7zrHp1lCZkrmr1,symmetry-judgement-task,126,1123073,0.0-46.0-4.0-1.0-1.0-4.0,,,,,,,,,,1.0,1.0,,,,60c341ec2ed9da27095ffab4,10:01:46,03/04/2024
,"<div style=""font-size: 10rem; color: #0000FF"">Y</div>",,ospan,letter,MxOH3OE0u3hrUU7zrHp1lCZkrmr1,html-keyboard-response,127,1124085,0.0-46.0-4.0-1.0-1.0-5.0,,,,,,,,,,,,,,,60c341ec2ed9da27095ffab4,10:01:46,03/04/2024
2820.0,,,ospan,symmetry,MxOH3OE0u3hrUU7zrHp1lCZkrmr1,symmetry-judgement-task,128,1129284,0.0-46.0-4.0-1.0-1.0-6.0,,,,,,,,,,1.0,1.0,,,,60c341ec2ed9da27095ffab4,10:01:46,03/04/2024
,"<div style=""font-size: 10rem; color: #0000FF"">Q</div>",,ospan,letter,MxOH3OE0u3hrUU7zrHp1lCZkrmr1,html-keyboard-response,129,1130301,0.0-46.0-4.0-1.0-1.0-7.0,,,,,,,,,,,,,,,60c341ec2ed9da27095ffab4,10:01:46,03/04/2024
1978.0,,,ospan,symmetry,MxOH3OE0u3hrUU7zrHp1lCZkrmr1,symmetry-judgement-task,130,1134174,0.0-46.0-4.0-1.0-1.0-8.0,,,,,,,,,,1.0,1.0,,,,60c341ec2ed9da27095ffab4,10:01:46,03/04/2024
,"<div style=""font-size: 10rem; color: #0000FF"">J</div>",,ospan,letter,MxOH3OE0u3hrUU7zrHp1lCZkrmr1,html-keyboard-response,131,1135183,0.0-46.0-4.0-1.0-1.0-9.0,,,,,,,,,,,,,,,60c341ec2ed9da27095ffab4,10:01:46,03/04/2024
5566.0,"<div class = numbox><p style=""font-size: 2.4rem"">Please recall the letters you saw to the best of your ability. If you do not remember a particular letter, use the SKIP button.<br><b>(When you are ready to lock in your answer, press ENTER)</b></p><button id = button_1 class = ""square num-button"" onclick = ""recordClick(this)""><div class = content><div class = numbers>C</div></div></button><button id = button_2 class = ""square num-button"" onclick = ""recordClick(this)""><div class = content><div class = numbers>G</div></div></button><button id = button_3 class = ""square num-button"" onclick = ""recordClick(this)""><div class = content><div class = numbers>H</div></div></button><button id = button_4 class = ""square num-button"" onclick = ""recordClick(this)""><div class = content><div class = numbers>J</div></div></button><button id = button_5 class = ""square num-button"" onclick = ""recordClick(this)""><div class = content><div class = numbers>K</div></div></button><button id = button_6 class = ""square num-button"" onclick = ""recordClick(this)""><div class = content><div class = numbers>L</div></div></button><button id = button_7 class = ""square num-button"" onclick = ""recordClick(this)""><div class = content><div class = numbers>N</div></div></button><button id = button_8 class = ""square num-button"" onclick = ""recordClick(this)""><div class = content><div class = numbers>P</div></div></button><button id = button_9 class = ""square num-button"" onclick = ""recordClick(this)""><div class = content><div class = numbers>Q</div></div></button><button id = button_10 class = ""square num-button"" onclick = ""recordClick(this)""><div class = content><div class = numbers>R</div></div></button><button id = button_11 class = ""square num-button"" onclick = ""recordClick(this)""><div class = content><div class = numbers>S</div></div></button><button id = button_12 class = ""square num-button"" onclick = ""recordClick(this)""><div class = content><div class = numbers>Y</div></div></button><button class = clear_button id = ""ClearButton"" onclick = ""clearResponse()"">BACKSPACE</button><button class = blank_button id = ""BlankButton"" onclick = ""blankResponse()"">SKIP</button><p style=""font-size: 2.4rem""><u><b>Current Answer:</b></u></p><br><br><div id=echoed_txt style=""font-size: 5rem; color:blue;""><b></b></div></div>",enter,ospan,retrieval,MxOH3OE0u3hrUU7zrHp1lCZkrmr1,html-keyboard-response,132,1141515,0.0-46.0-4.0-1.0-2.0,12,12,12,5.0,"[""P"",""N"",""Y"",""Q"",""J""]","[""P"",""N"",""Y"",""Q"",""J""]",1.0,5.0,,,,,,,60c341ec2ed9da27095ffab4,10:01:46,03/04/2024
3646.7999999970198,[''],0,ospan,feedback,MxOH3OE0u3hrUU7zrHp1lCZkrmr1,html-button-response,133,1145678,0.0-46.0-4.0-1.0-3.0,,,,,,,,,,,,92.0,0.0,,60c341ec2ed9da27095ffab4,10:01:46,03/04/2024
,"<p style=""font-size:75px;"">...</p>",,ospan,iti,MxOH3OE0u3hrUU7zrHp1lCZkrmr1,html-keyboard-response,134,1146688,0.0-46.0-4.0-2.0-0.0,,,,,,,,,,,,,,,60c341ec2ed9da27095ffab4,10:01:46,03/04/2024
3855.0,,,ospan,symmetry,MxOH3OE0u3hrUU7zrHp1lCZkrmr1,symmetry-judgement-task,135,1151715,0.0-46.0-4.0-2.0-1.0-0.0,,,,,,,,,,1.0,1.0,,,,60c341ec2ed9da27095ffab4,10:01:46,03/04/2024
,"<div style=""font-size: 10rem; color: #0000FF"">R</div>",,ospan,letter,MxOH3OE0u3hrUU7zrHp1lCZkrmr1,html-keyboard-response,136,1152734,0.0-46.0-4.0-2.0-1.0-1.0,,,,,,,,,,,,,,,60c341ec2ed9da27095ffab4,10:01:46,03/04/2024
3360.0,,,ospan,symmetry,MxOH3OE0u3hrUU7zrHp1lCZkrmr1,symmetry-judgement-task,137,1158003,0.0-46.0-4.0-2.0-1.0-2.0,,,,,,,,,,1.0,1.0,,,,60c341ec2ed9da27095ffab4,10:01:46,03/04/2024
,"<div style=""font-size: 10rem; color: #0000FF"">P</div>",,ospan,letter,MxOH3OE0u3hrUU7zrHp1lCZkrmr1,html-keyboard-response,138,1159015,0.0-46.0-4.0-2.0-1.0-3.0,,,,,,,,,,,,,,,60c341ec2ed9da27095ffab4,10:01:46,03/04/2024
2115.0,,,ospan,symmetry,MxOH3OE0u3hrUU7zrHp1lCZkrmr1,symmetry-judgement-task,139,1163220,0.0-46.0-4.0-2.0-1.0-4.0,,,,,,,,,,1.0,1.0,,,,60c341ec2ed9da27095ffab4,10:01:46,03/04/2024
,"<div style=""font-size: 10rem; color: #0000FF"">H</div>",,ospan,letter,MxOH3OE0u3hrUU7zrHp1lCZkrmr1,html-keyboard-response,140,1164223,0.0-46.0-4.0-2.0-1.0-5.0,,,,,,,,,,,,,,,60c341ec2ed9da27095ffab4,10:01:46,03/04/2024
4613.0,"<div class = numbox><p style=""font-size: 2.4rem"">Please recall the letters you saw to the best of your ability. If you do not remember a particular letter, use the SKIP button.<br><b>(When you are ready to lock in your answer, press ENTER)</b></p><button id = button_1 class = ""square num-button"" onclick = ""recordClick(this)""><div class = content><div class = numbers>C</div></div></button><button id = button_2 class = ""square num-button"" onclick = ""recordClick(this)""><div class = content><div class = numbers>G</div></div></button><button id = button_3 class = ""square num-button"" onclick = ""recordClick(this)""><div class = content><div class = numbers>H</div></div></button><button id = button_4 class = ""square num-button"" onclick = ""recordClick(this)""><div class = content><div class = numbers>J</div></div></button><button id = button_5 class = ""square num-button"" onclick = ""recordClick(this)""><div class = content><div class = numbers>K</div></div></button><button id = button_6 class = ""square num-button"" onclick = ""recordClick(this)""><div class = content><div class = numbers>L</div></div></button><button id = button_7 class = ""square num-button"" onclick = ""recordClick(this)""><div class = content><div class = numbers>N</div></div></button><button id = button_8 class = ""square num-button"" onclick = ""recordClick(this)""><div class = content><div class = numbers>P</div></div></button><button id = button_9 class = ""square num-button"" onclick = ""recordClick(this)""><div class = content><div class = numbers>Q</div></div></button><button id = button_10 class = ""square num-button"" onclick = ""recordClick(this)""><div class = content><div class = numbers>R</div></div></button><button id = button_11 class = ""square num-button"" onclick = ""recordClick(this)""><div class = content><div class = numbers>S</div></div></button><button id = button_12 class = ""square num-button"" onclick = ""recordClick(this)""><div class = content><div class = numbers>Y</div></div></button><button class = clear_button id = ""ClearButton"" onclick = ""clearResponse()"">BACKSPACE</button><button class = blank_button id = ""BlankButton"" onclick = ""blankResponse()"">SKIP</button><p style=""font-size: 2.4rem""><u><b>Current Answer:</b></u></p><br><br><div id=echoed_txt style=""font-size: 5rem; color:blue;""><b></b></div></div>",enter,ospan,retrieval,MxOH3OE0u3hrUU7zrHp1lCZkrmr1,html-keyboard-response,141,1169595,0.0-46.0-4.0-2.0-2.0,15,15,15,3.0,"[""R"",""P"",""H""]","[""R"",""P"",""H""]",1.0,3.0,,,,,,,60c341ec2ed9da27095ffab4,10:01:46,03/04/2024
1303.5,[''],0,ospan,feedback,MxOH3OE0u3hrUU7zrHp1lCZkrmr1,html-button-response,142,1171400,0.0-46.0-4.0-2.0-3.0,,,,,,,,,,,,93.0,0.0,,60c341ec2ed9da27095ffab4,10:01:46,03/04/2024
,"<p style=""font-size:75px;"">...</p>",,ospan,iti,MxOH3OE0u3hrUU7zrHp1lCZkrmr1,html-keyboard-response,143,1172415,0.0-46.0-5.0-0.0-0.0,,,,,,,,,,,,,,,60c341ec2ed9da27095ffab4,10:01:46,03/04/2024
4100.0,,,ospan,symmetry,MxOH3OE0u3hrUU7zrHp1lCZkrmr1,symmetry-judgement-task,144,1178244,0.0-46.0-5.0-0.0-1.0-0.0,,,,,,,,,,1.0,1.0,,,,60c341ec2ed9da27095ffab4,10:01:46,03/04/2024
,"<div style=""font-size: 10rem; color: #0000FF"">G</div>",,ospan,letter,MxOH3OE0u3hrUU7zrHp1lCZkrmr1,html-keyboard-response,145,1179262,0.0-46.0-5.0-0.0-1.0-1.0,,,,,,,,,,,,,,,60c341ec2ed9da27095ffab4,10:01:46,03/04/2024
5459.0,,,ospan,symmetry,MxOH3OE0u3hrUU7zrHp1lCZkrmr1,symmetry-judgement-task,146,1187145,0.0-46.0-5.0-0.0-1.0-2.0,,,,,,,,,,1.0,1.0,,,,60c341ec2ed9da27095ffab4,10:01:46,03/04/2024
,"<div style=""font-size: 10rem; color: #0000FF"">L</div>",,ospan,letter,MxOH3OE0u3hrUU7zrHp1lCZkrmr1,html-keyboard-response,147,1188153,0.0-46.0-5.0-0.0-1.0-3.0,,,,,,,,,,,,,,,60c341ec2ed9da27095ffab4,10:01:46,03/04/2024
3146.0,,,ospan,symmetry,MxOH3OE0u3hrUU7zrHp1lCZkrmr1,symmetry-judgement-task,148,1193664,0.0-46.0-5.0-0.0-1.0-4.0,,,,,,,,,,1.0,1.0,,,,60c341ec2ed9da27095ffab4,10:01:46,03/04/2024
,"<div style=""font-size: 10rem; color: #0000FF"">H</div>",,ospan,letter,MxOH3OE0u3hrUU7zrHp1lCZkrmr1,html-keyboard-response,149,1194676,0.0-46.0-5.0-0.0-1.0-5.0,,,,,,,,,,,,,,,60c341ec2ed9da27095ffab4,10:01:46,03/04/2024
2736.0,,,ospan,symmetry,MxOH3OE0u3hrUU7zrHp1lCZkrmr1,symmetry-judgement-task,150,1199642,0.0-46.0-5.0-0.0-1.0-6.0,,,,,,,,,,1.0,1.0,,,,60c341ec2ed9da27095ffab4,10:01:46,03/04/2024
,"<div style=""font-size: 10rem; color: #0000FF"">R</div>",,ospan,letter,MxOH3OE0u3hrUU7zrHp1lCZkrmr1,html-keyboard-response,151,1200659,0.0-46.0-5.0-0.0-1.0-7.0,,,,,,,,,,,,,,,60c341ec2ed9da27095ffab4,10:01:46,03/04/2024
1746.0,,,ospan,symmetry,MxOH3OE0u3hrUU7zrHp1lCZkrmr1,symmetry-judgement-task,152,1204718,0.0-46.0-5.0-0.0-1.0-8.0,,,,,,,,,,1.0,1.0,,,,60c341ec2ed9da27095ffab4,10:01:46,03/04/2024
,"<div style=""font-size: 10rem; color: #0000FF"">J</div>",,ospan,letter,MxOH3OE0u3hrUU7zrHp1lCZkrmr1,html-keyboard-response,153,1205726,0.0-46.0-5.0-0.0-1.0-9.0,,,,,,,,,,,,,,,60c341ec2ed9da27095ffab4,10:01:46,03/04/2024
1948.0,,,ospan,symmetry,MxOH3OE0u3hrUU7zrHp1lCZkrmr1,symmetry-judgement-task,154,1209732,0.0-46.0-5.0-0.0-1.0-10.0,,,,,,,,,,1.0,1.0,,,,60c341ec2ed9da27095ffab4,10:01:46,03/04/2024
,"<div style=""font-size: 10rem; color: #0000FF"">P</div>",,ospan,letter,MxOH3OE0u3hrUU7zrHp1lCZkrmr1,html-keyboard-response,155,1210742,0.0-46.0-5.0-0.0-1.0-11.0,,,,,,,,,,,,,,,60c341ec2ed9da27095ffab4,10:01:46,03/04/2024
6281.0999999940395,"<div class = numbox><p style=""font-size: 2.4rem"">Please recall the letters you saw to the best of your ability. If you do not remember a particular letter, use the SKIP button.<br><b>(When you are ready to lock in your answer, press ENTER)</b></p><button id = button_1 class = ""square num-button"" onclick = ""recordClick(this)""><div class = content><div class = numbers>C</div></div></button><button id = button_2 class = ""square num-button"" onclick = ""recordClick(this)""><div class = content><div class = numbers>G</div></div></button><button id = button_3 class = ""square num-button"" onclick = ""recordClick(this)""><div class = content><div class = numbers>H</div></div></button><button id = button_4 class = ""square num-button"" onclick = ""recordClick(this)""><div class = content><div class = numbers>J</div></div></button><button id = button_5 class = ""square num-button"" onclick = ""recordClick(this)""><div class = content><div class = numbers>K</div></div></button><button id = button_6 class = ""square num-button"" onclick = ""recordClick(this)""><div class = content><div class = numbers>L</div></div></button><button id = button_7 class = ""square num-button"" onclick = ""recordClick(this)""><div class = content><div class = numbers>N</div></div></button><button id = button_8 class = ""square num-button"" onclick = ""recordClick(this)""><div class = content><div class = numbers>P</div></div></button><button id = button_9 class = ""square num-button"" onclick = ""recordClick(this)""><div class = content><div class = numbers>Q</div></div></button><button id = button_10 class = ""square num-button"" onclick = ""recordClick(this)""><div class = content><div class = numbers>R</div></div></button><button id = button_11 class = ""square num-button"" onclick = ""recordClick(this)""><div class = content><div class = numbers>S</div></div></button><button id = button_12 class = ""square num-button"" onclick = ""recordClick(this)""><div class = content><div class = numbers>Y</div></div></button><button class = clear_button id = ""ClearButton"" onclick = ""clearResponse()"">BACKSPACE</button><button class = blank_button id = ""BlankButton"" onclick = ""blankResponse()"">SKIP</button><p style=""font-size: 2.4rem""><u><b>Current Answer:</b></u></p><br><br><div id=echoed_txt style=""font-size: 5rem; color:blue;""><b></b></div></div>",enter,ospan,retrieval,MxOH3OE0u3hrUU7zrHp1lCZkrmr1,html-keyboard-response,156,1217778,0.0-46.0-5.0-0.0-2.0,21,21,21,6.0,"[""G"",""L"",""H"",""R"",""J"",""P""]","[""G"",""L"",""H"",""R"",""J"",""P""]",1.0,6.0,,,,,,,60c341ec2ed9da27095ffab4,10:01:46,03/04/2024
2699.699999988079,[''],0,ospan,feedback,MxOH3OE0u3hrUU7zrHp1lCZkrmr1,html-button-response,157,1220991,0.0-46.0-5.0-0.0-3.0,,,,,,,,,,,,95.0,0.0,,60c341ec2ed9da27095ffab4,10:01:46,03/04/2024
,"<p style=""font-size:75px;"">...</p>",,ospan,iti,MxOH3OE0u3hrUU7zrHp1lCZkrmr1,html-keyboard-response,158,1222001,0.0-46.0-5.0-1.0-0.0,,,,,,,,,,,,,,,60c341ec2ed9da27095ffab4,10:01:46,03/04/2024
2461.0,,,ospan,symmetry,MxOH3OE0u3hrUU7zrHp1lCZkrmr1,symmetry-judgement-task,159,1225637,0.0-46.0-5.0-1.0-1.0-0.0,,,,,,,,,,1.0,1.0,,,,60c341ec2ed9da27095ffab4,10:01:46,03/04/2024
,"<div style=""font-size: 10rem; color: #0000FF"">Y</div>",,ospan,letter,MxOH3OE0u3hrUU7zrHp1lCZkrmr1,html-keyboard-response,160,1226648,0.0-46.0-5.0-1.0-1.0-1.0,,,,,,,,,,,,,,,60c341ec2ed9da27095ffab4,10:01:46,03/04/2024
2338.0,,,ospan,symmetry,MxOH3OE0u3hrUU7zrHp1lCZkrmr1,symmetry-judgement-task,161,1231476,0.0-46.0-5.0-1.0-1.0-2.0,,,,,,,,,,1.0,1.0,,,,60c341ec2ed9da27095ffab4,10:01:46,03/04/2024
,"<div style=""font-size: 10rem; color: #0000FF"">K</div>",,ospan,letter,MxOH3OE0u3hrUU7zrHp1lCZkrmr1,html-keyboard-response,162,1232479,0.0-46.0-5.0-1.0-1.0-3.0,,,,,,,,,,,,,,,60c341ec2ed9da27095ffab4,10:01:46,03/04/2024
1918.0,,,ospan,symmetry,MxOH3OE0u3hrUU7zrHp1lCZkrmr1,symmetry-judgement-task,163,1236926,0.0-46.0-5.0-1.0-1.0-4.0,,,,,,,,,,1.0,1.0,,,,60c341ec2ed9da27095ffab4,10:01:46,03/04/2024
,"<div style=""font-size: 10rem; color: #0000FF"">H</div>",,ospan,letter,MxOH3OE0u3hrUU7zrHp1lCZkrmr1,html-keyboard-response,164,1237934,0.0-46.0-5.0-1.0-1.0-5.0,,,,,,,,,,,,,,,60c341ec2ed9da27095ffab4,10:01:46,03/04/2024
2649.0,,,ospan,symmetry,MxOH3OE0u3hrUU7zrHp1lCZkrmr1,symmetry-judgement-task,165,1242762,0.0-46.0-5.0-1.0-1.0-6.0,,,,,,,,,,1.0,1.0,,,,60c341ec2ed9da27095ffab4,10:01:46,03/04/2024
,"<div style=""font-size: 10rem; color: #0000FF"">Q</div>",,ospan,letter,MxOH3OE0u3hrUU7zrHp1lCZkrmr1,html-keyboard-response,166,1243782,0.0-46.0-5.0-1.0-1.0-7.0,,,,,,,,,,,,,,,60c341ec2ed9da27095ffab4,10:01:46,03/04/2024
5108.0,,,ospan,symmetry,MxOH3OE0u3hrUU7zrHp1lCZkrmr1,symmetry-judgement-task,167,1251361,0.0-46.0-5.0-1.0-1.0-8.0,,,,,,,,,,1.0,1.0,,,,60c341ec2ed9da27095ffab4,10:01:46,03/04/2024
,"<div style=""font-size: 10rem; color: #0000FF"">G</div>",,ospan,letter,MxOH3OE0u3hrUU7zrHp1lCZkrmr1,html-keyboard-response,168,1252376,0.0-46.0-5.0-1.0-1.0-9.0,,,,,,,,,,,,,,,60c341ec2ed9da27095ffab4,10:01:46,03/04/2024
973.0,,,ospan,symmetry,MxOH3OE0u3hrUU7zrHp1lCZkrmr1,symmetry-judgement-task,169,1255913,0.0-46.0-5.0-1.0-1.0-10.0,,,,,,,,,,1.0,1.0,,,,60c341ec2ed9da27095ffab4,10:01:46,03/04/2024
,"<div style=""font-size: 10rem; color: #0000FF"">S</div>",,ospan,letter,MxOH3OE0u3hrUU7zrHp1lCZkrmr1,html-keyboard-response,170,1256926,0.0-46.0-5.0-1.0-1.0-11.0,,,,,,,,,,,,,,,60c341ec2ed9da27095ffab4,10:01:46,03/04/2024
1223.0,,,ospan,symmetry,MxOH3OE0u3hrUU7zrHp1lCZkrmr1,symmetry-judgement-task,171,1260492,0.0-46.0-5.0-1.0-1.0-12.0,,,,,,,,,,1.0,1.0,,,,60c341ec2ed9da27095ffab4,10:01:46,03/04/2024
,"<div style=""font-size: 10rem; color: #0000FF"">R</div>",,ospan,letter,MxOH3OE0u3hrUU7zrHp1lCZkrmr1,html-keyboard-response,172,1261504,0.0-46.0-5.0-1.0-1.0-13.0,,,,,,,,,,,,,,,60c341ec2ed9da27095ffab4,10:01:46,03/04/2024
9300.5,"<div class = numbox><p style=""font-size: 2.4rem"">Please recall the letters you saw to the best of your ability. If you do not remember a particular letter, use the SKIP button.<br><b>(When you are ready to lock in your answer, press ENTER)</b></p><button id = button_1 class = ""square num-button"" onclick = ""recordClick(this)""><div class = content><div class = numbers>C</div></div></button><button id = button_2 class = ""square num-button"" onclick = ""recordClick(this)""><div class = content><div class = numbers>G</div></div></button><button id = button_3 class = ""square num-button"" onclick = ""recordClick(this)""><div class = content><div class = numbers>H</div></div></button><button id = button_4 class = ""square num-button"" onclick = ""recordClick(this)""><div class = content><div class = numbers>J</div></div></button><button id = button_5 class = ""square num-button"" onclick = ""recordClick(this)""><div class = content><div class = numbers>K</div></div></button><button id = button_6 class = ""square num-button"" onclick = ""recordClick(this)""><div class = content><div class = numbers>L</div></div></button><button id = button_7 class = ""square num-button"" onclick = ""recordClick(this)""><div class = content><div class = numbers>N</div></div></button><button id = button_8 class = ""square num-button"" onclick = ""recordClick(this)""><div class = content><div class = numbers>P</div></div></button><button id = button_9 class = ""square num-button"" onclick = ""recordClick(this)""><div class = content><div class = numbers>Q</div></div></button><button id = button_10 class = ""square num-button"" onclick = ""recordClick(this)""><div class = content><div class = numbers>R</div></div></button><button id = button_11 class = ""square num-button"" onclick = ""recordClick(this)""><div class = content><div class = numbers>S</div></div></button><button id = button_12 class = ""square num-button"" onclick = ""recordClick(this)""><div class = content><div class = numbers>Y</div></div></button><button class = clear_button id = ""ClearButton"" onclick = ""clearResponse()"">BACKSPACE</button><button class = blank_button id = ""BlankButton"" onclick = ""blankResponse()"">SKIP</button><p style=""font-size: 2.4rem""><u><b>Current Answer:</b></u></p><br><br><div id=echoed_txt style=""font-size: 5rem; color:blue;""><b></b></div></div>",enter,ospan,retrieval,MxOH3OE0u3hrUU7zrHp1lCZkrmr1,html-keyboard-response,173,1271562,0.0-46.0-5.0-1.0-2.0,28,25,21,7.0,"[""Y"",""K"",""H"",""G"",""Q"",""S""]","[""Y"",""K"",""H"",""Q"",""G"",""S"",""R""]",0.0,4.0,,,,,,,60c341ec2ed9da27095ffab4,10:01:46,03/04/2024
836.4000000059605,[''],0,ospan,feedback,MxOH3OE0u3hrUU7zrHp1lCZkrmr1,html-button-response,174,1272911,0.0-46.0-5.0-1.0-3.0,,,,,,,,,,,,96.0,0.0,,60c341ec2ed9da27095ffab4,10:01:46,03/04/2024
,"<p style=""font-size:75px;"">...</p>",,ospan,iti,MxOH3OE0u3hrUU7zrHp1lCZkrmr1,html-keyboard-response,175,1273919,0.0-46.0-6.0-0.0-0.0,,,,,,,,,,,,,,,60c341ec2ed9da27095ffab4,10:01:46,03/04/2024
2066.0,,,ospan,symmetry,MxOH3OE0u3hrUU7zrHp1lCZkrmr1,symmetry-judgement-task,176,1277537,0.0-46.0-6.0-0.0-1.0-0.0,,,,,,,,,,1.0,1.0,,,,60c341ec2ed9da27095ffab4,10:01:46,03/04/2024
,"<div style=""font-size: 10rem; color: #0000FF"">N</div>",,ospan,letter,MxOH3OE0u3hrUU7zrHp1lCZkrmr1,html-keyboard-response,177,1278551,0.0-46.0-6.0-0.0-1.0-1.0,,,,,,,,,,,,,,,60c341ec2ed9da27095ffab4,10:01:46,03/04/2024
3744.0,,,ospan,symmetry,MxOH3OE0u3hrUU7zrHp1lCZkrmr1,symmetry-judgement-task,178,1284596,0.0-46.0-6.0-0.0-1.0-2.0,,,,,,,,,,1.0,1.0,,,,60c341ec2ed9da27095ffab4,10:01:46,03/04/2024
,"<div style=""font-size: 10rem; color: #0000FF"">K</div>",,ospan,letter,MxOH3OE0u3hrUU7zrHp1lCZkrmr1,html-keyboard-response,179,1285605,0.0-46.0-6.0-0.0-1.0-3.0,,,,,,,,,,,,,,,60c341ec2ed9da27095ffab4,10:01:46,03/04/2024
2032.0,,,ospan,symmetry,MxOH3OE0u3hrUU7zrHp1lCZkrmr1,symmetry-judgement-task,180,1290313,0.0-46.0-6.0-0.0-1.0-4.0,,,,,,,,,,1.0,1.0,,,,60c341ec2ed9da27095ffab4,10:01:46,03/04/2024
,"<div style=""font-size: 10rem; color: #0000FF"">S</div>",,ospan,letter,MxOH3OE0u3hrUU7zrHp1lCZkrmr1,html-keyboard-response,181,1291320,0.0-46.0-6.0-0.0-1.0-5.0,,,,,,,,,,,,,,,60c341ec2ed9da27095ffab4,10:01:46,03/04/2024
2168.0,,,ospan,symmetry,MxOH3OE0u3hrUU7zrHp1lCZkrmr1,symmetry-judgement-task,182,1296037,0.0-46.0-6.0-0.0-1.0-6.0,,,,,,,,,,1.0,1.0,,,,60c341ec2ed9da27095ffab4,10:01:46,03/04/2024
,"<div style=""font-size: 10rem; color: #0000FF"">L</div>",,ospan,letter,MxOH3OE0u3hrUU7zrHp1lCZkrmr1,html-keyboard-response,183,1297054,0.0-46.0-6.0-0.0-1.0-7.0,,,,,,,,,,,,,,,60c341ec2ed9da27095ffab4,10:01:46,03/04/2024
1620.0,,,ospan,symmetry,MxOH3OE0u3hrUU7zrHp1lCZkrmr1,symmetry-judgement-task,184,1301125,0.0-46.0-6.0-0.0-1.0-8.0,,,,,,,,,,1.0,1.0,,,,60c341ec2ed9da27095ffab4,10:01:46,03/04/2024
,"<div style=""font-size: 10rem; color: #0000FF"">H</div>",,ospan,letter,MxOH3OE0u3hrUU7zrHp1lCZkrmr1,html-keyboard-response,185,1302129,0.0-46.0-6.0-0.0-1.0-9.0,,,,,,,,,,,,,,,60c341ec2ed9da27095ffab4,10:01:46,03/04/2024
7417.20000000298,"<div class = numbox><p style=""font-size: 2.4rem"">Please recall the letters you saw to the best of your ability. If you do not remember a particular letter, use the SKIP button.<br><b>(When you are ready to lock in your answer, press ENTER)</b></p><button id = button_1 class = ""square num-button"" onclick = ""recordClick(this)""><div class = content><div class = numbers>C</div></div></button><button id = button_2 class = ""square num-button"" onclick = ""recordClick(this)""><div class = content><div class = numbers>G</div></div></button><button id = button_3 class = ""square num-button"" onclick = ""recordClick(this)""><div class = content><div class = numbers>H</div></div></button><button id = button_4 class = ""square num-button"" onclick = ""recordClick(this)""><div class = content><div class = numbers>J</div></div></button><button id = button_5 class = ""square num-button"" onclick = ""recordClick(this)""><div class = content><div class = numbers>K</div></div></button><button id = button_6 class = ""square num-button"" onclick = ""recordClick(this)""><div class = content><div class = numbers>L</div></div></button><button id = button_7 class = ""square num-button"" onclick = ""recordClick(this)""><div class = content><div class = numbers>N</div></div></button><button id = button_8 class = ""square num-button"" onclick = ""recordClick(this)""><div class = content><div class = numbers>P</div></div></button><button id = button_9 class = ""square num-button"" onclick = ""recordClick(this)""><div class = content><div class = numbers>Q</div></div></button><button id = button_10 class = ""square num-button"" onclick = ""recordClick(this)""><div class = content><div class = numbers>R</div></div></button><button id = button_11 class = ""square num-button"" onclick = ""recordClick(this)""><div class = content><div class = numbers>S</div></div></button><button id = button_12 class = ""square num-button"" onclick = ""recordClick(this)""><div class = content><div class = numbers>Y</div></div></button><button class = clear_button id = ""ClearButton"" onclick = ""clearResponse()"">BACKSPACE</button><button class = blank_button id = ""BlankButton"" onclick = ""blankResponse()"">SKIP</button><p style=""font-size: 2.4rem""><u><b>Current Answer:</b></u></p><br><br><div id=echoed_txt style=""font-size: 5rem; color:blue;""><b></b></div></div>",enter,ospan,retrieval,MxOH3OE0u3hrUU7zrHp1lCZkrmr1,html-keyboard-response,186,1310298,0.0-46.0-6.0-0.0-2.0,33,30,26,5.0,"[""N"",""K"",""S"",""L"",""H""]","[""N"",""K"",""S"",""L"",""H""]",1.0,5.0,,,,,,,60c341ec2ed9da27095ffab4,10:01:46,03/04/2024
1136.6000000089407,[''],0,ospan,feedback,MxOH3OE0u3hrUU7zrHp1lCZkrmr1,html-button-response,187,1311950,0.0-46.0-6.0-0.0-3.0,,,,,,,,,,,,97.0,0.0,,60c341ec2ed9da27095ffab4,10:01:46,03/04/2024
,"<p style=""font-size:75px;"">...</p>",,ospan,iti,MxOH3OE0u3hrUU7zrHp1lCZkrmr1,html-keyboard-response,188,1312961,0.0-46.0-6.0-1.0-0.0,,,,,,,,,,,,,,,60c341ec2ed9da27095ffab4,10:01:46,03/04/2024
1207.0,,,ospan,symmetry,MxOH3OE0u3hrUU7zrHp1lCZkrmr1,symmetry-judgement-task,189,1315711,0.0-46.0-6.0-1.0-1.0-0.0,,,,,,,,,,1.0,1.0,,,,60c341ec2ed9da27095ffab4,10:01:46,03/04/2024
,"<div style=""font-size: 10rem; color: #0000FF"">N</div>",,ospan,letter,MxOH3OE0u3hrUU7zrHp1lCZkrmr1,html-keyboard-response,190,1316729,0.0-46.0-6.0-1.0-1.0-1.0,,,,,,,,,,,,,,,60c341ec2ed9da27095ffab4,10:01:46,03/04/2024
1832.0,,,ospan,symmetry,MxOH3OE0u3hrUU7zrHp1lCZkrmr1,symmetry-judgement-task,191,1320824,0.0-46.0-6.0-1.0-1.0-2.0,,,,,,,,,,1.0,1.0,,,,60c341ec2ed9da27095ffab4,10:01:46,03/04/2024
,"<div style=""font-size: 10rem; color: #0000FF"">R</div>",,ospan,letter,MxOH3OE0u3hrUU7zrHp1lCZkrmr1,html-keyboard-response,192,1321827,0.0-46.0-6.0-1.0-1.0-3.0,,,,,,,,,,,,,,,60c341ec2ed9da27095ffab4,10:01:46,03/04/2024
1025.0,,,ospan,symmetry,MxOH3OE0u3hrUU7zrHp1lCZkrmr1,symmetry-judgement-task,193,1325209,0.0-46.0-6.0-1.0-1.0-4.0,,,,,,,,,,1.0,1.0,,,,60c341ec2ed9da27095ffab4,10:01:46,03/04/2024
,"<div style=""font-size: 10rem; color: #0000FF"">K</div>",,ospan,letter,MxOH3OE0u3hrUU7zrHp1lCZkrmr1,html-keyboard-response,194,1326214,0.0-46.0-6.0-1.0-1.0-5.0,,,,,,,,,,,,,,,60c341ec2ed9da27095ffab4,10:01:46,03/04/2024
1247.0,,,ospan,symmetry,MxOH3OE0u3hrUU7zrHp1lCZkrmr1,symmetry-judgement-task,195,1329857,0.0-46.0-6.0-1.0-1.0-6.0,,,,,,,,,,1.0,1.0,,,,60c341ec2ed9da27095ffab4,10:01:46,03/04/2024
,"<div style=""font-size: 10rem; color: #0000FF"">G</div>",,ospan,letter,MxOH3OE0u3hrUU7zrHp1lCZkrmr1,html-keyboard-response,196,1330860,0.0-46.0-6.0-1.0-1.0-7.0,,,,,,,,,,,,,,,60c341ec2ed9da27095ffab4,10:01:46,03/04/2024
1998.0,,,ospan,symmetry,MxOH3OE0u3hrUU7zrHp1lCZkrmr1,symmetry-judgement-task,197,1334958,0.0-46.0-6.0-1.0-1.0-8.0,,,,,,,,,,1.0,1.0,,,,60c341ec2ed9da27095ffab4,10:01:46,03/04/2024
,"<div style=""font-size: 10rem; color: #0000FF"">Y</div>",,ospan,letter,MxOH3OE0u3hrUU7zrHp1lCZkrmr1,html-keyboard-response,198,1335963,0.0-46.0-6.0-1.0-1.0-9.0,,,,,,,,,,,,,,,60c341ec2ed9da27095ffab4,10:01:46,03/04/2024
1569.0,,,ospan,symmetry,MxOH3OE0u3hrUU7zrHp1lCZkrmr1,symmetry-judgement-task,199,1339854,0.0-46.0-6.0-1.0-1.0-10.0,,,,,,,,,,1.0,1.0,,,,60c341ec2ed9da27095ffab4,10:01:46,03/04/2024
,"<div style=""font-size: 10rem; color: #0000FF"">P</div>",,ospan,letter,MxOH3OE0u3hrUU7zrHp1lCZkrmr1,html-keyboard-response,200,1340867,0.0-46.0-6.0-1.0-1.0-11.0,,,,,,,,,,,,,,,60c341ec2ed9da27095ffab4,10:01:46,03/04/2024
1898.0,,,ospan,symmetry,MxOH3OE0u3hrUU7zrHp1lCZkrmr1,symmetry-judgement-task,201,1345190,0.0-46.0-6.0-1.0-1.0-12.0,,,,,,,,,,1.0,1.0,,,,60c341ec2ed9da27095ffab4,10:01:46,03/04/2024
,"<div style=""font-size: 10rem; color: #0000FF"">H</div>",,ospan,letter,MxOH3OE0u3hrUU7zrHp1lCZkrmr1,html-keyboard-response,202,1346194,0.0-46.0-6.0-1.0-1.0-13.0,,,,,,,,,,,,,,,60c341ec2ed9da27095ffab4,10:01:46,03/04/2024
1543.0,,,ospan,symmetry,MxOH3OE0u3hrUU7zrHp1lCZkrmr1,symmetry-judgement-task,203,1350140,0.0-46.0-6.0-1.0-1.0-14.0,,,,,,,,,,1.0,1.0,,,,60c341ec2ed9da27095ffab4,10:01:46,03/04/2024
,"<div style=""font-size: 10rem; color: #0000FF"">Q</div>",,ospan,letter,MxOH3OE0u3hrUU7zrHp1lCZkrmr1,html-keyboard-response,204,1351146,0.0-46.0-6.0-1.0-1.0-15.0,,,,,,,,,,,,,,,60c341ec2ed9da27095ffab4,10:01:46,03/04/2024
21694.5,"<div class = numbox><p style=""font-size: 2.4rem"">Please recall the letters you saw to the best of your ability. If you do not remember a particular letter, use the SKIP button.<br><b>(When you are ready to lock in your answer, press ENTER)</b></p><button id = button_1 class = ""square num-button"" onclick = ""recordClick(this)""><div class = content><div class = numbers>C</div></div></button><button id = button_2 class = ""square num-button"" onclick = ""recordClick(this)""><div class = content><div class = numbers>G</div></div></button><button id = button_3 class = ""square num-button"" onclick = ""recordClick(this)""><div class = content><div class = numbers>H</div></div></button><button id = button_4 class = ""square num-button"" onclick = ""recordClick(this)""><div class = content><div class = numbers>J</div></div></button><button id = button_5 class = ""square num-button"" onclick = ""recordClick(this)""><div class = content><div class = numbers>K</div></div></button><button id = button_6 class = ""square num-button"" onclick = ""recordClick(this)""><div class = content><div class = numbers>L</div></div></button><button id = button_7 class = ""square num-button"" onclick = ""recordClick(this)""><div class = content><div class = numbers>N</div></div></button><button id = button_8 class = ""square num-button"" onclick = ""recordClick(this)""><div class = content><div class = numbers>P</div></div></button><button id = button_9 class = ""square num-button"" onclick = ""recordClick(this)""><div class = content><div class = numbers>Q</div></div></button><button id = button_10 class = ""square num-button"" onclick = ""recordClick(this)""><div class = content><div class = numbers>R</div></div></button><button id = button_11 class = ""square num-button"" onclick = ""recordClick(this)""><div class = content><div class = numbers>S</div></div></button><button id = button_12 class = ""square num-button"" onclick = ""recordClick(this)""><div class = content><div class = numbers>Y</div></div></button><button class = clear_button id = ""ClearButton"" onclick = ""clearResponse()"">BACKSPACE</button><button class = blank_button id = ""BlankButton"" onclick = ""blankResponse()"">SKIP</button><p style=""font-size: 2.4rem""><u><b>Current Answer:</b></u></p><br><br><div id=echoed_txt style=""font-size: 5rem; color:blue;""><b></b></div></div>",enter,ospan,retrieval,MxOH3OE0u3hrUU7zrHp1lCZkrmr1,html-keyboard-response,205,1373603,0.0-46.0-6.0-1.0-2.0,41,33,26,8.0,"[""N"",""R"",""K"",""S"",""H""]","[""N"",""R"",""K"",""G"",""Y"",""P"",""H"",""Q""]",0.0,3.0,,,,,,,60c341ec2ed9da27095ffab4,10:01:46,03/04/2024
845.0,[''],0,ospan,feedback,MxOH3OE0u3hrUU7zrHp1lCZkrmr1,html-button-response,206,1374960,0.0-46.0-6.0-1.0-3.0,,,,,,,,,,,,98.0,0.0,,60c341ec2ed9da27095ffab4,10:01:46,03/04/2024
9176.10000000894,,{'Q0': 'Wait times too long I think'},ospan,survey_ospan,MxOH3OE0u3hrUU7zrHp1lCZkrmr1,lmdlab-survey-text,207,1384894,0.0-46.0-7.0,,,,,,,,,,,,,,MxOH3OE0u3hrUU7zrHp1lCZkrmr1,60c341ec2ed9da27095ffab4,10:01:46,03/04/2024
820.8000000119209,<p><p style='font-size: 3rem'>Great work!<br><br>This completes the symmetry and memory task.</p><br><br><br>,0,ospan,finish,MxOH3OE0u3hrUU7zrHp1lCZkrmr1,html-button-response,208,1385722,0.0-46.0-8.0,41,33,26,,,,,,,,,98.0,,,60c341ec2ed9da27095ffab4,10:01:46,03/04/2024
