rt,stimulus,response,exp_name,exp_stage,subjectID,trial_type,trial_index,time_elapsed,internal_node_id,ospan_shown,ospan_total,ospan_abs,length,resp_actual,resp_correct,full_correct,num_correct,feedback,accuracy,correct,math_acc,math_warning,databaseID,prolificID,start_time,date
2089.099999964237,<div class = 'left_align' style='font-size: 3.25rem; line-height: 1.3;'><p class = 'center_align'><b>Welcome to the Symmetry and Memory Task</b><br><br><br><br></p>Press 'continue' to show the instructions.<br><br><br><br></div>,0,ospan,instruct,hKPiDoSwx6SUDqcotdIFxnA6qNq2,html-button-response,54,505835,0.0-46.0-0.0-0.0-0.0,,,,,,,,,,,,,,,5c3d48955fd1050001a99364,11:38:33,04/04/2024
6651.399999976158,"<div class = 'left_align' style='font-size: 3.25rem; line-height: 1.3;'><p class = 'center_align'><b>Symmetry and Memory Task</b><br><br></p>In this task, you will try to memorize letters you see on the screen<br>while you also view black and white grid pictures.<br><br>In the next few minutes, you will have some practice to get you familiar<br>with how the task works.<br><br>It may be difficult sometimes, but please do not worry about making mistakes!<br><br>We will begin by practicing the letter part of the task.<br><br><br><br></div>",0,ospan,instruct,hKPiDoSwx6SUDqcotdIFxnA6qNq2,html-button-response,55,512745,0.0-46.0-0.0-0.0-1.0,,,,,,,,,,,,,,,5c3d48955fd1050001a99364,11:38:33,04/04/2024
7768.799999952316,"<div class = 'left_align' style='font-size: 3.25rem; line-height: 1.3;'>For this practice part, letters will appear on the screen one at a time.<br><br>Try to remember each letter in the order presented.<br><br>After some letters have been shown, you will see a response screen. Your<br>goal is to report the letters you saw <b>in order</b>. If you do not remember<br>a particular letter, you will have the option to leave it blank.<br><br><br><br></div>",0,ospan,instruct,hKPiDoSwx6SUDqcotdIFxnA6qNq2,html-button-response,56,520778,0.0-46.0-0.0-0.0-2.0,,,,,,,,,,,,,,,5c3d48955fd1050001a99364,11:38:33,04/04/2024
1514.5999999642372,"<div class = 'left_align' style='font-size: 3.25rem; line-height: 1.3;'>Remember, it is very important to get the letters in the same<br>order as you see them.<br><br>When you are ready, you may begin the letter practice.</div><br><br><br><br>",0,ospan,instruct,hKPiDoSwx6SUDqcotdIFxnA6qNq2,html-button-response,57,522556,0.0-46.0-0.0-0.0-3.0,,,,,,,,,,,,,,,5c3d48955fd1050001a99364,11:38:33,04/04/2024
,"<p style=""font-size:75px;"">...</p>",,ospan,iti,hKPiDoSwx6SUDqcotdIFxnA6qNq2,html-keyboard-response,58,523823,0.0-46.0-0.0-1.0-0.0,,,,,,,,,,,,,,,5c3d48955fd1050001a99364,11:38:33,04/04/2024
,"<div style=""font-size: 10rem; color: #0000FF"">H</div>",,ospan,letter,hKPiDoSwx6SUDqcotdIFxnA6qNq2,html-keyboard-response,59,524843,0.0-46.0-0.0-1.0-1.0,,,,,,,,,,,,,,,5c3d48955fd1050001a99364,11:38:33,04/04/2024
,"<div style=""font-size: 10rem; color: #0000FF"">G</div>",,ospan,letter,hKPiDoSwx6SUDqcotdIFxnA6qNq2,html-keyboard-response,60,526610,0.0-46.0-0.0-1.0-2.0,,,,,,,,,,,,,,,5c3d48955fd1050001a99364,11:38:33,04/04/2024
6787.399999976158,"<div class = numbox><p style=""font-size: 2.4rem"">Please recall the letters you saw to the best of your ability. If you do not remember a particular letter, use the SKIP button.<br><b>(When you are ready to lock in your answer, press ENTER)</b></p><button id = button_1 class = ""square num-button"" onclick = ""recordClick(this)""><div class = content><div class = numbers>C</div></div></button><button id = button_2 class = ""square num-button"" onclick = ""recordClick(this)""><div class = content><div class = numbers>G</div></div></button><button id = button_3 class = ""square num-button"" onclick = ""recordClick(this)""><div class = content><div class = numbers>H</div></div></button><button id = button_4 class = ""square num-button"" onclick = ""recordClick(this)""><div class = content><div class = numbers>J</div></div></button><button id = button_5 class = ""square num-button"" onclick = ""recordClick(this)""><div class = content><div class = numbers>K</div></div></button><button id = button_6 class = ""square num-button"" onclick = ""recordClick(this)""><div class = content><div class = numbers>L</div></div></button><button id = button_7 class = ""square num-button"" onclick = ""recordClick(this)""><div class = content><div class = numbers>N</div></div></button><button id = button_8 class = ""square num-button"" onclick = ""recordClick(this)""><div class = content><div class = numbers>P</div></div></button><button id = button_9 class = ""square num-button"" onclick = ""recordClick(this)""><div class = content><div class = numbers>Q</div></div></button><button id = button_10 class = ""square num-button"" onclick = ""recordClick(this)""><div class = content><div class = numbers>R</div></div></button><button id = button_11 class = ""square num-button"" onclick = ""recordClick(this)""><div class = content><div class = numbers>S</div></div></button><button id = button_12 class = ""square num-button"" onclick = ""recordClick(this)""><div class = content><div class = numbers>Y</div></div></button><button class = clear_button id = ""ClearButton"" onclick = ""clearResponse()"">BACKSPACE</button><button class = blank_button id = ""BlankButton"" onclick = ""blankResponse()"">SKIP</button><p style=""font-size: 2.4rem""><u><b>Current Answer:</b></u></p><br><br><div id=echoed_txt style=""font-size: 5rem; color:blue;""><b></b></div></div>",enter,ospan,retrieval,hKPiDoSwx6SUDqcotdIFxnA6qNq2,html-keyboard-response,61,534150,0.0-46.0-0.0-1.0-3.0,NA,NA,NA,2.0,"[""H"",""G""]","[""H"",""G""]",1.0,2.0,"['<font color=""green"">H</font>', '<font color=""green"">G</font>']",,,,,,5c3d48955fd1050001a99364,11:38:33,04/04/2024
2821.099999964237,"['<p style=""font-size:44px"">Letters:<br><br><br><font color=""green"">H</font> <font color=""green"">G</font></p><br><br>']",0,ospan,practice_feedback,hKPiDoSwx6SUDqcotdIFxnA6qNq2,html-button-response,62,537483,0.0-46.0-0.0-1.0-4.0,,,,,,,,,,,,,,,5c3d48955fd1050001a99364,11:38:33,04/04/2024
,"<p style=""font-size:75px;"">...</p>",,ospan,iti,hKPiDoSwx6SUDqcotdIFxnA6qNq2,html-keyboard-response,63,538487,0.0-46.0-0.0-2.0-0.0,,,,,,,,,,,,,,,5c3d48955fd1050001a99364,11:38:33,04/04/2024
,"<div style=""font-size: 10rem; color: #0000FF"">K</div>",,ospan,letter,hKPiDoSwx6SUDqcotdIFxnA6qNq2,html-keyboard-response,64,539501,0.0-46.0-0.0-2.0-1.0,,,,,,,,,,,,,,,5c3d48955fd1050001a99364,11:38:33,04/04/2024
,"<div style=""font-size: 10rem; color: #0000FF"">Q</div>",,ospan,letter,hKPiDoSwx6SUDqcotdIFxnA6qNq2,html-keyboard-response,65,541274,0.0-46.0-0.0-2.0-2.0,,,,,,,,,,,,,,,5c3d48955fd1050001a99364,11:38:33,04/04/2024
,"<div style=""font-size: 10rem; color: #0000FF"">L</div>",,ospan,letter,hKPiDoSwx6SUDqcotdIFxnA6qNq2,html-keyboard-response,66,543041,0.0-46.0-0.0-2.0-3.0,,,,,,,,,,,,,,,5c3d48955fd1050001a99364,11:38:33,04/04/2024
4905.099999964237,"<div class = numbox><p style=""font-size: 2.4rem"">Please recall the letters you saw to the best of your ability. If you do not remember a particular letter, use the SKIP button.<br><b>(When you are ready to lock in your answer, press ENTER)</b></p><button id = button_1 class = ""square num-button"" onclick = ""recordClick(this)""><div class = content><div class = numbers>C</div></div></button><button id = button_2 class = ""square num-button"" onclick = ""recordClick(this)""><div class = content><div class = numbers>G</div></div></button><button id = button_3 class = ""square num-button"" onclick = ""recordClick(this)""><div class = content><div class = numbers>H</div></div></button><button id = button_4 class = ""square num-button"" onclick = ""recordClick(this)""><div class = content><div class = numbers>J</div></div></button><button id = button_5 class = ""square num-button"" onclick = ""recordClick(this)""><div class = content><div class = numbers>K</div></div></button><button id = button_6 class = ""square num-button"" onclick = ""recordClick(this)""><div class = content><div class = numbers>L</div></div></button><button id = button_7 class = ""square num-button"" onclick = ""recordClick(this)""><div class = content><div class = numbers>N</div></div></button><button id = button_8 class = ""square num-button"" onclick = ""recordClick(this)""><div class = content><div class = numbers>P</div></div></button><button id = button_9 class = ""square num-button"" onclick = ""recordClick(this)""><div class = content><div class = numbers>Q</div></div></button><button id = button_10 class = ""square num-button"" onclick = ""recordClick(this)""><div class = content><div class = numbers>R</div></div></button><button id = button_11 class = ""square num-button"" onclick = ""recordClick(this)""><div class = content><div class = numbers>S</div></div></button><button id = button_12 class = ""square num-button"" onclick = ""recordClick(this)""><div class = content><div class = numbers>Y</div></div></button><button class = clear_button id = ""ClearButton"" onclick = ""clearResponse()"">BACKSPACE</button><button class = blank_button id = ""BlankButton"" onclick = ""blankResponse()"">SKIP</button><p style=""font-size: 2.4rem""><u><b>Current Answer:</b></u></p><br><br><div id=echoed_txt style=""font-size: 5rem; color:blue;""><b></b></div></div>",enter,ospan,retrieval,hKPiDoSwx6SUDqcotdIFxnA6qNq2,html-keyboard-response,67,548698,0.0-46.0-0.0-2.0-4.0,NA,NA,NA,3.0,"[""K"",""Q"",""L""]","[""K"",""Q"",""L""]",1.0,3.0,"['<font color=""green"">K</font>', '<font color=""green"">Q</font>', '<font color=""green"">L</font>']",,,,,,5c3d48955fd1050001a99364,11:38:33,04/04/2024
1755.6000000238419,"['<p style=""font-size:44px"">Letters:<br><br><br><font color=""green"">K</font> <font color=""green"">Q</font> <font color=""green"">L</font></p><br><br>']",0,ospan,practice_feedback,hKPiDoSwx6SUDqcotdIFxnA6qNq2,html-button-response,68,550964,0.0-46.0-0.0-2.0-5.0,,,,,,,,,,,,,,,5c3d48955fd1050001a99364,11:38:33,04/04/2024
16016.300000011921,"<div class = 'left_align' style='font-size: 3.25rem; line-height: 1.3;'>Now you will practice doing the <b>symmetry judgment part</b> of the experiment.<br><br>A black and white grid picture will appear on the screen and you have to judge if it is <br>symmetrical or asymetrical.<br><br>A picture is 'mirror' symmetrical if its left half is identical to the right half when flipped.<br>Here are examples of a symmetrical and an asymetrical picture:<br><br><center><img src='Stimuli/img/symm_instructions_extra.png' style='height:420px; width:900'></img></center><br>To judge symmetry, imagine you were to fold each picture down the middle, like a book –<br>would the left half match the right half when folded onto each other?<br><br></div><br>",0,ospan,instruct,hKPiDoSwx6SUDqcotdIFxnA6qNq2,html-button-response,69,566982,0.0-46.0-1.0-0.0-0.0,,,,,,,,,,,,,,,5c3d48955fd1050001a99364,11:38:33,04/04/2024
5581.699999988079,"<div class = 'left_align' style='font-size: 3.25rem; line-height: 1.3;'>When you have viewed the picture and determined whether it is symmetrical or not,<br>you can <b>click the Yes or No button</b> below to answer.<br><br>If you take longer than 15 seconds, it will continue automatically<br>and record the answer as an error.</div><br>",0,ospan,instruct,hKPiDoSwx6SUDqcotdIFxnA6qNq2,html-button-response,70,572822,0.0-46.0-1.0-0.0-1.0,,,,,,,,,,,,,,,5c3d48955fd1050001a99364,11:38:33,04/04/2024
1049.8999999761581,"<div class = 'left_align' style='font-size: 3.25rem; line-height: 1.3;'>It is <b>very</b> important that you make the symmetry judgment correctly.<br><br>It is also important that you try and judge the picture as quickly as you can.<br><br>When you are ready, click on the button below to try some practice problems.</div><br><br><br><br>",0,ospan,instruct,hKPiDoSwx6SUDqcotdIFxnA6qNq2,html-button-response,71,574137,0.0-46.0-1.0-0.0-2.0,,,,,,,,,,,,,,,5c3d48955fd1050001a99364,11:38:33,04/04/2024
3260.0,,,ospan,symmetry,hKPiDoSwx6SUDqcotdIFxnA6qNq2,symmetry-judgement-task,72,578235,0.0-46.0-1.0-1.0-0.0,,,,,,,,,,1.0,1.0,,,,5c3d48955fd1050001a99364,11:38:33,04/04/2024
,"<p style=""color:green; font-size: 35px"">Correct</p>",,ospan,feedback,hKPiDoSwx6SUDqcotdIFxnA6qNq2,html-keyboard-response,73,579002,0.0-46.0-1.0-1.0-1.0,,,,,,,,,,,,,,,5c3d48955fd1050001a99364,11:38:33,04/04/2024
3698.0,,,ospan,symmetry,hKPiDoSwx6SUDqcotdIFxnA6qNq2,symmetry-judgement-task,74,585487,0.0-46.0-1.0-1.0-2.0,,,,,,,,,,1.0,1.0,,,,5c3d48955fd1050001a99364,11:38:33,04/04/2024
,"<p style=""color:green; font-size: 35px"">Correct</p>",,ospan,feedback,hKPiDoSwx6SUDqcotdIFxnA6qNq2,html-keyboard-response,75,586252,0.0-46.0-1.0-1.0-3.0,,,,,,,,,,,,,,,5c3d48955fd1050001a99364,11:38:33,04/04/2024
2496.0,,,ospan,symmetry,hKPiDoSwx6SUDqcotdIFxnA6qNq2,symmetry-judgement-task,76,591568,0.0-46.0-1.0-1.0-4.0,,,,,,,,,,1.0,1.0,,,,5c3d48955fd1050001a99364,11:38:33,04/04/2024
,"<p style=""color:green; font-size: 35px"">Correct</p>",,ospan,feedback,hKPiDoSwx6SUDqcotdIFxnA6qNq2,html-keyboard-response,77,592335,0.0-46.0-1.0-1.0-5.0,,,,,,,,,,,,,,,5c3d48955fd1050001a99364,11:38:33,04/04/2024
9651.100000023842,"<p style=""font-size: 3rem;"">You responded correctly on 3 of 3 symmetry judgments. Good job!</p><br><br>",0,ospan,practice,hKPiDoSwx6SUDqcotdIFxnA6qNq2,html-button-response,78,604002,0.0-46.0-1.0-2.0,,,,,,,,,,,,,,,5c3d48955fd1050001a99364,11:38:33,04/04/2024
3520.400000035763,"<div class = 'left_align' style='font-size: 3.25rem; line-height: 1.3;'>Now you will practice doing both parts of the experiment at the same time.<br><br>In the next practice set, you will be given one grid picture to judge.<br>Then letter will appear on the screen. Try to remember the letter.<br><br>It is <b>very important</b> to make the symmetry judgment as quickly and accurately as possible.<br><br>Just as before, once you have make the symmetry judgment, you can click Yes or No.<br><b>Note that you will no longer see Correct or Incorrect feedback.</div><br><br><br><br>",0,ospan,instruct,hKPiDoSwx6SUDqcotdIFxnA6qNq2,html-button-response,79,607775,0.0-46.0-2.0-0.0-0.0,,,,,,,,,,,,,,,5c3d48955fd1050001a99364,11:38:33,04/04/2024
1103.1000000238419,"<div class = 'left_align' style='font-size: 3.25rem; line-height: 1.3;'>After the letter goes away, another grid picture will appear, and then<br>another letter.<br><br>At the end of each set of letters and grids, you will recall the letters to the best<br>of your ability. Remember, try your best to get the letters in the correct order.<br><br>It is important to <b>quickly</b> and <b>accurately</b> make the symmetry judgments.</div><br><br><br><br>",0,ospan,instruct,hKPiDoSwx6SUDqcotdIFxnA6qNq2,html-button-response,80,609136,0.0-46.0-2.0-0.0-1.0,,,,,,,,,,,,,,,5c3d48955fd1050001a99364,11:38:33,04/04/2024
1107.199999988079,"<div class = 'left_align' style='font-size: 3.25rem; line-height: 1.3;'>On the feedback screen, if you are not doing well at the symmetry judgments,<br>you will also see a warning in the middle. This indicates your percent <br>correct for the grid pictures for the entire experiment.<br><br>It is <b>very</b> important for you to keep accuracy at least at 85%: <u>We can only use<br>data where the participant was at least 85% accurate on the judgments.</u> Therefore,<br> please try your best to perform well on the symmetry judgments, <b>at the same time</b><br>doing your best to recall as many letters as possible.<br><br>Click the button to try some practice problems.</div><br><br><br><br>",0,ospan,instruct,hKPiDoSwx6SUDqcotdIFxnA6qNq2,html-button-response,81,610507,0.0-46.0-2.0-0.0-2.0,,,,,,,,,,,,,,,5c3d48955fd1050001a99364,11:38:33,04/04/2024
,"<p style=""font-size:75px;"">...</p>",,ospan,iti,hKPiDoSwx6SUDqcotdIFxnA6qNq2,html-keyboard-response,82,611767,0.0-46.0-2.0-1.0-0.0,,,,,,,,,,,,,,,5c3d48955fd1050001a99364,11:38:33,04/04/2024
3234.0,,,ospan,symmetry,hKPiDoSwx6SUDqcotdIFxnA6qNq2,symmetry-judgement-task,83,616281,0.0-46.0-2.0-1.0-1.0-0.0,,,,,,,,,,1.0,1.0,,,,5c3d48955fd1050001a99364,11:38:33,04/04/2024
,"<div style=""font-size: 10rem; color: #0000FF"">N</div>",,ospan,letter,hKPiDoSwx6SUDqcotdIFxnA6qNq2,html-keyboard-response,84,617297,0.0-46.0-2.0-1.0-1.0-1.0,,,,,,,,,,,,,,,5c3d48955fd1050001a99364,11:38:33,04/04/2024
2344.0,,,ospan,symmetry,hKPiDoSwx6SUDqcotdIFxnA6qNq2,symmetry-judgement-task,85,621692,0.0-46.0-2.0-1.0-1.0-2.0,,,,,,,,,,1.0,1.0,,,,5c3d48955fd1050001a99364,11:38:33,04/04/2024
,"<div style=""font-size: 10rem; color: #0000FF"">Y</div>",,ospan,letter,hKPiDoSwx6SUDqcotdIFxnA6qNq2,html-keyboard-response,86,622699,0.0-46.0-2.0-1.0-1.0-3.0,,,,,,,,,,,,,,,5c3d48955fd1050001a99364,11:38:33,04/04/2024
3368.0,,,ospan,symmetry,hKPiDoSwx6SUDqcotdIFxnA6qNq2,symmetry-judgement-task,87,628130,0.0-46.0-2.0-1.0-1.0-4.0,,,,,,,,,,1.0,1.0,,,,5c3d48955fd1050001a99364,11:38:33,04/04/2024
,"<div style=""font-size: 10rem; color: #0000FF"">S</div>",,ospan,letter,hKPiDoSwx6SUDqcotdIFxnA6qNq2,html-keyboard-response,88,629146,0.0-46.0-2.0-1.0-1.0-5.0,,,,,,,,,,,,,,,5c3d48955fd1050001a99364,11:38:33,04/04/2024
4735.300000011921,"<div class = numbox><p style=""font-size: 2.4rem"">Please recall the letters you saw to the best of your ability. If you do not remember a particular letter, use the SKIP button.<br><b>(When you are ready to lock in your answer, press ENTER)</b></p><button id = button_1 class = ""square num-button"" onclick = ""recordClick(this)""><div class = content><div class = numbers>C</div></div></button><button id = button_2 class = ""square num-button"" onclick = ""recordClick(this)""><div class = content><div class = numbers>G</div></div></button><button id = button_3 class = ""square num-button"" onclick = ""recordClick(this)""><div class = content><div class = numbers>H</div></div></button><button id = button_4 class = ""square num-button"" onclick = ""recordClick(this)""><div class = content><div class = numbers>J</div></div></button><button id = button_5 class = ""square num-button"" onclick = ""recordClick(this)""><div class = content><div class = numbers>K</div></div></button><button id = button_6 class = ""square num-button"" onclick = ""recordClick(this)""><div class = content><div class = numbers>L</div></div></button><button id = button_7 class = ""square num-button"" onclick = ""recordClick(this)""><div class = content><div class = numbers>N</div></div></button><button id = button_8 class = ""square num-button"" onclick = ""recordClick(this)""><div class = content><div class = numbers>P</div></div></button><button id = button_9 class = ""square num-button"" onclick = ""recordClick(this)""><div class = content><div class = numbers>Q</div></div></button><button id = button_10 class = ""square num-button"" onclick = ""recordClick(this)""><div class = content><div class = numbers>R</div></div></button><button id = button_11 class = ""square num-button"" onclick = ""recordClick(this)""><div class = content><div class = numbers>S</div></div></button><button id = button_12 class = ""square num-button"" onclick = ""recordClick(this)""><div class = content><div class = numbers>Y</div></div></button><button class = clear_button id = ""ClearButton"" onclick = ""clearResponse()"">BACKSPACE</button><button class = blank_button id = ""BlankButton"" onclick = ""blankResponse()"">SKIP</button><p style=""font-size: 2.4rem""><u><b>Current Answer:</b></u></p><br><br><div id=echoed_txt style=""font-size: 5rem; color:blue;""><b></b></div></div>",enter,ospan,retrieval,hKPiDoSwx6SUDqcotdIFxnA6qNq2,html-keyboard-response,89,634633,0.0-46.0-2.0-1.0-2.0-0.0,NA,NA,NA,3.0,"[""N"",""Y"",""S""]","[""N"",""Y"",""S""]",1.0,3.0,"['<font color=""green"">N</font>', '<font color=""green"">Y</font>', '<font color=""green"">S</font>']",,,,,,5c3d48955fd1050001a99364,11:38:33,04/04/2024
1852.6000000238419,"['<p style=""font-size:44px"">Letters:<br><br><br><font color=""green"">N</font> <font color=""green"">Y</font> <font color=""green"">S</font></p><br><br><p style=""font-size:30px"">Symmetry:<br><br><font color=""green"">100%</font></p><br><br>']",0,ospan,practice_feedback,hKPiDoSwx6SUDqcotdIFxnA6qNq2,html-button-response,90,637000,0.0-46.0-2.0-1.0-2.0-1.0,,,,,,,,,,,,,,,5c3d48955fd1050001a99364,11:38:33,04/04/2024
,"<p style=""font-size:75px;"">...</p>",,ospan,iti,hKPiDoSwx6SUDqcotdIFxnA6qNq2,html-keyboard-response,91,638008,0.0-46.0-2.0-2.0-0.0,,,,,,,,,,,,,,,5c3d48955fd1050001a99364,11:38:33,04/04/2024
3116.0,,,ospan,symmetry,hKPiDoSwx6SUDqcotdIFxnA6qNq2,symmetry-judgement-task,92,642430,0.0-46.0-2.0-2.0-1.0-0.0,,,,,,,,,,1.0,1.0,,,,5c3d48955fd1050001a99364,11:38:33,04/04/2024
,"<div style=""font-size: 10rem; color: #0000FF"">R</div>",,ospan,letter,hKPiDoSwx6SUDqcotdIFxnA6qNq2,html-keyboard-response,93,643433,0.0-46.0-2.0-2.0-1.0-1.0,,,,,,,,,,,,,,,5c3d48955fd1050001a99364,11:38:33,04/04/2024
2136.0,,,ospan,symmetry,hKPiDoSwx6SUDqcotdIFxnA6qNq2,symmetry-judgement-task,94,647598,0.0-46.0-2.0-2.0-1.0-2.0,,,,,,,,,,1.0,1.0,,,,5c3d48955fd1050001a99364,11:38:33,04/04/2024
,"<div style=""font-size: 10rem; color: #0000FF"">P</div>",,ospan,letter,hKPiDoSwx6SUDqcotdIFxnA6qNq2,html-keyboard-response,95,648610,0.0-46.0-2.0-2.0-1.0-3.0,,,,,,,,,,,,,,,5c3d48955fd1050001a99364,11:38:33,04/04/2024
1321.0,,,ospan,symmetry,hKPiDoSwx6SUDqcotdIFxnA6qNq2,symmetry-judgement-task,96,651994,0.0-46.0-2.0-2.0-1.0-4.0,,,,,,,,,,1.0,1.0,,,,5c3d48955fd1050001a99364,11:38:33,04/04/2024
,"<div style=""font-size: 10rem; color: #0000FF"">K</div>",,ospan,letter,hKPiDoSwx6SUDqcotdIFxnA6qNq2,html-keyboard-response,97,653009,0.0-46.0-2.0-2.0-1.0-5.0,,,,,,,,,,,,,,,5c3d48955fd1050001a99364,11:38:33,04/04/2024
4719.700000047684,"<div class = numbox><p style=""font-size: 2.4rem"">Please recall the letters you saw to the best of your ability. If you do not remember a particular letter, use the SKIP button.<br><b>(When you are ready to lock in your answer, press ENTER)</b></p><button id = button_1 class = ""square num-button"" onclick = ""recordClick(this)""><div class = content><div class = numbers>C</div></div></button><button id = button_2 class = ""square num-button"" onclick = ""recordClick(this)""><div class = content><div class = numbers>G</div></div></button><button id = button_3 class = ""square num-button"" onclick = ""recordClick(this)""><div class = content><div class = numbers>H</div></div></button><button id = button_4 class = ""square num-button"" onclick = ""recordClick(this)""><div class = content><div class = numbers>J</div></div></button><button id = button_5 class = ""square num-button"" onclick = ""recordClick(this)""><div class = content><div class = numbers>K</div></div></button><button id = button_6 class = ""square num-button"" onclick = ""recordClick(this)""><div class = content><div class = numbers>L</div></div></button><button id = button_7 class = ""square num-button"" onclick = ""recordClick(this)""><div class = content><div class = numbers>N</div></div></button><button id = button_8 class = ""square num-button"" onclick = ""recordClick(this)""><div class = content><div class = numbers>P</div></div></button><button id = button_9 class = ""square num-button"" onclick = ""recordClick(this)""><div class = content><div class = numbers>Q</div></div></button><button id = button_10 class = ""square num-button"" onclick = ""recordClick(this)""><div class = content><div class = numbers>R</div></div></button><button id = button_11 class = ""square num-button"" onclick = ""recordClick(this)""><div class = content><div class = numbers>S</div></div></button><button id = button_12 class = ""square num-button"" onclick = ""recordClick(this)""><div class = content><div class = numbers>Y</div></div></button><button class = clear_button id = ""ClearButton"" onclick = ""clearResponse()"">BACKSPACE</button><button class = blank_button id = ""BlankButton"" onclick = ""blankResponse()"">SKIP</button><p style=""font-size: 2.4rem""><u><b>Current Answer:</b></u></p><br><br><div id=echoed_txt style=""font-size: 5rem; color:blue;""><b></b></div></div>",enter,ospan,retrieval,hKPiDoSwx6SUDqcotdIFxnA6qNq2,html-keyboard-response,98,658482,0.0-46.0-2.0-2.0-2.0-0.0,NA,NA,NA,3.0,"[""R"",""P"",""K""]","[""R"",""P"",""K""]",1.0,3.0,"['<font color=""green"">R</font>', '<font color=""green"">P</font>', '<font color=""green"">K</font>']",,,,,,5c3d48955fd1050001a99364,11:38:33,04/04/2024
1568.6000000238419,"['<p style=""font-size:44px"">Letters:<br><br><br><font color=""green"">R</font> <font color=""green"">P</font> <font color=""green"">K</font></p><br><br><p style=""font-size:30px"">Symmetry:<br><br><font color=""green"">100%</font></p><br><br>']",0,ospan,practice_feedback,hKPiDoSwx6SUDqcotdIFxnA6qNq2,html-button-response,99,660563,0.0-46.0-2.0-2.0-2.0-1.0,,,,,,,,,,,,,,,5c3d48955fd1050001a99364,11:38:33,04/04/2024
7612.199999988079,"<div class = 'left_align' style='font-size: 3rem; line-height: 1.3;'><b>Great work! That is the end of practice.</b><br><br>The real trials will look just like the practice trials you just completed.<br><br><u>Here, you will not see feedback</u>. First, you will see an grid picture to judge,<br>then a letter to remember. When the recall screen appears, report the letters in the<br>order presented. If you forget a letter, remember to use the <b>blank</b> button to move to the<br>next letter. Some of the sets will have more symmetry grids and letters than others.<br><br>It is important that you do your best on both the symmetry judgments and the letter recall<br>parts of the experiment. For for the symmetry judgments, try to work as <b>quickly</b> and <br>as <b>accurately</b> as possible. Remember to keep your symmetry accuracy at 85% or above.<br><br><b>For the letters, do NOT use any external aid (e.g., writing on paper, electronic device).</b><br><br>It is <u>very important</u> to our experiment to have a <b>true</b> view of your real performance.<br><br>Do not worry if you miss some when it gets hard! This task is meant to be very challenging!<br><br>Click the button to begin.</div><br><br><br><br>",0,ospan,starting_real_here,hKPiDoSwx6SUDqcotdIFxnA6qNq2,html-button-response,100,668177,0.0-46.0-2.0-3.0,,,,,,,,,,,,,,,5c3d48955fd1050001a99364,11:38:33,04/04/2024
,"<p style=""font-size:75px;"">...</p>",,ospan,iti,hKPiDoSwx6SUDqcotdIFxnA6qNq2,html-keyboard-response,101,669451,0.0-46.0-3.0-0.0-0.0,,,,,,,,,,,,,,,5c3d48955fd1050001a99364,11:38:33,04/04/2024
2241.0,,,ospan,symmetry,hKPiDoSwx6SUDqcotdIFxnA6qNq2,symmetry-judgement-task,102,672990,0.0-46.0-3.0-0.0-1.0-0.0,,,,,,,,,,1.0,1.0,,,,5c3d48955fd1050001a99364,11:38:33,04/04/2024
,"<div style=""font-size: 10rem; color: #0000FF"">K</div>",,ospan,letter,hKPiDoSwx6SUDqcotdIFxnA6qNq2,html-keyboard-response,103,674003,0.0-46.0-3.0-0.0-1.0-1.0,,,,,,,,,,,,,,,5c3d48955fd1050001a99364,11:38:33,04/04/2024
2123.0,,,ospan,symmetry,hKPiDoSwx6SUDqcotdIFxnA6qNq2,symmetry-judgement-task,104,678158,0.0-46.0-3.0-0.0-1.0-2.0,,,,,,,,,,1.0,1.0,,,,5c3d48955fd1050001a99364,11:38:33,04/04/2024
,"<div style=""font-size: 10rem; color: #0000FF"">R</div>",,ospan,letter,hKPiDoSwx6SUDqcotdIFxnA6qNq2,html-keyboard-response,105,679174,0.0-46.0-3.0-0.0-1.0-3.0,,,,,,,,,,,,,,,5c3d48955fd1050001a99364,11:38:33,04/04/2024
1623.0,,,ospan,symmetry,hKPiDoSwx6SUDqcotdIFxnA6qNq2,symmetry-judgement-task,106,682857,0.0-46.0-3.0-0.0-1.0-4.0,,,,,,,,,,1.0,1.0,,,,5c3d48955fd1050001a99364,11:38:33,04/04/2024
,"<div style=""font-size: 10rem; color: #0000FF"">S</div>",,ospan,letter,hKPiDoSwx6SUDqcotdIFxnA6qNq2,html-keyboard-response,107,683865,0.0-46.0-3.0-0.0-1.0-5.0,,,,,,,,,,,,,,,5c3d48955fd1050001a99364,11:38:33,04/04/2024
4854.900000035763,"<div class = numbox><p style=""font-size: 2.4rem"">Please recall the letters you saw to the best of your ability. If you do not remember a particular letter, use the SKIP button.<br><b>(When you are ready to lock in your answer, press ENTER)</b></p><button id = button_1 class = ""square num-button"" onclick = ""recordClick(this)""><div class = content><div class = numbers>C</div></div></button><button id = button_2 class = ""square num-button"" onclick = ""recordClick(this)""><div class = content><div class = numbers>G</div></div></button><button id = button_3 class = ""square num-button"" onclick = ""recordClick(this)""><div class = content><div class = numbers>H</div></div></button><button id = button_4 class = ""square num-button"" onclick = ""recordClick(this)""><div class = content><div class = numbers>J</div></div></button><button id = button_5 class = ""square num-button"" onclick = ""recordClick(this)""><div class = content><div class = numbers>K</div></div></button><button id = button_6 class = ""square num-button"" onclick = ""recordClick(this)""><div class = content><div class = numbers>L</div></div></button><button id = button_7 class = ""square num-button"" onclick = ""recordClick(this)""><div class = content><div class = numbers>N</div></div></button><button id = button_8 class = ""square num-button"" onclick = ""recordClick(this)""><div class = content><div class = numbers>P</div></div></button><button id = button_9 class = ""square num-button"" onclick = ""recordClick(this)""><div class = content><div class = numbers>Q</div></div></button><button id = button_10 class = ""square num-button"" onclick = ""recordClick(this)""><div class = content><div class = numbers>R</div></div></button><button id = button_11 class = ""square num-button"" onclick = ""recordClick(this)""><div class = content><div class = numbers>S</div></div></button><button id = button_12 class = ""square num-button"" onclick = ""recordClick(this)""><div class = content><div class = numbers>Y</div></div></button><button class = clear_button id = ""ClearButton"" onclick = ""clearResponse()"">BACKSPACE</button><button class = blank_button id = ""BlankButton"" onclick = ""blankResponse()"">SKIP</button><p style=""font-size: 2.4rem""><u><b>Current Answer:</b></u></p><br><br><div id=echoed_txt style=""font-size: 5rem; color:blue;""><b></b></div></div>",enter,ospan,retrieval,hKPiDoSwx6SUDqcotdIFxnA6qNq2,html-keyboard-response,108,689485,0.0-46.0-3.0-0.0-2.0,3,3,3,3.0,"[""K"",""R"",""S""]","[""K"",""R"",""S""]",1.0,3.0,,,,,,,5c3d48955fd1050001a99364,11:38:33,04/04/2024
1234.9000000357628,[''],0,ospan,feedback,hKPiDoSwx6SUDqcotdIFxnA6qNq2,html-button-response,109,691226,0.0-46.0-3.0-0.0-3.0,,,,,,,,,,,,100.0,0.0,,5c3d48955fd1050001a99364,11:38:33,04/04/2024
,"<p style=""font-size:75px;"">...</p>",,ospan,iti,hKPiDoSwx6SUDqcotdIFxnA6qNq2,html-keyboard-response,110,692229,0.0-46.0-4.0-0.0-0.0,,,,,,,,,,,,,,,5c3d48955fd1050001a99364,11:38:33,04/04/2024
1771.0,,,ospan,symmetry,hKPiDoSwx6SUDqcotdIFxnA6qNq2,symmetry-judgement-task,111,695298,0.0-46.0-4.0-0.0-1.0-0.0,,,,,,,,,,1.0,1.0,,,,5c3d48955fd1050001a99364,11:38:33,04/04/2024
,"<div style=""font-size: 10rem; color: #0000FF"">G</div>",,ospan,letter,hKPiDoSwx6SUDqcotdIFxnA6qNq2,html-keyboard-response,112,696301,0.0-46.0-4.0-0.0-1.0-1.0,,,,,,,,,,,,,,,5c3d48955fd1050001a99364,11:38:33,04/04/2024
1576.0,,,ospan,symmetry,hKPiDoSwx6SUDqcotdIFxnA6qNq2,symmetry-judgement-task,113,699904,0.0-46.0-4.0-0.0-1.0-2.0,,,,,,,,,,1.0,1.0,,,,5c3d48955fd1050001a99364,11:38:33,04/04/2024
,"<div style=""font-size: 10rem; color: #0000FF"">N</div>",,ospan,letter,hKPiDoSwx6SUDqcotdIFxnA6qNq2,html-keyboard-response,114,700916,0.0-46.0-4.0-0.0-1.0-3.0,,,,,,,,,,,,,,,5c3d48955fd1050001a99364,11:38:33,04/04/2024
1761.0,,,ospan,symmetry,hKPiDoSwx6SUDqcotdIFxnA6qNq2,symmetry-judgement-task,115,704748,0.0-46.0-4.0-0.0-1.0-4.0,,,,,,,,,,1.0,1.0,,,,5c3d48955fd1050001a99364,11:38:33,04/04/2024
,"<div style=""font-size: 10rem; color: #0000FF"">Q</div>",,ospan,letter,hKPiDoSwx6SUDqcotdIFxnA6qNq2,html-keyboard-response,116,705755,0.0-46.0-4.0-0.0-1.0-5.0,,,,,,,,,,,,,,,5c3d48955fd1050001a99364,11:38:33,04/04/2024
1953.0,,,ospan,symmetry,hKPiDoSwx6SUDqcotdIFxnA6qNq2,symmetry-judgement-task,117,709770,0.0-46.0-4.0-0.0-1.0-6.0,,,,,,,,,,1.0,1.0,,,,5c3d48955fd1050001a99364,11:38:33,04/04/2024
,"<div style=""font-size: 10rem; color: #0000FF"">R</div>",,ospan,letter,hKPiDoSwx6SUDqcotdIFxnA6qNq2,html-keyboard-response,118,710785,0.0-46.0-4.0-0.0-1.0-7.0,,,,,,,,,,,,,,,5c3d48955fd1050001a99364,11:38:33,04/04/2024
4864.600000023842,"<div class = numbox><p style=""font-size: 2.4rem"">Please recall the letters you saw to the best of your ability. If you do not remember a particular letter, use the SKIP button.<br><b>(When you are ready to lock in your answer, press ENTER)</b></p><button id = button_1 class = ""square num-button"" onclick = ""recordClick(this)""><div class = content><div class = numbers>C</div></div></button><button id = button_2 class = ""square num-button"" onclick = ""recordClick(this)""><div class = content><div class = numbers>G</div></div></button><button id = button_3 class = ""square num-button"" onclick = ""recordClick(this)""><div class = content><div class = numbers>H</div></div></button><button id = button_4 class = ""square num-button"" onclick = ""recordClick(this)""><div class = content><div class = numbers>J</div></div></button><button id = button_5 class = ""square num-button"" onclick = ""recordClick(this)""><div class = content><div class = numbers>K</div></div></button><button id = button_6 class = ""square num-button"" onclick = ""recordClick(this)""><div class = content><div class = numbers>L</div></div></button><button id = button_7 class = ""square num-button"" onclick = ""recordClick(this)""><div class = content><div class = numbers>N</div></div></button><button id = button_8 class = ""square num-button"" onclick = ""recordClick(this)""><div class = content><div class = numbers>P</div></div></button><button id = button_9 class = ""square num-button"" onclick = ""recordClick(this)""><div class = content><div class = numbers>Q</div></div></button><button id = button_10 class = ""square num-button"" onclick = ""recordClick(this)""><div class = content><div class = numbers>R</div></div></button><button id = button_11 class = ""square num-button"" onclick = ""recordClick(this)""><div class = content><div class = numbers>S</div></div></button><button id = button_12 class = ""square num-button"" onclick = ""recordClick(this)""><div class = content><div class = numbers>Y</div></div></button><button class = clear_button id = ""ClearButton"" onclick = ""clearResponse()"">BACKSPACE</button><button class = blank_button id = ""BlankButton"" onclick = ""blankResponse()"">SKIP</button><p style=""font-size: 2.4rem""><u><b>Current Answer:</b></u></p><br><br><div id=echoed_txt style=""font-size: 5rem; color:blue;""><b></b></div></div>",enter,ospan,retrieval,hKPiDoSwx6SUDqcotdIFxnA6qNq2,html-keyboard-response,119,716402,0.0-46.0-4.0-0.0-2.0,7,7,7,4.0,"[""G"",""N"",""Q"",""R""]","[""G"",""N"",""Q"",""R""]",1.0,4.0,,,,,,,5c3d48955fd1050001a99364,11:38:33,04/04/2024
1260.800000011921,[''],0,ospan,feedback,hKPiDoSwx6SUDqcotdIFxnA6qNq2,html-button-response,120,718166,0.0-46.0-4.0-0.0-3.0,,,,,,,,,,,,100.0,0.0,,5c3d48955fd1050001a99364,11:38:33,04/04/2024
,"<p style=""font-size:75px;"">...</p>",,ospan,iti,hKPiDoSwx6SUDqcotdIFxnA6qNq2,html-keyboard-response,121,719177,0.0-46.0-4.0-1.0-0.0,,,,,,,,,,,,,,,5c3d48955fd1050001a99364,11:38:33,04/04/2024
1704.0,,,ospan,symmetry,hKPiDoSwx6SUDqcotdIFxnA6qNq2,symmetry-judgement-task,122,721949,0.0-46.0-4.0-1.0-1.0-0.0,,,,,,,,,,1.0,1.0,,,,5c3d48955fd1050001a99364,11:38:33,04/04/2024
,"<div style=""font-size: 10rem; color: #0000FF"">J</div>",,ospan,letter,hKPiDoSwx6SUDqcotdIFxnA6qNq2,html-keyboard-response,123,722951,0.0-46.0-4.0-1.0-1.0-1.0,,,,,,,,,,,,,,,5c3d48955fd1050001a99364,11:38:33,04/04/2024
2334.0,,,ospan,symmetry,hKPiDoSwx6SUDqcotdIFxnA6qNq2,symmetry-judgement-task,124,727332,0.0-46.0-4.0-1.0-1.0-2.0,,,,,,,,,,1.0,1.0,,,,5c3d48955fd1050001a99364,11:38:33,04/04/2024
,"<div style=""font-size: 10rem; color: #0000FF"">Q</div>",,ospan,letter,hKPiDoSwx6SUDqcotdIFxnA6qNq2,html-keyboard-response,125,728334,0.0-46.0-4.0-1.0-1.0-3.0,,,,,,,,,,,,,,,5c3d48955fd1050001a99364,11:38:33,04/04/2024
2184.0,,,ospan,symmetry,hKPiDoSwx6SUDqcotdIFxnA6qNq2,symmetry-judgement-task,126,732554,0.0-46.0-4.0-1.0-1.0-4.0,,,,,,,,,,1.0,1.0,,,,5c3d48955fd1050001a99364,11:38:33,04/04/2024
,"<div style=""font-size: 10rem; color: #0000FF"">P</div>",,ospan,letter,hKPiDoSwx6SUDqcotdIFxnA6qNq2,html-keyboard-response,127,733562,0.0-46.0-4.0-1.0-1.0-5.0,,,,,,,,,,,,,,,5c3d48955fd1050001a99364,11:38:33,04/04/2024
1415.0,,,ospan,symmetry,hKPiDoSwx6SUDqcotdIFxnA6qNq2,symmetry-judgement-task,128,737035,0.0-46.0-4.0-1.0-1.0-6.0,,,,,,,,,,1.0,1.0,,,,5c3d48955fd1050001a99364,11:38:33,04/04/2024
,"<div style=""font-size: 10rem; color: #0000FF"">S</div>",,ospan,letter,hKPiDoSwx6SUDqcotdIFxnA6qNq2,html-keyboard-response,129,738045,0.0-46.0-4.0-1.0-1.0-7.0,,,,,,,,,,,,,,,5c3d48955fd1050001a99364,11:38:33,04/04/2024
2016.0,,,ospan,symmetry,hKPiDoSwx6SUDqcotdIFxnA6qNq2,symmetry-judgement-task,130,742098,0.0-46.0-4.0-1.0-1.0-8.0,,,,,,,,,,1.0,1.0,,,,5c3d48955fd1050001a99364,11:38:33,04/04/2024
,"<div style=""font-size: 10rem; color: #0000FF"">L</div>",,ospan,letter,hKPiDoSwx6SUDqcotdIFxnA6qNq2,html-keyboard-response,131,743107,0.0-46.0-4.0-1.0-1.0-9.0,,,,,,,,,,,,,,,5c3d48955fd1050001a99364,11:38:33,04/04/2024
7068.099999964237,"<div class = numbox><p style=""font-size: 2.4rem"">Please recall the letters you saw to the best of your ability. If you do not remember a particular letter, use the SKIP button.<br><b>(When you are ready to lock in your answer, press ENTER)</b></p><button id = button_1 class = ""square num-button"" onclick = ""recordClick(this)""><div class = content><div class = numbers>C</div></div></button><button id = button_2 class = ""square num-button"" onclick = ""recordClick(this)""><div class = content><div class = numbers>G</div></div></button><button id = button_3 class = ""square num-button"" onclick = ""recordClick(this)""><div class = content><div class = numbers>H</div></div></button><button id = button_4 class = ""square num-button"" onclick = ""recordClick(this)""><div class = content><div class = numbers>J</div></div></button><button id = button_5 class = ""square num-button"" onclick = ""recordClick(this)""><div class = content><div class = numbers>K</div></div></button><button id = button_6 class = ""square num-button"" onclick = ""recordClick(this)""><div class = content><div class = numbers>L</div></div></button><button id = button_7 class = ""square num-button"" onclick = ""recordClick(this)""><div class = content><div class = numbers>N</div></div></button><button id = button_8 class = ""square num-button"" onclick = ""recordClick(this)""><div class = content><div class = numbers>P</div></div></button><button id = button_9 class = ""square num-button"" onclick = ""recordClick(this)""><div class = content><div class = numbers>Q</div></div></button><button id = button_10 class = ""square num-button"" onclick = ""recordClick(this)""><div class = content><div class = numbers>R</div></div></button><button id = button_11 class = ""square num-button"" onclick = ""recordClick(this)""><div class = content><div class = numbers>S</div></div></button><button id = button_12 class = ""square num-button"" onclick = ""recordClick(this)""><div class = content><div class = numbers>Y</div></div></button><button class = clear_button id = ""ClearButton"" onclick = ""clearResponse()"">BACKSPACE</button><button class = blank_button id = ""BlankButton"" onclick = ""blankResponse()"">SKIP</button><p style=""font-size: 2.4rem""><u><b>Current Answer:</b></u></p><br><br><div id=echoed_txt style=""font-size: 5rem; color:blue;""><b></b></div></div>",enter,ospan,retrieval,hKPiDoSwx6SUDqcotdIFxnA6qNq2,html-keyboard-response,132,750927,0.0-46.0-4.0-1.0-2.0,12,12,12,5.0,"[""J"",""Q"",""P"",""S"",""L""]","[""J"",""Q"",""P"",""S"",""L""]",1.0,5.0,,,,,,,5c3d48955fd1050001a99364,11:38:33,04/04/2024
1358.5999999642372,[''],0,ospan,feedback,hKPiDoSwx6SUDqcotdIFxnA6qNq2,html-button-response,133,752791,0.0-46.0-4.0-1.0-3.0,,,,,,,,,,,,100.0,0.0,,5c3d48955fd1050001a99364,11:38:33,04/04/2024
,"<p style=""font-size:75px;"">...</p>",,ospan,iti,hKPiDoSwx6SUDqcotdIFxnA6qNq2,html-keyboard-response,134,753793,0.0-46.0-4.0-2.0-0.0,,,,,,,,,,,,,,,5c3d48955fd1050001a99364,11:38:33,04/04/2024
2139.0,,,ospan,symmetry,hKPiDoSwx6SUDqcotdIFxnA6qNq2,symmetry-judgement-task,135,757016,0.0-46.0-4.0-2.0-1.0-0.0,,,,,,,,,,1.0,1.0,,,,5c3d48955fd1050001a99364,11:38:33,04/04/2024
,"<div style=""font-size: 10rem; color: #0000FF"">S</div>",,ospan,letter,hKPiDoSwx6SUDqcotdIFxnA6qNq2,html-keyboard-response,136,758028,0.0-46.0-4.0-2.0-1.0-1.0,,,,,,,,,,,,,,,5c3d48955fd1050001a99364,11:38:33,04/04/2024
1735.0,,,ospan,symmetry,hKPiDoSwx6SUDqcotdIFxnA6qNq2,symmetry-judgement-task,137,761828,0.0-46.0-4.0-2.0-1.0-2.0,,,,,,,,,,1.0,1.0,,,,5c3d48955fd1050001a99364,11:38:33,04/04/2024
,"<div style=""font-size: 10rem; color: #0000FF"">Q</div>",,ospan,letter,hKPiDoSwx6SUDqcotdIFxnA6qNq2,html-keyboard-response,138,762839,0.0-46.0-4.0-2.0-1.0-3.0,,,,,,,,,,,,,,,5c3d48955fd1050001a99364,11:38:33,04/04/2024
4413.0,,,ospan,symmetry,hKPiDoSwx6SUDqcotdIFxnA6qNq2,symmetry-judgement-task,139,769295,0.0-46.0-4.0-2.0-1.0-4.0,,,,,,,,,,1.0,1.0,,,,5c3d48955fd1050001a99364,11:38:33,04/04/2024
,"<div style=""font-size: 10rem; color: #0000FF"">Y</div>",,ospan,letter,hKPiDoSwx6SUDqcotdIFxnA6qNq2,html-keyboard-response,140,770303,0.0-46.0-4.0-2.0-1.0-5.0,,,,,,,,,,,,,,,5c3d48955fd1050001a99364,11:38:33,04/04/2024
4532.800000011921,"<div class = numbox><p style=""font-size: 2.4rem"">Please recall the letters you saw to the best of your ability. If you do not remember a particular letter, use the SKIP button.<br><b>(When you are ready to lock in your answer, press ENTER)</b></p><button id = button_1 class = ""square num-button"" onclick = ""recordClick(this)""><div class = content><div class = numbers>C</div></div></button><button id = button_2 class = ""square num-button"" onclick = ""recordClick(this)""><div class = content><div class = numbers>G</div></div></button><button id = button_3 class = ""square num-button"" onclick = ""recordClick(this)""><div class = content><div class = numbers>H</div></div></button><button id = button_4 class = ""square num-button"" onclick = ""recordClick(this)""><div class = content><div class = numbers>J</div></div></button><button id = button_5 class = ""square num-button"" onclick = ""recordClick(this)""><div class = content><div class = numbers>K</div></div></button><button id = button_6 class = ""square num-button"" onclick = ""recordClick(this)""><div class = content><div class = numbers>L</div></div></button><button id = button_7 class = ""square num-button"" onclick = ""recordClick(this)""><div class = content><div class = numbers>N</div></div></button><button id = button_8 class = ""square num-button"" onclick = ""recordClick(this)""><div class = content><div class = numbers>P</div></div></button><button id = button_9 class = ""square num-button"" onclick = ""recordClick(this)""><div class = content><div class = numbers>Q</div></div></button><button id = button_10 class = ""square num-button"" onclick = ""recordClick(this)""><div class = content><div class = numbers>R</div></div></button><button id = button_11 class = ""square num-button"" onclick = ""recordClick(this)""><div class = content><div class = numbers>S</div></div></button><button id = button_12 class = ""square num-button"" onclick = ""recordClick(this)""><div class = content><div class = numbers>Y</div></div></button><button class = clear_button id = ""ClearButton"" onclick = ""clearResponse()"">BACKSPACE</button><button class = blank_button id = ""BlankButton"" onclick = ""blankResponse()"">SKIP</button><p style=""font-size: 2.4rem""><u><b>Current Answer:</b></u></p><br><br><div id=echoed_txt style=""font-size: 5rem; color:blue;""><b></b></div></div>",enter,ospan,retrieval,hKPiDoSwx6SUDqcotdIFxnA6qNq2,html-keyboard-response,141,775599,0.0-46.0-4.0-2.0-2.0,15,15,15,3.0,"[""S"",""Q"",""Y""]","[""S"",""Q"",""Y""]",1.0,3.0,,,,,,,5c3d48955fd1050001a99364,11:38:33,04/04/2024
1296.300000011921,[''],0,ospan,feedback,hKPiDoSwx6SUDqcotdIFxnA6qNq2,html-button-response,142,777409,0.0-46.0-4.0-2.0-3.0,,,,,,,,,,,,100.0,0.0,,5c3d48955fd1050001a99364,11:38:33,04/04/2024
,"<p style=""font-size:75px;"">...</p>",,ospan,iti,hKPiDoSwx6SUDqcotdIFxnA6qNq2,html-keyboard-response,143,778411,0.0-46.0-5.0-0.0-0.0,,,,,,,,,,,,,,,5c3d48955fd1050001a99364,11:38:33,04/04/2024
2146.0,,,ospan,symmetry,hKPiDoSwx6SUDqcotdIFxnA6qNq2,symmetry-judgement-task,144,781624,0.0-46.0-5.0-0.0-1.0-0.0,,,,,,,,,,1.0,1.0,,,,5c3d48955fd1050001a99364,11:38:33,04/04/2024
,"<div style=""font-size: 10rem; color: #0000FF"">S</div>",,ospan,letter,hKPiDoSwx6SUDqcotdIFxnA6qNq2,html-keyboard-response,145,782632,0.0-46.0-5.0-0.0-1.0-1.0,,,,,,,,,,,,,,,5c3d48955fd1050001a99364,11:38:33,04/04/2024
2303.0,,,ospan,symmetry,hKPiDoSwx6SUDqcotdIFxnA6qNq2,symmetry-judgement-task,146,786992,0.0-46.0-5.0-0.0-1.0-2.0,,,,,,,,,,1.0,1.0,,,,5c3d48955fd1050001a99364,11:38:33,04/04/2024
,"<div style=""font-size: 10rem; color: #0000FF"">P</div>",,ospan,letter,hKPiDoSwx6SUDqcotdIFxnA6qNq2,html-keyboard-response,147,787999,0.0-46.0-5.0-0.0-1.0-3.0,,,,,,,,,,,,,,,5c3d48955fd1050001a99364,11:38:33,04/04/2024
2327.0,,,ospan,symmetry,hKPiDoSwx6SUDqcotdIFxnA6qNq2,symmetry-judgement-task,148,792375,0.0-46.0-5.0-0.0-1.0-4.0,,,,,,,,,,1.0,1.0,,,,5c3d48955fd1050001a99364,11:38:33,04/04/2024
,"<div style=""font-size: 10rem; color: #0000FF"">C</div>",,ospan,letter,hKPiDoSwx6SUDqcotdIFxnA6qNq2,html-keyboard-response,149,793391,0.0-46.0-5.0-0.0-1.0-5.0,,,,,,,,,,,,,,,5c3d48955fd1050001a99364,11:38:33,04/04/2024
1652.0,,,ospan,symmetry,hKPiDoSwx6SUDqcotdIFxnA6qNq2,symmetry-judgement-task,150,797093,0.0-46.0-5.0-0.0-1.0-6.0,,,,,,,,,,1.0,1.0,,,,5c3d48955fd1050001a99364,11:38:33,04/04/2024
,"<div style=""font-size: 10rem; color: #0000FF"">K</div>",,ospan,letter,hKPiDoSwx6SUDqcotdIFxnA6qNq2,html-keyboard-response,151,798107,0.0-46.0-5.0-0.0-1.0-7.0,,,,,,,,,,,,,,,5c3d48955fd1050001a99364,11:38:33,04/04/2024
1837.0,,,ospan,symmetry,hKPiDoSwx6SUDqcotdIFxnA6qNq2,symmetry-judgement-task,152,801974,0.0-46.0-5.0-0.0-1.0-8.0,,,,,,,,,,1.0,1.0,,,,5c3d48955fd1050001a99364,11:38:33,04/04/2024
,"<div style=""font-size: 10rem; color: #0000FF"">R</div>",,ospan,letter,hKPiDoSwx6SUDqcotdIFxnA6qNq2,html-keyboard-response,153,802982,0.0-46.0-5.0-0.0-1.0-9.0,,,,,,,,,,,,,,,5c3d48955fd1050001a99364,11:38:33,04/04/2024
2446.0,,,ospan,symmetry,hKPiDoSwx6SUDqcotdIFxnA6qNq2,symmetry-judgement-task,154,807476,0.0-46.0-5.0-0.0-1.0-10.0,,,,,,,,,,1.0,1.0,,,,5c3d48955fd1050001a99364,11:38:33,04/04/2024
,"<div style=""font-size: 10rem; color: #0000FF"">L</div>",,ospan,letter,hKPiDoSwx6SUDqcotdIFxnA6qNq2,html-keyboard-response,155,808478,0.0-46.0-5.0-0.0-1.0-11.0,,,,,,,,,,,,,,,5c3d48955fd1050001a99364,11:38:33,04/04/2024
7390.199999988079,"<div class = numbox><p style=""font-size: 2.4rem"">Please recall the letters you saw to the best of your ability. If you do not remember a particular letter, use the SKIP button.<br><b>(When you are ready to lock in your answer, press ENTER)</b></p><button id = button_1 class = ""square num-button"" onclick = ""recordClick(this)""><div class = content><div class = numbers>C</div></div></button><button id = button_2 class = ""square num-button"" onclick = ""recordClick(this)""><div class = content><div class = numbers>G</div></div></button><button id = button_3 class = ""square num-button"" onclick = ""recordClick(this)""><div class = content><div class = numbers>H</div></div></button><button id = button_4 class = ""square num-button"" onclick = ""recordClick(this)""><div class = content><div class = numbers>J</div></div></button><button id = button_5 class = ""square num-button"" onclick = ""recordClick(this)""><div class = content><div class = numbers>K</div></div></button><button id = button_6 class = ""square num-button"" onclick = ""recordClick(this)""><div class = content><div class = numbers>L</div></div></button><button id = button_7 class = ""square num-button"" onclick = ""recordClick(this)""><div class = content><div class = numbers>N</div></div></button><button id = button_8 class = ""square num-button"" onclick = ""recordClick(this)""><div class = content><div class = numbers>P</div></div></button><button id = button_9 class = ""square num-button"" onclick = ""recordClick(this)""><div class = content><div class = numbers>Q</div></div></button><button id = button_10 class = ""square num-button"" onclick = ""recordClick(this)""><div class = content><div class = numbers>R</div></div></button><button id = button_11 class = ""square num-button"" onclick = ""recordClick(this)""><div class = content><div class = numbers>S</div></div></button><button id = button_12 class = ""square num-button"" onclick = ""recordClick(this)""><div class = content><div class = numbers>Y</div></div></button><button class = clear_button id = ""ClearButton"" onclick = ""clearResponse()"">BACKSPACE</button><button class = blank_button id = ""BlankButton"" onclick = ""blankResponse()"">SKIP</button><p style=""font-size: 2.4rem""><u><b>Current Answer:</b></u></p><br><br><div id=echoed_txt style=""font-size: 5rem; color:blue;""><b></b></div></div>",enter,ospan,retrieval,hKPiDoSwx6SUDqcotdIFxnA6qNq2,html-keyboard-response,156,816630,0.0-46.0-5.0-0.0-2.0,21,21,21,6.0,"[""S"",""P"",""C"",""K"",""R"",""L""]","[""S"",""P"",""C"",""K"",""R"",""L""]",1.0,6.0,,,,,,,5c3d48955fd1050001a99364,11:38:33,04/04/2024
1356.9000000357628,[''],0,ospan,feedback,hKPiDoSwx6SUDqcotdIFxnA6qNq2,html-button-response,157,818497,0.0-46.0-5.0-0.0-3.0,,,,,,,,,,,,100.0,0.0,,5c3d48955fd1050001a99364,11:38:33,04/04/2024
,"<p style=""font-size:75px;"">...</p>",,ospan,iti,hKPiDoSwx6SUDqcotdIFxnA6qNq2,html-keyboard-response,158,819510,0.0-46.0-5.0-1.0-0.0,,,,,,,,,,,,,,,5c3d48955fd1050001a99364,11:38:33,04/04/2024
1399.0,,,ospan,symmetry,hKPiDoSwx6SUDqcotdIFxnA6qNq2,symmetry-judgement-task,159,822187,0.0-46.0-5.0-1.0-1.0-0.0,,,,,,,,,,1.0,1.0,,,,5c3d48955fd1050001a99364,11:38:33,04/04/2024
,"<div style=""font-size: 10rem; color: #0000FF"">C</div>",,ospan,letter,hKPiDoSwx6SUDqcotdIFxnA6qNq2,html-keyboard-response,160,823189,0.0-46.0-5.0-1.0-1.0-1.0,,,,,,,,,,,,,,,5c3d48955fd1050001a99364,11:38:33,04/04/2024
2205.0,,,ospan,symmetry,hKPiDoSwx6SUDqcotdIFxnA6qNq2,symmetry-judgement-task,161,827453,0.0-46.0-5.0-1.0-1.0-2.0,,,,,,,,,,1.0,1.0,,,,5c3d48955fd1050001a99364,11:38:33,04/04/2024
,"<div style=""font-size: 10rem; color: #0000FF"">K</div>",,ospan,letter,hKPiDoSwx6SUDqcotdIFxnA6qNq2,html-keyboard-response,162,828470,0.0-46.0-5.0-1.0-1.0-3.0,,,,,,,,,,,,,,,5c3d48955fd1050001a99364,11:38:33,04/04/2024
1298.0,,,ospan,symmetry,hKPiDoSwx6SUDqcotdIFxnA6qNq2,symmetry-judgement-task,163,831828,0.0-46.0-5.0-1.0-1.0-4.0,,,,,,,,,,1.0,1.0,,,,5c3d48955fd1050001a99364,11:38:33,04/04/2024
,"<div style=""font-size: 10rem; color: #0000FF"">G</div>",,ospan,letter,hKPiDoSwx6SUDqcotdIFxnA6qNq2,html-keyboard-response,164,832836,0.0-46.0-5.0-1.0-1.0-5.0,,,,,,,,,,,,,,,5c3d48955fd1050001a99364,11:38:33,04/04/2024
1606.0,,,ospan,symmetry,hKPiDoSwx6SUDqcotdIFxnA6qNq2,symmetry-judgement-task,165,836487,0.0-46.0-5.0-1.0-1.0-6.0,,,,,,,,,,1.0,1.0,,,,5c3d48955fd1050001a99364,11:38:33,04/04/2024
,"<div style=""font-size: 10rem; color: #0000FF"">S</div>",,ospan,letter,hKPiDoSwx6SUDqcotdIFxnA6qNq2,html-keyboard-response,166,837502,0.0-46.0-5.0-1.0-1.0-7.0,,,,,,,,,,,,,,,5c3d48955fd1050001a99364,11:38:33,04/04/2024
1554.0,,,ospan,symmetry,hKPiDoSwx6SUDqcotdIFxnA6qNq2,symmetry-judgement-task,167,841102,0.0-46.0-5.0-1.0-1.0-8.0,,,,,,,,,,1.0,1.0,,,,5c3d48955fd1050001a99364,11:38:33,04/04/2024
,"<div style=""font-size: 10rem; color: #0000FF"">J</div>",,ospan,letter,hKPiDoSwx6SUDqcotdIFxnA6qNq2,html-keyboard-response,168,842118,0.0-46.0-5.0-1.0-1.0-9.0,,,,,,,,,,,,,,,5c3d48955fd1050001a99364,11:38:33,04/04/2024
1586.0,,,ospan,symmetry,hKPiDoSwx6SUDqcotdIFxnA6qNq2,symmetry-judgement-task,169,845734,0.0-46.0-5.0-1.0-1.0-10.0,,,,,,,,,,1.0,1.0,,,,5c3d48955fd1050001a99364,11:38:33,04/04/2024
,"<div style=""font-size: 10rem; color: #0000FF"">Q</div>",,ospan,letter,hKPiDoSwx6SUDqcotdIFxnA6qNq2,html-keyboard-response,170,846736,0.0-46.0-5.0-1.0-1.0-11.0,,,,,,,,,,,,,,,5c3d48955fd1050001a99364,11:38:33,04/04/2024
3239.0,,,ospan,symmetry,hKPiDoSwx6SUDqcotdIFxnA6qNq2,symmetry-judgement-task,171,852033,0.0-46.0-5.0-1.0-1.0-12.0,,,,,,,,,,1.0,1.0,,,,5c3d48955fd1050001a99364,11:38:33,04/04/2024
,"<div style=""font-size: 10rem; color: #0000FF"">L</div>",,ospan,letter,hKPiDoSwx6SUDqcotdIFxnA6qNq2,html-keyboard-response,172,853051,0.0-46.0-5.0-1.0-1.0-13.0,,,,,,,,,,,,,,,5c3d48955fd1050001a99364,11:38:33,04/04/2024
10518.899999976158,"<div class = numbox><p style=""font-size: 2.4rem"">Please recall the letters you saw to the best of your ability. If you do not remember a particular letter, use the SKIP button.<br><b>(When you are ready to lock in your answer, press ENTER)</b></p><button id = button_1 class = ""square num-button"" onclick = ""recordClick(this)""><div class = content><div class = numbers>C</div></div></button><button id = button_2 class = ""square num-button"" onclick = ""recordClick(this)""><div class = content><div class = numbers>G</div></div></button><button id = button_3 class = ""square num-button"" onclick = ""recordClick(this)""><div class = content><div class = numbers>H</div></div></button><button id = button_4 class = ""square num-button"" onclick = ""recordClick(this)""><div class = content><div class = numbers>J</div></div></button><button id = button_5 class = ""square num-button"" onclick = ""recordClick(this)""><div class = content><div class = numbers>K</div></div></button><button id = button_6 class = ""square num-button"" onclick = ""recordClick(this)""><div class = content><div class = numbers>L</div></div></button><button id = button_7 class = ""square num-button"" onclick = ""recordClick(this)""><div class = content><div class = numbers>N</div></div></button><button id = button_8 class = ""square num-button"" onclick = ""recordClick(this)""><div class = content><div class = numbers>P</div></div></button><button id = button_9 class = ""square num-button"" onclick = ""recordClick(this)""><div class = content><div class = numbers>Q</div></div></button><button id = button_10 class = ""square num-button"" onclick = ""recordClick(this)""><div class = content><div class = numbers>R</div></div></button><button id = button_11 class = ""square num-button"" onclick = ""recordClick(this)""><div class = content><div class = numbers>S</div></div></button><button id = button_12 class = ""square num-button"" onclick = ""recordClick(this)""><div class = content><div class = numbers>Y</div></div></button><button class = clear_button id = ""ClearButton"" onclick = ""clearResponse()"">BACKSPACE</button><button class = blank_button id = ""BlankButton"" onclick = ""blankResponse()"">SKIP</button><p style=""font-size: 2.4rem""><u><b>Current Answer:</b></u></p><br><br><div id=echoed_txt style=""font-size: 5rem; color:blue;""><b></b></div></div>",enter,ospan,retrieval,hKPiDoSwx6SUDqcotdIFxnA6qNq2,html-keyboard-response,173,864325,0.0-46.0-5.0-1.0-2.0,28,28,28,7.0,"[""C"",""K"",""G"",""S"",""J"",""Q"",""L""]","[""C"",""K"",""G"",""S"",""J"",""Q"",""L""]",1.0,7.0,,,,,,,5c3d48955fd1050001a99364,11:38:33,04/04/2024
1618.1000000238419,[''],0,ospan,feedback,hKPiDoSwx6SUDqcotdIFxnA6qNq2,html-button-response,174,866451,0.0-46.0-5.0-1.0-3.0,,,,,,,,,,,,100.0,0.0,,5c3d48955fd1050001a99364,11:38:33,04/04/2024
,"<p style=""font-size:75px;"">...</p>",,ospan,iti,hKPiDoSwx6SUDqcotdIFxnA6qNq2,html-keyboard-response,175,867454,0.0-46.0-6.0-0.0-0.0,,,,,,,,,,,,,,,5c3d48955fd1050001a99364,11:38:33,04/04/2024
2455.0,,,ospan,symmetry,hKPiDoSwx6SUDqcotdIFxnA6qNq2,symmetry-judgement-task,176,871208,0.0-46.0-6.0-0.0-1.0-0.0,,,,,,,,,,1.0,1.0,,,,5c3d48955fd1050001a99364,11:38:33,04/04/2024
,"<div style=""font-size: 10rem; color: #0000FF"">Y</div>",,ospan,letter,hKPiDoSwx6SUDqcotdIFxnA6qNq2,html-keyboard-response,177,872215,0.0-46.0-6.0-0.0-1.0-1.0,,,,,,,,,,,,,,,5c3d48955fd1050001a99364,11:38:33,04/04/2024
2482.0,,,ospan,symmetry,hKPiDoSwx6SUDqcotdIFxnA6qNq2,symmetry-judgement-task,178,876730,0.0-46.0-6.0-0.0-1.0-2.0,,,,,,,,,,1.0,1.0,,,,5c3d48955fd1050001a99364,11:38:33,04/04/2024
,"<div style=""font-size: 10rem; color: #0000FF"">K</div>",,ospan,letter,hKPiDoSwx6SUDqcotdIFxnA6qNq2,html-keyboard-response,179,877743,0.0-46.0-6.0-0.0-1.0-3.0,,,,,,,,,,,,,,,5c3d48955fd1050001a99364,11:38:33,04/04/2024
1320.0,,,ospan,symmetry,hKPiDoSwx6SUDqcotdIFxnA6qNq2,symmetry-judgement-task,180,881108,0.0-46.0-6.0-0.0-1.0-4.0,,,,,,,,,,1.0,1.0,,,,5c3d48955fd1050001a99364,11:38:33,04/04/2024
,"<div style=""font-size: 10rem; color: #0000FF"">G</div>",,ospan,letter,hKPiDoSwx6SUDqcotdIFxnA6qNq2,html-keyboard-response,181,882119,0.0-46.0-6.0-0.0-1.0-5.0,,,,,,,,,,,,,,,5c3d48955fd1050001a99364,11:38:33,04/04/2024
1324.0,,,ospan,symmetry,hKPiDoSwx6SUDqcotdIFxnA6qNq2,symmetry-judgement-task,182,885480,0.0-46.0-6.0-0.0-1.0-6.0,,,,,,,,,,1.0,1.0,,,,5c3d48955fd1050001a99364,11:38:33,04/04/2024
,"<div style=""font-size: 10rem; color: #0000FF"">Q</div>",,ospan,letter,hKPiDoSwx6SUDqcotdIFxnA6qNq2,html-keyboard-response,183,886490,0.0-46.0-6.0-0.0-1.0-7.0,,,,,,,,,,,,,,,5c3d48955fd1050001a99364,11:38:33,04/04/2024
3178.0,,,ospan,symmetry,hKPiDoSwx6SUDqcotdIFxnA6qNq2,symmetry-judgement-task,184,891728,0.0-46.0-6.0-0.0-1.0-8.0,,,,,,,,,,1.0,1.0,,,,5c3d48955fd1050001a99364,11:38:33,04/04/2024
,"<div style=""font-size: 10rem; color: #0000FF"">R</div>",,ospan,letter,hKPiDoSwx6SUDqcotdIFxnA6qNq2,html-keyboard-response,185,892745,0.0-46.0-6.0-0.0-1.0-9.0,,,,,,,,,,,,,,,5c3d48955fd1050001a99364,11:38:33,04/04/2024
9715.100000023842,"<div class = numbox><p style=""font-size: 2.4rem"">Please recall the letters you saw to the best of your ability. If you do not remember a particular letter, use the SKIP button.<br><b>(When you are ready to lock in your answer, press ENTER)</b></p><button id = button_1 class = ""square num-button"" onclick = ""recordClick(this)""><div class = content><div class = numbers>C</div></div></button><button id = button_2 class = ""square num-button"" onclick = ""recordClick(this)""><div class = content><div class = numbers>G</div></div></button><button id = button_3 class = ""square num-button"" onclick = ""recordClick(this)""><div class = content><div class = numbers>H</div></div></button><button id = button_4 class = ""square num-button"" onclick = ""recordClick(this)""><div class = content><div class = numbers>J</div></div></button><button id = button_5 class = ""square num-button"" onclick = ""recordClick(this)""><div class = content><div class = numbers>K</div></div></button><button id = button_6 class = ""square num-button"" onclick = ""recordClick(this)""><div class = content><div class = numbers>L</div></div></button><button id = button_7 class = ""square num-button"" onclick = ""recordClick(this)""><div class = content><div class = numbers>N</div></div></button><button id = button_8 class = ""square num-button"" onclick = ""recordClick(this)""><div class = content><div class = numbers>P</div></div></button><button id = button_9 class = ""square num-button"" onclick = ""recordClick(this)""><div class = content><div class = numbers>Q</div></div></button><button id = button_10 class = ""square num-button"" onclick = ""recordClick(this)""><div class = content><div class = numbers>R</div></div></button><button id = button_11 class = ""square num-button"" onclick = ""recordClick(this)""><div class = content><div class = numbers>S</div></div></button><button id = button_12 class = ""square num-button"" onclick = ""recordClick(this)""><div class = content><div class = numbers>Y</div></div></button><button class = clear_button id = ""ClearButton"" onclick = ""clearResponse()"">BACKSPACE</button><button class = blank_button id = ""BlankButton"" onclick = ""blankResponse()"">SKIP</button><p style=""font-size: 2.4rem""><u><b>Current Answer:</b></u></p><br><br><div id=echoed_txt style=""font-size: 5rem; color:blue;""><b></b></div></div>",enter,ospan,retrieval,hKPiDoSwx6SUDqcotdIFxnA6qNq2,html-keyboard-response,186,903223,0.0-46.0-6.0-0.0-2.0,33,33,33,5.0,"[""Y"",""K"",""G"",""Q"",""R""]","[""Y"",""K"",""G"",""Q"",""R""]",1.0,5.0,,,,,,,5c3d48955fd1050001a99364,11:38:33,04/04/2024
1361.5,[''],0,ospan,feedback,hKPiDoSwx6SUDqcotdIFxnA6qNq2,html-button-response,187,905090,0.0-46.0-6.0-0.0-3.0,,,,,,,,,,,,100.0,0.0,,5c3d48955fd1050001a99364,11:38:33,04/04/2024
,"<p style=""font-size:75px;"">...</p>",,ospan,iti,hKPiDoSwx6SUDqcotdIFxnA6qNq2,html-keyboard-response,188,906099,0.0-46.0-6.0-1.0-0.0,,,,,,,,,,,,,,,5c3d48955fd1050001a99364,11:38:33,04/04/2024
1418.0,,,ospan,symmetry,hKPiDoSwx6SUDqcotdIFxnA6qNq2,symmetry-judgement-task,189,908810,0.0-46.0-6.0-1.0-1.0-0.0,,,,,,,,,,1.0,1.0,,,,5c3d48955fd1050001a99364,11:38:33,04/04/2024
,"<div style=""font-size: 10rem; color: #0000FF"">P</div>",,ospan,letter,hKPiDoSwx6SUDqcotdIFxnA6qNq2,html-keyboard-response,190,909826,0.0-46.0-6.0-1.0-1.0-1.0,,,,,,,,,,,,,,,5c3d48955fd1050001a99364,11:38:33,04/04/2024
1556.0,,,ospan,symmetry,hKPiDoSwx6SUDqcotdIFxnA6qNq2,symmetry-judgement-task,191,913425,0.0-46.0-6.0-1.0-1.0-2.0,,,,,,,,,,1.0,1.0,,,,5c3d48955fd1050001a99364,11:38:33,04/04/2024
,"<div style=""font-size: 10rem; color: #0000FF"">H</div>",,ospan,letter,hKPiDoSwx6SUDqcotdIFxnA6qNq2,html-keyboard-response,192,914442,0.0-46.0-6.0-1.0-1.0-3.0,,,,,,,,,,,,,,,5c3d48955fd1050001a99364,11:38:33,04/04/2024
4303.0,,,ospan,symmetry,hKPiDoSwx6SUDqcotdIFxnA6qNq2,symmetry-judgement-task,193,920809,0.0-46.0-6.0-1.0-1.0-4.0,,,,,,,,,,1.0,1.0,,,,5c3d48955fd1050001a99364,11:38:33,04/04/2024
,"<div style=""font-size: 10rem; color: #0000FF"">C</div>",,ospan,letter,hKPiDoSwx6SUDqcotdIFxnA6qNq2,html-keyboard-response,194,921825,0.0-46.0-6.0-1.0-1.0-5.0,,,,,,,,,,,,,,,5c3d48955fd1050001a99364,11:38:33,04/04/2024
1570.0,,,ospan,symmetry,hKPiDoSwx6SUDqcotdIFxnA6qNq2,symmetry-judgement-task,195,925424,0.0-46.0-6.0-1.0-1.0-6.0,,,,,,,,,,1.0,1.0,,,,5c3d48955fd1050001a99364,11:38:33,04/04/2024
,"<div style=""font-size: 10rem; color: #0000FF"">S</div>",,ospan,letter,hKPiDoSwx6SUDqcotdIFxnA6qNq2,html-keyboard-response,196,926441,0.0-46.0-6.0-1.0-1.0-7.0,,,,,,,,,,,,,,,5c3d48955fd1050001a99364,11:38:33,04/04/2024
1962.0,,,ospan,symmetry,hKPiDoSwx6SUDqcotdIFxnA6qNq2,symmetry-judgement-task,197,930474,0.0-46.0-6.0-1.0-1.0-8.0,,,,,,,,,,1.0,1.0,,,,5c3d48955fd1050001a99364,11:38:33,04/04/2024
,"<div style=""font-size: 10rem; color: #0000FF"">G</div>",,ospan,letter,hKPiDoSwx6SUDqcotdIFxnA6qNq2,html-keyboard-response,198,931491,0.0-46.0-6.0-1.0-1.0-9.0,,,,,,,,,,,,,,,5c3d48955fd1050001a99364,11:38:33,04/04/2024
1330.0,,,ospan,symmetry,hKPiDoSwx6SUDqcotdIFxnA6qNq2,symmetry-judgement-task,199,934873,0.0-46.0-6.0-1.0-1.0-10.0,,,,,,,,,,1.0,1.0,,,,5c3d48955fd1050001a99364,11:38:33,04/04/2024
,"<div style=""font-size: 10rem; color: #0000FF"">N</div>",,ospan,letter,hKPiDoSwx6SUDqcotdIFxnA6qNq2,html-keyboard-response,200,935887,0.0-46.0-6.0-1.0-1.0-11.0,,,,,,,,,,,,,,,5c3d48955fd1050001a99364,11:38:33,04/04/2024
2258.0,,,ospan,symmetry,hKPiDoSwx6SUDqcotdIFxnA6qNq2,symmetry-judgement-task,201,940173,0.0-46.0-6.0-1.0-1.0-12.0,,,,,,,,,,1.0,1.0,,,,5c3d48955fd1050001a99364,11:38:33,04/04/2024
,"<div style=""font-size: 10rem; color: #0000FF"">K</div>",,ospan,letter,hKPiDoSwx6SUDqcotdIFxnA6qNq2,html-keyboard-response,202,941188,0.0-46.0-6.0-1.0-1.0-13.0,,,,,,,,,,,,,,,5c3d48955fd1050001a99364,11:38:33,04/04/2024
2276.0,,,ospan,symmetry,hKPiDoSwx6SUDqcotdIFxnA6qNq2,symmetry-judgement-task,203,945490,0.0-46.0-6.0-1.0-1.0-14.0,,,,,,,,,,1.0,1.0,,,,5c3d48955fd1050001a99364,11:38:33,04/04/2024
,"<div style=""font-size: 10rem; color: #0000FF"">L</div>",,ospan,letter,hKPiDoSwx6SUDqcotdIFxnA6qNq2,html-keyboard-response,204,946505,0.0-46.0-6.0-1.0-1.0-15.0,,,,,,,,,,,,,,,5c3d48955fd1050001a99364,11:38:33,04/04/2024
9368.900000035763,"<div class = numbox><p style=""font-size: 2.4rem"">Please recall the letters you saw to the best of your ability. If you do not remember a particular letter, use the SKIP button.<br><b>(When you are ready to lock in your answer, press ENTER)</b></p><button id = button_1 class = ""square num-button"" onclick = ""recordClick(this)""><div class = content><div class = numbers>C</div></div></button><button id = button_2 class = ""square num-button"" onclick = ""recordClick(this)""><div class = content><div class = numbers>G</div></div></button><button id = button_3 class = ""square num-button"" onclick = ""recordClick(this)""><div class = content><div class = numbers>H</div></div></button><button id = button_4 class = ""square num-button"" onclick = ""recordClick(this)""><div class = content><div class = numbers>J</div></div></button><button id = button_5 class = ""square num-button"" onclick = ""recordClick(this)""><div class = content><div class = numbers>K</div></div></button><button id = button_6 class = ""square num-button"" onclick = ""recordClick(this)""><div class = content><div class = numbers>L</div></div></button><button id = button_7 class = ""square num-button"" onclick = ""recordClick(this)""><div class = content><div class = numbers>N</div></div></button><button id = button_8 class = ""square num-button"" onclick = ""recordClick(this)""><div class = content><div class = numbers>P</div></div></button><button id = button_9 class = ""square num-button"" onclick = ""recordClick(this)""><div class = content><div class = numbers>Q</div></div></button><button id = button_10 class = ""square num-button"" onclick = ""recordClick(this)""><div class = content><div class = numbers>R</div></div></button><button id = button_11 class = ""square num-button"" onclick = ""recordClick(this)""><div class = content><div class = numbers>S</div></div></button><button id = button_12 class = ""square num-button"" onclick = ""recordClick(this)""><div class = content><div class = numbers>Y</div></div></button><button class = clear_button id = ""ClearButton"" onclick = ""clearResponse()"">BACKSPACE</button><button class = blank_button id = ""BlankButton"" onclick = ""blankResponse()"">SKIP</button><p style=""font-size: 2.4rem""><u><b>Current Answer:</b></u></p><br><br><div id=echoed_txt style=""font-size: 5rem; color:blue;""><b></b></div></div>",enter,ospan,retrieval,hKPiDoSwx6SUDqcotdIFxnA6qNq2,html-keyboard-response,205,956635,0.0-46.0-6.0-1.0-2.0,41,40,33,8.0,"[""P"",""H"",""C"",""S"",""G"",""N"",""Q"",""L""]","[""P"",""H"",""C"",""S"",""G"",""N"",""K"",""L""]",0.0,7.0,,,,,,,5c3d48955fd1050001a99364,11:38:33,04/04/2024
1224.3999999761581,[''],0,ospan,feedback,hKPiDoSwx6SUDqcotdIFxnA6qNq2,html-button-response,206,958363,0.0-46.0-6.0-1.0-3.0,,,,,,,,,,,,100.0,0.0,,5c3d48955fd1050001a99364,11:38:33,04/04/2024
14337.800000011921,,{'Q0': 'I enjoyed trying to memorise the letters'},ospan,survey_ospan,hKPiDoSwx6SUDqcotdIFxnA6qNq2,lmdlab-survey-text,207,973460,0.0-46.0-7.0,,,,,,,,,,,,,,hKPiDoSwx6SUDqcotdIFxnA6qNq2,5c3d48955fd1050001a99364,11:38:33,04/04/2024
1017.5,<p><p style='font-size: 3rem'>Great work!<br><br>This completes the symmetry and memory task.</p><br><br><br>,0,ospan,finish,hKPiDoSwx6SUDqcotdIFxnA6qNq2,html-button-response,208,974481,0.0-46.0-8.0,41,40,33,,,,,,,,,100.0,,,5c3d48955fd1050001a99364,11:38:33,04/04/2024
