rt,stimulus,response,exp_name,exp_stage,subjectID,trial_type,trial_index,time_elapsed,internal_node_id,ospan_shown,ospan_total,ospan_abs,length,resp_actual,resp_correct,full_correct,num_correct,feedback,accuracy,correct,math_acc,math_warning,databaseID,prolificID,start_time,date
1462.0,<div class = 'left_align' style='font-size: 3.25rem; line-height: 1.3;'><p class = 'center_align'><b>Welcome to the Symmetry and Memory Task</b><br><br><br><br></p>Press 'continue' to show the instructions.<br><br><br><br></div>,0,ospan,instruct,gzLNgyxJR3bpgz5VDLctxuCnxXh2,html-button-response,54,445119,0.0-46.0-0.0-0.0-0.0,,,,,,,,,,,,,,,62ac70ac67b1d7d5b5f46c02,08:53:07,03/04/2024
6884.000000000058,"<div class = 'left_align' style='font-size: 3.25rem; line-height: 1.3;'><p class = 'center_align'><b>Symmetry and Memory Task</b><br><br></p>In this task, you will try to memorize letters you see on the screen<br>while you also view black and white grid pictures.<br><br>In the next few minutes, you will have some practice to get you familiar<br>with how the task works.<br><br>It may be difficult sometimes, but please do not worry about making mistakes!<br><br>We will begin by practicing the letter part of the task.<br><br><br><br></div>",0,ospan,instruct,gzLNgyxJR3bpgz5VDLctxuCnxXh2,html-button-response,55,452259,0.0-46.0-0.0-0.0-1.0,,,,,,,,,,,,,,,62ac70ac67b1d7d5b5f46c02,08:53:07,03/04/2024
12692.0,"<div class = 'left_align' style='font-size: 3.25rem; line-height: 1.3;'>For this practice part, letters will appear on the screen one at a time.<br><br>Try to remember each letter in the order presented.<br><br>After some letters have been shown, you will see a response screen. Your<br>goal is to report the letters you saw <b>in order</b>. If you do not remember<br>a particular letter, you will have the option to leave it blank.<br><br><br><br></div>",0,ospan,instruct,gzLNgyxJR3bpgz5VDLctxuCnxXh2,html-button-response,56,465205,0.0-46.0-0.0-0.0-2.0,,,,,,,,,,,,,,,62ac70ac67b1d7d5b5f46c02,08:53:07,03/04/2024
3663.0,"<div class = 'left_align' style='font-size: 3.25rem; line-height: 1.3;'>Remember, it is very important to get the letters in the same<br>order as you see them.<br><br>When you are ready, you may begin the letter practice.</div><br><br><br><br>",0,ospan,instruct,gzLNgyxJR3bpgz5VDLctxuCnxXh2,html-button-response,57,469122,0.0-46.0-0.0-0.0-3.0,,,,,,,,,,,,,,,62ac70ac67b1d7d5b5f46c02,08:53:07,03/04/2024
,"<p style=""font-size:75px;"">...</p>",,ospan,iti,gzLNgyxJR3bpgz5VDLctxuCnxXh2,html-keyboard-response,58,470378,0.0-46.0-0.0-1.0-0.0,,,,,,,,,,,,,,,62ac70ac67b1d7d5b5f46c02,08:53:07,03/04/2024
,"<div style=""font-size: 10rem; color: #0000FF"">S</div>",,ospan,letter,gzLNgyxJR3bpgz5VDLctxuCnxXh2,html-keyboard-response,59,471382,0.0-46.0-0.0-1.0-1.0,,,,,,,,,,,,,,,62ac70ac67b1d7d5b5f46c02,08:53:07,03/04/2024
,"<div style=""font-size: 10rem; color: #0000FF"">N</div>",,ospan,letter,gzLNgyxJR3bpgz5VDLctxuCnxXh2,html-keyboard-response,60,473137,0.0-46.0-0.0-1.0-2.0,,,,,,,,,,,,,,,62ac70ac67b1d7d5b5f46c02,08:53:07,03/04/2024
8724.0,"<div class = numbox><p style=""font-size: 2.4rem"">Please recall the letters you saw to the best of your ability. If you do not remember a particular letter, use the SKIP button.<br><b>(When you are ready to lock in your answer, press ENTER)</b></p><button id = button_1 class = ""square num-button"" onclick = ""recordClick(this)""><div class = content><div class = numbers>C</div></div></button><button id = button_2 class = ""square num-button"" onclick = ""recordClick(this)""><div class = content><div class = numbers>G</div></div></button><button id = button_3 class = ""square num-button"" onclick = ""recordClick(this)""><div class = content><div class = numbers>H</div></div></button><button id = button_4 class = ""square num-button"" onclick = ""recordClick(this)""><div class = content><div class = numbers>J</div></div></button><button id = button_5 class = ""square num-button"" onclick = ""recordClick(this)""><div class = content><div class = numbers>K</div></div></button><button id = button_6 class = ""square num-button"" onclick = ""recordClick(this)""><div class = content><div class = numbers>L</div></div></button><button id = button_7 class = ""square num-button"" onclick = ""recordClick(this)""><div class = content><div class = numbers>N</div></div></button><button id = button_8 class = ""square num-button"" onclick = ""recordClick(this)""><div class = content><div class = numbers>P</div></div></button><button id = button_9 class = ""square num-button"" onclick = ""recordClick(this)""><div class = content><div class = numbers>Q</div></div></button><button id = button_10 class = ""square num-button"" onclick = ""recordClick(this)""><div class = content><div class = numbers>R</div></div></button><button id = button_11 class = ""square num-button"" onclick = ""recordClick(this)""><div class = content><div class = numbers>S</div></div></button><button id = button_12 class = ""square num-button"" onclick = ""recordClick(this)""><div class = content><div class = numbers>Y</div></div></button><button class = clear_button id = ""ClearButton"" onclick = ""clearResponse()"">BACKSPACE</button><button class = blank_button id = ""BlankButton"" onclick = ""blankResponse()"">SKIP</button><p style=""font-size: 2.4rem""><u><b>Current Answer:</b></u></p><br><br><div id=echoed_txt style=""font-size: 5rem; color:blue;""><b></b></div></div>",enter,ospan,retrieval,gzLNgyxJR3bpgz5VDLctxuCnxXh2,html-keyboard-response,61,482615,0.0-46.0-0.0-1.0-3.0,NA,NA,NA,2.0,"[""N""]","[""S"",""N""]",0.0,0.0,"['<font color=""red"">S</font>', '<font color=""red"">N</font>']",,,,,,62ac70ac67b1d7d5b5f46c02,08:53:07,03/04/2024
3483.0,"['<p style=""font-size:44px"">Letters:<br><br><br><font color=""red"">S</font> <font color=""red"">N</font></p><br><br>']",0,ospan,practice_feedback,gzLNgyxJR3bpgz5VDLctxuCnxXh2,html-button-response,62,486604,0.0-46.0-0.0-1.0-4.0,,,,,,,,,,,,,,,62ac70ac67b1d7d5b5f46c02,08:53:07,03/04/2024
,"<p style=""font-size:75px;"">...</p>",,ospan,iti,gzLNgyxJR3bpgz5VDLctxuCnxXh2,html-keyboard-response,63,487608,0.0-46.0-0.0-2.0-0.0,,,,,,,,,,,,,,,62ac70ac67b1d7d5b5f46c02,08:53:07,03/04/2024
,"<div style=""font-size: 10rem; color: #0000FF"">N</div>",,ospan,letter,gzLNgyxJR3bpgz5VDLctxuCnxXh2,html-keyboard-response,64,488611,0.0-46.0-0.0-2.0-1.0,,,,,,,,,,,,,,,62ac70ac67b1d7d5b5f46c02,08:53:07,03/04/2024
,"<div style=""font-size: 10rem; color: #0000FF"">Y</div>",,ospan,letter,gzLNgyxJR3bpgz5VDLctxuCnxXh2,html-keyboard-response,65,490365,0.0-46.0-0.0-2.0-2.0,,,,,,,,,,,,,,,62ac70ac67b1d7d5b5f46c02,08:53:07,03/04/2024
,"<div style=""font-size: 10rem; color: #0000FF"">S</div>",,ospan,letter,gzLNgyxJR3bpgz5VDLctxuCnxXh2,html-keyboard-response,66,492120,0.0-46.0-0.0-2.0-3.0,,,,,,,,,,,,,,,62ac70ac67b1d7d5b5f46c02,08:53:07,03/04/2024
4387.999999999884,"<div class = numbox><p style=""font-size: 2.4rem"">Please recall the letters you saw to the best of your ability. If you do not remember a particular letter, use the SKIP button.<br><b>(When you are ready to lock in your answer, press ENTER)</b></p><button id = button_1 class = ""square num-button"" onclick = ""recordClick(this)""><div class = content><div class = numbers>C</div></div></button><button id = button_2 class = ""square num-button"" onclick = ""recordClick(this)""><div class = content><div class = numbers>G</div></div></button><button id = button_3 class = ""square num-button"" onclick = ""recordClick(this)""><div class = content><div class = numbers>H</div></div></button><button id = button_4 class = ""square num-button"" onclick = ""recordClick(this)""><div class = content><div class = numbers>J</div></div></button><button id = button_5 class = ""square num-button"" onclick = ""recordClick(this)""><div class = content><div class = numbers>K</div></div></button><button id = button_6 class = ""square num-button"" onclick = ""recordClick(this)""><div class = content><div class = numbers>L</div></div></button><button id = button_7 class = ""square num-button"" onclick = ""recordClick(this)""><div class = content><div class = numbers>N</div></div></button><button id = button_8 class = ""square num-button"" onclick = ""recordClick(this)""><div class = content><div class = numbers>P</div></div></button><button id = button_9 class = ""square num-button"" onclick = ""recordClick(this)""><div class = content><div class = numbers>Q</div></div></button><button id = button_10 class = ""square num-button"" onclick = ""recordClick(this)""><div class = content><div class = numbers>R</div></div></button><button id = button_11 class = ""square num-button"" onclick = ""recordClick(this)""><div class = content><div class = numbers>S</div></div></button><button id = button_12 class = ""square num-button"" onclick = ""recordClick(this)""><div class = content><div class = numbers>Y</div></div></button><button class = clear_button id = ""ClearButton"" onclick = ""clearResponse()"">BACKSPACE</button><button class = blank_button id = ""BlankButton"" onclick = ""blankResponse()"">SKIP</button><p style=""font-size: 2.4rem""><u><b>Current Answer:</b></u></p><br><br><div id=echoed_txt style=""font-size: 5rem; color:blue;""><b></b></div></div>",enter,ospan,retrieval,gzLNgyxJR3bpgz5VDLctxuCnxXh2,html-keyboard-response,67,497262,0.0-46.0-0.0-2.0-4.0,NA,NA,NA,3.0,"[""N"",""Y"",""S""]","[""N"",""Y"",""S""]",1.0,3.0,"['<font color=""green"">N</font>', '<font color=""green"">Y</font>', '<font color=""green"">S</font>']",,,,,,62ac70ac67b1d7d5b5f46c02,08:53:07,03/04/2024
1422.0,"['<p style=""font-size:44px"">Letters:<br><br><br><font color=""green"">N</font> <font color=""green"">Y</font> <font color=""green"">S</font></p><br><br>']",0,ospan,practice_feedback,gzLNgyxJR3bpgz5VDLctxuCnxXh2,html-button-response,68,499188,0.0-46.0-0.0-2.0-5.0,,,,,,,,,,,,,,,62ac70ac67b1d7d5b5f46c02,08:53:07,03/04/2024
12578.0,"<div class = 'left_align' style='font-size: 3.25rem; line-height: 1.3;'>Now you will practice doing the <b>symmetry judgment part</b> of the experiment.<br><br>A black and white grid picture will appear on the screen and you have to judge if it is <br>symmetrical or asymetrical.<br><br>A picture is 'mirror' symmetrical if its left half is identical to the right half when flipped.<br>Here are examples of a symmetrical and an asymetrical picture:<br><br><center><img src='Stimuli/img/symm_instructions_extra.png' style='height:420px; width:900'></img></center><br>To judge symmetry, imagine you were to fold each picture down the middle, like a book –<br>would the left half match the right half when folded onto each other?<br><br></div><br>",0,ospan,instruct,gzLNgyxJR3bpgz5VDLctxuCnxXh2,html-button-response,69,511769,0.0-46.0-1.0-0.0-0.0,,,,,,,,,,,,,,,62ac70ac67b1d7d5b5f46c02,08:53:07,03/04/2024
2817.9999999998836,"<div class = 'left_align' style='font-size: 3.25rem; line-height: 1.3;'>When you have viewed the picture and determined whether it is symmetrical or not,<br>you can <b>click the Yes or No button</b> below to answer.<br><br>If you take longer than 15 seconds, it will continue automatically<br>and record the answer as an error.</div><br>",0,ospan,instruct,gzLNgyxJR3bpgz5VDLctxuCnxXh2,html-button-response,70,514840,0.0-46.0-1.0-0.0-1.0,,,,,,,,,,,,,,,62ac70ac67b1d7d5b5f46c02,08:53:07,03/04/2024
1726.0,"<div class = 'left_align' style='font-size: 3.25rem; line-height: 1.3;'>It is <b>very</b> important that you make the symmetry judgment correctly.<br><br>It is also important that you try and judge the picture as quickly as you can.<br><br>When you are ready, click on the button below to try some practice problems.</div><br><br><br><br>",0,ospan,instruct,gzLNgyxJR3bpgz5VDLctxuCnxXh2,html-button-response,71,516819,0.0-46.0-1.0-0.0-2.0,,,,,,,,,,,,,,,62ac70ac67b1d7d5b5f46c02,08:53:07,03/04/2024
3996.0,,,ospan,symmetry,gzLNgyxJR3bpgz5VDLctxuCnxXh2,symmetry-judgement-task,72,521640,0.0-46.0-1.0-1.0-0.0,,,,,,,,,,1.0,1.0,,,,62ac70ac67b1d7d5b5f46c02,08:53:07,03/04/2024
,"<p style=""color:green; font-size: 35px"">Correct</p>",,ospan,feedback,gzLNgyxJR3bpgz5VDLctxuCnxXh2,html-keyboard-response,73,522394,0.0-46.0-1.0-1.0-1.0,,,,,,,,,,,,,,,62ac70ac67b1d7d5b5f46c02,08:53:07,03/04/2024
4812.0,,,ospan,symmetry,gzLNgyxJR3bpgz5VDLctxuCnxXh2,symmetry-judgement-task,74,529789,0.0-46.0-1.0-1.0-2.0,,,,,,,,,,1.0,1.0,,,,62ac70ac67b1d7d5b5f46c02,08:53:07,03/04/2024
,"<p style=""color:green; font-size: 35px"">Correct</p>",,ospan,feedback,gzLNgyxJR3bpgz5VDLctxuCnxXh2,html-keyboard-response,75,530541,0.0-46.0-1.0-1.0-3.0,,,,,,,,,,,,,,,62ac70ac67b1d7d5b5f46c02,08:53:07,03/04/2024
4166.0,,,ospan,symmetry,gzLNgyxJR3bpgz5VDLctxuCnxXh2,symmetry-judgement-task,76,537290,0.0-46.0-1.0-1.0-4.0,,,,,,,,,,1.0,1.0,,,,62ac70ac67b1d7d5b5f46c02,08:53:07,03/04/2024
,"<p style=""color:green; font-size: 35px"">Correct</p>",,ospan,feedback,gzLNgyxJR3bpgz5VDLctxuCnxXh2,html-keyboard-response,77,538042,0.0-46.0-1.0-1.0-5.0,,,,,,,,,,,,,,,62ac70ac67b1d7d5b5f46c02,08:53:07,03/04/2024
2141.0,"<p style=""font-size: 3rem;"">You responded correctly on 3 of 3 symmetry judgments. Good job!</p><br><br>",0,ospan,practice,gzLNgyxJR3bpgz5VDLctxuCnxXh2,html-button-response,78,542191,0.0-46.0-1.0-2.0,,,,,,,,,,,,,,,62ac70ac67b1d7d5b5f46c02,08:53:07,03/04/2024
3360.0,"<div class = 'left_align' style='font-size: 3.25rem; line-height: 1.3;'>Now you will practice doing both parts of the experiment at the same time.<br><br>In the next practice set, you will be given one grid picture to judge.<br>Then letter will appear on the screen. Try to remember the letter.<br><br>It is <b>very important</b> to make the symmetry judgment as quickly and accurately as possible.<br><br>Just as before, once you have make the symmetry judgment, you can click Yes or No.<br><b>Note that you will no longer see Correct or Incorrect feedback.</div><br><br><br><br>",0,ospan,instruct,gzLNgyxJR3bpgz5VDLctxuCnxXh2,html-button-response,79,545803,0.0-46.0-2.0-0.0-0.0,,,,,,,,,,,,,,,62ac70ac67b1d7d5b5f46c02,08:53:07,03/04/2024
2946.0000000001164,"<div class = 'left_align' style='font-size: 3.25rem; line-height: 1.3;'>After the letter goes away, another grid picture will appear, and then<br>another letter.<br><br>At the end of each set of letters and grids, you will recall the letters to the best<br>of your ability. Remember, try your best to get the letters in the correct order.<br><br>It is important to <b>quickly</b> and <b>accurately</b> make the symmetry judgments.</div><br><br><br><br>",0,ospan,instruct,gzLNgyxJR3bpgz5VDLctxuCnxXh2,html-button-response,80,549003,0.0-46.0-2.0-0.0-1.0,,,,,,,,,,,,,,,62ac70ac67b1d7d5b5f46c02,08:53:07,03/04/2024
9180.0,"<div class = 'left_align' style='font-size: 3.25rem; line-height: 1.3;'>On the feedback screen, if you are not doing well at the symmetry judgments,<br>you will also see a warning in the middle. This indicates your percent <br>correct for the grid pictures for the entire experiment.<br><br>It is <b>very</b> important for you to keep accuracy at least at 85%: <u>We can only use<br>data where the participant was at least 85% accurate on the judgments.</u> Therefore,<br> please try your best to perform well on the symmetry judgments, <b>at the same time</b><br>doing your best to recall as many letters as possible.<br><br>Click the button to try some practice problems.</div><br><br><br><br>",0,ospan,instruct,gzLNgyxJR3bpgz5VDLctxuCnxXh2,html-button-response,81,558438,0.0-46.0-2.0-0.0-2.0,,,,,,,,,,,,,,,62ac70ac67b1d7d5b5f46c02,08:53:07,03/04/2024
,"<p style=""font-size:75px;"">...</p>",,ospan,iti,gzLNgyxJR3bpgz5VDLctxuCnxXh2,html-keyboard-response,82,559693,0.0-46.0-2.0-1.0-0.0,,,,,,,,,,,,,,,62ac70ac67b1d7d5b5f46c02,08:53:07,03/04/2024
5304.0,,,ospan,symmetry,gzLNgyxJR3bpgz5VDLctxuCnxXh2,symmetry-judgement-task,83,566073,0.0-46.0-2.0-1.0-1.0-0.0,,,,,,,,,,1.0,1.0,,,,62ac70ac67b1d7d5b5f46c02,08:53:07,03/04/2024
,"<div style=""font-size: 10rem; color: #0000FF"">J</div>",,ospan,letter,gzLNgyxJR3bpgz5VDLctxuCnxXh2,html-keyboard-response,84,567076,0.0-46.0-2.0-1.0-1.0-1.0,,,,,,,,,,,,,,,62ac70ac67b1d7d5b5f46c02,08:53:07,03/04/2024
4636.0,,,ospan,symmetry,gzLNgyxJR3bpgz5VDLctxuCnxXh2,symmetry-judgement-task,85,573539,0.0-46.0-2.0-1.0-1.0-2.0,,,,,,,,,,1.0,1.0,,,,62ac70ac67b1d7d5b5f46c02,08:53:07,03/04/2024
,"<div style=""font-size: 10rem; color: #0000FF"">Y</div>",,ospan,letter,gzLNgyxJR3bpgz5VDLctxuCnxXh2,html-keyboard-response,86,574542,0.0-46.0-2.0-1.0-1.0-3.0,,,,,,,,,,,,,,,62ac70ac67b1d7d5b5f46c02,08:53:07,03/04/2024
4685.0,,,ospan,symmetry,gzLNgyxJR3bpgz5VDLctxuCnxXh2,symmetry-judgement-task,87,581055,0.0-46.0-2.0-1.0-1.0-4.0,,,,,,,,,,1.0,1.0,,,,62ac70ac67b1d7d5b5f46c02,08:53:07,03/04/2024
,"<div style=""font-size: 10rem; color: #0000FF"">L</div>",,ospan,letter,gzLNgyxJR3bpgz5VDLctxuCnxXh2,html-keyboard-response,88,582058,0.0-46.0-2.0-1.0-1.0-5.0,,,,,,,,,,,,,,,62ac70ac67b1d7d5b5f46c02,08:53:07,03/04/2024
5515.0,"<div class = numbox><p style=""font-size: 2.4rem"">Please recall the letters you saw to the best of your ability. If you do not remember a particular letter, use the SKIP button.<br><b>(When you are ready to lock in your answer, press ENTER)</b></p><button id = button_1 class = ""square num-button"" onclick = ""recordClick(this)""><div class = content><div class = numbers>C</div></div></button><button id = button_2 class = ""square num-button"" onclick = ""recordClick(this)""><div class = content><div class = numbers>G</div></div></button><button id = button_3 class = ""square num-button"" onclick = ""recordClick(this)""><div class = content><div class = numbers>H</div></div></button><button id = button_4 class = ""square num-button"" onclick = ""recordClick(this)""><div class = content><div class = numbers>J</div></div></button><button id = button_5 class = ""square num-button"" onclick = ""recordClick(this)""><div class = content><div class = numbers>K</div></div></button><button id = button_6 class = ""square num-button"" onclick = ""recordClick(this)""><div class = content><div class = numbers>L</div></div></button><button id = button_7 class = ""square num-button"" onclick = ""recordClick(this)""><div class = content><div class = numbers>N</div></div></button><button id = button_8 class = ""square num-button"" onclick = ""recordClick(this)""><div class = content><div class = numbers>P</div></div></button><button id = button_9 class = ""square num-button"" onclick = ""recordClick(this)""><div class = content><div class = numbers>Q</div></div></button><button id = button_10 class = ""square num-button"" onclick = ""recordClick(this)""><div class = content><div class = numbers>R</div></div></button><button id = button_11 class = ""square num-button"" onclick = ""recordClick(this)""><div class = content><div class = numbers>S</div></div></button><button id = button_12 class = ""square num-button"" onclick = ""recordClick(this)""><div class = content><div class = numbers>Y</div></div></button><button class = clear_button id = ""ClearButton"" onclick = ""clearResponse()"">BACKSPACE</button><button class = blank_button id = ""BlankButton"" onclick = ""blankResponse()"">SKIP</button><p style=""font-size: 2.4rem""><u><b>Current Answer:</b></u></p><br><br><div id=echoed_txt style=""font-size: 5rem; color:blue;""><b></b></div></div>",enter,ospan,retrieval,gzLNgyxJR3bpgz5VDLctxuCnxXh2,html-keyboard-response,89,588326,0.0-46.0-2.0-1.0-2.0-0.0,NA,NA,NA,3.0,"[""J"",""Y"",""L""]","[""J"",""Y"",""L""]",1.0,3.0,"['<font color=""green"">J</font>', '<font color=""green"">Y</font>', '<font color=""green"">L</font>']",,,,,,62ac70ac67b1d7d5b5f46c02,08:53:07,03/04/2024
1739.0000000001164,"['<p style=""font-size:44px"">Letters:<br><br><br><font color=""green"">J</font> <font color=""green"">Y</font> <font color=""green"">L</font></p><br><br><p style=""font-size:30px"">Symmetry:<br><br><font color=""green"">100%</font></p><br><br>']",0,ospan,practice_feedback,gzLNgyxJR3bpgz5VDLctxuCnxXh2,html-button-response,90,590570,0.0-46.0-2.0-1.0-2.0-1.0,,,,,,,,,,,,,,,62ac70ac67b1d7d5b5f46c02,08:53:07,03/04/2024
,"<p style=""font-size:75px;"">...</p>",,ospan,iti,gzLNgyxJR3bpgz5VDLctxuCnxXh2,html-keyboard-response,91,591575,0.0-46.0-2.0-2.0-0.0,,,,,,,,,,,,,,,62ac70ac67b1d7d5b5f46c02,08:53:07,03/04/2024
4274.0,,,ospan,symmetry,gzLNgyxJR3bpgz5VDLctxuCnxXh2,symmetry-judgement-task,92,596924,0.0-46.0-2.0-2.0-1.0-0.0,,,,,,,,,,1.0,1.0,,,,62ac70ac67b1d7d5b5f46c02,08:53:07,03/04/2024
,"<div style=""font-size: 10rem; color: #0000FF"">C</div>",,ospan,letter,gzLNgyxJR3bpgz5VDLctxuCnxXh2,html-keyboard-response,93,597927,0.0-46.0-2.0-2.0-1.0-1.0,,,,,,,,,,,,,,,62ac70ac67b1d7d5b5f46c02,08:53:07,03/04/2024
4035.0,,,ospan,symmetry,gzLNgyxJR3bpgz5VDLctxuCnxXh2,symmetry-judgement-task,94,603789,0.0-46.0-2.0-2.0-1.0-2.0,,,,,,,,,,1.0,1.0,,,,62ac70ac67b1d7d5b5f46c02,08:53:07,03/04/2024
,"<div style=""font-size: 10rem; color: #0000FF"">G</div>",,ospan,letter,gzLNgyxJR3bpgz5VDLctxuCnxXh2,html-keyboard-response,95,604792,0.0-46.0-2.0-2.0-1.0-3.0,,,,,,,,,,,,,,,62ac70ac67b1d7d5b5f46c02,08:53:07,03/04/2024
2872.0,,,ospan,symmetry,gzLNgyxJR3bpgz5VDLctxuCnxXh2,symmetry-judgement-task,96,609489,0.0-46.0-2.0-2.0-1.0-4.0,,,,,,,,,,1.0,1.0,,,,62ac70ac67b1d7d5b5f46c02,08:53:07,03/04/2024
,"<div style=""font-size: 10rem; color: #0000FF"">Q</div>",,ospan,letter,gzLNgyxJR3bpgz5VDLctxuCnxXh2,html-keyboard-response,97,610491,0.0-46.0-2.0-2.0-1.0-5.0,,,,,,,,,,,,,,,62ac70ac67b1d7d5b5f46c02,08:53:07,03/04/2024
5958.0,"<div class = numbox><p style=""font-size: 2.4rem"">Please recall the letters you saw to the best of your ability. If you do not remember a particular letter, use the SKIP button.<br><b>(When you are ready to lock in your answer, press ENTER)</b></p><button id = button_1 class = ""square num-button"" onclick = ""recordClick(this)""><div class = content><div class = numbers>C</div></div></button><button id = button_2 class = ""square num-button"" onclick = ""recordClick(this)""><div class = content><div class = numbers>G</div></div></button><button id = button_3 class = ""square num-button"" onclick = ""recordClick(this)""><div class = content><div class = numbers>H</div></div></button><button id = button_4 class = ""square num-button"" onclick = ""recordClick(this)""><div class = content><div class = numbers>J</div></div></button><button id = button_5 class = ""square num-button"" onclick = ""recordClick(this)""><div class = content><div class = numbers>K</div></div></button><button id = button_6 class = ""square num-button"" onclick = ""recordClick(this)""><div class = content><div class = numbers>L</div></div></button><button id = button_7 class = ""square num-button"" onclick = ""recordClick(this)""><div class = content><div class = numbers>N</div></div></button><button id = button_8 class = ""square num-button"" onclick = ""recordClick(this)""><div class = content><div class = numbers>P</div></div></button><button id = button_9 class = ""square num-button"" onclick = ""recordClick(this)""><div class = content><div class = numbers>Q</div></div></button><button id = button_10 class = ""square num-button"" onclick = ""recordClick(this)""><div class = content><div class = numbers>R</div></div></button><button id = button_11 class = ""square num-button"" onclick = ""recordClick(this)""><div class = content><div class = numbers>S</div></div></button><button id = button_12 class = ""square num-button"" onclick = ""recordClick(this)""><div class = content><div class = numbers>Y</div></div></button><button class = clear_button id = ""ClearButton"" onclick = ""clearResponse()"">BACKSPACE</button><button class = blank_button id = ""BlankButton"" onclick = ""blankResponse()"">SKIP</button><p style=""font-size: 2.4rem""><u><b>Current Answer:</b></u></p><br><br><div id=echoed_txt style=""font-size: 5rem; color:blue;""><b></b></div></div>",enter,ospan,retrieval,gzLNgyxJR3bpgz5VDLctxuCnxXh2,html-keyboard-response,98,617204,0.0-46.0-2.0-2.0-2.0-0.0,NA,NA,NA,3.0,"[""C"",""G"",""Q""]","[""C"",""G"",""Q""]",1.0,3.0,"['<font color=""green"">C</font>', '<font color=""green"">G</font>', '<font color=""green"">Q</font>']",,,,,,62ac70ac67b1d7d5b5f46c02,08:53:07,03/04/2024
1247.0000000001164,"['<p style=""font-size:44px"">Letters:<br><br><br><font color=""green"">C</font> <font color=""green"">G</font> <font color=""green"">Q</font></p><br><br><p style=""font-size:30px"">Symmetry:<br><br><font color=""green"">100%</font></p><br><br>']",0,ospan,practice_feedback,gzLNgyxJR3bpgz5VDLctxuCnxXh2,html-button-response,99,618954,0.0-46.0-2.0-2.0-2.0-1.0,,,,,,,,,,,,,,,62ac70ac67b1d7d5b5f46c02,08:53:07,03/04/2024
6112.0,"<div class = 'left_align' style='font-size: 3rem; line-height: 1.3;'><b>Great work! That is the end of practice.</b><br><br>The real trials will look just like the practice trials you just completed.<br><br><u>Here, you will not see feedback</u>. First, you will see an grid picture to judge,<br>then a letter to remember. When the recall screen appears, report the letters in the<br>order presented. If you forget a letter, remember to use the <b>blank</b> button to move to the<br>next letter. Some of the sets will have more symmetry grids and letters than others.<br><br>It is important that you do your best on both the symmetry judgments and the letter recall<br>parts of the experiment. For for the symmetry judgments, try to work as <b>quickly</b> and <br>as <b>accurately</b> as possible. Remember to keep your symmetry accuracy at 85% or above.<br><br><b>For the letters, do NOT use any external aid (e.g., writing on paper, electronic device).</b><br><br>It is <u>very important</u> to our experiment to have a <b>true</b> view of your real performance.<br><br>Do not worry if you miss some when it gets hard! This task is meant to be very challenging!<br><br>Click the button to begin.</div><br><br><br><br>",0,ospan,starting_real_here,gzLNgyxJR3bpgz5VDLctxuCnxXh2,html-button-response,100,625071,0.0-46.0-2.0-3.0,,,,,,,,,,,,,,,62ac70ac67b1d7d5b5f46c02,08:53:07,03/04/2024
,"<p style=""font-size:75px;"">...</p>",,ospan,iti,gzLNgyxJR3bpgz5VDLctxuCnxXh2,html-keyboard-response,101,626327,0.0-46.0-3.0-0.0-0.0,,,,,,,,,,,,,,,62ac70ac67b1d7d5b5f46c02,08:53:07,03/04/2024
2206.0,,,ospan,symmetry,gzLNgyxJR3bpgz5VDLctxuCnxXh2,symmetry-judgement-task,102,629605,0.0-46.0-3.0-0.0-1.0-0.0,,,,,,,,,,1.0,1.0,,,,62ac70ac67b1d7d5b5f46c02,08:53:07,03/04/2024
,"<div style=""font-size: 10rem; color: #0000FF"">J</div>",,ospan,letter,gzLNgyxJR3bpgz5VDLctxuCnxXh2,html-keyboard-response,103,630608,0.0-46.0-3.0-0.0-1.0-1.0,,,,,,,,,,,,,,,62ac70ac67b1d7d5b5f46c02,08:53:07,03/04/2024
1453.0,,,ospan,symmetry,gzLNgyxJR3bpgz5VDLctxuCnxXh2,symmetry-judgement-task,104,633889,0.0-46.0-3.0-0.0-1.0-2.0,,,,,,,,,,1.0,1.0,,,,62ac70ac67b1d7d5b5f46c02,08:53:07,03/04/2024
,"<div style=""font-size: 10rem; color: #0000FF"">H</div>",,ospan,letter,gzLNgyxJR3bpgz5VDLctxuCnxXh2,html-keyboard-response,105,634892,0.0-46.0-3.0-0.0-1.0-3.0,,,,,,,,,,,,,,,62ac70ac67b1d7d5b5f46c02,08:53:07,03/04/2024
2517.0,,,ospan,symmetry,gzLNgyxJR3bpgz5VDLctxuCnxXh2,symmetry-judgement-task,106,639238,0.0-46.0-3.0-0.0-1.0-4.0,,,,,,,,,,1.0,1.0,,,,62ac70ac67b1d7d5b5f46c02,08:53:07,03/04/2024
,"<div style=""font-size: 10rem; color: #0000FF"">Y</div>",,ospan,letter,gzLNgyxJR3bpgz5VDLctxuCnxXh2,html-keyboard-response,107,640241,0.0-46.0-3.0-0.0-1.0-5.0,,,,,,,,,,,,,,,62ac70ac67b1d7d5b5f46c02,08:53:07,03/04/2024
5096.0,"<div class = numbox><p style=""font-size: 2.4rem"">Please recall the letters you saw to the best of your ability. If you do not remember a particular letter, use the SKIP button.<br><b>(When you are ready to lock in your answer, press ENTER)</b></p><button id = button_1 class = ""square num-button"" onclick = ""recordClick(this)""><div class = content><div class = numbers>C</div></div></button><button id = button_2 class = ""square num-button"" onclick = ""recordClick(this)""><div class = content><div class = numbers>G</div></div></button><button id = button_3 class = ""square num-button"" onclick = ""recordClick(this)""><div class = content><div class = numbers>H</div></div></button><button id = button_4 class = ""square num-button"" onclick = ""recordClick(this)""><div class = content><div class = numbers>J</div></div></button><button id = button_5 class = ""square num-button"" onclick = ""recordClick(this)""><div class = content><div class = numbers>K</div></div></button><button id = button_6 class = ""square num-button"" onclick = ""recordClick(this)""><div class = content><div class = numbers>L</div></div></button><button id = button_7 class = ""square num-button"" onclick = ""recordClick(this)""><div class = content><div class = numbers>N</div></div></button><button id = button_8 class = ""square num-button"" onclick = ""recordClick(this)""><div class = content><div class = numbers>P</div></div></button><button id = button_9 class = ""square num-button"" onclick = ""recordClick(this)""><div class = content><div class = numbers>Q</div></div></button><button id = button_10 class = ""square num-button"" onclick = ""recordClick(this)""><div class = content><div class = numbers>R</div></div></button><button id = button_11 class = ""square num-button"" onclick = ""recordClick(this)""><div class = content><div class = numbers>S</div></div></button><button id = button_12 class = ""square num-button"" onclick = ""recordClick(this)""><div class = content><div class = numbers>Y</div></div></button><button class = clear_button id = ""ClearButton"" onclick = ""clearResponse()"">BACKSPACE</button><button class = blank_button id = ""BlankButton"" onclick = ""blankResponse()"">SKIP</button><p style=""font-size: 2.4rem""><u><b>Current Answer:</b></u></p><br><br><div id=echoed_txt style=""font-size: 5rem; color:blue;""><b></b></div></div>",enter,ospan,retrieval,gzLNgyxJR3bpgz5VDLctxuCnxXh2,html-keyboard-response,108,646092,0.0-46.0-3.0-0.0-2.0,3,3,3,3.0,"[""J"",""H"",""Y""]","[""J"",""H"",""Y""]",1.0,3.0,,,,,,,62ac70ac67b1d7d5b5f46c02,08:53:07,03/04/2024
1342.0,[''],0,ospan,feedback,gzLNgyxJR3bpgz5VDLctxuCnxXh2,html-button-response,109,647937,0.0-46.0-3.0-0.0-3.0,,,,,,,,,,,,100.0,0.0,,62ac70ac67b1d7d5b5f46c02,08:53:07,03/04/2024
,"<p style=""font-size:75px;"">...</p>",,ospan,iti,gzLNgyxJR3bpgz5VDLctxuCnxXh2,html-keyboard-response,110,648942,0.0-46.0-4.0-0.0-0.0,,,,,,,,,,,,,,,62ac70ac67b1d7d5b5f46c02,08:53:07,03/04/2024
2438.0,,,ospan,symmetry,gzLNgyxJR3bpgz5VDLctxuCnxXh2,symmetry-judgement-task,111,652455,0.0-46.0-4.0-0.0-1.0-0.0,,,,,,,,,,1.0,1.0,,,,62ac70ac67b1d7d5b5f46c02,08:53:07,03/04/2024
,"<div style=""font-size: 10rem; color: #0000FF"">C</div>",,ospan,letter,gzLNgyxJR3bpgz5VDLctxuCnxXh2,html-keyboard-response,112,653458,0.0-46.0-4.0-0.0-1.0-1.0,,,,,,,,,,,,,,,62ac70ac67b1d7d5b5f46c02,08:53:07,03/04/2024
3558.0,,,ospan,symmetry,gzLNgyxJR3bpgz5VDLctxuCnxXh2,symmetry-judgement-task,113,658841,0.0-46.0-4.0-0.0-1.0-2.0,,,,,,,,,,1.0,1.0,,,,62ac70ac67b1d7d5b5f46c02,08:53:07,03/04/2024
,"<div style=""font-size: 10rem; color: #0000FF"">N</div>",,ospan,letter,gzLNgyxJR3bpgz5VDLctxuCnxXh2,html-keyboard-response,114,659845,0.0-46.0-4.0-0.0-1.0-3.0,,,,,,,,,,,,,,,62ac70ac67b1d7d5b5f46c02,08:53:07,03/04/2024
3865.0,,,ospan,symmetry,gzLNgyxJR3bpgz5VDLctxuCnxXh2,symmetry-judgement-task,115,665540,0.0-46.0-4.0-0.0-1.0-4.0,,,,,,,,,,1.0,1.0,,,,62ac70ac67b1d7d5b5f46c02,08:53:07,03/04/2024
,"<div style=""font-size: 10rem; color: #0000FF"">S</div>",,ospan,letter,gzLNgyxJR3bpgz5VDLctxuCnxXh2,html-keyboard-response,116,666544,0.0-46.0-4.0-0.0-1.0-5.0,,,,,,,,,,,,,,,62ac70ac67b1d7d5b5f46c02,08:53:07,03/04/2024
2487.0,,,ospan,symmetry,gzLNgyxJR3bpgz5VDLctxuCnxXh2,symmetry-judgement-task,117,670856,0.0-46.0-4.0-0.0-1.0-6.0,,,,,,,,,,1.0,1.0,,,,62ac70ac67b1d7d5b5f46c02,08:53:07,03/04/2024
,"<div style=""font-size: 10rem; color: #0000FF"">K</div>",,ospan,letter,gzLNgyxJR3bpgz5VDLctxuCnxXh2,html-keyboard-response,118,671859,0.0-46.0-4.0-0.0-1.0-7.0,,,,,,,,,,,,,,,62ac70ac67b1d7d5b5f46c02,08:53:07,03/04/2024
4740.0,"<div class = numbox><p style=""font-size: 2.4rem"">Please recall the letters you saw to the best of your ability. If you do not remember a particular letter, use the SKIP button.<br><b>(When you are ready to lock in your answer, press ENTER)</b></p><button id = button_1 class = ""square num-button"" onclick = ""recordClick(this)""><div class = content><div class = numbers>C</div></div></button><button id = button_2 class = ""square num-button"" onclick = ""recordClick(this)""><div class = content><div class = numbers>G</div></div></button><button id = button_3 class = ""square num-button"" onclick = ""recordClick(this)""><div class = content><div class = numbers>H</div></div></button><button id = button_4 class = ""square num-button"" onclick = ""recordClick(this)""><div class = content><div class = numbers>J</div></div></button><button id = button_5 class = ""square num-button"" onclick = ""recordClick(this)""><div class = content><div class = numbers>K</div></div></button><button id = button_6 class = ""square num-button"" onclick = ""recordClick(this)""><div class = content><div class = numbers>L</div></div></button><button id = button_7 class = ""square num-button"" onclick = ""recordClick(this)""><div class = content><div class = numbers>N</div></div></button><button id = button_8 class = ""square num-button"" onclick = ""recordClick(this)""><div class = content><div class = numbers>P</div></div></button><button id = button_9 class = ""square num-button"" onclick = ""recordClick(this)""><div class = content><div class = numbers>Q</div></div></button><button id = button_10 class = ""square num-button"" onclick = ""recordClick(this)""><div class = content><div class = numbers>R</div></div></button><button id = button_11 class = ""square num-button"" onclick = ""recordClick(this)""><div class = content><div class = numbers>S</div></div></button><button id = button_12 class = ""square num-button"" onclick = ""recordClick(this)""><div class = content><div class = numbers>Y</div></div></button><button class = clear_button id = ""ClearButton"" onclick = ""clearResponse()"">BACKSPACE</button><button class = blank_button id = ""BlankButton"" onclick = ""blankResponse()"">SKIP</button><p style=""font-size: 2.4rem""><u><b>Current Answer:</b></u></p><br><br><div id=echoed_txt style=""font-size: 5rem; color:blue;""><b></b></div></div>",enter,ospan,retrieval,gzLNgyxJR3bpgz5VDLctxuCnxXh2,html-keyboard-response,119,677354,0.0-46.0-4.0-0.0-2.0,7,7,7,4.0,"[""C"",""N"",""S"",""K""]","[""C"",""N"",""S"",""K""]",1.0,4.0,,,,,,,62ac70ac67b1d7d5b5f46c02,08:53:07,03/04/2024
3095.0000000001164,[''],0,ospan,feedback,gzLNgyxJR3bpgz5VDLctxuCnxXh2,html-button-response,120,680954,0.0-46.0-4.0-0.0-3.0,,,,,,,,,,,,100.0,0.0,,62ac70ac67b1d7d5b5f46c02,08:53:07,03/04/2024
,"<p style=""font-size:75px;"">...</p>",,ospan,iti,gzLNgyxJR3bpgz5VDLctxuCnxXh2,html-keyboard-response,121,681958,0.0-46.0-4.0-1.0-0.0,,,,,,,,,,,,,,,62ac70ac67b1d7d5b5f46c02,08:53:07,03/04/2024
3975.0,,,ospan,symmetry,gzLNgyxJR3bpgz5VDLctxuCnxXh2,symmetry-judgement-task,122,687005,0.0-46.0-4.0-1.0-1.0-0.0,,,,,,,,,,1.0,1.0,,,,62ac70ac67b1d7d5b5f46c02,08:53:07,03/04/2024
,"<div style=""font-size: 10rem; color: #0000FF"">H</div>",,ospan,letter,gzLNgyxJR3bpgz5VDLctxuCnxXh2,html-keyboard-response,123,688009,0.0-46.0-4.0-1.0-1.0-1.0,,,,,,,,,,,,,,,62ac70ac67b1d7d5b5f46c02,08:53:07,03/04/2024
1769.0,,,ospan,symmetry,gzLNgyxJR3bpgz5VDLctxuCnxXh2,symmetry-judgement-task,124,691606,0.0-46.0-4.0-1.0-1.0-2.0,,,,,,,,,,1.0,1.0,,,,62ac70ac67b1d7d5b5f46c02,08:53:07,03/04/2024
,"<div style=""font-size: 10rem; color: #0000FF"">R</div>",,ospan,letter,gzLNgyxJR3bpgz5VDLctxuCnxXh2,html-keyboard-response,125,692609,0.0-46.0-4.0-1.0-1.0-3.0,,,,,,,,,,,,,,,62ac70ac67b1d7d5b5f46c02,08:53:07,03/04/2024
1936.0,,,ospan,symmetry,gzLNgyxJR3bpgz5VDLctxuCnxXh2,symmetry-judgement-task,126,696372,0.0-46.0-4.0-1.0-1.0-4.0,,,,,,,,,,1.0,1.0,,,,62ac70ac67b1d7d5b5f46c02,08:53:07,03/04/2024
,"<div style=""font-size: 10rem; color: #0000FF"">Q</div>",,ospan,letter,gzLNgyxJR3bpgz5VDLctxuCnxXh2,html-keyboard-response,127,697376,0.0-46.0-4.0-1.0-1.0-5.0,,,,,,,,,,,,,,,62ac70ac67b1d7d5b5f46c02,08:53:07,03/04/2024
2275.0,,,ospan,symmetry,gzLNgyxJR3bpgz5VDLctxuCnxXh2,symmetry-judgement-task,128,701475,0.0-46.0-4.0-1.0-1.0-6.0,,,,,,,,,,1.0,1.0,,,,62ac70ac67b1d7d5b5f46c02,08:53:07,03/04/2024
,"<div style=""font-size: 10rem; color: #0000FF"">G</div>",,ospan,letter,gzLNgyxJR3bpgz5VDLctxuCnxXh2,html-keyboard-response,129,702478,0.0-46.0-4.0-1.0-1.0-7.0,,,,,,,,,,,,,,,62ac70ac67b1d7d5b5f46c02,08:53:07,03/04/2024
1868.0,,,ospan,symmetry,gzLNgyxJR3bpgz5VDLctxuCnxXh2,symmetry-judgement-task,130,706174,0.0-46.0-4.0-1.0-1.0-8.0,,,,,,,,,,1.0,1.0,,,,62ac70ac67b1d7d5b5f46c02,08:53:07,03/04/2024
,"<div style=""font-size: 10rem; color: #0000FF"">N</div>",,ospan,letter,gzLNgyxJR3bpgz5VDLctxuCnxXh2,html-keyboard-response,131,707177,0.0-46.0-4.0-1.0-1.0-9.0,,,,,,,,,,,,,,,62ac70ac67b1d7d5b5f46c02,08:53:07,03/04/2024
7579.0,"<div class = numbox><p style=""font-size: 2.4rem"">Please recall the letters you saw to the best of your ability. If you do not remember a particular letter, use the SKIP button.<br><b>(When you are ready to lock in your answer, press ENTER)</b></p><button id = button_1 class = ""square num-button"" onclick = ""recordClick(this)""><div class = content><div class = numbers>C</div></div></button><button id = button_2 class = ""square num-button"" onclick = ""recordClick(this)""><div class = content><div class = numbers>G</div></div></button><button id = button_3 class = ""square num-button"" onclick = ""recordClick(this)""><div class = content><div class = numbers>H</div></div></button><button id = button_4 class = ""square num-button"" onclick = ""recordClick(this)""><div class = content><div class = numbers>J</div></div></button><button id = button_5 class = ""square num-button"" onclick = ""recordClick(this)""><div class = content><div class = numbers>K</div></div></button><button id = button_6 class = ""square num-button"" onclick = ""recordClick(this)""><div class = content><div class = numbers>L</div></div></button><button id = button_7 class = ""square num-button"" onclick = ""recordClick(this)""><div class = content><div class = numbers>N</div></div></button><button id = button_8 class = ""square num-button"" onclick = ""recordClick(this)""><div class = content><div class = numbers>P</div></div></button><button id = button_9 class = ""square num-button"" onclick = ""recordClick(this)""><div class = content><div class = numbers>Q</div></div></button><button id = button_10 class = ""square num-button"" onclick = ""recordClick(this)""><div class = content><div class = numbers>R</div></div></button><button id = button_11 class = ""square num-button"" onclick = ""recordClick(this)""><div class = content><div class = numbers>S</div></div></button><button id = button_12 class = ""square num-button"" onclick = ""recordClick(this)""><div class = content><div class = numbers>Y</div></div></button><button class = clear_button id = ""ClearButton"" onclick = ""clearResponse()"">BACKSPACE</button><button class = blank_button id = ""BlankButton"" onclick = ""blankResponse()"">SKIP</button><p style=""font-size: 2.4rem""><u><b>Current Answer:</b></u></p><br><br><div id=echoed_txt style=""font-size: 5rem; color:blue;""><b></b></div></div>",enter,ospan,retrieval,gzLNgyxJR3bpgz5VDLctxuCnxXh2,html-keyboard-response,132,715510,0.0-46.0-4.0-1.0-2.0,12,12,12,5.0,"[""H"",""R"",""Q"",""G"",""N""]","[""H"",""R"",""Q"",""G"",""N""]",1.0,5.0,,,,,,,62ac70ac67b1d7d5b5f46c02,08:53:07,03/04/2024
1308.0,[''],0,ospan,feedback,gzLNgyxJR3bpgz5VDLctxuCnxXh2,html-button-response,133,717321,0.0-46.0-4.0-1.0-3.0,,,,,,,,,,,,100.0,0.0,,62ac70ac67b1d7d5b5f46c02,08:53:07,03/04/2024
,"<p style=""font-size:75px;"">...</p>",,ospan,iti,gzLNgyxJR3bpgz5VDLctxuCnxXh2,html-keyboard-response,134,718326,0.0-46.0-4.0-2.0-0.0,,,,,,,,,,,,,,,62ac70ac67b1d7d5b5f46c02,08:53:07,03/04/2024
2809.0,,,ospan,symmetry,gzLNgyxJR3bpgz5VDLctxuCnxXh2,symmetry-judgement-task,135,722208,0.0-46.0-4.0-2.0-1.0-0.0,,,,,,,,,,1.0,1.0,,,,62ac70ac67b1d7d5b5f46c02,08:53:07,03/04/2024
,"<div style=""font-size: 10rem; color: #0000FF"">P</div>",,ospan,letter,gzLNgyxJR3bpgz5VDLctxuCnxXh2,html-keyboard-response,136,723211,0.0-46.0-4.0-2.0-1.0-1.0,,,,,,,,,,,,,,,62ac70ac67b1d7d5b5f46c02,08:53:07,03/04/2024
5665.0,,,ospan,symmetry,gzLNgyxJR3bpgz5VDLctxuCnxXh2,symmetry-judgement-task,137,730707,0.0-46.0-4.0-2.0-1.0-2.0,,,,,,,,,,1.0,1.0,,,,62ac70ac67b1d7d5b5f46c02,08:53:07,03/04/2024
,"<div style=""font-size: 10rem; color: #0000FF"">C</div>",,ospan,letter,gzLNgyxJR3bpgz5VDLctxuCnxXh2,html-keyboard-response,138,731710,0.0-46.0-4.0-2.0-1.0-3.0,,,,,,,,,,,,,,,62ac70ac67b1d7d5b5f46c02,08:53:07,03/04/2024
2521.0,,,ospan,symmetry,gzLNgyxJR3bpgz5VDLctxuCnxXh2,symmetry-judgement-task,139,736063,0.0-46.0-4.0-2.0-1.0-4.0,,,,,,,,,,1.0,1.0,,,,62ac70ac67b1d7d5b5f46c02,08:53:07,03/04/2024
,"<div style=""font-size: 10rem; color: #0000FF"">K</div>",,ospan,letter,gzLNgyxJR3bpgz5VDLctxuCnxXh2,html-keyboard-response,140,737066,0.0-46.0-4.0-2.0-1.0-5.0,,,,,,,,,,,,,,,62ac70ac67b1d7d5b5f46c02,08:53:07,03/04/2024
4672.0,"<div class = numbox><p style=""font-size: 2.4rem"">Please recall the letters you saw to the best of your ability. If you do not remember a particular letter, use the SKIP button.<br><b>(When you are ready to lock in your answer, press ENTER)</b></p><button id = button_1 class = ""square num-button"" onclick = ""recordClick(this)""><div class = content><div class = numbers>C</div></div></button><button id = button_2 class = ""square num-button"" onclick = ""recordClick(this)""><div class = content><div class = numbers>G</div></div></button><button id = button_3 class = ""square num-button"" onclick = ""recordClick(this)""><div class = content><div class = numbers>H</div></div></button><button id = button_4 class = ""square num-button"" onclick = ""recordClick(this)""><div class = content><div class = numbers>J</div></div></button><button id = button_5 class = ""square num-button"" onclick = ""recordClick(this)""><div class = content><div class = numbers>K</div></div></button><button id = button_6 class = ""square num-button"" onclick = ""recordClick(this)""><div class = content><div class = numbers>L</div></div></button><button id = button_7 class = ""square num-button"" onclick = ""recordClick(this)""><div class = content><div class = numbers>N</div></div></button><button id = button_8 class = ""square num-button"" onclick = ""recordClick(this)""><div class = content><div class = numbers>P</div></div></button><button id = button_9 class = ""square num-button"" onclick = ""recordClick(this)""><div class = content><div class = numbers>Q</div></div></button><button id = button_10 class = ""square num-button"" onclick = ""recordClick(this)""><div class = content><div class = numbers>R</div></div></button><button id = button_11 class = ""square num-button"" onclick = ""recordClick(this)""><div class = content><div class = numbers>S</div></div></button><button id = button_12 class = ""square num-button"" onclick = ""recordClick(this)""><div class = content><div class = numbers>Y</div></div></button><button class = clear_button id = ""ClearButton"" onclick = ""clearResponse()"">BACKSPACE</button><button class = blank_button id = ""BlankButton"" onclick = ""blankResponse()"">SKIP</button><p style=""font-size: 2.4rem""><u><b>Current Answer:</b></u></p><br><br><div id=echoed_txt style=""font-size: 5rem; color:blue;""><b></b></div></div>",enter,ospan,retrieval,gzLNgyxJR3bpgz5VDLctxuCnxXh2,html-keyboard-response,141,742492,0.0-46.0-4.0-2.0-2.0,15,15,15,3.0,"[""P"",""C"",""K""]","[""P"",""C"",""K""]",1.0,3.0,,,,,,,62ac70ac67b1d7d5b5f46c02,08:53:07,03/04/2024
1058.9999999998836,[''],0,ospan,feedback,gzLNgyxJR3bpgz5VDLctxuCnxXh2,html-button-response,142,744054,0.0-46.0-4.0-2.0-3.0,,,,,,,,,,,,100.0,0.0,,62ac70ac67b1d7d5b5f46c02,08:53:07,03/04/2024
,"<p style=""font-size:75px;"">...</p>",,ospan,iti,gzLNgyxJR3bpgz5VDLctxuCnxXh2,html-keyboard-response,143,745059,0.0-46.0-5.0-0.0-0.0,,,,,,,,,,,,,,,62ac70ac67b1d7d5b5f46c02,08:53:07,03/04/2024
1722.0,,,ospan,symmetry,gzLNgyxJR3bpgz5VDLctxuCnxXh2,symmetry-judgement-task,144,747856,0.0-46.0-5.0-0.0-1.0-0.0,,,,,,,,,,1.0,1.0,,,,62ac70ac67b1d7d5b5f46c02,08:53:07,03/04/2024
,"<div style=""font-size: 10rem; color: #0000FF"">L</div>",,ospan,letter,gzLNgyxJR3bpgz5VDLctxuCnxXh2,html-keyboard-response,145,748860,0.0-46.0-5.0-0.0-1.0-1.0,,,,,,,,,,,,,,,62ac70ac67b1d7d5b5f46c02,08:53:07,03/04/2024
2107.0,,,ospan,symmetry,gzLNgyxJR3bpgz5VDLctxuCnxXh2,symmetry-judgement-task,146,752791,0.0-46.0-5.0-0.0-1.0-2.0,,,,,,,,,,1.0,1.0,,,,62ac70ac67b1d7d5b5f46c02,08:53:07,03/04/2024
,"<div style=""font-size: 10rem; color: #0000FF"">Y</div>",,ospan,letter,gzLNgyxJR3bpgz5VDLctxuCnxXh2,html-keyboard-response,147,753793,0.0-46.0-5.0-0.0-1.0-3.0,,,,,,,,,,,,,,,62ac70ac67b1d7d5b5f46c02,08:53:07,03/04/2024
1821.0,,,ospan,symmetry,gzLNgyxJR3bpgz5VDLctxuCnxXh2,symmetry-judgement-task,148,757439,0.0-46.0-5.0-0.0-1.0-4.0,,,,,,,,,,1.0,1.0,,,,62ac70ac67b1d7d5b5f46c02,08:53:07,03/04/2024
,"<div style=""font-size: 10rem; color: #0000FF"">N</div>",,ospan,letter,gzLNgyxJR3bpgz5VDLctxuCnxXh2,html-keyboard-response,149,758442,0.0-46.0-5.0-0.0-1.0-5.0,,,,,,,,,,,,,,,62ac70ac67b1d7d5b5f46c02,08:53:07,03/04/2024
4285.0,,,ospan,symmetry,gzLNgyxJR3bpgz5VDLctxuCnxXh2,symmetry-judgement-task,150,764556,0.0-46.0-5.0-0.0-1.0-6.0,,,,,,,,,,1.0,1.0,,,,62ac70ac67b1d7d5b5f46c02,08:53:07,03/04/2024
,"<div style=""font-size: 10rem; color: #0000FF"">C</div>",,ospan,letter,gzLNgyxJR3bpgz5VDLctxuCnxXh2,html-keyboard-response,151,765559,0.0-46.0-5.0-0.0-1.0-7.0,,,,,,,,,,,,,,,62ac70ac67b1d7d5b5f46c02,08:53:07,03/04/2024
2726.0,,,ospan,symmetry,gzLNgyxJR3bpgz5VDLctxuCnxXh2,symmetry-judgement-task,152,770110,0.0-46.0-5.0-0.0-1.0-8.0,,,,,,,,,,1.0,1.0,,,,62ac70ac67b1d7d5b5f46c02,08:53:07,03/04/2024
,"<div style=""font-size: 10rem; color: #0000FF"">P</div>",,ospan,letter,gzLNgyxJR3bpgz5VDLctxuCnxXh2,html-keyboard-response,153,771113,0.0-46.0-5.0-0.0-1.0-9.0,,,,,,,,,,,,,,,62ac70ac67b1d7d5b5f46c02,08:53:07,03/04/2024
1633.0,,,ospan,symmetry,gzLNgyxJR3bpgz5VDLctxuCnxXh2,symmetry-judgement-task,154,774573,0.0-46.0-5.0-0.0-1.0-10.0,,,,,,,,,,1.0,1.0,,,,62ac70ac67b1d7d5b5f46c02,08:53:07,03/04/2024
,"<div style=""font-size: 10rem; color: #0000FF"">G</div>",,ospan,letter,gzLNgyxJR3bpgz5VDLctxuCnxXh2,html-keyboard-response,155,775576,0.0-46.0-5.0-0.0-1.0-11.0,,,,,,,,,,,,,,,62ac70ac67b1d7d5b5f46c02,08:53:07,03/04/2024
6505.0,"<div class = numbox><p style=""font-size: 2.4rem"">Please recall the letters you saw to the best of your ability. If you do not remember a particular letter, use the SKIP button.<br><b>(When you are ready to lock in your answer, press ENTER)</b></p><button id = button_1 class = ""square num-button"" onclick = ""recordClick(this)""><div class = content><div class = numbers>C</div></div></button><button id = button_2 class = ""square num-button"" onclick = ""recordClick(this)""><div class = content><div class = numbers>G</div></div></button><button id = button_3 class = ""square num-button"" onclick = ""recordClick(this)""><div class = content><div class = numbers>H</div></div></button><button id = button_4 class = ""square num-button"" onclick = ""recordClick(this)""><div class = content><div class = numbers>J</div></div></button><button id = button_5 class = ""square num-button"" onclick = ""recordClick(this)""><div class = content><div class = numbers>K</div></div></button><button id = button_6 class = ""square num-button"" onclick = ""recordClick(this)""><div class = content><div class = numbers>L</div></div></button><button id = button_7 class = ""square num-button"" onclick = ""recordClick(this)""><div class = content><div class = numbers>N</div></div></button><button id = button_8 class = ""square num-button"" onclick = ""recordClick(this)""><div class = content><div class = numbers>P</div></div></button><button id = button_9 class = ""square num-button"" onclick = ""recordClick(this)""><div class = content><div class = numbers>Q</div></div></button><button id = button_10 class = ""square num-button"" onclick = ""recordClick(this)""><div class = content><div class = numbers>R</div></div></button><button id = button_11 class = ""square num-button"" onclick = ""recordClick(this)""><div class = content><div class = numbers>S</div></div></button><button id = button_12 class = ""square num-button"" onclick = ""recordClick(this)""><div class = content><div class = numbers>Y</div></div></button><button class = clear_button id = ""ClearButton"" onclick = ""clearResponse()"">BACKSPACE</button><button class = blank_button id = ""BlankButton"" onclick = ""blankResponse()"">SKIP</button><p style=""font-size: 2.4rem""><u><b>Current Answer:</b></u></p><br><br><div id=echoed_txt style=""font-size: 5rem; color:blue;""><b></b></div></div>",enter,ospan,retrieval,gzLNgyxJR3bpgz5VDLctxuCnxXh2,html-keyboard-response,156,782835,0.0-46.0-5.0-0.0-2.0,21,21,21,6.0,"[""L"",""Y"",""N"",""C"",""P"",""G""]","[""L"",""Y"",""N"",""C"",""P"",""G""]",1.0,6.0,,,,,,,62ac70ac67b1d7d5b5f46c02,08:53:07,03/04/2024
1599.0000000001164,[''],0,ospan,feedback,gzLNgyxJR3bpgz5VDLctxuCnxXh2,html-button-response,157,784937,0.0-46.0-5.0-0.0-3.0,,,,,,,,,,,,100.0,0.0,,62ac70ac67b1d7d5b5f46c02,08:53:07,03/04/2024
,"<p style=""font-size:75px;"">...</p>",,ospan,iti,gzLNgyxJR3bpgz5VDLctxuCnxXh2,html-keyboard-response,158,785942,0.0-46.0-5.0-1.0-0.0,,,,,,,,,,,,,,,62ac70ac67b1d7d5b5f46c02,08:53:07,03/04/2024
1408.0,,,ospan,symmetry,gzLNgyxJR3bpgz5VDLctxuCnxXh2,symmetry-judgement-task,159,788422,0.0-46.0-5.0-1.0-1.0-0.0,,,,,,,,,,1.0,1.0,,,,62ac70ac67b1d7d5b5f46c02,08:53:07,03/04/2024
,"<div style=""font-size: 10rem; color: #0000FF"">Q</div>",,ospan,letter,gzLNgyxJR3bpgz5VDLctxuCnxXh2,html-keyboard-response,160,789426,0.0-46.0-5.0-1.0-1.0-1.0,,,,,,,,,,,,,,,62ac70ac67b1d7d5b5f46c02,08:53:07,03/04/2024
3090.0,,,ospan,symmetry,gzLNgyxJR3bpgz5VDLctxuCnxXh2,symmetry-judgement-task,161,794339,0.0-46.0-5.0-1.0-1.0-2.0,,,,,,,,,,1.0,1.0,,,,62ac70ac67b1d7d5b5f46c02,08:53:07,03/04/2024
,"<div style=""font-size: 10rem; color: #0000FF"">G</div>",,ospan,letter,gzLNgyxJR3bpgz5VDLctxuCnxXh2,html-keyboard-response,162,795342,0.0-46.0-5.0-1.0-1.0-3.0,,,,,,,,,,,,,,,62ac70ac67b1d7d5b5f46c02,08:53:07,03/04/2024
1360.0,,,ospan,symmetry,gzLNgyxJR3bpgz5VDLctxuCnxXh2,symmetry-judgement-task,163,798527,0.0-46.0-5.0-1.0-1.0-4.0,,,,,,,,,,1.0,1.0,,,,62ac70ac67b1d7d5b5f46c02,08:53:07,03/04/2024
,"<div style=""font-size: 10rem; color: #0000FF"">J</div>",,ospan,letter,gzLNgyxJR3bpgz5VDLctxuCnxXh2,html-keyboard-response,164,799529,0.0-46.0-5.0-1.0-1.0-5.0,,,,,,,,,,,,,,,62ac70ac67b1d7d5b5f46c02,08:53:07,03/04/2024
1814.0,,,ospan,symmetry,gzLNgyxJR3bpgz5VDLctxuCnxXh2,symmetry-judgement-task,165,803173,0.0-46.0-5.0-1.0-1.0-6.0,,,,,,,,,,1.0,1.0,,,,62ac70ac67b1d7d5b5f46c02,08:53:07,03/04/2024
,"<div style=""font-size: 10rem; color: #0000FF"">S</div>",,ospan,letter,gzLNgyxJR3bpgz5VDLctxuCnxXh2,html-keyboard-response,166,804176,0.0-46.0-5.0-1.0-1.0-7.0,,,,,,,,,,,,,,,62ac70ac67b1d7d5b5f46c02,08:53:07,03/04/2024
1538.0,,,ospan,symmetry,gzLNgyxJR3bpgz5VDLctxuCnxXh2,symmetry-judgement-task,167,807542,0.0-46.0-5.0-1.0-1.0-8.0,,,,,,,,,,1.0,1.0,,,,62ac70ac67b1d7d5b5f46c02,08:53:07,03/04/2024
,"<div style=""font-size: 10rem; color: #0000FF"">P</div>",,ospan,letter,gzLNgyxJR3bpgz5VDLctxuCnxXh2,html-keyboard-response,168,808545,0.0-46.0-5.0-1.0-1.0-9.0,,,,,,,,,,,,,,,62ac70ac67b1d7d5b5f46c02,08:53:07,03/04/2024
1368.0,,,ospan,symmetry,gzLNgyxJR3bpgz5VDLctxuCnxXh2,symmetry-judgement-task,169,811741,0.0-46.0-5.0-1.0-1.0-10.0,,,,,,,,,,1.0,1.0,,,,62ac70ac67b1d7d5b5f46c02,08:53:07,03/04/2024
,"<div style=""font-size: 10rem; color: #0000FF"">R</div>",,ospan,letter,gzLNgyxJR3bpgz5VDLctxuCnxXh2,html-keyboard-response,170,812743,0.0-46.0-5.0-1.0-1.0-11.0,,,,,,,,,,,,,,,62ac70ac67b1d7d5b5f46c02,08:53:07,03/04/2024
3996.0,,,ospan,symmetry,gzLNgyxJR3bpgz5VDLctxuCnxXh2,symmetry-judgement-task,171,818558,0.0-46.0-5.0-1.0-1.0-12.0,,,,,,,,,,1.0,1.0,,,,62ac70ac67b1d7d5b5f46c02,08:53:07,03/04/2024
,"<div style=""font-size: 10rem; color: #0000FF"">K</div>",,ospan,letter,gzLNgyxJR3bpgz5VDLctxuCnxXh2,html-keyboard-response,172,819561,0.0-46.0-5.0-1.0-1.0-13.0,,,,,,,,,,,,,,,62ac70ac67b1d7d5b5f46c02,08:53:07,03/04/2024
8493.0,"<div class = numbox><p style=""font-size: 2.4rem"">Please recall the letters you saw to the best of your ability. If you do not remember a particular letter, use the SKIP button.<br><b>(When you are ready to lock in your answer, press ENTER)</b></p><button id = button_1 class = ""square num-button"" onclick = ""recordClick(this)""><div class = content><div class = numbers>C</div></div></button><button id = button_2 class = ""square num-button"" onclick = ""recordClick(this)""><div class = content><div class = numbers>G</div></div></button><button id = button_3 class = ""square num-button"" onclick = ""recordClick(this)""><div class = content><div class = numbers>H</div></div></button><button id = button_4 class = ""square num-button"" onclick = ""recordClick(this)""><div class = content><div class = numbers>J</div></div></button><button id = button_5 class = ""square num-button"" onclick = ""recordClick(this)""><div class = content><div class = numbers>K</div></div></button><button id = button_6 class = ""square num-button"" onclick = ""recordClick(this)""><div class = content><div class = numbers>L</div></div></button><button id = button_7 class = ""square num-button"" onclick = ""recordClick(this)""><div class = content><div class = numbers>N</div></div></button><button id = button_8 class = ""square num-button"" onclick = ""recordClick(this)""><div class = content><div class = numbers>P</div></div></button><button id = button_9 class = ""square num-button"" onclick = ""recordClick(this)""><div class = content><div class = numbers>Q</div></div></button><button id = button_10 class = ""square num-button"" onclick = ""recordClick(this)""><div class = content><div class = numbers>R</div></div></button><button id = button_11 class = ""square num-button"" onclick = ""recordClick(this)""><div class = content><div class = numbers>S</div></div></button><button id = button_12 class = ""square num-button"" onclick = ""recordClick(this)""><div class = content><div class = numbers>Y</div></div></button><button class = clear_button id = ""ClearButton"" onclick = ""clearResponse()"">BACKSPACE</button><button class = blank_button id = ""BlankButton"" onclick = ""blankResponse()"">SKIP</button><p style=""font-size: 2.4rem""><u><b>Current Answer:</b></u></p><br><br><div id=echoed_txt style=""font-size: 5rem; color:blue;""><b></b></div></div>",enter,ospan,retrieval,gzLNgyxJR3bpgz5VDLctxuCnxXh2,html-keyboard-response,173,828809,0.0-46.0-5.0-1.0-2.0,28,27,21,7.0,"[""Q"",""G"",""J"",""S"",""P"",""R""]","[""Q"",""G"",""J"",""S"",""P"",""R"",""K""]",0.0,6.0,,,,,,,62ac70ac67b1d7d5b5f46c02,08:53:07,03/04/2024
1658.0,[''],0,ospan,feedback,gzLNgyxJR3bpgz5VDLctxuCnxXh2,html-button-response,174,830974,0.0-46.0-5.0-1.0-3.0,,,,,,,,,,,,100.0,0.0,,62ac70ac67b1d7d5b5f46c02,08:53:07,03/04/2024
,"<p style=""font-size:75px;"">...</p>",,ospan,iti,gzLNgyxJR3bpgz5VDLctxuCnxXh2,html-keyboard-response,175,831982,0.0-46.0-6.0-0.0-0.0,,,,,,,,,,,,,,,62ac70ac67b1d7d5b5f46c02,08:53:07,03/04/2024
3795.0,,,ospan,symmetry,gzLNgyxJR3bpgz5VDLctxuCnxXh2,symmetry-judgement-task,176,836855,0.0-46.0-6.0-0.0-1.0-0.0,,,,,,,,,,1.0,1.0,,,,62ac70ac67b1d7d5b5f46c02,08:53:07,03/04/2024
,"<div style=""font-size: 10rem; color: #0000FF"">Y</div>",,ospan,letter,gzLNgyxJR3bpgz5VDLctxuCnxXh2,html-keyboard-response,177,837859,0.0-46.0-6.0-0.0-1.0-1.0,,,,,,,,,,,,,,,62ac70ac67b1d7d5b5f46c02,08:53:07,03/04/2024
2388.0,,,ospan,symmetry,gzLNgyxJR3bpgz5VDLctxuCnxXh2,symmetry-judgement-task,178,842078,0.0-46.0-6.0-0.0-1.0-2.0,,,,,,,,,,1.0,1.0,,,,62ac70ac67b1d7d5b5f46c02,08:53:07,03/04/2024
,"<div style=""font-size: 10rem; color: #0000FF"">H</div>",,ospan,letter,gzLNgyxJR3bpgz5VDLctxuCnxXh2,html-keyboard-response,179,843082,0.0-46.0-6.0-0.0-1.0-3.0,,,,,,,,,,,,,,,62ac70ac67b1d7d5b5f46c02,08:53:07,03/04/2024
3458.0,,,ospan,symmetry,gzLNgyxJR3bpgz5VDLctxuCnxXh2,symmetry-judgement-task,180,848368,0.0-46.0-6.0-0.0-1.0-4.0,,,,,,,,,,1.0,1.0,,,,62ac70ac67b1d7d5b5f46c02,08:53:07,03/04/2024
,"<div style=""font-size: 10rem; color: #0000FF"">L</div>",,ospan,letter,gzLNgyxJR3bpgz5VDLctxuCnxXh2,html-keyboard-response,181,849372,0.0-46.0-6.0-0.0-1.0-5.0,,,,,,,,,,,,,,,62ac70ac67b1d7d5b5f46c02,08:53:07,03/04/2024
1857.0,,,ospan,symmetry,gzLNgyxJR3bpgz5VDLctxuCnxXh2,symmetry-judgement-task,182,853057,0.0-46.0-6.0-0.0-1.0-6.0,,,,,,,,,,1.0,1.0,,,,62ac70ac67b1d7d5b5f46c02,08:53:07,03/04/2024
,"<div style=""font-size: 10rem; color: #0000FF"">N</div>",,ospan,letter,gzLNgyxJR3bpgz5VDLctxuCnxXh2,html-keyboard-response,183,854060,0.0-46.0-6.0-0.0-1.0-7.0,,,,,,,,,,,,,,,62ac70ac67b1d7d5b5f46c02,08:53:07,03/04/2024
1536.0,,,ospan,symmetry,gzLNgyxJR3bpgz5VDLctxuCnxXh2,symmetry-judgement-task,184,857426,0.0-46.0-6.0-0.0-1.0-8.0,,,,,,,,,,1.0,1.0,,,,62ac70ac67b1d7d5b5f46c02,08:53:07,03/04/2024
,"<div style=""font-size: 10rem; color: #0000FF"">P</div>",,ospan,letter,gzLNgyxJR3bpgz5VDLctxuCnxXh2,html-keyboard-response,185,858428,0.0-46.0-6.0-0.0-1.0-9.0,,,,,,,,,,,,,,,62ac70ac67b1d7d5b5f46c02,08:53:07,03/04/2024
8384.0,"<div class = numbox><p style=""font-size: 2.4rem"">Please recall the letters you saw to the best of your ability. If you do not remember a particular letter, use the SKIP button.<br><b>(When you are ready to lock in your answer, press ENTER)</b></p><button id = button_1 class = ""square num-button"" onclick = ""recordClick(this)""><div class = content><div class = numbers>C</div></div></button><button id = button_2 class = ""square num-button"" onclick = ""recordClick(this)""><div class = content><div class = numbers>G</div></div></button><button id = button_3 class = ""square num-button"" onclick = ""recordClick(this)""><div class = content><div class = numbers>H</div></div></button><button id = button_4 class = ""square num-button"" onclick = ""recordClick(this)""><div class = content><div class = numbers>J</div></div></button><button id = button_5 class = ""square num-button"" onclick = ""recordClick(this)""><div class = content><div class = numbers>K</div></div></button><button id = button_6 class = ""square num-button"" onclick = ""recordClick(this)""><div class = content><div class = numbers>L</div></div></button><button id = button_7 class = ""square num-button"" onclick = ""recordClick(this)""><div class = content><div class = numbers>N</div></div></button><button id = button_8 class = ""square num-button"" onclick = ""recordClick(this)""><div class = content><div class = numbers>P</div></div></button><button id = button_9 class = ""square num-button"" onclick = ""recordClick(this)""><div class = content><div class = numbers>Q</div></div></button><button id = button_10 class = ""square num-button"" onclick = ""recordClick(this)""><div class = content><div class = numbers>R</div></div></button><button id = button_11 class = ""square num-button"" onclick = ""recordClick(this)""><div class = content><div class = numbers>S</div></div></button><button id = button_12 class = ""square num-button"" onclick = ""recordClick(this)""><div class = content><div class = numbers>Y</div></div></button><button class = clear_button id = ""ClearButton"" onclick = ""clearResponse()"">BACKSPACE</button><button class = blank_button id = ""BlankButton"" onclick = ""blankResponse()"">SKIP</button><p style=""font-size: 2.4rem""><u><b>Current Answer:</b></u></p><br><br><div id=echoed_txt style=""font-size: 5rem; color:blue;""><b></b></div></div>",enter,ospan,retrieval,gzLNgyxJR3bpgz5VDLctxuCnxXh2,html-keyboard-response,186,867568,0.0-46.0-6.0-0.0-2.0,33,32,26,5.0,"[""Y"",""H"",""L"",""N"",""P""]","[""Y"",""H"",""L"",""N"",""P""]",1.0,5.0,,,,,,,62ac70ac67b1d7d5b5f46c02,08:53:07,03/04/2024
824.0,[''],0,ospan,feedback,gzLNgyxJR3bpgz5VDLctxuCnxXh2,html-button-response,187,868894,0.0-46.0-6.0-0.0-3.0,,,,,,,,,,,,100.0,0.0,,62ac70ac67b1d7d5b5f46c02,08:53:07,03/04/2024
,"<p style=""font-size:75px;"">...</p>",,ospan,iti,gzLNgyxJR3bpgz5VDLctxuCnxXh2,html-keyboard-response,188,869898,0.0-46.0-6.0-1.0-0.0,,,,,,,,,,,,,,,62ac70ac67b1d7d5b5f46c02,08:53:07,03/04/2024
4659.0,,,ospan,symmetry,gzLNgyxJR3bpgz5VDLctxuCnxXh2,symmetry-judgement-task,189,875630,0.0-46.0-6.0-1.0-1.0-0.0,,,,,,,,,,1.0,1.0,,,,62ac70ac67b1d7d5b5f46c02,08:53:07,03/04/2024
,"<div style=""font-size: 10rem; color: #0000FF"">Y</div>",,ospan,letter,gzLNgyxJR3bpgz5VDLctxuCnxXh2,html-keyboard-response,190,876633,0.0-46.0-6.0-1.0-1.0-1.0,,,,,,,,,,,,,,,62ac70ac67b1d7d5b5f46c02,08:53:07,03/04/2024
1676.0,,,ospan,symmetry,gzLNgyxJR3bpgz5VDLctxuCnxXh2,symmetry-judgement-task,191,880111,0.0-46.0-6.0-1.0-1.0-2.0,,,,,,,,,,1.0,1.0,,,,62ac70ac67b1d7d5b5f46c02,08:53:07,03/04/2024
,"<div style=""font-size: 10rem; color: #0000FF"">G</div>",,ospan,letter,gzLNgyxJR3bpgz5VDLctxuCnxXh2,html-keyboard-response,192,881113,0.0-46.0-6.0-1.0-1.0-3.0,,,,,,,,,,,,,,,62ac70ac67b1d7d5b5f46c02,08:53:07,03/04/2024
1458.0,,,ospan,symmetry,gzLNgyxJR3bpgz5VDLctxuCnxXh2,symmetry-judgement-task,193,884397,0.0-46.0-6.0-1.0-1.0-4.0,,,,,,,,,,1.0,1.0,,,,62ac70ac67b1d7d5b5f46c02,08:53:07,03/04/2024
,"<div style=""font-size: 10rem; color: #0000FF"">K</div>",,ospan,letter,gzLNgyxJR3bpgz5VDLctxuCnxXh2,html-keyboard-response,194,885399,0.0-46.0-6.0-1.0-1.0-5.0,,,,,,,,,,,,,,,62ac70ac67b1d7d5b5f46c02,08:53:07,03/04/2024
1966.0,,,ospan,symmetry,gzLNgyxJR3bpgz5VDLctxuCnxXh2,symmetry-judgement-task,195,889180,0.0-46.0-6.0-1.0-1.0-6.0,,,,,,,,,,1.0,1.0,,,,62ac70ac67b1d7d5b5f46c02,08:53:07,03/04/2024
,"<div style=""font-size: 10rem; color: #0000FF"">P</div>",,ospan,letter,gzLNgyxJR3bpgz5VDLctxuCnxXh2,html-keyboard-response,196,890183,0.0-46.0-6.0-1.0-1.0-7.0,,,,,,,,,,,,,,,62ac70ac67b1d7d5b5f46c02,08:53:07,03/04/2024
1890.0,,,ospan,symmetry,gzLNgyxJR3bpgz5VDLctxuCnxXh2,symmetry-judgement-task,197,893899,0.0-46.0-6.0-1.0-1.0-8.0,,,,,,,,,,1.0,1.0,,,,62ac70ac67b1d7d5b5f46c02,08:53:07,03/04/2024
,"<div style=""font-size: 10rem; color: #0000FF"">S</div>",,ospan,letter,gzLNgyxJR3bpgz5VDLctxuCnxXh2,html-keyboard-response,198,894902,0.0-46.0-6.0-1.0-1.0-9.0,,,,,,,,,,,,,,,62ac70ac67b1d7d5b5f46c02,08:53:07,03/04/2024
1225.0,,,ospan,symmetry,gzLNgyxJR3bpgz5VDLctxuCnxXh2,symmetry-judgement-task,199,897951,0.0-46.0-6.0-1.0-1.0-10.0,,,,,,,,,,1.0,1.0,,,,62ac70ac67b1d7d5b5f46c02,08:53:07,03/04/2024
,"<div style=""font-size: 10rem; color: #0000FF"">R</div>",,ospan,letter,gzLNgyxJR3bpgz5VDLctxuCnxXh2,html-keyboard-response,200,898954,0.0-46.0-6.0-1.0-1.0-11.0,,,,,,,,,,,,,,,62ac70ac67b1d7d5b5f46c02,08:53:07,03/04/2024
1220.0,,,ospan,symmetry,gzLNgyxJR3bpgz5VDLctxuCnxXh2,symmetry-judgement-task,201,902000,0.0-46.0-6.0-1.0-1.0-12.0,,,,,,,,,,1.0,1.0,,,,62ac70ac67b1d7d5b5f46c02,08:53:07,03/04/2024
,"<div style=""font-size: 10rem; color: #0000FF"">N</div>",,ospan,letter,gzLNgyxJR3bpgz5VDLctxuCnxXh2,html-keyboard-response,202,903005,0.0-46.0-6.0-1.0-1.0-13.0,,,,,,,,,,,,,,,62ac70ac67b1d7d5b5f46c02,08:53:07,03/04/2024
3383.0,,,ospan,symmetry,gzLNgyxJR3bpgz5VDLctxuCnxXh2,symmetry-judgement-task,203,908217,0.0-46.0-6.0-1.0-1.0-14.0,,,,,,,,,,1.0,1.0,,,,62ac70ac67b1d7d5b5f46c02,08:53:07,03/04/2024
,"<div style=""font-size: 10rem; color: #0000FF"">Q</div>",,ospan,letter,gzLNgyxJR3bpgz5VDLctxuCnxXh2,html-keyboard-response,204,909220,0.0-46.0-6.0-1.0-1.0-15.0,,,,,,,,,,,,,,,62ac70ac67b1d7d5b5f46c02,08:53:07,03/04/2024
10076.0,"<div class = numbox><p style=""font-size: 2.4rem"">Please recall the letters you saw to the best of your ability. If you do not remember a particular letter, use the SKIP button.<br><b>(When you are ready to lock in your answer, press ENTER)</b></p><button id = button_1 class = ""square num-button"" onclick = ""recordClick(this)""><div class = content><div class = numbers>C</div></div></button><button id = button_2 class = ""square num-button"" onclick = ""recordClick(this)""><div class = content><div class = numbers>G</div></div></button><button id = button_3 class = ""square num-button"" onclick = ""recordClick(this)""><div class = content><div class = numbers>H</div></div></button><button id = button_4 class = ""square num-button"" onclick = ""recordClick(this)""><div class = content><div class = numbers>J</div></div></button><button id = button_5 class = ""square num-button"" onclick = ""recordClick(this)""><div class = content><div class = numbers>K</div></div></button><button id = button_6 class = ""square num-button"" onclick = ""recordClick(this)""><div class = content><div class = numbers>L</div></div></button><button id = button_7 class = ""square num-button"" onclick = ""recordClick(this)""><div class = content><div class = numbers>N</div></div></button><button id = button_8 class = ""square num-button"" onclick = ""recordClick(this)""><div class = content><div class = numbers>P</div></div></button><button id = button_9 class = ""square num-button"" onclick = ""recordClick(this)""><div class = content><div class = numbers>Q</div></div></button><button id = button_10 class = ""square num-button"" onclick = ""recordClick(this)""><div class = content><div class = numbers>R</div></div></button><button id = button_11 class = ""square num-button"" onclick = ""recordClick(this)""><div class = content><div class = numbers>S</div></div></button><button id = button_12 class = ""square num-button"" onclick = ""recordClick(this)""><div class = content><div class = numbers>Y</div></div></button><button class = clear_button id = ""ClearButton"" onclick = ""clearResponse()"">BACKSPACE</button><button class = blank_button id = ""BlankButton"" onclick = ""blankResponse()"">SKIP</button><p style=""font-size: 2.4rem""><u><b>Current Answer:</b></u></p><br><br><div id=echoed_txt style=""font-size: 5rem; color:blue;""><b></b></div></div>",enter,ospan,retrieval,gzLNgyxJR3bpgz5VDLctxuCnxXh2,html-keyboard-response,205,920050,0.0-46.0-6.0-1.0-2.0,41,38,26,8.0,"[""Y"",""G"",""K"",""P"",""S"",""R"",""Q""]","[""Y"",""G"",""K"",""P"",""S"",""R"",""N"",""Q""]",0.0,6.0,,,,,,,62ac70ac67b1d7d5b5f46c02,08:53:07,03/04/2024
1612.0,[''],0,ospan,feedback,gzLNgyxJR3bpgz5VDLctxuCnxXh2,html-button-response,206,922165,0.0-46.0-6.0-1.0-3.0,,,,,,,,,,,,100.0,0.0,,62ac70ac67b1d7d5b5f46c02,08:53:07,03/04/2024
7579.0,,{'Q0': 'Enjoyable task\n'},ospan,survey_ospan,gzLNgyxJR3bpgz5VDLctxuCnxXh2,lmdlab-survey-text,207,930500,0.0-46.0-7.0,,,,,,,,,,,,,,gzLNgyxJR3bpgz5VDLctxuCnxXh2,62ac70ac67b1d7d5b5f46c02,08:53:07,03/04/2024
1077.0,<p><p style='font-size: 3rem'>Great work!<br><br>This completes the symmetry and memory task.</p><br><br><br>,0,ospan,finish,gzLNgyxJR3bpgz5VDLctxuCnxXh2,html-button-response,208,931582,0.0-46.0-8.0,41,38,26,,,,,,,,,100.0,,,62ac70ac67b1d7d5b5f46c02,08:53:07,03/04/2024
