rt,stimulus,response,exp_name,exp_stage,subjectID,trial_type,trial_index,time_elapsed,internal_node_id,ospan_shown,ospan_total,ospan_abs,length,resp_actual,resp_correct,full_correct,num_correct,feedback,accuracy,correct,math_acc,math_warning,databaseID,prolificID,start_time,date
1845.1000001430511,<div class = 'left_align' style='font-size: 3.25rem; line-height: 1.3;'><p class = 'center_align'><b>Welcome to the Symmetry and Memory Task</b><br><br><br><br></p>Press 'continue' to show the instructions.<br><br><br><br></div>,0,ospan,instruct,FPd4nV8FaGXjsqVVAtv1Y6FyzxA3,html-button-response,54,440563,0.0-46.0-0.0-0.0-0.0,,,,,,,,,,,,,,,5996f25a05a0e30001f1fd72,16:38:33,03/04/2024
6480.5,"<div class = 'left_align' style='font-size: 3.25rem; line-height: 1.3;'><p class = 'center_align'><b>Symmetry and Memory Task</b><br><br></p>In this task, you will try to memorize letters you see on the screen<br>while you also view black and white grid pictures.<br><br>In the next few minutes, you will have some practice to get you familiar<br>with how the task works.<br><br>It may be difficult sometimes, but please do not worry about making mistakes!<br><br>We will begin by practicing the letter part of the task.<br><br><br><br></div>",0,ospan,instruct,FPd4nV8FaGXjsqVVAtv1Y6FyzxA3,html-button-response,55,447296,0.0-46.0-0.0-0.0-1.0,,,,,,,,,,,,,,,5996f25a05a0e30001f1fd72,16:38:33,03/04/2024
8196.0,"<div class = 'left_align' style='font-size: 3.25rem; line-height: 1.3;'>For this practice part, letters will appear on the screen one at a time.<br><br>Try to remember each letter in the order presented.<br><br>After some letters have been shown, you will see a response screen. Your<br>goal is to report the letters you saw <b>in order</b>. If you do not remember<br>a particular letter, you will have the option to leave it blank.<br><br><br><br></div>",0,ospan,instruct,FPd4nV8FaGXjsqVVAtv1Y6FyzxA3,html-button-response,56,455760,0.0-46.0-0.0-0.0-2.0,,,,,,,,,,,,,,,5996f25a05a0e30001f1fd72,16:38:33,03/04/2024
2108.2000000476837,"<div class = 'left_align' style='font-size: 3.25rem; line-height: 1.3;'>Remember, it is very important to get the letters in the same<br>order as you see them.<br><br>When you are ready, you may begin the letter practice.</div><br><br><br><br>",0,ospan,instruct,FPd4nV8FaGXjsqVVAtv1Y6FyzxA3,html-button-response,57,458120,0.0-46.0-0.0-0.0-3.0,,,,,,,,,,,,,,,5996f25a05a0e30001f1fd72,16:38:33,03/04/2024
,"<p style=""font-size:75px;"">...</p>",,ospan,iti,FPd4nV8FaGXjsqVVAtv1Y6FyzxA3,html-keyboard-response,58,459374,0.0-46.0-0.0-1.0-0.0,,,,,,,,,,,,,,,5996f25a05a0e30001f1fd72,16:38:33,03/04/2024
,"<div style=""font-size: 10rem; color: #0000FF"">S</div>",,ospan,letter,FPd4nV8FaGXjsqVVAtv1Y6FyzxA3,html-keyboard-response,59,460387,0.0-46.0-0.0-1.0-1.0,,,,,,,,,,,,,,,5996f25a05a0e30001f1fd72,16:38:33,03/04/2024
,"<div style=""font-size: 10rem; color: #0000FF"">L</div>",,ospan,letter,FPd4nV8FaGXjsqVVAtv1Y6FyzxA3,html-keyboard-response,60,462158,0.0-46.0-0.0-1.0-2.0,,,,,,,,,,,,,,,5996f25a05a0e30001f1fd72,16:38:33,03/04/2024
9810.599999904633,"<div class = numbox><p style=""font-size: 2.4rem"">Please recall the letters you saw to the best of your ability. If you do not remember a particular letter, use the SKIP button.<br><b>(When you are ready to lock in your answer, press ENTER)</b></p><button id = button_1 class = ""square num-button"" onclick = ""recordClick(this)""><div class = content><div class = numbers>C</div></div></button><button id = button_2 class = ""square num-button"" onclick = ""recordClick(this)""><div class = content><div class = numbers>G</div></div></button><button id = button_3 class = ""square num-button"" onclick = ""recordClick(this)""><div class = content><div class = numbers>H</div></div></button><button id = button_4 class = ""square num-button"" onclick = ""recordClick(this)""><div class = content><div class = numbers>J</div></div></button><button id = button_5 class = ""square num-button"" onclick = ""recordClick(this)""><div class = content><div class = numbers>K</div></div></button><button id = button_6 class = ""square num-button"" onclick = ""recordClick(this)""><div class = content><div class = numbers>L</div></div></button><button id = button_7 class = ""square num-button"" onclick = ""recordClick(this)""><div class = content><div class = numbers>N</div></div></button><button id = button_8 class = ""square num-button"" onclick = ""recordClick(this)""><div class = content><div class = numbers>P</div></div></button><button id = button_9 class = ""square num-button"" onclick = ""recordClick(this)""><div class = content><div class = numbers>Q</div></div></button><button id = button_10 class = ""square num-button"" onclick = ""recordClick(this)""><div class = content><div class = numbers>R</div></div></button><button id = button_11 class = ""square num-button"" onclick = ""recordClick(this)""><div class = content><div class = numbers>S</div></div></button><button id = button_12 class = ""square num-button"" onclick = ""recordClick(this)""><div class = content><div class = numbers>Y</div></div></button><button class = clear_button id = ""ClearButton"" onclick = ""clearResponse()"">BACKSPACE</button><button class = blank_button id = ""BlankButton"" onclick = ""blankResponse()"">SKIP</button><p style=""font-size: 2.4rem""><u><b>Current Answer:</b></u></p><br><br><div id=echoed_txt style=""font-size: 5rem; color:blue;""><b></b></div></div>",enter,ospan,retrieval,FPd4nV8FaGXjsqVVAtv1Y6FyzxA3,html-keyboard-response,61,472733,0.0-46.0-0.0-1.0-3.0,NA,NA,NA,2.0,"[""S"",""L""]","[""S"",""L""]",1.0,2.0,"['<font color=""green"">S</font>', '<font color=""green"">L</font>']",,,,,,5996f25a05a0e30001f1fd72,16:38:33,03/04/2024
1092.1999998092651,"['<p style=""font-size:44px"">Letters:<br><br><br><font color=""green"">S</font> <font color=""green"">L</font></p><br><br>']",0,ospan,practice_feedback,FPd4nV8FaGXjsqVVAtv1Y6FyzxA3,html-button-response,62,474328,0.0-46.0-0.0-1.0-4.0,,,,,,,,,,,,,,,5996f25a05a0e30001f1fd72,16:38:33,03/04/2024
,"<p style=""font-size:75px;"">...</p>",,ospan,iti,FPd4nV8FaGXjsqVVAtv1Y6FyzxA3,html-keyboard-response,63,475332,0.0-46.0-0.0-2.0-0.0,,,,,,,,,,,,,,,5996f25a05a0e30001f1fd72,16:38:33,03/04/2024
,"<div style=""font-size: 10rem; color: #0000FF"">C</div>",,ospan,letter,FPd4nV8FaGXjsqVVAtv1Y6FyzxA3,html-keyboard-response,64,476342,0.0-46.0-0.0-2.0-1.0,,,,,,,,,,,,,,,5996f25a05a0e30001f1fd72,16:38:33,03/04/2024
,"<div style=""font-size: 10rem; color: #0000FF"">L</div>",,ospan,letter,FPd4nV8FaGXjsqVVAtv1Y6FyzxA3,html-keyboard-response,65,478116,0.0-46.0-0.0-2.0-2.0,,,,,,,,,,,,,,,5996f25a05a0e30001f1fd72,16:38:33,03/04/2024
,"<div style=""font-size: 10rem; color: #0000FF"">N</div>",,ospan,letter,FPd4nV8FaGXjsqVVAtv1Y6FyzxA3,html-keyboard-response,66,479887,0.0-46.0-0.0-2.0-3.0,,,,,,,,,,,,,,,5996f25a05a0e30001f1fd72,16:38:33,03/04/2024
3100.5,"<div class = numbox><p style=""font-size: 2.4rem"">Please recall the letters you saw to the best of your ability. If you do not remember a particular letter, use the SKIP button.<br><b>(When you are ready to lock in your answer, press ENTER)</b></p><button id = button_1 class = ""square num-button"" onclick = ""recordClick(this)""><div class = content><div class = numbers>C</div></div></button><button id = button_2 class = ""square num-button"" onclick = ""recordClick(this)""><div class = content><div class = numbers>G</div></div></button><button id = button_3 class = ""square num-button"" onclick = ""recordClick(this)""><div class = content><div class = numbers>H</div></div></button><button id = button_4 class = ""square num-button"" onclick = ""recordClick(this)""><div class = content><div class = numbers>J</div></div></button><button id = button_5 class = ""square num-button"" onclick = ""recordClick(this)""><div class = content><div class = numbers>K</div></div></button><button id = button_6 class = ""square num-button"" onclick = ""recordClick(this)""><div class = content><div class = numbers>L</div></div></button><button id = button_7 class = ""square num-button"" onclick = ""recordClick(this)""><div class = content><div class = numbers>N</div></div></button><button id = button_8 class = ""square num-button"" onclick = ""recordClick(this)""><div class = content><div class = numbers>P</div></div></button><button id = button_9 class = ""square num-button"" onclick = ""recordClick(this)""><div class = content><div class = numbers>Q</div></div></button><button id = button_10 class = ""square num-button"" onclick = ""recordClick(this)""><div class = content><div class = numbers>R</div></div></button><button id = button_11 class = ""square num-button"" onclick = ""recordClick(this)""><div class = content><div class = numbers>S</div></div></button><button id = button_12 class = ""square num-button"" onclick = ""recordClick(this)""><div class = content><div class = numbers>Y</div></div></button><button class = clear_button id = ""ClearButton"" onclick = ""clearResponse()"">BACKSPACE</button><button class = blank_button id = ""BlankButton"" onclick = ""blankResponse()"">SKIP</button><p style=""font-size: 2.4rem""><u><b>Current Answer:</b></u></p><br><br><div id=echoed_txt style=""font-size: 5rem; color:blue;""><b></b></div></div>",enter,ospan,retrieval,FPd4nV8FaGXjsqVVAtv1Y6FyzxA3,html-keyboard-response,67,483751,0.0-46.0-0.0-2.0-4.0,NA,NA,NA,3.0,"[""C"",""L"",""N""]","[""C"",""L"",""N""]",1.0,3.0,"['<font color=""green"">C</font>', '<font color=""green"">L</font>', '<font color=""green"">N</font>']",,,,,,5996f25a05a0e30001f1fd72,16:38:33,03/04/2024
699.7999999523163,"['<p style=""font-size:44px"">Letters:<br><br><br><font color=""green"">C</font> <font color=""green"">L</font> <font color=""green"">N</font></p><br><br>']",0,ospan,practice_feedback,FPd4nV8FaGXjsqVVAtv1Y6FyzxA3,html-button-response,68,484962,0.0-46.0-0.0-2.0-5.0,,,,,,,,,,,,,,,5996f25a05a0e30001f1fd72,16:38:33,03/04/2024
9826.299999952316,"<div class = 'left_align' style='font-size: 3.25rem; line-height: 1.3;'>Now you will practice doing the <b>symmetry judgment part</b> of the experiment.<br><br>A black and white grid picture will appear on the screen and you have to judge if it is <br>symmetrical or asymetrical.<br><br>A picture is 'mirror' symmetrical if its left half is identical to the right half when flipped.<br>Here are examples of a symmetrical and an asymetrical picture:<br><br><center><img src='Stimuli/img/symm_instructions_extra.png' style='height:420px; width:900'></img></center><br>To judge symmetry, imagine you were to fold each picture down the middle, like a book –<br>would the left half match the right half when folded onto each other?<br><br></div><br>",0,ospan,instruct,FPd4nV8FaGXjsqVVAtv1Y6FyzxA3,html-button-response,69,494790,0.0-46.0-1.0-0.0-0.0,,,,,,,,,,,,,,,5996f25a05a0e30001f1fd72,16:38:33,03/04/2024
3837.5,"<div class = 'left_align' style='font-size: 3.25rem; line-height: 1.3;'>When you have viewed the picture and determined whether it is symmetrical or not,<br>you can <b>click the Yes or No button</b> below to answer.<br><br>If you take longer than 15 seconds, it will continue automatically<br>and record the answer as an error.</div><br>",0,ospan,instruct,FPd4nV8FaGXjsqVVAtv1Y6FyzxA3,html-button-response,70,498884,0.0-46.0-1.0-0.0-1.0,,,,,,,,,,,,,,,5996f25a05a0e30001f1fd72,16:38:33,03/04/2024
3095.7000000476837,"<div class = 'left_align' style='font-size: 3.25rem; line-height: 1.3;'>It is <b>very</b> important that you make the symmetry judgment correctly.<br><br>It is also important that you try and judge the picture as quickly as you can.<br><br>When you are ready, click on the button below to try some practice problems.</div><br><br><br><br>",0,ospan,instruct,FPd4nV8FaGXjsqVVAtv1Y6FyzxA3,html-button-response,71,502245,0.0-46.0-1.0-0.0-2.0,,,,,,,,,,,,,,,5996f25a05a0e30001f1fd72,16:38:33,03/04/2024
2130.0,,,ospan,symmetry,FPd4nV8FaGXjsqVVAtv1Y6FyzxA3,symmetry-judgement-task,72,505236,0.0-46.0-1.0-1.0-0.0,,,,,,,,,,1.0,1.0,,,,5996f25a05a0e30001f1fd72,16:38:33,03/04/2024
,"<p style=""color:green; font-size: 35px"">Correct</p>",,ospan,feedback,FPd4nV8FaGXjsqVVAtv1Y6FyzxA3,html-keyboard-response,73,505998,0.0-46.0-1.0-1.0-1.0,,,,,,,,,,,,,,,5996f25a05a0e30001f1fd72,16:38:33,03/04/2024
3026.0,,,ospan,symmetry,FPd4nV8FaGXjsqVVAtv1Y6FyzxA3,symmetry-judgement-task,74,511935,0.0-46.0-1.0-1.0-2.0,,,,,,,,,,1.0,1.0,,,,5996f25a05a0e30001f1fd72,16:38:33,03/04/2024
,"<p style=""color:green; font-size: 35px"">Correct</p>",,ospan,feedback,FPd4nV8FaGXjsqVVAtv1Y6FyzxA3,html-keyboard-response,75,512687,0.0-46.0-1.0-1.0-3.0,,,,,,,,,,,,,,,5996f25a05a0e30001f1fd72,16:38:33,03/04/2024
1431.0,,,ospan,symmetry,FPd4nV8FaGXjsqVVAtv1Y6FyzxA3,symmetry-judgement-task,76,516995,0.0-46.0-1.0-1.0-4.0,,,,,,,,,,1.0,1.0,,,,5996f25a05a0e30001f1fd72,16:38:33,03/04/2024
,"<p style=""color:green; font-size: 35px"">Correct</p>",,ospan,feedback,FPd4nV8FaGXjsqVVAtv1Y6FyzxA3,html-keyboard-response,77,517758,0.0-46.0-1.0-1.0-5.0,,,,,,,,,,,,,,,5996f25a05a0e30001f1fd72,16:38:33,03/04/2024
1239.9000000953674,"<p style=""font-size: 3rem;"">You responded correctly on 3 of 3 symmetry judgments. Good job!</p><br><br>",0,ospan,practice,FPd4nV8FaGXjsqVVAtv1Y6FyzxA3,html-button-response,78,521002,0.0-46.0-1.0-2.0,,,,,,,,,,,,,,,5996f25a05a0e30001f1fd72,16:38:33,03/04/2024
4671.900000095367,"<div class = 'left_align' style='font-size: 3.25rem; line-height: 1.3;'>Now you will practice doing both parts of the experiment at the same time.<br><br>In the next practice set, you will be given one grid picture to judge.<br>Then letter will appear on the screen. Try to remember the letter.<br><br>It is <b>very important</b> to make the symmetry judgment as quickly and accurately as possible.<br><br>Just as before, once you have make the symmetry judgment, you can click Yes or No.<br><b>Note that you will no longer see Correct or Incorrect feedback.</div><br><br><br><br>",0,ospan,instruct,FPd4nV8FaGXjsqVVAtv1Y6FyzxA3,html-button-response,79,525928,0.0-46.0-2.0-0.0-0.0,,,,,,,,,,,,,,,5996f25a05a0e30001f1fd72,16:38:33,03/04/2024
7071.300000190735,"<div class = 'left_align' style='font-size: 3.25rem; line-height: 1.3;'>After the letter goes away, another grid picture will appear, and then<br>another letter.<br><br>At the end of each set of letters and grids, you will recall the letters to the best<br>of your ability. Remember, try your best to get the letters in the correct order.<br><br>It is important to <b>quickly</b> and <b>accurately</b> make the symmetry judgments.</div><br><br><br><br>",0,ospan,instruct,FPd4nV8FaGXjsqVVAtv1Y6FyzxA3,html-button-response,80,533255,0.0-46.0-2.0-0.0-1.0,,,,,,,,,,,,,,,5996f25a05a0e30001f1fd72,16:38:33,03/04/2024
11064.399999856949,"<div class = 'left_align' style='font-size: 3.25rem; line-height: 1.3;'>On the feedback screen, if you are not doing well at the symmetry judgments,<br>you will also see a warning in the middle. This indicates your percent <br>correct for the grid pictures for the entire experiment.<br><br>It is <b>very</b> important for you to keep accuracy at least at 85%: <u>We can only use<br>data where the participant was at least 85% accurate on the judgments.</u> Therefore,<br> please try your best to perform well on the symmetry judgments, <b>at the same time</b><br>doing your best to recall as many letters as possible.<br><br>Click the button to try some practice problems.</div><br><br><br><br>",0,ospan,instruct,FPd4nV8FaGXjsqVVAtv1Y6FyzxA3,html-button-response,81,544585,0.0-46.0-2.0-0.0-2.0,,,,,,,,,,,,,,,5996f25a05a0e30001f1fd72,16:38:33,03/04/2024
,"<p style=""font-size:75px;"">...</p>",,ospan,iti,FPd4nV8FaGXjsqVVAtv1Y6FyzxA3,html-keyboard-response,82,545849,0.0-46.0-2.0-1.0-0.0,,,,,,,,,,,,,,,5996f25a05a0e30001f1fd72,16:38:33,03/04/2024
2465.0,,,ospan,symmetry,FPd4nV8FaGXjsqVVAtv1Y6FyzxA3,symmetry-judgement-task,83,549655,0.0-46.0-2.0-1.0-1.0-0.0,,,,,,,,,,1.0,1.0,,,,5996f25a05a0e30001f1fd72,16:38:33,03/04/2024
,"<div style=""font-size: 10rem; color: #0000FF"">S</div>",,ospan,letter,FPd4nV8FaGXjsqVVAtv1Y6FyzxA3,html-keyboard-response,84,550666,0.0-46.0-2.0-1.0-1.0-1.0,,,,,,,,,,,,,,,5996f25a05a0e30001f1fd72,16:38:33,03/04/2024
2062.0,,,ospan,symmetry,FPd4nV8FaGXjsqVVAtv1Y6FyzxA3,symmetry-judgement-task,85,554849,0.0-46.0-2.0-1.0-1.0-2.0,,,,,,,,,,1.0,1.0,,,,5996f25a05a0e30001f1fd72,16:38:33,03/04/2024
,"<div style=""font-size: 10rem; color: #0000FF"">Y</div>",,ospan,letter,FPd4nV8FaGXjsqVVAtv1Y6FyzxA3,html-keyboard-response,86,555862,0.0-46.0-2.0-1.0-1.0-3.0,,,,,,,,,,,,,,,5996f25a05a0e30001f1fd72,16:38:33,03/04/2024
1342.0,,,ospan,symmetry,FPd4nV8FaGXjsqVVAtv1Y6FyzxA3,symmetry-judgement-task,87,559345,0.0-46.0-2.0-1.0-1.0-4.0,,,,,,,,,,1.0,1.0,,,,5996f25a05a0e30001f1fd72,16:38:33,03/04/2024
,"<div style=""font-size: 10rem; color: #0000FF"">N</div>",,ospan,letter,FPd4nV8FaGXjsqVVAtv1Y6FyzxA3,html-keyboard-response,88,560355,0.0-46.0-2.0-1.0-1.0-5.0,,,,,,,,,,,,,,,5996f25a05a0e30001f1fd72,16:38:33,03/04/2024
2341.600000143051,"<div class = numbox><p style=""font-size: 2.4rem"">Please recall the letters you saw to the best of your ability. If you do not remember a particular letter, use the SKIP button.<br><b>(When you are ready to lock in your answer, press ENTER)</b></p><button id = button_1 class = ""square num-button"" onclick = ""recordClick(this)""><div class = content><div class = numbers>C</div></div></button><button id = button_2 class = ""square num-button"" onclick = ""recordClick(this)""><div class = content><div class = numbers>G</div></div></button><button id = button_3 class = ""square num-button"" onclick = ""recordClick(this)""><div class = content><div class = numbers>H</div></div></button><button id = button_4 class = ""square num-button"" onclick = ""recordClick(this)""><div class = content><div class = numbers>J</div></div></button><button id = button_5 class = ""square num-button"" onclick = ""recordClick(this)""><div class = content><div class = numbers>K</div></div></button><button id = button_6 class = ""square num-button"" onclick = ""recordClick(this)""><div class = content><div class = numbers>L</div></div></button><button id = button_7 class = ""square num-button"" onclick = ""recordClick(this)""><div class = content><div class = numbers>N</div></div></button><button id = button_8 class = ""square num-button"" onclick = ""recordClick(this)""><div class = content><div class = numbers>P</div></div></button><button id = button_9 class = ""square num-button"" onclick = ""recordClick(this)""><div class = content><div class = numbers>Q</div></div></button><button id = button_10 class = ""square num-button"" onclick = ""recordClick(this)""><div class = content><div class = numbers>R</div></div></button><button id = button_11 class = ""square num-button"" onclick = ""recordClick(this)""><div class = content><div class = numbers>S</div></div></button><button id = button_12 class = ""square num-button"" onclick = ""recordClick(this)""><div class = content><div class = numbers>Y</div></div></button><button class = clear_button id = ""ClearButton"" onclick = ""clearResponse()"">BACKSPACE</button><button class = blank_button id = ""BlankButton"" onclick = ""blankResponse()"">SKIP</button><p style=""font-size: 2.4rem""><u><b>Current Answer:</b></u></p><br><br><div id=echoed_txt style=""font-size: 5rem; color:blue;""><b></b></div></div>",enter,ospan,retrieval,FPd4nV8FaGXjsqVVAtv1Y6FyzxA3,html-keyboard-response,89,563460,0.0-46.0-2.0-1.0-2.0-0.0,NA,NA,NA,3.0,"[""S"",""Y"",""N""]","[""S"",""Y"",""N""]",1.0,3.0,"['<font color=""green"">S</font>', '<font color=""green"">Y</font>', '<font color=""green"">N</font>']",,,,,,5996f25a05a0e30001f1fd72,16:38:33,03/04/2024
1638.0999999046326,"['<p style=""font-size:44px"">Letters:<br><br><br><font color=""green"">S</font> <font color=""green"">Y</font> <font color=""green"">N</font></p><br><br><p style=""font-size:30px"">Symmetry:<br><br><font color=""green"">100%</font></p><br><br>']",0,ospan,practice_feedback,FPd4nV8FaGXjsqVVAtv1Y6FyzxA3,html-button-response,90,565615,0.0-46.0-2.0-1.0-2.0-1.0,,,,,,,,,,,,,,,5996f25a05a0e30001f1fd72,16:38:33,03/04/2024
,"<p style=""font-size:75px;"">...</p>",,ospan,iti,FPd4nV8FaGXjsqVVAtv1Y6FyzxA3,html-keyboard-response,91,566621,0.0-46.0-2.0-2.0-0.0,,,,,,,,,,,,,,,5996f25a05a0e30001f1fd72,16:38:33,03/04/2024
1447.0,,,ospan,symmetry,FPd4nV8FaGXjsqVVAtv1Y6FyzxA3,symmetry-judgement-task,92,569459,0.0-46.0-2.0-2.0-1.0-0.0,,,,,,,,,,1.0,1.0,,,,5996f25a05a0e30001f1fd72,16:38:33,03/04/2024
,"<div style=""font-size: 10rem; color: #0000FF"">K</div>",,ospan,letter,FPd4nV8FaGXjsqVVAtv1Y6FyzxA3,html-keyboard-response,93,570471,0.0-46.0-2.0-2.0-1.0-1.0,,,,,,,,,,,,,,,5996f25a05a0e30001f1fd72,16:38:33,03/04/2024
1838.0,,,ospan,symmetry,FPd4nV8FaGXjsqVVAtv1Y6FyzxA3,symmetry-judgement-task,94,574467,0.0-46.0-2.0-2.0-1.0-2.0,,,,,,,,,,1.0,1.0,,,,5996f25a05a0e30001f1fd72,16:38:33,03/04/2024
,"<div style=""font-size: 10rem; color: #0000FF"">L</div>",,ospan,letter,FPd4nV8FaGXjsqVVAtv1Y6FyzxA3,html-keyboard-response,95,575480,0.0-46.0-2.0-2.0-1.0-3.0,,,,,,,,,,,,,,,5996f25a05a0e30001f1fd72,16:38:33,03/04/2024
1253.0,,,ospan,symmetry,FPd4nV8FaGXjsqVVAtv1Y6FyzxA3,symmetry-judgement-task,96,578880,0.0-46.0-2.0-2.0-1.0-4.0,,,,,,,,,,1.0,1.0,,,,5996f25a05a0e30001f1fd72,16:38:33,03/04/2024
,"<div style=""font-size: 10rem; color: #0000FF"">R</div>",,ospan,letter,FPd4nV8FaGXjsqVVAtv1Y6FyzxA3,html-keyboard-response,97,579889,0.0-46.0-2.0-2.0-1.0-5.0,,,,,,,,,,,,,,,5996f25a05a0e30001f1fd72,16:38:33,03/04/2024
2848.5,"<div class = numbox><p style=""font-size: 2.4rem"">Please recall the letters you saw to the best of your ability. If you do not remember a particular letter, use the SKIP button.<br><b>(When you are ready to lock in your answer, press ENTER)</b></p><button id = button_1 class = ""square num-button"" onclick = ""recordClick(this)""><div class = content><div class = numbers>C</div></div></button><button id = button_2 class = ""square num-button"" onclick = ""recordClick(this)""><div class = content><div class = numbers>G</div></div></button><button id = button_3 class = ""square num-button"" onclick = ""recordClick(this)""><div class = content><div class = numbers>H</div></div></button><button id = button_4 class = ""square num-button"" onclick = ""recordClick(this)""><div class = content><div class = numbers>J</div></div></button><button id = button_5 class = ""square num-button"" onclick = ""recordClick(this)""><div class = content><div class = numbers>K</div></div></button><button id = button_6 class = ""square num-button"" onclick = ""recordClick(this)""><div class = content><div class = numbers>L</div></div></button><button id = button_7 class = ""square num-button"" onclick = ""recordClick(this)""><div class = content><div class = numbers>N</div></div></button><button id = button_8 class = ""square num-button"" onclick = ""recordClick(this)""><div class = content><div class = numbers>P</div></div></button><button id = button_9 class = ""square num-button"" onclick = ""recordClick(this)""><div class = content><div class = numbers>Q</div></div></button><button id = button_10 class = ""square num-button"" onclick = ""recordClick(this)""><div class = content><div class = numbers>R</div></div></button><button id = button_11 class = ""square num-button"" onclick = ""recordClick(this)""><div class = content><div class = numbers>S</div></div></button><button id = button_12 class = ""square num-button"" onclick = ""recordClick(this)""><div class = content><div class = numbers>Y</div></div></button><button class = clear_button id = ""ClearButton"" onclick = ""clearResponse()"">BACKSPACE</button><button class = blank_button id = ""BlankButton"" onclick = ""blankResponse()"">SKIP</button><p style=""font-size: 2.4rem""><u><b>Current Answer:</b></u></p><br><br><div id=echoed_txt style=""font-size: 5rem; color:blue;""><b></b></div></div>",enter,ospan,retrieval,FPd4nV8FaGXjsqVVAtv1Y6FyzxA3,html-keyboard-response,98,583490,0.0-46.0-2.0-2.0-2.0-0.0,NA,NA,NA,3.0,"[""K"",""L"",""R""]","[""K"",""L"",""R""]",1.0,3.0,"['<font color=""green"">K</font>', '<font color=""green"">L</font>', '<font color=""green"">R</font>']",,,,,,5996f25a05a0e30001f1fd72,16:38:33,03/04/2024
1029.4000000953674,"['<p style=""font-size:44px"">Letters:<br><br><br><font color=""green"">K</font> <font color=""green"">L</font> <font color=""green"">R</font></p><br><br><p style=""font-size:30px"">Symmetry:<br><br><font color=""green"">100%</font></p><br><br>']",0,ospan,practice_feedback,FPd4nV8FaGXjsqVVAtv1Y6FyzxA3,html-button-response,99,585023,0.0-46.0-2.0-2.0-2.0-1.0,,,,,,,,,,,,,,,5996f25a05a0e30001f1fd72,16:38:33,03/04/2024
10336.399999856949,"<div class = 'left_align' style='font-size: 3rem; line-height: 1.3;'><b>Great work! That is the end of practice.</b><br><br>The real trials will look just like the practice trials you just completed.<br><br><u>Here, you will not see feedback</u>. First, you will see an grid picture to judge,<br>then a letter to remember. When the recall screen appears, report the letters in the<br>order presented. If you forget a letter, remember to use the <b>blank</b> button to move to the<br>next letter. Some of the sets will have more symmetry grids and letters than others.<br><br>It is important that you do your best on both the symmetry judgments and the letter recall<br>parts of the experiment. For for the symmetry judgments, try to work as <b>quickly</b> and <br>as <b>accurately</b> as possible. Remember to keep your symmetry accuracy at 85% or above.<br><br><b>For the letters, do NOT use any external aid (e.g., writing on paper, electronic device).</b><br><br>It is <u>very important</u> to our experiment to have a <b>true</b> view of your real performance.<br><br>Do not worry if you miss some when it gets hard! This task is meant to be very challenging!<br><br>Click the button to begin.</div><br><br><br><br>",0,ospan,starting_real_here,FPd4nV8FaGXjsqVVAtv1Y6FyzxA3,html-button-response,100,595362,0.0-46.0-2.0-3.0,,,,,,,,,,,,,,,5996f25a05a0e30001f1fd72,16:38:33,03/04/2024
,"<p style=""font-size:75px;"">...</p>",,ospan,iti,FPd4nV8FaGXjsqVVAtv1Y6FyzxA3,html-keyboard-response,101,596628,0.0-46.0-3.0-0.0-0.0,,,,,,,,,,,,,,,5996f25a05a0e30001f1fd72,16:38:33,03/04/2024
1899.0,,,ospan,symmetry,FPd4nV8FaGXjsqVVAtv1Y6FyzxA3,symmetry-judgement-task,102,599610,0.0-46.0-3.0-0.0-1.0-0.0,,,,,,,,,,1.0,1.0,,,,5996f25a05a0e30001f1fd72,16:38:33,03/04/2024
,"<div style=""font-size: 10rem; color: #0000FF"">Q</div>",,ospan,letter,FPd4nV8FaGXjsqVVAtv1Y6FyzxA3,html-keyboard-response,103,600620,0.0-46.0-3.0-0.0-1.0-1.0,,,,,,,,,,,,,,,5996f25a05a0e30001f1fd72,16:38:33,03/04/2024
1186.0,,,ospan,symmetry,FPd4nV8FaGXjsqVVAtv1Y6FyzxA3,symmetry-judgement-task,104,603919,0.0-46.0-3.0-0.0-1.0-2.0,,,,,,,,,,1.0,1.0,,,,5996f25a05a0e30001f1fd72,16:38:33,03/04/2024
,"<div style=""font-size: 10rem; color: #0000FF"">J</div>",,ospan,letter,FPd4nV8FaGXjsqVVAtv1Y6FyzxA3,html-keyboard-response,105,604928,0.0-46.0-3.0-0.0-1.0-3.0,,,,,,,,,,,,,,,5996f25a05a0e30001f1fd72,16:38:33,03/04/2024
1312.0,,,ospan,symmetry,FPd4nV8FaGXjsqVVAtv1Y6FyzxA3,symmetry-judgement-task,106,608360,0.0-46.0-3.0-0.0-1.0-4.0,,,,,,,,,,1.0,1.0,,,,5996f25a05a0e30001f1fd72,16:38:33,03/04/2024
,"<div style=""font-size: 10rem; color: #0000FF"">N</div>",,ospan,letter,FPd4nV8FaGXjsqVVAtv1Y6FyzxA3,html-keyboard-response,107,609368,0.0-46.0-3.0-0.0-1.0-5.0,,,,,,,,,,,,,,,5996f25a05a0e30001f1fd72,16:38:33,03/04/2024
3662.4000000953674,"<div class = numbox><p style=""font-size: 2.4rem"">Please recall the letters you saw to the best of your ability. If you do not remember a particular letter, use the SKIP button.<br><b>(When you are ready to lock in your answer, press ENTER)</b></p><button id = button_1 class = ""square num-button"" onclick = ""recordClick(this)""><div class = content><div class = numbers>C</div></div></button><button id = button_2 class = ""square num-button"" onclick = ""recordClick(this)""><div class = content><div class = numbers>G</div></div></button><button id = button_3 class = ""square num-button"" onclick = ""recordClick(this)""><div class = content><div class = numbers>H</div></div></button><button id = button_4 class = ""square num-button"" onclick = ""recordClick(this)""><div class = content><div class = numbers>J</div></div></button><button id = button_5 class = ""square num-button"" onclick = ""recordClick(this)""><div class = content><div class = numbers>K</div></div></button><button id = button_6 class = ""square num-button"" onclick = ""recordClick(this)""><div class = content><div class = numbers>L</div></div></button><button id = button_7 class = ""square num-button"" onclick = ""recordClick(this)""><div class = content><div class = numbers>N</div></div></button><button id = button_8 class = ""square num-button"" onclick = ""recordClick(this)""><div class = content><div class = numbers>P</div></div></button><button id = button_9 class = ""square num-button"" onclick = ""recordClick(this)""><div class = content><div class = numbers>Q</div></div></button><button id = button_10 class = ""square num-button"" onclick = ""recordClick(this)""><div class = content><div class = numbers>R</div></div></button><button id = button_11 class = ""square num-button"" onclick = ""recordClick(this)""><div class = content><div class = numbers>S</div></div></button><button id = button_12 class = ""square num-button"" onclick = ""recordClick(this)""><div class = content><div class = numbers>Y</div></div></button><button class = clear_button id = ""ClearButton"" onclick = ""clearResponse()"">BACKSPACE</button><button class = blank_button id = ""BlankButton"" onclick = ""blankResponse()"">SKIP</button><p style=""font-size: 2.4rem""><u><b>Current Answer:</b></u></p><br><br><div id=echoed_txt style=""font-size: 5rem; color:blue;""><b></b></div></div>",enter,ospan,retrieval,FPd4nV8FaGXjsqVVAtv1Y6FyzxA3,html-keyboard-response,108,613792,0.0-46.0-3.0-0.0-2.0,3,3,3,3.0,"[""Q"",""J"",""N""]","[""Q"",""J"",""N""]",1.0,3.0,,,,,,,5996f25a05a0e30001f1fd72,16:38:33,03/04/2024
1071.2999999523163,[''],0,ospan,feedback,FPd4nV8FaGXjsqVVAtv1Y6FyzxA3,html-button-response,109,615368,0.0-46.0-3.0-0.0-3.0,,,,,,,,,,,,100.0,0.0,,5996f25a05a0e30001f1fd72,16:38:33,03/04/2024
,"<p style=""font-size:75px;"">...</p>",,ospan,iti,FPd4nV8FaGXjsqVVAtv1Y6FyzxA3,html-keyboard-response,110,616382,0.0-46.0-4.0-0.0-0.0,,,,,,,,,,,,,,,5996f25a05a0e30001f1fd72,16:38:33,03/04/2024
2173.0,,,ospan,symmetry,FPd4nV8FaGXjsqVVAtv1Y6FyzxA3,symmetry-judgement-task,111,619642,0.0-46.0-4.0-0.0-1.0-0.0,,,,,,,,,,1.0,1.0,,,,5996f25a05a0e30001f1fd72,16:38:33,03/04/2024
,"<div style=""font-size: 10rem; color: #0000FF"">Y</div>",,ospan,letter,FPd4nV8FaGXjsqVVAtv1Y6FyzxA3,html-keyboard-response,112,620653,0.0-46.0-4.0-0.0-1.0-1.0,,,,,,,,,,,,,,,5996f25a05a0e30001f1fd72,16:38:33,03/04/2024
1456.0,,,ospan,symmetry,FPd4nV8FaGXjsqVVAtv1Y6FyzxA3,symmetry-judgement-task,113,624250,0.0-46.0-4.0-0.0-1.0-2.0,,,,,,,,,,1.0,1.0,,,,5996f25a05a0e30001f1fd72,16:38:33,03/04/2024
,"<div style=""font-size: 10rem; color: #0000FF"">G</div>",,ospan,letter,FPd4nV8FaGXjsqVVAtv1Y6FyzxA3,html-keyboard-response,114,625255,0.0-46.0-4.0-0.0-1.0-3.0,,,,,,,,,,,,,,,5996f25a05a0e30001f1fd72,16:38:33,03/04/2024
1800.0,,,ospan,symmetry,FPd4nV8FaGXjsqVVAtv1Y6FyzxA3,symmetry-judgement-task,115,629233,0.0-46.0-4.0-0.0-1.0-4.0,,,,,,,,,,1.0,1.0,,,,5996f25a05a0e30001f1fd72,16:38:33,03/04/2024
,"<div style=""font-size: 10rem; color: #0000FF"">R</div>",,ospan,letter,FPd4nV8FaGXjsqVVAtv1Y6FyzxA3,html-keyboard-response,116,630247,0.0-46.0-4.0-0.0-1.0-5.0,,,,,,,,,,,,,,,5996f25a05a0e30001f1fd72,16:38:33,03/04/2024
2280.0,,,ospan,symmetry,FPd4nV8FaGXjsqVVAtv1Y6FyzxA3,symmetry-judgement-task,117,634702,0.0-46.0-4.0-0.0-1.0-6.0,,,,,,,,,,1.0,1.0,,,,5996f25a05a0e30001f1fd72,16:38:33,03/04/2024
,"<div style=""font-size: 10rem; color: #0000FF"">H</div>",,ospan,letter,FPd4nV8FaGXjsqVVAtv1Y6FyzxA3,html-keyboard-response,118,635715,0.0-46.0-4.0-0.0-1.0-7.0,,,,,,,,,,,,,,,5996f25a05a0e30001f1fd72,16:38:33,03/04/2024
4252.900000095367,"<div class = numbox><p style=""font-size: 2.4rem"">Please recall the letters you saw to the best of your ability. If you do not remember a particular letter, use the SKIP button.<br><b>(When you are ready to lock in your answer, press ENTER)</b></p><button id = button_1 class = ""square num-button"" onclick = ""recordClick(this)""><div class = content><div class = numbers>C</div></div></button><button id = button_2 class = ""square num-button"" onclick = ""recordClick(this)""><div class = content><div class = numbers>G</div></div></button><button id = button_3 class = ""square num-button"" onclick = ""recordClick(this)""><div class = content><div class = numbers>H</div></div></button><button id = button_4 class = ""square num-button"" onclick = ""recordClick(this)""><div class = content><div class = numbers>J</div></div></button><button id = button_5 class = ""square num-button"" onclick = ""recordClick(this)""><div class = content><div class = numbers>K</div></div></button><button id = button_6 class = ""square num-button"" onclick = ""recordClick(this)""><div class = content><div class = numbers>L</div></div></button><button id = button_7 class = ""square num-button"" onclick = ""recordClick(this)""><div class = content><div class = numbers>N</div></div></button><button id = button_8 class = ""square num-button"" onclick = ""recordClick(this)""><div class = content><div class = numbers>P</div></div></button><button id = button_9 class = ""square num-button"" onclick = ""recordClick(this)""><div class = content><div class = numbers>Q</div></div></button><button id = button_10 class = ""square num-button"" onclick = ""recordClick(this)""><div class = content><div class = numbers>R</div></div></button><button id = button_11 class = ""square num-button"" onclick = ""recordClick(this)""><div class = content><div class = numbers>S</div></div></button><button id = button_12 class = ""square num-button"" onclick = ""recordClick(this)""><div class = content><div class = numbers>Y</div></div></button><button class = clear_button id = ""ClearButton"" onclick = ""clearResponse()"">BACKSPACE</button><button class = blank_button id = ""BlankButton"" onclick = ""blankResponse()"">SKIP</button><p style=""font-size: 2.4rem""><u><b>Current Answer:</b></u></p><br><br><div id=echoed_txt style=""font-size: 5rem; color:blue;""><b></b></div></div>",enter,ospan,retrieval,FPd4nV8FaGXjsqVVAtv1Y6FyzxA3,html-keyboard-response,119,640731,0.0-46.0-4.0-0.0-2.0,7,7,7,4.0,"[""Y"",""G"",""R"",""H""]","[""Y"",""G"",""R"",""H""]",1.0,4.0,,,,,,,5996f25a05a0e30001f1fd72,16:38:33,03/04/2024
851.0,[''],0,ospan,feedback,FPd4nV8FaGXjsqVVAtv1Y6FyzxA3,html-button-response,120,642084,0.0-46.0-4.0-0.0-3.0,,,,,,,,,,,,100.0,0.0,,5996f25a05a0e30001f1fd72,16:38:33,03/04/2024
,"<p style=""font-size:75px;"">...</p>",,ospan,iti,FPd4nV8FaGXjsqVVAtv1Y6FyzxA3,html-keyboard-response,121,643097,0.0-46.0-4.0-1.0-0.0,,,,,,,,,,,,,,,5996f25a05a0e30001f1fd72,16:38:33,03/04/2024
1269.0,,,ospan,symmetry,FPd4nV8FaGXjsqVVAtv1Y6FyzxA3,symmetry-judgement-task,122,645785,0.0-46.0-4.0-1.0-1.0-0.0,,,,,,,,,,1.0,1.0,,,,5996f25a05a0e30001f1fd72,16:38:33,03/04/2024
,"<div style=""font-size: 10rem; color: #0000FF"">R</div>",,ospan,letter,FPd4nV8FaGXjsqVVAtv1Y6FyzxA3,html-keyboard-response,123,646797,0.0-46.0-4.0-1.0-1.0-1.0,,,,,,,,,,,,,,,5996f25a05a0e30001f1fd72,16:38:33,03/04/2024
1487.0,,,ospan,symmetry,FPd4nV8FaGXjsqVVAtv1Y6FyzxA3,symmetry-judgement-task,124,650452,0.0-46.0-4.0-1.0-1.0-2.0,,,,,,,,,,1.0,1.0,,,,5996f25a05a0e30001f1fd72,16:38:33,03/04/2024
,"<div style=""font-size: 10rem; color: #0000FF"">K</div>",,ospan,letter,FPd4nV8FaGXjsqVVAtv1Y6FyzxA3,html-keyboard-response,125,651460,0.0-46.0-4.0-1.0-1.0-3.0,,,,,,,,,,,,,,,5996f25a05a0e30001f1fd72,16:38:33,03/04/2024
2379.0,,,ospan,symmetry,FPd4nV8FaGXjsqVVAtv1Y6FyzxA3,symmetry-judgement-task,126,655962,0.0-46.0-4.0-1.0-1.0-4.0,,,,,,,,,,1.0,1.0,,,,5996f25a05a0e30001f1fd72,16:38:33,03/04/2024
,"<div style=""font-size: 10rem; color: #0000FF"">J</div>",,ospan,letter,FPd4nV8FaGXjsqVVAtv1Y6FyzxA3,html-keyboard-response,127,656971,0.0-46.0-4.0-1.0-1.0-5.0,,,,,,,,,,,,,,,5996f25a05a0e30001f1fd72,16:38:33,03/04/2024
2262.0,,,ospan,symmetry,FPd4nV8FaGXjsqVVAtv1Y6FyzxA3,symmetry-judgement-task,128,661497,0.0-46.0-4.0-1.0-1.0-6.0,,,,,,,,,,1.0,1.0,,,,5996f25a05a0e30001f1fd72,16:38:33,03/04/2024
,"<div style=""font-size: 10rem; color: #0000FF"">G</div>",,ospan,letter,FPd4nV8FaGXjsqVVAtv1Y6FyzxA3,html-keyboard-response,129,662508,0.0-46.0-4.0-1.0-1.0-7.0,,,,,,,,,,,,,,,5996f25a05a0e30001f1fd72,16:38:33,03/04/2024
1777.0,,,ospan,symmetry,FPd4nV8FaGXjsqVVAtv1Y6FyzxA3,symmetry-judgement-task,130,666424,0.0-46.0-4.0-1.0-1.0-8.0,,,,,,,,,,1.0,1.0,,,,5996f25a05a0e30001f1fd72,16:38:33,03/04/2024
,"<div style=""font-size: 10rem; color: #0000FF"">N</div>",,ospan,letter,FPd4nV8FaGXjsqVVAtv1Y6FyzxA3,html-keyboard-response,131,667430,0.0-46.0-4.0-1.0-1.0-9.0,,,,,,,,,,,,,,,5996f25a05a0e30001f1fd72,16:38:33,03/04/2024
6303.399999856949,"<div class = numbox><p style=""font-size: 2.4rem"">Please recall the letters you saw to the best of your ability. If you do not remember a particular letter, use the SKIP button.<br><b>(When you are ready to lock in your answer, press ENTER)</b></p><button id = button_1 class = ""square num-button"" onclick = ""recordClick(this)""><div class = content><div class = numbers>C</div></div></button><button id = button_2 class = ""square num-button"" onclick = ""recordClick(this)""><div class = content><div class = numbers>G</div></div></button><button id = button_3 class = ""square num-button"" onclick = ""recordClick(this)""><div class = content><div class = numbers>H</div></div></button><button id = button_4 class = ""square num-button"" onclick = ""recordClick(this)""><div class = content><div class = numbers>J</div></div></button><button id = button_5 class = ""square num-button"" onclick = ""recordClick(this)""><div class = content><div class = numbers>K</div></div></button><button id = button_6 class = ""square num-button"" onclick = ""recordClick(this)""><div class = content><div class = numbers>L</div></div></button><button id = button_7 class = ""square num-button"" onclick = ""recordClick(this)""><div class = content><div class = numbers>N</div></div></button><button id = button_8 class = ""square num-button"" onclick = ""recordClick(this)""><div class = content><div class = numbers>P</div></div></button><button id = button_9 class = ""square num-button"" onclick = ""recordClick(this)""><div class = content><div class = numbers>Q</div></div></button><button id = button_10 class = ""square num-button"" onclick = ""recordClick(this)""><div class = content><div class = numbers>R</div></div></button><button id = button_11 class = ""square num-button"" onclick = ""recordClick(this)""><div class = content><div class = numbers>S</div></div></button><button id = button_12 class = ""square num-button"" onclick = ""recordClick(this)""><div class = content><div class = numbers>Y</div></div></button><button class = clear_button id = ""ClearButton"" onclick = ""clearResponse()"">BACKSPACE</button><button class = blank_button id = ""BlankButton"" onclick = ""blankResponse()"">SKIP</button><p style=""font-size: 2.4rem""><u><b>Current Answer:</b></u></p><br><br><div id=echoed_txt style=""font-size: 5rem; color:blue;""><b></b></div></div>",enter,ospan,retrieval,FPd4nV8FaGXjsqVVAtv1Y6FyzxA3,html-keyboard-response,132,674489,0.0-46.0-4.0-1.0-2.0,12,12,12,5.0,"[""R"",""K"",""J"",""G"",""N""]","[""R"",""K"",""J"",""G"",""N""]",1.0,5.0,,,,,,,5996f25a05a0e30001f1fd72,16:38:33,03/04/2024
1135.9000000953674,[''],0,ospan,feedback,FPd4nV8FaGXjsqVVAtv1Y6FyzxA3,html-button-response,133,676127,0.0-46.0-4.0-1.0-3.0,,,,,,,,,,,,100.0,0.0,,5996f25a05a0e30001f1fd72,16:38:33,03/04/2024
,"<p style=""font-size:75px;"">...</p>",,ospan,iti,FPd4nV8FaGXjsqVVAtv1Y6FyzxA3,html-keyboard-response,134,677134,0.0-46.0-4.0-2.0-0.0,,,,,,,,,,,,,,,5996f25a05a0e30001f1fd72,16:38:33,03/04/2024
1792.0,,,ospan,symmetry,FPd4nV8FaGXjsqVVAtv1Y6FyzxA3,symmetry-judgement-task,135,680301,0.0-46.0-4.0-2.0-1.0-0.0,,,,,,,,,,1.0,1.0,,,,5996f25a05a0e30001f1fd72,16:38:33,03/04/2024
,"<div style=""font-size: 10rem; color: #0000FF"">L</div>",,ospan,letter,FPd4nV8FaGXjsqVVAtv1Y6FyzxA3,html-keyboard-response,136,681311,0.0-46.0-4.0-2.0-1.0-1.0,,,,,,,,,,,,,,,5996f25a05a0e30001f1fd72,16:38:33,03/04/2024
1822.0,,,ospan,symmetry,FPd4nV8FaGXjsqVVAtv1Y6FyzxA3,symmetry-judgement-task,137,685275,0.0-46.0-4.0-2.0-1.0-2.0,,,,,,,,,,1.0,1.0,,,,5996f25a05a0e30001f1fd72,16:38:33,03/04/2024
,"<div style=""font-size: 10rem; color: #0000FF"">R</div>",,ospan,letter,FPd4nV8FaGXjsqVVAtv1Y6FyzxA3,html-keyboard-response,138,686286,0.0-46.0-4.0-2.0-1.0-3.0,,,,,,,,,,,,,,,5996f25a05a0e30001f1fd72,16:38:33,03/04/2024
1339.0,,,ospan,symmetry,FPd4nV8FaGXjsqVVAtv1Y6FyzxA3,symmetry-judgement-task,139,689779,0.0-46.0-4.0-2.0-1.0-4.0,,,,,,,,,,1.0,1.0,,,,5996f25a05a0e30001f1fd72,16:38:33,03/04/2024
,"<div style=""font-size: 10rem; color: #0000FF"">G</div>",,ospan,letter,FPd4nV8FaGXjsqVVAtv1Y6FyzxA3,html-keyboard-response,140,690789,0.0-46.0-4.0-2.0-1.0-5.0,,,,,,,,,,,,,,,5996f25a05a0e30001f1fd72,16:38:33,03/04/2024
3707.0,"<div class = numbox><p style=""font-size: 2.4rem"">Please recall the letters you saw to the best of your ability. If you do not remember a particular letter, use the SKIP button.<br><b>(When you are ready to lock in your answer, press ENTER)</b></p><button id = button_1 class = ""square num-button"" onclick = ""recordClick(this)""><div class = content><div class = numbers>C</div></div></button><button id = button_2 class = ""square num-button"" onclick = ""recordClick(this)""><div class = content><div class = numbers>G</div></div></button><button id = button_3 class = ""square num-button"" onclick = ""recordClick(this)""><div class = content><div class = numbers>H</div></div></button><button id = button_4 class = ""square num-button"" onclick = ""recordClick(this)""><div class = content><div class = numbers>J</div></div></button><button id = button_5 class = ""square num-button"" onclick = ""recordClick(this)""><div class = content><div class = numbers>K</div></div></button><button id = button_6 class = ""square num-button"" onclick = ""recordClick(this)""><div class = content><div class = numbers>L</div></div></button><button id = button_7 class = ""square num-button"" onclick = ""recordClick(this)""><div class = content><div class = numbers>N</div></div></button><button id = button_8 class = ""square num-button"" onclick = ""recordClick(this)""><div class = content><div class = numbers>P</div></div></button><button id = button_9 class = ""square num-button"" onclick = ""recordClick(this)""><div class = content><div class = numbers>Q</div></div></button><button id = button_10 class = ""square num-button"" onclick = ""recordClick(this)""><div class = content><div class = numbers>R</div></div></button><button id = button_11 class = ""square num-button"" onclick = ""recordClick(this)""><div class = content><div class = numbers>S</div></div></button><button id = button_12 class = ""square num-button"" onclick = ""recordClick(this)""><div class = content><div class = numbers>Y</div></div></button><button class = clear_button id = ""ClearButton"" onclick = ""clearResponse()"">BACKSPACE</button><button class = blank_button id = ""BlankButton"" onclick = ""blankResponse()"">SKIP</button><p style=""font-size: 2.4rem""><u><b>Current Answer:</b></u></p><br><br><div id=echoed_txt style=""font-size: 5rem; color:blue;""><b></b></div></div>",enter,ospan,retrieval,FPd4nV8FaGXjsqVVAtv1Y6FyzxA3,html-keyboard-response,141,695258,0.0-46.0-4.0-2.0-2.0,15,15,15,3.0,"[""L"",""R"",""G""]","[""L"",""R"",""G""]",1.0,3.0,,,,,,,5996f25a05a0e30001f1fd72,16:38:33,03/04/2024
1083.5,[''],0,ospan,feedback,FPd4nV8FaGXjsqVVAtv1Y6FyzxA3,html-button-response,142,696852,0.0-46.0-4.0-2.0-3.0,,,,,,,,,,,,100.0,0.0,,5996f25a05a0e30001f1fd72,16:38:33,03/04/2024
,"<p style=""font-size:75px;"">...</p>",,ospan,iti,FPd4nV8FaGXjsqVVAtv1Y6FyzxA3,html-keyboard-response,143,697866,0.0-46.0-5.0-0.0-0.0,,,,,,,,,,,,,,,5996f25a05a0e30001f1fd72,16:38:33,03/04/2024
2025.0,,,ospan,symmetry,FPd4nV8FaGXjsqVVAtv1Y6FyzxA3,symmetry-judgement-task,144,700976,0.0-46.0-5.0-0.0-1.0-0.0,,,,,,,,,,1.0,1.0,,,,5996f25a05a0e30001f1fd72,16:38:33,03/04/2024
,"<div style=""font-size: 10rem; color: #0000FF"">H</div>",,ospan,letter,FPd4nV8FaGXjsqVVAtv1Y6FyzxA3,html-keyboard-response,145,701985,0.0-46.0-5.0-0.0-1.0-1.0,,,,,,,,,,,,,,,5996f25a05a0e30001f1fd72,16:38:33,03/04/2024
1502.0,,,ospan,symmetry,FPd4nV8FaGXjsqVVAtv1Y6FyzxA3,symmetry-judgement-task,146,705688,0.0-46.0-5.0-0.0-1.0-2.0,,,,,,,,,,1.0,1.0,,,,5996f25a05a0e30001f1fd72,16:38:33,03/04/2024
,"<div style=""font-size: 10rem; color: #0000FF"">C</div>",,ospan,letter,FPd4nV8FaGXjsqVVAtv1Y6FyzxA3,html-keyboard-response,147,706696,0.0-46.0-5.0-0.0-1.0-3.0,,,,,,,,,,,,,,,5996f25a05a0e30001f1fd72,16:38:33,03/04/2024
1347.0,,,ospan,symmetry,FPd4nV8FaGXjsqVVAtv1Y6FyzxA3,symmetry-judgement-task,148,710253,0.0-46.0-5.0-0.0-1.0-4.0,,,,,,,,,,1.0,1.0,,,,5996f25a05a0e30001f1fd72,16:38:33,03/04/2024
,"<div style=""font-size: 10rem; color: #0000FF"">S</div>",,ospan,letter,FPd4nV8FaGXjsqVVAtv1Y6FyzxA3,html-keyboard-response,149,711263,0.0-46.0-5.0-0.0-1.0-5.0,,,,,,,,,,,,,,,5996f25a05a0e30001f1fd72,16:38:33,03/04/2024
1558.0,,,ospan,symmetry,FPd4nV8FaGXjsqVVAtv1Y6FyzxA3,symmetry-judgement-task,150,715137,0.0-46.0-5.0-0.0-1.0-6.0,,,,,,,,,,1.0,1.0,,,,5996f25a05a0e30001f1fd72,16:38:33,03/04/2024
,"<div style=""font-size: 10rem; color: #0000FF"">Y</div>",,ospan,letter,FPd4nV8FaGXjsqVVAtv1Y6FyzxA3,html-keyboard-response,151,716147,0.0-46.0-5.0-0.0-1.0-7.0,,,,,,,,,,,,,,,5996f25a05a0e30001f1fd72,16:38:33,03/04/2024
3889.0,,,ospan,symmetry,FPd4nV8FaGXjsqVVAtv1Y6FyzxA3,symmetry-judgement-task,152,722273,0.0-46.0-5.0-0.0-1.0-8.0,,,,,,,,,,1.0,1.0,,,,5996f25a05a0e30001f1fd72,16:38:33,03/04/2024
,"<div style=""font-size: 10rem; color: #0000FF"">J</div>",,ospan,letter,FPd4nV8FaGXjsqVVAtv1Y6FyzxA3,html-keyboard-response,153,723278,0.0-46.0-5.0-0.0-1.0-9.0,,,,,,,,,,,,,,,5996f25a05a0e30001f1fd72,16:38:33,03/04/2024
1945.0,,,ospan,symmetry,FPd4nV8FaGXjsqVVAtv1Y6FyzxA3,symmetry-judgement-task,154,727478,0.0-46.0-5.0-0.0-1.0-10.0,,,,,,,,,,1.0,1.0,,,,5996f25a05a0e30001f1fd72,16:38:33,03/04/2024
,"<div style=""font-size: 10rem; color: #0000FF"">K</div>",,ospan,letter,FPd4nV8FaGXjsqVVAtv1Y6FyzxA3,html-keyboard-response,155,728486,0.0-46.0-5.0-0.0-1.0-11.0,,,,,,,,,,,,,,,5996f25a05a0e30001f1fd72,16:38:33,03/04/2024
6866.5,"<div class = numbox><p style=""font-size: 2.4rem"">Please recall the letters you saw to the best of your ability. If you do not remember a particular letter, use the SKIP button.<br><b>(When you are ready to lock in your answer, press ENTER)</b></p><button id = button_1 class = ""square num-button"" onclick = ""recordClick(this)""><div class = content><div class = numbers>C</div></div></button><button id = button_2 class = ""square num-button"" onclick = ""recordClick(this)""><div class = content><div class = numbers>G</div></div></button><button id = button_3 class = ""square num-button"" onclick = ""recordClick(this)""><div class = content><div class = numbers>H</div></div></button><button id = button_4 class = ""square num-button"" onclick = ""recordClick(this)""><div class = content><div class = numbers>J</div></div></button><button id = button_5 class = ""square num-button"" onclick = ""recordClick(this)""><div class = content><div class = numbers>K</div></div></button><button id = button_6 class = ""square num-button"" onclick = ""recordClick(this)""><div class = content><div class = numbers>L</div></div></button><button id = button_7 class = ""square num-button"" onclick = ""recordClick(this)""><div class = content><div class = numbers>N</div></div></button><button id = button_8 class = ""square num-button"" onclick = ""recordClick(this)""><div class = content><div class = numbers>P</div></div></button><button id = button_9 class = ""square num-button"" onclick = ""recordClick(this)""><div class = content><div class = numbers>Q</div></div></button><button id = button_10 class = ""square num-button"" onclick = ""recordClick(this)""><div class = content><div class = numbers>R</div></div></button><button id = button_11 class = ""square num-button"" onclick = ""recordClick(this)""><div class = content><div class = numbers>S</div></div></button><button id = button_12 class = ""square num-button"" onclick = ""recordClick(this)""><div class = content><div class = numbers>Y</div></div></button><button class = clear_button id = ""ClearButton"" onclick = ""clearResponse()"">BACKSPACE</button><button class = blank_button id = ""BlankButton"" onclick = ""blankResponse()"">SKIP</button><p style=""font-size: 2.4rem""><u><b>Current Answer:</b></u></p><br><br><div id=echoed_txt style=""font-size: 5rem; color:blue;""><b></b></div></div>",enter,ospan,retrieval,FPd4nV8FaGXjsqVVAtv1Y6FyzxA3,html-keyboard-response,156,736114,0.0-46.0-5.0-0.0-2.0,21,21,21,6.0,"[""H"",""C"",""S"",""Y"",""J"",""K""]","[""H"",""C"",""S"",""Y"",""J"",""K""]",1.0,6.0,,,,,,,5996f25a05a0e30001f1fd72,16:38:33,03/04/2024
1787.1000001430511,[''],0,ospan,feedback,FPd4nV8FaGXjsqVVAtv1Y6FyzxA3,html-button-response,157,738410,0.0-46.0-5.0-0.0-3.0,,,,,,,,,,,,100.0,0.0,,5996f25a05a0e30001f1fd72,16:38:33,03/04/2024
,"<p style=""font-size:75px;"">...</p>",,ospan,iti,FPd4nV8FaGXjsqVVAtv1Y6FyzxA3,html-keyboard-response,158,739420,0.0-46.0-5.0-1.0-0.0,,,,,,,,,,,,,,,5996f25a05a0e30001f1fd72,16:38:33,03/04/2024
1752.0,,,ospan,symmetry,FPd4nV8FaGXjsqVVAtv1Y6FyzxA3,symmetry-judgement-task,159,742655,0.0-46.0-5.0-1.0-1.0-0.0,,,,,,,,,,1.0,1.0,,,,5996f25a05a0e30001f1fd72,16:38:33,03/04/2024
,"<div style=""font-size: 10rem; color: #0000FF"">H</div>",,ospan,letter,FPd4nV8FaGXjsqVVAtv1Y6FyzxA3,html-keyboard-response,160,743665,0.0-46.0-5.0-1.0-1.0-1.0,,,,,,,,,,,,,,,5996f25a05a0e30001f1fd72,16:38:33,03/04/2024
1605.0,,,ospan,symmetry,FPd4nV8FaGXjsqVVAtv1Y6FyzxA3,symmetry-judgement-task,161,747490,0.0-46.0-5.0-1.0-1.0-2.0,,,,,,,,,,1.0,1.0,,,,5996f25a05a0e30001f1fd72,16:38:33,03/04/2024
,"<div style=""font-size: 10rem; color: #0000FF"">Y</div>",,ospan,letter,FPd4nV8FaGXjsqVVAtv1Y6FyzxA3,html-keyboard-response,162,748499,0.0-46.0-5.0-1.0-1.0-3.0,,,,,,,,,,,,,,,5996f25a05a0e30001f1fd72,16:38:33,03/04/2024
1473.0,,,ospan,symmetry,FPd4nV8FaGXjsqVVAtv1Y6FyzxA3,symmetry-judgement-task,163,752218,0.0-46.0-5.0-1.0-1.0-4.0,,,,,,,,,,1.0,1.0,,,,5996f25a05a0e30001f1fd72,16:38:33,03/04/2024
,"<div style=""font-size: 10rem; color: #0000FF"">C</div>",,ospan,letter,FPd4nV8FaGXjsqVVAtv1Y6FyzxA3,html-keyboard-response,164,753226,0.0-46.0-5.0-1.0-1.0-5.0,,,,,,,,,,,,,,,5996f25a05a0e30001f1fd72,16:38:33,03/04/2024
2343.0,,,ospan,symmetry,FPd4nV8FaGXjsqVVAtv1Y6FyzxA3,symmetry-judgement-task,165,757795,0.0-46.0-5.0-1.0-1.0-6.0,,,,,,,,,,1.0,1.0,,,,5996f25a05a0e30001f1fd72,16:38:33,03/04/2024
,"<div style=""font-size: 10rem; color: #0000FF"">R</div>",,ospan,letter,FPd4nV8FaGXjsqVVAtv1Y6FyzxA3,html-keyboard-response,166,758806,0.0-46.0-5.0-1.0-1.0-7.0,,,,,,,,,,,,,,,5996f25a05a0e30001f1fd72,16:38:33,03/04/2024
1191.0,,,ospan,symmetry,FPd4nV8FaGXjsqVVAtv1Y6FyzxA3,symmetry-judgement-task,167,762230,0.0-46.0-5.0-1.0-1.0-8.0,,,,,,,,,,1.0,1.0,,,,5996f25a05a0e30001f1fd72,16:38:33,03/04/2024
,"<div style=""font-size: 10rem; color: #0000FF"">S</div>",,ospan,letter,FPd4nV8FaGXjsqVVAtv1Y6FyzxA3,html-keyboard-response,168,763237,0.0-46.0-5.0-1.0-1.0-9.0,,,,,,,,,,,,,,,5996f25a05a0e30001f1fd72,16:38:33,03/04/2024
1755.0,,,ospan,symmetry,FPd4nV8FaGXjsqVVAtv1Y6FyzxA3,symmetry-judgement-task,169,767186,0.0-46.0-5.0-1.0-1.0-10.0,,,,,,,,,,1.0,1.0,,,,5996f25a05a0e30001f1fd72,16:38:33,03/04/2024
,"<div style=""font-size: 10rem; color: #0000FF"">N</div>",,ospan,letter,FPd4nV8FaGXjsqVVAtv1Y6FyzxA3,html-keyboard-response,170,768199,0.0-46.0-5.0-1.0-1.0-11.0,,,,,,,,,,,,,,,5996f25a05a0e30001f1fd72,16:38:33,03/04/2024
1985.0,,,ospan,symmetry,FPd4nV8FaGXjsqVVAtv1Y6FyzxA3,symmetry-judgement-task,171,772394,0.0-46.0-5.0-1.0-1.0-12.0,,,,,,,,,,1.0,1.0,,,,5996f25a05a0e30001f1fd72,16:38:33,03/04/2024
,"<div style=""font-size: 10rem; color: #0000FF"">G</div>",,ospan,letter,FPd4nV8FaGXjsqVVAtv1Y6FyzxA3,html-keyboard-response,172,773404,0.0-46.0-5.0-1.0-1.0-13.0,,,,,,,,,,,,,,,5996f25a05a0e30001f1fd72,16:38:33,03/04/2024
7179.900000095367,"<div class = numbox><p style=""font-size: 2.4rem"">Please recall the letters you saw to the best of your ability. If you do not remember a particular letter, use the SKIP button.<br><b>(When you are ready to lock in your answer, press ENTER)</b></p><button id = button_1 class = ""square num-button"" onclick = ""recordClick(this)""><div class = content><div class = numbers>C</div></div></button><button id = button_2 class = ""square num-button"" onclick = ""recordClick(this)""><div class = content><div class = numbers>G</div></div></button><button id = button_3 class = ""square num-button"" onclick = ""recordClick(this)""><div class = content><div class = numbers>H</div></div></button><button id = button_4 class = ""square num-button"" onclick = ""recordClick(this)""><div class = content><div class = numbers>J</div></div></button><button id = button_5 class = ""square num-button"" onclick = ""recordClick(this)""><div class = content><div class = numbers>K</div></div></button><button id = button_6 class = ""square num-button"" onclick = ""recordClick(this)""><div class = content><div class = numbers>L</div></div></button><button id = button_7 class = ""square num-button"" onclick = ""recordClick(this)""><div class = content><div class = numbers>N</div></div></button><button id = button_8 class = ""square num-button"" onclick = ""recordClick(this)""><div class = content><div class = numbers>P</div></div></button><button id = button_9 class = ""square num-button"" onclick = ""recordClick(this)""><div class = content><div class = numbers>Q</div></div></button><button id = button_10 class = ""square num-button"" onclick = ""recordClick(this)""><div class = content><div class = numbers>R</div></div></button><button id = button_11 class = ""square num-button"" onclick = ""recordClick(this)""><div class = content><div class = numbers>S</div></div></button><button id = button_12 class = ""square num-button"" onclick = ""recordClick(this)""><div class = content><div class = numbers>Y</div></div></button><button class = clear_button id = ""ClearButton"" onclick = ""clearResponse()"">BACKSPACE</button><button class = blank_button id = ""BlankButton"" onclick = ""blankResponse()"">SKIP</button><p style=""font-size: 2.4rem""><u><b>Current Answer:</b></u></p><br><br><div id=echoed_txt style=""font-size: 5rem; color:blue;""><b></b></div></div>",enter,ospan,retrieval,FPd4nV8FaGXjsqVVAtv1Y6FyzxA3,html-keyboard-response,173,781345,0.0-46.0-5.0-1.0-2.0,28,28,28,7.0,"[""H"",""Y"",""C"",""R"",""S"",""N"",""G""]","[""H"",""Y"",""C"",""R"",""S"",""N"",""G""]",1.0,7.0,,,,,,,5996f25a05a0e30001f1fd72,16:38:33,03/04/2024
1583.2999999523163,[''],0,ospan,feedback,FPd4nV8FaGXjsqVVAtv1Y6FyzxA3,html-button-response,174,783436,0.0-46.0-5.0-1.0-3.0,,,,,,,,,,,,100.0,0.0,,5996f25a05a0e30001f1fd72,16:38:33,03/04/2024
,"<p style=""font-size:75px;"">...</p>",,ospan,iti,FPd4nV8FaGXjsqVVAtv1Y6FyzxA3,html-keyboard-response,175,784444,0.0-46.0-6.0-0.0-0.0,,,,,,,,,,,,,,,5996f25a05a0e30001f1fd72,16:38:33,03/04/2024
2086.0,,,ospan,symmetry,FPd4nV8FaGXjsqVVAtv1Y6FyzxA3,symmetry-judgement-task,176,787635,0.0-46.0-6.0-0.0-1.0-0.0,,,,,,,,,,1.0,1.0,,,,5996f25a05a0e30001f1fd72,16:38:33,03/04/2024
,"<div style=""font-size: 10rem; color: #0000FF"">P</div>",,ospan,letter,FPd4nV8FaGXjsqVVAtv1Y6FyzxA3,html-keyboard-response,177,788640,0.0-46.0-6.0-0.0-1.0-1.0,,,,,,,,,,,,,,,5996f25a05a0e30001f1fd72,16:38:33,03/04/2024
1450.0,,,ospan,symmetry,FPd4nV8FaGXjsqVVAtv1Y6FyzxA3,symmetry-judgement-task,178,792283,0.0-46.0-6.0-0.0-1.0-2.0,,,,,,,,,,1.0,1.0,,,,5996f25a05a0e30001f1fd72,16:38:33,03/04/2024
,"<div style=""font-size: 10rem; color: #0000FF"">R</div>",,ospan,letter,FPd4nV8FaGXjsqVVAtv1Y6FyzxA3,html-keyboard-response,179,793288,0.0-46.0-6.0-0.0-1.0-3.0,,,,,,,,,,,,,,,5996f25a05a0e30001f1fd72,16:38:33,03/04/2024
1141.0,,,ospan,symmetry,FPd4nV8FaGXjsqVVAtv1Y6FyzxA3,symmetry-judgement-task,180,796680,0.0-46.0-6.0-0.0-1.0-4.0,,,,,,,,,,1.0,1.0,,,,5996f25a05a0e30001f1fd72,16:38:33,03/04/2024
,"<div style=""font-size: 10rem; color: #0000FF"">K</div>",,ospan,letter,FPd4nV8FaGXjsqVVAtv1Y6FyzxA3,html-keyboard-response,181,797687,0.0-46.0-6.0-0.0-1.0-5.0,,,,,,,,,,,,,,,5996f25a05a0e30001f1fd72,16:38:33,03/04/2024
1339.0,,,ospan,symmetry,FPd4nV8FaGXjsqVVAtv1Y6FyzxA3,symmetry-judgement-task,182,801285,0.0-46.0-6.0-0.0-1.0-6.0,,,,,,,,,,1.0,1.0,,,,5996f25a05a0e30001f1fd72,16:38:33,03/04/2024
,"<div style=""font-size: 10rem; color: #0000FF"">J</div>",,ospan,letter,FPd4nV8FaGXjsqVVAtv1Y6FyzxA3,html-keyboard-response,183,802287,0.0-46.0-6.0-0.0-1.0-7.0,,,,,,,,,,,,,,,5996f25a05a0e30001f1fd72,16:38:33,03/04/2024
1626.0,,,ospan,symmetry,FPd4nV8FaGXjsqVVAtv1Y6FyzxA3,symmetry-judgement-task,184,806168,0.0-46.0-6.0-0.0-1.0-8.0,,,,,,,,,,1.0,1.0,,,,5996f25a05a0e30001f1fd72,16:38:33,03/04/2024
,"<div style=""font-size: 10rem; color: #0000FF"">N</div>",,ospan,letter,FPd4nV8FaGXjsqVVAtv1Y6FyzxA3,html-keyboard-response,185,807186,0.0-46.0-6.0-0.0-1.0-9.0,,,,,,,,,,,,,,,5996f25a05a0e30001f1fd72,16:38:33,03/04/2024
7215.700000047684,"<div class = numbox><p style=""font-size: 2.4rem"">Please recall the letters you saw to the best of your ability. If you do not remember a particular letter, use the SKIP button.<br><b>(When you are ready to lock in your answer, press ENTER)</b></p><button id = button_1 class = ""square num-button"" onclick = ""recordClick(this)""><div class = content><div class = numbers>C</div></div></button><button id = button_2 class = ""square num-button"" onclick = ""recordClick(this)""><div class = content><div class = numbers>G</div></div></button><button id = button_3 class = ""square num-button"" onclick = ""recordClick(this)""><div class = content><div class = numbers>H</div></div></button><button id = button_4 class = ""square num-button"" onclick = ""recordClick(this)""><div class = content><div class = numbers>J</div></div></button><button id = button_5 class = ""square num-button"" onclick = ""recordClick(this)""><div class = content><div class = numbers>K</div></div></button><button id = button_6 class = ""square num-button"" onclick = ""recordClick(this)""><div class = content><div class = numbers>L</div></div></button><button id = button_7 class = ""square num-button"" onclick = ""recordClick(this)""><div class = content><div class = numbers>N</div></div></button><button id = button_8 class = ""square num-button"" onclick = ""recordClick(this)""><div class = content><div class = numbers>P</div></div></button><button id = button_9 class = ""square num-button"" onclick = ""recordClick(this)""><div class = content><div class = numbers>Q</div></div></button><button id = button_10 class = ""square num-button"" onclick = ""recordClick(this)""><div class = content><div class = numbers>R</div></div></button><button id = button_11 class = ""square num-button"" onclick = ""recordClick(this)""><div class = content><div class = numbers>S</div></div></button><button id = button_12 class = ""square num-button"" onclick = ""recordClick(this)""><div class = content><div class = numbers>Y</div></div></button><button class = clear_button id = ""ClearButton"" onclick = ""clearResponse()"">BACKSPACE</button><button class = blank_button id = ""BlankButton"" onclick = ""blankResponse()"">SKIP</button><p style=""font-size: 2.4rem""><u><b>Current Answer:</b></u></p><br><br><div id=echoed_txt style=""font-size: 5rem; color:blue;""><b></b></div></div>",enter,ospan,retrieval,FPd4nV8FaGXjsqVVAtv1Y6FyzxA3,html-keyboard-response,186,815162,0.0-46.0-6.0-0.0-2.0,33,33,33,5.0,"[""P"",""R"",""K"",""J"",""N""]","[""P"",""R"",""K"",""J"",""N""]",1.0,5.0,,,,,,,5996f25a05a0e30001f1fd72,16:38:33,03/04/2024
1027.2000000476837,[''],0,ospan,feedback,FPd4nV8FaGXjsqVVAtv1Y6FyzxA3,html-button-response,187,816703,0.0-46.0-6.0-0.0-3.0,,,,,,,,,,,,100.0,0.0,,5996f25a05a0e30001f1fd72,16:38:33,03/04/2024
,"<p style=""font-size:75px;"">...</p>",,ospan,iti,FPd4nV8FaGXjsqVVAtv1Y6FyzxA3,html-keyboard-response,188,817707,0.0-46.0-6.0-1.0-0.0,,,,,,,,,,,,,,,5996f25a05a0e30001f1fd72,16:38:33,03/04/2024
1707.0,,,ospan,symmetry,FPd4nV8FaGXjsqVVAtv1Y6FyzxA3,symmetry-judgement-task,189,820886,0.0-46.0-6.0-1.0-1.0-0.0,,,,,,,,,,1.0,1.0,,,,5996f25a05a0e30001f1fd72,16:38:33,03/04/2024
,"<div style=""font-size: 10rem; color: #0000FF"">S</div>",,ospan,letter,FPd4nV8FaGXjsqVVAtv1Y6FyzxA3,html-keyboard-response,190,821894,0.0-46.0-6.0-1.0-1.0-1.0,,,,,,,,,,,,,,,5996f25a05a0e30001f1fd72,16:38:33,03/04/2024
1971.0,,,ospan,symmetry,FPd4nV8FaGXjsqVVAtv1Y6FyzxA3,symmetry-judgement-task,191,826093,0.0-46.0-6.0-1.0-1.0-2.0,,,,,,,,,,1.0,1.0,,,,5996f25a05a0e30001f1fd72,16:38:33,03/04/2024
,"<div style=""font-size: 10rem; color: #0000FF"">P</div>",,ospan,letter,FPd4nV8FaGXjsqVVAtv1Y6FyzxA3,html-keyboard-response,192,827103,0.0-46.0-6.0-1.0-1.0-3.0,,,,,,,,,,,,,,,5996f25a05a0e30001f1fd72,16:38:33,03/04/2024
1168.0,,,ospan,symmetry,FPd4nV8FaGXjsqVVAtv1Y6FyzxA3,symmetry-judgement-task,193,830451,0.0-46.0-6.0-1.0-1.0-4.0,,,,,,,,,,1.0,1.0,,,,5996f25a05a0e30001f1fd72,16:38:33,03/04/2024
,"<div style=""font-size: 10rem; color: #0000FF"">G</div>",,ospan,letter,FPd4nV8FaGXjsqVVAtv1Y6FyzxA3,html-keyboard-response,194,831456,0.0-46.0-6.0-1.0-1.0-5.0,,,,,,,,,,,,,,,5996f25a05a0e30001f1fd72,16:38:33,03/04/2024
1250.0,,,ospan,symmetry,FPd4nV8FaGXjsqVVAtv1Y6FyzxA3,symmetry-judgement-task,195,834851,0.0-46.0-6.0-1.0-1.0-6.0,,,,,,,,,,1.0,1.0,,,,5996f25a05a0e30001f1fd72,16:38:33,03/04/2024
,"<div style=""font-size: 10rem; color: #0000FF"">R</div>",,ospan,letter,FPd4nV8FaGXjsqVVAtv1Y6FyzxA3,html-keyboard-response,196,835859,0.0-46.0-6.0-1.0-1.0-7.0,,,,,,,,,,,,,,,5996f25a05a0e30001f1fd72,16:38:33,03/04/2024
1141.0,,,ospan,symmetry,FPd4nV8FaGXjsqVVAtv1Y6FyzxA3,symmetry-judgement-task,197,839243,0.0-46.0-6.0-1.0-1.0-8.0,,,,,,,,,,1.0,1.0,,,,5996f25a05a0e30001f1fd72,16:38:33,03/04/2024
,"<div style=""font-size: 10rem; color: #0000FF"">C</div>",,ospan,letter,FPd4nV8FaGXjsqVVAtv1Y6FyzxA3,html-keyboard-response,198,840250,0.0-46.0-6.0-1.0-1.0-9.0,,,,,,,,,,,,,,,5996f25a05a0e30001f1fd72,16:38:33,03/04/2024
1499.0,,,ospan,symmetry,FPd4nV8FaGXjsqVVAtv1Y6FyzxA3,symmetry-judgement-task,199,843976,0.0-46.0-6.0-1.0-1.0-10.0,,,,,,,,,,1.0,1.0,,,,5996f25a05a0e30001f1fd72,16:38:33,03/04/2024
,"<div style=""font-size: 10rem; color: #0000FF"">Q</div>",,ospan,letter,FPd4nV8FaGXjsqVVAtv1Y6FyzxA3,html-keyboard-response,200,844985,0.0-46.0-6.0-1.0-1.0-11.0,,,,,,,,,,,,,,,5996f25a05a0e30001f1fd72,16:38:33,03/04/2024
1500.0,,,ospan,symmetry,FPd4nV8FaGXjsqVVAtv1Y6FyzxA3,symmetry-judgement-task,201,848698,0.0-46.0-6.0-1.0-1.0-12.0,,,,,,,,,,1.0,1.0,,,,5996f25a05a0e30001f1fd72,16:38:33,03/04/2024
,"<div style=""font-size: 10rem; color: #0000FF"">J</div>",,ospan,letter,FPd4nV8FaGXjsqVVAtv1Y6FyzxA3,html-keyboard-response,202,849704,0.0-46.0-6.0-1.0-1.0-13.0,,,,,,,,,,,,,,,5996f25a05a0e30001f1fd72,16:38:33,03/04/2024
1460.0,,,ospan,symmetry,FPd4nV8FaGXjsqVVAtv1Y6FyzxA3,symmetry-judgement-task,203,853392,0.0-46.0-6.0-1.0-1.0-14.0,,,,,,,,,,1.0,1.0,,,,5996f25a05a0e30001f1fd72,16:38:33,03/04/2024
,"<div style=""font-size: 10rem; color: #0000FF"">N</div>",,ospan,letter,FPd4nV8FaGXjsqVVAtv1Y6FyzxA3,html-keyboard-response,204,854401,0.0-46.0-6.0-1.0-1.0-15.0,,,,,,,,,,,,,,,5996f25a05a0e30001f1fd72,16:38:33,03/04/2024
11111.399999856949,"<div class = numbox><p style=""font-size: 2.4rem"">Please recall the letters you saw to the best of your ability. If you do not remember a particular letter, use the SKIP button.<br><b>(When you are ready to lock in your answer, press ENTER)</b></p><button id = button_1 class = ""square num-button"" onclick = ""recordClick(this)""><div class = content><div class = numbers>C</div></div></button><button id = button_2 class = ""square num-button"" onclick = ""recordClick(this)""><div class = content><div class = numbers>G</div></div></button><button id = button_3 class = ""square num-button"" onclick = ""recordClick(this)""><div class = content><div class = numbers>H</div></div></button><button id = button_4 class = ""square num-button"" onclick = ""recordClick(this)""><div class = content><div class = numbers>J</div></div></button><button id = button_5 class = ""square num-button"" onclick = ""recordClick(this)""><div class = content><div class = numbers>K</div></div></button><button id = button_6 class = ""square num-button"" onclick = ""recordClick(this)""><div class = content><div class = numbers>L</div></div></button><button id = button_7 class = ""square num-button"" onclick = ""recordClick(this)""><div class = content><div class = numbers>N</div></div></button><button id = button_8 class = ""square num-button"" onclick = ""recordClick(this)""><div class = content><div class = numbers>P</div></div></button><button id = button_9 class = ""square num-button"" onclick = ""recordClick(this)""><div class = content><div class = numbers>Q</div></div></button><button id = button_10 class = ""square num-button"" onclick = ""recordClick(this)""><div class = content><div class = numbers>R</div></div></button><button id = button_11 class = ""square num-button"" onclick = ""recordClick(this)""><div class = content><div class = numbers>S</div></div></button><button id = button_12 class = ""square num-button"" onclick = ""recordClick(this)""><div class = content><div class = numbers>Y</div></div></button><button class = clear_button id = ""ClearButton"" onclick = ""clearResponse()"">BACKSPACE</button><button class = blank_button id = ""BlankButton"" onclick = ""blankResponse()"">SKIP</button><p style=""font-size: 2.4rem""><u><b>Current Answer:</b></u></p><br><br><div id=echoed_txt style=""font-size: 5rem; color:blue;""><b></b></div></div>",enter,ospan,retrieval,FPd4nV8FaGXjsqVVAtv1Y6FyzxA3,html-keyboard-response,205,866271,0.0-46.0-6.0-1.0-2.0,41,37,33,8.0,"[""S"",""P"",""C"",""R"",""J"",""Q"",""N""]","[""S"",""P"",""G"",""R"",""C"",""Q"",""J"",""N""]",0.0,4.0,,,,,,,5996f25a05a0e30001f1fd72,16:38:33,03/04/2024
1037.4000000953674,[''],0,ospan,feedback,FPd4nV8FaGXjsqVVAtv1Y6FyzxA3,html-button-response,206,867822,0.0-46.0-6.0-1.0-3.0,,,,,,,,,,,,100.0,0.0,,5996f25a05a0e30001f1fd72,16:38:33,03/04/2024
17939.900000095367,,"{'Q0': ""It is an interesting task, I wouldn't change it ""}",ospan,survey_ospan,FPd4nV8FaGXjsqVVAtv1Y6FyzxA3,lmdlab-survey-text,207,886520,0.0-46.0-7.0,,,,,,,,,,,,,,FPd4nV8FaGXjsqVVAtv1Y6FyzxA3,5996f25a05a0e30001f1fd72,16:38:33,03/04/2024
1320.2000000476837,<p><p style='font-size: 3rem'>Great work!<br><br>This completes the symmetry and memory task.</p><br><br><br>,0,ospan,finish,FPd4nV8FaGXjsqVVAtv1Y6FyzxA3,html-button-response,208,887846,0.0-46.0-8.0,41,37,33,,,,,,,,,100.0,,,5996f25a05a0e30001f1fd72,16:38:33,03/04/2024
