rt,stimulus,response,exp_name,exp_stage,subjectID,trial_type,trial_index,time_elapsed,internal_node_id,ospan_shown,ospan_total,ospan_abs,length,resp_actual,resp_correct,full_correct,num_correct,feedback,accuracy,correct,math_acc,math_warning,databaseID,prolificID,start_time,date
1397.0,<div class = 'left_align' style='font-size: 3.25rem; line-height: 1.3;'><p class = 'center_align'><b>Welcome to the Symmetry and Memory Task</b><br><br><br><br></p>Press 'continue' to show the instructions.<br><br><br><br></div>,0,ospan,instruct,kGS0hfxmEOdhwlUo3sBoTsiGdqF3,html-button-response,54,569087,0.0-46.0-0.0-0.0-0.0,,,,,,,,,,,,,,,54258078fdf99b691fb3858e,09:17:57,03/04/2024
9610.0,"<div class = 'left_align' style='font-size: 3.25rem; line-height: 1.3;'><p class = 'center_align'><b>Symmetry and Memory Task</b><br><br></p>In this task, you will try to memorize letters you see on the screen<br>while you also view black and white grid pictures.<br><br>In the next few minutes, you will have some practice to get you familiar<br>with how the task works.<br><br>It may be difficult sometimes, but please do not worry about making mistakes!<br><br>We will begin by practicing the letter part of the task.<br><br><br><br></div>",0,ospan,instruct,kGS0hfxmEOdhwlUo3sBoTsiGdqF3,html-button-response,55,578951,0.0-46.0-0.0-0.0-1.0,,,,,,,,,,,,,,,54258078fdf99b691fb3858e,09:17:57,03/04/2024
87003.0,"<div class = 'left_align' style='font-size: 3.25rem; line-height: 1.3;'>For this practice part, letters will appear on the screen one at a time.<br><br>Try to remember each letter in the order presented.<br><br>After some letters have been shown, you will see a response screen. Your<br>goal is to report the letters you saw <b>in order</b>. If you do not remember<br>a particular letter, you will have the option to leave it blank.<br><br><br><br></div>",0,ospan,instruct,kGS0hfxmEOdhwlUo3sBoTsiGdqF3,html-button-response,56,666207,0.0-46.0-0.0-0.0-2.0,,,,,,,,,,,,,,,54258078fdf99b691fb3858e,09:17:57,03/04/2024
3147.0,"<div class = 'left_align' style='font-size: 3.25rem; line-height: 1.3;'>Remember, it is very important to get the letters in the same<br>order as you see them.<br><br>When you are ready, you may begin the letter practice.</div><br><br><br><br>",0,ospan,instruct,kGS0hfxmEOdhwlUo3sBoTsiGdqF3,html-button-response,57,669607,0.0-46.0-0.0-0.0-3.0,,,,,,,,,,,,,,,54258078fdf99b691fb3858e,09:17:57,03/04/2024
,"<p style=""font-size:75px;"">...</p>",,ospan,iti,kGS0hfxmEOdhwlUo3sBoTsiGdqF3,html-keyboard-response,58,670859,0.0-46.0-0.0-1.0-0.0,,,,,,,,,,,,,,,54258078fdf99b691fb3858e,09:17:57,03/04/2024
,"<div style=""font-size: 10rem; color: #0000FF"">R</div>",,ospan,letter,kGS0hfxmEOdhwlUo3sBoTsiGdqF3,html-keyboard-response,59,671863,0.0-46.0-0.0-1.0-1.0,,,,,,,,,,,,,,,54258078fdf99b691fb3858e,09:17:57,03/04/2024
,"<div style=""font-size: 10rem; color: #0000FF"">P</div>",,ospan,letter,kGS0hfxmEOdhwlUo3sBoTsiGdqF3,html-keyboard-response,60,673614,0.0-46.0-0.0-1.0-2.0,,,,,,,,,,,,,,,54258078fdf99b691fb3858e,09:17:57,03/04/2024
10640.0,"<div class = numbox><p style=""font-size: 2.4rem"">Please recall the letters you saw to the best of your ability. If you do not remember a particular letter, use the SKIP button.<br><b>(When you are ready to lock in your answer, press ENTER)</b></p><button id = button_1 class = ""square num-button"" onclick = ""recordClick(this)""><div class = content><div class = numbers>C</div></div></button><button id = button_2 class = ""square num-button"" onclick = ""recordClick(this)""><div class = content><div class = numbers>G</div></div></button><button id = button_3 class = ""square num-button"" onclick = ""recordClick(this)""><div class = content><div class = numbers>H</div></div></button><button id = button_4 class = ""square num-button"" onclick = ""recordClick(this)""><div class = content><div class = numbers>J</div></div></button><button id = button_5 class = ""square num-button"" onclick = ""recordClick(this)""><div class = content><div class = numbers>K</div></div></button><button id = button_6 class = ""square num-button"" onclick = ""recordClick(this)""><div class = content><div class = numbers>L</div></div></button><button id = button_7 class = ""square num-button"" onclick = ""recordClick(this)""><div class = content><div class = numbers>N</div></div></button><button id = button_8 class = ""square num-button"" onclick = ""recordClick(this)""><div class = content><div class = numbers>P</div></div></button><button id = button_9 class = ""square num-button"" onclick = ""recordClick(this)""><div class = content><div class = numbers>Q</div></div></button><button id = button_10 class = ""square num-button"" onclick = ""recordClick(this)""><div class = content><div class = numbers>R</div></div></button><button id = button_11 class = ""square num-button"" onclick = ""recordClick(this)""><div class = content><div class = numbers>S</div></div></button><button id = button_12 class = ""square num-button"" onclick = ""recordClick(this)""><div class = content><div class = numbers>Y</div></div></button><button class = clear_button id = ""ClearButton"" onclick = ""clearResponse()"">BACKSPACE</button><button class = blank_button id = ""BlankButton"" onclick = ""blankResponse()"">SKIP</button><p style=""font-size: 2.4rem""><u><b>Current Answer:</b></u></p><br><br><div id=echoed_txt style=""font-size: 5rem; color:blue;""><b></b></div></div>",enter,ospan,retrieval,kGS0hfxmEOdhwlUo3sBoTsiGdqF3,html-keyboard-response,61,685006,0.0-46.0-0.0-1.0-3.0,NA,NA,NA,2.0,"[""R"",""P""]","[""R"",""P""]",1.0,2.0,"['<font color=""green"">R</font>', '<font color=""green"">P</font>']",,,,,,54258078fdf99b691fb3858e,09:17:57,03/04/2024
1056.0,"['<p style=""font-size:44px"">Letters:<br><br><br><font color=""green"">R</font> <font color=""green"">P</font></p><br><br>']",0,ospan,practice_feedback,kGS0hfxmEOdhwlUo3sBoTsiGdqF3,html-button-response,62,686567,0.0-46.0-0.0-1.0-4.0,,,,,,,,,,,,,,,54258078fdf99b691fb3858e,09:17:57,03/04/2024
,"<p style=""font-size:75px;"">...</p>",,ospan,iti,kGS0hfxmEOdhwlUo3sBoTsiGdqF3,html-keyboard-response,63,687568,0.0-46.0-0.0-2.0-0.0,,,,,,,,,,,,,,,54258078fdf99b691fb3858e,09:17:57,03/04/2024
,"<div style=""font-size: 10rem; color: #0000FF"">R</div>",,ospan,letter,kGS0hfxmEOdhwlUo3sBoTsiGdqF3,html-keyboard-response,64,688569,0.0-46.0-0.0-2.0-1.0,,,,,,,,,,,,,,,54258078fdf99b691fb3858e,09:17:57,03/04/2024
,"<div style=""font-size: 10rem; color: #0000FF"">G</div>",,ospan,letter,kGS0hfxmEOdhwlUo3sBoTsiGdqF3,html-keyboard-response,65,690320,0.0-46.0-0.0-2.0-2.0,,,,,,,,,,,,,,,54258078fdf99b691fb3858e,09:17:57,03/04/2024
,"<div style=""font-size: 10rem; color: #0000FF"">P</div>",,ospan,letter,kGS0hfxmEOdhwlUo3sBoTsiGdqF3,html-keyboard-response,66,692070,0.0-46.0-0.0-2.0-3.0,,,,,,,,,,,,,,,54258078fdf99b691fb3858e,09:17:57,03/04/2024
3708.0,"<div class = numbox><p style=""font-size: 2.4rem"">Please recall the letters you saw to the best of your ability. If you do not remember a particular letter, use the SKIP button.<br><b>(When you are ready to lock in your answer, press ENTER)</b></p><button id = button_1 class = ""square num-button"" onclick = ""recordClick(this)""><div class = content><div class = numbers>C</div></div></button><button id = button_2 class = ""square num-button"" onclick = ""recordClick(this)""><div class = content><div class = numbers>G</div></div></button><button id = button_3 class = ""square num-button"" onclick = ""recordClick(this)""><div class = content><div class = numbers>H</div></div></button><button id = button_4 class = ""square num-button"" onclick = ""recordClick(this)""><div class = content><div class = numbers>J</div></div></button><button id = button_5 class = ""square num-button"" onclick = ""recordClick(this)""><div class = content><div class = numbers>K</div></div></button><button id = button_6 class = ""square num-button"" onclick = ""recordClick(this)""><div class = content><div class = numbers>L</div></div></button><button id = button_7 class = ""square num-button"" onclick = ""recordClick(this)""><div class = content><div class = numbers>N</div></div></button><button id = button_8 class = ""square num-button"" onclick = ""recordClick(this)""><div class = content><div class = numbers>P</div></div></button><button id = button_9 class = ""square num-button"" onclick = ""recordClick(this)""><div class = content><div class = numbers>Q</div></div></button><button id = button_10 class = ""square num-button"" onclick = ""recordClick(this)""><div class = content><div class = numbers>R</div></div></button><button id = button_11 class = ""square num-button"" onclick = ""recordClick(this)""><div class = content><div class = numbers>S</div></div></button><button id = button_12 class = ""square num-button"" onclick = ""recordClick(this)""><div class = content><div class = numbers>Y</div></div></button><button class = clear_button id = ""ClearButton"" onclick = ""clearResponse()"">BACKSPACE</button><button class = blank_button id = ""BlankButton"" onclick = ""blankResponse()"">SKIP</button><p style=""font-size: 2.4rem""><u><b>Current Answer:</b></u></p><br><br><div id=echoed_txt style=""font-size: 5rem; color:blue;""><b></b></div></div>",enter,ospan,retrieval,kGS0hfxmEOdhwlUo3sBoTsiGdqF3,html-keyboard-response,67,696530,0.0-46.0-0.0-2.0-4.0,NA,NA,NA,3.0,"[""R"",""G"",""P""]","[""R"",""G"",""P""]",1.0,3.0,"['<font color=""green"">R</font>', '<font color=""green"">G</font>', '<font color=""green"">P</font>']",,,,,,54258078fdf99b691fb3858e,09:17:57,03/04/2024
839.0,"['<p style=""font-size:44px"">Letters:<br><br><br><font color=""green"">R</font> <font color=""green"">G</font> <font color=""green"">P</font></p><br><br>']",0,ospan,practice_feedback,kGS0hfxmEOdhwlUo3sBoTsiGdqF3,html-button-response,68,697871,0.0-46.0-0.0-2.0-5.0,,,,,,,,,,,,,,,54258078fdf99b691fb3858e,09:17:57,03/04/2024
9414.0,"<div class = 'left_align' style='font-size: 3.25rem; line-height: 1.3;'>Now you will practice doing the <b>symmetry judgment part</b> of the experiment.<br><br>A black and white grid picture will appear on the screen and you have to judge if it is <br>symmetrical or asymetrical.<br><br>A picture is 'mirror' symmetrical if its left half is identical to the right half when flipped.<br>Here are examples of a symmetrical and an asymetrical picture:<br><br><center><img src='Stimuli/img/symm_instructions_extra.png' style='height:420px; width:900'></img></center><br>To judge symmetry, imagine you were to fold each picture down the middle, like a book –<br>would the left half match the right half when folded onto each other?<br><br></div><br>",0,ospan,instruct,kGS0hfxmEOdhwlUo3sBoTsiGdqF3,html-button-response,69,707287,0.0-46.0-1.0-0.0-0.0,,,,,,,,,,,,,,,54258078fdf99b691fb3858e,09:17:57,03/04/2024
4059.0,"<div class = 'left_align' style='font-size: 3.25rem; line-height: 1.3;'>When you have viewed the picture and determined whether it is symmetrical or not,<br>you can <b>click the Yes or No button</b> below to answer.<br><br>If you take longer than 15 seconds, it will continue automatically<br>and record the answer as an error.</div><br>",0,ospan,instruct,kGS0hfxmEOdhwlUo3sBoTsiGdqF3,html-button-response,70,711599,0.0-46.0-1.0-0.0-1.0,,,,,,,,,,,,,,,54258078fdf99b691fb3858e,09:17:57,03/04/2024
1732.0,"<div class = 'left_align' style='font-size: 3.25rem; line-height: 1.3;'>It is <b>very</b> important that you make the symmetry judgment correctly.<br><br>It is also important that you try and judge the picture as quickly as you can.<br><br>When you are ready, click on the button below to try some practice problems.</div><br><br><br><br>",0,ospan,instruct,kGS0hfxmEOdhwlUo3sBoTsiGdqF3,html-button-response,71,713583,0.0-46.0-1.0-0.0-2.0,,,,,,,,,,,,,,,54258078fdf99b691fb3858e,09:17:57,03/04/2024
2383.0,,,ospan,symmetry,kGS0hfxmEOdhwlUo3sBoTsiGdqF3,symmetry-judgement-task,72,716843,0.0-46.0-1.0-1.0-0.0,,,,,,,,,,1.0,1.0,,,,54258078fdf99b691fb3858e,09:17:57,03/04/2024
,"<p style=""color:green; font-size: 35px"">Correct</p>",,ospan,feedback,kGS0hfxmEOdhwlUo3sBoTsiGdqF3,html-keyboard-response,73,717595,0.0-46.0-1.0-1.0-1.0,,,,,,,,,,,,,,,54258078fdf99b691fb3858e,09:17:57,03/04/2024
1181.0,,,ospan,symmetry,kGS0hfxmEOdhwlUo3sBoTsiGdqF3,symmetry-judgement-task,74,721899,0.0-46.0-1.0-1.0-2.0,,,,,,,,,,1.0,1.0,,,,54258078fdf99b691fb3858e,09:17:57,03/04/2024
,"<p style=""color:green; font-size: 35px"">Correct</p>",,ospan,feedback,kGS0hfxmEOdhwlUo3sBoTsiGdqF3,html-keyboard-response,75,722651,0.0-46.0-1.0-1.0-3.0,,,,,,,,,,,,,,,54258078fdf99b691fb3858e,09:17:57,03/04/2024
1366.0,,,ospan,symmetry,kGS0hfxmEOdhwlUo3sBoTsiGdqF3,symmetry-judgement-task,76,727180,0.0-46.0-1.0-1.0-4.0,,,,,,,,,,1.0,1.0,,,,54258078fdf99b691fb3858e,09:17:57,03/04/2024
,"<p style=""color:green; font-size: 35px"">Correct</p>",,ospan,feedback,kGS0hfxmEOdhwlUo3sBoTsiGdqF3,html-keyboard-response,77,727931,0.0-46.0-1.0-1.0-5.0,,,,,,,,,,,,,,,54258078fdf99b691fb3858e,09:17:57,03/04/2024
1130.0,"<p style=""font-size: 3rem;"">You responded correctly on 3 of 3 symmetry judgments. Good job!</p><br><br>",0,ospan,practice,kGS0hfxmEOdhwlUo3sBoTsiGdqF3,html-button-response,78,731063,0.0-46.0-1.0-2.0,,,,,,,,,,,,,,,54258078fdf99b691fb3858e,09:17:57,03/04/2024
2452.0,"<div class = 'left_align' style='font-size: 3.25rem; line-height: 1.3;'>Now you will practice doing both parts of the experiment at the same time.<br><br>In the next practice set, you will be given one grid picture to judge.<br>Then letter will appear on the screen. Try to remember the letter.<br><br>It is <b>very important</b> to make the symmetry judgment as quickly and accurately as possible.<br><br>Just as before, once you have make the symmetry judgment, you can click Yes or No.<br><b>Note that you will no longer see Correct or Incorrect feedback.</div><br><br><br><br>",0,ospan,instruct,kGS0hfxmEOdhwlUo3sBoTsiGdqF3,html-button-response,79,733767,0.0-46.0-2.0-0.0-0.0,,,,,,,,,,,,,,,54258078fdf99b691fb3858e,09:17:57,03/04/2024
3283.0,"<div class = 'left_align' style='font-size: 3.25rem; line-height: 1.3;'>After the letter goes away, another grid picture will appear, and then<br>another letter.<br><br>At the end of each set of letters and grids, you will recall the letters to the best<br>of your ability. Remember, try your best to get the letters in the correct order.<br><br>It is important to <b>quickly</b> and <b>accurately</b> make the symmetry judgments.</div><br><br><br><br>",0,ospan,instruct,kGS0hfxmEOdhwlUo3sBoTsiGdqF3,html-button-response,80,737303,0.0-46.0-2.0-0.0-1.0,,,,,,,,,,,,,,,54258078fdf99b691fb3858e,09:17:57,03/04/2024
40379.0,"<div class = 'left_align' style='font-size: 3.25rem; line-height: 1.3;'>On the feedback screen, if you are not doing well at the symmetry judgments,<br>you will also see a warning in the middle. This indicates your percent <br>correct for the grid pictures for the entire experiment.<br><br>It is <b>very</b> important for you to keep accuracy at least at 85%: <u>We can only use<br>data where the participant was at least 85% accurate on the judgments.</u> Therefore,<br> please try your best to perform well on the symmetry judgments, <b>at the same time</b><br>doing your best to recall as many letters as possible.<br><br>Click the button to try some practice problems.</div><br><br><br><br>",0,ospan,instruct,kGS0hfxmEOdhwlUo3sBoTsiGdqF3,html-button-response,81,777935,0.0-46.0-2.0-0.0-2.0,,,,,,,,,,,,,,,54258078fdf99b691fb3858e,09:17:57,03/04/2024
,"<p style=""font-size:75px;"">...</p>",,ospan,iti,kGS0hfxmEOdhwlUo3sBoTsiGdqF3,html-keyboard-response,82,779188,0.0-46.0-2.0-1.0-0.0,,,,,,,,,,,,,,,54258078fdf99b691fb3858e,09:17:57,03/04/2024
1394.0,,,ospan,symmetry,kGS0hfxmEOdhwlUo3sBoTsiGdqF3,symmetry-judgement-task,83,782233,0.0-46.0-2.0-1.0-1.0-0.0,,,,,,,,,,1.0,1.0,,,,54258078fdf99b691fb3858e,09:17:57,03/04/2024
,"<div style=""font-size: 10rem; color: #0000FF"">Y</div>",,ospan,letter,kGS0hfxmEOdhwlUo3sBoTsiGdqF3,html-keyboard-response,84,783235,0.0-46.0-2.0-1.0-1.0-1.0,,,,,,,,,,,,,,,54258078fdf99b691fb3858e,09:17:57,03/04/2024
1727.0,,,ospan,symmetry,kGS0hfxmEOdhwlUo3sBoTsiGdqF3,symmetry-judgement-task,85,787384,0.0-46.0-2.0-1.0-1.0-2.0,,,,,,,,,,0.0,0.0,,,,54258078fdf99b691fb3858e,09:17:57,03/04/2024
,"<div style=""font-size: 10rem; color: #0000FF"">Q</div>",,ospan,letter,kGS0hfxmEOdhwlUo3sBoTsiGdqF3,html-keyboard-response,86,788386,0.0-46.0-2.0-1.0-1.0-3.0,,,,,,,,,,,,,,,54258078fdf99b691fb3858e,09:17:57,03/04/2024
1197.0,,,ospan,symmetry,kGS0hfxmEOdhwlUo3sBoTsiGdqF3,symmetry-judgement-task,87,791959,0.0-46.0-2.0-1.0-1.0-4.0,,,,,,,,,,1.0,1.0,,,,54258078fdf99b691fb3858e,09:17:57,03/04/2024
,"<div style=""font-size: 10rem; color: #0000FF"">K</div>",,ospan,letter,kGS0hfxmEOdhwlUo3sBoTsiGdqF3,html-keyboard-response,88,792961,0.0-46.0-2.0-1.0-1.0-5.0,,,,,,,,,,,,,,,54258078fdf99b691fb3858e,09:17:57,03/04/2024
4371.0,"<div class = numbox><p style=""font-size: 2.4rem"">Please recall the letters you saw to the best of your ability. If you do not remember a particular letter, use the SKIP button.<br><b>(When you are ready to lock in your answer, press ENTER)</b></p><button id = button_1 class = ""square num-button"" onclick = ""recordClick(this)""><div class = content><div class = numbers>C</div></div></button><button id = button_2 class = ""square num-button"" onclick = ""recordClick(this)""><div class = content><div class = numbers>G</div></div></button><button id = button_3 class = ""square num-button"" onclick = ""recordClick(this)""><div class = content><div class = numbers>H</div></div></button><button id = button_4 class = ""square num-button"" onclick = ""recordClick(this)""><div class = content><div class = numbers>J</div></div></button><button id = button_5 class = ""square num-button"" onclick = ""recordClick(this)""><div class = content><div class = numbers>K</div></div></button><button id = button_6 class = ""square num-button"" onclick = ""recordClick(this)""><div class = content><div class = numbers>L</div></div></button><button id = button_7 class = ""square num-button"" onclick = ""recordClick(this)""><div class = content><div class = numbers>N</div></div></button><button id = button_8 class = ""square num-button"" onclick = ""recordClick(this)""><div class = content><div class = numbers>P</div></div></button><button id = button_9 class = ""square num-button"" onclick = ""recordClick(this)""><div class = content><div class = numbers>Q</div></div></button><button id = button_10 class = ""square num-button"" onclick = ""recordClick(this)""><div class = content><div class = numbers>R</div></div></button><button id = button_11 class = ""square num-button"" onclick = ""recordClick(this)""><div class = content><div class = numbers>S</div></div></button><button id = button_12 class = ""square num-button"" onclick = ""recordClick(this)""><div class = content><div class = numbers>Y</div></div></button><button class = clear_button id = ""ClearButton"" onclick = ""clearResponse()"">BACKSPACE</button><button class = blank_button id = ""BlankButton"" onclick = ""blankResponse()"">SKIP</button><p style=""font-size: 2.4rem""><u><b>Current Answer:</b></u></p><br><br><div id=echoed_txt style=""font-size: 5rem; color:blue;""><b></b></div></div>",enter,ospan,retrieval,kGS0hfxmEOdhwlUo3sBoTsiGdqF3,html-keyboard-response,89,798085,0.0-46.0-2.0-1.0-2.0-0.0,NA,NA,NA,3.0,"[""J"",""Q"",""K""]","[""Y"",""Q"",""K""]",0.0,2.0,"['<font color=""red"">Y</font>', '<font color=""green"">Q</font>', '<font color=""green"">K</font>']",,,,,,54258078fdf99b691fb3858e,09:17:57,03/04/2024
3011.0,"['<p style=""font-size:44px"">Letters:<br><br><br><font color=""red"">Y</font> <font color=""green"">Q</font> <font color=""green"">K</font></p><br><br><p style=""font-size:30px"">Symmetry:<br><br><font color=""red"">67%</font></p><br><br>']",0,ospan,practice_feedback,kGS0hfxmEOdhwlUo3sBoTsiGdqF3,html-button-response,90,801599,0.0-46.0-2.0-1.0-2.0-1.0,,,,,,,,,,,,,,,54258078fdf99b691fb3858e,09:17:57,03/04/2024
,"<p style=""font-size:75px;"">...</p>",,ospan,iti,kGS0hfxmEOdhwlUo3sBoTsiGdqF3,html-keyboard-response,91,802601,0.0-46.0-2.0-2.0-0.0,,,,,,,,,,,,,,,54258078fdf99b691fb3858e,09:17:57,03/04/2024
1367.0,,,ospan,symmetry,kGS0hfxmEOdhwlUo3sBoTsiGdqF3,symmetry-judgement-task,92,805665,0.0-46.0-2.0-2.0-1.0-0.0,,,,,,,,,,1.0,1.0,,,,54258078fdf99b691fb3858e,09:17:57,03/04/2024
,"<div style=""font-size: 10rem; color: #0000FF"">H</div>",,ospan,letter,kGS0hfxmEOdhwlUo3sBoTsiGdqF3,html-keyboard-response,93,806665,0.0-46.0-2.0-2.0-1.0-1.0,,,,,,,,,,,,,,,54258078fdf99b691fb3858e,09:17:57,03/04/2024
894.0,,,ospan,symmetry,kGS0hfxmEOdhwlUo3sBoTsiGdqF3,symmetry-judgement-task,94,809920,0.0-46.0-2.0-2.0-1.0-2.0,,,,,,,,,,1.0,1.0,,,,54258078fdf99b691fb3858e,09:17:57,03/04/2024
,"<div style=""font-size: 10rem; color: #0000FF"">C</div>",,ospan,letter,kGS0hfxmEOdhwlUo3sBoTsiGdqF3,html-keyboard-response,95,810921,0.0-46.0-2.0-2.0-1.0-3.0,,,,,,,,,,,,,,,54258078fdf99b691fb3858e,09:17:57,03/04/2024
1069.0,,,ospan,symmetry,kGS0hfxmEOdhwlUo3sBoTsiGdqF3,symmetry-judgement-task,96,814360,0.0-46.0-2.0-2.0-1.0-4.0,,,,,,,,,,1.0,1.0,,,,54258078fdf99b691fb3858e,09:17:57,03/04/2024
,"<div style=""font-size: 10rem; color: #0000FF"">N</div>",,ospan,letter,kGS0hfxmEOdhwlUo3sBoTsiGdqF3,html-keyboard-response,97,815363,0.0-46.0-2.0-2.0-1.0-5.0,,,,,,,,,,,,,,,54258078fdf99b691fb3858e,09:17:57,03/04/2024
4963.0,"<div class = numbox><p style=""font-size: 2.4rem"">Please recall the letters you saw to the best of your ability. If you do not remember a particular letter, use the SKIP button.<br><b>(When you are ready to lock in your answer, press ENTER)</b></p><button id = button_1 class = ""square num-button"" onclick = ""recordClick(this)""><div class = content><div class = numbers>C</div></div></button><button id = button_2 class = ""square num-button"" onclick = ""recordClick(this)""><div class = content><div class = numbers>G</div></div></button><button id = button_3 class = ""square num-button"" onclick = ""recordClick(this)""><div class = content><div class = numbers>H</div></div></button><button id = button_4 class = ""square num-button"" onclick = ""recordClick(this)""><div class = content><div class = numbers>J</div></div></button><button id = button_5 class = ""square num-button"" onclick = ""recordClick(this)""><div class = content><div class = numbers>K</div></div></button><button id = button_6 class = ""square num-button"" onclick = ""recordClick(this)""><div class = content><div class = numbers>L</div></div></button><button id = button_7 class = ""square num-button"" onclick = ""recordClick(this)""><div class = content><div class = numbers>N</div></div></button><button id = button_8 class = ""square num-button"" onclick = ""recordClick(this)""><div class = content><div class = numbers>P</div></div></button><button id = button_9 class = ""square num-button"" onclick = ""recordClick(this)""><div class = content><div class = numbers>Q</div></div></button><button id = button_10 class = ""square num-button"" onclick = ""recordClick(this)""><div class = content><div class = numbers>R</div></div></button><button id = button_11 class = ""square num-button"" onclick = ""recordClick(this)""><div class = content><div class = numbers>S</div></div></button><button id = button_12 class = ""square num-button"" onclick = ""recordClick(this)""><div class = content><div class = numbers>Y</div></div></button><button class = clear_button id = ""ClearButton"" onclick = ""clearResponse()"">BACKSPACE</button><button class = blank_button id = ""BlankButton"" onclick = ""blankResponse()"">SKIP</button><p style=""font-size: 2.4rem""><u><b>Current Answer:</b></u></p><br><br><div id=echoed_txt style=""font-size: 5rem; color:blue;""><b></b></div></div>",enter,ospan,retrieval,kGS0hfxmEOdhwlUo3sBoTsiGdqF3,html-keyboard-response,98,821079,0.0-46.0-2.0-2.0-2.0-0.0,NA,NA,NA,3.0,"[""H"",""C"",""N""]","[""H"",""C"",""N""]",1.0,3.0,"['<font color=""green"">H</font>', '<font color=""green"">C</font>', '<font color=""green"">N</font>']",,,,,,54258078fdf99b691fb3858e,09:17:57,03/04/2024
1497.0,"['<p style=""font-size:44px"">Letters:<br><br><br><font color=""green"">H</font> <font color=""green"">C</font> <font color=""green"">N</font></p><br><br><p style=""font-size:30px"">Symmetry:<br><br><font color=""red"">83%</font></p><br><br>']",0,ospan,practice_feedback,kGS0hfxmEOdhwlUo3sBoTsiGdqF3,html-button-response,99,823079,0.0-46.0-2.0-2.0-2.0-1.0,,,,,,,,,,,,,,,54258078fdf99b691fb3858e,09:17:57,03/04/2024
5117.0,"<div class = 'left_align' style='font-size: 3rem; line-height: 1.3;'><b>Great work! That is the end of practice.</b><br><br>The real trials will look just like the practice trials you just completed.<br><br><u>Here, you will not see feedback</u>. First, you will see an grid picture to judge,<br>then a letter to remember. When the recall screen appears, report the letters in the<br>order presented. If you forget a letter, remember to use the <b>blank</b> button to move to the<br>next letter. Some of the sets will have more symmetry grids and letters than others.<br><br>It is important that you do your best on both the symmetry judgments and the letter recall<br>parts of the experiment. For for the symmetry judgments, try to work as <b>quickly</b> and <br>as <b>accurately</b> as possible. Remember to keep your symmetry accuracy at 85% or above.<br><br><b>For the letters, do NOT use any external aid (e.g., writing on paper, electronic device).</b><br><br>It is <u>very important</u> to our experiment to have a <b>true</b> view of your real performance.<br><br>Do not worry if you miss some when it gets hard! This task is meant to be very challenging!<br><br>Click the button to begin.</div><br><br><br><br>",0,ospan,starting_real_here,kGS0hfxmEOdhwlUo3sBoTsiGdqF3,html-button-response,100,828199,0.0-46.0-2.0-3.0,,,,,,,,,,,,,,,54258078fdf99b691fb3858e,09:17:57,03/04/2024
,"<p style=""font-size:75px;"">...</p>",,ospan,iti,kGS0hfxmEOdhwlUo3sBoTsiGdqF3,html-keyboard-response,101,829452,0.0-46.0-3.0-0.0-0.0,,,,,,,,,,,,,,,54258078fdf99b691fb3858e,09:17:57,03/04/2024
1089.0,,,ospan,symmetry,kGS0hfxmEOdhwlUo3sBoTsiGdqF3,symmetry-judgement-task,102,832200,0.0-46.0-3.0-0.0-1.0-0.0,,,,,,,,,,1.0,1.0,,,,54258078fdf99b691fb3858e,09:17:57,03/04/2024
,"<div style=""font-size: 10rem; color: #0000FF"">P</div>",,ospan,letter,kGS0hfxmEOdhwlUo3sBoTsiGdqF3,html-keyboard-response,103,833202,0.0-46.0-3.0-0.0-1.0-1.0,,,,,,,,,,,,,,,54258078fdf99b691fb3858e,09:17:57,03/04/2024
1183.0,,,ospan,symmetry,kGS0hfxmEOdhwlUo3sBoTsiGdqF3,symmetry-judgement-task,104,836759,0.0-46.0-3.0-0.0-1.0-2.0,,,,,,,,,,1.0,1.0,,,,54258078fdf99b691fb3858e,09:17:57,03/04/2024
,"<div style=""font-size: 10rem; color: #0000FF"">L</div>",,ospan,letter,kGS0hfxmEOdhwlUo3sBoTsiGdqF3,html-keyboard-response,105,837762,0.0-46.0-3.0-0.0-1.0-3.0,,,,,,,,,,,,,,,54258078fdf99b691fb3858e,09:17:57,03/04/2024
936.0,,,ospan,symmetry,kGS0hfxmEOdhwlUo3sBoTsiGdqF3,symmetry-judgement-task,106,841095,0.0-46.0-3.0-0.0-1.0-4.0,,,,,,,,,,1.0,1.0,,,,54258078fdf99b691fb3858e,09:17:57,03/04/2024
,"<div style=""font-size: 10rem; color: #0000FF"">Q</div>",,ospan,letter,kGS0hfxmEOdhwlUo3sBoTsiGdqF3,html-keyboard-response,107,842096,0.0-46.0-3.0-0.0-1.0-5.0,,,,,,,,,,,,,,,54258078fdf99b691fb3858e,09:17:57,03/04/2024
4025.0,"<div class = numbox><p style=""font-size: 2.4rem"">Please recall the letters you saw to the best of your ability. If you do not remember a particular letter, use the SKIP button.<br><b>(When you are ready to lock in your answer, press ENTER)</b></p><button id = button_1 class = ""square num-button"" onclick = ""recordClick(this)""><div class = content><div class = numbers>C</div></div></button><button id = button_2 class = ""square num-button"" onclick = ""recordClick(this)""><div class = content><div class = numbers>G</div></div></button><button id = button_3 class = ""square num-button"" onclick = ""recordClick(this)""><div class = content><div class = numbers>H</div></div></button><button id = button_4 class = ""square num-button"" onclick = ""recordClick(this)""><div class = content><div class = numbers>J</div></div></button><button id = button_5 class = ""square num-button"" onclick = ""recordClick(this)""><div class = content><div class = numbers>K</div></div></button><button id = button_6 class = ""square num-button"" onclick = ""recordClick(this)""><div class = content><div class = numbers>L</div></div></button><button id = button_7 class = ""square num-button"" onclick = ""recordClick(this)""><div class = content><div class = numbers>N</div></div></button><button id = button_8 class = ""square num-button"" onclick = ""recordClick(this)""><div class = content><div class = numbers>P</div></div></button><button id = button_9 class = ""square num-button"" onclick = ""recordClick(this)""><div class = content><div class = numbers>Q</div></div></button><button id = button_10 class = ""square num-button"" onclick = ""recordClick(this)""><div class = content><div class = numbers>R</div></div></button><button id = button_11 class = ""square num-button"" onclick = ""recordClick(this)""><div class = content><div class = numbers>S</div></div></button><button id = button_12 class = ""square num-button"" onclick = ""recordClick(this)""><div class = content><div class = numbers>Y</div></div></button><button class = clear_button id = ""ClearButton"" onclick = ""clearResponse()"">BACKSPACE</button><button class = blank_button id = ""BlankButton"" onclick = ""blankResponse()"">SKIP</button><p style=""font-size: 2.4rem""><u><b>Current Answer:</b></u></p><br><br><div id=echoed_txt style=""font-size: 5rem; color:blue;""><b></b></div></div>",enter,ospan,retrieval,kGS0hfxmEOdhwlUo3sBoTsiGdqF3,html-keyboard-response,108,846873,0.0-46.0-3.0-0.0-2.0,3,3,3,3.0,"[""P"",""L"",""Q""]","[""P"",""L"",""Q""]",1.0,3.0,,,,,,,54258078fdf99b691fb3858e,09:17:57,03/04/2024
1341.0,[''],0,ospan,feedback,kGS0hfxmEOdhwlUo3sBoTsiGdqF3,html-button-response,109,848719,0.0-46.0-3.0-0.0-3.0,,,,,,,,,,,,100.0,0.0,,54258078fdf99b691fb3858e,09:17:57,03/04/2024
,"<p style=""font-size:75px;"">...</p>",,ospan,iti,kGS0hfxmEOdhwlUo3sBoTsiGdqF3,html-keyboard-response,110,849721,0.0-46.0-4.0-0.0-0.0,,,,,,,,,,,,,,,54258078fdf99b691fb3858e,09:17:57,03/04/2024
1149.0,,,ospan,symmetry,kGS0hfxmEOdhwlUo3sBoTsiGdqF3,symmetry-judgement-task,111,852474,0.0-46.0-4.0-0.0-1.0-0.0,,,,,,,,,,1.0,1.0,,,,54258078fdf99b691fb3858e,09:17:57,03/04/2024
,"<div style=""font-size: 10rem; color: #0000FF"">R</div>",,ospan,letter,kGS0hfxmEOdhwlUo3sBoTsiGdqF3,html-keyboard-response,112,853476,0.0-46.0-4.0-0.0-1.0-1.0,,,,,,,,,,,,,,,54258078fdf99b691fb3858e,09:17:57,03/04/2024
891.0,,,ospan,symmetry,kGS0hfxmEOdhwlUo3sBoTsiGdqF3,symmetry-judgement-task,113,856736,0.0-46.0-4.0-0.0-1.0-2.0,,,,,,,,,,1.0,1.0,,,,54258078fdf99b691fb3858e,09:17:57,03/04/2024
,"<div style=""font-size: 10rem; color: #0000FF"">K</div>",,ospan,letter,kGS0hfxmEOdhwlUo3sBoTsiGdqF3,html-keyboard-response,114,857737,0.0-46.0-4.0-0.0-1.0-3.0,,,,,,,,,,,,,,,54258078fdf99b691fb3858e,09:17:57,03/04/2024
913.0,,,ospan,symmetry,kGS0hfxmEOdhwlUo3sBoTsiGdqF3,symmetry-judgement-task,115,861063,0.0-46.0-4.0-0.0-1.0-4.0,,,,,,,,,,1.0,1.0,,,,54258078fdf99b691fb3858e,09:17:57,03/04/2024
,"<div style=""font-size: 10rem; color: #0000FF"">Q</div>",,ospan,letter,kGS0hfxmEOdhwlUo3sBoTsiGdqF3,html-keyboard-response,116,862063,0.0-46.0-4.0-0.0-1.0-5.0,,,,,,,,,,,,,,,54258078fdf99b691fb3858e,09:17:57,03/04/2024
1374.0,,,ospan,symmetry,kGS0hfxmEOdhwlUo3sBoTsiGdqF3,symmetry-judgement-task,117,865799,0.0-46.0-4.0-0.0-1.0-6.0,,,,,,,,,,1.0,1.0,,,,54258078fdf99b691fb3858e,09:17:57,03/04/2024
,"<div style=""font-size: 10rem; color: #0000FF"">N</div>",,ospan,letter,kGS0hfxmEOdhwlUo3sBoTsiGdqF3,html-keyboard-response,118,866802,0.0-46.0-4.0-0.0-1.0-7.0,,,,,,,,,,,,,,,54258078fdf99b691fb3858e,09:17:57,03/04/2024
4644.0,"<div class = numbox><p style=""font-size: 2.4rem"">Please recall the letters you saw to the best of your ability. If you do not remember a particular letter, use the SKIP button.<br><b>(When you are ready to lock in your answer, press ENTER)</b></p><button id = button_1 class = ""square num-button"" onclick = ""recordClick(this)""><div class = content><div class = numbers>C</div></div></button><button id = button_2 class = ""square num-button"" onclick = ""recordClick(this)""><div class = content><div class = numbers>G</div></div></button><button id = button_3 class = ""square num-button"" onclick = ""recordClick(this)""><div class = content><div class = numbers>H</div></div></button><button id = button_4 class = ""square num-button"" onclick = ""recordClick(this)""><div class = content><div class = numbers>J</div></div></button><button id = button_5 class = ""square num-button"" onclick = ""recordClick(this)""><div class = content><div class = numbers>K</div></div></button><button id = button_6 class = ""square num-button"" onclick = ""recordClick(this)""><div class = content><div class = numbers>L</div></div></button><button id = button_7 class = ""square num-button"" onclick = ""recordClick(this)""><div class = content><div class = numbers>N</div></div></button><button id = button_8 class = ""square num-button"" onclick = ""recordClick(this)""><div class = content><div class = numbers>P</div></div></button><button id = button_9 class = ""square num-button"" onclick = ""recordClick(this)""><div class = content><div class = numbers>Q</div></div></button><button id = button_10 class = ""square num-button"" onclick = ""recordClick(this)""><div class = content><div class = numbers>R</div></div></button><button id = button_11 class = ""square num-button"" onclick = ""recordClick(this)""><div class = content><div class = numbers>S</div></div></button><button id = button_12 class = ""square num-button"" onclick = ""recordClick(this)""><div class = content><div class = numbers>Y</div></div></button><button class = clear_button id = ""ClearButton"" onclick = ""clearResponse()"">BACKSPACE</button><button class = blank_button id = ""BlankButton"" onclick = ""blankResponse()"">SKIP</button><p style=""font-size: 2.4rem""><u><b>Current Answer:</b></u></p><br><br><div id=echoed_txt style=""font-size: 5rem; color:blue;""><b></b></div></div>",enter,ospan,retrieval,kGS0hfxmEOdhwlUo3sBoTsiGdqF3,html-keyboard-response,119,872199,0.0-46.0-4.0-0.0-2.0,7,7,7,4.0,"[""R"",""K"",""Q"",""N""]","[""R"",""K"",""Q"",""N""]",1.0,4.0,,,,,,,54258078fdf99b691fb3858e,09:17:57,03/04/2024
866.0,[''],0,ospan,feedback,kGS0hfxmEOdhwlUo3sBoTsiGdqF3,html-button-response,120,873566,0.0-46.0-4.0-0.0-3.0,,,,,,,,,,,,100.0,0.0,,54258078fdf99b691fb3858e,09:17:57,03/04/2024
,"<p style=""font-size:75px;"">...</p>",,ospan,iti,kGS0hfxmEOdhwlUo3sBoTsiGdqF3,html-keyboard-response,121,874568,0.0-46.0-4.0-1.0-0.0,,,,,,,,,,,,,,,54258078fdf99b691fb3858e,09:17:57,03/04/2024
989.0,,,ospan,symmetry,kGS0hfxmEOdhwlUo3sBoTsiGdqF3,symmetry-judgement-task,122,877177,0.0-46.0-4.0-1.0-1.0-0.0,,,,,,,,,,1.0,1.0,,,,54258078fdf99b691fb3858e,09:17:57,03/04/2024
,"<div style=""font-size: 10rem; color: #0000FF"">G</div>",,ospan,letter,kGS0hfxmEOdhwlUo3sBoTsiGdqF3,html-keyboard-response,123,878178,0.0-46.0-4.0-1.0-1.0-1.0,,,,,,,,,,,,,,,54258078fdf99b691fb3858e,09:17:57,03/04/2024
721.0,,,ospan,symmetry,kGS0hfxmEOdhwlUo3sBoTsiGdqF3,symmetry-judgement-task,124,881528,0.0-46.0-4.0-1.0-1.0-2.0,,,,,,,,,,1.0,1.0,,,,54258078fdf99b691fb3858e,09:17:57,03/04/2024
,"<div style=""font-size: 10rem; color: #0000FF"">Y</div>",,ospan,letter,kGS0hfxmEOdhwlUo3sBoTsiGdqF3,html-keyboard-response,125,882529,0.0-46.0-4.0-1.0-1.0-3.0,,,,,,,,,,,,,,,54258078fdf99b691fb3858e,09:17:57,03/04/2024
983.0,,,ospan,symmetry,kGS0hfxmEOdhwlUo3sBoTsiGdqF3,symmetry-judgement-task,126,885920,0.0-46.0-4.0-1.0-1.0-4.0,,,,,,,,,,1.0,1.0,,,,54258078fdf99b691fb3858e,09:17:57,03/04/2024
,"<div style=""font-size: 10rem; color: #0000FF"">S</div>",,ospan,letter,kGS0hfxmEOdhwlUo3sBoTsiGdqF3,html-keyboard-response,127,886922,0.0-46.0-4.0-1.0-1.0-5.0,,,,,,,,,,,,,,,54258078fdf99b691fb3858e,09:17:57,03/04/2024
1205.0,,,ospan,symmetry,kGS0hfxmEOdhwlUo3sBoTsiGdqF3,symmetry-judgement-task,128,890839,0.0-46.0-4.0-1.0-1.0-6.0,,,,,,,,,,1.0,1.0,,,,54258078fdf99b691fb3858e,09:17:57,03/04/2024
,"<div style=""font-size: 10rem; color: #0000FF"">Q</div>",,ospan,letter,kGS0hfxmEOdhwlUo3sBoTsiGdqF3,html-keyboard-response,129,891840,0.0-46.0-4.0-1.0-1.0-7.0,,,,,,,,,,,,,,,54258078fdf99b691fb3858e,09:17:57,03/04/2024
1069.0,,,ospan,symmetry,kGS0hfxmEOdhwlUo3sBoTsiGdqF3,symmetry-judgement-task,130,895360,0.0-46.0-4.0-1.0-1.0-8.0,,,,,,,,,,1.0,1.0,,,,54258078fdf99b691fb3858e,09:17:57,03/04/2024
,"<div style=""font-size: 10rem; color: #0000FF"">L</div>",,ospan,letter,kGS0hfxmEOdhwlUo3sBoTsiGdqF3,html-keyboard-response,131,896361,0.0-46.0-4.0-1.0-1.0-9.0,,,,,,,,,,,,,,,54258078fdf99b691fb3858e,09:17:57,03/04/2024
4544.0,"<div class = numbox><p style=""font-size: 2.4rem"">Please recall the letters you saw to the best of your ability. If you do not remember a particular letter, use the SKIP button.<br><b>(When you are ready to lock in your answer, press ENTER)</b></p><button id = button_1 class = ""square num-button"" onclick = ""recordClick(this)""><div class = content><div class = numbers>C</div></div></button><button id = button_2 class = ""square num-button"" onclick = ""recordClick(this)""><div class = content><div class = numbers>G</div></div></button><button id = button_3 class = ""square num-button"" onclick = ""recordClick(this)""><div class = content><div class = numbers>H</div></div></button><button id = button_4 class = ""square num-button"" onclick = ""recordClick(this)""><div class = content><div class = numbers>J</div></div></button><button id = button_5 class = ""square num-button"" onclick = ""recordClick(this)""><div class = content><div class = numbers>K</div></div></button><button id = button_6 class = ""square num-button"" onclick = ""recordClick(this)""><div class = content><div class = numbers>L</div></div></button><button id = button_7 class = ""square num-button"" onclick = ""recordClick(this)""><div class = content><div class = numbers>N</div></div></button><button id = button_8 class = ""square num-button"" onclick = ""recordClick(this)""><div class = content><div class = numbers>P</div></div></button><button id = button_9 class = ""square num-button"" onclick = ""recordClick(this)""><div class = content><div class = numbers>Q</div></div></button><button id = button_10 class = ""square num-button"" onclick = ""recordClick(this)""><div class = content><div class = numbers>R</div></div></button><button id = button_11 class = ""square num-button"" onclick = ""recordClick(this)""><div class = content><div class = numbers>S</div></div></button><button id = button_12 class = ""square num-button"" onclick = ""recordClick(this)""><div class = content><div class = numbers>Y</div></div></button><button class = clear_button id = ""ClearButton"" onclick = ""clearResponse()"">BACKSPACE</button><button class = blank_button id = ""BlankButton"" onclick = ""blankResponse()"">SKIP</button><p style=""font-size: 2.4rem""><u><b>Current Answer:</b></u></p><br><br><div id=echoed_txt style=""font-size: 5rem; color:blue;""><b></b></div></div>",enter,ospan,retrieval,kGS0hfxmEOdhwlUo3sBoTsiGdqF3,html-keyboard-response,132,901659,0.0-46.0-4.0-1.0-2.0,12,12,12,5.0,"[""G"",""Y"",""S"",""Q"",""L""]","[""G"",""Y"",""S"",""Q"",""L""]",1.0,5.0,,,,,,,54258078fdf99b691fb3858e,09:17:57,03/04/2024
853.0,[''],0,ospan,feedback,kGS0hfxmEOdhwlUo3sBoTsiGdqF3,html-button-response,133,903013,0.0-46.0-4.0-1.0-3.0,,,,,,,,,,,,100.0,0.0,,54258078fdf99b691fb3858e,09:17:57,03/04/2024
,"<p style=""font-size:75px;"">...</p>",,ospan,iti,kGS0hfxmEOdhwlUo3sBoTsiGdqF3,html-keyboard-response,134,904018,0.0-46.0-4.0-2.0-0.0,,,,,,,,,,,,,,,54258078fdf99b691fb3858e,09:17:57,03/04/2024
1540.0,,,ospan,symmetry,kGS0hfxmEOdhwlUo3sBoTsiGdqF3,symmetry-judgement-task,135,907214,0.0-46.0-4.0-2.0-1.0-0.0,,,,,,,,,,1.0,1.0,,,,54258078fdf99b691fb3858e,09:17:57,03/04/2024
,"<div style=""font-size: 10rem; color: #0000FF"">R</div>",,ospan,letter,kGS0hfxmEOdhwlUo3sBoTsiGdqF3,html-keyboard-response,136,908214,0.0-46.0-4.0-2.0-1.0-1.0,,,,,,,,,,,,,,,54258078fdf99b691fb3858e,09:17:57,03/04/2024
943.0,,,ospan,symmetry,kGS0hfxmEOdhwlUo3sBoTsiGdqF3,symmetry-judgement-task,137,911594,0.0-46.0-4.0-2.0-1.0-2.0,,,,,,,,,,1.0,1.0,,,,54258078fdf99b691fb3858e,09:17:57,03/04/2024
,"<div style=""font-size: 10rem; color: #0000FF"">G</div>",,ospan,letter,kGS0hfxmEOdhwlUo3sBoTsiGdqF3,html-keyboard-response,138,912596,0.0-46.0-4.0-2.0-1.0-3.0,,,,,,,,,,,,,,,54258078fdf99b691fb3858e,09:17:57,03/04/2024
935.0,,,ospan,symmetry,kGS0hfxmEOdhwlUo3sBoTsiGdqF3,symmetry-judgement-task,139,915967,0.0-46.0-4.0-2.0-1.0-4.0,,,,,,,,,,1.0,1.0,,,,54258078fdf99b691fb3858e,09:17:57,03/04/2024
,"<div style=""font-size: 10rem; color: #0000FF"">J</div>",,ospan,letter,kGS0hfxmEOdhwlUo3sBoTsiGdqF3,html-keyboard-response,140,916968,0.0-46.0-4.0-2.0-1.0-5.0,,,,,,,,,,,,,,,54258078fdf99b691fb3858e,09:17:57,03/04/2024
3682.0,"<div class = numbox><p style=""font-size: 2.4rem"">Please recall the letters you saw to the best of your ability. If you do not remember a particular letter, use the SKIP button.<br><b>(When you are ready to lock in your answer, press ENTER)</b></p><button id = button_1 class = ""square num-button"" onclick = ""recordClick(this)""><div class = content><div class = numbers>C</div></div></button><button id = button_2 class = ""square num-button"" onclick = ""recordClick(this)""><div class = content><div class = numbers>G</div></div></button><button id = button_3 class = ""square num-button"" onclick = ""recordClick(this)""><div class = content><div class = numbers>H</div></div></button><button id = button_4 class = ""square num-button"" onclick = ""recordClick(this)""><div class = content><div class = numbers>J</div></div></button><button id = button_5 class = ""square num-button"" onclick = ""recordClick(this)""><div class = content><div class = numbers>K</div></div></button><button id = button_6 class = ""square num-button"" onclick = ""recordClick(this)""><div class = content><div class = numbers>L</div></div></button><button id = button_7 class = ""square num-button"" onclick = ""recordClick(this)""><div class = content><div class = numbers>N</div></div></button><button id = button_8 class = ""square num-button"" onclick = ""recordClick(this)""><div class = content><div class = numbers>P</div></div></button><button id = button_9 class = ""square num-button"" onclick = ""recordClick(this)""><div class = content><div class = numbers>Q</div></div></button><button id = button_10 class = ""square num-button"" onclick = ""recordClick(this)""><div class = content><div class = numbers>R</div></div></button><button id = button_11 class = ""square num-button"" onclick = ""recordClick(this)""><div class = content><div class = numbers>S</div></div></button><button id = button_12 class = ""square num-button"" onclick = ""recordClick(this)""><div class = content><div class = numbers>Y</div></div></button><button class = clear_button id = ""ClearButton"" onclick = ""clearResponse()"">BACKSPACE</button><button class = blank_button id = ""BlankButton"" onclick = ""blankResponse()"">SKIP</button><p style=""font-size: 2.4rem""><u><b>Current Answer:</b></u></p><br><br><div id=echoed_txt style=""font-size: 5rem; color:blue;""><b></b></div></div>",enter,ospan,retrieval,kGS0hfxmEOdhwlUo3sBoTsiGdqF3,html-keyboard-response,141,921402,0.0-46.0-4.0-2.0-2.0,15,15,15,3.0,"[""R"",""G"",""J""]","[""R"",""G"",""J""]",1.0,3.0,,,,,,,54258078fdf99b691fb3858e,09:17:57,03/04/2024
580.0,[''],0,ospan,feedback,kGS0hfxmEOdhwlUo3sBoTsiGdqF3,html-button-response,142,922486,0.0-46.0-4.0-2.0-3.0,,,,,,,,,,,,100.0,0.0,,54258078fdf99b691fb3858e,09:17:57,03/04/2024
,"<p style=""font-size:75px;"">...</p>",,ospan,iti,kGS0hfxmEOdhwlUo3sBoTsiGdqF3,html-keyboard-response,143,923488,0.0-46.0-5.0-0.0-0.0,,,,,,,,,,,,,,,54258078fdf99b691fb3858e,09:17:57,03/04/2024
1130.0,,,ospan,symmetry,kGS0hfxmEOdhwlUo3sBoTsiGdqF3,symmetry-judgement-task,144,926256,0.0-46.0-5.0-0.0-1.0-0.0,,,,,,,,,,1.0,1.0,,,,54258078fdf99b691fb3858e,09:17:57,03/04/2024
,"<div style=""font-size: 10rem; color: #0000FF"">S</div>",,ospan,letter,kGS0hfxmEOdhwlUo3sBoTsiGdqF3,html-keyboard-response,145,927258,0.0-46.0-5.0-0.0-1.0-1.0,,,,,,,,,,,,,,,54258078fdf99b691fb3858e,09:17:57,03/04/2024
898.0,,,ospan,symmetry,kGS0hfxmEOdhwlUo3sBoTsiGdqF3,symmetry-judgement-task,146,930590,0.0-46.0-5.0-0.0-1.0-2.0,,,,,,,,,,1.0,1.0,,,,54258078fdf99b691fb3858e,09:17:57,03/04/2024
,"<div style=""font-size: 10rem; color: #0000FF"">Y</div>",,ospan,letter,kGS0hfxmEOdhwlUo3sBoTsiGdqF3,html-keyboard-response,147,931592,0.0-46.0-5.0-0.0-1.0-3.0,,,,,,,,,,,,,,,54258078fdf99b691fb3858e,09:17:57,03/04/2024
1140.0,,,ospan,symmetry,kGS0hfxmEOdhwlUo3sBoTsiGdqF3,symmetry-judgement-task,148,935135,0.0-46.0-5.0-0.0-1.0-4.0,,,,,,,,,,1.0,1.0,,,,54258078fdf99b691fb3858e,09:17:57,03/04/2024
,"<div style=""font-size: 10rem; color: #0000FF"">H</div>",,ospan,letter,kGS0hfxmEOdhwlUo3sBoTsiGdqF3,html-keyboard-response,149,936137,0.0-46.0-5.0-0.0-1.0-5.0,,,,,,,,,,,,,,,54258078fdf99b691fb3858e,09:17:57,03/04/2024
892.0,,,ospan,symmetry,kGS0hfxmEOdhwlUo3sBoTsiGdqF3,symmetry-judgement-task,150,939398,0.0-46.0-5.0-0.0-1.0-6.0,,,,,,,,,,1.0,1.0,,,,54258078fdf99b691fb3858e,09:17:57,03/04/2024
,"<div style=""font-size: 10rem; color: #0000FF"">R</div>",,ospan,letter,kGS0hfxmEOdhwlUo3sBoTsiGdqF3,html-keyboard-response,151,940399,0.0-46.0-5.0-0.0-1.0-7.0,,,,,,,,,,,,,,,54258078fdf99b691fb3858e,09:17:57,03/04/2024
974.0,,,ospan,symmetry,kGS0hfxmEOdhwlUo3sBoTsiGdqF3,symmetry-judgement-task,152,943785,0.0-46.0-5.0-0.0-1.0-8.0,,,,,,,,,,1.0,1.0,,,,54258078fdf99b691fb3858e,09:17:57,03/04/2024
,"<div style=""font-size: 10rem; color: #0000FF"">G</div>",,ospan,letter,kGS0hfxmEOdhwlUo3sBoTsiGdqF3,html-keyboard-response,153,944787,0.0-46.0-5.0-0.0-1.0-9.0,,,,,,,,,,,,,,,54258078fdf99b691fb3858e,09:17:57,03/04/2024
828.0,,,ospan,symmetry,kGS0hfxmEOdhwlUo3sBoTsiGdqF3,symmetry-judgement-task,154,948048,0.0-46.0-5.0-0.0-1.0-10.0,,,,,,,,,,1.0,1.0,,,,54258078fdf99b691fb3858e,09:17:57,03/04/2024
,"<div style=""font-size: 10rem; color: #0000FF"">K</div>",,ospan,letter,kGS0hfxmEOdhwlUo3sBoTsiGdqF3,html-keyboard-response,155,949049,0.0-46.0-5.0-0.0-1.0-11.0,,,,,,,,,,,,,,,54258078fdf99b691fb3858e,09:17:57,03/04/2024
5607.0,"<div class = numbox><p style=""font-size: 2.4rem"">Please recall the letters you saw to the best of your ability. If you do not remember a particular letter, use the SKIP button.<br><b>(When you are ready to lock in your answer, press ENTER)</b></p><button id = button_1 class = ""square num-button"" onclick = ""recordClick(this)""><div class = content><div class = numbers>C</div></div></button><button id = button_2 class = ""square num-button"" onclick = ""recordClick(this)""><div class = content><div class = numbers>G</div></div></button><button id = button_3 class = ""square num-button"" onclick = ""recordClick(this)""><div class = content><div class = numbers>H</div></div></button><button id = button_4 class = ""square num-button"" onclick = ""recordClick(this)""><div class = content><div class = numbers>J</div></div></button><button id = button_5 class = ""square num-button"" onclick = ""recordClick(this)""><div class = content><div class = numbers>K</div></div></button><button id = button_6 class = ""square num-button"" onclick = ""recordClick(this)""><div class = content><div class = numbers>L</div></div></button><button id = button_7 class = ""square num-button"" onclick = ""recordClick(this)""><div class = content><div class = numbers>N</div></div></button><button id = button_8 class = ""square num-button"" onclick = ""recordClick(this)""><div class = content><div class = numbers>P</div></div></button><button id = button_9 class = ""square num-button"" onclick = ""recordClick(this)""><div class = content><div class = numbers>Q</div></div></button><button id = button_10 class = ""square num-button"" onclick = ""recordClick(this)""><div class = content><div class = numbers>R</div></div></button><button id = button_11 class = ""square num-button"" onclick = ""recordClick(this)""><div class = content><div class = numbers>S</div></div></button><button id = button_12 class = ""square num-button"" onclick = ""recordClick(this)""><div class = content><div class = numbers>Y</div></div></button><button class = clear_button id = ""ClearButton"" onclick = ""clearResponse()"">BACKSPACE</button><button class = blank_button id = ""BlankButton"" onclick = ""blankResponse()"">SKIP</button><p style=""font-size: 2.4rem""><u><b>Current Answer:</b></u></p><br><br><div id=echoed_txt style=""font-size: 5rem; color:blue;""><b></b></div></div>",enter,ospan,retrieval,kGS0hfxmEOdhwlUo3sBoTsiGdqF3,html-keyboard-response,156,955407,0.0-46.0-5.0-0.0-2.0,21,21,21,6.0,"[""S"",""Y"",""H"",""R"",""G"",""K""]","[""S"",""Y"",""H"",""R"",""G"",""K""]",1.0,6.0,,,,,,,54258078fdf99b691fb3858e,09:17:57,03/04/2024
832.0,[''],0,ospan,feedback,kGS0hfxmEOdhwlUo3sBoTsiGdqF3,html-button-response,157,956743,0.0-46.0-5.0-0.0-3.0,,,,,,,,,,,,100.0,0.0,,54258078fdf99b691fb3858e,09:17:57,03/04/2024
,"<p style=""font-size:75px;"">...</p>",,ospan,iti,kGS0hfxmEOdhwlUo3sBoTsiGdqF3,html-keyboard-response,158,957745,0.0-46.0-5.0-1.0-0.0,,,,,,,,,,,,,,,54258078fdf99b691fb3858e,09:17:57,03/04/2024
948.0,,,ospan,symmetry,kGS0hfxmEOdhwlUo3sBoTsiGdqF3,symmetry-judgement-task,159,960384,0.0-46.0-5.0-1.0-1.0-0.0,,,,,,,,,,1.0,1.0,,,,54258078fdf99b691fb3858e,09:17:57,03/04/2024
,"<div style=""font-size: 10rem; color: #0000FF"">Q</div>",,ospan,letter,kGS0hfxmEOdhwlUo3sBoTsiGdqF3,html-keyboard-response,160,961385,0.0-46.0-5.0-1.0-1.0-1.0,,,,,,,,,,,,,,,54258078fdf99b691fb3858e,09:17:57,03/04/2024
1105.0,,,ospan,symmetry,kGS0hfxmEOdhwlUo3sBoTsiGdqF3,symmetry-judgement-task,161,964895,0.0-46.0-5.0-1.0-1.0-2.0,,,,,,,,,,1.0,1.0,,,,54258078fdf99b691fb3858e,09:17:57,03/04/2024
,"<div style=""font-size: 10rem; color: #0000FF"">L</div>",,ospan,letter,kGS0hfxmEOdhwlUo3sBoTsiGdqF3,html-keyboard-response,162,965897,0.0-46.0-5.0-1.0-1.0-3.0,,,,,,,,,,,,,,,54258078fdf99b691fb3858e,09:17:57,03/04/2024
1142.0,,,ospan,symmetry,kGS0hfxmEOdhwlUo3sBoTsiGdqF3,symmetry-judgement-task,163,969480,0.0-46.0-5.0-1.0-1.0-4.0,,,,,,,,,,1.0,1.0,,,,54258078fdf99b691fb3858e,09:17:57,03/04/2024
,"<div style=""font-size: 10rem; color: #0000FF"">N</div>",,ospan,letter,kGS0hfxmEOdhwlUo3sBoTsiGdqF3,html-keyboard-response,164,970482,0.0-46.0-5.0-1.0-1.0-5.0,,,,,,,,,,,,,,,54258078fdf99b691fb3858e,09:17:57,03/04/2024
991.0,,,ospan,symmetry,kGS0hfxmEOdhwlUo3sBoTsiGdqF3,symmetry-judgement-task,165,973863,0.0-46.0-5.0-1.0-1.0-6.0,,,,,,,,,,1.0,1.0,,,,54258078fdf99b691fb3858e,09:17:57,03/04/2024
,"<div style=""font-size: 10rem; color: #0000FF"">S</div>",,ospan,letter,kGS0hfxmEOdhwlUo3sBoTsiGdqF3,html-keyboard-response,166,974864,0.0-46.0-5.0-1.0-1.0-7.0,,,,,,,,,,,,,,,54258078fdf99b691fb3858e,09:17:57,03/04/2024
1052.0,,,ospan,symmetry,kGS0hfxmEOdhwlUo3sBoTsiGdqF3,symmetry-judgement-task,167,978360,0.0-46.0-5.0-1.0-1.0-8.0,,,,,,,,,,0.0,0.0,,,,54258078fdf99b691fb3858e,09:17:57,03/04/2024
,"<div style=""font-size: 10rem; color: #0000FF"">P</div>",,ospan,letter,kGS0hfxmEOdhwlUo3sBoTsiGdqF3,html-keyboard-response,168,979363,0.0-46.0-5.0-1.0-1.0-9.0,,,,,,,,,,,,,,,54258078fdf99b691fb3858e,09:17:57,03/04/2024
1084.0,,,ospan,symmetry,kGS0hfxmEOdhwlUo3sBoTsiGdqF3,symmetry-judgement-task,169,982895,0.0-46.0-5.0-1.0-1.0-10.0,,,,,,,,,,0.0,0.0,,,,54258078fdf99b691fb3858e,09:17:57,03/04/2024
,"<div style=""font-size: 10rem; color: #0000FF"">C</div>",,ospan,letter,kGS0hfxmEOdhwlUo3sBoTsiGdqF3,html-keyboard-response,170,983898,0.0-46.0-5.0-1.0-1.0-11.0,,,,,,,,,,,,,,,54258078fdf99b691fb3858e,09:17:57,03/04/2024
1098.0,,,ospan,symmetry,kGS0hfxmEOdhwlUo3sBoTsiGdqF3,symmetry-judgement-task,171,987425,0.0-46.0-5.0-1.0-1.0-12.0,,,,,,,,,,1.0,1.0,,,,54258078fdf99b691fb3858e,09:17:57,03/04/2024
,"<div style=""font-size: 10rem; color: #0000FF"">J</div>",,ospan,letter,kGS0hfxmEOdhwlUo3sBoTsiGdqF3,html-keyboard-response,172,988426,0.0-46.0-5.0-1.0-1.0-13.0,,,,,,,,,,,,,,,54258078fdf99b691fb3858e,09:17:57,03/04/2024
7923.0,"<div class = numbox><p style=""font-size: 2.4rem"">Please recall the letters you saw to the best of your ability. If you do not remember a particular letter, use the SKIP button.<br><b>(When you are ready to lock in your answer, press ENTER)</b></p><button id = button_1 class = ""square num-button"" onclick = ""recordClick(this)""><div class = content><div class = numbers>C</div></div></button><button id = button_2 class = ""square num-button"" onclick = ""recordClick(this)""><div class = content><div class = numbers>G</div></div></button><button id = button_3 class = ""square num-button"" onclick = ""recordClick(this)""><div class = content><div class = numbers>H</div></div></button><button id = button_4 class = ""square num-button"" onclick = ""recordClick(this)""><div class = content><div class = numbers>J</div></div></button><button id = button_5 class = ""square num-button"" onclick = ""recordClick(this)""><div class = content><div class = numbers>K</div></div></button><button id = button_6 class = ""square num-button"" onclick = ""recordClick(this)""><div class = content><div class = numbers>L</div></div></button><button id = button_7 class = ""square num-button"" onclick = ""recordClick(this)""><div class = content><div class = numbers>N</div></div></button><button id = button_8 class = ""square num-button"" onclick = ""recordClick(this)""><div class = content><div class = numbers>P</div></div></button><button id = button_9 class = ""square num-button"" onclick = ""recordClick(this)""><div class = content><div class = numbers>Q</div></div></button><button id = button_10 class = ""square num-button"" onclick = ""recordClick(this)""><div class = content><div class = numbers>R</div></div></button><button id = button_11 class = ""square num-button"" onclick = ""recordClick(this)""><div class = content><div class = numbers>S</div></div></button><button id = button_12 class = ""square num-button"" onclick = ""recordClick(this)""><div class = content><div class = numbers>Y</div></div></button><button class = clear_button id = ""ClearButton"" onclick = ""clearResponse()"">BACKSPACE</button><button class = blank_button id = ""BlankButton"" onclick = ""blankResponse()"">SKIP</button><p style=""font-size: 2.4rem""><u><b>Current Answer:</b></u></p><br><br><div id=echoed_txt style=""font-size: 5rem; color:blue;""><b></b></div></div>",enter,ospan,retrieval,kGS0hfxmEOdhwlUo3sBoTsiGdqF3,html-keyboard-response,173,997100,0.0-46.0-5.0-1.0-2.0,28,23,21,7.0,"[""Q"",""R"",""L"",""S"",""N"",""H""]","[""Q"",""L"",""N"",""S"",""P"",""C"",""J""]",0.0,2.0,,,,,,,54258078fdf99b691fb3858e,09:17:57,03/04/2024
724.0,[''],0,ospan,feedback,kGS0hfxmEOdhwlUo3sBoTsiGdqF3,html-button-response,174,998326,0.0-46.0-5.0-1.0-3.0,,,,,,,,,,,,93.0,0.0,,54258078fdf99b691fb3858e,09:17:57,03/04/2024
,"<p style=""font-size:75px;"">...</p>",,ospan,iti,kGS0hfxmEOdhwlUo3sBoTsiGdqF3,html-keyboard-response,175,999330,0.0-46.0-6.0-0.0-0.0,,,,,,,,,,,,,,,54258078fdf99b691fb3858e,09:17:57,03/04/2024
912.0,,,ospan,symmetry,kGS0hfxmEOdhwlUo3sBoTsiGdqF3,symmetry-judgement-task,176,1001950,0.0-46.0-6.0-0.0-1.0-0.0,,,,,,,,,,1.0,1.0,,,,54258078fdf99b691fb3858e,09:17:57,03/04/2024
,"<div style=""font-size: 10rem; color: #0000FF"">L</div>",,ospan,letter,kGS0hfxmEOdhwlUo3sBoTsiGdqF3,html-keyboard-response,177,1002952,0.0-46.0-6.0-0.0-1.0-1.0,,,,,,,,,,,,,,,54258078fdf99b691fb3858e,09:17:57,03/04/2024
867.0,,,ospan,symmetry,kGS0hfxmEOdhwlUo3sBoTsiGdqF3,symmetry-judgement-task,178,1006295,0.0-46.0-6.0-0.0-1.0-2.0,,,,,,,,,,1.0,1.0,,,,54258078fdf99b691fb3858e,09:17:57,03/04/2024
,"<div style=""font-size: 10rem; color: #0000FF"">Y</div>",,ospan,letter,kGS0hfxmEOdhwlUo3sBoTsiGdqF3,html-keyboard-response,179,1007296,0.0-46.0-6.0-0.0-1.0-3.0,,,,,,,,,,,,,,,54258078fdf99b691fb3858e,09:17:57,03/04/2024
1012.0,,,ospan,symmetry,kGS0hfxmEOdhwlUo3sBoTsiGdqF3,symmetry-judgement-task,180,1010760,0.0-46.0-6.0-0.0-1.0-4.0,,,,,,,,,,1.0,1.0,,,,54258078fdf99b691fb3858e,09:17:57,03/04/2024
,"<div style=""font-size: 10rem; color: #0000FF"">G</div>",,ospan,letter,kGS0hfxmEOdhwlUo3sBoTsiGdqF3,html-keyboard-response,181,1011761,0.0-46.0-6.0-0.0-1.0-5.0,,,,,,,,,,,,,,,54258078fdf99b691fb3858e,09:17:57,03/04/2024
854.0,,,ospan,symmetry,kGS0hfxmEOdhwlUo3sBoTsiGdqF3,symmetry-judgement-task,182,1015052,0.0-46.0-6.0-0.0-1.0-6.0,,,,,,,,,,1.0,1.0,,,,54258078fdf99b691fb3858e,09:17:57,03/04/2024
,"<div style=""font-size: 10rem; color: #0000FF"">S</div>",,ospan,letter,kGS0hfxmEOdhwlUo3sBoTsiGdqF3,html-keyboard-response,183,1016054,0.0-46.0-6.0-0.0-1.0-7.0,,,,,,,,,,,,,,,54258078fdf99b691fb3858e,09:17:57,03/04/2024
996.0,,,ospan,symmetry,kGS0hfxmEOdhwlUo3sBoTsiGdqF3,symmetry-judgement-task,184,1019488,0.0-46.0-6.0-0.0-1.0-8.0,,,,,,,,,,1.0,1.0,,,,54258078fdf99b691fb3858e,09:17:57,03/04/2024
,"<div style=""font-size: 10rem; color: #0000FF"">H</div>",,ospan,letter,kGS0hfxmEOdhwlUo3sBoTsiGdqF3,html-keyboard-response,185,1020490,0.0-46.0-6.0-0.0-1.0-9.0,,,,,,,,,,,,,,,54258078fdf99b691fb3858e,09:17:57,03/04/2024
6352.0,"<div class = numbox><p style=""font-size: 2.4rem"">Please recall the letters you saw to the best of your ability. If you do not remember a particular letter, use the SKIP button.<br><b>(When you are ready to lock in your answer, press ENTER)</b></p><button id = button_1 class = ""square num-button"" onclick = ""recordClick(this)""><div class = content><div class = numbers>C</div></div></button><button id = button_2 class = ""square num-button"" onclick = ""recordClick(this)""><div class = content><div class = numbers>G</div></div></button><button id = button_3 class = ""square num-button"" onclick = ""recordClick(this)""><div class = content><div class = numbers>H</div></div></button><button id = button_4 class = ""square num-button"" onclick = ""recordClick(this)""><div class = content><div class = numbers>J</div></div></button><button id = button_5 class = ""square num-button"" onclick = ""recordClick(this)""><div class = content><div class = numbers>K</div></div></button><button id = button_6 class = ""square num-button"" onclick = ""recordClick(this)""><div class = content><div class = numbers>L</div></div></button><button id = button_7 class = ""square num-button"" onclick = ""recordClick(this)""><div class = content><div class = numbers>N</div></div></button><button id = button_8 class = ""square num-button"" onclick = ""recordClick(this)""><div class = content><div class = numbers>P</div></div></button><button id = button_9 class = ""square num-button"" onclick = ""recordClick(this)""><div class = content><div class = numbers>Q</div></div></button><button id = button_10 class = ""square num-button"" onclick = ""recordClick(this)""><div class = content><div class = numbers>R</div></div></button><button id = button_11 class = ""square num-button"" onclick = ""recordClick(this)""><div class = content><div class = numbers>S</div></div></button><button id = button_12 class = ""square num-button"" onclick = ""recordClick(this)""><div class = content><div class = numbers>Y</div></div></button><button class = clear_button id = ""ClearButton"" onclick = ""clearResponse()"">BACKSPACE</button><button class = blank_button id = ""BlankButton"" onclick = ""blankResponse()"">SKIP</button><p style=""font-size: 2.4rem""><u><b>Current Answer:</b></u></p><br><br><div id=echoed_txt style=""font-size: 5rem; color:blue;""><b></b></div></div>",enter,ospan,retrieval,kGS0hfxmEOdhwlUo3sBoTsiGdqF3,html-keyboard-response,186,1027594,0.0-46.0-6.0-0.0-2.0,33,28,26,5.0,"[""L"",""Y"",""G"",""S"",""H""]","[""L"",""Y"",""G"",""S"",""H""]",1.0,5.0,,,,,,,54258078fdf99b691fb3858e,09:17:57,03/04/2024
533.0,[''],0,ospan,feedback,kGS0hfxmEOdhwlUo3sBoTsiGdqF3,html-button-response,187,1028631,0.0-46.0-6.0-0.0-3.0,,,,,,,,,,,,94.0,0.0,,54258078fdf99b691fb3858e,09:17:57,03/04/2024
,"<p style=""font-size:75px;"">...</p>",,ospan,iti,kGS0hfxmEOdhwlUo3sBoTsiGdqF3,html-keyboard-response,188,1029633,0.0-46.0-6.0-1.0-0.0,,,,,,,,,,,,,,,54258078fdf99b691fb3858e,09:17:57,03/04/2024
1089.0,,,ospan,symmetry,kGS0hfxmEOdhwlUo3sBoTsiGdqF3,symmetry-judgement-task,189,1032359,0.0-46.0-6.0-1.0-1.0-0.0,,,,,,,,,,1.0,1.0,,,,54258078fdf99b691fb3858e,09:17:57,03/04/2024
,"<div style=""font-size: 10rem; color: #0000FF"">R</div>",,ospan,letter,kGS0hfxmEOdhwlUo3sBoTsiGdqF3,html-keyboard-response,190,1033361,0.0-46.0-6.0-1.0-1.0-1.0,,,,,,,,,,,,,,,54258078fdf99b691fb3858e,09:17:57,03/04/2024
968.0,,,ospan,symmetry,kGS0hfxmEOdhwlUo3sBoTsiGdqF3,symmetry-judgement-task,191,1036751,0.0-46.0-6.0-1.0-1.0-2.0,,,,,,,,,,1.0,1.0,,,,54258078fdf99b691fb3858e,09:17:57,03/04/2024
,"<div style=""font-size: 10rem; color: #0000FF"">L</div>",,ospan,letter,kGS0hfxmEOdhwlUo3sBoTsiGdqF3,html-keyboard-response,192,1037751,0.0-46.0-6.0-1.0-1.0-3.0,,,,,,,,,,,,,,,54258078fdf99b691fb3858e,09:17:57,03/04/2024
952.0,,,ospan,symmetry,kGS0hfxmEOdhwlUo3sBoTsiGdqF3,symmetry-judgement-task,193,1041072,0.0-46.0-6.0-1.0-1.0-4.0,,,,,,,,,,1.0,1.0,,,,54258078fdf99b691fb3858e,09:17:57,03/04/2024
,"<div style=""font-size: 10rem; color: #0000FF"">K</div>",,ospan,letter,kGS0hfxmEOdhwlUo3sBoTsiGdqF3,html-keyboard-response,194,1042073,0.0-46.0-6.0-1.0-1.0-5.0,,,,,,,,,,,,,,,54258078fdf99b691fb3858e,09:17:57,03/04/2024
1282.0,,,ospan,symmetry,kGS0hfxmEOdhwlUo3sBoTsiGdqF3,symmetry-judgement-task,195,1045775,0.0-46.0-6.0-1.0-1.0-6.0,,,,,,,,,,1.0,1.0,,,,54258078fdf99b691fb3858e,09:17:57,03/04/2024
,"<div style=""font-size: 10rem; color: #0000FF"">G</div>",,ospan,letter,kGS0hfxmEOdhwlUo3sBoTsiGdqF3,html-keyboard-response,196,1046776,0.0-46.0-6.0-1.0-1.0-7.0,,,,,,,,,,,,,,,54258078fdf99b691fb3858e,09:17:57,03/04/2024
961.0,,,ospan,symmetry,kGS0hfxmEOdhwlUo3sBoTsiGdqF3,symmetry-judgement-task,197,1050121,0.0-46.0-6.0-1.0-1.0-8.0,,,,,,,,,,1.0,1.0,,,,54258078fdf99b691fb3858e,09:17:57,03/04/2024
,"<div style=""font-size: 10rem; color: #0000FF"">C</div>",,ospan,letter,kGS0hfxmEOdhwlUo3sBoTsiGdqF3,html-keyboard-response,198,1051123,0.0-46.0-6.0-1.0-1.0-9.0,,,,,,,,,,,,,,,54258078fdf99b691fb3858e,09:17:57,03/04/2024
1054.0,,,ospan,symmetry,kGS0hfxmEOdhwlUo3sBoTsiGdqF3,symmetry-judgement-task,199,1054599,0.0-46.0-6.0-1.0-1.0-10.0,,,,,,,,,,1.0,1.0,,,,54258078fdf99b691fb3858e,09:17:57,03/04/2024
,"<div style=""font-size: 10rem; color: #0000FF"">Q</div>",,ospan,letter,kGS0hfxmEOdhwlUo3sBoTsiGdqF3,html-keyboard-response,200,1055600,0.0-46.0-6.0-1.0-1.0-11.0,,,,,,,,,,,,,,,54258078fdf99b691fb3858e,09:17:57,03/04/2024
1984.0,,,ospan,symmetry,kGS0hfxmEOdhwlUo3sBoTsiGdqF3,symmetry-judgement-task,201,1060016,0.0-46.0-6.0-1.0-1.0-12.0,,,,,,,,,,1.0,1.0,,,,54258078fdf99b691fb3858e,09:17:57,03/04/2024
,"<div style=""font-size: 10rem; color: #0000FF"">H</div>",,ospan,letter,kGS0hfxmEOdhwlUo3sBoTsiGdqF3,html-keyboard-response,202,1061019,0.0-46.0-6.0-1.0-1.0-13.0,,,,,,,,,,,,,,,54258078fdf99b691fb3858e,09:17:57,03/04/2024
1752.0,,,ospan,symmetry,kGS0hfxmEOdhwlUo3sBoTsiGdqF3,symmetry-judgement-task,203,1065160,0.0-46.0-6.0-1.0-1.0-14.0,,,,,,,,,,1.0,1.0,,,,54258078fdf99b691fb3858e,09:17:57,03/04/2024
,"<div style=""font-size: 10rem; color: #0000FF"">Y</div>",,ospan,letter,kGS0hfxmEOdhwlUo3sBoTsiGdqF3,html-keyboard-response,204,1066161,0.0-46.0-6.0-1.0-1.0-15.0,,,,,,,,,,,,,,,54258078fdf99b691fb3858e,09:17:57,03/04/2024
5684.0,"<div class = numbox><p style=""font-size: 2.4rem"">Please recall the letters you saw to the best of your ability. If you do not remember a particular letter, use the SKIP button.<br><b>(When you are ready to lock in your answer, press ENTER)</b></p><button id = button_1 class = ""square num-button"" onclick = ""recordClick(this)""><div class = content><div class = numbers>C</div></div></button><button id = button_2 class = ""square num-button"" onclick = ""recordClick(this)""><div class = content><div class = numbers>G</div></div></button><button id = button_3 class = ""square num-button"" onclick = ""recordClick(this)""><div class = content><div class = numbers>H</div></div></button><button id = button_4 class = ""square num-button"" onclick = ""recordClick(this)""><div class = content><div class = numbers>J</div></div></button><button id = button_5 class = ""square num-button"" onclick = ""recordClick(this)""><div class = content><div class = numbers>K</div></div></button><button id = button_6 class = ""square num-button"" onclick = ""recordClick(this)""><div class = content><div class = numbers>L</div></div></button><button id = button_7 class = ""square num-button"" onclick = ""recordClick(this)""><div class = content><div class = numbers>N</div></div></button><button id = button_8 class = ""square num-button"" onclick = ""recordClick(this)""><div class = content><div class = numbers>P</div></div></button><button id = button_9 class = ""square num-button"" onclick = ""recordClick(this)""><div class = content><div class = numbers>Q</div></div></button><button id = button_10 class = ""square num-button"" onclick = ""recordClick(this)""><div class = content><div class = numbers>R</div></div></button><button id = button_11 class = ""square num-button"" onclick = ""recordClick(this)""><div class = content><div class = numbers>S</div></div></button><button id = button_12 class = ""square num-button"" onclick = ""recordClick(this)""><div class = content><div class = numbers>Y</div></div></button><button class = clear_button id = ""ClearButton"" onclick = ""clearResponse()"">BACKSPACE</button><button class = blank_button id = ""BlankButton"" onclick = ""blankResponse()"">SKIP</button><p style=""font-size: 2.4rem""><u><b>Current Answer:</b></u></p><br><br><div id=echoed_txt style=""font-size: 5rem; color:blue;""><b></b></div></div>",enter,ospan,retrieval,kGS0hfxmEOdhwlUo3sBoTsiGdqF3,html-keyboard-response,205,1072598,0.0-46.0-6.0-1.0-2.0,41,30,26,8.0,"[""R"",""L"",""G"",""C"",""K"",""Y""]","[""R"",""L"",""K"",""G"",""C"",""Q"",""H"",""Y""]",0.0,2.0,,,,,,,54258078fdf99b691fb3858e,09:17:57,03/04/2024
762.0,[''],0,ospan,feedback,kGS0hfxmEOdhwlUo3sBoTsiGdqF3,html-button-response,206,1073863,0.0-46.0-6.0-1.0-3.0,,,,,,,,,,,,95.0,0.0,,54258078fdf99b691fb3858e,09:17:57,03/04/2024
5547.0,,{'Q0': 'nothing'},ospan,survey_ospan,kGS0hfxmEOdhwlUo3sBoTsiGdqF3,lmdlab-survey-text,207,1080166,0.0-46.0-7.0,,,,,,,,,,,,,,kGS0hfxmEOdhwlUo3sBoTsiGdqF3,54258078fdf99b691fb3858e,09:17:57,03/04/2024
802.0,<p><p style='font-size: 3rem'>Great work!<br><br>This completes the symmetry and memory task.</p><br><br><br>,0,ospan,finish,kGS0hfxmEOdhwlUo3sBoTsiGdqF3,html-button-response,208,1080975,0.0-46.0-8.0,41,30,26,,,,,,,,,95.0,,,54258078fdf99b691fb3858e,09:17:57,03/04/2024
