rt,stimulus,response,exp_name,exp_stage,subjectID,trial_type,trial_index,time_elapsed,internal_node_id,ospan_shown,ospan_total,ospan_abs,length,resp_actual,resp_correct,full_correct,num_correct,feedback,accuracy,correct,math_acc,math_warning,databaseID,prolificID,start_time,date
24200.20000000298,<div class = 'left_align' style='font-size: 3.25rem; line-height: 1.3;'><p class = 'center_align'><b>Welcome to the Symmetry and Memory Task</b><br><br><br><br></p>Press 'continue' to show the instructions.<br><br><br><br></div>,0,ospan,instruct,BRLOt1MpMrRXTudc0y4bqNzXvg93,html-button-response,54,659216,0.0-46.0-0.0-0.0-0.0,,,,,,,,,,,,,,,5fecdbad0b1a449e3288b07b,10:39:45,03/04/2024
542931.5,"<div class = 'left_align' style='font-size: 3.25rem; line-height: 1.3;'><p class = 'center_align'><b>Symmetry and Memory Task</b><br><br></p>In this task, you will try to memorize letters you see on the screen<br>while you also view black and white grid pictures.<br><br>In the next few minutes, you will have some practice to get you familiar<br>with how the task works.<br><br>It may be difficult sometimes, but please do not worry about making mistakes!<br><br>We will begin by practicing the letter part of the task.<br><br><br><br></div>",0,ospan,instruct,BRLOt1MpMrRXTudc0y4bqNzXvg93,html-button-response,55,1202400,0.0-46.0-0.0-0.0-1.0,,,,,,,,,,,,,,,5fecdbad0b1a449e3288b07b,10:39:45,03/04/2024
3573.0,"<div class = 'left_align' style='font-size: 3.25rem; line-height: 1.3;'>For this practice part, letters will appear on the screen one at a time.<br><br>Try to remember each letter in the order presented.<br><br>After some letters have been shown, you will see a response screen. Your<br>goal is to report the letters you saw <b>in order</b>. If you do not remember<br>a particular letter, you will have the option to leave it blank.<br><br><br><br></div>",0,ospan,instruct,BRLOt1MpMrRXTudc0y4bqNzXvg93,html-button-response,56,1206230,0.0-46.0-0.0-0.0-2.0,,,,,,,,,,,,,,,5fecdbad0b1a449e3288b07b,10:39:45,03/04/2024
4384.70000000298,"<div class = 'left_align' style='font-size: 3.25rem; line-height: 1.3;'>Remember, it is very important to get the letters in the same<br>order as you see them.<br><br>When you are ready, you may begin the letter practice.</div><br><br><br><br>",0,ospan,instruct,BRLOt1MpMrRXTudc0y4bqNzXvg93,html-button-response,57,1210876,0.0-46.0-0.0-0.0-3.0,,,,,,,,,,,,,,,5fecdbad0b1a449e3288b07b,10:39:45,03/04/2024
,"<p style=""font-size:75px;"">...</p>",,ospan,iti,BRLOt1MpMrRXTudc0y4bqNzXvg93,html-keyboard-response,58,1212135,0.0-46.0-0.0-1.0-0.0,,,,,,,,,,,,,,,5fecdbad0b1a449e3288b07b,10:39:45,03/04/2024
,"<div style=""font-size: 10rem; color: #0000FF"">Q</div>",,ospan,letter,BRLOt1MpMrRXTudc0y4bqNzXvg93,html-keyboard-response,59,1213149,0.0-46.0-0.0-1.0-1.0,,,,,,,,,,,,,,,5fecdbad0b1a449e3288b07b,10:39:45,03/04/2024
,"<div style=""font-size: 10rem; color: #0000FF"">L</div>",,ospan,letter,BRLOt1MpMrRXTudc0y4bqNzXvg93,html-keyboard-response,60,1214916,0.0-46.0-0.0-1.0-2.0,,,,,,,,,,,,,,,5fecdbad0b1a449e3288b07b,10:39:45,03/04/2024
5731.0999999940395,"<div class = numbox><p style=""font-size: 2.4rem"">Please recall the letters you saw to the best of your ability. If you do not remember a particular letter, use the SKIP button.<br><b>(When you are ready to lock in your answer, press ENTER)</b></p><button id = button_1 class = ""square num-button"" onclick = ""recordClick(this)""><div class = content><div class = numbers>C</div></div></button><button id = button_2 class = ""square num-button"" onclick = ""recordClick(this)""><div class = content><div class = numbers>G</div></div></button><button id = button_3 class = ""square num-button"" onclick = ""recordClick(this)""><div class = content><div class = numbers>H</div></div></button><button id = button_4 class = ""square num-button"" onclick = ""recordClick(this)""><div class = content><div class = numbers>J</div></div></button><button id = button_5 class = ""square num-button"" onclick = ""recordClick(this)""><div class = content><div class = numbers>K</div></div></button><button id = button_6 class = ""square num-button"" onclick = ""recordClick(this)""><div class = content><div class = numbers>L</div></div></button><button id = button_7 class = ""square num-button"" onclick = ""recordClick(this)""><div class = content><div class = numbers>N</div></div></button><button id = button_8 class = ""square num-button"" onclick = ""recordClick(this)""><div class = content><div class = numbers>P</div></div></button><button id = button_9 class = ""square num-button"" onclick = ""recordClick(this)""><div class = content><div class = numbers>Q</div></div></button><button id = button_10 class = ""square num-button"" onclick = ""recordClick(this)""><div class = content><div class = numbers>R</div></div></button><button id = button_11 class = ""square num-button"" onclick = ""recordClick(this)""><div class = content><div class = numbers>S</div></div></button><button id = button_12 class = ""square num-button"" onclick = ""recordClick(this)""><div class = content><div class = numbers>Y</div></div></button><button class = clear_button id = ""ClearButton"" onclick = ""clearResponse()"">BACKSPACE</button><button class = blank_button id = ""BlankButton"" onclick = ""blankResponse()"">SKIP</button><p style=""font-size: 2.4rem""><u><b>Current Answer:</b></u></p><br><br><div id=echoed_txt style=""font-size: 5rem; color:blue;""><b></b></div></div>",enter,ospan,retrieval,BRLOt1MpMrRXTudc0y4bqNzXvg93,html-keyboard-response,61,1221414,0.0-46.0-0.0-1.0-3.0,NA,NA,NA,2.0,"[""Q"",""L""]","[""Q"",""L""]",1.0,2.0,"['<font color=""green"">Q</font>', '<font color=""green"">L</font>']",,,,,,5fecdbad0b1a449e3288b07b,10:39:45,03/04/2024
1161.7000000029802,"['<p style=""font-size:44px"">Letters:<br><br><br><font color=""green"">Q</font> <font color=""green"">L</font></p><br><br>']",0,ospan,practice_feedback,BRLOt1MpMrRXTudc0y4bqNzXvg93,html-button-response,62,1223078,0.0-46.0-0.0-1.0-4.0,,,,,,,,,,,,,,,5fecdbad0b1a449e3288b07b,10:39:45,03/04/2024
,"<p style=""font-size:75px;"">...</p>",,ospan,iti,BRLOt1MpMrRXTudc0y4bqNzXvg93,html-keyboard-response,63,1224089,0.0-46.0-0.0-2.0-0.0,,,,,,,,,,,,,,,5fecdbad0b1a449e3288b07b,10:39:45,03/04/2024
,"<div style=""font-size: 10rem; color: #0000FF"">R</div>",,ospan,letter,BRLOt1MpMrRXTudc0y4bqNzXvg93,html-keyboard-response,64,1225098,0.0-46.0-0.0-2.0-1.0,,,,,,,,,,,,,,,5fecdbad0b1a449e3288b07b,10:39:45,03/04/2024
,"<div style=""font-size: 10rem; color: #0000FF"">C</div>",,ospan,letter,BRLOt1MpMrRXTudc0y4bqNzXvg93,html-keyboard-response,65,1226866,0.0-46.0-0.0-2.0-2.0,,,,,,,,,,,,,,,5fecdbad0b1a449e3288b07b,10:39:45,03/04/2024
,"<div style=""font-size: 10rem; color: #0000FF"">P</div>",,ospan,letter,BRLOt1MpMrRXTudc0y4bqNzXvg93,html-keyboard-response,66,1228633,0.0-46.0-0.0-2.0-3.0,,,,,,,,,,,,,,,5fecdbad0b1a449e3288b07b,10:39:45,03/04/2024
4277.9000000059605,"<div class = numbox><p style=""font-size: 2.4rem"">Please recall the letters you saw to the best of your ability. If you do not remember a particular letter, use the SKIP button.<br><b>(When you are ready to lock in your answer, press ENTER)</b></p><button id = button_1 class = ""square num-button"" onclick = ""recordClick(this)""><div class = content><div class = numbers>C</div></div></button><button id = button_2 class = ""square num-button"" onclick = ""recordClick(this)""><div class = content><div class = numbers>G</div></div></button><button id = button_3 class = ""square num-button"" onclick = ""recordClick(this)""><div class = content><div class = numbers>H</div></div></button><button id = button_4 class = ""square num-button"" onclick = ""recordClick(this)""><div class = content><div class = numbers>J</div></div></button><button id = button_5 class = ""square num-button"" onclick = ""recordClick(this)""><div class = content><div class = numbers>K</div></div></button><button id = button_6 class = ""square num-button"" onclick = ""recordClick(this)""><div class = content><div class = numbers>L</div></div></button><button id = button_7 class = ""square num-button"" onclick = ""recordClick(this)""><div class = content><div class = numbers>N</div></div></button><button id = button_8 class = ""square num-button"" onclick = ""recordClick(this)""><div class = content><div class = numbers>P</div></div></button><button id = button_9 class = ""square num-button"" onclick = ""recordClick(this)""><div class = content><div class = numbers>Q</div></div></button><button id = button_10 class = ""square num-button"" onclick = ""recordClick(this)""><div class = content><div class = numbers>R</div></div></button><button id = button_11 class = ""square num-button"" onclick = ""recordClick(this)""><div class = content><div class = numbers>S</div></div></button><button id = button_12 class = ""square num-button"" onclick = ""recordClick(this)""><div class = content><div class = numbers>Y</div></div></button><button class = clear_button id = ""ClearButton"" onclick = ""clearResponse()"">BACKSPACE</button><button class = blank_button id = ""BlankButton"" onclick = ""blankResponse()"">SKIP</button><p style=""font-size: 2.4rem""><u><b>Current Answer:</b></u></p><br><br><div id=echoed_txt style=""font-size: 5rem; color:blue;""><b></b></div></div>",enter,ospan,retrieval,BRLOt1MpMrRXTudc0y4bqNzXvg93,html-keyboard-response,67,1233670,0.0-46.0-0.0-2.0-4.0,NA,NA,NA,3.0,"[""R"",""C"",""P""]","[""R"",""C"",""P""]",1.0,3.0,"['<font color=""green"">R</font>', '<font color=""green"">C</font>', '<font color=""green"">P</font>']",,,,,,5fecdbad0b1a449e3288b07b,10:39:45,03/04/2024
2988.5,"['<p style=""font-size:44px"">Letters:<br><br><br><font color=""green"">R</font> <font color=""green"">C</font> <font color=""green"">P</font></p><br><br>']",0,ospan,practice_feedback,BRLOt1MpMrRXTudc0y4bqNzXvg93,html-button-response,68,1237175,0.0-46.0-0.0-2.0-5.0,,,,,,,,,,,,,,,5fecdbad0b1a449e3288b07b,10:39:45,03/04/2024
9414.09999999404,"<div class = 'left_align' style='font-size: 3.25rem; line-height: 1.3;'>Now you will practice doing the <b>symmetry judgment part</b> of the experiment.<br><br>A black and white grid picture will appear on the screen and you have to judge if it is <br>symmetrical or asymetrical.<br><br>A picture is 'mirror' symmetrical if its left half is identical to the right half when flipped.<br>Here are examples of a symmetrical and an asymetrical picture:<br><br><center><img src='Stimuli/img/symm_instructions_extra.png' style='height:420px; width:900'></img></center><br>To judge symmetry, imagine you were to fold each picture down the middle, like a book –<br>would the left half match the right half when folded onto each other?<br><br></div><br>",0,ospan,instruct,BRLOt1MpMrRXTudc0y4bqNzXvg93,html-button-response,69,1246590,0.0-46.0-1.0-0.0-0.0,,,,,,,,,,,,,,,5fecdbad0b1a449e3288b07b,10:39:45,03/04/2024
2709.1000000089407,"<div class = 'left_align' style='font-size: 3.25rem; line-height: 1.3;'>When you have viewed the picture and determined whether it is symmetrical or not,<br>you can <b>click the Yes or No button</b> below to answer.<br><br>If you take longer than 15 seconds, it will continue automatically<br>and record the answer as an error.</div><br>",0,ospan,instruct,BRLOt1MpMrRXTudc0y4bqNzXvg93,html-button-response,70,1249551,0.0-46.0-1.0-0.0-1.0,,,,,,,,,,,,,,,5fecdbad0b1a449e3288b07b,10:39:45,03/04/2024
1972.9000000059605,"<div class = 'left_align' style='font-size: 3.25rem; line-height: 1.3;'>It is <b>very</b> important that you make the symmetry judgment correctly.<br><br>It is also important that you try and judge the picture as quickly as you can.<br><br>When you are ready, click on the button below to try some practice problems.</div><br><br><br><br>",0,ospan,instruct,BRLOt1MpMrRXTudc0y4bqNzXvg93,html-button-response,71,1251787,0.0-46.0-1.0-0.0-2.0,,,,,,,,,,,,,,,5fecdbad0b1a449e3288b07b,10:39:45,03/04/2024
2718.0,,,ospan,symmetry,BRLOt1MpMrRXTudc0y4bqNzXvg93,symmetry-judgement-task,72,1255305,0.0-46.0-1.0-1.0-0.0,,,,,,,,,,1.0,1.0,,,,5fecdbad0b1a449e3288b07b,10:39:45,03/04/2024
,"<p style=""color:green; font-size: 35px"">Correct</p>",,ospan,feedback,BRLOt1MpMrRXTudc0y4bqNzXvg93,html-keyboard-response,73,1256065,0.0-46.0-1.0-1.0-1.0,,,,,,,,,,,,,,,5fecdbad0b1a449e3288b07b,10:39:45,03/04/2024
1359.0,,,ospan,symmetry,BRLOt1MpMrRXTudc0y4bqNzXvg93,symmetry-judgement-task,74,1260054,0.0-46.0-1.0-1.0-2.0,,,,,,,,,,1.0,1.0,,,,5fecdbad0b1a449e3288b07b,10:39:45,03/04/2024
,"<p style=""color:green; font-size: 35px"">Correct</p>",,ospan,feedback,BRLOt1MpMrRXTudc0y4bqNzXvg93,html-keyboard-response,75,1260809,0.0-46.0-1.0-1.0-3.0,,,,,,,,,,,,,,,5fecdbad0b1a449e3288b07b,10:39:45,03/04/2024
1656.0,,,ospan,symmetry,BRLOt1MpMrRXTudc0y4bqNzXvg93,symmetry-judgement-task,76,1265103,0.0-46.0-1.0-1.0-4.0,,,,,,,,,,1.0,1.0,,,,5fecdbad0b1a449e3288b07b,10:39:45,03/04/2024
,"<p style=""color:green; font-size: 35px"">Correct</p>",,ospan,feedback,BRLOt1MpMrRXTudc0y4bqNzXvg93,html-keyboard-response,77,1265864,0.0-46.0-1.0-1.0-5.0,,,,,,,,,,,,,,,5fecdbad0b1a449e3288b07b,10:39:45,03/04/2024
1481.0999999940395,"<p style=""font-size: 3rem;"">You responded correctly on 3 of 3 symmetry judgments. Good job!</p><br><br>",0,ospan,practice,BRLOt1MpMrRXTudc0y4bqNzXvg93,html-button-response,78,1269356,0.0-46.0-1.0-2.0,,,,,,,,,,,,,,,5fecdbad0b1a449e3288b07b,10:39:45,03/04/2024
5102.5,"<div class = 'left_align' style='font-size: 3.25rem; line-height: 1.3;'>Now you will practice doing both parts of the experiment at the same time.<br><br>In the next practice set, you will be given one grid picture to judge.<br>Then letter will appear on the screen. Try to remember the letter.<br><br>It is <b>very important</b> to make the symmetry judgment as quickly and accurately as possible.<br><br>Just as before, once you have make the symmetry judgment, you can click Yes or No.<br><b>Note that you will no longer see Correct or Incorrect feedback.</div><br><br><br><br>",0,ospan,instruct,BRLOt1MpMrRXTudc0y4bqNzXvg93,html-button-response,79,1274710,0.0-46.0-2.0-0.0-0.0,,,,,,,,,,,,,,,5fecdbad0b1a449e3288b07b,10:39:45,03/04/2024
1466.199999988079,"<div class = 'left_align' style='font-size: 3.25rem; line-height: 1.3;'>After the letter goes away, another grid picture will appear, and then<br>another letter.<br><br>At the end of each set of letters and grids, you will recall the letters to the best<br>of your ability. Remember, try your best to get the letters in the correct order.<br><br>It is important to <b>quickly</b> and <b>accurately</b> make the symmetry judgments.</div><br><br><br><br>",0,ospan,instruct,BRLOt1MpMrRXTudc0y4bqNzXvg93,html-button-response,80,1276437,0.0-46.0-2.0-0.0-1.0,,,,,,,,,,,,,,,5fecdbad0b1a449e3288b07b,10:39:45,03/04/2024
4138.5999999940395,"<div class = 'left_align' style='font-size: 3.25rem; line-height: 1.3;'>On the feedback screen, if you are not doing well at the symmetry judgments,<br>you will also see a warning in the middle. This indicates your percent <br>correct for the grid pictures for the entire experiment.<br><br>It is <b>very</b> important for you to keep accuracy at least at 85%: <u>We can only use<br>data where the participant was at least 85% accurate on the judgments.</u> Therefore,<br> please try your best to perform well on the symmetry judgments, <b>at the same time</b><br>doing your best to recall as many letters as possible.<br><br>Click the button to try some practice problems.</div><br><br><br><br>",0,ospan,instruct,BRLOt1MpMrRXTudc0y4bqNzXvg93,html-button-response,81,1280829,0.0-46.0-2.0-0.0-2.0,,,,,,,,,,,,,,,5fecdbad0b1a449e3288b07b,10:39:45,03/04/2024
,"<p style=""font-size:75px;"">...</p>",,ospan,iti,BRLOt1MpMrRXTudc0y4bqNzXvg93,html-keyboard-response,82,1282097,0.0-46.0-2.0-1.0-0.0,,,,,,,,,,,,,,,5fecdbad0b1a449e3288b07b,10:39:45,03/04/2024
1320.0,,,ospan,symmetry,BRLOt1MpMrRXTudc0y4bqNzXvg93,symmetry-judgement-task,83,1284454,0.0-46.0-2.0-1.0-1.0-0.0,,,,,,,,,,1.0,1.0,,,,5fecdbad0b1a449e3288b07b,10:39:45,03/04/2024
,"<div style=""font-size: 10rem; color: #0000FF"">L</div>",,ospan,letter,BRLOt1MpMrRXTudc0y4bqNzXvg93,html-keyboard-response,84,1285468,0.0-46.0-2.0-1.0-1.0-1.0,,,,,,,,,,,,,,,5fecdbad0b1a449e3288b07b,10:39:45,03/04/2024
2662.0,,,ospan,symmetry,BRLOt1MpMrRXTudc0y4bqNzXvg93,symmetry-judgement-task,85,1290004,0.0-46.0-2.0-1.0-1.0-2.0,,,,,,,,,,1.0,1.0,,,,5fecdbad0b1a449e3288b07b,10:39:45,03/04/2024
,"<div style=""font-size: 10rem; color: #0000FF"">J</div>",,ospan,letter,BRLOt1MpMrRXTudc0y4bqNzXvg93,html-keyboard-response,86,1291017,0.0-46.0-2.0-1.0-1.0-3.0,,,,,,,,,,,,,,,5fecdbad0b1a449e3288b07b,10:39:45,03/04/2024
1161.0,,,ospan,symmetry,BRLOt1MpMrRXTudc0y4bqNzXvg93,symmetry-judgement-task,87,1294061,0.0-46.0-2.0-1.0-1.0-4.0,,,,,,,,,,1.0,1.0,,,,5fecdbad0b1a449e3288b07b,10:39:45,03/04/2024
,"<div style=""font-size: 10rem; color: #0000FF"">K</div>",,ospan,letter,BRLOt1MpMrRXTudc0y4bqNzXvg93,html-keyboard-response,88,1295065,0.0-46.0-2.0-1.0-1.0-5.0,,,,,,,,,,,,,,,5fecdbad0b1a449e3288b07b,10:39:45,03/04/2024
4600.70000000298,"<div class = numbox><p style=""font-size: 2.4rem"">Please recall the letters you saw to the best of your ability. If you do not remember a particular letter, use the SKIP button.<br><b>(When you are ready to lock in your answer, press ENTER)</b></p><button id = button_1 class = ""square num-button"" onclick = ""recordClick(this)""><div class = content><div class = numbers>C</div></div></button><button id = button_2 class = ""square num-button"" onclick = ""recordClick(this)""><div class = content><div class = numbers>G</div></div></button><button id = button_3 class = ""square num-button"" onclick = ""recordClick(this)""><div class = content><div class = numbers>H</div></div></button><button id = button_4 class = ""square num-button"" onclick = ""recordClick(this)""><div class = content><div class = numbers>J</div></div></button><button id = button_5 class = ""square num-button"" onclick = ""recordClick(this)""><div class = content><div class = numbers>K</div></div></button><button id = button_6 class = ""square num-button"" onclick = ""recordClick(this)""><div class = content><div class = numbers>L</div></div></button><button id = button_7 class = ""square num-button"" onclick = ""recordClick(this)""><div class = content><div class = numbers>N</div></div></button><button id = button_8 class = ""square num-button"" onclick = ""recordClick(this)""><div class = content><div class = numbers>P</div></div></button><button id = button_9 class = ""square num-button"" onclick = ""recordClick(this)""><div class = content><div class = numbers>Q</div></div></button><button id = button_10 class = ""square num-button"" onclick = ""recordClick(this)""><div class = content><div class = numbers>R</div></div></button><button id = button_11 class = ""square num-button"" onclick = ""recordClick(this)""><div class = content><div class = numbers>S</div></div></button><button id = button_12 class = ""square num-button"" onclick = ""recordClick(this)""><div class = content><div class = numbers>Y</div></div></button><button class = clear_button id = ""ClearButton"" onclick = ""clearResponse()"">BACKSPACE</button><button class = blank_button id = ""BlankButton"" onclick = ""blankResponse()"">SKIP</button><p style=""font-size: 2.4rem""><u><b>Current Answer:</b></u></p><br><br><div id=echoed_txt style=""font-size: 5rem; color:blue;""><b></b></div></div>",enter,ospan,retrieval,BRLOt1MpMrRXTudc0y4bqNzXvg93,html-keyboard-response,89,1300428,0.0-46.0-2.0-1.0-2.0-0.0,NA,NA,NA,3.0,"[""L"",""J"",""K""]","[""L"",""J"",""K""]",1.0,3.0,"['<font color=""green"">L</font>', '<font color=""green"">J</font>', '<font color=""green"">K</font>']",,,,,,5fecdbad0b1a449e3288b07b,10:39:45,03/04/2024
1087.4000000059605,"['<p style=""font-size:44px"">Letters:<br><br><br><font color=""green"">L</font> <font color=""green"">J</font> <font color=""green"">K</font></p><br><br><p style=""font-size:30px"">Symmetry:<br><br><font color=""green"">100%</font></p><br><br>']",0,ospan,practice_feedback,BRLOt1MpMrRXTudc0y4bqNzXvg93,html-button-response,90,1302019,0.0-46.0-2.0-1.0-2.0-1.0,,,,,,,,,,,,,,,5fecdbad0b1a449e3288b07b,10:39:45,03/04/2024
,"<p style=""font-size:75px;"">...</p>",,ospan,iti,BRLOt1MpMrRXTudc0y4bqNzXvg93,html-keyboard-response,91,1303032,0.0-46.0-2.0-2.0-0.0,,,,,,,,,,,,,,,5fecdbad0b1a449e3288b07b,10:39:45,03/04/2024
1504.0,,,ospan,symmetry,BRLOt1MpMrRXTudc0y4bqNzXvg93,symmetry-judgement-task,92,1305578,0.0-46.0-2.0-2.0-1.0-0.0,,,,,,,,,,1.0,1.0,,,,5fecdbad0b1a449e3288b07b,10:39:45,03/04/2024
,"<div style=""font-size: 10rem; color: #0000FF"">N</div>",,ospan,letter,BRLOt1MpMrRXTudc0y4bqNzXvg93,html-keyboard-response,93,1306591,0.0-46.0-2.0-2.0-1.0-1.0,,,,,,,,,,,,,,,5fecdbad0b1a449e3288b07b,10:39:45,03/04/2024
2126.0,,,ospan,symmetry,BRLOt1MpMrRXTudc0y4bqNzXvg93,symmetry-judgement-task,94,1310603,0.0-46.0-2.0-2.0-1.0-2.0,,,,,,,,,,1.0,1.0,,,,5fecdbad0b1a449e3288b07b,10:39:45,03/04/2024
,"<div style=""font-size: 10rem; color: #0000FF"">G</div>",,ospan,letter,BRLOt1MpMrRXTudc0y4bqNzXvg93,html-keyboard-response,95,1311605,0.0-46.0-2.0-2.0-1.0-3.0,,,,,,,,,,,,,,,5fecdbad0b1a449e3288b07b,10:39:45,03/04/2024
1387.0,,,ospan,symmetry,BRLOt1MpMrRXTudc0y4bqNzXvg93,symmetry-judgement-task,96,1314863,0.0-46.0-2.0-2.0-1.0-4.0,,,,,,,,,,1.0,1.0,,,,5fecdbad0b1a449e3288b07b,10:39:45,03/04/2024
,"<div style=""font-size: 10rem; color: #0000FF"">Y</div>",,ospan,letter,BRLOt1MpMrRXTudc0y4bqNzXvg93,html-keyboard-response,97,1315873,0.0-46.0-2.0-2.0-1.0-5.0,,,,,,,,,,,,,,,5fecdbad0b1a449e3288b07b,10:39:45,03/04/2024
5059.5,"<div class = numbox><p style=""font-size: 2.4rem"">Please recall the letters you saw to the best of your ability. If you do not remember a particular letter, use the SKIP button.<br><b>(When you are ready to lock in your answer, press ENTER)</b></p><button id = button_1 class = ""square num-button"" onclick = ""recordClick(this)""><div class = content><div class = numbers>C</div></div></button><button id = button_2 class = ""square num-button"" onclick = ""recordClick(this)""><div class = content><div class = numbers>G</div></div></button><button id = button_3 class = ""square num-button"" onclick = ""recordClick(this)""><div class = content><div class = numbers>H</div></div></button><button id = button_4 class = ""square num-button"" onclick = ""recordClick(this)""><div class = content><div class = numbers>J</div></div></button><button id = button_5 class = ""square num-button"" onclick = ""recordClick(this)""><div class = content><div class = numbers>K</div></div></button><button id = button_6 class = ""square num-button"" onclick = ""recordClick(this)""><div class = content><div class = numbers>L</div></div></button><button id = button_7 class = ""square num-button"" onclick = ""recordClick(this)""><div class = content><div class = numbers>N</div></div></button><button id = button_8 class = ""square num-button"" onclick = ""recordClick(this)""><div class = content><div class = numbers>P</div></div></button><button id = button_9 class = ""square num-button"" onclick = ""recordClick(this)""><div class = content><div class = numbers>Q</div></div></button><button id = button_10 class = ""square num-button"" onclick = ""recordClick(this)""><div class = content><div class = numbers>R</div></div></button><button id = button_11 class = ""square num-button"" onclick = ""recordClick(this)""><div class = content><div class = numbers>S</div></div></button><button id = button_12 class = ""square num-button"" onclick = ""recordClick(this)""><div class = content><div class = numbers>Y</div></div></button><button class = clear_button id = ""ClearButton"" onclick = ""clearResponse()"">BACKSPACE</button><button class = blank_button id = ""BlankButton"" onclick = ""blankResponse()"">SKIP</button><p style=""font-size: 2.4rem""><u><b>Current Answer:</b></u></p><br><br><div id=echoed_txt style=""font-size: 5rem; color:blue;""><b></b></div></div>",enter,ospan,retrieval,BRLOt1MpMrRXTudc0y4bqNzXvg93,html-keyboard-response,98,1321686,0.0-46.0-2.0-2.0-2.0-0.0,NA,NA,NA,3.0,"[""N"",""G"",""Y""]","[""N"",""G"",""Y""]",1.0,3.0,"['<font color=""green"">N</font>', '<font color=""green"">G</font>', '<font color=""green"">Y</font>']",,,,,,5fecdbad0b1a449e3288b07b,10:39:45,03/04/2024
1147.0,"['<p style=""font-size:44px"">Letters:<br><br><br><font color=""green"">N</font> <font color=""green"">G</font> <font color=""green"">Y</font></p><br><br><p style=""font-size:30px"">Symmetry:<br><br><font color=""green"">100%</font></p><br><br>']",0,ospan,practice_feedback,BRLOt1MpMrRXTudc0y4bqNzXvg93,html-button-response,99,1323345,0.0-46.0-2.0-2.0-2.0-1.0,,,,,,,,,,,,,,,5fecdbad0b1a449e3288b07b,10:39:45,03/04/2024
13345.90000000596,"<div class = 'left_align' style='font-size: 3rem; line-height: 1.3;'><b>Great work! That is the end of practice.</b><br><br>The real trials will look just like the practice trials you just completed.<br><br><u>Here, you will not see feedback</u>. First, you will see an grid picture to judge,<br>then a letter to remember. When the recall screen appears, report the letters in the<br>order presented. If you forget a letter, remember to use the <b>blank</b> button to move to the<br>next letter. Some of the sets will have more symmetry grids and letters than others.<br><br>It is important that you do your best on both the symmetry judgments and the letter recall<br>parts of the experiment. For for the symmetry judgments, try to work as <b>quickly</b> and <br>as <b>accurately</b> as possible. Remember to keep your symmetry accuracy at 85% or above.<br><br><b>For the letters, do NOT use any external aid (e.g., writing on paper, electronic device).</b><br><br>It is <u>very important</u> to our experiment to have a <b>true</b> view of your real performance.<br><br>Do not worry if you miss some when it gets hard! This task is meant to be very challenging!<br><br>Click the button to begin.</div><br><br><br><br>",0,ospan,starting_real_here,BRLOt1MpMrRXTudc0y4bqNzXvg93,html-button-response,100,1336692,0.0-46.0-2.0-3.0,,,,,,,,,,,,,,,5fecdbad0b1a449e3288b07b,10:39:45,03/04/2024
,"<p style=""font-size:75px;"">...</p>",,ospan,iti,BRLOt1MpMrRXTudc0y4bqNzXvg93,html-keyboard-response,101,1337961,0.0-46.0-3.0-0.0-0.0,,,,,,,,,,,,,,,5fecdbad0b1a449e3288b07b,10:39:45,03/04/2024
1770.0,,,ospan,symmetry,BRLOt1MpMrRXTudc0y4bqNzXvg93,symmetry-judgement-task,102,1340773,0.0-46.0-3.0-0.0-1.0-0.0,,,,,,,,,,1.0,1.0,,,,5fecdbad0b1a449e3288b07b,10:39:45,03/04/2024
,"<div style=""font-size: 10rem; color: #0000FF"">S</div>",,ospan,letter,BRLOt1MpMrRXTudc0y4bqNzXvg93,html-keyboard-response,103,1341786,0.0-46.0-3.0-0.0-1.0-1.0,,,,,,,,,,,,,,,5fecdbad0b1a449e3288b07b,10:39:45,03/04/2024
2636.0,,,ospan,symmetry,BRLOt1MpMrRXTudc0y4bqNzXvg93,symmetry-judgement-task,104,1346290,0.0-46.0-3.0-0.0-1.0-2.0,,,,,,,,,,1.0,1.0,,,,5fecdbad0b1a449e3288b07b,10:39:45,03/04/2024
,"<div style=""font-size: 10rem; color: #0000FF"">L</div>",,ospan,letter,BRLOt1MpMrRXTudc0y4bqNzXvg93,html-keyboard-response,105,1347302,0.0-46.0-3.0-0.0-1.0-3.0,,,,,,,,,,,,,,,5fecdbad0b1a449e3288b07b,10:39:45,03/04/2024
1246.0,,,ospan,symmetry,BRLOt1MpMrRXTudc0y4bqNzXvg93,symmetry-judgement-task,106,1350421,0.0-46.0-3.0-0.0-1.0-4.0,,,,,,,,,,1.0,1.0,,,,5fecdbad0b1a449e3288b07b,10:39:45,03/04/2024
,"<div style=""font-size: 10rem; color: #0000FF"">P</div>",,ospan,letter,BRLOt1MpMrRXTudc0y4bqNzXvg93,html-keyboard-response,107,1351428,0.0-46.0-3.0-0.0-1.0-5.0,,,,,,,,,,,,,,,5fecdbad0b1a449e3288b07b,10:39:45,03/04/2024
4405.0,"<div class = numbox><p style=""font-size: 2.4rem"">Please recall the letters you saw to the best of your ability. If you do not remember a particular letter, use the SKIP button.<br><b>(When you are ready to lock in your answer, press ENTER)</b></p><button id = button_1 class = ""square num-button"" onclick = ""recordClick(this)""><div class = content><div class = numbers>C</div></div></button><button id = button_2 class = ""square num-button"" onclick = ""recordClick(this)""><div class = content><div class = numbers>G</div></div></button><button id = button_3 class = ""square num-button"" onclick = ""recordClick(this)""><div class = content><div class = numbers>H</div></div></button><button id = button_4 class = ""square num-button"" onclick = ""recordClick(this)""><div class = content><div class = numbers>J</div></div></button><button id = button_5 class = ""square num-button"" onclick = ""recordClick(this)""><div class = content><div class = numbers>K</div></div></button><button id = button_6 class = ""square num-button"" onclick = ""recordClick(this)""><div class = content><div class = numbers>L</div></div></button><button id = button_7 class = ""square num-button"" onclick = ""recordClick(this)""><div class = content><div class = numbers>N</div></div></button><button id = button_8 class = ""square num-button"" onclick = ""recordClick(this)""><div class = content><div class = numbers>P</div></div></button><button id = button_9 class = ""square num-button"" onclick = ""recordClick(this)""><div class = content><div class = numbers>Q</div></div></button><button id = button_10 class = ""square num-button"" onclick = ""recordClick(this)""><div class = content><div class = numbers>R</div></div></button><button id = button_11 class = ""square num-button"" onclick = ""recordClick(this)""><div class = content><div class = numbers>S</div></div></button><button id = button_12 class = ""square num-button"" onclick = ""recordClick(this)""><div class = content><div class = numbers>Y</div></div></button><button class = clear_button id = ""ClearButton"" onclick = ""clearResponse()"">BACKSPACE</button><button class = blank_button id = ""BlankButton"" onclick = ""blankResponse()"">SKIP</button><p style=""font-size: 2.4rem""><u><b>Current Answer:</b></u></p><br><br><div id=echoed_txt style=""font-size: 5rem; color:blue;""><b></b></div></div>",enter,ospan,retrieval,BRLOt1MpMrRXTudc0y4bqNzXvg93,html-keyboard-response,108,1356587,0.0-46.0-3.0-0.0-2.0,3,3,3,3.0,"[""S"",""L"",""P""]","[""S"",""L"",""P""]",1.0,3.0,,,,,,,5fecdbad0b1a449e3288b07b,10:39:45,03/04/2024
1078.4000000059605,[''],0,ospan,feedback,BRLOt1MpMrRXTudc0y4bqNzXvg93,html-button-response,109,1358168,0.0-46.0-3.0-0.0-3.0,,,,,,,,,,,,100.0,0.0,,5fecdbad0b1a449e3288b07b,10:39:45,03/04/2024
,"<p style=""font-size:75px;"">...</p>",,ospan,iti,BRLOt1MpMrRXTudc0y4bqNzXvg93,html-keyboard-response,110,1359181,0.0-46.0-4.0-0.0-0.0,,,,,,,,,,,,,,,5fecdbad0b1a449e3288b07b,10:39:45,03/04/2024
1718.0,,,ospan,symmetry,BRLOt1MpMrRXTudc0y4bqNzXvg93,symmetry-judgement-task,111,1362020,0.0-46.0-4.0-0.0-1.0-0.0,,,,,,,,,,1.0,1.0,,,,5fecdbad0b1a449e3288b07b,10:39:45,03/04/2024
,"<div style=""font-size: 10rem; color: #0000FF"">R</div>",,ospan,letter,BRLOt1MpMrRXTudc0y4bqNzXvg93,html-keyboard-response,112,1363032,0.0-46.0-4.0-0.0-1.0-1.0,,,,,,,,,,,,,,,5fecdbad0b1a449e3288b07b,10:39:45,03/04/2024
1460.0,,,ospan,symmetry,BRLOt1MpMrRXTudc0y4bqNzXvg93,symmetry-judgement-task,113,1366366,0.0-46.0-4.0-0.0-1.0-2.0,,,,,,,,,,1.0,1.0,,,,5fecdbad0b1a449e3288b07b,10:39:45,03/04/2024
,"<div style=""font-size: 10rem; color: #0000FF"">H</div>",,ospan,letter,BRLOt1MpMrRXTudc0y4bqNzXvg93,html-keyboard-response,114,1367375,0.0-46.0-4.0-0.0-1.0-3.0,,,,,,,,,,,,,,,5fecdbad0b1a449e3288b07b,10:39:45,03/04/2024
3268.0,,,ospan,symmetry,BRLOt1MpMrRXTudc0y4bqNzXvg93,symmetry-judgement-task,115,1372523,0.0-46.0-4.0-0.0-1.0-4.0,,,,,,,,,,1.0,1.0,,,,5fecdbad0b1a449e3288b07b,10:39:45,03/04/2024
,"<div style=""font-size: 10rem; color: #0000FF"">J</div>",,ospan,letter,BRLOt1MpMrRXTudc0y4bqNzXvg93,html-keyboard-response,116,1373528,0.0-46.0-4.0-0.0-1.0-5.0,,,,,,,,,,,,,,,5fecdbad0b1a449e3288b07b,10:39:45,03/04/2024
2404.0,,,ospan,symmetry,BRLOt1MpMrRXTudc0y4bqNzXvg93,symmetry-judgement-task,117,1377808,0.0-46.0-4.0-0.0-1.0-6.0,,,,,,,,,,1.0,1.0,,,,5fecdbad0b1a449e3288b07b,10:39:45,03/04/2024
,"<div style=""font-size: 10rem; color: #0000FF"">L</div>",,ospan,letter,BRLOt1MpMrRXTudc0y4bqNzXvg93,html-keyboard-response,118,1378820,0.0-46.0-4.0-0.0-1.0-7.0,,,,,,,,,,,,,,,5fecdbad0b1a449e3288b07b,10:39:45,03/04/2024
4916.29999999702,"<div class = numbox><p style=""font-size: 2.4rem"">Please recall the letters you saw to the best of your ability. If you do not remember a particular letter, use the SKIP button.<br><b>(When you are ready to lock in your answer, press ENTER)</b></p><button id = button_1 class = ""square num-button"" onclick = ""recordClick(this)""><div class = content><div class = numbers>C</div></div></button><button id = button_2 class = ""square num-button"" onclick = ""recordClick(this)""><div class = content><div class = numbers>G</div></div></button><button id = button_3 class = ""square num-button"" onclick = ""recordClick(this)""><div class = content><div class = numbers>H</div></div></button><button id = button_4 class = ""square num-button"" onclick = ""recordClick(this)""><div class = content><div class = numbers>J</div></div></button><button id = button_5 class = ""square num-button"" onclick = ""recordClick(this)""><div class = content><div class = numbers>K</div></div></button><button id = button_6 class = ""square num-button"" onclick = ""recordClick(this)""><div class = content><div class = numbers>L</div></div></button><button id = button_7 class = ""square num-button"" onclick = ""recordClick(this)""><div class = content><div class = numbers>N</div></div></button><button id = button_8 class = ""square num-button"" onclick = ""recordClick(this)""><div class = content><div class = numbers>P</div></div></button><button id = button_9 class = ""square num-button"" onclick = ""recordClick(this)""><div class = content><div class = numbers>Q</div></div></button><button id = button_10 class = ""square num-button"" onclick = ""recordClick(this)""><div class = content><div class = numbers>R</div></div></button><button id = button_11 class = ""square num-button"" onclick = ""recordClick(this)""><div class = content><div class = numbers>S</div></div></button><button id = button_12 class = ""square num-button"" onclick = ""recordClick(this)""><div class = content><div class = numbers>Y</div></div></button><button class = clear_button id = ""ClearButton"" onclick = ""clearResponse()"">BACKSPACE</button><button class = blank_button id = ""BlankButton"" onclick = ""blankResponse()"">SKIP</button><p style=""font-size: 2.4rem""><u><b>Current Answer:</b></u></p><br><br><div id=echoed_txt style=""font-size: 5rem; color:blue;""><b></b></div></div>",enter,ospan,retrieval,BRLOt1MpMrRXTudc0y4bqNzXvg93,html-keyboard-response,119,1384494,0.0-46.0-4.0-0.0-2.0,7,7,7,4.0,"[""R"",""H"",""J"",""L""]","[""R"",""H"",""J"",""L""]",1.0,4.0,,,,,,,5fecdbad0b1a449e3288b07b,10:39:45,03/04/2024
66297.29999999702,[''],0,ospan,feedback,BRLOt1MpMrRXTudc0y4bqNzXvg93,html-button-response,120,1451295,0.0-46.0-4.0-0.0-3.0,,,,,,,,,,,,100.0,0.0,,5fecdbad0b1a449e3288b07b,10:39:45,03/04/2024
,"<p style=""font-size:75px;"">...</p>",,ospan,iti,BRLOt1MpMrRXTudc0y4bqNzXvg93,html-keyboard-response,121,1452311,0.0-46.0-4.0-1.0-0.0,,,,,,,,,,,,,,,5fecdbad0b1a449e3288b07b,10:39:45,03/04/2024
2712.0,,,ospan,symmetry,BRLOt1MpMrRXTudc0y4bqNzXvg93,symmetry-judgement-task,122,1456065,0.0-46.0-4.0-1.0-1.0-0.0,,,,,,,,,,1.0,1.0,,,,5fecdbad0b1a449e3288b07b,10:39:45,03/04/2024
,"<div style=""font-size: 10rem; color: #0000FF"">J</div>",,ospan,letter,BRLOt1MpMrRXTudc0y4bqNzXvg93,html-keyboard-response,123,1457076,0.0-46.0-4.0-1.0-1.0-1.0,,,,,,,,,,,,,,,5fecdbad0b1a449e3288b07b,10:39:45,03/04/2024
1174.0,,,ospan,symmetry,BRLOt1MpMrRXTudc0y4bqNzXvg93,symmetry-judgement-task,124,1460038,0.0-46.0-4.0-1.0-1.0-2.0,,,,,,,,,,1.0,1.0,,,,5fecdbad0b1a449e3288b07b,10:39:45,03/04/2024
,"<div style=""font-size: 10rem; color: #0000FF"">N</div>",,ospan,letter,BRLOt1MpMrRXTudc0y4bqNzXvg93,html-keyboard-response,125,1461051,0.0-46.0-4.0-1.0-1.0-3.0,,,,,,,,,,,,,,,5fecdbad0b1a449e3288b07b,10:39:45,03/04/2024
1475.0,,,ospan,symmetry,BRLOt1MpMrRXTudc0y4bqNzXvg93,symmetry-judgement-task,126,1464394,0.0-46.0-4.0-1.0-1.0-4.0,,,,,,,,,,1.0,1.0,,,,5fecdbad0b1a449e3288b07b,10:39:45,03/04/2024
,"<div style=""font-size: 10rem; color: #0000FF"">G</div>",,ospan,letter,BRLOt1MpMrRXTudc0y4bqNzXvg93,html-keyboard-response,127,1465402,0.0-46.0-4.0-1.0-1.0-5.0,,,,,,,,,,,,,,,5fecdbad0b1a449e3288b07b,10:39:45,03/04/2024
1188.0,,,ospan,symmetry,BRLOt1MpMrRXTudc0y4bqNzXvg93,symmetry-judgement-task,128,1468458,0.0-46.0-4.0-1.0-1.0-6.0,,,,,,,,,,1.0,1.0,,,,5fecdbad0b1a449e3288b07b,10:39:45,03/04/2024
,"<div style=""font-size: 10rem; color: #0000FF"">L</div>",,ospan,letter,BRLOt1MpMrRXTudc0y4bqNzXvg93,html-keyboard-response,129,1469460,0.0-46.0-4.0-1.0-1.0-7.0,,,,,,,,,,,,,,,5fecdbad0b1a449e3288b07b,10:39:45,03/04/2024
1977.0,,,ospan,symmetry,BRLOt1MpMrRXTudc0y4bqNzXvg93,symmetry-judgement-task,130,1473311,0.0-46.0-4.0-1.0-1.0-8.0,,,,,,,,,,1.0,1.0,,,,5fecdbad0b1a449e3288b07b,10:39:45,03/04/2024
,"<div style=""font-size: 10rem; color: #0000FF"">Y</div>",,ospan,letter,BRLOt1MpMrRXTudc0y4bqNzXvg93,html-keyboard-response,131,1474321,0.0-46.0-4.0-1.0-1.0-9.0,,,,,,,,,,,,,,,5fecdbad0b1a449e3288b07b,10:39:45,03/04/2024
120985.5,"<div class = numbox><p style=""font-size: 2.4rem"">Please recall the letters you saw to the best of your ability. If you do not remember a particular letter, use the SKIP button.<br><b>(When you are ready to lock in your answer, press ENTER)</b></p><button id = button_1 class = ""square num-button"" onclick = ""recordClick(this)""><div class = content><div class = numbers>C</div></div></button><button id = button_2 class = ""square num-button"" onclick = ""recordClick(this)""><div class = content><div class = numbers>G</div></div></button><button id = button_3 class = ""square num-button"" onclick = ""recordClick(this)""><div class = content><div class = numbers>H</div></div></button><button id = button_4 class = ""square num-button"" onclick = ""recordClick(this)""><div class = content><div class = numbers>J</div></div></button><button id = button_5 class = ""square num-button"" onclick = ""recordClick(this)""><div class = content><div class = numbers>K</div></div></button><button id = button_6 class = ""square num-button"" onclick = ""recordClick(this)""><div class = content><div class = numbers>L</div></div></button><button id = button_7 class = ""square num-button"" onclick = ""recordClick(this)""><div class = content><div class = numbers>N</div></div></button><button id = button_8 class = ""square num-button"" onclick = ""recordClick(this)""><div class = content><div class = numbers>P</div></div></button><button id = button_9 class = ""square num-button"" onclick = ""recordClick(this)""><div class = content><div class = numbers>Q</div></div></button><button id = button_10 class = ""square num-button"" onclick = ""recordClick(this)""><div class = content><div class = numbers>R</div></div></button><button id = button_11 class = ""square num-button"" onclick = ""recordClick(this)""><div class = content><div class = numbers>S</div></div></button><button id = button_12 class = ""square num-button"" onclick = ""recordClick(this)""><div class = content><div class = numbers>Y</div></div></button><button class = clear_button id = ""ClearButton"" onclick = ""clearResponse()"">BACKSPACE</button><button class = blank_button id = ""BlankButton"" onclick = ""blankResponse()"">SKIP</button><p style=""font-size: 2.4rem""><u><b>Current Answer:</b></u></p><br><br><div id=echoed_txt style=""font-size: 5rem; color:blue;""><b></b></div></div>",enter,ospan,retrieval,BRLOt1MpMrRXTudc0y4bqNzXvg93,html-keyboard-response,132,1596065,0.0-46.0-4.0-1.0-2.0,12,12,12,5.0,"[""J"",""N"",""G"",""L"",""Y""]","[""J"",""N"",""G"",""L"",""Y""]",1.0,5.0,,,,,,,5fecdbad0b1a449e3288b07b,10:39:45,03/04/2024
2406.3999999910593,[''],0,ospan,feedback,BRLOt1MpMrRXTudc0y4bqNzXvg93,html-button-response,133,1598977,0.0-46.0-4.0-1.0-3.0,,,,,,,,,,,,100.0,0.0,,5fecdbad0b1a449e3288b07b,10:39:45,03/04/2024
,"<p style=""font-size:75px;"">...</p>",,ospan,iti,BRLOt1MpMrRXTudc0y4bqNzXvg93,html-keyboard-response,134,1599979,0.0-46.0-4.0-2.0-0.0,,,,,,,,,,,,,,,5fecdbad0b1a449e3288b07b,10:39:45,03/04/2024
1467.0,,,ospan,symmetry,BRLOt1MpMrRXTudc0y4bqNzXvg93,symmetry-judgement-task,135,1602572,0.0-46.0-4.0-2.0-1.0-0.0,,,,,,,,,,1.0,1.0,,,,5fecdbad0b1a449e3288b07b,10:39:45,03/04/2024
,"<div style=""font-size: 10rem; color: #0000FF"">N</div>",,ospan,letter,BRLOt1MpMrRXTudc0y4bqNzXvg93,html-keyboard-response,136,1603578,0.0-46.0-4.0-2.0-1.0-1.0,,,,,,,,,,,,,,,5fecdbad0b1a449e3288b07b,10:39:45,03/04/2024
3564.0,,,ospan,symmetry,BRLOt1MpMrRXTudc0y4bqNzXvg93,symmetry-judgement-task,137,1609003,0.0-46.0-4.0-2.0-1.0-2.0,,,,,,,,,,1.0,1.0,,,,5fecdbad0b1a449e3288b07b,10:39:45,03/04/2024
,"<div style=""font-size: 10rem; color: #0000FF"">G</div>",,ospan,letter,BRLOt1MpMrRXTudc0y4bqNzXvg93,html-keyboard-response,138,1610014,0.0-46.0-4.0-2.0-1.0-3.0,,,,,,,,,,,,,,,5fecdbad0b1a449e3288b07b,10:39:45,03/04/2024
2096.0,,,ospan,symmetry,BRLOt1MpMrRXTudc0y4bqNzXvg93,symmetry-judgement-task,139,1613979,0.0-46.0-4.0-2.0-1.0-4.0,,,,,,,,,,1.0,1.0,,,,5fecdbad0b1a449e3288b07b,10:39:45,03/04/2024
,"<div style=""font-size: 10rem; color: #0000FF"">R</div>",,ospan,letter,BRLOt1MpMrRXTudc0y4bqNzXvg93,html-keyboard-response,140,1614990,0.0-46.0-4.0-2.0-1.0-5.0,,,,,,,,,,,,,,,5fecdbad0b1a449e3288b07b,10:39:45,03/04/2024
4020.5999999940395,"<div class = numbox><p style=""font-size: 2.4rem"">Please recall the letters you saw to the best of your ability. If you do not remember a particular letter, use the SKIP button.<br><b>(When you are ready to lock in your answer, press ENTER)</b></p><button id = button_1 class = ""square num-button"" onclick = ""recordClick(this)""><div class = content><div class = numbers>C</div></div></button><button id = button_2 class = ""square num-button"" onclick = ""recordClick(this)""><div class = content><div class = numbers>G</div></div></button><button id = button_3 class = ""square num-button"" onclick = ""recordClick(this)""><div class = content><div class = numbers>H</div></div></button><button id = button_4 class = ""square num-button"" onclick = ""recordClick(this)""><div class = content><div class = numbers>J</div></div></button><button id = button_5 class = ""square num-button"" onclick = ""recordClick(this)""><div class = content><div class = numbers>K</div></div></button><button id = button_6 class = ""square num-button"" onclick = ""recordClick(this)""><div class = content><div class = numbers>L</div></div></button><button id = button_7 class = ""square num-button"" onclick = ""recordClick(this)""><div class = content><div class = numbers>N</div></div></button><button id = button_8 class = ""square num-button"" onclick = ""recordClick(this)""><div class = content><div class = numbers>P</div></div></button><button id = button_9 class = ""square num-button"" onclick = ""recordClick(this)""><div class = content><div class = numbers>Q</div></div></button><button id = button_10 class = ""square num-button"" onclick = ""recordClick(this)""><div class = content><div class = numbers>R</div></div></button><button id = button_11 class = ""square num-button"" onclick = ""recordClick(this)""><div class = content><div class = numbers>S</div></div></button><button id = button_12 class = ""square num-button"" onclick = ""recordClick(this)""><div class = content><div class = numbers>Y</div></div></button><button class = clear_button id = ""ClearButton"" onclick = ""clearResponse()"">BACKSPACE</button><button class = blank_button id = ""BlankButton"" onclick = ""blankResponse()"">SKIP</button><p style=""font-size: 2.4rem""><u><b>Current Answer:</b></u></p><br><br><div id=echoed_txt style=""font-size: 5rem; color:blue;""><b></b></div></div>",enter,ospan,retrieval,BRLOt1MpMrRXTudc0y4bqNzXvg93,html-keyboard-response,141,1619771,0.0-46.0-4.0-2.0-2.0,15,15,15,3.0,"[""N"",""G"",""R""]","[""N"",""G"",""R""]",1.0,3.0,,,,,,,5fecdbad0b1a449e3288b07b,10:39:45,03/04/2024
256413.70000000298,[''],0,ospan,feedback,BRLOt1MpMrRXTudc0y4bqNzXvg93,html-button-response,142,1876692,0.0-46.0-4.0-2.0-3.0,,,,,,,,,,,,100.0,0.0,,5fecdbad0b1a449e3288b07b,10:39:45,03/04/2024
,"<p style=""font-size:75px;"">...</p>",,ospan,iti,BRLOt1MpMrRXTudc0y4bqNzXvg93,html-keyboard-response,143,1877698,0.0-46.0-5.0-0.0-0.0,,,,,,,,,,,,,,,5fecdbad0b1a449e3288b07b,10:39:45,03/04/2024
1728.0,,,ospan,symmetry,BRLOt1MpMrRXTudc0y4bqNzXvg93,symmetry-judgement-task,144,1880543,0.0-46.0-5.0-0.0-1.0-0.0,,,,,,,,,,1.0,1.0,,,,5fecdbad0b1a449e3288b07b,10:39:45,03/04/2024
,"<div style=""font-size: 10rem; color: #0000FF"">Y</div>",,ospan,letter,BRLOt1MpMrRXTudc0y4bqNzXvg93,html-keyboard-response,145,1881554,0.0-46.0-5.0-0.0-1.0-1.0,,,,,,,,,,,,,,,5fecdbad0b1a449e3288b07b,10:39:45,03/04/2024
1685.0,,,ospan,symmetry,BRLOt1MpMrRXTudc0y4bqNzXvg93,symmetry-judgement-task,146,1885114,0.0-46.0-5.0-0.0-1.0-2.0,,,,,,,,,,1.0,1.0,,,,5fecdbad0b1a449e3288b07b,10:39:45,03/04/2024
,"<div style=""font-size: 10rem; color: #0000FF"">C</div>",,ospan,letter,BRLOt1MpMrRXTudc0y4bqNzXvg93,html-keyboard-response,147,1886127,0.0-46.0-5.0-0.0-1.0-3.0,,,,,,,,,,,,,,,5fecdbad0b1a449e3288b07b,10:39:45,03/04/2024
1868.0,,,ospan,symmetry,BRLOt1MpMrRXTudc0y4bqNzXvg93,symmetry-judgement-task,148,1889884,0.0-46.0-5.0-0.0-1.0-4.0,,,,,,,,,,1.0,1.0,,,,5fecdbad0b1a449e3288b07b,10:39:45,03/04/2024
,"<div style=""font-size: 10rem; color: #0000FF"">R</div>",,ospan,letter,BRLOt1MpMrRXTudc0y4bqNzXvg93,html-keyboard-response,149,1890899,0.0-46.0-5.0-0.0-1.0-5.0,,,,,,,,,,,,,,,5fecdbad0b1a449e3288b07b,10:39:45,03/04/2024
1408.0,,,ospan,symmetry,BRLOt1MpMrRXTudc0y4bqNzXvg93,symmetry-judgement-task,150,1894181,0.0-46.0-5.0-0.0-1.0-6.0,,,,,,,,,,1.0,1.0,,,,5fecdbad0b1a449e3288b07b,10:39:45,03/04/2024
,"<div style=""font-size: 10rem; color: #0000FF"">N</div>",,ospan,letter,BRLOt1MpMrRXTudc0y4bqNzXvg93,html-keyboard-response,151,1895195,0.0-46.0-5.0-0.0-1.0-7.0,,,,,,,,,,,,,,,5fecdbad0b1a449e3288b07b,10:39:45,03/04/2024
810.0,,,ospan,symmetry,BRLOt1MpMrRXTudc0y4bqNzXvg93,symmetry-judgement-task,152,1897881,0.0-46.0-5.0-0.0-1.0-8.0,,,,,,,,,,1.0,1.0,,,,5fecdbad0b1a449e3288b07b,10:39:45,03/04/2024
,"<div style=""font-size: 10rem; color: #0000FF"">K</div>",,ospan,letter,BRLOt1MpMrRXTudc0y4bqNzXvg93,html-keyboard-response,153,1898882,0.0-46.0-5.0-0.0-1.0-9.0,,,,,,,,,,,,,,,5fecdbad0b1a449e3288b07b,10:39:45,03/04/2024
1799.0,,,ospan,symmetry,BRLOt1MpMrRXTudc0y4bqNzXvg93,symmetry-judgement-task,154,1902571,0.0-46.0-5.0-0.0-1.0-10.0,,,,,,,,,,1.0,1.0,,,,5fecdbad0b1a449e3288b07b,10:39:45,03/04/2024
,"<div style=""font-size: 10rem; color: #0000FF"">L</div>",,ospan,letter,BRLOt1MpMrRXTudc0y4bqNzXvg93,html-keyboard-response,155,1903579,0.0-46.0-5.0-0.0-1.0-11.0,,,,,,,,,,,,,,,5fecdbad0b1a449e3288b07b,10:39:45,03/04/2024
54473.80000001192,"<div class = numbox><p style=""font-size: 2.4rem"">Please recall the letters you saw to the best of your ability. If you do not remember a particular letter, use the SKIP button.<br><b>(When you are ready to lock in your answer, press ENTER)</b></p><button id = button_1 class = ""square num-button"" onclick = ""recordClick(this)""><div class = content><div class = numbers>C</div></div></button><button id = button_2 class = ""square num-button"" onclick = ""recordClick(this)""><div class = content><div class = numbers>G</div></div></button><button id = button_3 class = ""square num-button"" onclick = ""recordClick(this)""><div class = content><div class = numbers>H</div></div></button><button id = button_4 class = ""square num-button"" onclick = ""recordClick(this)""><div class = content><div class = numbers>J</div></div></button><button id = button_5 class = ""square num-button"" onclick = ""recordClick(this)""><div class = content><div class = numbers>K</div></div></button><button id = button_6 class = ""square num-button"" onclick = ""recordClick(this)""><div class = content><div class = numbers>L</div></div></button><button id = button_7 class = ""square num-button"" onclick = ""recordClick(this)""><div class = content><div class = numbers>N</div></div></button><button id = button_8 class = ""square num-button"" onclick = ""recordClick(this)""><div class = content><div class = numbers>P</div></div></button><button id = button_9 class = ""square num-button"" onclick = ""recordClick(this)""><div class = content><div class = numbers>Q</div></div></button><button id = button_10 class = ""square num-button"" onclick = ""recordClick(this)""><div class = content><div class = numbers>R</div></div></button><button id = button_11 class = ""square num-button"" onclick = ""recordClick(this)""><div class = content><div class = numbers>S</div></div></button><button id = button_12 class = ""square num-button"" onclick = ""recordClick(this)""><div class = content><div class = numbers>Y</div></div></button><button class = clear_button id = ""ClearButton"" onclick = ""clearResponse()"">BACKSPACE</button><button class = blank_button id = ""BlankButton"" onclick = ""blankResponse()"">SKIP</button><p style=""font-size: 2.4rem""><u><b>Current Answer:</b></u></p><br><br><div id=echoed_txt style=""font-size: 5rem; color:blue;""><b></b></div></div>",enter,ospan,retrieval,BRLOt1MpMrRXTudc0y4bqNzXvg93,html-keyboard-response,156,1958812,0.0-46.0-5.0-0.0-2.0,21,20,15,6.0,"[""Y"",""C"",""R"",""N"",""K"",""Y""]","[""Y"",""C"",""R"",""N"",""K"",""L""]",0.0,5.0,,,,,,,5fecdbad0b1a449e3288b07b,10:39:45,03/04/2024
1936.5,[''],0,ospan,feedback,BRLOt1MpMrRXTudc0y4bqNzXvg93,html-button-response,157,1961265,0.0-46.0-5.0-0.0-3.0,,,,,,,,,,,,100.0,0.0,,5fecdbad0b1a449e3288b07b,10:39:45,03/04/2024
,"<p style=""font-size:75px;"">...</p>",,ospan,iti,BRLOt1MpMrRXTudc0y4bqNzXvg93,html-keyboard-response,158,1962277,0.0-46.0-5.0-1.0-0.0,,,,,,,,,,,,,,,5fecdbad0b1a449e3288b07b,10:39:45,03/04/2024
2567.0,,,ospan,symmetry,BRLOt1MpMrRXTudc0y4bqNzXvg93,symmetry-judgement-task,159,1965960,0.0-46.0-5.0-1.0-1.0-0.0,,,,,,,,,,1.0,1.0,,,,5fecdbad0b1a449e3288b07b,10:39:45,03/04/2024
,"<div style=""font-size: 10rem; color: #0000FF"">L</div>",,ospan,letter,BRLOt1MpMrRXTudc0y4bqNzXvg93,html-keyboard-response,160,1966972,0.0-46.0-5.0-1.0-1.0-1.0,,,,,,,,,,,,,,,5fecdbad0b1a449e3288b07b,10:39:45,03/04/2024
1349.0,,,ospan,symmetry,BRLOt1MpMrRXTudc0y4bqNzXvg93,symmetry-judgement-task,161,1970199,0.0-46.0-5.0-1.0-1.0-2.0,,,,,,,,,,1.0,1.0,,,,5fecdbad0b1a449e3288b07b,10:39:45,03/04/2024
,"<div style=""font-size: 10rem; color: #0000FF"">K</div>",,ospan,letter,BRLOt1MpMrRXTudc0y4bqNzXvg93,html-keyboard-response,162,1971210,0.0-46.0-5.0-1.0-1.0-3.0,,,,,,,,,,,,,,,5fecdbad0b1a449e3288b07b,10:39:45,03/04/2024
1484.0,,,ospan,symmetry,BRLOt1MpMrRXTudc0y4bqNzXvg93,symmetry-judgement-task,163,1974563,0.0-46.0-5.0-1.0-1.0-4.0,,,,,,,,,,1.0,1.0,,,,5fecdbad0b1a449e3288b07b,10:39:45,03/04/2024
,"<div style=""font-size: 10rem; color: #0000FF"">G</div>",,ospan,letter,BRLOt1MpMrRXTudc0y4bqNzXvg93,html-keyboard-response,164,1975573,0.0-46.0-5.0-1.0-1.0-5.0,,,,,,,,,,,,,,,5fecdbad0b1a449e3288b07b,10:39:45,03/04/2024
1681.0,,,ospan,symmetry,BRLOt1MpMrRXTudc0y4bqNzXvg93,symmetry-judgement-task,165,1979125,0.0-46.0-5.0-1.0-1.0-6.0,,,,,,,,,,1.0,1.0,,,,5fecdbad0b1a449e3288b07b,10:39:45,03/04/2024
,"<div style=""font-size: 10rem; color: #0000FF"">C</div>",,ospan,letter,BRLOt1MpMrRXTudc0y4bqNzXvg93,html-keyboard-response,166,1980140,0.0-46.0-5.0-1.0-1.0-7.0,,,,,,,,,,,,,,,5fecdbad0b1a449e3288b07b,10:39:45,03/04/2024
1498.0,,,ospan,symmetry,BRLOt1MpMrRXTudc0y4bqNzXvg93,symmetry-judgement-task,167,1983519,0.0-46.0-5.0-1.0-1.0-8.0,,,,,,,,,,1.0,1.0,,,,5fecdbad0b1a449e3288b07b,10:39:45,03/04/2024
,"<div style=""font-size: 10rem; color: #0000FF"">P</div>",,ospan,letter,BRLOt1MpMrRXTudc0y4bqNzXvg93,html-keyboard-response,168,1984531,0.0-46.0-5.0-1.0-1.0-9.0,,,,,,,,,,,,,,,5fecdbad0b1a449e3288b07b,10:39:45,03/04/2024
1149.0,,,ospan,symmetry,BRLOt1MpMrRXTudc0y4bqNzXvg93,symmetry-judgement-task,169,1987550,0.0-46.0-5.0-1.0-1.0-10.0,,,,,,,,,,1.0,1.0,,,,5fecdbad0b1a449e3288b07b,10:39:45,03/04/2024
,"<div style=""font-size: 10rem; color: #0000FF"">J</div>",,ospan,letter,BRLOt1MpMrRXTudc0y4bqNzXvg93,html-keyboard-response,170,1988557,0.0-46.0-5.0-1.0-1.0-11.0,,,,,,,,,,,,,,,5fecdbad0b1a449e3288b07b,10:39:45,03/04/2024
1509.0,,,ospan,symmetry,BRLOt1MpMrRXTudc0y4bqNzXvg93,symmetry-judgement-task,171,1991940,0.0-46.0-5.0-1.0-1.0-12.0,,,,,,,,,,1.0,1.0,,,,5fecdbad0b1a449e3288b07b,10:39:45,03/04/2024
,"<div style=""font-size: 10rem; color: #0000FF"">R</div>",,ospan,letter,BRLOt1MpMrRXTudc0y4bqNzXvg93,html-keyboard-response,172,1992948,0.0-46.0-5.0-1.0-1.0-13.0,,,,,,,,,,,,,,,5fecdbad0b1a449e3288b07b,10:39:45,03/04/2024
11282.09999999404,"<div class = numbox><p style=""font-size: 2.4rem"">Please recall the letters you saw to the best of your ability. If you do not remember a particular letter, use the SKIP button.<br><b>(When you are ready to lock in your answer, press ENTER)</b></p><button id = button_1 class = ""square num-button"" onclick = ""recordClick(this)""><div class = content><div class = numbers>C</div></div></button><button id = button_2 class = ""square num-button"" onclick = ""recordClick(this)""><div class = content><div class = numbers>G</div></div></button><button id = button_3 class = ""square num-button"" onclick = ""recordClick(this)""><div class = content><div class = numbers>H</div></div></button><button id = button_4 class = ""square num-button"" onclick = ""recordClick(this)""><div class = content><div class = numbers>J</div></div></button><button id = button_5 class = ""square num-button"" onclick = ""recordClick(this)""><div class = content><div class = numbers>K</div></div></button><button id = button_6 class = ""square num-button"" onclick = ""recordClick(this)""><div class = content><div class = numbers>L</div></div></button><button id = button_7 class = ""square num-button"" onclick = ""recordClick(this)""><div class = content><div class = numbers>N</div></div></button><button id = button_8 class = ""square num-button"" onclick = ""recordClick(this)""><div class = content><div class = numbers>P</div></div></button><button id = button_9 class = ""square num-button"" onclick = ""recordClick(this)""><div class = content><div class = numbers>Q</div></div></button><button id = button_10 class = ""square num-button"" onclick = ""recordClick(this)""><div class = content><div class = numbers>R</div></div></button><button id = button_11 class = ""square num-button"" onclick = ""recordClick(this)""><div class = content><div class = numbers>S</div></div></button><button id = button_12 class = ""square num-button"" onclick = ""recordClick(this)""><div class = content><div class = numbers>Y</div></div></button><button class = clear_button id = ""ClearButton"" onclick = ""clearResponse()"">BACKSPACE</button><button class = blank_button id = ""BlankButton"" onclick = ""blankResponse()"">SKIP</button><p style=""font-size: 2.4rem""><u><b>Current Answer:</b></u></p><br><br><div id=echoed_txt style=""font-size: 5rem; color:blue;""><b></b></div></div>",enter,ospan,retrieval,BRLOt1MpMrRXTudc0y4bqNzXvg93,html-keyboard-response,173,2004993,0.0-46.0-5.0-1.0-2.0,28,27,22,7.0,"[""L"",""K"",""G"",""C"",""P"",""J"",""R""]","[""L"",""K"",""G"",""C"",""P"",""J"",""R""]",1.0,7.0,,,,,,,5fecdbad0b1a449e3288b07b,10:39:45,03/04/2024
764.7000000029802,[''],0,ospan,feedback,BRLOt1MpMrRXTudc0y4bqNzXvg93,html-button-response,174,2006262,0.0-46.0-5.0-1.0-3.0,,,,,,,,,,,,100.0,0.0,,5fecdbad0b1a449e3288b07b,10:39:45,03/04/2024
,"<p style=""font-size:75px;"">...</p>",,ospan,iti,BRLOt1MpMrRXTudc0y4bqNzXvg93,html-keyboard-response,175,2007266,0.0-46.0-6.0-0.0-0.0,,,,,,,,,,,,,,,5fecdbad0b1a449e3288b07b,10:39:45,03/04/2024
2128.0,,,ospan,symmetry,BRLOt1MpMrRXTudc0y4bqNzXvg93,symmetry-judgement-task,176,2010510,0.0-46.0-6.0-0.0-1.0-0.0,,,,,,,,,,1.0,1.0,,,,5fecdbad0b1a449e3288b07b,10:39:45,03/04/2024
,"<div style=""font-size: 10rem; color: #0000FF"">S</div>",,ospan,letter,BRLOt1MpMrRXTudc0y4bqNzXvg93,html-keyboard-response,177,2011513,0.0-46.0-6.0-0.0-1.0-1.0,,,,,,,,,,,,,,,5fecdbad0b1a449e3288b07b,10:39:45,03/04/2024
1777.0,,,ospan,symmetry,BRLOt1MpMrRXTudc0y4bqNzXvg93,symmetry-judgement-task,178,2015171,0.0-46.0-6.0-0.0-1.0-2.0,,,,,,,,,,1.0,1.0,,,,5fecdbad0b1a449e3288b07b,10:39:45,03/04/2024
,"<div style=""font-size: 10rem; color: #0000FF"">G</div>",,ospan,letter,BRLOt1MpMrRXTudc0y4bqNzXvg93,html-keyboard-response,179,2016183,0.0-46.0-6.0-0.0-1.0-3.0,,,,,,,,,,,,,,,5fecdbad0b1a449e3288b07b,10:39:45,03/04/2024
1845.0,,,ospan,symmetry,BRLOt1MpMrRXTudc0y4bqNzXvg93,symmetry-judgement-task,180,2019908,0.0-46.0-6.0-0.0-1.0-4.0,,,,,,,,,,1.0,1.0,,,,5fecdbad0b1a449e3288b07b,10:39:45,03/04/2024
,"<div style=""font-size: 10rem; color: #0000FF"">H</div>",,ospan,letter,BRLOt1MpMrRXTudc0y4bqNzXvg93,html-keyboard-response,181,2020917,0.0-46.0-6.0-0.0-1.0-5.0,,,,,,,,,,,,,,,5fecdbad0b1a449e3288b07b,10:39:45,03/04/2024
1732.0,,,ospan,symmetry,BRLOt1MpMrRXTudc0y4bqNzXvg93,symmetry-judgement-task,182,2024518,0.0-46.0-6.0-0.0-1.0-6.0,,,,,,,,,,1.0,1.0,,,,5fecdbad0b1a449e3288b07b,10:39:45,03/04/2024
,"<div style=""font-size: 10rem; color: #0000FF"">K</div>",,ospan,letter,BRLOt1MpMrRXTudc0y4bqNzXvg93,html-keyboard-response,183,2025531,0.0-46.0-6.0-0.0-1.0-7.0,,,,,,,,,,,,,,,5fecdbad0b1a449e3288b07b,10:39:45,03/04/2024
1047.0,,,ospan,symmetry,BRLOt1MpMrRXTudc0y4bqNzXvg93,symmetry-judgement-task,184,2028453,0.0-46.0-6.0-0.0-1.0-8.0,,,,,,,,,,1.0,1.0,,,,5fecdbad0b1a449e3288b07b,10:39:45,03/04/2024
,"<div style=""font-size: 10rem; color: #0000FF"">N</div>",,ospan,letter,BRLOt1MpMrRXTudc0y4bqNzXvg93,html-keyboard-response,185,2029468,0.0-46.0-6.0-0.0-1.0-9.0,,,,,,,,,,,,,,,5fecdbad0b1a449e3288b07b,10:39:45,03/04/2024
11812.79999999702,"<div class = numbox><p style=""font-size: 2.4rem"">Please recall the letters you saw to the best of your ability. If you do not remember a particular letter, use the SKIP button.<br><b>(When you are ready to lock in your answer, press ENTER)</b></p><button id = button_1 class = ""square num-button"" onclick = ""recordClick(this)""><div class = content><div class = numbers>C</div></div></button><button id = button_2 class = ""square num-button"" onclick = ""recordClick(this)""><div class = content><div class = numbers>G</div></div></button><button id = button_3 class = ""square num-button"" onclick = ""recordClick(this)""><div class = content><div class = numbers>H</div></div></button><button id = button_4 class = ""square num-button"" onclick = ""recordClick(this)""><div class = content><div class = numbers>J</div></div></button><button id = button_5 class = ""square num-button"" onclick = ""recordClick(this)""><div class = content><div class = numbers>K</div></div></button><button id = button_6 class = ""square num-button"" onclick = ""recordClick(this)""><div class = content><div class = numbers>L</div></div></button><button id = button_7 class = ""square num-button"" onclick = ""recordClick(this)""><div class = content><div class = numbers>N</div></div></button><button id = button_8 class = ""square num-button"" onclick = ""recordClick(this)""><div class = content><div class = numbers>P</div></div></button><button id = button_9 class = ""square num-button"" onclick = ""recordClick(this)""><div class = content><div class = numbers>Q</div></div></button><button id = button_10 class = ""square num-button"" onclick = ""recordClick(this)""><div class = content><div class = numbers>R</div></div></button><button id = button_11 class = ""square num-button"" onclick = ""recordClick(this)""><div class = content><div class = numbers>S</div></div></button><button id = button_12 class = ""square num-button"" onclick = ""recordClick(this)""><div class = content><div class = numbers>Y</div></div></button><button class = clear_button id = ""ClearButton"" onclick = ""clearResponse()"">BACKSPACE</button><button class = blank_button id = ""BlankButton"" onclick = ""blankResponse()"">SKIP</button><p style=""font-size: 2.4rem""><u><b>Current Answer:</b></u></p><br><br><div id=echoed_txt style=""font-size: 5rem; color:blue;""><b></b></div></div>",enter,ospan,retrieval,BRLOt1MpMrRXTudc0y4bqNzXvg93,html-keyboard-response,186,2042046,0.0-46.0-6.0-0.0-2.0,33,30,22,5.0,"[""S"",""J"",""H"",""K"",""R""]","[""S"",""G"",""H"",""K"",""N""]",0.0,3.0,,,,,,,5fecdbad0b1a449e3288b07b,10:39:45,03/04/2024
870.8000000119209,[''],0,ospan,feedback,BRLOt1MpMrRXTudc0y4bqNzXvg93,html-button-response,187,2043424,0.0-46.0-6.0-0.0-3.0,,,,,,,,,,,,100.0,0.0,,5fecdbad0b1a449e3288b07b,10:39:45,03/04/2024
,"<p style=""font-size:75px;"">...</p>",,ospan,iti,BRLOt1MpMrRXTudc0y4bqNzXvg93,html-keyboard-response,188,2044439,0.0-46.0-6.0-1.0-0.0,,,,,,,,,,,,,,,5fecdbad0b1a449e3288b07b,10:39:45,03/04/2024
2376.0,,,ospan,symmetry,BRLOt1MpMrRXTudc0y4bqNzXvg93,symmetry-judgement-task,189,2047934,0.0-46.0-6.0-1.0-1.0-0.0,,,,,,,,,,1.0,1.0,,,,5fecdbad0b1a449e3288b07b,10:39:45,03/04/2024
,"<div style=""font-size: 10rem; color: #0000FF"">Y</div>",,ospan,letter,BRLOt1MpMrRXTudc0y4bqNzXvg93,html-keyboard-response,190,2048938,0.0-46.0-6.0-1.0-1.0-1.0,,,,,,,,,,,,,,,5fecdbad0b1a449e3288b07b,10:39:45,03/04/2024
974.0,,,ospan,symmetry,BRLOt1MpMrRXTudc0y4bqNzXvg93,symmetry-judgement-task,191,2051797,0.0-46.0-6.0-1.0-1.0-2.0,,,,,,,,,,1.0,1.0,,,,5fecdbad0b1a449e3288b07b,10:39:45,03/04/2024
,"<div style=""font-size: 10rem; color: #0000FF"">K</div>",,ospan,letter,BRLOt1MpMrRXTudc0y4bqNzXvg93,html-keyboard-response,192,2052806,0.0-46.0-6.0-1.0-1.0-3.0,,,,,,,,,,,,,,,5fecdbad0b1a449e3288b07b,10:39:45,03/04/2024
783.0,,,ospan,symmetry,BRLOt1MpMrRXTudc0y4bqNzXvg93,symmetry-judgement-task,193,2055463,0.0-46.0-6.0-1.0-1.0-4.0,,,,,,,,,,1.0,1.0,,,,5fecdbad0b1a449e3288b07b,10:39:45,03/04/2024
,"<div style=""font-size: 10rem; color: #0000FF"">S</div>",,ospan,letter,BRLOt1MpMrRXTudc0y4bqNzXvg93,html-keyboard-response,194,2056469,0.0-46.0-6.0-1.0-1.0-5.0,,,,,,,,,,,,,,,5fecdbad0b1a449e3288b07b,10:39:45,03/04/2024
3510.0,,,ospan,symmetry,BRLOt1MpMrRXTudc0y4bqNzXvg93,symmetry-judgement-task,195,2061859,0.0-46.0-6.0-1.0-1.0-6.0,,,,,,,,,,1.0,1.0,,,,5fecdbad0b1a449e3288b07b,10:39:45,03/04/2024
,"<div style=""font-size: 10rem; color: #0000FF"">G</div>",,ospan,letter,BRLOt1MpMrRXTudc0y4bqNzXvg93,html-keyboard-response,196,2062864,0.0-46.0-6.0-1.0-1.0-7.0,,,,,,,,,,,,,,,5fecdbad0b1a449e3288b07b,10:39:45,03/04/2024
817.0,,,ospan,symmetry,BRLOt1MpMrRXTudc0y4bqNzXvg93,symmetry-judgement-task,197,2065567,0.0-46.0-6.0-1.0-1.0-8.0,,,,,,,,,,1.0,1.0,,,,5fecdbad0b1a449e3288b07b,10:39:45,03/04/2024
,"<div style=""font-size: 10rem; color: #0000FF"">C</div>",,ospan,letter,BRLOt1MpMrRXTudc0y4bqNzXvg93,html-keyboard-response,198,2066572,0.0-46.0-6.0-1.0-1.0-9.0,,,,,,,,,,,,,,,5fecdbad0b1a449e3288b07b,10:39:45,03/04/2024
1059.0,,,ospan,symmetry,BRLOt1MpMrRXTudc0y4bqNzXvg93,symmetry-judgement-task,199,2069493,0.0-46.0-6.0-1.0-1.0-10.0,,,,,,,,,,1.0,1.0,,,,5fecdbad0b1a449e3288b07b,10:39:45,03/04/2024
,"<div style=""font-size: 10rem; color: #0000FF"">N</div>",,ospan,letter,BRLOt1MpMrRXTudc0y4bqNzXvg93,html-keyboard-response,200,2070494,0.0-46.0-6.0-1.0-1.0-11.0,,,,,,,,,,,,,,,5fecdbad0b1a449e3288b07b,10:39:45,03/04/2024
1188.0,,,ospan,symmetry,BRLOt1MpMrRXTudc0y4bqNzXvg93,symmetry-judgement-task,201,2073560,0.0-46.0-6.0-1.0-1.0-12.0,,,,,,,,,,1.0,1.0,,,,5fecdbad0b1a449e3288b07b,10:39:45,03/04/2024
,"<div style=""font-size: 10rem; color: #0000FF"">J</div>",,ospan,letter,BRLOt1MpMrRXTudc0y4bqNzXvg93,html-keyboard-response,202,2074573,0.0-46.0-6.0-1.0-1.0-13.0,,,,,,,,,,,,,,,5fecdbad0b1a449e3288b07b,10:39:45,03/04/2024
1222.0,,,ospan,symmetry,BRLOt1MpMrRXTudc0y4bqNzXvg93,symmetry-judgement-task,203,2077673,0.0-46.0-6.0-1.0-1.0-14.0,,,,,,,,,,1.0,1.0,,,,5fecdbad0b1a449e3288b07b,10:39:45,03/04/2024
,"<div style=""font-size: 10rem; color: #0000FF"">Q</div>",,ospan,letter,BRLOt1MpMrRXTudc0y4bqNzXvg93,html-keyboard-response,204,2078677,0.0-46.0-6.0-1.0-1.0-15.0,,,,,,,,,,,,,,,5fecdbad0b1a449e3288b07b,10:39:45,03/04/2024
10958.79999999702,"<div class = numbox><p style=""font-size: 2.4rem"">Please recall the letters you saw to the best of your ability. If you do not remember a particular letter, use the SKIP button.<br><b>(When you are ready to lock in your answer, press ENTER)</b></p><button id = button_1 class = ""square num-button"" onclick = ""recordClick(this)""><div class = content><div class = numbers>C</div></div></button><button id = button_2 class = ""square num-button"" onclick = ""recordClick(this)""><div class = content><div class = numbers>G</div></div></button><button id = button_3 class = ""square num-button"" onclick = ""recordClick(this)""><div class = content><div class = numbers>H</div></div></button><button id = button_4 class = ""square num-button"" onclick = ""recordClick(this)""><div class = content><div class = numbers>J</div></div></button><button id = button_5 class = ""square num-button"" onclick = ""recordClick(this)""><div class = content><div class = numbers>K</div></div></button><button id = button_6 class = ""square num-button"" onclick = ""recordClick(this)""><div class = content><div class = numbers>L</div></div></button><button id = button_7 class = ""square num-button"" onclick = ""recordClick(this)""><div class = content><div class = numbers>N</div></div></button><button id = button_8 class = ""square num-button"" onclick = ""recordClick(this)""><div class = content><div class = numbers>P</div></div></button><button id = button_9 class = ""square num-button"" onclick = ""recordClick(this)""><div class = content><div class = numbers>Q</div></div></button><button id = button_10 class = ""square num-button"" onclick = ""recordClick(this)""><div class = content><div class = numbers>R</div></div></button><button id = button_11 class = ""square num-button"" onclick = ""recordClick(this)""><div class = content><div class = numbers>S</div></div></button><button id = button_12 class = ""square num-button"" onclick = ""recordClick(this)""><div class = content><div class = numbers>Y</div></div></button><button class = clear_button id = ""ClearButton"" onclick = ""clearResponse()"">BACKSPACE</button><button class = blank_button id = ""BlankButton"" onclick = ""blankResponse()"">SKIP</button><p style=""font-size: 2.4rem""><u><b>Current Answer:</b></u></p><br><br><div id=echoed_txt style=""font-size: 5rem; color:blue;""><b></b></div></div>",enter,ospan,retrieval,BRLOt1MpMrRXTudc0y4bqNzXvg93,html-keyboard-response,205,2090401,0.0-46.0-6.0-1.0-2.0,41,34,22,8.0,"[""Y"",""K"",""S"",""G"",""N"",""J"",""K""]","[""Y"",""K"",""S"",""G"",""C"",""N"",""J"",""Q""]",0.0,4.0,,,,,,,5fecdbad0b1a449e3288b07b,10:39:45,03/04/2024
1046.5999999940395,[''],0,ospan,feedback,BRLOt1MpMrRXTudc0y4bqNzXvg93,html-button-response,206,2091965,0.0-46.0-6.0-1.0-3.0,,,,,,,,,,,,100.0,0.0,,5fecdbad0b1a449e3288b07b,10:39:45,03/04/2024
6170.5,,{'Q0': 'all good'},ospan,survey_ospan,BRLOt1MpMrRXTudc0y4bqNzXvg93,lmdlab-survey-text,207,2098891,0.0-46.0-7.0,,,,,,,,,,,,,,BRLOt1MpMrRXTudc0y4bqNzXvg93,5fecdbad0b1a449e3288b07b,10:39:45,03/04/2024
930.7999999970198,<p><p style='font-size: 3rem'>Great work!<br><br>This completes the symmetry and memory task.</p><br><br><br>,0,ospan,finish,BRLOt1MpMrRXTudc0y4bqNzXvg93,html-button-response,208,2099826,0.0-46.0-8.0,41,34,22,,,,,,,,,100.0,,,5fecdbad0b1a449e3288b07b,10:39:45,03/04/2024
