rt,stimulus,response,exp_name,exp_stage,subjectID,trial_type,trial_index,time_elapsed,internal_node_id,ospan_shown,ospan_total,ospan_abs,length,resp_actual,resp_correct,full_correct,num_correct,feedback,accuracy,correct,math_acc,math_warning,databaseID,prolificID,start_time,date
5455.5,<div class = 'left_align' style='font-size: 3.25rem; line-height: 1.3;'><p class = 'center_align'><b>Welcome to the Symmetry and Memory Task</b><br><br><br><br></p>Press 'continue' to show the instructions.<br><br><br><br></div>,0,ospan,instruct,k0JnQ1HULeUzGs3zNEed8PJVT0u1,html-button-response,51,789356,0.0-43.0-0.0-0.0-0.0,,,,,,,,,,,,,,,60db09ba98a44872897cc587,09:54:05,05/03/2024
16792.100000023842,"<div class = 'left_align' style='font-size: 3.25rem; line-height: 1.3;'><p class = 'center_align'><b>Symmetry and Memory Task</b><br><br></p>In this task, you will try to memorize letters you see on the screen<br>while you also view black and white grid pictures.<br><br>In the next few minutes, you will have some practice to get you familiar<br>with how the task works.<br><br>It may be difficult sometimes, but please do not worry about making mistakes!<br><br>We will begin by practicing the letter part of the task.<br><br><br><br></div>",0,ospan,instruct,k0JnQ1HULeUzGs3zNEed8PJVT0u1,html-button-response,52,806415,0.0-43.0-0.0-0.0-1.0,,,,,,,,,,,,,,,60db09ba98a44872897cc587,09:54:05,05/03/2024
14125.299999952316,"<div class = 'left_align' style='font-size: 3.25rem; line-height: 1.3;'>For this practice part, letters will appear on the screen one at a time.<br><br>Try to remember each letter in the order presented.<br><br>After some letters have been shown, you will see a response screen. Your<br>goal is to report the letters you saw <b>in order</b>. If you do not remember<br>a particular letter, you will have the option to leave it blank.<br><br><br><br></div>",0,ospan,instruct,k0JnQ1HULeUzGs3zNEed8PJVT0u1,html-button-response,53,820796,0.0-43.0-0.0-0.0-2.0,,,,,,,,,,,,,,,60db09ba98a44872897cc587,09:54:05,05/03/2024
5254.199999928474,"<div class = 'left_align' style='font-size: 3.25rem; line-height: 1.3;'>Remember, it is very important to get the letters in the same<br>order as you see them.<br><br>When you are ready, you may begin the letter practice.</div><br><br><br><br>",0,ospan,instruct,k0JnQ1HULeUzGs3zNEed8PJVT0u1,html-button-response,54,826306,0.0-43.0-0.0-0.0-3.0,,,,,,,,,,,,,,,60db09ba98a44872897cc587,09:54:05,05/03/2024
,"<p style=""font-size:75px;"">...</p>",,ospan,iti,k0JnQ1HULeUzGs3zNEed8PJVT0u1,html-keyboard-response,55,827575,0.0-43.0-0.0-1.0-0.0,,,,,,,,,,,,,,,60db09ba98a44872897cc587,09:54:05,05/03/2024
,"<div style=""font-size: 10rem; color: #0000FF"">K</div>",,ospan,letter,k0JnQ1HULeUzGs3zNEed8PJVT0u1,html-keyboard-response,56,828591,0.0-43.0-0.0-1.0-1.0,,,,,,,,,,,,,,,60db09ba98a44872897cc587,09:54:05,05/03/2024
,"<div style=""font-size: 10rem; color: #0000FF"">R</div>",,ospan,letter,k0JnQ1HULeUzGs3zNEed8PJVT0u1,html-keyboard-response,57,830356,0.0-43.0-0.0-1.0-2.0,,,,,,,,,,,,,,,60db09ba98a44872897cc587,09:54:05,05/03/2024
24822.399999976158,"<div class = numbox><p style=""font-size: 2.4rem"">Please recall the letters you saw to the best of your ability. If you do not remember a particular letter, use the SKIP button.<br><b>(When you are ready to lock in your answer, press ENTER)</b></p><button id = button_1 class = ""square num-button"" onclick = ""recordClick(this)""><div class = content><div class = numbers>C</div></div></button><button id = button_2 class = ""square num-button"" onclick = ""recordClick(this)""><div class = content><div class = numbers>G</div></div></button><button id = button_3 class = ""square num-button"" onclick = ""recordClick(this)""><div class = content><div class = numbers>H</div></div></button><button id = button_4 class = ""square num-button"" onclick = ""recordClick(this)""><div class = content><div class = numbers>J</div></div></button><button id = button_5 class = ""square num-button"" onclick = ""recordClick(this)""><div class = content><div class = numbers>K</div></div></button><button id = button_6 class = ""square num-button"" onclick = ""recordClick(this)""><div class = content><div class = numbers>L</div></div></button><button id = button_7 class = ""square num-button"" onclick = ""recordClick(this)""><div class = content><div class = numbers>N</div></div></button><button id = button_8 class = ""square num-button"" onclick = ""recordClick(this)""><div class = content><div class = numbers>P</div></div></button><button id = button_9 class = ""square num-button"" onclick = ""recordClick(this)""><div class = content><div class = numbers>Q</div></div></button><button id = button_10 class = ""square num-button"" onclick = ""recordClick(this)""><div class = content><div class = numbers>R</div></div></button><button id = button_11 class = ""square num-button"" onclick = ""recordClick(this)""><div class = content><div class = numbers>S</div></div></button><button id = button_12 class = ""square num-button"" onclick = ""recordClick(this)""><div class = content><div class = numbers>Y</div></div></button><button class = clear_button id = ""ClearButton"" onclick = ""clearResponse()"">BACKSPACE</button><button class = blank_button id = ""BlankButton"" onclick = ""blankResponse()"">SKIP</button><p style=""font-size: 2.4rem""><u><b>Current Answer:</b></u></p><br><br><div id=echoed_txt style=""font-size: 5rem; color:blue;""><b></b></div></div>",enter,ospan,retrieval,k0JnQ1HULeUzGs3zNEed8PJVT0u1,html-keyboard-response,58,855944,0.0-43.0-0.0-1.0-3.0,NA,NA,NA,2.0,"[""K"",""R"",""R"",""R""]","[""K"",""R""]",1.0,2.0,"['<font color=""green"">K</font>', '<font color=""green"">R</font>']",,,,,,60db09ba98a44872897cc587,09:54:05,05/03/2024
2242.600000023842,"['<p style=""font-size:44px"">Letters:<br><br><br><font color=""green"">K</font> <font color=""green"">R</font></p><br><br>']",0,ospan,practice_feedback,k0JnQ1HULeUzGs3zNEed8PJVT0u1,html-button-response,59,858698,0.0-43.0-0.0-1.0-4.0,,,,,,,,,,,,,,,60db09ba98a44872897cc587,09:54:05,05/03/2024
,"<p style=""font-size:75px;"">...</p>",,ospan,iti,k0JnQ1HULeUzGs3zNEed8PJVT0u1,html-keyboard-response,60,859707,0.0-43.0-0.0-2.0-0.0,,,,,,,,,,,,,,,60db09ba98a44872897cc587,09:54:05,05/03/2024
,"<div style=""font-size: 10rem; color: #0000FF"">H</div>",,ospan,letter,k0JnQ1HULeUzGs3zNEed8PJVT0u1,html-keyboard-response,61,860723,0.0-43.0-0.0-2.0-1.0,,,,,,,,,,,,,,,60db09ba98a44872897cc587,09:54:05,05/03/2024
,"<div style=""font-size: 10rem; color: #0000FF"">K</div>",,ospan,letter,k0JnQ1HULeUzGs3zNEed8PJVT0u1,html-keyboard-response,62,862489,0.0-43.0-0.0-2.0-2.0,,,,,,,,,,,,,,,60db09ba98a44872897cc587,09:54:05,05/03/2024
,"<div style=""font-size: 10rem; color: #0000FF"">C</div>",,ospan,letter,k0JnQ1HULeUzGs3zNEed8PJVT0u1,html-keyboard-response,63,864259,0.0-43.0-0.0-2.0-3.0,,,,,,,,,,,,,,,60db09ba98a44872897cc587,09:54:05,05/03/2024
6936.199999928474,"<div class = numbox><p style=""font-size: 2.4rem"">Please recall the letters you saw to the best of your ability. If you do not remember a particular letter, use the SKIP button.<br><b>(When you are ready to lock in your answer, press ENTER)</b></p><button id = button_1 class = ""square num-button"" onclick = ""recordClick(this)""><div class = content><div class = numbers>C</div></div></button><button id = button_2 class = ""square num-button"" onclick = ""recordClick(this)""><div class = content><div class = numbers>G</div></div></button><button id = button_3 class = ""square num-button"" onclick = ""recordClick(this)""><div class = content><div class = numbers>H</div></div></button><button id = button_4 class = ""square num-button"" onclick = ""recordClick(this)""><div class = content><div class = numbers>J</div></div></button><button id = button_5 class = ""square num-button"" onclick = ""recordClick(this)""><div class = content><div class = numbers>K</div></div></button><button id = button_6 class = ""square num-button"" onclick = ""recordClick(this)""><div class = content><div class = numbers>L</div></div></button><button id = button_7 class = ""square num-button"" onclick = ""recordClick(this)""><div class = content><div class = numbers>N</div></div></button><button id = button_8 class = ""square num-button"" onclick = ""recordClick(this)""><div class = content><div class = numbers>P</div></div></button><button id = button_9 class = ""square num-button"" onclick = ""recordClick(this)""><div class = content><div class = numbers>Q</div></div></button><button id = button_10 class = ""square num-button"" onclick = ""recordClick(this)""><div class = content><div class = numbers>R</div></div></button><button id = button_11 class = ""square num-button"" onclick = ""recordClick(this)""><div class = content><div class = numbers>S</div></div></button><button id = button_12 class = ""square num-button"" onclick = ""recordClick(this)""><div class = content><div class = numbers>Y</div></div></button><button class = clear_button id = ""ClearButton"" onclick = ""clearResponse()"">BACKSPACE</button><button class = blank_button id = ""BlankButton"" onclick = ""blankResponse()"">SKIP</button><p style=""font-size: 2.4rem""><u><b>Current Answer:</b></u></p><br><br><div id=echoed_txt style=""font-size: 5rem; color:blue;""><b></b></div></div>",enter,ospan,retrieval,k0JnQ1HULeUzGs3zNEed8PJVT0u1,html-keyboard-response,64,871956,0.0-43.0-0.0-2.0-4.0,NA,NA,NA,3.0,"[""H"",""K"",""C""]","[""H"",""K"",""C""]",1.0,3.0,"['<font color=""green"">H</font>', '<font color=""green"">K</font>', '<font color=""green"">C</font>']",,,,,,60db09ba98a44872897cc587,09:54:05,05/03/2024
1671.2999999523163,"['<p style=""font-size:44px"">Letters:<br><br><br><font color=""green"">H</font> <font color=""green"">K</font> <font color=""green"">C</font></p><br><br>']",0,ospan,practice_feedback,k0JnQ1HULeUzGs3zNEed8PJVT0u1,html-button-response,65,874142,0.0-43.0-0.0-2.0-5.0,,,,,,,,,,,,,,,60db09ba98a44872897cc587,09:54:05,05/03/2024
33344.89999997616,"<div class = 'left_align' style='font-size: 3.25rem; line-height: 1.3;'>Now you will practice doing the <b>symmetry judgment part</b> of the experiment.<br><br>A black and white grid picture will appear on the screen and you have to judge if it is <br>symmetrical or asymetrical.<br><br>A picture is 'mirror' symmetrical if its left half is identical to the right half when flipped.<br>Here are examples of a symmetrical and an asymetrical picture:<br><br><center><img src='Stimuli/img/symm_instructions_extra.png' style='height:420px; width:900'></img></center><br>To judge symmetry, imagine you were to fold each picture down the middle, like a book –<br>would the left half match the right half when folded onto each other?<br><br></div><br>",0,ospan,instruct,k0JnQ1HULeUzGs3zNEed8PJVT0u1,html-button-response,66,907489,0.0-43.0-1.0-0.0-0.0,,,,,,,,,,,,,,,60db09ba98a44872897cc587,09:54:05,05/03/2024
11492.399999976158,"<div class = 'left_align' style='font-size: 3.25rem; line-height: 1.3;'>When you have viewed the picture and determined whether it is symmetrical or not,<br>you can <b>click the Yes or No button</b> below to answer.<br><br>If you take longer than 15 seconds, it will continue automatically<br>and record the answer as an error.</div><br>",0,ospan,instruct,k0JnQ1HULeUzGs3zNEed8PJVT0u1,html-button-response,67,919242,0.0-43.0-1.0-0.0-1.0,,,,,,,,,,,,,,,60db09ba98a44872897cc587,09:54:05,05/03/2024
6676.600000023842,"<div class = 'left_align' style='font-size: 3.25rem; line-height: 1.3;'>It is <b>very</b> important that you make the symmetry judgment correctly.<br><br>It is also important that you try and judge the picture as quickly as you can.<br><br>When you are ready, click on the button below to try some practice problems.</div><br><br><br><br>",0,ospan,instruct,k0JnQ1HULeUzGs3zNEed8PJVT0u1,html-button-response,68,926177,0.0-43.0-1.0-0.0-2.0,,,,,,,,,,,,,,,60db09ba98a44872897cc587,09:54:05,05/03/2024
3907.0,,,ospan,symmetry,k0JnQ1HULeUzGs3zNEed8PJVT0u1,symmetry-judgement-task,69,930885,0.0-43.0-1.0-1.0-0.0,,,,,,,,,,0.0,0.0,,,,60db09ba98a44872897cc587,09:54:05,05/03/2024
,"<p style=""color:red; font-size: 35px"">Incorrect</p>",,ospan,feedback,k0JnQ1HULeUzGs3zNEed8PJVT0u1,html-keyboard-response,70,931638,0.0-43.0-1.0-1.0-1.0,,,,,,,,,,,,,,,60db09ba98a44872897cc587,09:54:05,05/03/2024
5728.0,,,ospan,symmetry,k0JnQ1HULeUzGs3zNEed8PJVT0u1,symmetry-judgement-task,71,940015,0.0-43.0-1.0-1.0-2.0,,,,,,,,,,1.0,1.0,,,,60db09ba98a44872897cc587,09:54:05,05/03/2024
,"<p style=""color:green; font-size: 35px"">Correct</p>",,ospan,feedback,k0JnQ1HULeUzGs3zNEed8PJVT0u1,html-keyboard-response,72,940771,0.0-43.0-1.0-1.0-3.0,,,,,,,,,,,,,,,60db09ba98a44872897cc587,09:54:05,05/03/2024
3391.0,,,ospan,symmetry,k0JnQ1HULeUzGs3zNEed8PJVT0u1,symmetry-judgement-task,73,946813,0.0-43.0-1.0-1.0-4.0,,,,,,,,,,1.0,1.0,,,,60db09ba98a44872897cc587,09:54:05,05/03/2024
,"<p style=""color:green; font-size: 35px"">Correct</p>",,ospan,feedback,k0JnQ1HULeUzGs3zNEed8PJVT0u1,html-keyboard-response,74,947570,0.0-43.0-1.0-1.0-5.0,,,,,,,,,,,,,,,60db09ba98a44872897cc587,09:54:05,05/03/2024
3779.2999999523163,"<p style=""font-size: 3rem;"">You only responded correctly on 2 of 3 symmetry judgments.<br><br><b>In the main task, you must try harder to answer accurately.</b></p><br><br>",0,ospan,practice,k0JnQ1HULeUzGs3zNEed8PJVT0u1,html-button-response,75,953358,0.0-43.0-1.0-2.0,,,,,,,,,,,,,,,60db09ba98a44872897cc587,09:54:05,05/03/2024
16274.5,"<div class = 'left_align' style='font-size: 3.25rem; line-height: 1.3;'>Now you will practice doing both parts of the experiment at the same time.<br><br>In the next practice set, you will be given one grid picture to judge.<br>Then letter will appear on the screen. Try to remember the letter.<br><br>It is <b>very important</b> to make the symmetry judgment as quickly and accurately as possible.<br><br>Just as before, once you have make the symmetry judgment, you can click Yes or No.<br><b>Note that you will no longer see Correct or Incorrect feedback.</div><br><br><br><br>",0,ospan,instruct,k0JnQ1HULeUzGs3zNEed8PJVT0u1,html-button-response,76,969891,0.0-43.0-2.0-0.0-0.0,,,,,,,,,,,,,,,60db09ba98a44872897cc587,09:54:05,05/03/2024
10427.900000095367,"<div class = 'left_align' style='font-size: 3.25rem; line-height: 1.3;'>After the letter goes away, another grid picture will appear, and then<br>another letter.<br><br>At the end of each set of letters and grids, you will recall the letters to the best<br>of your ability. Remember, try your best to get the letters in the correct order.<br><br>It is important to <b>quickly</b> and <b>accurately</b> make the symmetry judgments.</div><br><br><br><br>",0,ospan,instruct,k0JnQ1HULeUzGs3zNEed8PJVT0u1,html-button-response,77,980576,0.0-43.0-2.0-0.0-1.0,,,,,,,,,,,,,,,60db09ba98a44872897cc587,09:54:05,05/03/2024
32069.200000047684,"<div class = 'left_align' style='font-size: 3.25rem; line-height: 1.3;'>On the feedback screen, if you are not doing well at the symmetry judgments,<br>you will also see a warning in the middle. This indicates your percent <br>correct for the grid pictures for the entire experiment.<br><br>It is <b>very</b> important for you to keep accuracy at least at 85%: <u>We can only use<br>data where the participant was at least 85% accurate on the judgments.</u> Therefore,<br> please try your best to perform well on the symmetry judgments, <b>at the same time</b><br>doing your best to recall as many letters as possible.<br><br>Click the button to try some practice problems.</div><br><br><br><br>",0,ospan,instruct,k0JnQ1HULeUzGs3zNEed8PJVT0u1,html-button-response,78,1012902,0.0-43.0-2.0-0.0-2.0,,,,,,,,,,,,,,,60db09ba98a44872897cc587,09:54:05,05/03/2024
,"<p style=""font-size:75px;"">...</p>",,ospan,iti,k0JnQ1HULeUzGs3zNEed8PJVT0u1,html-keyboard-response,79,1014173,0.0-43.0-2.0-1.0-0.0,,,,,,,,,,,,,,,60db09ba98a44872897cc587,09:54:05,05/03/2024
3403.0,,,ospan,symmetry,k0JnQ1HULeUzGs3zNEed8PJVT0u1,symmetry-judgement-task,80,1018618,0.0-43.0-2.0-1.0-1.0-0.0,,,,,,,,,,1.0,1.0,,,,60db09ba98a44872897cc587,09:54:05,05/03/2024
,"<div style=""font-size: 10rem; color: #0000FF"">H</div>",,ospan,letter,k0JnQ1HULeUzGs3zNEed8PJVT0u1,html-keyboard-response,81,1019636,0.0-43.0-2.0-1.0-1.0-1.0,,,,,,,,,,,,,,,60db09ba98a44872897cc587,09:54:05,05/03/2024
3636.0,,,ospan,symmetry,k0JnQ1HULeUzGs3zNEed8PJVT0u1,symmetry-judgement-task,82,1025182,0.0-43.0-2.0-1.0-1.0-2.0,,,,,,,,,,0.0,0.0,,,,60db09ba98a44872897cc587,09:54:05,05/03/2024
,"<div style=""font-size: 10rem; color: #0000FF"">Q</div>",,ospan,letter,k0JnQ1HULeUzGs3zNEed8PJVT0u1,html-keyboard-response,83,1026188,0.0-43.0-2.0-1.0-1.0-3.0,,,,,,,,,,,,,,,60db09ba98a44872897cc587,09:54:05,05/03/2024
2803.0,,,ospan,symmetry,k0JnQ1HULeUzGs3zNEed8PJVT0u1,symmetry-judgement-task,84,1030902,0.0-43.0-2.0-1.0-1.0-4.0,,,,,,,,,,1.0,1.0,,,,60db09ba98a44872897cc587,09:54:05,05/03/2024
,"<div style=""font-size: 10rem; color: #0000FF"">P</div>",,ospan,letter,k0JnQ1HULeUzGs3zNEed8PJVT0u1,html-keyboard-response,85,1031917,0.0-43.0-2.0-1.0-1.0-5.0,,,,,,,,,,,,,,,60db09ba98a44872897cc587,09:54:05,05/03/2024
5877.200000047684,"<div class = numbox><p style=""font-size: 2.4rem"">Please recall the letters you saw to the best of your ability. If you do not remember a particular letter, use the SKIP button.<br><b>(When you are ready to lock in your answer, press ENTER)</b></p><button id = button_1 class = ""square num-button"" onclick = ""recordClick(this)""><div class = content><div class = numbers>C</div></div></button><button id = button_2 class = ""square num-button"" onclick = ""recordClick(this)""><div class = content><div class = numbers>G</div></div></button><button id = button_3 class = ""square num-button"" onclick = ""recordClick(this)""><div class = content><div class = numbers>H</div></div></button><button id = button_4 class = ""square num-button"" onclick = ""recordClick(this)""><div class = content><div class = numbers>J</div></div></button><button id = button_5 class = ""square num-button"" onclick = ""recordClick(this)""><div class = content><div class = numbers>K</div></div></button><button id = button_6 class = ""square num-button"" onclick = ""recordClick(this)""><div class = content><div class = numbers>L</div></div></button><button id = button_7 class = ""square num-button"" onclick = ""recordClick(this)""><div class = content><div class = numbers>N</div></div></button><button id = button_8 class = ""square num-button"" onclick = ""recordClick(this)""><div class = content><div class = numbers>P</div></div></button><button id = button_9 class = ""square num-button"" onclick = ""recordClick(this)""><div class = content><div class = numbers>Q</div></div></button><button id = button_10 class = ""square num-button"" onclick = ""recordClick(this)""><div class = content><div class = numbers>R</div></div></button><button id = button_11 class = ""square num-button"" onclick = ""recordClick(this)""><div class = content><div class = numbers>S</div></div></button><button id = button_12 class = ""square num-button"" onclick = ""recordClick(this)""><div class = content><div class = numbers>Y</div></div></button><button class = clear_button id = ""ClearButton"" onclick = ""clearResponse()"">BACKSPACE</button><button class = blank_button id = ""BlankButton"" onclick = ""blankResponse()"">SKIP</button><p style=""font-size: 2.4rem""><u><b>Current Answer:</b></u></p><br><br><div id=echoed_txt style=""font-size: 5rem; color:blue;""><b></b></div></div>",enter,ospan,retrieval,k0JnQ1HULeUzGs3zNEed8PJVT0u1,html-keyboard-response,86,1038560,0.0-43.0-2.0-1.0-2.0-0.0,NA,NA,NA,3.0,"[""H"",""Q"",""P""]","[""H"",""Q"",""P""]",1.0,3.0,"['<font color=""green"">H</font>', '<font color=""green"">Q</font>', '<font color=""green"">P</font>']",,,,,,60db09ba98a44872897cc587,09:54:05,05/03/2024
3943.7999999523163,"['<p style=""font-size:44px"">Letters:<br><br><br><font color=""green"">H</font> <font color=""green"">Q</font> <font color=""green"">P</font></p><br><br><p style=""font-size:30px"">Symmetry:<br><br><font color=""red"">67%</font></p><br><br>']",0,ospan,practice_feedback,k0JnQ1HULeUzGs3zNEed8PJVT0u1,html-button-response,87,1043009,0.0-43.0-2.0-1.0-2.0-1.0,,,,,,,,,,,,,,,60db09ba98a44872897cc587,09:54:05,05/03/2024
,"<p style=""font-size:75px;"">...</p>",,ospan,iti,k0JnQ1HULeUzGs3zNEed8PJVT0u1,html-keyboard-response,88,1044021,0.0-43.0-2.0-2.0-0.0,,,,,,,,,,,,,,,60db09ba98a44872897cc587,09:54:05,05/03/2024
3605.0,,,ospan,symmetry,k0JnQ1HULeUzGs3zNEed8PJVT0u1,symmetry-judgement-task,89,1048766,0.0-43.0-2.0-2.0-1.0-0.0,,,,,,,,,,1.0,1.0,,,,60db09ba98a44872897cc587,09:54:05,05/03/2024
,"<div style=""font-size: 10rem; color: #0000FF"">S</div>",,ospan,letter,k0JnQ1HULeUzGs3zNEed8PJVT0u1,html-keyboard-response,90,1049769,0.0-43.0-2.0-2.0-1.0-1.0,,,,,,,,,,,,,,,60db09ba98a44872897cc587,09:54:05,05/03/2024
3154.0,,,ospan,symmetry,k0JnQ1HULeUzGs3zNEed8PJVT0u1,symmetry-judgement-task,91,1054823,0.0-43.0-2.0-2.0-1.0-2.0,,,,,,,,,,1.0,1.0,,,,60db09ba98a44872897cc587,09:54:05,05/03/2024
,"<div style=""font-size: 10rem; color: #0000FF"">R</div>",,ospan,letter,k0JnQ1HULeUzGs3zNEed8PJVT0u1,html-keyboard-response,92,1055837,0.0-43.0-2.0-2.0-1.0-3.0,,,,,,,,,,,,,,,60db09ba98a44872897cc587,09:54:05,05/03/2024
2993.0,,,ospan,symmetry,k0JnQ1HULeUzGs3zNEed8PJVT0u1,symmetry-judgement-task,93,1060737,0.0-43.0-2.0-2.0-1.0-4.0,,,,,,,,,,1.0,1.0,,,,60db09ba98a44872897cc587,09:54:05,05/03/2024
,"<div style=""font-size: 10rem; color: #0000FF"">N</div>",,ospan,letter,k0JnQ1HULeUzGs3zNEed8PJVT0u1,html-keyboard-response,94,1061740,0.0-43.0-2.0-2.0-1.0-5.0,,,,,,,,,,,,,,,60db09ba98a44872897cc587,09:54:05,05/03/2024
6134.0,"<div class = numbox><p style=""font-size: 2.4rem"">Please recall the letters you saw to the best of your ability. If you do not remember a particular letter, use the SKIP button.<br><b>(When you are ready to lock in your answer, press ENTER)</b></p><button id = button_1 class = ""square num-button"" onclick = ""recordClick(this)""><div class = content><div class = numbers>C</div></div></button><button id = button_2 class = ""square num-button"" onclick = ""recordClick(this)""><div class = content><div class = numbers>G</div></div></button><button id = button_3 class = ""square num-button"" onclick = ""recordClick(this)""><div class = content><div class = numbers>H</div></div></button><button id = button_4 class = ""square num-button"" onclick = ""recordClick(this)""><div class = content><div class = numbers>J</div></div></button><button id = button_5 class = ""square num-button"" onclick = ""recordClick(this)""><div class = content><div class = numbers>K</div></div></button><button id = button_6 class = ""square num-button"" onclick = ""recordClick(this)""><div class = content><div class = numbers>L</div></div></button><button id = button_7 class = ""square num-button"" onclick = ""recordClick(this)""><div class = content><div class = numbers>N</div></div></button><button id = button_8 class = ""square num-button"" onclick = ""recordClick(this)""><div class = content><div class = numbers>P</div></div></button><button id = button_9 class = ""square num-button"" onclick = ""recordClick(this)""><div class = content><div class = numbers>Q</div></div></button><button id = button_10 class = ""square num-button"" onclick = ""recordClick(this)""><div class = content><div class = numbers>R</div></div></button><button id = button_11 class = ""square num-button"" onclick = ""recordClick(this)""><div class = content><div class = numbers>S</div></div></button><button id = button_12 class = ""square num-button"" onclick = ""recordClick(this)""><div class = content><div class = numbers>Y</div></div></button><button class = clear_button id = ""ClearButton"" onclick = ""clearResponse()"">BACKSPACE</button><button class = blank_button id = ""BlankButton"" onclick = ""blankResponse()"">SKIP</button><p style=""font-size: 2.4rem""><u><b>Current Answer:</b></u></p><br><br><div id=echoed_txt style=""font-size: 5rem; color:blue;""><b></b></div></div>",enter,ospan,retrieval,k0JnQ1HULeUzGs3zNEed8PJVT0u1,html-keyboard-response,95,1068634,0.0-43.0-2.0-2.0-2.0-0.0,NA,NA,NA,3.0,"[""S"",""R"",""N""]","[""S"",""R"",""N""]",1.0,3.0,"['<font color=""green"">S</font>', '<font color=""green"">R</font>', '<font color=""green"">N</font>']",,,,,,60db09ba98a44872897cc587,09:54:05,05/03/2024
2129.2999999523163,"['<p style=""font-size:44px"">Letters:<br><br><br><font color=""green"">S</font> <font color=""green"">R</font> <font color=""green"">N</font></p><br><br><p style=""font-size:30px"">Symmetry:<br><br><font color=""red"">83%</font></p><br><br>']",0,ospan,practice_feedback,k0JnQ1HULeUzGs3zNEed8PJVT0u1,html-button-response,96,1071276,0.0-43.0-2.0-2.0-2.0-1.0,,,,,,,,,,,,,,,60db09ba98a44872897cc587,09:54:05,05/03/2024
9562.5,"<div class = 'left_align' style='font-size: 3rem; line-height: 1.3;'><b>Great work! That is the end of practice.</b><br><br>The real trials will look just like the practice trials you just completed.<br><br><u>Here, you will not see feedback</u>. First, you will see an grid picture to judge,<br>then a letter to remember. When the recall screen appears, report the letters in the<br>order presented. If you forget a letter, remember to use the <b>blank</b> button to move to the<br>next letter. Some of the sets will have more symmetry grids and letters than others.<br><br>It is important that you do your best on both the symmetry judgments and the letter recall<br>parts of the experiment. For for the symmetry judgments, try to work as <b>quickly</b> and <br>as <b>accurately</b> as possible. Remember to keep your symmetry accuracy at 85% or above.<br><br><b>For the letters, do NOT use any external aid (e.g., writing on paper, electronic device).</b><br><br>It is <u>very important</u> to our experiment to have a <b>true</b> view of your real performance.<br><br>Do not worry if you miss some when it gets hard! This task is meant to be very challenging!<br><br>Click the button to begin.</div><br><br><br><br>",0,ospan,starting_real_here,k0JnQ1HULeUzGs3zNEed8PJVT0u1,html-button-response,97,1080839,0.0-43.0-2.0-3.0,,,,,,,,,,,,,,,60db09ba98a44872897cc587,09:54:05,05/03/2024
,"<p style=""font-size:75px;"">...</p>",,ospan,iti,k0JnQ1HULeUzGs3zNEed8PJVT0u1,html-keyboard-response,98,1082100,0.0-43.0-3.0-0.0-0.0,,,,,,,,,,,,,,,60db09ba98a44872897cc587,09:54:05,05/03/2024
2767.0,,,ospan,symmetry,k0JnQ1HULeUzGs3zNEed8PJVT0u1,symmetry-judgement-task,99,1086000,0.0-43.0-3.0-0.0-1.0-0.0,,,,,,,,,,1.0,1.0,,,,60db09ba98a44872897cc587,09:54:05,05/03/2024
,"<div style=""font-size: 10rem; color: #0000FF"">Y</div>",,ospan,letter,k0JnQ1HULeUzGs3zNEed8PJVT0u1,html-keyboard-response,100,1087018,0.0-43.0-3.0-0.0-1.0-1.0,,,,,,,,,,,,,,,60db09ba98a44872897cc587,09:54:05,05/03/2024
2050.0,,,ospan,symmetry,k0JnQ1HULeUzGs3zNEed8PJVT0u1,symmetry-judgement-task,101,1090971,0.0-43.0-3.0-0.0-1.0-2.0,,,,,,,,,,1.0,1.0,,,,60db09ba98a44872897cc587,09:54:05,05/03/2024
,"<div style=""font-size: 10rem; color: #0000FF"">H</div>",,ospan,letter,k0JnQ1HULeUzGs3zNEed8PJVT0u1,html-keyboard-response,102,1091984,0.0-43.0-3.0-0.0-1.0-3.0,,,,,,,,,,,,,,,60db09ba98a44872897cc587,09:54:05,05/03/2024
2924.0,,,ospan,symmetry,k0JnQ1HULeUzGs3zNEed8PJVT0u1,symmetry-judgement-task,103,1096834,0.0-43.0-3.0-0.0-1.0-4.0,,,,,,,,,,1.0,1.0,,,,60db09ba98a44872897cc587,09:54:05,05/03/2024
,"<div style=""font-size: 10rem; color: #0000FF"">R</div>",,ospan,letter,k0JnQ1HULeUzGs3zNEed8PJVT0u1,html-keyboard-response,104,1097848,0.0-43.0-3.0-0.0-1.0-5.0,,,,,,,,,,,,,,,60db09ba98a44872897cc587,09:54:05,05/03/2024
11698.700000047684,"<div class = numbox><p style=""font-size: 2.4rem"">Please recall the letters you saw to the best of your ability. If you do not remember a particular letter, use the SKIP button.<br><b>(When you are ready to lock in your answer, press ENTER)</b></p><button id = button_1 class = ""square num-button"" onclick = ""recordClick(this)""><div class = content><div class = numbers>C</div></div></button><button id = button_2 class = ""square num-button"" onclick = ""recordClick(this)""><div class = content><div class = numbers>G</div></div></button><button id = button_3 class = ""square num-button"" onclick = ""recordClick(this)""><div class = content><div class = numbers>H</div></div></button><button id = button_4 class = ""square num-button"" onclick = ""recordClick(this)""><div class = content><div class = numbers>J</div></div></button><button id = button_5 class = ""square num-button"" onclick = ""recordClick(this)""><div class = content><div class = numbers>K</div></div></button><button id = button_6 class = ""square num-button"" onclick = ""recordClick(this)""><div class = content><div class = numbers>L</div></div></button><button id = button_7 class = ""square num-button"" onclick = ""recordClick(this)""><div class = content><div class = numbers>N</div></div></button><button id = button_8 class = ""square num-button"" onclick = ""recordClick(this)""><div class = content><div class = numbers>P</div></div></button><button id = button_9 class = ""square num-button"" onclick = ""recordClick(this)""><div class = content><div class = numbers>Q</div></div></button><button id = button_10 class = ""square num-button"" onclick = ""recordClick(this)""><div class = content><div class = numbers>R</div></div></button><button id = button_11 class = ""square num-button"" onclick = ""recordClick(this)""><div class = content><div class = numbers>S</div></div></button><button id = button_12 class = ""square num-button"" onclick = ""recordClick(this)""><div class = content><div class = numbers>Y</div></div></button><button class = clear_button id = ""ClearButton"" onclick = ""clearResponse()"">BACKSPACE</button><button class = blank_button id = ""BlankButton"" onclick = ""blankResponse()"">SKIP</button><p style=""font-size: 2.4rem""><u><b>Current Answer:</b></u></p><br><br><div id=echoed_txt style=""font-size: 5rem; color:blue;""><b></b></div></div>",enter,ospan,retrieval,k0JnQ1HULeUzGs3zNEed8PJVT0u1,html-keyboard-response,105,1110299,0.0-43.0-3.0-0.0-2.0,3,1,0,3.0,"[""K"",""Y"",""R""]","[""Y"",""H"",""R""]",0.0,1.0,,,,,,,60db09ba98a44872897cc587,09:54:05,05/03/2024
2420.7999999523163,[''],0,ospan,feedback,k0JnQ1HULeUzGs3zNEed8PJVT0u1,html-button-response,106,1113236,0.0-43.0-3.0-0.0-3.0,,,,,,,,,,,,100.0,0.0,,60db09ba98a44872897cc587,09:54:05,05/03/2024
,"<p style=""font-size:75px;"">...</p>",,ospan,iti,k0JnQ1HULeUzGs3zNEed8PJVT0u1,html-keyboard-response,107,1114249,0.0-43.0-4.0-0.0-0.0,,,,,,,,,,,,,,,60db09ba98a44872897cc587,09:54:05,05/03/2024
3467.0,,,ospan,symmetry,k0JnQ1HULeUzGs3zNEed8PJVT0u1,symmetry-judgement-task,108,1118868,0.0-43.0-4.0-0.0-1.0-0.0,,,,,,,,,,1.0,1.0,,,,60db09ba98a44872897cc587,09:54:05,05/03/2024
,"<div style=""font-size: 10rem; color: #0000FF"">H</div>",,ospan,letter,k0JnQ1HULeUzGs3zNEed8PJVT0u1,html-keyboard-response,109,1119882,0.0-43.0-4.0-0.0-1.0-1.0,,,,,,,,,,,,,,,60db09ba98a44872897cc587,09:54:05,05/03/2024
2698.0,,,ospan,symmetry,k0JnQ1HULeUzGs3zNEed8PJVT0u1,symmetry-judgement-task,110,1124470,0.0-43.0-4.0-0.0-1.0-2.0,,,,,,,,,,1.0,1.0,,,,60db09ba98a44872897cc587,09:54:05,05/03/2024
,"<div style=""font-size: 10rem; color: #0000FF"">P</div>",,ospan,letter,k0JnQ1HULeUzGs3zNEed8PJVT0u1,html-keyboard-response,111,1125482,0.0-43.0-4.0-0.0-1.0-3.0,,,,,,,,,,,,,,,60db09ba98a44872897cc587,09:54:05,05/03/2024
2266.0,,,ospan,symmetry,k0JnQ1HULeUzGs3zNEed8PJVT0u1,symmetry-judgement-task,112,1129666,0.0-43.0-4.0-0.0-1.0-4.0,,,,,,,,,,1.0,1.0,,,,60db09ba98a44872897cc587,09:54:05,05/03/2024
,"<div style=""font-size: 10rem; color: #0000FF"">Q</div>",,ospan,letter,k0JnQ1HULeUzGs3zNEed8PJVT0u1,html-keyboard-response,113,1130670,0.0-43.0-4.0-0.0-1.0-5.0,,,,,,,,,,,,,,,60db09ba98a44872897cc587,09:54:05,05/03/2024
3097.0,,,ospan,symmetry,k0JnQ1HULeUzGs3zNEed8PJVT0u1,symmetry-judgement-task,114,1135683,0.0-43.0-4.0-0.0-1.0-6.0,,,,,,,,,,1.0,1.0,,,,60db09ba98a44872897cc587,09:54:05,05/03/2024
,"<div style=""font-size: 10rem; color: #0000FF"">K</div>",,ospan,letter,k0JnQ1HULeUzGs3zNEed8PJVT0u1,html-keyboard-response,115,1136685,0.0-43.0-4.0-0.0-1.0-7.0,,,,,,,,,,,,,,,60db09ba98a44872897cc587,09:54:05,05/03/2024
6043.900000095367,"<div class = numbox><p style=""font-size: 2.4rem"">Please recall the letters you saw to the best of your ability. If you do not remember a particular letter, use the SKIP button.<br><b>(When you are ready to lock in your answer, press ENTER)</b></p><button id = button_1 class = ""square num-button"" onclick = ""recordClick(this)""><div class = content><div class = numbers>C</div></div></button><button id = button_2 class = ""square num-button"" onclick = ""recordClick(this)""><div class = content><div class = numbers>G</div></div></button><button id = button_3 class = ""square num-button"" onclick = ""recordClick(this)""><div class = content><div class = numbers>H</div></div></button><button id = button_4 class = ""square num-button"" onclick = ""recordClick(this)""><div class = content><div class = numbers>J</div></div></button><button id = button_5 class = ""square num-button"" onclick = ""recordClick(this)""><div class = content><div class = numbers>K</div></div></button><button id = button_6 class = ""square num-button"" onclick = ""recordClick(this)""><div class = content><div class = numbers>L</div></div></button><button id = button_7 class = ""square num-button"" onclick = ""recordClick(this)""><div class = content><div class = numbers>N</div></div></button><button id = button_8 class = ""square num-button"" onclick = ""recordClick(this)""><div class = content><div class = numbers>P</div></div></button><button id = button_9 class = ""square num-button"" onclick = ""recordClick(this)""><div class = content><div class = numbers>Q</div></div></button><button id = button_10 class = ""square num-button"" onclick = ""recordClick(this)""><div class = content><div class = numbers>R</div></div></button><button id = button_11 class = ""square num-button"" onclick = ""recordClick(this)""><div class = content><div class = numbers>S</div></div></button><button id = button_12 class = ""square num-button"" onclick = ""recordClick(this)""><div class = content><div class = numbers>Y</div></div></button><button class = clear_button id = ""ClearButton"" onclick = ""clearResponse()"">BACKSPACE</button><button class = blank_button id = ""BlankButton"" onclick = ""blankResponse()"">SKIP</button><p style=""font-size: 2.4rem""><u><b>Current Answer:</b></u></p><br><br><div id=echoed_txt style=""font-size: 5rem; color:blue;""><b></b></div></div>",enter,ospan,retrieval,k0JnQ1HULeUzGs3zNEed8PJVT0u1,html-keyboard-response,116,1143490,0.0-43.0-4.0-0.0-2.0,7,4,0,4.0,"[""H"",""P"",""Q"",""R""]","[""H"",""P"",""Q"",""K""]",0.0,3.0,,,,,,,60db09ba98a44872897cc587,09:54:05,05/03/2024
1535.1000000238419,[''],0,ospan,feedback,k0JnQ1HULeUzGs3zNEed8PJVT0u1,html-button-response,117,1145529,0.0-43.0-4.0-0.0-3.0,,,,,,,,,,,,100.0,0.0,,60db09ba98a44872897cc587,09:54:05,05/03/2024
,"<p style=""font-size:75px;"">...</p>",,ospan,iti,k0JnQ1HULeUzGs3zNEed8PJVT0u1,html-keyboard-response,118,1146533,0.0-43.0-4.0-1.0-0.0,,,,,,,,,,,,,,,60db09ba98a44872897cc587,09:54:05,05/03/2024
3339.0,,,ospan,symmetry,k0JnQ1HULeUzGs3zNEed8PJVT0u1,symmetry-judgement-task,119,1150912,0.0-43.0-4.0-1.0-1.0-0.0,,,,,,,,,,1.0,1.0,,,,60db09ba98a44872897cc587,09:54:05,05/03/2024
,"<div style=""font-size: 10rem; color: #0000FF"">L</div>",,ospan,letter,k0JnQ1HULeUzGs3zNEed8PJVT0u1,html-keyboard-response,120,1151915,0.0-43.0-4.0-1.0-1.0-1.0,,,,,,,,,,,,,,,60db09ba98a44872897cc587,09:54:05,05/03/2024
2571.0,,,ospan,symmetry,k0JnQ1HULeUzGs3zNEed8PJVT0u1,symmetry-judgement-task,121,1156398,0.0-43.0-4.0-1.0-1.0-2.0,,,,,,,,,,1.0,1.0,,,,60db09ba98a44872897cc587,09:54:05,05/03/2024
,"<div style=""font-size: 10rem; color: #0000FF"">G</div>",,ospan,letter,k0JnQ1HULeUzGs3zNEed8PJVT0u1,html-keyboard-response,122,1157417,0.0-43.0-4.0-1.0-1.0-3.0,,,,,,,,,,,,,,,60db09ba98a44872897cc587,09:54:05,05/03/2024
3832.0,,,ospan,symmetry,k0JnQ1HULeUzGs3zNEed8PJVT0u1,symmetry-judgement-task,123,1163132,0.0-43.0-4.0-1.0-1.0-4.0,,,,,,,,,,1.0,1.0,,,,60db09ba98a44872897cc587,09:54:05,05/03/2024
,"<div style=""font-size: 10rem; color: #0000FF"">P</div>",,ospan,letter,k0JnQ1HULeUzGs3zNEed8PJVT0u1,html-keyboard-response,124,1164146,0.0-43.0-4.0-1.0-1.0-5.0,,,,,,,,,,,,,,,60db09ba98a44872897cc587,09:54:05,05/03/2024
3710.0,,,ospan,symmetry,k0JnQ1HULeUzGs3zNEed8PJVT0u1,symmetry-judgement-task,125,1169768,0.0-43.0-4.0-1.0-1.0-6.0,,,,,,,,,,1.0,1.0,,,,60db09ba98a44872897cc587,09:54:05,05/03/2024
,"<div style=""font-size: 10rem; color: #0000FF"">N</div>",,ospan,letter,k0JnQ1HULeUzGs3zNEed8PJVT0u1,html-keyboard-response,126,1170783,0.0-43.0-4.0-1.0-1.0-7.0,,,,,,,,,,,,,,,60db09ba98a44872897cc587,09:54:05,05/03/2024
3933.0,,,ospan,symmetry,k0JnQ1HULeUzGs3zNEed8PJVT0u1,symmetry-judgement-task,127,1176630,0.0-43.0-4.0-1.0-1.0-8.0,,,,,,,,,,1.0,1.0,,,,60db09ba98a44872897cc587,09:54:05,05/03/2024
,"<div style=""font-size: 10rem; color: #0000FF"">H</div>",,ospan,letter,k0JnQ1HULeUzGs3zNEed8PJVT0u1,html-keyboard-response,128,1177632,0.0-43.0-4.0-1.0-1.0-9.0,,,,,,,,,,,,,,,60db09ba98a44872897cc587,09:54:05,05/03/2024
9575.300000071526,"<div class = numbox><p style=""font-size: 2.4rem"">Please recall the letters you saw to the best of your ability. If you do not remember a particular letter, use the SKIP button.<br><b>(When you are ready to lock in your answer, press ENTER)</b></p><button id = button_1 class = ""square num-button"" onclick = ""recordClick(this)""><div class = content><div class = numbers>C</div></div></button><button id = button_2 class = ""square num-button"" onclick = ""recordClick(this)""><div class = content><div class = numbers>G</div></div></button><button id = button_3 class = ""square num-button"" onclick = ""recordClick(this)""><div class = content><div class = numbers>H</div></div></button><button id = button_4 class = ""square num-button"" onclick = ""recordClick(this)""><div class = content><div class = numbers>J</div></div></button><button id = button_5 class = ""square num-button"" onclick = ""recordClick(this)""><div class = content><div class = numbers>K</div></div></button><button id = button_6 class = ""square num-button"" onclick = ""recordClick(this)""><div class = content><div class = numbers>L</div></div></button><button id = button_7 class = ""square num-button"" onclick = ""recordClick(this)""><div class = content><div class = numbers>N</div></div></button><button id = button_8 class = ""square num-button"" onclick = ""recordClick(this)""><div class = content><div class = numbers>P</div></div></button><button id = button_9 class = ""square num-button"" onclick = ""recordClick(this)""><div class = content><div class = numbers>Q</div></div></button><button id = button_10 class = ""square num-button"" onclick = ""recordClick(this)""><div class = content><div class = numbers>R</div></div></button><button id = button_11 class = ""square num-button"" onclick = ""recordClick(this)""><div class = content><div class = numbers>S</div></div></button><button id = button_12 class = ""square num-button"" onclick = ""recordClick(this)""><div class = content><div class = numbers>Y</div></div></button><button class = clear_button id = ""ClearButton"" onclick = ""clearResponse()"">BACKSPACE</button><button class = blank_button id = ""BlankButton"" onclick = ""blankResponse()"">SKIP</button><p style=""font-size: 2.4rem""><u><b>Current Answer:</b></u></p><br><br><div id=echoed_txt style=""font-size: 5rem; color:blue;""><b></b></div></div>",enter,ospan,retrieval,k0JnQ1HULeUzGs3zNEed8PJVT0u1,html-keyboard-response,129,1187973,0.0-43.0-4.0-1.0-2.0,12,9,5,5.0,"[""L"",""G"",""P"",""N"",""H""]","[""L"",""G"",""P"",""N"",""H""]",1.0,5.0,,,,,,,60db09ba98a44872897cc587,09:54:05,05/03/2024
2874.8000000715256,[''],0,ospan,feedback,k0JnQ1HULeUzGs3zNEed8PJVT0u1,html-button-response,130,1191353,0.0-43.0-4.0-1.0-3.0,,,,,,,,,,,,100.0,0.0,,60db09ba98a44872897cc587,09:54:05,05/03/2024
,"<p style=""font-size:75px;"">...</p>",,ospan,iti,k0JnQ1HULeUzGs3zNEed8PJVT0u1,html-keyboard-response,131,1192358,0.0-43.0-4.0-2.0-0.0,,,,,,,,,,,,,,,60db09ba98a44872897cc587,09:54:05,05/03/2024
3019.0,,,ospan,symmetry,k0JnQ1HULeUzGs3zNEed8PJVT0u1,symmetry-judgement-task,132,1196416,0.0-43.0-4.0-2.0-1.0-0.0,,,,,,,,,,1.0,1.0,,,,60db09ba98a44872897cc587,09:54:05,05/03/2024
,"<div style=""font-size: 10rem; color: #0000FF"">K</div>",,ospan,letter,k0JnQ1HULeUzGs3zNEed8PJVT0u1,html-keyboard-response,133,1197418,0.0-43.0-4.0-2.0-1.0-1.0,,,,,,,,,,,,,,,60db09ba98a44872897cc587,09:54:05,05/03/2024
2396.0,,,ospan,symmetry,k0JnQ1HULeUzGs3zNEed8PJVT0u1,symmetry-judgement-task,134,1201712,0.0-43.0-4.0-2.0-1.0-2.0,,,,,,,,,,1.0,1.0,,,,60db09ba98a44872897cc587,09:54:05,05/03/2024
,"<div style=""font-size: 10rem; color: #0000FF"">S</div>",,ospan,letter,k0JnQ1HULeUzGs3zNEed8PJVT0u1,html-keyboard-response,135,1202716,0.0-43.0-4.0-2.0-1.0-3.0,,,,,,,,,,,,,,,60db09ba98a44872897cc587,09:54:05,05/03/2024
2754.0,,,ospan,symmetry,k0JnQ1HULeUzGs3zNEed8PJVT0u1,symmetry-judgement-task,136,1207381,0.0-43.0-4.0-2.0-1.0-4.0,,,,,,,,,,1.0,1.0,,,,60db09ba98a44872897cc587,09:54:05,05/03/2024
,"<div style=""font-size: 10rem; color: #0000FF"">G</div>",,ospan,letter,k0JnQ1HULeUzGs3zNEed8PJVT0u1,html-keyboard-response,137,1208384,0.0-43.0-4.0-2.0-1.0-5.0,,,,,,,,,,,,,,,60db09ba98a44872897cc587,09:54:05,05/03/2024
6116.399999976158,"<div class = numbox><p style=""font-size: 2.4rem"">Please recall the letters you saw to the best of your ability. If you do not remember a particular letter, use the SKIP button.<br><b>(When you are ready to lock in your answer, press ENTER)</b></p><button id = button_1 class = ""square num-button"" onclick = ""recordClick(this)""><div class = content><div class = numbers>C</div></div></button><button id = button_2 class = ""square num-button"" onclick = ""recordClick(this)""><div class = content><div class = numbers>G</div></div></button><button id = button_3 class = ""square num-button"" onclick = ""recordClick(this)""><div class = content><div class = numbers>H</div></div></button><button id = button_4 class = ""square num-button"" onclick = ""recordClick(this)""><div class = content><div class = numbers>J</div></div></button><button id = button_5 class = ""square num-button"" onclick = ""recordClick(this)""><div class = content><div class = numbers>K</div></div></button><button id = button_6 class = ""square num-button"" onclick = ""recordClick(this)""><div class = content><div class = numbers>L</div></div></button><button id = button_7 class = ""square num-button"" onclick = ""recordClick(this)""><div class = content><div class = numbers>N</div></div></button><button id = button_8 class = ""square num-button"" onclick = ""recordClick(this)""><div class = content><div class = numbers>P</div></div></button><button id = button_9 class = ""square num-button"" onclick = ""recordClick(this)""><div class = content><div class = numbers>Q</div></div></button><button id = button_10 class = ""square num-button"" onclick = ""recordClick(this)""><div class = content><div class = numbers>R</div></div></button><button id = button_11 class = ""square num-button"" onclick = ""recordClick(this)""><div class = content><div class = numbers>S</div></div></button><button id = button_12 class = ""square num-button"" onclick = ""recordClick(this)""><div class = content><div class = numbers>Y</div></div></button><button class = clear_button id = ""ClearButton"" onclick = ""clearResponse()"">BACKSPACE</button><button class = blank_button id = ""BlankButton"" onclick = ""blankResponse()"">SKIP</button><p style=""font-size: 2.4rem""><u><b>Current Answer:</b></u></p><br><br><div id=echoed_txt style=""font-size: 5rem; color:blue;""><b></b></div></div>",enter,ospan,retrieval,k0JnQ1HULeUzGs3zNEed8PJVT0u1,html-keyboard-response,138,1215261,0.0-43.0-4.0-2.0-2.0,15,12,8,3.0,"[""K"",""S"",""G""]","[""K"",""S"",""G""]",1.0,3.0,,,,,,,60db09ba98a44872897cc587,09:54:05,05/03/2024
1624.0,[''],0,ospan,feedback,k0JnQ1HULeUzGs3zNEed8PJVT0u1,html-button-response,139,1217402,0.0-43.0-4.0-2.0-3.0,,,,,,,,,,,,100.0,0.0,,60db09ba98a44872897cc587,09:54:05,05/03/2024
,"<p style=""font-size:75px;"">...</p>",,ospan,iti,k0JnQ1HULeUzGs3zNEed8PJVT0u1,html-keyboard-response,140,1218414,0.0-43.0-5.0-0.0-0.0,,,,,,,,,,,,,,,60db09ba98a44872897cc587,09:54:05,05/03/2024
3111.0,,,ospan,symmetry,k0JnQ1HULeUzGs3zNEed8PJVT0u1,symmetry-judgement-task,141,1222664,0.0-43.0-5.0-0.0-1.0-0.0,,,,,,,,,,1.0,1.0,,,,60db09ba98a44872897cc587,09:54:05,05/03/2024
,"<div style=""font-size: 10rem; color: #0000FF"">H</div>",,ospan,letter,k0JnQ1HULeUzGs3zNEed8PJVT0u1,html-keyboard-response,142,1223667,0.0-43.0-5.0-0.0-1.0-1.0,,,,,,,,,,,,,,,60db09ba98a44872897cc587,09:54:05,05/03/2024
3599.0,,,ospan,symmetry,k0JnQ1HULeUzGs3zNEed8PJVT0u1,symmetry-judgement-task,143,1229165,0.0-43.0-5.0-0.0-1.0-2.0,,,,,,,,,,1.0,1.0,,,,60db09ba98a44872897cc587,09:54:05,05/03/2024
,"<div style=""font-size: 10rem; color: #0000FF"">K</div>",,ospan,letter,k0JnQ1HULeUzGs3zNEed8PJVT0u1,html-keyboard-response,144,1230167,0.0-43.0-5.0-0.0-1.0-3.0,,,,,,,,,,,,,,,60db09ba98a44872897cc587,09:54:05,05/03/2024
2654.0,,,ospan,symmetry,k0JnQ1HULeUzGs3zNEed8PJVT0u1,symmetry-judgement-task,145,1234734,0.0-43.0-5.0-0.0-1.0-4.0,,,,,,,,,,1.0,1.0,,,,60db09ba98a44872897cc587,09:54:05,05/03/2024
,"<div style=""font-size: 10rem; color: #0000FF"">R</div>",,ospan,letter,k0JnQ1HULeUzGs3zNEed8PJVT0u1,html-keyboard-response,146,1235747,0.0-43.0-5.0-0.0-1.0-5.0,,,,,,,,,,,,,,,60db09ba98a44872897cc587,09:54:05,05/03/2024
4175.0,,,ospan,symmetry,k0JnQ1HULeUzGs3zNEed8PJVT0u1,symmetry-judgement-task,147,1241829,0.0-43.0-5.0-0.0-1.0-6.0,,,,,,,,,,1.0,1.0,,,,60db09ba98a44872897cc587,09:54:05,05/03/2024
,"<div style=""font-size: 10rem; color: #0000FF"">G</div>",,ospan,letter,k0JnQ1HULeUzGs3zNEed8PJVT0u1,html-keyboard-response,148,1242847,0.0-43.0-5.0-0.0-1.0-7.0,,,,,,,,,,,,,,,60db09ba98a44872897cc587,09:54:05,05/03/2024
4098.0,,,ospan,symmetry,k0JnQ1HULeUzGs3zNEed8PJVT0u1,symmetry-judgement-task,149,1248846,0.0-43.0-5.0-0.0-1.0-8.0,,,,,,,,,,1.0,1.0,,,,60db09ba98a44872897cc587,09:54:05,05/03/2024
,"<div style=""font-size: 10rem; color: #0000FF"">L</div>",,ospan,letter,k0JnQ1HULeUzGs3zNEed8PJVT0u1,html-keyboard-response,150,1249848,0.0-43.0-5.0-0.0-1.0-9.0,,,,,,,,,,,,,,,60db09ba98a44872897cc587,09:54:05,05/03/2024
3700.0,,,ospan,symmetry,k0JnQ1HULeUzGs3zNEed8PJVT0u1,symmetry-judgement-task,151,1255477,0.0-43.0-5.0-0.0-1.0-10.0,,,,,,,,,,1.0,1.0,,,,60db09ba98a44872897cc587,09:54:05,05/03/2024
,"<div style=""font-size: 10rem; color: #0000FF"">N</div>",,ospan,letter,k0JnQ1HULeUzGs3zNEed8PJVT0u1,html-keyboard-response,152,1256479,0.0-43.0-5.0-0.0-1.0-11.0,,,,,,,,,,,,,,,60db09ba98a44872897cc587,09:54:05,05/03/2024
8626.599999904633,"<div class = numbox><p style=""font-size: 2.4rem"">Please recall the letters you saw to the best of your ability. If you do not remember a particular letter, use the SKIP button.<br><b>(When you are ready to lock in your answer, press ENTER)</b></p><button id = button_1 class = ""square num-button"" onclick = ""recordClick(this)""><div class = content><div class = numbers>C</div></div></button><button id = button_2 class = ""square num-button"" onclick = ""recordClick(this)""><div class = content><div class = numbers>G</div></div></button><button id = button_3 class = ""square num-button"" onclick = ""recordClick(this)""><div class = content><div class = numbers>H</div></div></button><button id = button_4 class = ""square num-button"" onclick = ""recordClick(this)""><div class = content><div class = numbers>J</div></div></button><button id = button_5 class = ""square num-button"" onclick = ""recordClick(this)""><div class = content><div class = numbers>K</div></div></button><button id = button_6 class = ""square num-button"" onclick = ""recordClick(this)""><div class = content><div class = numbers>L</div></div></button><button id = button_7 class = ""square num-button"" onclick = ""recordClick(this)""><div class = content><div class = numbers>N</div></div></button><button id = button_8 class = ""square num-button"" onclick = ""recordClick(this)""><div class = content><div class = numbers>P</div></div></button><button id = button_9 class = ""square num-button"" onclick = ""recordClick(this)""><div class = content><div class = numbers>Q</div></div></button><button id = button_10 class = ""square num-button"" onclick = ""recordClick(this)""><div class = content><div class = numbers>R</div></div></button><button id = button_11 class = ""square num-button"" onclick = ""recordClick(this)""><div class = content><div class = numbers>S</div></div></button><button id = button_12 class = ""square num-button"" onclick = ""recordClick(this)""><div class = content><div class = numbers>Y</div></div></button><button class = clear_button id = ""ClearButton"" onclick = ""clearResponse()"">BACKSPACE</button><button class = blank_button id = ""BlankButton"" onclick = ""blankResponse()"">SKIP</button><p style=""font-size: 2.4rem""><u><b>Current Answer:</b></u></p><br><br><div id=echoed_txt style=""font-size: 5rem; color:blue;""><b></b></div></div>",enter,ospan,retrieval,k0JnQ1HULeUzGs3zNEed8PJVT0u1,html-keyboard-response,153,1265872,0.0-43.0-5.0-0.0-2.0,21,16,8,6.0,"[""H"",""K"",""R"",""G"",""N""]","[""H"",""K"",""R"",""G"",""L"",""N""]",0.0,4.0,,,,,,,60db09ba98a44872897cc587,09:54:05,05/03/2024
1874.1000000238419,[''],0,ospan,feedback,k0JnQ1HULeUzGs3zNEed8PJVT0u1,html-button-response,154,1268250,0.0-43.0-5.0-0.0-3.0,,,,,,,,,,,,100.0,0.0,,60db09ba98a44872897cc587,09:54:05,05/03/2024
,"<p style=""font-size:75px;"">...</p>",,ospan,iti,k0JnQ1HULeUzGs3zNEed8PJVT0u1,html-keyboard-response,155,1269260,0.0-43.0-5.0-1.0-0.0,,,,,,,,,,,,,,,60db09ba98a44872897cc587,09:54:05,05/03/2024
4623.0,,,ospan,symmetry,k0JnQ1HULeUzGs3zNEed8PJVT0u1,symmetry-judgement-task,156,1275030,0.0-43.0-5.0-1.0-1.0-0.0,,,,,,,,,,1.0,1.0,,,,60db09ba98a44872897cc587,09:54:05,05/03/2024
,"<div style=""font-size: 10rem; color: #0000FF"">Y</div>",,ospan,letter,k0JnQ1HULeUzGs3zNEed8PJVT0u1,html-keyboard-response,157,1276043,0.0-43.0-5.0-1.0-1.0-1.0,,,,,,,,,,,,,,,60db09ba98a44872897cc587,09:54:05,05/03/2024
2530.0,,,ospan,symmetry,k0JnQ1HULeUzGs3zNEed8PJVT0u1,symmetry-judgement-task,158,1280494,0.0-43.0-5.0-1.0-1.0-2.0,,,,,,,,,,1.0,1.0,,,,60db09ba98a44872897cc587,09:54:05,05/03/2024
,"<div style=""font-size: 10rem; color: #0000FF"">H</div>",,ospan,letter,k0JnQ1HULeUzGs3zNEed8PJVT0u1,html-keyboard-response,159,1281496,0.0-43.0-5.0-1.0-1.0-3.0,,,,,,,,,,,,,,,60db09ba98a44872897cc587,09:54:05,05/03/2024
2966.0,,,ospan,symmetry,k0JnQ1HULeUzGs3zNEed8PJVT0u1,symmetry-judgement-task,160,1286247,0.0-43.0-5.0-1.0-1.0-4.0,,,,,,,,,,1.0,1.0,,,,60db09ba98a44872897cc587,09:54:05,05/03/2024
,"<div style=""font-size: 10rem; color: #0000FF"">Q</div>",,ospan,letter,k0JnQ1HULeUzGs3zNEed8PJVT0u1,html-keyboard-response,161,1287263,0.0-43.0-5.0-1.0-1.0-5.0,,,,,,,,,,,,,,,60db09ba98a44872897cc587,09:54:05,05/03/2024
3556.0,,,ospan,symmetry,k0JnQ1HULeUzGs3zNEed8PJVT0u1,symmetry-judgement-task,162,1292728,0.0-43.0-5.0-1.0-1.0-6.0,,,,,,,,,,1.0,1.0,,,,60db09ba98a44872897cc587,09:54:05,05/03/2024
,"<div style=""font-size: 10rem; color: #0000FF"">N</div>",,ospan,letter,k0JnQ1HULeUzGs3zNEed8PJVT0u1,html-keyboard-response,163,1293732,0.0-43.0-5.0-1.0-1.0-7.0,,,,,,,,,,,,,,,60db09ba98a44872897cc587,09:54:05,05/03/2024
2915.0,,,ospan,symmetry,k0JnQ1HULeUzGs3zNEed8PJVT0u1,symmetry-judgement-task,164,1298544,0.0-43.0-5.0-1.0-1.0-8.0,,,,,,,,,,1.0,1.0,,,,60db09ba98a44872897cc587,09:54:05,05/03/2024
,"<div style=""font-size: 10rem; color: #0000FF"">G</div>",,ospan,letter,k0JnQ1HULeUzGs3zNEed8PJVT0u1,html-keyboard-response,165,1299561,0.0-43.0-5.0-1.0-1.0-9.0,,,,,,,,,,,,,,,60db09ba98a44872897cc587,09:54:05,05/03/2024
3171.0,,,ospan,symmetry,k0JnQ1HULeUzGs3zNEed8PJVT0u1,symmetry-judgement-task,166,1304651,0.0-43.0-5.0-1.0-1.0-10.0,,,,,,,,,,1.0,1.0,,,,60db09ba98a44872897cc587,09:54:05,05/03/2024
,"<div style=""font-size: 10rem; color: #0000FF"">J</div>",,ospan,letter,k0JnQ1HULeUzGs3zNEed8PJVT0u1,html-keyboard-response,167,1305666,0.0-43.0-5.0-1.0-1.0-11.0,,,,,,,,,,,,,,,60db09ba98a44872897cc587,09:54:05,05/03/2024
3653.0,,,ospan,symmetry,k0JnQ1HULeUzGs3zNEed8PJVT0u1,symmetry-judgement-task,168,1311235,0.0-43.0-5.0-1.0-1.0-12.0,,,,,,,,,,1.0,1.0,,,,60db09ba98a44872897cc587,09:54:05,05/03/2024
,"<div style=""font-size: 10rem; color: #0000FF"">C</div>",,ospan,letter,k0JnQ1HULeUzGs3zNEed8PJVT0u1,html-keyboard-response,169,1312250,0.0-43.0-5.0-1.0-1.0-13.0,,,,,,,,,,,,,,,60db09ba98a44872897cc587,09:54:05,05/03/2024
10439.199999928474,"<div class = numbox><p style=""font-size: 2.4rem"">Please recall the letters you saw to the best of your ability. If you do not remember a particular letter, use the SKIP button.<br><b>(When you are ready to lock in your answer, press ENTER)</b></p><button id = button_1 class = ""square num-button"" onclick = ""recordClick(this)""><div class = content><div class = numbers>C</div></div></button><button id = button_2 class = ""square num-button"" onclick = ""recordClick(this)""><div class = content><div class = numbers>G</div></div></button><button id = button_3 class = ""square num-button"" onclick = ""recordClick(this)""><div class = content><div class = numbers>H</div></div></button><button id = button_4 class = ""square num-button"" onclick = ""recordClick(this)""><div class = content><div class = numbers>J</div></div></button><button id = button_5 class = ""square num-button"" onclick = ""recordClick(this)""><div class = content><div class = numbers>K</div></div></button><button id = button_6 class = ""square num-button"" onclick = ""recordClick(this)""><div class = content><div class = numbers>L</div></div></button><button id = button_7 class = ""square num-button"" onclick = ""recordClick(this)""><div class = content><div class = numbers>N</div></div></button><button id = button_8 class = ""square num-button"" onclick = ""recordClick(this)""><div class = content><div class = numbers>P</div></div></button><button id = button_9 class = ""square num-button"" onclick = ""recordClick(this)""><div class = content><div class = numbers>Q</div></div></button><button id = button_10 class = ""square num-button"" onclick = ""recordClick(this)""><div class = content><div class = numbers>R</div></div></button><button id = button_11 class = ""square num-button"" onclick = ""recordClick(this)""><div class = content><div class = numbers>S</div></div></button><button id = button_12 class = ""square num-button"" onclick = ""recordClick(this)""><div class = content><div class = numbers>Y</div></div></button><button class = clear_button id = ""ClearButton"" onclick = ""clearResponse()"">BACKSPACE</button><button class = blank_button id = ""BlankButton"" onclick = ""blankResponse()"">SKIP</button><p style=""font-size: 2.4rem""><u><b>Current Answer:</b></u></p><br><br><div id=echoed_txt style=""font-size: 5rem; color:blue;""><b></b></div></div>",enter,ospan,retrieval,k0JnQ1HULeUzGs3zNEed8PJVT0u1,html-keyboard-response,170,1323455,0.0-43.0-5.0-1.0-2.0,28,17,8,7.0,"[""Y"",""J"",""K"",""H"",""L""]","[""Y"",""H"",""Q"",""N"",""G"",""J"",""C""]",0.0,1.0,,,,,,,60db09ba98a44872897cc587,09:54:05,05/03/2024
8255.799999952316,[''],0,ospan,feedback,k0JnQ1HULeUzGs3zNEed8PJVT0u1,html-button-response,171,1332215,0.0-43.0-5.0-1.0-3.0,,,,,,,,,,,,100.0,0.0,,60db09ba98a44872897cc587,09:54:05,05/03/2024
,"<p style=""font-size:75px;"">...</p>",,ospan,iti,k0JnQ1HULeUzGs3zNEed8PJVT0u1,html-keyboard-response,172,1333228,0.0-43.0-6.0-0.0-0.0,,,,,,,,,,,,,,,60db09ba98a44872897cc587,09:54:05,05/03/2024
5107.0,,,ospan,symmetry,k0JnQ1HULeUzGs3zNEed8PJVT0u1,symmetry-judgement-task,173,1339378,0.0-43.0-6.0-0.0-1.0-0.0,,,,,,,,,,1.0,1.0,,,,60db09ba98a44872897cc587,09:54:05,05/03/2024
,"<div style=""font-size: 10rem; color: #0000FF"">P</div>",,ospan,letter,k0JnQ1HULeUzGs3zNEed8PJVT0u1,html-keyboard-response,174,1340380,0.0-43.0-6.0-0.0-1.0-1.0,,,,,,,,,,,,,,,60db09ba98a44872897cc587,09:54:05,05/03/2024
5114.0,,,ospan,symmetry,k0JnQ1HULeUzGs3zNEed8PJVT0u1,symmetry-judgement-task,175,1347459,0.0-43.0-6.0-0.0-1.0-2.0,,,,,,,,,,1.0,1.0,,,,60db09ba98a44872897cc587,09:54:05,05/03/2024
,"<div style=""font-size: 10rem; color: #0000FF"">L</div>",,ospan,letter,k0JnQ1HULeUzGs3zNEed8PJVT0u1,html-keyboard-response,176,1348473,0.0-43.0-6.0-0.0-1.0-3.0,,,,,,,,,,,,,,,60db09ba98a44872897cc587,09:54:05,05/03/2024
2576.0,,,ospan,symmetry,k0JnQ1HULeUzGs3zNEed8PJVT0u1,symmetry-judgement-task,177,1352962,0.0-43.0-6.0-0.0-1.0-4.0,,,,,,,,,,1.0,1.0,,,,60db09ba98a44872897cc587,09:54:05,05/03/2024
,"<div style=""font-size: 10rem; color: #0000FF"">C</div>",,ospan,letter,k0JnQ1HULeUzGs3zNEed8PJVT0u1,html-keyboard-response,178,1353963,0.0-43.0-6.0-0.0-1.0-5.0,,,,,,,,,,,,,,,60db09ba98a44872897cc587,09:54:05,05/03/2024
3070.0,,,ospan,symmetry,k0JnQ1HULeUzGs3zNEed8PJVT0u1,symmetry-judgement-task,179,1358944,0.0-43.0-6.0-0.0-1.0-6.0,,,,,,,,,,1.0,1.0,,,,60db09ba98a44872897cc587,09:54:05,05/03/2024
,"<div style=""font-size: 10rem; color: #0000FF"">R</div>",,ospan,letter,k0JnQ1HULeUzGs3zNEed8PJVT0u1,html-keyboard-response,180,1359960,0.0-43.0-6.0-0.0-1.0-7.0,,,,,,,,,,,,,,,60db09ba98a44872897cc587,09:54:05,05/03/2024
4369.0,,,ospan,symmetry,k0JnQ1HULeUzGs3zNEed8PJVT0u1,symmetry-judgement-task,181,1366226,0.0-43.0-6.0-0.0-1.0-8.0,,,,,,,,,,1.0,1.0,,,,60db09ba98a44872897cc587,09:54:05,05/03/2024
,"<div style=""font-size: 10rem; color: #0000FF"">S</div>",,ospan,letter,k0JnQ1HULeUzGs3zNEed8PJVT0u1,html-keyboard-response,182,1367228,0.0-43.0-6.0-0.0-1.0-9.0,,,,,,,,,,,,,,,60db09ba98a44872897cc587,09:54:05,05/03/2024
8973.600000023842,"<div class = numbox><p style=""font-size: 2.4rem"">Please recall the letters you saw to the best of your ability. If you do not remember a particular letter, use the SKIP button.<br><b>(When you are ready to lock in your answer, press ENTER)</b></p><button id = button_1 class = ""square num-button"" onclick = ""recordClick(this)""><div class = content><div class = numbers>C</div></div></button><button id = button_2 class = ""square num-button"" onclick = ""recordClick(this)""><div class = content><div class = numbers>G</div></div></button><button id = button_3 class = ""square num-button"" onclick = ""recordClick(this)""><div class = content><div class = numbers>H</div></div></button><button id = button_4 class = ""square num-button"" onclick = ""recordClick(this)""><div class = content><div class = numbers>J</div></div></button><button id = button_5 class = ""square num-button"" onclick = ""recordClick(this)""><div class = content><div class = numbers>K</div></div></button><button id = button_6 class = ""square num-button"" onclick = ""recordClick(this)""><div class = content><div class = numbers>L</div></div></button><button id = button_7 class = ""square num-button"" onclick = ""recordClick(this)""><div class = content><div class = numbers>N</div></div></button><button id = button_8 class = ""square num-button"" onclick = ""recordClick(this)""><div class = content><div class = numbers>P</div></div></button><button id = button_9 class = ""square num-button"" onclick = ""recordClick(this)""><div class = content><div class = numbers>Q</div></div></button><button id = button_10 class = ""square num-button"" onclick = ""recordClick(this)""><div class = content><div class = numbers>R</div></div></button><button id = button_11 class = ""square num-button"" onclick = ""recordClick(this)""><div class = content><div class = numbers>S</div></div></button><button id = button_12 class = ""square num-button"" onclick = ""recordClick(this)""><div class = content><div class = numbers>Y</div></div></button><button class = clear_button id = ""ClearButton"" onclick = ""clearResponse()"">BACKSPACE</button><button class = blank_button id = ""BlankButton"" onclick = ""blankResponse()"">SKIP</button><p style=""font-size: 2.4rem""><u><b>Current Answer:</b></u></p><br><br><div id=echoed_txt style=""font-size: 5rem; color:blue;""><b></b></div></div>",enter,ospan,retrieval,k0JnQ1HULeUzGs3zNEed8PJVT0u1,html-keyboard-response,183,1376967,0.0-43.0-6.0-0.0-2.0,33,21,8,5.0,"[""P"",""L"",""C"",""R""]","[""P"",""L"",""C"",""R"",""S""]",0.0,4.0,,,,,,,60db09ba98a44872897cc587,09:54:05,05/03/2024
53765.800000071526,[''],0,ospan,feedback,k0JnQ1HULeUzGs3zNEed8PJVT0u1,html-button-response,184,1431239,0.0-43.0-6.0-0.0-3.0,,,,,,,,,,,,100.0,0.0,,60db09ba98a44872897cc587,09:54:05,05/03/2024
,"<p style=""font-size:75px;"">...</p>",,ospan,iti,k0JnQ1HULeUzGs3zNEed8PJVT0u1,html-keyboard-response,185,1432256,0.0-43.0-6.0-1.0-0.0,,,,,,,,,,,,,,,60db09ba98a44872897cc587,09:54:05,05/03/2024
3678.0,,,ospan,symmetry,k0JnQ1HULeUzGs3zNEed8PJVT0u1,symmetry-judgement-task,186,1437075,0.0-43.0-6.0-1.0-1.0-0.0,,,,,,,,,,1.0,1.0,,,,60db09ba98a44872897cc587,09:54:05,05/03/2024
,"<div style=""font-size: 10rem; color: #0000FF"">S</div>",,ospan,letter,k0JnQ1HULeUzGs3zNEed8PJVT0u1,html-keyboard-response,187,1438077,0.0-43.0-6.0-1.0-1.0-1.0,,,,,,,,,,,,,,,60db09ba98a44872897cc587,09:54:05,05/03/2024
3336.0,,,ospan,symmetry,k0JnQ1HULeUzGs3zNEed8PJVT0u1,symmetry-judgement-task,188,1443356,0.0-43.0-6.0-1.0-1.0-2.0,,,,,,,,,,1.0,1.0,,,,60db09ba98a44872897cc587,09:54:05,05/03/2024
,"<div style=""font-size: 10rem; color: #0000FF"">G</div>",,ospan,letter,k0JnQ1HULeUzGs3zNEed8PJVT0u1,html-keyboard-response,189,1444359,0.0-43.0-6.0-1.0-1.0-3.0,,,,,,,,,,,,,,,60db09ba98a44872897cc587,09:54:05,05/03/2024
3012.0,,,ospan,symmetry,k0JnQ1HULeUzGs3zNEed8PJVT0u1,symmetry-judgement-task,190,1449277,0.0-43.0-6.0-1.0-1.0-4.0,,,,,,,,,,1.0,1.0,,,,60db09ba98a44872897cc587,09:54:05,05/03/2024
,"<div style=""font-size: 10rem; color: #0000FF"">Q</div>",,ospan,letter,k0JnQ1HULeUzGs3zNEed8PJVT0u1,html-keyboard-response,191,1450288,0.0-43.0-6.0-1.0-1.0-5.0,,,,,,,,,,,,,,,60db09ba98a44872897cc587,09:54:05,05/03/2024
3196.0,,,ospan,symmetry,k0JnQ1HULeUzGs3zNEed8PJVT0u1,symmetry-judgement-task,192,1455374,0.0-43.0-6.0-1.0-1.0-6.0,,,,,,,,,,1.0,1.0,,,,60db09ba98a44872897cc587,09:54:05,05/03/2024
,"<div style=""font-size: 10rem; color: #0000FF"">P</div>",,ospan,letter,k0JnQ1HULeUzGs3zNEed8PJVT0u1,html-keyboard-response,193,1456390,0.0-43.0-6.0-1.0-1.0-7.0,,,,,,,,,,,,,,,60db09ba98a44872897cc587,09:54:05,05/03/2024
4966.0,,,ospan,symmetry,k0JnQ1HULeUzGs3zNEed8PJVT0u1,symmetry-judgement-task,194,1463288,0.0-43.0-6.0-1.0-1.0-8.0,,,,,,,,,,1.0,1.0,,,,60db09ba98a44872897cc587,09:54:05,05/03/2024
,"<div style=""font-size: 10rem; color: #0000FF"">R</div>",,ospan,letter,k0JnQ1HULeUzGs3zNEed8PJVT0u1,html-keyboard-response,195,1464293,0.0-43.0-6.0-1.0-1.0-9.0,,,,,,,,,,,,,,,60db09ba98a44872897cc587,09:54:05,05/03/2024
4474.0,,,ospan,symmetry,k0JnQ1HULeUzGs3zNEed8PJVT0u1,symmetry-judgement-task,196,1470672,0.0-43.0-6.0-1.0-1.0-10.0,,,,,,,,,,1.0,1.0,,,,60db09ba98a44872897cc587,09:54:05,05/03/2024
,"<div style=""font-size: 10rem; color: #0000FF"">K</div>",,ospan,letter,k0JnQ1HULeUzGs3zNEed8PJVT0u1,html-keyboard-response,197,1471677,0.0-43.0-6.0-1.0-1.0-11.0,,,,,,,,,,,,,,,60db09ba98a44872897cc587,09:54:05,05/03/2024
3395.0,,,ospan,symmetry,k0JnQ1HULeUzGs3zNEed8PJVT0u1,symmetry-judgement-task,198,1476871,0.0-43.0-6.0-1.0-1.0-12.0,,,,,,,,,,1.0,1.0,,,,60db09ba98a44872897cc587,09:54:05,05/03/2024
,"<div style=""font-size: 10rem; color: #0000FF"">J</div>",,ospan,letter,k0JnQ1HULeUzGs3zNEed8PJVT0u1,html-keyboard-response,199,1477880,0.0-43.0-6.0-1.0-1.0-13.0,,,,,,,,,,,,,,,60db09ba98a44872897cc587,09:54:05,05/03/2024
5140.0,,,ospan,symmetry,k0JnQ1HULeUzGs3zNEed8PJVT0u1,symmetry-judgement-task,200,1484942,0.0-43.0-6.0-1.0-1.0-14.0,,,,,,,,,,1.0,1.0,,,,60db09ba98a44872897cc587,09:54:05,05/03/2024
,"<div style=""font-size: 10rem; color: #0000FF"">C</div>",,ospan,letter,k0JnQ1HULeUzGs3zNEed8PJVT0u1,html-keyboard-response,201,1485944,0.0-43.0-6.0-1.0-1.0-15.0,,,,,,,,,,,,,,,60db09ba98a44872897cc587,09:54:05,05/03/2024
10610.199999928474,"<div class = numbox><p style=""font-size: 2.4rem"">Please recall the letters you saw to the best of your ability. If you do not remember a particular letter, use the SKIP button.<br><b>(When you are ready to lock in your answer, press ENTER)</b></p><button id = button_1 class = ""square num-button"" onclick = ""recordClick(this)""><div class = content><div class = numbers>C</div></div></button><button id = button_2 class = ""square num-button"" onclick = ""recordClick(this)""><div class = content><div class = numbers>G</div></div></button><button id = button_3 class = ""square num-button"" onclick = ""recordClick(this)""><div class = content><div class = numbers>H</div></div></button><button id = button_4 class = ""square num-button"" onclick = ""recordClick(this)""><div class = content><div class = numbers>J</div></div></button><button id = button_5 class = ""square num-button"" onclick = ""recordClick(this)""><div class = content><div class = numbers>K</div></div></button><button id = button_6 class = ""square num-button"" onclick = ""recordClick(this)""><div class = content><div class = numbers>L</div></div></button><button id = button_7 class = ""square num-button"" onclick = ""recordClick(this)""><div class = content><div class = numbers>N</div></div></button><button id = button_8 class = ""square num-button"" onclick = ""recordClick(this)""><div class = content><div class = numbers>P</div></div></button><button id = button_9 class = ""square num-button"" onclick = ""recordClick(this)""><div class = content><div class = numbers>Q</div></div></button><button id = button_10 class = ""square num-button"" onclick = ""recordClick(this)""><div class = content><div class = numbers>R</div></div></button><button id = button_11 class = ""square num-button"" onclick = ""recordClick(this)""><div class = content><div class = numbers>S</div></div></button><button id = button_12 class = ""square num-button"" onclick = ""recordClick(this)""><div class = content><div class = numbers>Y</div></div></button><button class = clear_button id = ""ClearButton"" onclick = ""clearResponse()"">BACKSPACE</button><button class = blank_button id = ""BlankButton"" onclick = ""blankResponse()"">SKIP</button><p style=""font-size: 2.4rem""><u><b>Current Answer:</b></u></p><br><br><div id=echoed_txt style=""font-size: 5rem; color:blue;""><b></b></div></div>",enter,ospan,retrieval,k0JnQ1HULeUzGs3zNEed8PJVT0u1,html-keyboard-response,202,1497316,0.0-43.0-6.0-1.0-2.0,41,22,8,8.0,"[""S"",""C"",""G"",""R"",""K"",""N""]","[""S"",""G"",""Q"",""P"",""R"",""K"",""J"",""C""]",0.0,1.0,,,,,,,60db09ba98a44872897cc587,09:54:05,05/03/2024
2243.6999999284744,[''],0,ospan,feedback,k0JnQ1HULeUzGs3zNEed8PJVT0u1,html-button-response,203,1500065,0.0-43.0-6.0-1.0-3.0,,,,,,,,,,,,100.0,0.0,,60db09ba98a44872897cc587,09:54:05,05/03/2024
15105.0,,{'Q0': 'very engaging'},ospan,survey_ospan,k0JnQ1HULeUzGs3zNEed8PJVT0u1,lmdlab-survey-text,204,1515927,0.0-43.0-7.0,,,,,,,,,,,,,,k0JnQ1HULeUzGs3zNEed8PJVT0u1,60db09ba98a44872897cc587,09:54:05,05/03/2024
3946.899999976158,<p><p style='font-size: 3rem'>Great work!<br><br>This completes the symmetry and memory task.</p><br><br><br>,0,ospan,finish,k0JnQ1HULeUzGs3zNEed8PJVT0u1,html-button-response,205,1519876,0.0-43.0-8.0,41,22,8,,,,,,,,,100.0,,,60db09ba98a44872897cc587,09:54:05,05/03/2024
