rt,stimulus,response,exp_name,exp_stage,subjectID,trial_type,trial_index,time_elapsed,internal_node_id,ospan_shown,ospan_total,ospan_abs,length,resp_actual,resp_correct,full_correct,num_correct,feedback,accuracy,correct,math_acc,math_warning,databaseID,prolificID,start_time,date
13355.300000071526,<div class = 'left_align' style='font-size: 3.25rem; line-height: 1.3;'><p class = 'center_align'><b>Welcome to the Symmetry and Memory Task</b><br><br><br><br></p>Press 'continue' to show the instructions.<br><br><br><br></div>,0,ospan,instruct,HVtgqhIwqSZNq9sUTunXDYHUQ7G2,html-button-response,54,1276880,0.0-46.0-0.0-0.0-0.0,,,,,,,,,,,,,,,62d6dcf502178276f7fba480,07:38:03,04/04/2024
22901.099999904633,"<div class = 'left_align' style='font-size: 3.25rem; line-height: 1.3;'><p class = 'center_align'><b>Symmetry and Memory Task</b><br><br></p>In this task, you will try to memorize letters you see on the screen<br>while you also view black and white grid pictures.<br><br>In the next few minutes, you will have some practice to get you familiar<br>with how the task works.<br><br>It may be difficult sometimes, but please do not worry about making mistakes!<br><br>We will begin by practicing the letter part of the task.<br><br><br><br></div>",0,ospan,instruct,HVtgqhIwqSZNq9sUTunXDYHUQ7G2,html-button-response,55,1300037,0.0-46.0-0.0-0.0-1.0,,,,,,,,,,,,,,,62d6dcf502178276f7fba480,07:38:03,04/04/2024
32584.900000095367,"<div class = 'left_align' style='font-size: 3.25rem; line-height: 1.3;'>For this practice part, letters will appear on the screen one at a time.<br><br>Try to remember each letter in the order presented.<br><br>After some letters have been shown, you will see a response screen. Your<br>goal is to report the letters you saw <b>in order</b>. If you do not remember<br>a particular letter, you will have the option to leave it blank.<br><br><br><br></div>",0,ospan,instruct,HVtgqhIwqSZNq9sUTunXDYHUQ7G2,html-button-response,56,1332889,0.0-46.0-0.0-0.0-2.0,,,,,,,,,,,,,,,62d6dcf502178276f7fba480,07:38:03,04/04/2024
14749.100000023842,"<div class = 'left_align' style='font-size: 3.25rem; line-height: 1.3;'>Remember, it is very important to get the letters in the same<br>order as you see them.<br><br>When you are ready, you may begin the letter practice.</div><br><br><br><br>",0,ospan,instruct,HVtgqhIwqSZNq9sUTunXDYHUQ7G2,html-button-response,57,1347901,0.0-46.0-0.0-0.0-3.0,,,,,,,,,,,,,,,62d6dcf502178276f7fba480,07:38:03,04/04/2024
,"<p style=""font-size:75px;"">...</p>",,ospan,iti,HVtgqhIwqSZNq9sUTunXDYHUQ7G2,html-keyboard-response,58,1349187,0.0-46.0-0.0-1.0-0.0,,,,,,,,,,,,,,,62d6dcf502178276f7fba480,07:38:03,04/04/2024
,"<div style=""font-size: 10rem; color: #0000FF"">Y</div>",,ospan,letter,HVtgqhIwqSZNq9sUTunXDYHUQ7G2,html-keyboard-response,59,1350203,0.0-46.0-0.0-1.0-1.0,,,,,,,,,,,,,,,62d6dcf502178276f7fba480,07:38:03,04/04/2024
,"<div style=""font-size: 10rem; color: #0000FF"">H</div>",,ospan,letter,HVtgqhIwqSZNq9sUTunXDYHUQ7G2,html-keyboard-response,60,1351985,0.0-46.0-0.0-1.0-2.0,,,,,,,,,,,,,,,62d6dcf502178276f7fba480,07:38:03,04/04/2024
15644.399999976158,"<div class = numbox><p style=""font-size: 2.4rem"">Please recall the letters you saw to the best of your ability. If you do not remember a particular letter, use the SKIP button.<br><b>(When you are ready to lock in your answer, press ENTER)</b></p><button id = button_1 class = ""square num-button"" onclick = ""recordClick(this)""><div class = content><div class = numbers>C</div></div></button><button id = button_2 class = ""square num-button"" onclick = ""recordClick(this)""><div class = content><div class = numbers>G</div></div></button><button id = button_3 class = ""square num-button"" onclick = ""recordClick(this)""><div class = content><div class = numbers>H</div></div></button><button id = button_4 class = ""square num-button"" onclick = ""recordClick(this)""><div class = content><div class = numbers>J</div></div></button><button id = button_5 class = ""square num-button"" onclick = ""recordClick(this)""><div class = content><div class = numbers>K</div></div></button><button id = button_6 class = ""square num-button"" onclick = ""recordClick(this)""><div class = content><div class = numbers>L</div></div></button><button id = button_7 class = ""square num-button"" onclick = ""recordClick(this)""><div class = content><div class = numbers>N</div></div></button><button id = button_8 class = ""square num-button"" onclick = ""recordClick(this)""><div class = content><div class = numbers>P</div></div></button><button id = button_9 class = ""square num-button"" onclick = ""recordClick(this)""><div class = content><div class = numbers>Q</div></div></button><button id = button_10 class = ""square num-button"" onclick = ""recordClick(this)""><div class = content><div class = numbers>R</div></div></button><button id = button_11 class = ""square num-button"" onclick = ""recordClick(this)""><div class = content><div class = numbers>S</div></div></button><button id = button_12 class = ""square num-button"" onclick = ""recordClick(this)""><div class = content><div class = numbers>Y</div></div></button><button class = clear_button id = ""ClearButton"" onclick = ""clearResponse()"">BACKSPACE</button><button class = blank_button id = ""BlankButton"" onclick = ""blankResponse()"">SKIP</button><p style=""font-size: 2.4rem""><u><b>Current Answer:</b></u></p><br><br><div id=echoed_txt style=""font-size: 5rem; color:blue;""><b></b></div></div>",enter,ospan,retrieval,HVtgqhIwqSZNq9sUTunXDYHUQ7G2,html-keyboard-response,61,1368398,0.0-46.0-0.0-1.0-3.0,NA,NA,NA,2.0,"[""Y"",""H""]","[""Y"",""H""]",1.0,2.0,"['<font color=""green"">Y</font>', '<font color=""green"">H</font>']",,,,,,62d6dcf502178276f7fba480,07:38:03,04/04/2024
7020.599999904633,"['<p style=""font-size:44px"">Letters:<br><br><br><font color=""green"">Y</font> <font color=""green"">H</font></p><br><br>']",0,ospan,practice_feedback,HVtgqhIwqSZNq9sUTunXDYHUQ7G2,html-button-response,62,1375925,0.0-46.0-0.0-1.0-4.0,,,,,,,,,,,,,,,62d6dcf502178276f7fba480,07:38:03,04/04/2024
,"<p style=""font-size:75px;"">...</p>",,ospan,iti,HVtgqhIwqSZNq9sUTunXDYHUQ7G2,html-keyboard-response,63,1376934,0.0-46.0-0.0-2.0-0.0,,,,,,,,,,,,,,,62d6dcf502178276f7fba480,07:38:03,04/04/2024
,"<div style=""font-size: 10rem; color: #0000FF"">Q</div>",,ospan,letter,HVtgqhIwqSZNq9sUTunXDYHUQ7G2,html-keyboard-response,64,1377951,0.0-46.0-0.0-2.0-1.0,,,,,,,,,,,,,,,62d6dcf502178276f7fba480,07:38:03,04/04/2024
,"<div style=""font-size: 10rem; color: #0000FF"">G</div>",,ospan,letter,HVtgqhIwqSZNq9sUTunXDYHUQ7G2,html-keyboard-response,65,1379719,0.0-46.0-0.0-2.0-2.0,,,,,,,,,,,,,,,62d6dcf502178276f7fba480,07:38:03,04/04/2024
,"<div style=""font-size: 10rem; color: #0000FF"">N</div>",,ospan,letter,HVtgqhIwqSZNq9sUTunXDYHUQ7G2,html-keyboard-response,66,1381502,0.0-46.0-0.0-2.0-3.0,,,,,,,,,,,,,,,62d6dcf502178276f7fba480,07:38:03,04/04/2024
23192.299999952316,"<div class = numbox><p style=""font-size: 2.4rem"">Please recall the letters you saw to the best of your ability. If you do not remember a particular letter, use the SKIP button.<br><b>(When you are ready to lock in your answer, press ENTER)</b></p><button id = button_1 class = ""square num-button"" onclick = ""recordClick(this)""><div class = content><div class = numbers>C</div></div></button><button id = button_2 class = ""square num-button"" onclick = ""recordClick(this)""><div class = content><div class = numbers>G</div></div></button><button id = button_3 class = ""square num-button"" onclick = ""recordClick(this)""><div class = content><div class = numbers>H</div></div></button><button id = button_4 class = ""square num-button"" onclick = ""recordClick(this)""><div class = content><div class = numbers>J</div></div></button><button id = button_5 class = ""square num-button"" onclick = ""recordClick(this)""><div class = content><div class = numbers>K</div></div></button><button id = button_6 class = ""square num-button"" onclick = ""recordClick(this)""><div class = content><div class = numbers>L</div></div></button><button id = button_7 class = ""square num-button"" onclick = ""recordClick(this)""><div class = content><div class = numbers>N</div></div></button><button id = button_8 class = ""square num-button"" onclick = ""recordClick(this)""><div class = content><div class = numbers>P</div></div></button><button id = button_9 class = ""square num-button"" onclick = ""recordClick(this)""><div class = content><div class = numbers>Q</div></div></button><button id = button_10 class = ""square num-button"" onclick = ""recordClick(this)""><div class = content><div class = numbers>R</div></div></button><button id = button_11 class = ""square num-button"" onclick = ""recordClick(this)""><div class = content><div class = numbers>S</div></div></button><button id = button_12 class = ""square num-button"" onclick = ""recordClick(this)""><div class = content><div class = numbers>Y</div></div></button><button class = clear_button id = ""ClearButton"" onclick = ""clearResponse()"">BACKSPACE</button><button class = blank_button id = ""BlankButton"" onclick = ""blankResponse()"">SKIP</button><p style=""font-size: 2.4rem""><u><b>Current Answer:</b></u></p><br><br><div id=echoed_txt style=""font-size: 5rem; color:blue;""><b></b></div></div>",enter,ospan,retrieval,HVtgqhIwqSZNq9sUTunXDYHUQ7G2,html-keyboard-response,67,1405461,0.0-46.0-0.0-2.0-4.0,NA,NA,NA,3.0,"[""Q"",""G"",""N""]","[""Q"",""G"",""N""]",1.0,3.0,"['<font color=""green"">Q</font>', '<font color=""green"">G</font>', '<font color=""green"">N</font>']",,,,,,62d6dcf502178276f7fba480,07:38:03,04/04/2024
3579.3000000715256,"['<p style=""font-size:44px"">Letters:<br><br><br><font color=""green"">Q</font> <font color=""green"">G</font> <font color=""green"">N</font></p><br><br>']",0,ospan,practice_feedback,HVtgqhIwqSZNq9sUTunXDYHUQ7G2,html-button-response,68,1409549,0.0-46.0-0.0-2.0-5.0,,,,,,,,,,,,,,,62d6dcf502178276f7fba480,07:38:03,04/04/2024
37795.0,"<div class = 'left_align' style='font-size: 3.25rem; line-height: 1.3;'>Now you will practice doing the <b>symmetry judgment part</b> of the experiment.<br><br>A black and white grid picture will appear on the screen and you have to judge if it is <br>symmetrical or asymetrical.<br><br>A picture is 'mirror' symmetrical if its left half is identical to the right half when flipped.<br>Here are examples of a symmetrical and an asymetrical picture:<br><br><center><img src='Stimuli/img/symm_instructions_extra.png' style='height:420px; width:900'></img></center><br>To judge symmetry, imagine you were to fold each picture down the middle, like a book –<br>would the left half match the right half when folded onto each other?<br><br></div><br>",0,ospan,instruct,HVtgqhIwqSZNq9sUTunXDYHUQ7G2,html-button-response,69,1447346,0.0-46.0-1.0-0.0-0.0,,,,,,,,,,,,,,,62d6dcf502178276f7fba480,07:38:03,04/04/2024
14336.0,"<div class = 'left_align' style='font-size: 3.25rem; line-height: 1.3;'>When you have viewed the picture and determined whether it is symmetrical or not,<br>you can <b>click the Yes or No button</b> below to answer.<br><br>If you take longer than 15 seconds, it will continue automatically<br>and record the answer as an error.</div><br>",0,ospan,instruct,HVtgqhIwqSZNq9sUTunXDYHUQ7G2,html-button-response,70,1461938,0.0-46.0-1.0-0.0-1.0,,,,,,,,,,,,,,,62d6dcf502178276f7fba480,07:38:03,04/04/2024
18617.900000095367,"<div class = 'left_align' style='font-size: 3.25rem; line-height: 1.3;'>It is <b>very</b> important that you make the symmetry judgment correctly.<br><br>It is also important that you try and judge the picture as quickly as you can.<br><br>When you are ready, click on the button below to try some practice problems.</div><br><br><br><br>",0,ospan,instruct,HVtgqhIwqSZNq9sUTunXDYHUQ7G2,html-button-response,71,1480820,0.0-46.0-1.0-0.0-2.0,,,,,,,,,,,,,,,62d6dcf502178276f7fba480,07:38:03,04/04/2024
2377.0,,,ospan,symmetry,HVtgqhIwqSZNq9sUTunXDYHUQ7G2,symmetry-judgement-task,72,1484035,0.0-46.0-1.0-1.0-0.0,,,,,,,,,,1.0,1.0,,,,62d6dcf502178276f7fba480,07:38:03,04/04/2024
,"<p style=""color:green; font-size: 35px"">Correct</p>",,ospan,feedback,HVtgqhIwqSZNq9sUTunXDYHUQ7G2,html-keyboard-response,73,1484801,0.0-46.0-1.0-1.0-1.0,,,,,,,,,,,,,,,62d6dcf502178276f7fba480,07:38:03,04/04/2024
2280.0,,,ospan,symmetry,HVtgqhIwqSZNq9sUTunXDYHUQ7G2,symmetry-judgement-task,74,1489784,0.0-46.0-1.0-1.0-2.0,,,,,,,,,,1.0,1.0,,,,62d6dcf502178276f7fba480,07:38:03,04/04/2024
,"<p style=""color:green; font-size: 35px"">Correct</p>",,ospan,feedback,HVtgqhIwqSZNq9sUTunXDYHUQ7G2,html-keyboard-response,75,1490551,0.0-46.0-1.0-1.0-3.0,,,,,,,,,,,,,,,62d6dcf502178276f7fba480,07:38:03,04/04/2024
2460.0,,,ospan,symmetry,HVtgqhIwqSZNq9sUTunXDYHUQ7G2,symmetry-judgement-task,76,1495717,0.0-46.0-1.0-1.0-4.0,,,,,,,,,,1.0,1.0,,,,62d6dcf502178276f7fba480,07:38:03,04/04/2024
,"<p style=""color:green; font-size: 35px"">Correct</p>",,ospan,feedback,HVtgqhIwqSZNq9sUTunXDYHUQ7G2,html-keyboard-response,77,1496471,0.0-46.0-1.0-1.0-5.0,,,,,,,,,,,,,,,62d6dcf502178276f7fba480,07:38:03,04/04/2024
20332.600000023842,"<p style=""font-size: 3rem;"">You responded correctly on 3 of 3 symmetry judgments. Good job!</p><br><br>",0,ospan,practice,HVtgqhIwqSZNq9sUTunXDYHUQ7G2,html-button-response,78,1518818,0.0-46.0-1.0-2.0,,,,,,,,,,,,,,,62d6dcf502178276f7fba480,07:38:03,04/04/2024
37362.0,"<div class = 'left_align' style='font-size: 3.25rem; line-height: 1.3;'>Now you will practice doing both parts of the experiment at the same time.<br><br>In the next practice set, you will be given one grid picture to judge.<br>Then letter will appear on the screen. Try to remember the letter.<br><br>It is <b>very important</b> to make the symmetry judgment as quickly and accurately as possible.<br><br>Just as before, once you have make the symmetry judgment, you can click Yes or No.<br><b>Note that you will no longer see Correct or Incorrect feedback.</div><br><br><br><br>",0,ospan,instruct,HVtgqhIwqSZNq9sUTunXDYHUQ7G2,html-button-response,79,1556448,0.0-46.0-2.0-0.0-0.0,,,,,,,,,,,,,,,62d6dcf502178276f7fba480,07:38:03,04/04/2024
21979.799999952316,"<div class = 'left_align' style='font-size: 3.25rem; line-height: 1.3;'>After the letter goes away, another grid picture will appear, and then<br>another letter.<br><br>At the end of each set of letters and grids, you will recall the letters to the best<br>of your ability. Remember, try your best to get the letters in the correct order.<br><br>It is important to <b>quickly</b> and <b>accurately</b> make the symmetry judgments.</div><br><br><br><br>",0,ospan,instruct,HVtgqhIwqSZNq9sUTunXDYHUQ7G2,html-button-response,80,1578682,0.0-46.0-2.0-0.0-1.0,,,,,,,,,,,,,,,62d6dcf502178276f7fba480,07:38:03,04/04/2024
22863.900000095367,"<div class = 'left_align' style='font-size: 3.25rem; line-height: 1.3;'>On the feedback screen, if you are not doing well at the symmetry judgments,<br>you will also see a warning in the middle. This indicates your percent <br>correct for the grid pictures for the entire experiment.<br><br>It is <b>very</b> important for you to keep accuracy at least at 85%: <u>We can only use<br>data where the participant was at least 85% accurate on the judgments.</u> Therefore,<br> please try your best to perform well on the symmetry judgments, <b>at the same time</b><br>doing your best to recall as many letters as possible.<br><br>Click the button to try some practice problems.</div><br><br><br><br>",0,ospan,instruct,HVtgqhIwqSZNq9sUTunXDYHUQ7G2,html-button-response,81,1601800,0.0-46.0-2.0-0.0-2.0,,,,,,,,,,,,,,,62d6dcf502178276f7fba480,07:38:03,04/04/2024
,"<p style=""font-size:75px;"">...</p>",,ospan,iti,HVtgqhIwqSZNq9sUTunXDYHUQ7G2,html-keyboard-response,82,1603069,0.0-46.0-2.0-1.0-0.0,,,,,,,,,,,,,,,62d6dcf502178276f7fba480,07:38:03,04/04/2024
2165.0,,,ospan,symmetry,HVtgqhIwqSZNq9sUTunXDYHUQ7G2,symmetry-judgement-task,83,1606434,0.0-46.0-2.0-1.0-1.0-0.0,,,,,,,,,,1.0,1.0,,,,62d6dcf502178276f7fba480,07:38:03,04/04/2024
,"<div style=""font-size: 10rem; color: #0000FF"">N</div>",,ospan,letter,HVtgqhIwqSZNq9sUTunXDYHUQ7G2,html-keyboard-response,84,1607452,0.0-46.0-2.0-1.0-1.0-1.0,,,,,,,,,,,,,,,62d6dcf502178276f7fba480,07:38:03,04/04/2024
3568.0,,,ospan,symmetry,HVtgqhIwqSZNq9sUTunXDYHUQ7G2,symmetry-judgement-task,85,1612968,0.0-46.0-2.0-1.0-1.0-2.0,,,,,,,,,,1.0,1.0,,,,62d6dcf502178276f7fba480,07:38:03,04/04/2024
,"<div style=""font-size: 10rem; color: #0000FF"">P</div>",,ospan,letter,HVtgqhIwqSZNq9sUTunXDYHUQ7G2,html-keyboard-response,86,1613985,0.0-46.0-2.0-1.0-1.0-3.0,,,,,,,,,,,,,,,62d6dcf502178276f7fba480,07:38:03,04/04/2024
3941.0,,,ospan,symmetry,HVtgqhIwqSZNq9sUTunXDYHUQ7G2,symmetry-judgement-task,87,1619868,0.0-46.0-2.0-1.0-1.0-4.0,,,,,,,,,,1.0,1.0,,,,62d6dcf502178276f7fba480,07:38:03,04/04/2024
,"<div style=""font-size: 10rem; color: #0000FF"">L</div>",,ospan,letter,HVtgqhIwqSZNq9sUTunXDYHUQ7G2,html-keyboard-response,88,1620885,0.0-46.0-2.0-1.0-1.0-5.0,,,,,,,,,,,,,,,62d6dcf502178276f7fba480,07:38:03,04/04/2024
8355.399999976158,"<div class = numbox><p style=""font-size: 2.4rem"">Please recall the letters you saw to the best of your ability. If you do not remember a particular letter, use the SKIP button.<br><b>(When you are ready to lock in your answer, press ENTER)</b></p><button id = button_1 class = ""square num-button"" onclick = ""recordClick(this)""><div class = content><div class = numbers>C</div></div></button><button id = button_2 class = ""square num-button"" onclick = ""recordClick(this)""><div class = content><div class = numbers>G</div></div></button><button id = button_3 class = ""square num-button"" onclick = ""recordClick(this)""><div class = content><div class = numbers>H</div></div></button><button id = button_4 class = ""square num-button"" onclick = ""recordClick(this)""><div class = content><div class = numbers>J</div></div></button><button id = button_5 class = ""square num-button"" onclick = ""recordClick(this)""><div class = content><div class = numbers>K</div></div></button><button id = button_6 class = ""square num-button"" onclick = ""recordClick(this)""><div class = content><div class = numbers>L</div></div></button><button id = button_7 class = ""square num-button"" onclick = ""recordClick(this)""><div class = content><div class = numbers>N</div></div></button><button id = button_8 class = ""square num-button"" onclick = ""recordClick(this)""><div class = content><div class = numbers>P</div></div></button><button id = button_9 class = ""square num-button"" onclick = ""recordClick(this)""><div class = content><div class = numbers>Q</div></div></button><button id = button_10 class = ""square num-button"" onclick = ""recordClick(this)""><div class = content><div class = numbers>R</div></div></button><button id = button_11 class = ""square num-button"" onclick = ""recordClick(this)""><div class = content><div class = numbers>S</div></div></button><button id = button_12 class = ""square num-button"" onclick = ""recordClick(this)""><div class = content><div class = numbers>Y</div></div></button><button class = clear_button id = ""ClearButton"" onclick = ""clearResponse()"">BACKSPACE</button><button class = blank_button id = ""BlankButton"" onclick = ""blankResponse()"">SKIP</button><p style=""font-size: 2.4rem""><u><b>Current Answer:</b></u></p><br><br><div id=echoed_txt style=""font-size: 5rem; color:blue;""><b></b></div></div>",enter,ospan,retrieval,HVtgqhIwqSZNq9sUTunXDYHUQ7G2,html-keyboard-response,89,1630009,0.0-46.0-2.0-1.0-2.0-0.0,NA,NA,NA,3.0,"[""N"",""P"",""L""]","[""N"",""P"",""L""]",1.0,3.0,"['<font color=""green"">N</font>', '<font color=""green"">P</font>', '<font color=""green"">L</font>']",,,,,,62d6dcf502178276f7fba480,07:38:03,04/04/2024
7174.299999952316,"['<p style=""font-size:44px"">Letters:<br><br><br><font color=""green"">N</font> <font color=""green"">P</font> <font color=""green"">L</font></p><br><br><p style=""font-size:30px"">Symmetry:<br><br><font color=""green"">100%</font></p><br><br>']",0,ospan,practice_feedback,HVtgqhIwqSZNq9sUTunXDYHUQ7G2,html-button-response,90,1637696,0.0-46.0-2.0-1.0-2.0-1.0,,,,,,,,,,,,,,,62d6dcf502178276f7fba480,07:38:03,04/04/2024
,"<p style=""font-size:75px;"">...</p>",,ospan,iti,HVtgqhIwqSZNq9sUTunXDYHUQ7G2,html-keyboard-response,91,1638702,0.0-46.0-2.0-2.0-0.0,,,,,,,,,,,,,,,62d6dcf502178276f7fba480,07:38:03,04/04/2024
4562.0,,,ospan,symmetry,HVtgqhIwqSZNq9sUTunXDYHUQ7G2,symmetry-judgement-task,92,1644452,0.0-46.0-2.0-2.0-1.0-0.0,,,,,,,,,,1.0,1.0,,,,62d6dcf502178276f7fba480,07:38:03,04/04/2024
,"<div style=""font-size: 10rem; color: #0000FF"">Q</div>",,ospan,letter,HVtgqhIwqSZNq9sUTunXDYHUQ7G2,html-keyboard-response,93,1645468,0.0-46.0-2.0-2.0-1.0-1.0,,,,,,,,,,,,,,,62d6dcf502178276f7fba480,07:38:03,04/04/2024
3675.0,,,ospan,symmetry,HVtgqhIwqSZNq9sUTunXDYHUQ7G2,symmetry-judgement-task,94,1651069,0.0-46.0-2.0-2.0-1.0-2.0,,,,,,,,,,1.0,1.0,,,,62d6dcf502178276f7fba480,07:38:03,04/04/2024
,"<div style=""font-size: 10rem; color: #0000FF"">H</div>",,ospan,letter,HVtgqhIwqSZNq9sUTunXDYHUQ7G2,html-keyboard-response,95,1652085,0.0-46.0-2.0-2.0-1.0-3.0,,,,,,,,,,,,,,,62d6dcf502178276f7fba480,07:38:03,04/04/2024
4035.0,,,ospan,symmetry,HVtgqhIwqSZNq9sUTunXDYHUQ7G2,symmetry-judgement-task,96,1658085,0.0-46.0-2.0-2.0-1.0-4.0,,,,,,,,,,1.0,1.0,,,,62d6dcf502178276f7fba480,07:38:03,04/04/2024
,"<div style=""font-size: 10rem; color: #0000FF"">L</div>",,ospan,letter,HVtgqhIwqSZNq9sUTunXDYHUQ7G2,html-keyboard-response,97,1659087,0.0-46.0-2.0-2.0-1.0-5.0,,,,,,,,,,,,,,,62d6dcf502178276f7fba480,07:38:03,04/04/2024
9314.700000047684,"<div class = numbox><p style=""font-size: 2.4rem"">Please recall the letters you saw to the best of your ability. If you do not remember a particular letter, use the SKIP button.<br><b>(When you are ready to lock in your answer, press ENTER)</b></p><button id = button_1 class = ""square num-button"" onclick = ""recordClick(this)""><div class = content><div class = numbers>C</div></div></button><button id = button_2 class = ""square num-button"" onclick = ""recordClick(this)""><div class = content><div class = numbers>G</div></div></button><button id = button_3 class = ""square num-button"" onclick = ""recordClick(this)""><div class = content><div class = numbers>H</div></div></button><button id = button_4 class = ""square num-button"" onclick = ""recordClick(this)""><div class = content><div class = numbers>J</div></div></button><button id = button_5 class = ""square num-button"" onclick = ""recordClick(this)""><div class = content><div class = numbers>K</div></div></button><button id = button_6 class = ""square num-button"" onclick = ""recordClick(this)""><div class = content><div class = numbers>L</div></div></button><button id = button_7 class = ""square num-button"" onclick = ""recordClick(this)""><div class = content><div class = numbers>N</div></div></button><button id = button_8 class = ""square num-button"" onclick = ""recordClick(this)""><div class = content><div class = numbers>P</div></div></button><button id = button_9 class = ""square num-button"" onclick = ""recordClick(this)""><div class = content><div class = numbers>Q</div></div></button><button id = button_10 class = ""square num-button"" onclick = ""recordClick(this)""><div class = content><div class = numbers>R</div></div></button><button id = button_11 class = ""square num-button"" onclick = ""recordClick(this)""><div class = content><div class = numbers>S</div></div></button><button id = button_12 class = ""square num-button"" onclick = ""recordClick(this)""><div class = content><div class = numbers>Y</div></div></button><button class = clear_button id = ""ClearButton"" onclick = ""clearResponse()"">BACKSPACE</button><button class = blank_button id = ""BlankButton"" onclick = ""blankResponse()"">SKIP</button><p style=""font-size: 2.4rem""><u><b>Current Answer:</b></u></p><br><br><div id=echoed_txt style=""font-size: 5rem; color:blue;""><b></b></div></div>",enter,ospan,retrieval,HVtgqhIwqSZNq9sUTunXDYHUQ7G2,html-keyboard-response,98,1669168,0.0-46.0-2.0-2.0-2.0-0.0,NA,NA,NA,3.0,"[""Q"",""H"",""L""]","[""Q"",""H"",""L""]",1.0,3.0,"['<font color=""green"">Q</font>', '<font color=""green"">H</font>', '<font color=""green"">L</font>']",,,,,,62d6dcf502178276f7fba480,07:38:03,04/04/2024
8512.700000047684,"['<p style=""font-size:44px"">Letters:<br><br><br><font color=""green"">Q</font> <font color=""green"">H</font> <font color=""green"">L</font></p><br><br><p style=""font-size:30px"">Symmetry:<br><br><font color=""green"">100%</font></p><br><br>']",0,ospan,practice_feedback,HVtgqhIwqSZNq9sUTunXDYHUQ7G2,html-button-response,99,1678184,0.0-46.0-2.0-2.0-2.0-1.0,,,,,,,,,,,,,,,62d6dcf502178276f7fba480,07:38:03,04/04/2024
50915.10000002384,"<div class = 'left_align' style='font-size: 3rem; line-height: 1.3;'><b>Great work! That is the end of practice.</b><br><br>The real trials will look just like the practice trials you just completed.<br><br><u>Here, you will not see feedback</u>. First, you will see an grid picture to judge,<br>then a letter to remember. When the recall screen appears, report the letters in the<br>order presented. If you forget a letter, remember to use the <b>blank</b> button to move to the<br>next letter. Some of the sets will have more symmetry grids and letters than others.<br><br>It is important that you do your best on both the symmetry judgments and the letter recall<br>parts of the experiment. For for the symmetry judgments, try to work as <b>quickly</b> and <br>as <b>accurately</b> as possible. Remember to keep your symmetry accuracy at 85% or above.<br><br><b>For the letters, do NOT use any external aid (e.g., writing on paper, electronic device).</b><br><br>It is <u>very important</u> to our experiment to have a <b>true</b> view of your real performance.<br><br>Do not worry if you miss some when it gets hard! This task is meant to be very challenging!<br><br>Click the button to begin.</div><br><br><br><br>",0,ospan,starting_real_here,HVtgqhIwqSZNq9sUTunXDYHUQ7G2,html-button-response,100,1729102,0.0-46.0-2.0-3.0,,,,,,,,,,,,,,,62d6dcf502178276f7fba480,07:38:03,04/04/2024
,"<p style=""font-size:75px;"">...</p>",,ospan,iti,HVtgqhIwqSZNq9sUTunXDYHUQ7G2,html-keyboard-response,101,1730386,0.0-46.0-3.0-0.0-0.0,,,,,,,,,,,,,,,62d6dcf502178276f7fba480,07:38:03,04/04/2024
3947.0,,,ospan,symmetry,HVtgqhIwqSZNq9sUTunXDYHUQ7G2,symmetry-judgement-task,102,1735403,0.0-46.0-3.0-0.0-1.0-0.0,,,,,,,,,,1.0,1.0,,,,62d6dcf502178276f7fba480,07:38:03,04/04/2024
,"<div style=""font-size: 10rem; color: #0000FF"">C</div>",,ospan,letter,HVtgqhIwqSZNq9sUTunXDYHUQ7G2,html-keyboard-response,103,1736419,0.0-46.0-3.0-0.0-1.0-1.0,,,,,,,,,,,,,,,62d6dcf502178276f7fba480,07:38:03,04/04/2024
3332.0,,,ospan,symmetry,HVtgqhIwqSZNq9sUTunXDYHUQ7G2,symmetry-judgement-task,104,1741687,0.0-46.0-3.0-0.0-1.0-2.0,,,,,,,,,,1.0,1.0,,,,62d6dcf502178276f7fba480,07:38:03,04/04/2024
,"<div style=""font-size: 10rem; color: #0000FF"">Y</div>",,ospan,letter,HVtgqhIwqSZNq9sUTunXDYHUQ7G2,html-keyboard-response,105,1742703,0.0-46.0-3.0-0.0-1.0-3.0,,,,,,,,,,,,,,,62d6dcf502178276f7fba480,07:38:03,04/04/2024
2938.0,,,ospan,symmetry,HVtgqhIwqSZNq9sUTunXDYHUQ7G2,symmetry-judgement-task,106,1747586,0.0-46.0-3.0-0.0-1.0-4.0,,,,,,,,,,1.0,1.0,,,,62d6dcf502178276f7fba480,07:38:03,04/04/2024
,"<div style=""font-size: 10rem; color: #0000FF"">H</div>",,ospan,letter,HVtgqhIwqSZNq9sUTunXDYHUQ7G2,html-keyboard-response,107,1748603,0.0-46.0-3.0-0.0-1.0-5.0,,,,,,,,,,,,,,,62d6dcf502178276f7fba480,07:38:03,04/04/2024
8307.100000023842,"<div class = numbox><p style=""font-size: 2.4rem"">Please recall the letters you saw to the best of your ability. If you do not remember a particular letter, use the SKIP button.<br><b>(When you are ready to lock in your answer, press ENTER)</b></p><button id = button_1 class = ""square num-button"" onclick = ""recordClick(this)""><div class = content><div class = numbers>C</div></div></button><button id = button_2 class = ""square num-button"" onclick = ""recordClick(this)""><div class = content><div class = numbers>G</div></div></button><button id = button_3 class = ""square num-button"" onclick = ""recordClick(this)""><div class = content><div class = numbers>H</div></div></button><button id = button_4 class = ""square num-button"" onclick = ""recordClick(this)""><div class = content><div class = numbers>J</div></div></button><button id = button_5 class = ""square num-button"" onclick = ""recordClick(this)""><div class = content><div class = numbers>K</div></div></button><button id = button_6 class = ""square num-button"" onclick = ""recordClick(this)""><div class = content><div class = numbers>L</div></div></button><button id = button_7 class = ""square num-button"" onclick = ""recordClick(this)""><div class = content><div class = numbers>N</div></div></button><button id = button_8 class = ""square num-button"" onclick = ""recordClick(this)""><div class = content><div class = numbers>P</div></div></button><button id = button_9 class = ""square num-button"" onclick = ""recordClick(this)""><div class = content><div class = numbers>Q</div></div></button><button id = button_10 class = ""square num-button"" onclick = ""recordClick(this)""><div class = content><div class = numbers>R</div></div></button><button id = button_11 class = ""square num-button"" onclick = ""recordClick(this)""><div class = content><div class = numbers>S</div></div></button><button id = button_12 class = ""square num-button"" onclick = ""recordClick(this)""><div class = content><div class = numbers>Y</div></div></button><button class = clear_button id = ""ClearButton"" onclick = ""clearResponse()"">BACKSPACE</button><button class = blank_button id = ""BlankButton"" onclick = ""blankResponse()"">SKIP</button><p style=""font-size: 2.4rem""><u><b>Current Answer:</b></u></p><br><br><div id=echoed_txt style=""font-size: 5rem; color:blue;""><b></b></div></div>",enter,ospan,retrieval,HVtgqhIwqSZNq9sUTunXDYHUQ7G2,html-keyboard-response,108,1757662,0.0-46.0-3.0-0.0-2.0,3,3,3,3.0,"[""C"",""Y"",""H""]","[""C"",""Y"",""H""]",1.0,3.0,,,,,,,62d6dcf502178276f7fba480,07:38:03,04/04/2024
1529.0,[''],0,ospan,feedback,HVtgqhIwqSZNq9sUTunXDYHUQ7G2,html-button-response,109,1759702,0.0-46.0-3.0-0.0-3.0,,,,,,,,,,,,100.0,0.0,,62d6dcf502178276f7fba480,07:38:03,04/04/2024
,"<p style=""font-size:75px;"">...</p>",,ospan,iti,HVtgqhIwqSZNq9sUTunXDYHUQ7G2,html-keyboard-response,110,1760719,0.0-46.0-4.0-0.0-0.0,,,,,,,,,,,,,,,62d6dcf502178276f7fba480,07:38:03,04/04/2024
4031.0,,,ospan,symmetry,HVtgqhIwqSZNq9sUTunXDYHUQ7G2,symmetry-judgement-task,111,1765821,0.0-46.0-4.0-0.0-1.0-0.0,,,,,,,,,,1.0,1.0,,,,62d6dcf502178276f7fba480,07:38:03,04/04/2024
,"<div style=""font-size: 10rem; color: #0000FF"">R</div>",,ospan,letter,HVtgqhIwqSZNq9sUTunXDYHUQ7G2,html-keyboard-response,112,1766836,0.0-46.0-4.0-0.0-1.0-1.0,,,,,,,,,,,,,,,62d6dcf502178276f7fba480,07:38:03,04/04/2024
2845.0,,,ospan,symmetry,HVtgqhIwqSZNq9sUTunXDYHUQ7G2,symmetry-judgement-task,113,1771636,0.0-46.0-4.0-0.0-1.0-2.0,,,,,,,,,,1.0,1.0,,,,62d6dcf502178276f7fba480,07:38:03,04/04/2024
,"<div style=""font-size: 10rem; color: #0000FF"">J</div>",,ospan,letter,HVtgqhIwqSZNq9sUTunXDYHUQ7G2,html-keyboard-response,114,1772652,0.0-46.0-4.0-0.0-1.0-3.0,,,,,,,,,,,,,,,62d6dcf502178276f7fba480,07:38:03,04/04/2024
3310.0,,,ospan,symmetry,HVtgqhIwqSZNq9sUTunXDYHUQ7G2,symmetry-judgement-task,115,1777920,0.0-46.0-4.0-0.0-1.0-4.0,,,,,,,,,,1.0,1.0,,,,62d6dcf502178276f7fba480,07:38:03,04/04/2024
,"<div style=""font-size: 10rem; color: #0000FF"">P</div>",,ospan,letter,HVtgqhIwqSZNq9sUTunXDYHUQ7G2,html-keyboard-response,116,1778923,0.0-46.0-4.0-0.0-1.0-5.0,,,,,,,,,,,,,,,62d6dcf502178276f7fba480,07:38:03,04/04/2024
3893.0,,,ospan,symmetry,HVtgqhIwqSZNq9sUTunXDYHUQ7G2,symmetry-judgement-task,117,1784762,0.0-46.0-4.0-0.0-1.0-6.0,,,,,,,,,,1.0,1.0,,,,62d6dcf502178276f7fba480,07:38:03,04/04/2024
,"<div style=""font-size: 10rem; color: #0000FF"">S</div>",,ospan,letter,HVtgqhIwqSZNq9sUTunXDYHUQ7G2,html-keyboard-response,118,1785771,0.0-46.0-4.0-0.0-1.0-7.0,,,,,,,,,,,,,,,62d6dcf502178276f7fba480,07:38:03,04/04/2024
9852.799999952316,"<div class = numbox><p style=""font-size: 2.4rem"">Please recall the letters you saw to the best of your ability. If you do not remember a particular letter, use the SKIP button.<br><b>(When you are ready to lock in your answer, press ENTER)</b></p><button id = button_1 class = ""square num-button"" onclick = ""recordClick(this)""><div class = content><div class = numbers>C</div></div></button><button id = button_2 class = ""square num-button"" onclick = ""recordClick(this)""><div class = content><div class = numbers>G</div></div></button><button id = button_3 class = ""square num-button"" onclick = ""recordClick(this)""><div class = content><div class = numbers>H</div></div></button><button id = button_4 class = ""square num-button"" onclick = ""recordClick(this)""><div class = content><div class = numbers>J</div></div></button><button id = button_5 class = ""square num-button"" onclick = ""recordClick(this)""><div class = content><div class = numbers>K</div></div></button><button id = button_6 class = ""square num-button"" onclick = ""recordClick(this)""><div class = content><div class = numbers>L</div></div></button><button id = button_7 class = ""square num-button"" onclick = ""recordClick(this)""><div class = content><div class = numbers>N</div></div></button><button id = button_8 class = ""square num-button"" onclick = ""recordClick(this)""><div class = content><div class = numbers>P</div></div></button><button id = button_9 class = ""square num-button"" onclick = ""recordClick(this)""><div class = content><div class = numbers>Q</div></div></button><button id = button_10 class = ""square num-button"" onclick = ""recordClick(this)""><div class = content><div class = numbers>R</div></div></button><button id = button_11 class = ""square num-button"" onclick = ""recordClick(this)""><div class = content><div class = numbers>S</div></div></button><button id = button_12 class = ""square num-button"" onclick = ""recordClick(this)""><div class = content><div class = numbers>Y</div></div></button><button class = clear_button id = ""ClearButton"" onclick = ""clearResponse()"">BACKSPACE</button><button class = blank_button id = ""BlankButton"" onclick = ""blankResponse()"">SKIP</button><p style=""font-size: 2.4rem""><u><b>Current Answer:</b></u></p><br><br><div id=echoed_txt style=""font-size: 5rem; color:blue;""><b></b></div></div>",enter,ospan,retrieval,HVtgqhIwqSZNq9sUTunXDYHUQ7G2,html-keyboard-response,119,1796375,0.0-46.0-4.0-0.0-2.0,7,7,7,4.0,"[""R"",""J"",""P"",""S""]","[""R"",""J"",""P"",""S""]",1.0,4.0,,,,,,,62d6dcf502178276f7fba480,07:38:03,04/04/2024
1140.0,[''],0,ospan,feedback,HVtgqhIwqSZNq9sUTunXDYHUQ7G2,html-button-response,120,1798028,0.0-46.0-4.0-0.0-3.0,,,,,,,,,,,,100.0,0.0,,62d6dcf502178276f7fba480,07:38:03,04/04/2024
,"<p style=""font-size:75px;"">...</p>",,ospan,iti,HVtgqhIwqSZNq9sUTunXDYHUQ7G2,html-keyboard-response,121,1799036,0.0-46.0-4.0-1.0-0.0,,,,,,,,,,,,,,,62d6dcf502178276f7fba480,07:38:03,04/04/2024
3256.0,,,ospan,symmetry,HVtgqhIwqSZNq9sUTunXDYHUQ7G2,symmetry-judgement-task,122,1803468,0.0-46.0-4.0-1.0-1.0-0.0,,,,,,,,,,1.0,1.0,,,,62d6dcf502178276f7fba480,07:38:03,04/04/2024
,"<div style=""font-size: 10rem; color: #0000FF"">Y</div>",,ospan,letter,HVtgqhIwqSZNq9sUTunXDYHUQ7G2,html-keyboard-response,123,1804472,0.0-46.0-4.0-1.0-1.0-1.0,,,,,,,,,,,,,,,62d6dcf502178276f7fba480,07:38:03,04/04/2024
3564.0,,,ospan,symmetry,HVtgqhIwqSZNq9sUTunXDYHUQ7G2,symmetry-judgement-task,124,1809971,0.0-46.0-4.0-1.0-1.0-2.0,,,,,,,,,,1.0,1.0,,,,62d6dcf502178276f7fba480,07:38:03,04/04/2024
,"<div style=""font-size: 10rem; color: #0000FF"">Q</div>",,ospan,letter,HVtgqhIwqSZNq9sUTunXDYHUQ7G2,html-keyboard-response,125,1810979,0.0-46.0-4.0-1.0-1.0-3.0,,,,,,,,,,,,,,,62d6dcf502178276f7fba480,07:38:03,04/04/2024
1825.0,,,ospan,symmetry,HVtgqhIwqSZNq9sUTunXDYHUQ7G2,symmetry-judgement-task,126,1814735,0.0-46.0-4.0-1.0-1.0-4.0,,,,,,,,,,1.0,1.0,,,,62d6dcf502178276f7fba480,07:38:03,04/04/2024
,"<div style=""font-size: 10rem; color: #0000FF"">L</div>",,ospan,letter,HVtgqhIwqSZNq9sUTunXDYHUQ7G2,html-keyboard-response,127,1815736,0.0-46.0-4.0-1.0-1.0-5.0,,,,,,,,,,,,,,,62d6dcf502178276f7fba480,07:38:03,04/04/2024
4186.0,,,ospan,symmetry,HVtgqhIwqSZNq9sUTunXDYHUQ7G2,symmetry-judgement-task,128,1821851,0.0-46.0-4.0-1.0-1.0-6.0,,,,,,,,,,1.0,1.0,,,,62d6dcf502178276f7fba480,07:38:03,04/04/2024
,"<div style=""font-size: 10rem; color: #0000FF"">N</div>",,ospan,letter,HVtgqhIwqSZNq9sUTunXDYHUQ7G2,html-keyboard-response,129,1822872,0.0-46.0-4.0-1.0-1.0-7.0,,,,,,,,,,,,,,,62d6dcf502178276f7fba480,07:38:03,04/04/2024
7300.0,,,ospan,symmetry,HVtgqhIwqSZNq9sUTunXDYHUQ7G2,symmetry-judgement-task,130,1832121,0.0-46.0-4.0-1.0-1.0-8.0,,,,,,,,,,1.0,1.0,,,,62d6dcf502178276f7fba480,07:38:03,04/04/2024
,"<div style=""font-size: 10rem; color: #0000FF"">R</div>",,ospan,letter,HVtgqhIwqSZNq9sUTunXDYHUQ7G2,html-keyboard-response,131,1833123,0.0-46.0-4.0-1.0-1.0-9.0,,,,,,,,,,,,,,,62d6dcf502178276f7fba480,07:38:03,04/04/2024
16113.399999976158,"<div class = numbox><p style=""font-size: 2.4rem"">Please recall the letters you saw to the best of your ability. If you do not remember a particular letter, use the SKIP button.<br><b>(When you are ready to lock in your answer, press ENTER)</b></p><button id = button_1 class = ""square num-button"" onclick = ""recordClick(this)""><div class = content><div class = numbers>C</div></div></button><button id = button_2 class = ""square num-button"" onclick = ""recordClick(this)""><div class = content><div class = numbers>G</div></div></button><button id = button_3 class = ""square num-button"" onclick = ""recordClick(this)""><div class = content><div class = numbers>H</div></div></button><button id = button_4 class = ""square num-button"" onclick = ""recordClick(this)""><div class = content><div class = numbers>J</div></div></button><button id = button_5 class = ""square num-button"" onclick = ""recordClick(this)""><div class = content><div class = numbers>K</div></div></button><button id = button_6 class = ""square num-button"" onclick = ""recordClick(this)""><div class = content><div class = numbers>L</div></div></button><button id = button_7 class = ""square num-button"" onclick = ""recordClick(this)""><div class = content><div class = numbers>N</div></div></button><button id = button_8 class = ""square num-button"" onclick = ""recordClick(this)""><div class = content><div class = numbers>P</div></div></button><button id = button_9 class = ""square num-button"" onclick = ""recordClick(this)""><div class = content><div class = numbers>Q</div></div></button><button id = button_10 class = ""square num-button"" onclick = ""recordClick(this)""><div class = content><div class = numbers>R</div></div></button><button id = button_11 class = ""square num-button"" onclick = ""recordClick(this)""><div class = content><div class = numbers>S</div></div></button><button id = button_12 class = ""square num-button"" onclick = ""recordClick(this)""><div class = content><div class = numbers>Y</div></div></button><button class = clear_button id = ""ClearButton"" onclick = ""clearResponse()"">BACKSPACE</button><button class = blank_button id = ""BlankButton"" onclick = ""blankResponse()"">SKIP</button><p style=""font-size: 2.4rem""><u><b>Current Answer:</b></u></p><br><br><div id=echoed_txt style=""font-size: 5rem; color:blue;""><b></b></div></div>",enter,ospan,retrieval,HVtgqhIwqSZNq9sUTunXDYHUQ7G2,html-keyboard-response,132,1850002,0.0-46.0-4.0-1.0-2.0,12,12,12,5.0,"[""Y"",""Q"",""L"",""N"",""R""]","[""Y"",""Q"",""L"",""N"",""R""]",1.0,5.0,,,,,,,62d6dcf502178276f7fba480,07:38:03,04/04/2024
1075.0,[''],0,ospan,feedback,HVtgqhIwqSZNq9sUTunXDYHUQ7G2,html-button-response,133,1851598,0.0-46.0-4.0-1.0-3.0,,,,,,,,,,,,100.0,0.0,,62d6dcf502178276f7fba480,07:38:03,04/04/2024
,"<p style=""font-size:75px;"">...</p>",,ospan,iti,HVtgqhIwqSZNq9sUTunXDYHUQ7G2,html-keyboard-response,134,1852601,0.0-46.0-4.0-2.0-0.0,,,,,,,,,,,,,,,62d6dcf502178276f7fba480,07:38:03,04/04/2024
3006.0,,,ospan,symmetry,HVtgqhIwqSZNq9sUTunXDYHUQ7G2,symmetry-judgement-task,135,1856775,0.0-46.0-4.0-2.0-1.0-0.0,,,,,,,,,,1.0,1.0,,,,62d6dcf502178276f7fba480,07:38:03,04/04/2024
,"<div style=""font-size: 10rem; color: #0000FF"">C</div>",,ospan,letter,HVtgqhIwqSZNq9sUTunXDYHUQ7G2,html-keyboard-response,136,1857786,0.0-46.0-4.0-2.0-1.0-1.0,,,,,,,,,,,,,,,62d6dcf502178276f7fba480,07:38:03,04/04/2024
1874.0,,,ospan,symmetry,HVtgqhIwqSZNq9sUTunXDYHUQ7G2,symmetry-judgement-task,137,1861584,0.0-46.0-4.0-2.0-1.0-2.0,,,,,,,,,,1.0,1.0,,,,62d6dcf502178276f7fba480,07:38:03,04/04/2024
,"<div style=""font-size: 10rem; color: #0000FF"">S</div>",,ospan,letter,HVtgqhIwqSZNq9sUTunXDYHUQ7G2,html-keyboard-response,138,1862587,0.0-46.0-4.0-2.0-1.0-3.0,,,,,,,,,,,,,,,62d6dcf502178276f7fba480,07:38:03,04/04/2024
5896.0,,,ospan,symmetry,HVtgqhIwqSZNq9sUTunXDYHUQ7G2,symmetry-judgement-task,139,1870432,0.0-46.0-4.0-2.0-1.0-4.0,,,,,,,,,,1.0,1.0,,,,62d6dcf502178276f7fba480,07:38:03,04/04/2024
,"<div style=""font-size: 10rem; color: #0000FF"">J</div>",,ospan,letter,HVtgqhIwqSZNq9sUTunXDYHUQ7G2,html-keyboard-response,140,1871437,0.0-46.0-4.0-2.0-1.0-5.0,,,,,,,,,,,,,,,62d6dcf502178276f7fba480,07:38:03,04/04/2024
6321.600000023842,"<div class = numbox><p style=""font-size: 2.4rem"">Please recall the letters you saw to the best of your ability. If you do not remember a particular letter, use the SKIP button.<br><b>(When you are ready to lock in your answer, press ENTER)</b></p><button id = button_1 class = ""square num-button"" onclick = ""recordClick(this)""><div class = content><div class = numbers>C</div></div></button><button id = button_2 class = ""square num-button"" onclick = ""recordClick(this)""><div class = content><div class = numbers>G</div></div></button><button id = button_3 class = ""square num-button"" onclick = ""recordClick(this)""><div class = content><div class = numbers>H</div></div></button><button id = button_4 class = ""square num-button"" onclick = ""recordClick(this)""><div class = content><div class = numbers>J</div></div></button><button id = button_5 class = ""square num-button"" onclick = ""recordClick(this)""><div class = content><div class = numbers>K</div></div></button><button id = button_6 class = ""square num-button"" onclick = ""recordClick(this)""><div class = content><div class = numbers>L</div></div></button><button id = button_7 class = ""square num-button"" onclick = ""recordClick(this)""><div class = content><div class = numbers>N</div></div></button><button id = button_8 class = ""square num-button"" onclick = ""recordClick(this)""><div class = content><div class = numbers>P</div></div></button><button id = button_9 class = ""square num-button"" onclick = ""recordClick(this)""><div class = content><div class = numbers>Q</div></div></button><button id = button_10 class = ""square num-button"" onclick = ""recordClick(this)""><div class = content><div class = numbers>R</div></div></button><button id = button_11 class = ""square num-button"" onclick = ""recordClick(this)""><div class = content><div class = numbers>S</div></div></button><button id = button_12 class = ""square num-button"" onclick = ""recordClick(this)""><div class = content><div class = numbers>Y</div></div></button><button class = clear_button id = ""ClearButton"" onclick = ""clearResponse()"">BACKSPACE</button><button class = blank_button id = ""BlankButton"" onclick = ""blankResponse()"">SKIP</button><p style=""font-size: 2.4rem""><u><b>Current Answer:</b></u></p><br><br><div id=echoed_txt style=""font-size: 5rem; color:blue;""><b></b></div></div>",enter,ospan,retrieval,HVtgqhIwqSZNq9sUTunXDYHUQ7G2,html-keyboard-response,141,1878514,0.0-46.0-4.0-2.0-2.0,15,15,15,3.0,"[""C"",""S"",""J""]","[""C"",""S"",""J""]",1.0,3.0,,,,,,,62d6dcf502178276f7fba480,07:38:03,04/04/2024
1444.7999999523163,[''],0,ospan,feedback,HVtgqhIwqSZNq9sUTunXDYHUQ7G2,html-button-response,142,1880465,0.0-46.0-4.0-2.0-3.0,,,,,,,,,,,,100.0,0.0,,62d6dcf502178276f7fba480,07:38:03,04/04/2024
,"<p style=""font-size:75px;"">...</p>",,ospan,iti,HVtgqhIwqSZNq9sUTunXDYHUQ7G2,html-keyboard-response,143,1881471,0.0-46.0-5.0-0.0-0.0,,,,,,,,,,,,,,,62d6dcf502178276f7fba480,07:38:03,04/04/2024
6510.0,,,ospan,symmetry,HVtgqhIwqSZNq9sUTunXDYHUQ7G2,symmetry-judgement-task,144,1889156,0.0-46.0-5.0-0.0-1.0-0.0,,,,,,,,,,1.0,1.0,,,,62d6dcf502178276f7fba480,07:38:03,04/04/2024
,"<div style=""font-size: 10rem; color: #0000FF"">H</div>",,ospan,letter,HVtgqhIwqSZNq9sUTunXDYHUQ7G2,html-keyboard-response,145,1890171,0.0-46.0-5.0-0.0-1.0-1.0,,,,,,,,,,,,,,,62d6dcf502178276f7fba480,07:38:03,04/04/2024
3232.0,,,ospan,symmetry,HVtgqhIwqSZNq9sUTunXDYHUQ7G2,symmetry-judgement-task,146,1895370,0.0-46.0-5.0-0.0-1.0-2.0,,,,,,,,,,1.0,1.0,,,,62d6dcf502178276f7fba480,07:38:03,04/04/2024
,"<div style=""font-size: 10rem; color: #0000FF"">Q</div>",,ospan,letter,HVtgqhIwqSZNq9sUTunXDYHUQ7G2,html-keyboard-response,147,1896385,0.0-46.0-5.0-0.0-1.0-3.0,,,,,,,,,,,,,,,62d6dcf502178276f7fba480,07:38:03,04/04/2024
3814.0,,,ospan,symmetry,HVtgqhIwqSZNq9sUTunXDYHUQ7G2,symmetry-judgement-task,148,1902153,0.0-46.0-5.0-0.0-1.0-4.0,,,,,,,,,,1.0,1.0,,,,62d6dcf502178276f7fba480,07:38:03,04/04/2024
,"<div style=""font-size: 10rem; color: #0000FF"">G</div>",,ospan,letter,HVtgqhIwqSZNq9sUTunXDYHUQ7G2,html-keyboard-response,149,1903170,0.0-46.0-5.0-0.0-1.0-5.0,,,,,,,,,,,,,,,62d6dcf502178276f7fba480,07:38:03,04/04/2024
3865.0,,,ospan,symmetry,HVtgqhIwqSZNq9sUTunXDYHUQ7G2,symmetry-judgement-task,150,1908982,0.0-46.0-5.0-0.0-1.0-6.0,,,,,,,,,,1.0,1.0,,,,62d6dcf502178276f7fba480,07:38:03,04/04/2024
,"<div style=""font-size: 10rem; color: #0000FF"">N</div>",,ospan,letter,HVtgqhIwqSZNq9sUTunXDYHUQ7G2,html-keyboard-response,151,1909986,0.0-46.0-5.0-0.0-1.0-7.0,,,,,,,,,,,,,,,62d6dcf502178276f7fba480,07:38:03,04/04/2024
3464.0,,,ospan,symmetry,HVtgqhIwqSZNq9sUTunXDYHUQ7G2,symmetry-judgement-task,152,1915403,0.0-46.0-5.0-0.0-1.0-8.0,,,,,,,,,,1.0,1.0,,,,62d6dcf502178276f7fba480,07:38:03,04/04/2024
,"<div style=""font-size: 10rem; color: #0000FF"">C</div>",,ospan,letter,HVtgqhIwqSZNq9sUTunXDYHUQ7G2,html-keyboard-response,153,1916405,0.0-46.0-5.0-0.0-1.0-9.0,,,,,,,,,,,,,,,62d6dcf502178276f7fba480,07:38:03,04/04/2024
5280.0,,,ospan,symmetry,HVtgqhIwqSZNq9sUTunXDYHUQ7G2,symmetry-judgement-task,154,1923636,0.0-46.0-5.0-0.0-1.0-10.0,,,,,,,,,,1.0,1.0,,,,62d6dcf502178276f7fba480,07:38:03,04/04/2024
,"<div style=""font-size: 10rem; color: #0000FF"">J</div>",,ospan,letter,HVtgqhIwqSZNq9sUTunXDYHUQ7G2,html-keyboard-response,155,1924653,0.0-46.0-5.0-0.0-1.0-11.0,,,,,,,,,,,,,,,62d6dcf502178276f7fba480,07:38:03,04/04/2024
15530.600000023842,"<div class = numbox><p style=""font-size: 2.4rem"">Please recall the letters you saw to the best of your ability. If you do not remember a particular letter, use the SKIP button.<br><b>(When you are ready to lock in your answer, press ENTER)</b></p><button id = button_1 class = ""square num-button"" onclick = ""recordClick(this)""><div class = content><div class = numbers>C</div></div></button><button id = button_2 class = ""square num-button"" onclick = ""recordClick(this)""><div class = content><div class = numbers>G</div></div></button><button id = button_3 class = ""square num-button"" onclick = ""recordClick(this)""><div class = content><div class = numbers>H</div></div></button><button id = button_4 class = ""square num-button"" onclick = ""recordClick(this)""><div class = content><div class = numbers>J</div></div></button><button id = button_5 class = ""square num-button"" onclick = ""recordClick(this)""><div class = content><div class = numbers>K</div></div></button><button id = button_6 class = ""square num-button"" onclick = ""recordClick(this)""><div class = content><div class = numbers>L</div></div></button><button id = button_7 class = ""square num-button"" onclick = ""recordClick(this)""><div class = content><div class = numbers>N</div></div></button><button id = button_8 class = ""square num-button"" onclick = ""recordClick(this)""><div class = content><div class = numbers>P</div></div></button><button id = button_9 class = ""square num-button"" onclick = ""recordClick(this)""><div class = content><div class = numbers>Q</div></div></button><button id = button_10 class = ""square num-button"" onclick = ""recordClick(this)""><div class = content><div class = numbers>R</div></div></button><button id = button_11 class = ""square num-button"" onclick = ""recordClick(this)""><div class = content><div class = numbers>S</div></div></button><button id = button_12 class = ""square num-button"" onclick = ""recordClick(this)""><div class = content><div class = numbers>Y</div></div></button><button class = clear_button id = ""ClearButton"" onclick = ""clearResponse()"">BACKSPACE</button><button class = blank_button id = ""BlankButton"" onclick = ""blankResponse()"">SKIP</button><p style=""font-size: 2.4rem""><u><b>Current Answer:</b></u></p><br><br><div id=echoed_txt style=""font-size: 5rem; color:blue;""><b></b></div></div>",enter,ospan,retrieval,HVtgqhIwqSZNq9sUTunXDYHUQ7G2,html-keyboard-response,156,1940951,0.0-46.0-5.0-0.0-2.0,21,19,15,6.0,"[""H"",""Q"",""G"",""N"",""J""]","[""H"",""Q"",""G"",""N"",""C"",""J""]",0.0,4.0,,,,,,,62d6dcf502178276f7fba480,07:38:03,04/04/2024
990.3000000715256,[''],0,ospan,feedback,HVtgqhIwqSZNq9sUTunXDYHUQ7G2,html-button-response,157,1942445,0.0-46.0-5.0-0.0-3.0,,,,,,,,,,,,100.0,0.0,,62d6dcf502178276f7fba480,07:38:03,04/04/2024
,"<p style=""font-size:75px;"">...</p>",,ospan,iti,HVtgqhIwqSZNq9sUTunXDYHUQ7G2,html-keyboard-response,158,1943453,0.0-46.0-5.0-1.0-0.0,,,,,,,,,,,,,,,62d6dcf502178276f7fba480,07:38:03,04/04/2024
5157.0,,,ospan,symmetry,HVtgqhIwqSZNq9sUTunXDYHUQ7G2,symmetry-judgement-task,159,1949820,0.0-46.0-5.0-1.0-1.0-0.0,,,,,,,,,,1.0,1.0,,,,62d6dcf502178276f7fba480,07:38:03,04/04/2024
,"<div style=""font-size: 10rem; color: #0000FF"">J</div>",,ospan,letter,HVtgqhIwqSZNq9sUTunXDYHUQ7G2,html-keyboard-response,160,1950835,0.0-46.0-5.0-1.0-1.0-1.0,,,,,,,,,,,,,,,62d6dcf502178276f7fba480,07:38:03,04/04/2024
2242.0,,,ospan,symmetry,HVtgqhIwqSZNq9sUTunXDYHUQ7G2,symmetry-judgement-task,161,1955003,0.0-46.0-5.0-1.0-1.0-2.0,,,,,,,,,,1.0,1.0,,,,62d6dcf502178276f7fba480,07:38:03,04/04/2024
,"<div style=""font-size: 10rem; color: #0000FF"">K</div>",,ospan,letter,HVtgqhIwqSZNq9sUTunXDYHUQ7G2,html-keyboard-response,162,1956020,0.0-46.0-5.0-1.0-1.0-3.0,,,,,,,,,,,,,,,62d6dcf502178276f7fba480,07:38:03,04/04/2024
2388.0,,,ospan,symmetry,HVtgqhIwqSZNq9sUTunXDYHUQ7G2,symmetry-judgement-task,163,1960368,0.0-46.0-5.0-1.0-1.0-4.0,,,,,,,,,,1.0,1.0,,,,62d6dcf502178276f7fba480,07:38:03,04/04/2024
,"<div style=""font-size: 10rem; color: #0000FF"">P</div>",,ospan,letter,HVtgqhIwqSZNq9sUTunXDYHUQ7G2,html-keyboard-response,164,1961386,0.0-46.0-5.0-1.0-1.0-5.0,,,,,,,,,,,,,,,62d6dcf502178276f7fba480,07:38:03,04/04/2024
3501.0,,,ospan,symmetry,HVtgqhIwqSZNq9sUTunXDYHUQ7G2,symmetry-judgement-task,165,1966834,0.0-46.0-5.0-1.0-1.0-6.0,,,,,,,,,,1.0,1.0,,,,62d6dcf502178276f7fba480,07:38:03,04/04/2024
,"<div style=""font-size: 10rem; color: #0000FF"">S</div>",,ospan,letter,HVtgqhIwqSZNq9sUTunXDYHUQ7G2,html-keyboard-response,166,1967837,0.0-46.0-5.0-1.0-1.0-7.0,,,,,,,,,,,,,,,62d6dcf502178276f7fba480,07:38:03,04/04/2024
3151.0,,,ospan,symmetry,HVtgqhIwqSZNq9sUTunXDYHUQ7G2,symmetry-judgement-task,167,1972936,0.0-46.0-5.0-1.0-1.0-8.0,,,,,,,,,,1.0,1.0,,,,62d6dcf502178276f7fba480,07:38:03,04/04/2024
,"<div style=""font-size: 10rem; color: #0000FF"">L</div>",,ospan,letter,HVtgqhIwqSZNq9sUTunXDYHUQ7G2,html-keyboard-response,168,1973951,0.0-46.0-5.0-1.0-1.0-9.0,,,,,,,,,,,,,,,62d6dcf502178276f7fba480,07:38:03,04/04/2024
3115.0,,,ospan,symmetry,HVtgqhIwqSZNq9sUTunXDYHUQ7G2,symmetry-judgement-task,169,1979020,0.0-46.0-5.0-1.0-1.0-10.0,,,,,,,,,,1.0,1.0,,,,62d6dcf502178276f7fba480,07:38:03,04/04/2024
,"<div style=""font-size: 10rem; color: #0000FF"">N</div>",,ospan,letter,HVtgqhIwqSZNq9sUTunXDYHUQ7G2,html-keyboard-response,170,1980024,0.0-46.0-5.0-1.0-1.0-11.0,,,,,,,,,,,,,,,62d6dcf502178276f7fba480,07:38:03,04/04/2024
4620.0,,,ospan,symmetry,HVtgqhIwqSZNq9sUTunXDYHUQ7G2,symmetry-judgement-task,171,1986603,0.0-46.0-5.0-1.0-1.0-12.0,,,,,,,,,,1.0,1.0,,,,62d6dcf502178276f7fba480,07:38:03,04/04/2024
,"<div style=""font-size: 10rem; color: #0000FF"">Y</div>",,ospan,letter,HVtgqhIwqSZNq9sUTunXDYHUQ7G2,html-keyboard-response,172,1987620,0.0-46.0-5.0-1.0-1.0-13.0,,,,,,,,,,,,,,,62d6dcf502178276f7fba480,07:38:03,04/04/2024
22083.199999928474,"<div class = numbox><p style=""font-size: 2.4rem"">Please recall the letters you saw to the best of your ability. If you do not remember a particular letter, use the SKIP button.<br><b>(When you are ready to lock in your answer, press ENTER)</b></p><button id = button_1 class = ""square num-button"" onclick = ""recordClick(this)""><div class = content><div class = numbers>C</div></div></button><button id = button_2 class = ""square num-button"" onclick = ""recordClick(this)""><div class = content><div class = numbers>G</div></div></button><button id = button_3 class = ""square num-button"" onclick = ""recordClick(this)""><div class = content><div class = numbers>H</div></div></button><button id = button_4 class = ""square num-button"" onclick = ""recordClick(this)""><div class = content><div class = numbers>J</div></div></button><button id = button_5 class = ""square num-button"" onclick = ""recordClick(this)""><div class = content><div class = numbers>K</div></div></button><button id = button_6 class = ""square num-button"" onclick = ""recordClick(this)""><div class = content><div class = numbers>L</div></div></button><button id = button_7 class = ""square num-button"" onclick = ""recordClick(this)""><div class = content><div class = numbers>N</div></div></button><button id = button_8 class = ""square num-button"" onclick = ""recordClick(this)""><div class = content><div class = numbers>P</div></div></button><button id = button_9 class = ""square num-button"" onclick = ""recordClick(this)""><div class = content><div class = numbers>Q</div></div></button><button id = button_10 class = ""square num-button"" onclick = ""recordClick(this)""><div class = content><div class = numbers>R</div></div></button><button id = button_11 class = ""square num-button"" onclick = ""recordClick(this)""><div class = content><div class = numbers>S</div></div></button><button id = button_12 class = ""square num-button"" onclick = ""recordClick(this)""><div class = content><div class = numbers>Y</div></div></button><button class = clear_button id = ""ClearButton"" onclick = ""clearResponse()"">BACKSPACE</button><button class = blank_button id = ""BlankButton"" onclick = ""blankResponse()"">SKIP</button><p style=""font-size: 2.4rem""><u><b>Current Answer:</b></u></p><br><br><div id=echoed_txt style=""font-size: 5rem; color:blue;""><b></b></div></div>",enter,ospan,retrieval,HVtgqhIwqSZNq9sUTunXDYHUQ7G2,html-keyboard-response,173,2010471,0.0-46.0-5.0-1.0-2.0,28,22,15,7.0,"[""J"",""K"",""P"",""L"",""S"",""_""]","[""J"",""K"",""P"",""S"",""L"",""N"",""Y""]",0.0,3.0,,,,,,,62d6dcf502178276f7fba480,07:38:03,04/04/2024
2058.7999999523163,[''],0,ospan,feedback,HVtgqhIwqSZNq9sUTunXDYHUQ7G2,html-button-response,174,2013047,0.0-46.0-5.0-1.0-3.0,,,,,,,,,,,,100.0,0.0,,62d6dcf502178276f7fba480,07:38:03,04/04/2024
,"<p style=""font-size:75px;"">...</p>",,ospan,iti,HVtgqhIwqSZNq9sUTunXDYHUQ7G2,html-keyboard-response,175,2014053,0.0-46.0-6.0-0.0-0.0,,,,,,,,,,,,,,,62d6dcf502178276f7fba480,07:38:03,04/04/2024
2992.0,,,ospan,symmetry,HVtgqhIwqSZNq9sUTunXDYHUQ7G2,symmetry-judgement-task,176,2018253,0.0-46.0-6.0-0.0-1.0-0.0,,,,,,,,,,1.0,1.0,,,,62d6dcf502178276f7fba480,07:38:03,04/04/2024
,"<div style=""font-size: 10rem; color: #0000FF"">R</div>",,ospan,letter,HVtgqhIwqSZNq9sUTunXDYHUQ7G2,html-keyboard-response,177,2019257,0.0-46.0-6.0-0.0-1.0-1.0,,,,,,,,,,,,,,,62d6dcf502178276f7fba480,07:38:03,04/04/2024
2475.0,,,ospan,symmetry,HVtgqhIwqSZNq9sUTunXDYHUQ7G2,symmetry-judgement-task,178,2023687,0.0-46.0-6.0-0.0-1.0-2.0,,,,,,,,,,1.0,1.0,,,,62d6dcf502178276f7fba480,07:38:03,04/04/2024
,"<div style=""font-size: 10rem; color: #0000FF"">G</div>",,ospan,letter,HVtgqhIwqSZNq9sUTunXDYHUQ7G2,html-keyboard-response,179,2024703,0.0-46.0-6.0-0.0-1.0-3.0,,,,,,,,,,,,,,,62d6dcf502178276f7fba480,07:38:03,04/04/2024
4337.0,,,ospan,symmetry,HVtgqhIwqSZNq9sUTunXDYHUQ7G2,symmetry-judgement-task,180,2031003,0.0-46.0-6.0-0.0-1.0-4.0,,,,,,,,,,1.0,1.0,,,,62d6dcf502178276f7fba480,07:38:03,04/04/2024
,"<div style=""font-size: 10rem; color: #0000FF"">Q</div>",,ospan,letter,HVtgqhIwqSZNq9sUTunXDYHUQ7G2,html-keyboard-response,181,2032020,0.0-46.0-6.0-0.0-1.0-5.0,,,,,,,,,,,,,,,62d6dcf502178276f7fba480,07:38:03,04/04/2024
3262.0,,,ospan,symmetry,HVtgqhIwqSZNq9sUTunXDYHUQ7G2,symmetry-judgement-task,182,2037237,0.0-46.0-6.0-0.0-1.0-6.0,,,,,,,,,,1.0,1.0,,,,62d6dcf502178276f7fba480,07:38:03,04/04/2024
,"<div style=""font-size: 10rem; color: #0000FF"">N</div>",,ospan,letter,HVtgqhIwqSZNq9sUTunXDYHUQ7G2,html-keyboard-response,183,2038255,0.0-46.0-6.0-0.0-1.0-7.0,,,,,,,,,,,,,,,62d6dcf502178276f7fba480,07:38:03,04/04/2024
3206.0,,,ospan,symmetry,HVtgqhIwqSZNq9sUTunXDYHUQ7G2,symmetry-judgement-task,184,2043403,0.0-46.0-6.0-0.0-1.0-8.0,,,,,,,,,,1.0,1.0,,,,62d6dcf502178276f7fba480,07:38:03,04/04/2024
,"<div style=""font-size: 10rem; color: #0000FF"">P</div>",,ospan,letter,HVtgqhIwqSZNq9sUTunXDYHUQ7G2,html-keyboard-response,185,2044420,0.0-46.0-6.0-0.0-1.0-9.0,,,,,,,,,,,,,,,62d6dcf502178276f7fba480,07:38:03,04/04/2024
10445.200000047684,"<div class = numbox><p style=""font-size: 2.4rem"">Please recall the letters you saw to the best of your ability. If you do not remember a particular letter, use the SKIP button.<br><b>(When you are ready to lock in your answer, press ENTER)</b></p><button id = button_1 class = ""square num-button"" onclick = ""recordClick(this)""><div class = content><div class = numbers>C</div></div></button><button id = button_2 class = ""square num-button"" onclick = ""recordClick(this)""><div class = content><div class = numbers>G</div></div></button><button id = button_3 class = ""square num-button"" onclick = ""recordClick(this)""><div class = content><div class = numbers>H</div></div></button><button id = button_4 class = ""square num-button"" onclick = ""recordClick(this)""><div class = content><div class = numbers>J</div></div></button><button id = button_5 class = ""square num-button"" onclick = ""recordClick(this)""><div class = content><div class = numbers>K</div></div></button><button id = button_6 class = ""square num-button"" onclick = ""recordClick(this)""><div class = content><div class = numbers>L</div></div></button><button id = button_7 class = ""square num-button"" onclick = ""recordClick(this)""><div class = content><div class = numbers>N</div></div></button><button id = button_8 class = ""square num-button"" onclick = ""recordClick(this)""><div class = content><div class = numbers>P</div></div></button><button id = button_9 class = ""square num-button"" onclick = ""recordClick(this)""><div class = content><div class = numbers>Q</div></div></button><button id = button_10 class = ""square num-button"" onclick = ""recordClick(this)""><div class = content><div class = numbers>R</div></div></button><button id = button_11 class = ""square num-button"" onclick = ""recordClick(this)""><div class = content><div class = numbers>S</div></div></button><button id = button_12 class = ""square num-button"" onclick = ""recordClick(this)""><div class = content><div class = numbers>Y</div></div></button><button class = clear_button id = ""ClearButton"" onclick = ""clearResponse()"">BACKSPACE</button><button class = blank_button id = ""BlankButton"" onclick = ""blankResponse()"">SKIP</button><p style=""font-size: 2.4rem""><u><b>Current Answer:</b></u></p><br><br><div id=echoed_txt style=""font-size: 5rem; color:blue;""><b></b></div></div>",enter,ospan,retrieval,HVtgqhIwqSZNq9sUTunXDYHUQ7G2,html-keyboard-response,186,2055633,0.0-46.0-6.0-0.0-2.0,33,27,20,5.0,"[""R"",""G"",""Q"",""N"",""P""]","[""R"",""G"",""Q"",""N"",""P""]",1.0,5.0,,,,,,,62d6dcf502178276f7fba480,07:38:03,04/04/2024
981.3999999761581,[''],0,ospan,feedback,HVtgqhIwqSZNq9sUTunXDYHUQ7G2,html-button-response,187,2057120,0.0-46.0-6.0-0.0-3.0,,,,,,,,,,,,100.0,0.0,,62d6dcf502178276f7fba480,07:38:03,04/04/2024
,"<p style=""font-size:75px;"">...</p>",,ospan,iti,HVtgqhIwqSZNq9sUTunXDYHUQ7G2,html-keyboard-response,188,2058137,0.0-46.0-6.0-1.0-0.0,,,,,,,,,,,,,,,62d6dcf502178276f7fba480,07:38:03,04/04/2024
3827.0,,,ospan,symmetry,HVtgqhIwqSZNq9sUTunXDYHUQ7G2,symmetry-judgement-task,189,2063037,0.0-46.0-6.0-1.0-1.0-0.0,,,,,,,,,,1.0,1.0,,,,62d6dcf502178276f7fba480,07:38:03,04/04/2024
,"<div style=""font-size: 10rem; color: #0000FF"">G</div>",,ospan,letter,HVtgqhIwqSZNq9sUTunXDYHUQ7G2,html-keyboard-response,190,2064040,0.0-46.0-6.0-1.0-1.0-1.0,,,,,,,,,,,,,,,62d6dcf502178276f7fba480,07:38:03,04/04/2024
2978.0,,,ospan,symmetry,HVtgqhIwqSZNq9sUTunXDYHUQ7G2,symmetry-judgement-task,191,2068970,0.0-46.0-6.0-1.0-1.0-2.0,,,,,,,,,,1.0,1.0,,,,62d6dcf502178276f7fba480,07:38:03,04/04/2024
,"<div style=""font-size: 10rem; color: #0000FF"">K</div>",,ospan,letter,HVtgqhIwqSZNq9sUTunXDYHUQ7G2,html-keyboard-response,192,2069987,0.0-46.0-6.0-1.0-1.0-3.0,,,,,,,,,,,,,,,62d6dcf502178276f7fba480,07:38:03,04/04/2024
3988.0,,,ospan,symmetry,HVtgqhIwqSZNq9sUTunXDYHUQ7G2,symmetry-judgement-task,193,2075920,0.0-46.0-6.0-1.0-1.0-4.0,,,,,,,,,,1.0,1.0,,,,62d6dcf502178276f7fba480,07:38:03,04/04/2024
,"<div style=""font-size: 10rem; color: #0000FF"">P</div>",,ospan,letter,HVtgqhIwqSZNq9sUTunXDYHUQ7G2,html-keyboard-response,194,2076937,0.0-46.0-6.0-1.0-1.0-5.0,,,,,,,,,,,,,,,62d6dcf502178276f7fba480,07:38:03,04/04/2024
1952.0,,,ospan,symmetry,HVtgqhIwqSZNq9sUTunXDYHUQ7G2,symmetry-judgement-task,195,2080837,0.0-46.0-6.0-1.0-1.0-6.0,,,,,,,,,,1.0,1.0,,,,62d6dcf502178276f7fba480,07:38:03,04/04/2024
,"<div style=""font-size: 10rem; color: #0000FF"">Q</div>",,ospan,letter,HVtgqhIwqSZNq9sUTunXDYHUQ7G2,html-keyboard-response,196,2081854,0.0-46.0-6.0-1.0-1.0-7.0,,,,,,,,,,,,,,,62d6dcf502178276f7fba480,07:38:03,04/04/2024
3849.0,,,ospan,symmetry,HVtgqhIwqSZNq9sUTunXDYHUQ7G2,symmetry-judgement-task,197,2087655,0.0-46.0-6.0-1.0-1.0-8.0,,,,,,,,,,1.0,1.0,,,,62d6dcf502178276f7fba480,07:38:03,04/04/2024
,"<div style=""font-size: 10rem; color: #0000FF"">C</div>",,ospan,letter,HVtgqhIwqSZNq9sUTunXDYHUQ7G2,html-keyboard-response,198,2088670,0.0-46.0-6.0-1.0-1.0-9.0,,,,,,,,,,,,,,,62d6dcf502178276f7fba480,07:38:03,04/04/2024
4464.0,,,ospan,symmetry,HVtgqhIwqSZNq9sUTunXDYHUQ7G2,symmetry-judgement-task,199,2095087,0.0-46.0-6.0-1.0-1.0-10.0,,,,,,,,,,1.0,1.0,,,,62d6dcf502178276f7fba480,07:38:03,04/04/2024
,"<div style=""font-size: 10rem; color: #0000FF"">N</div>",,ospan,letter,HVtgqhIwqSZNq9sUTunXDYHUQ7G2,html-keyboard-response,200,2096103,0.0-46.0-6.0-1.0-1.0-11.0,,,,,,,,,,,,,,,62d6dcf502178276f7fba480,07:38:03,04/04/2024
4455.0,,,ospan,symmetry,HVtgqhIwqSZNq9sUTunXDYHUQ7G2,symmetry-judgement-task,201,2102505,0.0-46.0-6.0-1.0-1.0-12.0,,,,,,,,,,1.0,1.0,,,,62d6dcf502178276f7fba480,07:38:03,04/04/2024
,"<div style=""font-size: 10rem; color: #0000FF"">H</div>",,ospan,letter,HVtgqhIwqSZNq9sUTunXDYHUQ7G2,html-keyboard-response,202,2103520,0.0-46.0-6.0-1.0-1.0-13.0,,,,,,,,,,,,,,,62d6dcf502178276f7fba480,07:38:03,04/04/2024
3543.0,,,ospan,symmetry,HVtgqhIwqSZNq9sUTunXDYHUQ7G2,symmetry-judgement-task,203,2108987,0.0-46.0-6.0-1.0-1.0-14.0,,,,,,,,,,1.0,1.0,,,,62d6dcf502178276f7fba480,07:38:03,04/04/2024
,"<div style=""font-size: 10rem; color: #0000FF"">S</div>",,ospan,letter,HVtgqhIwqSZNq9sUTunXDYHUQ7G2,html-keyboard-response,204,2110003,0.0-46.0-6.0-1.0-1.0-15.0,,,,,,,,,,,,,,,62d6dcf502178276f7fba480,07:38:03,04/04/2024
34304.299999952316,"<div class = numbox><p style=""font-size: 2.4rem"">Please recall the letters you saw to the best of your ability. If you do not remember a particular letter, use the SKIP button.<br><b>(When you are ready to lock in your answer, press ENTER)</b></p><button id = button_1 class = ""square num-button"" onclick = ""recordClick(this)""><div class = content><div class = numbers>C</div></div></button><button id = button_2 class = ""square num-button"" onclick = ""recordClick(this)""><div class = content><div class = numbers>G</div></div></button><button id = button_3 class = ""square num-button"" onclick = ""recordClick(this)""><div class = content><div class = numbers>H</div></div></button><button id = button_4 class = ""square num-button"" onclick = ""recordClick(this)""><div class = content><div class = numbers>J</div></div></button><button id = button_5 class = ""square num-button"" onclick = ""recordClick(this)""><div class = content><div class = numbers>K</div></div></button><button id = button_6 class = ""square num-button"" onclick = ""recordClick(this)""><div class = content><div class = numbers>L</div></div></button><button id = button_7 class = ""square num-button"" onclick = ""recordClick(this)""><div class = content><div class = numbers>N</div></div></button><button id = button_8 class = ""square num-button"" onclick = ""recordClick(this)""><div class = content><div class = numbers>P</div></div></button><button id = button_9 class = ""square num-button"" onclick = ""recordClick(this)""><div class = content><div class = numbers>Q</div></div></button><button id = button_10 class = ""square num-button"" onclick = ""recordClick(this)""><div class = content><div class = numbers>R</div></div></button><button id = button_11 class = ""square num-button"" onclick = ""recordClick(this)""><div class = content><div class = numbers>S</div></div></button><button id = button_12 class = ""square num-button"" onclick = ""recordClick(this)""><div class = content><div class = numbers>Y</div></div></button><button class = clear_button id = ""ClearButton"" onclick = ""clearResponse()"">BACKSPACE</button><button class = blank_button id = ""BlankButton"" onclick = ""blankResponse()"">SKIP</button><p style=""font-size: 2.4rem""><u><b>Current Answer:</b></u></p><br><br><div id=echoed_txt style=""font-size: 5rem; color:blue;""><b></b></div></div>",enter,ospan,retrieval,HVtgqhIwqSZNq9sUTunXDYHUQ7G2,html-keyboard-response,205,2145060,0.0-46.0-6.0-1.0-2.0,41,32,20,8.0,"[""G"",""K"",""P"",""Q"",""_"",""N""]","[""G"",""K"",""P"",""Q"",""C"",""N"",""H"",""S""]",0.0,5.0,,,,,,,62d6dcf502178276f7fba480,07:38:03,04/04/2024
1606.3000000715256,[''],0,ospan,feedback,HVtgqhIwqSZNq9sUTunXDYHUQ7G2,html-button-response,206,2147178,0.0-46.0-6.0-1.0-3.0,,,,,,,,,,,,100.0,0.0,,62d6dcf502178276f7fba480,07:38:03,04/04/2024
100156.59999990463,,"{'Q0': ""I found the task very interesting and quite challenging towards the end. I enjoyed trying to remember the sequence of letters and liked the increased difficulty. I found nothing unclear and the task doesn't need to be improved.""}",ospan,survey_ospan,HVtgqhIwqSZNq9sUTunXDYHUQ7G2,lmdlab-survey-text,207,2248105,0.0-46.0-7.0,,,,,,,,,,,,,,HVtgqhIwqSZNq9sUTunXDYHUQ7G2,62d6dcf502178276f7fba480,07:38:03,04/04/2024
3722.899999976158,<p><p style='font-size: 3rem'>Great work!<br><br>This completes the symmetry and memory task.</p><br><br><br>,0,ospan,finish,HVtgqhIwqSZNq9sUTunXDYHUQ7G2,html-button-response,208,2251834,0.0-46.0-8.0,41,32,20,,,,,,,,,100.0,,,62d6dcf502178276f7fba480,07:38:03,04/04/2024
