rt,stimulus,response,exp_name,exp_stage,subjectID,trial_type,trial_index,time_elapsed,internal_node_id,ospan_shown,ospan_total,ospan_abs,length,resp_actual,resp_correct,full_correct,num_correct,feedback,accuracy,correct,math_acc,math_warning,databaseID,prolificID,start_time,date
2694.2000000029802,<div class = 'left_align' style='font-size: 3.25rem; line-height: 1.3;'><p class = 'center_align'><b>Welcome to the Symmetry and Memory Task</b><br><br><br><br></p>Press 'continue' to show the instructions.<br><br><br><br></div>,0,ospan,instruct,azhUUqqrjBWbcY7wu6QfocyJ8Z82,html-button-response,54,550568,0.0-46.0-0.0-0.0-0.0,,,,,,,,,,,,,,,5e89e802134569681e691e0a,08:53:59,03/04/2024
11296.40000000596,"<div class = 'left_align' style='font-size: 3.25rem; line-height: 1.3;'><p class = 'center_align'><b>Symmetry and Memory Task</b><br><br></p>In this task, you will try to memorize letters you see on the screen<br>while you also view black and white grid pictures.<br><br>In the next few minutes, you will have some practice to get you familiar<br>with how the task works.<br><br>It may be difficult sometimes, but please do not worry about making mistakes!<br><br>We will begin by practicing the letter part of the task.<br><br><br><br></div>",0,ospan,instruct,azhUUqqrjBWbcY7wu6QfocyJ8Z82,html-button-response,55,562117,0.0-46.0-0.0-0.0-1.0,,,,,,,,,,,,,,,5e89e802134569681e691e0a,08:53:59,03/04/2024
9979.60000000894,"<div class = 'left_align' style='font-size: 3.25rem; line-height: 1.3;'>For this practice part, letters will appear on the screen one at a time.<br><br>Try to remember each letter in the order presented.<br><br>After some letters have been shown, you will see a response screen. Your<br>goal is to report the letters you saw <b>in order</b>. If you do not remember<br>a particular letter, you will have the option to leave it blank.<br><br><br><br></div>",0,ospan,instruct,azhUUqqrjBWbcY7wu6QfocyJ8Z82,html-button-response,56,572351,0.0-46.0-0.0-0.0-2.0,,,,,,,,,,,,,,,5e89e802134569681e691e0a,08:53:59,03/04/2024
4029.6000000089407,"<div class = 'left_align' style='font-size: 3.25rem; line-height: 1.3;'>Remember, it is very important to get the letters in the same<br>order as you see them.<br><br>When you are ready, you may begin the letter practice.</div><br><br><br><br>",0,ospan,instruct,azhUUqqrjBWbcY7wu6QfocyJ8Z82,html-button-response,57,576634,0.0-46.0-0.0-0.0-3.0,,,,,,,,,,,,,,,5e89e802134569681e691e0a,08:53:59,03/04/2024
,"<p style=""font-size:75px;"">...</p>",,ospan,iti,azhUUqqrjBWbcY7wu6QfocyJ8Z82,html-keyboard-response,58,577889,0.0-46.0-0.0-1.0-0.0,,,,,,,,,,,,,,,5e89e802134569681e691e0a,08:53:59,03/04/2024
,"<div style=""font-size: 10rem; color: #0000FF"">S</div>",,ospan,letter,azhUUqqrjBWbcY7wu6QfocyJ8Z82,html-keyboard-response,59,578892,0.0-46.0-0.0-1.0-1.0,,,,,,,,,,,,,,,5e89e802134569681e691e0a,08:53:59,03/04/2024
,"<div style=""font-size: 10rem; color: #0000FF"">L</div>",,ospan,letter,azhUUqqrjBWbcY7wu6QfocyJ8Z82,html-keyboard-response,60,580647,0.0-46.0-0.0-1.0-2.0,,,,,,,,,,,,,,,5e89e802134569681e691e0a,08:53:59,03/04/2024
14660.0,"<div class = numbox><p style=""font-size: 2.4rem"">Please recall the letters you saw to the best of your ability. If you do not remember a particular letter, use the SKIP button.<br><b>(When you are ready to lock in your answer, press ENTER)</b></p><button id = button_1 class = ""square num-button"" onclick = ""recordClick(this)""><div class = content><div class = numbers>C</div></div></button><button id = button_2 class = ""square num-button"" onclick = ""recordClick(this)""><div class = content><div class = numbers>G</div></div></button><button id = button_3 class = ""square num-button"" onclick = ""recordClick(this)""><div class = content><div class = numbers>H</div></div></button><button id = button_4 class = ""square num-button"" onclick = ""recordClick(this)""><div class = content><div class = numbers>J</div></div></button><button id = button_5 class = ""square num-button"" onclick = ""recordClick(this)""><div class = content><div class = numbers>K</div></div></button><button id = button_6 class = ""square num-button"" onclick = ""recordClick(this)""><div class = content><div class = numbers>L</div></div></button><button id = button_7 class = ""square num-button"" onclick = ""recordClick(this)""><div class = content><div class = numbers>N</div></div></button><button id = button_8 class = ""square num-button"" onclick = ""recordClick(this)""><div class = content><div class = numbers>P</div></div></button><button id = button_9 class = ""square num-button"" onclick = ""recordClick(this)""><div class = content><div class = numbers>Q</div></div></button><button id = button_10 class = ""square num-button"" onclick = ""recordClick(this)""><div class = content><div class = numbers>R</div></div></button><button id = button_11 class = ""square num-button"" onclick = ""recordClick(this)""><div class = content><div class = numbers>S</div></div></button><button id = button_12 class = ""square num-button"" onclick = ""recordClick(this)""><div class = content><div class = numbers>Y</div></div></button><button class = clear_button id = ""ClearButton"" onclick = ""clearResponse()"">BACKSPACE</button><button class = blank_button id = ""BlankButton"" onclick = ""blankResponse()"">SKIP</button><p style=""font-size: 2.4rem""><u><b>Current Answer:</b></u></p><br><br><div id=echoed_txt style=""font-size: 5rem; color:blue;""><b></b></div></div>",enter,ospan,retrieval,azhUUqqrjBWbcY7wu6QfocyJ8Z82,html-keyboard-response,61,596060,0.0-46.0-0.0-1.0-3.0,NA,NA,NA,2.0,"[""S"",""L""]","[""S"",""L""]",1.0,2.0,"['<font color=""green"">S</font>', '<font color=""green"">L</font>']",,,,,,5e89e802134569681e691e0a,08:53:59,03/04/2024
1318.2999999970198,"['<p style=""font-size:44px"">Letters:<br><br><br><font color=""green"">S</font> <font color=""green"">L</font></p><br><br>']",0,ospan,practice_feedback,azhUUqqrjBWbcY7wu6QfocyJ8Z82,html-button-response,62,597884,0.0-46.0-0.0-1.0-4.0,,,,,,,,,,,,,,,5e89e802134569681e691e0a,08:53:59,03/04/2024
,"<p style=""font-size:75px;"">...</p>",,ospan,iti,azhUUqqrjBWbcY7wu6QfocyJ8Z82,html-keyboard-response,63,598887,0.0-46.0-0.0-2.0-0.0,,,,,,,,,,,,,,,5e89e802134569681e691e0a,08:53:59,03/04/2024
,"<div style=""font-size: 10rem; color: #0000FF"">J</div>",,ospan,letter,azhUUqqrjBWbcY7wu6QfocyJ8Z82,html-keyboard-response,64,599889,0.0-46.0-0.0-2.0-1.0,,,,,,,,,,,,,,,5e89e802134569681e691e0a,08:53:59,03/04/2024
,"<div style=""font-size: 10rem; color: #0000FF"">K</div>",,ospan,letter,azhUUqqrjBWbcY7wu6QfocyJ8Z82,html-keyboard-response,65,601644,0.0-46.0-0.0-2.0-2.0,,,,,,,,,,,,,,,5e89e802134569681e691e0a,08:53:59,03/04/2024
,"<div style=""font-size: 10rem; color: #0000FF"">Q</div>",,ospan,letter,azhUUqqrjBWbcY7wu6QfocyJ8Z82,html-keyboard-response,66,603397,0.0-46.0-0.0-2.0-3.0,,,,,,,,,,,,,,,5e89e802134569681e691e0a,08:53:59,03/04/2024
5335.800000011921,"<div class = numbox><p style=""font-size: 2.4rem"">Please recall the letters you saw to the best of your ability. If you do not remember a particular letter, use the SKIP button.<br><b>(When you are ready to lock in your answer, press ENTER)</b></p><button id = button_1 class = ""square num-button"" onclick = ""recordClick(this)""><div class = content><div class = numbers>C</div></div></button><button id = button_2 class = ""square num-button"" onclick = ""recordClick(this)""><div class = content><div class = numbers>G</div></div></button><button id = button_3 class = ""square num-button"" onclick = ""recordClick(this)""><div class = content><div class = numbers>H</div></div></button><button id = button_4 class = ""square num-button"" onclick = ""recordClick(this)""><div class = content><div class = numbers>J</div></div></button><button id = button_5 class = ""square num-button"" onclick = ""recordClick(this)""><div class = content><div class = numbers>K</div></div></button><button id = button_6 class = ""square num-button"" onclick = ""recordClick(this)""><div class = content><div class = numbers>L</div></div></button><button id = button_7 class = ""square num-button"" onclick = ""recordClick(this)""><div class = content><div class = numbers>N</div></div></button><button id = button_8 class = ""square num-button"" onclick = ""recordClick(this)""><div class = content><div class = numbers>P</div></div></button><button id = button_9 class = ""square num-button"" onclick = ""recordClick(this)""><div class = content><div class = numbers>Q</div></div></button><button id = button_10 class = ""square num-button"" onclick = ""recordClick(this)""><div class = content><div class = numbers>R</div></div></button><button id = button_11 class = ""square num-button"" onclick = ""recordClick(this)""><div class = content><div class = numbers>S</div></div></button><button id = button_12 class = ""square num-button"" onclick = ""recordClick(this)""><div class = content><div class = numbers>Y</div></div></button><button class = clear_button id = ""ClearButton"" onclick = ""clearResponse()"">BACKSPACE</button><button class = blank_button id = ""BlankButton"" onclick = ""blankResponse()"">SKIP</button><p style=""font-size: 2.4rem""><u><b>Current Answer:</b></u></p><br><br><div id=echoed_txt style=""font-size: 5rem; color:blue;""><b></b></div></div>",enter,ospan,retrieval,azhUUqqrjBWbcY7wu6QfocyJ8Z82,html-keyboard-response,67,609487,0.0-46.0-0.0-2.0-4.0,NA,NA,NA,3.0,"[""J"",""K"",""Q""]","[""J"",""K"",""Q""]",1.0,3.0,"['<font color=""green"">J</font>', '<font color=""green"">K</font>', '<font color=""green"">Q</font>']",,,,,,5e89e802134569681e691e0a,08:53:59,03/04/2024
776.5999999940395,"['<p style=""font-size:44px"">Letters:<br><br><br><font color=""green"">J</font> <font color=""green"">K</font> <font color=""green"">Q</font></p><br><br>']",0,ospan,practice_feedback,azhUUqqrjBWbcY7wu6QfocyJ8Z82,html-button-response,68,610768,0.0-46.0-0.0-2.0-5.0,,,,,,,,,,,,,,,5e89e802134569681e691e0a,08:53:59,03/04/2024
23763.5,"<div class = 'left_align' style='font-size: 3.25rem; line-height: 1.3;'>Now you will practice doing the <b>symmetry judgment part</b> of the experiment.<br><br>A black and white grid picture will appear on the screen and you have to judge if it is <br>symmetrical or asymetrical.<br><br>A picture is 'mirror' symmetrical if its left half is identical to the right half when flipped.<br>Here are examples of a symmetrical and an asymetrical picture:<br><br><center><img src='Stimuli/img/symm_instructions_extra.png' style='height:420px; width:900'></img></center><br>To judge symmetry, imagine you were to fold each picture down the middle, like a book –<br>would the left half match the right half when folded onto each other?<br><br></div><br>",0,ospan,instruct,azhUUqqrjBWbcY7wu6QfocyJ8Z82,html-button-response,69,634533,0.0-46.0-1.0-0.0-0.0,,,,,,,,,,,,,,,5e89e802134569681e691e0a,08:53:59,03/04/2024
5064.0999999940395,"<div class = 'left_align' style='font-size: 3.25rem; line-height: 1.3;'>When you have viewed the picture and determined whether it is symmetrical or not,<br>you can <b>click the Yes or No button</b> below to answer.<br><br>If you take longer than 15 seconds, it will continue automatically<br>and record the answer as an error.</div><br>",0,ospan,instruct,azhUUqqrjBWbcY7wu6QfocyJ8Z82,html-button-response,70,639850,0.0-46.0-1.0-0.0-1.0,,,,,,,,,,,,,,,5e89e802134569681e691e0a,08:53:59,03/04/2024
996.5999999940395,"<div class = 'left_align' style='font-size: 3.25rem; line-height: 1.3;'>It is <b>very</b> important that you make the symmetry judgment correctly.<br><br>It is also important that you try and judge the picture as quickly as you can.<br><br>When you are ready, click on the button below to try some practice problems.</div><br><br><br><br>",0,ospan,instruct,azhUUqqrjBWbcY7wu6QfocyJ8Z82,html-button-response,71,641100,0.0-46.0-1.0-0.0-2.0,,,,,,,,,,,,,,,5e89e802134569681e691e0a,08:53:59,03/04/2024
3839.0,,,ospan,symmetry,azhUUqqrjBWbcY7wu6QfocyJ8Z82,symmetry-judgement-task,72,645735,0.0-46.0-1.0-1.0-0.0,,,,,,,,,,1.0,1.0,,,,5e89e802134569681e691e0a,08:53:59,03/04/2024
,"<p style=""color:green; font-size: 35px"">Correct</p>",,ospan,feedback,azhUUqqrjBWbcY7wu6QfocyJ8Z82,html-keyboard-response,73,646489,0.0-46.0-1.0-1.0-1.0,,,,,,,,,,,,,,,5e89e802134569681e691e0a,08:53:59,03/04/2024
5214.0,,,ospan,symmetry,azhUUqqrjBWbcY7wu6QfocyJ8Z82,symmetry-judgement-task,74,654318,0.0-46.0-1.0-1.0-2.0,,,,,,,,,,1.0,1.0,,,,5e89e802134569681e691e0a,08:53:59,03/04/2024
,"<p style=""color:green; font-size: 35px"">Correct</p>",,ospan,feedback,azhUUqqrjBWbcY7wu6QfocyJ8Z82,html-keyboard-response,75,655071,0.0-46.0-1.0-1.0-3.0,,,,,,,,,,,,,,,5e89e802134569681e691e0a,08:53:59,03/04/2024
5293.0,,,ospan,symmetry,azhUUqqrjBWbcY7wu6QfocyJ8Z82,symmetry-judgement-task,76,662902,0.0-46.0-1.0-1.0-4.0,,,,,,,,,,1.0,1.0,,,,5e89e802134569681e691e0a,08:53:59,03/04/2024
,"<p style=""color:green; font-size: 35px"">Correct</p>",,ospan,feedback,azhUUqqrjBWbcY7wu6QfocyJ8Z82,html-keyboard-response,77,663655,0.0-46.0-1.0-1.0-5.0,,,,,,,,,,,,,,,5e89e802134569681e691e0a,08:53:59,03/04/2024
4540.0999999940395,"<p style=""font-size: 3rem;"">You responded correctly on 3 of 3 symmetry judgments. Good job!</p><br><br>",0,ospan,practice,azhUUqqrjBWbcY7wu6QfocyJ8Z82,html-button-response,78,670200,0.0-46.0-1.0-2.0,,,,,,,,,,,,,,,5e89e802134569681e691e0a,08:53:59,03/04/2024
11813.89999999106,"<div class = 'left_align' style='font-size: 3.25rem; line-height: 1.3;'>Now you will practice doing both parts of the experiment at the same time.<br><br>In the next practice set, you will be given one grid picture to judge.<br>Then letter will appear on the screen. Try to remember the letter.<br><br>It is <b>very important</b> to make the symmetry judgment as quickly and accurately as possible.<br><br>Just as before, once you have make the symmetry judgment, you can click Yes or No.<br><b>Note that you will no longer see Correct or Incorrect feedback.</div><br><br><br><br>",0,ospan,instruct,azhUUqqrjBWbcY7wu6QfocyJ8Z82,html-button-response,79,682267,0.0-46.0-2.0-0.0-0.0,,,,,,,,,,,,,,,5e89e802134569681e691e0a,08:53:59,03/04/2024
7112.79999999702,"<div class = 'left_align' style='font-size: 3.25rem; line-height: 1.3;'>After the letter goes away, another grid picture will appear, and then<br>another letter.<br><br>At the end of each set of letters and grids, you will recall the letters to the best<br>of your ability. Remember, try your best to get the letters in the correct order.<br><br>It is important to <b>quickly</b> and <b>accurately</b> make the symmetry judgments.</div><br><br><br><br>",0,ospan,instruct,azhUUqqrjBWbcY7wu6QfocyJ8Z82,html-button-response,80,689633,0.0-46.0-2.0-0.0-1.0,,,,,,,,,,,,,,,5e89e802134569681e691e0a,08:53:59,03/04/2024
12963.70000000298,"<div class = 'left_align' style='font-size: 3.25rem; line-height: 1.3;'>On the feedback screen, if you are not doing well at the symmetry judgments,<br>you will also see a warning in the middle. This indicates your percent <br>correct for the grid pictures for the entire experiment.<br><br>It is <b>very</b> important for you to keep accuracy at least at 85%: <u>We can only use<br>data where the participant was at least 85% accurate on the judgments.</u> Therefore,<br> please try your best to perform well on the symmetry judgments, <b>at the same time</b><br>doing your best to recall as many letters as possible.<br><br>Click the button to try some practice problems.</div><br><br><br><br>",0,ospan,instruct,azhUUqqrjBWbcY7wu6QfocyJ8Z82,html-button-response,81,702850,0.0-46.0-2.0-0.0-2.0,,,,,,,,,,,,,,,5e89e802134569681e691e0a,08:53:59,03/04/2024
,"<p style=""font-size:75px;"">...</p>",,ospan,iti,azhUUqqrjBWbcY7wu6QfocyJ8Z82,html-keyboard-response,82,704105,0.0-46.0-2.0-1.0-0.0,,,,,,,,,,,,,,,5e89e802134569681e691e0a,08:53:59,03/04/2024
2405.0,,,ospan,symmetry,azhUUqqrjBWbcY7wu6QfocyJ8Z82,symmetry-judgement-task,83,707552,0.0-46.0-2.0-1.0-1.0-0.0,,,,,,,,,,1.0,1.0,,,,5e89e802134569681e691e0a,08:53:59,03/04/2024
,"<div style=""font-size: 10rem; color: #0000FF"">L</div>",,ospan,letter,azhUUqqrjBWbcY7wu6QfocyJ8Z82,html-keyboard-response,84,708555,0.0-46.0-2.0-1.0-1.0-1.0,,,,,,,,,,,,,,,5e89e802134569681e691e0a,08:53:59,03/04/2024
4552.0,,,ospan,symmetry,azhUUqqrjBWbcY7wu6QfocyJ8Z82,symmetry-judgement-task,85,714952,0.0-46.0-2.0-1.0-1.0-2.0,,,,,,,,,,1.0,1.0,,,,5e89e802134569681e691e0a,08:53:59,03/04/2024
,"<div style=""font-size: 10rem; color: #0000FF"">Q</div>",,ospan,letter,azhUUqqrjBWbcY7wu6QfocyJ8Z82,html-keyboard-response,86,715955,0.0-46.0-2.0-1.0-1.0-3.0,,,,,,,,,,,,,,,5e89e802134569681e691e0a,08:53:59,03/04/2024
2632.0,,,ospan,symmetry,azhUUqqrjBWbcY7wu6QfocyJ8Z82,symmetry-judgement-task,87,720436,0.0-46.0-2.0-1.0-1.0-4.0,,,,,,,,,,1.0,1.0,,,,5e89e802134569681e691e0a,08:53:59,03/04/2024
,"<div style=""font-size: 10rem; color: #0000FF"">K</div>",,ospan,letter,azhUUqqrjBWbcY7wu6QfocyJ8Z82,html-keyboard-response,88,721438,0.0-46.0-2.0-1.0-1.0-5.0,,,,,,,,,,,,,,,5e89e802134569681e691e0a,08:53:59,03/04/2024
4438.5,"<div class = numbox><p style=""font-size: 2.4rem"">Please recall the letters you saw to the best of your ability. If you do not remember a particular letter, use the SKIP button.<br><b>(When you are ready to lock in your answer, press ENTER)</b></p><button id = button_1 class = ""square num-button"" onclick = ""recordClick(this)""><div class = content><div class = numbers>C</div></div></button><button id = button_2 class = ""square num-button"" onclick = ""recordClick(this)""><div class = content><div class = numbers>G</div></div></button><button id = button_3 class = ""square num-button"" onclick = ""recordClick(this)""><div class = content><div class = numbers>H</div></div></button><button id = button_4 class = ""square num-button"" onclick = ""recordClick(this)""><div class = content><div class = numbers>J</div></div></button><button id = button_5 class = ""square num-button"" onclick = ""recordClick(this)""><div class = content><div class = numbers>K</div></div></button><button id = button_6 class = ""square num-button"" onclick = ""recordClick(this)""><div class = content><div class = numbers>L</div></div></button><button id = button_7 class = ""square num-button"" onclick = ""recordClick(this)""><div class = content><div class = numbers>N</div></div></button><button id = button_8 class = ""square num-button"" onclick = ""recordClick(this)""><div class = content><div class = numbers>P</div></div></button><button id = button_9 class = ""square num-button"" onclick = ""recordClick(this)""><div class = content><div class = numbers>Q</div></div></button><button id = button_10 class = ""square num-button"" onclick = ""recordClick(this)""><div class = content><div class = numbers>R</div></div></button><button id = button_11 class = ""square num-button"" onclick = ""recordClick(this)""><div class = content><div class = numbers>S</div></div></button><button id = button_12 class = ""square num-button"" onclick = ""recordClick(this)""><div class = content><div class = numbers>Y</div></div></button><button class = clear_button id = ""ClearButton"" onclick = ""clearResponse()"">BACKSPACE</button><button class = blank_button id = ""BlankButton"" onclick = ""blankResponse()"">SKIP</button><p style=""font-size: 2.4rem""><u><b>Current Answer:</b></u></p><br><br><div id=echoed_txt style=""font-size: 5rem; color:blue;""><b></b></div></div>",enter,ospan,retrieval,azhUUqqrjBWbcY7wu6QfocyJ8Z82,html-keyboard-response,89,726630,0.0-46.0-2.0-1.0-2.0-0.0,NA,NA,NA,3.0,"[""L"",""Q"",""K""]","[""L"",""Q"",""K""]",1.0,3.0,"['<font color=""green"">L</font>', '<font color=""green"">Q</font>', '<font color=""green"">K</font>']",,,,,,5e89e802134569681e691e0a,08:53:59,03/04/2024
798.9000000059605,"['<p style=""font-size:44px"">Letters:<br><br><br><font color=""green"">L</font> <font color=""green"">Q</font> <font color=""green"">K</font></p><br><br><p style=""font-size:30px"">Symmetry:<br><br><font color=""green"">100%</font></p><br><br>']",0,ospan,practice_feedback,azhUUqqrjBWbcY7wu6QfocyJ8Z82,html-button-response,90,727933,0.0-46.0-2.0-1.0-2.0-1.0,,,,,,,,,,,,,,,5e89e802134569681e691e0a,08:53:59,03/04/2024
,"<p style=""font-size:75px;"">...</p>",,ospan,iti,azhUUqqrjBWbcY7wu6QfocyJ8Z82,html-keyboard-response,91,728937,0.0-46.0-2.0-2.0-0.0,,,,,,,,,,,,,,,5e89e802134569681e691e0a,08:53:59,03/04/2024
8902.0,,,ospan,symmetry,azhUUqqrjBWbcY7wu6QfocyJ8Z82,symmetry-judgement-task,92,738952,0.0-46.0-2.0-2.0-1.0-0.0,,,,,,,,,,1.0,1.0,,,,5e89e802134569681e691e0a,08:53:59,03/04/2024
,"<div style=""font-size: 10rem; color: #0000FF"">N</div>",,ospan,letter,azhUUqqrjBWbcY7wu6QfocyJ8Z82,html-keyboard-response,93,739955,0.0-46.0-2.0-2.0-1.0-1.0,,,,,,,,,,,,,,,5e89e802134569681e691e0a,08:53:59,03/04/2024
4788.0,,,ospan,symmetry,azhUUqqrjBWbcY7wu6QfocyJ8Z82,symmetry-judgement-task,94,746601,0.0-46.0-2.0-2.0-1.0-2.0,,,,,,,,,,1.0,1.0,,,,5e89e802134569681e691e0a,08:53:59,03/04/2024
,"<div style=""font-size: 10rem; color: #0000FF"">S</div>",,ospan,letter,azhUUqqrjBWbcY7wu6QfocyJ8Z82,html-keyboard-response,95,747605,0.0-46.0-2.0-2.0-1.0-3.0,,,,,,,,,,,,,,,5e89e802134569681e691e0a,08:53:59,03/04/2024
5566.0,,,ospan,symmetry,azhUUqqrjBWbcY7wu6QfocyJ8Z82,symmetry-judgement-task,96,755035,0.0-46.0-2.0-2.0-1.0-4.0,,,,,,,,,,1.0,1.0,,,,5e89e802134569681e691e0a,08:53:59,03/04/2024
,"<div style=""font-size: 10rem; color: #0000FF"">C</div>",,ospan,letter,azhUUqqrjBWbcY7wu6QfocyJ8Z82,html-keyboard-response,97,756038,0.0-46.0-2.0-2.0-1.0-5.0,,,,,,,,,,,,,,,5e89e802134569681e691e0a,08:53:59,03/04/2024
4464.70000000298,"<div class = numbox><p style=""font-size: 2.4rem"">Please recall the letters you saw to the best of your ability. If you do not remember a particular letter, use the SKIP button.<br><b>(When you are ready to lock in your answer, press ENTER)</b></p><button id = button_1 class = ""square num-button"" onclick = ""recordClick(this)""><div class = content><div class = numbers>C</div></div></button><button id = button_2 class = ""square num-button"" onclick = ""recordClick(this)""><div class = content><div class = numbers>G</div></div></button><button id = button_3 class = ""square num-button"" onclick = ""recordClick(this)""><div class = content><div class = numbers>H</div></div></button><button id = button_4 class = ""square num-button"" onclick = ""recordClick(this)""><div class = content><div class = numbers>J</div></div></button><button id = button_5 class = ""square num-button"" onclick = ""recordClick(this)""><div class = content><div class = numbers>K</div></div></button><button id = button_6 class = ""square num-button"" onclick = ""recordClick(this)""><div class = content><div class = numbers>L</div></div></button><button id = button_7 class = ""square num-button"" onclick = ""recordClick(this)""><div class = content><div class = numbers>N</div></div></button><button id = button_8 class = ""square num-button"" onclick = ""recordClick(this)""><div class = content><div class = numbers>P</div></div></button><button id = button_9 class = ""square num-button"" onclick = ""recordClick(this)""><div class = content><div class = numbers>Q</div></div></button><button id = button_10 class = ""square num-button"" onclick = ""recordClick(this)""><div class = content><div class = numbers>R</div></div></button><button id = button_11 class = ""square num-button"" onclick = ""recordClick(this)""><div class = content><div class = numbers>S</div></div></button><button id = button_12 class = ""square num-button"" onclick = ""recordClick(this)""><div class = content><div class = numbers>Y</div></div></button><button class = clear_button id = ""ClearButton"" onclick = ""clearResponse()"">BACKSPACE</button><button class = blank_button id = ""BlankButton"" onclick = ""blankResponse()"">SKIP</button><p style=""font-size: 2.4rem""><u><b>Current Answer:</b></u></p><br><br><div id=echoed_txt style=""font-size: 5rem; color:blue;""><b></b></div></div>",enter,ospan,retrieval,azhUUqqrjBWbcY7wu6QfocyJ8Z82,html-keyboard-response,98,761257,0.0-46.0-2.0-2.0-2.0-0.0,NA,NA,NA,3.0,"[""N"",""S"",""C""]","[""N"",""S"",""C""]",1.0,3.0,"['<font color=""green"">N</font>', '<font color=""green"">S</font>', '<font color=""green"">C</font>']",,,,,,5e89e802134569681e691e0a,08:53:59,03/04/2024
756.2999999970198,"['<p style=""font-size:44px"">Letters:<br><br><br><font color=""green"">N</font> <font color=""green"">S</font> <font color=""green"">C</font></p><br><br><p style=""font-size:30px"">Symmetry:<br><br><font color=""green"">100%</font></p><br><br>']",0,ospan,practice_feedback,azhUUqqrjBWbcY7wu6QfocyJ8Z82,html-button-response,99,762516,0.0-46.0-2.0-2.0-2.0-1.0,,,,,,,,,,,,,,,5e89e802134569681e691e0a,08:53:59,03/04/2024
39648.0,"<div class = 'left_align' style='font-size: 3rem; line-height: 1.3;'><b>Great work! That is the end of practice.</b><br><br>The real trials will look just like the practice trials you just completed.<br><br><u>Here, you will not see feedback</u>. First, you will see an grid picture to judge,<br>then a letter to remember. When the recall screen appears, report the letters in the<br>order presented. If you forget a letter, remember to use the <b>blank</b> button to move to the<br>next letter. Some of the sets will have more symmetry grids and letters than others.<br><br>It is important that you do your best on both the symmetry judgments and the letter recall<br>parts of the experiment. For for the symmetry judgments, try to work as <b>quickly</b> and <br>as <b>accurately</b> as possible. Remember to keep your symmetry accuracy at 85% or above.<br><br><b>For the letters, do NOT use any external aid (e.g., writing on paper, electronic device).</b><br><br>It is <u>very important</u> to our experiment to have a <b>true</b> view of your real performance.<br><br>Do not worry if you miss some when it gets hard! This task is meant to be very challenging!<br><br>Click the button to begin.</div><br><br><br><br>",0,ospan,starting_real_here,azhUUqqrjBWbcY7wu6QfocyJ8Z82,html-button-response,100,802165,0.0-46.0-2.0-3.0,,,,,,,,,,,,,,,5e89e802134569681e691e0a,08:53:59,03/04/2024
,"<p style=""font-size:75px;"">...</p>",,ospan,iti,azhUUqqrjBWbcY7wu6QfocyJ8Z82,html-keyboard-response,101,803421,0.0-46.0-3.0-0.0-0.0,,,,,,,,,,,,,,,5e89e802134569681e691e0a,08:53:59,03/04/2024
4303.0,,,ospan,symmetry,azhUUqqrjBWbcY7wu6QfocyJ8Z82,symmetry-judgement-task,102,808836,0.0-46.0-3.0-0.0-1.0-0.0,,,,,,,,,,1.0,1.0,,,,5e89e802134569681e691e0a,08:53:59,03/04/2024
,"<div style=""font-size: 10rem; color: #0000FF"">N</div>",,ospan,letter,azhUUqqrjBWbcY7wu6QfocyJ8Z82,html-keyboard-response,103,809839,0.0-46.0-3.0-0.0-1.0-1.0,,,,,,,,,,,,,,,5e89e802134569681e691e0a,08:53:59,03/04/2024
3629.0,,,ospan,symmetry,azhUUqqrjBWbcY7wu6QfocyJ8Z82,symmetry-judgement-task,104,815336,0.0-46.0-3.0-0.0-1.0-2.0,,,,,,,,,,1.0,1.0,,,,5e89e802134569681e691e0a,08:53:59,03/04/2024
,"<div style=""font-size: 10rem; color: #0000FF"">S</div>",,ospan,letter,azhUUqqrjBWbcY7wu6QfocyJ8Z82,html-keyboard-response,105,816339,0.0-46.0-3.0-0.0-1.0-3.0,,,,,,,,,,,,,,,5e89e802134569681e691e0a,08:53:59,03/04/2024
5164.0,,,ospan,symmetry,azhUUqqrjBWbcY7wu6QfocyJ8Z82,symmetry-judgement-task,106,823367,0.0-46.0-3.0-0.0-1.0-4.0,,,,,,,,,,1.0,1.0,,,,5e89e802134569681e691e0a,08:53:59,03/04/2024
,"<div style=""font-size: 10rem; color: #0000FF"">Q</div>",,ospan,letter,azhUUqqrjBWbcY7wu6QfocyJ8Z82,html-keyboard-response,107,824370,0.0-46.0-3.0-0.0-1.0-5.0,,,,,,,,,,,,,,,5e89e802134569681e691e0a,08:53:59,03/04/2024
4293.20000000298,"<div class = numbox><p style=""font-size: 2.4rem"">Please recall the letters you saw to the best of your ability. If you do not remember a particular letter, use the SKIP button.<br><b>(When you are ready to lock in your answer, press ENTER)</b></p><button id = button_1 class = ""square num-button"" onclick = ""recordClick(this)""><div class = content><div class = numbers>C</div></div></button><button id = button_2 class = ""square num-button"" onclick = ""recordClick(this)""><div class = content><div class = numbers>G</div></div></button><button id = button_3 class = ""square num-button"" onclick = ""recordClick(this)""><div class = content><div class = numbers>H</div></div></button><button id = button_4 class = ""square num-button"" onclick = ""recordClick(this)""><div class = content><div class = numbers>J</div></div></button><button id = button_5 class = ""square num-button"" onclick = ""recordClick(this)""><div class = content><div class = numbers>K</div></div></button><button id = button_6 class = ""square num-button"" onclick = ""recordClick(this)""><div class = content><div class = numbers>L</div></div></button><button id = button_7 class = ""square num-button"" onclick = ""recordClick(this)""><div class = content><div class = numbers>N</div></div></button><button id = button_8 class = ""square num-button"" onclick = ""recordClick(this)""><div class = content><div class = numbers>P</div></div></button><button id = button_9 class = ""square num-button"" onclick = ""recordClick(this)""><div class = content><div class = numbers>Q</div></div></button><button id = button_10 class = ""square num-button"" onclick = ""recordClick(this)""><div class = content><div class = numbers>R</div></div></button><button id = button_11 class = ""square num-button"" onclick = ""recordClick(this)""><div class = content><div class = numbers>S</div></div></button><button id = button_12 class = ""square num-button"" onclick = ""recordClick(this)""><div class = content><div class = numbers>Y</div></div></button><button class = clear_button id = ""ClearButton"" onclick = ""clearResponse()"">BACKSPACE</button><button class = blank_button id = ""BlankButton"" onclick = ""blankResponse()"">SKIP</button><p style=""font-size: 2.4rem""><u><b>Current Answer:</b></u></p><br><br><div id=echoed_txt style=""font-size: 5rem; color:blue;""><b></b></div></div>",enter,ospan,retrieval,azhUUqqrjBWbcY7wu6QfocyJ8Z82,html-keyboard-response,108,829416,0.0-46.0-3.0-0.0-2.0,3,3,3,3.0,"[""N"",""S"",""Q""]","[""N"",""S"",""Q""]",1.0,3.0,,,,,,,5e89e802134569681e691e0a,08:53:59,03/04/2024
1046.800000011921,[''],0,ospan,feedback,azhUUqqrjBWbcY7wu6QfocyJ8Z82,html-button-response,109,830966,0.0-46.0-3.0-0.0-3.0,,,,,,,,,,,,100.0,0.0,,5e89e802134569681e691e0a,08:53:59,03/04/2024
,"<p style=""font-size:75px;"">...</p>",,ospan,iti,azhUUqqrjBWbcY7wu6QfocyJ8Z82,html-keyboard-response,110,831970,0.0-46.0-4.0-0.0-0.0,,,,,,,,,,,,,,,5e89e802134569681e691e0a,08:53:59,03/04/2024
5985.0,,,ospan,symmetry,azhUUqqrjBWbcY7wu6QfocyJ8Z82,symmetry-judgement-task,111,839068,0.0-46.0-4.0-0.0-1.0-0.0,,,,,,,,,,1.0,1.0,,,,5e89e802134569681e691e0a,08:53:59,03/04/2024
,"<div style=""font-size: 10rem; color: #0000FF"">Y</div>",,ospan,letter,azhUUqqrjBWbcY7wu6QfocyJ8Z82,html-keyboard-response,112,840071,0.0-46.0-4.0-0.0-1.0-1.0,,,,,,,,,,,,,,,5e89e802134569681e691e0a,08:53:59,03/04/2024
3117.0,,,ospan,symmetry,azhUUqqrjBWbcY7wu6QfocyJ8Z82,symmetry-judgement-task,113,845050,0.0-46.0-4.0-0.0-1.0-2.0,,,,,,,,,,1.0,1.0,,,,5e89e802134569681e691e0a,08:53:59,03/04/2024
,"<div style=""font-size: 10rem; color: #0000FF"">H</div>",,ospan,letter,azhUUqqrjBWbcY7wu6QfocyJ8Z82,html-keyboard-response,114,846053,0.0-46.0-4.0-0.0-1.0-3.0,,,,,,,,,,,,,,,5e89e802134569681e691e0a,08:53:59,03/04/2024
3985.0,,,ospan,symmetry,azhUUqqrjBWbcY7wu6QfocyJ8Z82,symmetry-judgement-task,115,851901,0.0-46.0-4.0-0.0-1.0-4.0,,,,,,,,,,1.0,1.0,,,,5e89e802134569681e691e0a,08:53:59,03/04/2024
,"<div style=""font-size: 10rem; color: #0000FF"">S</div>",,ospan,letter,azhUUqqrjBWbcY7wu6QfocyJ8Z82,html-keyboard-response,116,852903,0.0-46.0-4.0-0.0-1.0-5.0,,,,,,,,,,,,,,,5e89e802134569681e691e0a,08:53:59,03/04/2024
5087.0,,,ospan,symmetry,azhUUqqrjBWbcY7wu6QfocyJ8Z82,symmetry-judgement-task,117,859850,0.0-46.0-4.0-0.0-1.0-6.0,,,,,,,,,,1.0,1.0,,,,5e89e802134569681e691e0a,08:53:59,03/04/2024
,"<div style=""font-size: 10rem; color: #0000FF"">K</div>",,ospan,letter,azhUUqqrjBWbcY7wu6QfocyJ8Z82,html-keyboard-response,118,860854,0.0-46.0-4.0-0.0-1.0-7.0,,,,,,,,,,,,,,,5e89e802134569681e691e0a,08:53:59,03/04/2024
6546.70000000298,"<div class = numbox><p style=""font-size: 2.4rem"">Please recall the letters you saw to the best of your ability. If you do not remember a particular letter, use the SKIP button.<br><b>(When you are ready to lock in your answer, press ENTER)</b></p><button id = button_1 class = ""square num-button"" onclick = ""recordClick(this)""><div class = content><div class = numbers>C</div></div></button><button id = button_2 class = ""square num-button"" onclick = ""recordClick(this)""><div class = content><div class = numbers>G</div></div></button><button id = button_3 class = ""square num-button"" onclick = ""recordClick(this)""><div class = content><div class = numbers>H</div></div></button><button id = button_4 class = ""square num-button"" onclick = ""recordClick(this)""><div class = content><div class = numbers>J</div></div></button><button id = button_5 class = ""square num-button"" onclick = ""recordClick(this)""><div class = content><div class = numbers>K</div></div></button><button id = button_6 class = ""square num-button"" onclick = ""recordClick(this)""><div class = content><div class = numbers>L</div></div></button><button id = button_7 class = ""square num-button"" onclick = ""recordClick(this)""><div class = content><div class = numbers>N</div></div></button><button id = button_8 class = ""square num-button"" onclick = ""recordClick(this)""><div class = content><div class = numbers>P</div></div></button><button id = button_9 class = ""square num-button"" onclick = ""recordClick(this)""><div class = content><div class = numbers>Q</div></div></button><button id = button_10 class = ""square num-button"" onclick = ""recordClick(this)""><div class = content><div class = numbers>R</div></div></button><button id = button_11 class = ""square num-button"" onclick = ""recordClick(this)""><div class = content><div class = numbers>S</div></div></button><button id = button_12 class = ""square num-button"" onclick = ""recordClick(this)""><div class = content><div class = numbers>Y</div></div></button><button class = clear_button id = ""ClearButton"" onclick = ""clearResponse()"">BACKSPACE</button><button class = blank_button id = ""BlankButton"" onclick = ""blankResponse()"">SKIP</button><p style=""font-size: 2.4rem""><u><b>Current Answer:</b></u></p><br><br><div id=echoed_txt style=""font-size: 5rem; color:blue;""><b></b></div></div>",enter,ospan,retrieval,azhUUqqrjBWbcY7wu6QfocyJ8Z82,html-keyboard-response,119,868153,0.0-46.0-4.0-0.0-2.0,7,7,7,4.0,"[""Y"",""H"",""S"",""K""]","[""Y"",""H"",""S"",""K""]",1.0,4.0,,,,,,,5e89e802134569681e691e0a,08:53:59,03/04/2024
892.9000000059605,[''],0,ospan,feedback,azhUUqqrjBWbcY7wu6QfocyJ8Z82,html-button-response,120,869549,0.0-46.0-4.0-0.0-3.0,,,,,,,,,,,,100.0,0.0,,5e89e802134569681e691e0a,08:53:59,03/04/2024
,"<p style=""font-size:75px;"">...</p>",,ospan,iti,azhUUqqrjBWbcY7wu6QfocyJ8Z82,html-keyboard-response,121,870553,0.0-46.0-4.0-1.0-0.0,,,,,,,,,,,,,,,5e89e802134569681e691e0a,08:53:59,03/04/2024
2706.0,,,ospan,symmetry,azhUUqqrjBWbcY7wu6QfocyJ8Z82,symmetry-judgement-task,122,874301,0.0-46.0-4.0-1.0-1.0-0.0,,,,,,,,,,1.0,1.0,,,,5e89e802134569681e691e0a,08:53:59,03/04/2024
,"<div style=""font-size: 10rem; color: #0000FF"">Y</div>",,ospan,letter,azhUUqqrjBWbcY7wu6QfocyJ8Z82,html-keyboard-response,123,875304,0.0-46.0-4.0-1.0-1.0-1.0,,,,,,,,,,,,,,,5e89e802134569681e691e0a,08:53:59,03/04/2024
3208.0,,,ospan,symmetry,azhUUqqrjBWbcY7wu6QfocyJ8Z82,symmetry-judgement-task,124,880367,0.0-46.0-4.0-1.0-1.0-2.0,,,,,,,,,,1.0,1.0,,,,5e89e802134569681e691e0a,08:53:59,03/04/2024
,"<div style=""font-size: 10rem; color: #0000FF"">Q</div>",,ospan,letter,azhUUqqrjBWbcY7wu6QfocyJ8Z82,html-keyboard-response,125,881369,0.0-46.0-4.0-1.0-1.0-3.0,,,,,,,,,,,,,,,5e89e802134569681e691e0a,08:53:59,03/04/2024
1870.0,,,ospan,symmetry,azhUUqqrjBWbcY7wu6QfocyJ8Z82,symmetry-judgement-task,126,885100,0.0-46.0-4.0-1.0-1.0-4.0,,,,,,,,,,1.0,1.0,,,,5e89e802134569681e691e0a,08:53:59,03/04/2024
,"<div style=""font-size: 10rem; color: #0000FF"">P</div>",,ospan,letter,azhUUqqrjBWbcY7wu6QfocyJ8Z82,html-keyboard-response,127,886103,0.0-46.0-4.0-1.0-1.0-5.0,,,,,,,,,,,,,,,5e89e802134569681e691e0a,08:53:59,03/04/2024
3323.0,,,ospan,symmetry,azhUUqqrjBWbcY7wu6QfocyJ8Z82,symmetry-judgement-task,128,891301,0.0-46.0-4.0-1.0-1.0-6.0,,,,,,,,,,1.0,1.0,,,,5e89e802134569681e691e0a,08:53:59,03/04/2024
,"<div style=""font-size: 10rem; color: #0000FF"">C</div>",,ospan,letter,azhUUqqrjBWbcY7wu6QfocyJ8Z82,html-keyboard-response,129,892305,0.0-46.0-4.0-1.0-1.0-7.0,,,,,,,,,,,,,,,5e89e802134569681e691e0a,08:53:59,03/04/2024
3312.0,,,ospan,symmetry,azhUUqqrjBWbcY7wu6QfocyJ8Z82,symmetry-judgement-task,130,897485,0.0-46.0-4.0-1.0-1.0-8.0,,,,,,,,,,1.0,1.0,,,,5e89e802134569681e691e0a,08:53:59,03/04/2024
,"<div style=""font-size: 10rem; color: #0000FF"">S</div>",,ospan,letter,azhUUqqrjBWbcY7wu6QfocyJ8Z82,html-keyboard-response,131,898488,0.0-46.0-4.0-1.0-1.0-9.0,,,,,,,,,,,,,,,5e89e802134569681e691e0a,08:53:59,03/04/2024
8848.29999999702,"<div class = numbox><p style=""font-size: 2.4rem"">Please recall the letters you saw to the best of your ability. If you do not remember a particular letter, use the SKIP button.<br><b>(When you are ready to lock in your answer, press ENTER)</b></p><button id = button_1 class = ""square num-button"" onclick = ""recordClick(this)""><div class = content><div class = numbers>C</div></div></button><button id = button_2 class = ""square num-button"" onclick = ""recordClick(this)""><div class = content><div class = numbers>G</div></div></button><button id = button_3 class = ""square num-button"" onclick = ""recordClick(this)""><div class = content><div class = numbers>H</div></div></button><button id = button_4 class = ""square num-button"" onclick = ""recordClick(this)""><div class = content><div class = numbers>J</div></div></button><button id = button_5 class = ""square num-button"" onclick = ""recordClick(this)""><div class = content><div class = numbers>K</div></div></button><button id = button_6 class = ""square num-button"" onclick = ""recordClick(this)""><div class = content><div class = numbers>L</div></div></button><button id = button_7 class = ""square num-button"" onclick = ""recordClick(this)""><div class = content><div class = numbers>N</div></div></button><button id = button_8 class = ""square num-button"" onclick = ""recordClick(this)""><div class = content><div class = numbers>P</div></div></button><button id = button_9 class = ""square num-button"" onclick = ""recordClick(this)""><div class = content><div class = numbers>Q</div></div></button><button id = button_10 class = ""square num-button"" onclick = ""recordClick(this)""><div class = content><div class = numbers>R</div></div></button><button id = button_11 class = ""square num-button"" onclick = ""recordClick(this)""><div class = content><div class = numbers>S</div></div></button><button id = button_12 class = ""square num-button"" onclick = ""recordClick(this)""><div class = content><div class = numbers>Y</div></div></button><button class = clear_button id = ""ClearButton"" onclick = ""clearResponse()"">BACKSPACE</button><button class = blank_button id = ""BlankButton"" onclick = ""blankResponse()"">SKIP</button><p style=""font-size: 2.4rem""><u><b>Current Answer:</b></u></p><br><br><div id=echoed_txt style=""font-size: 5rem; color:blue;""><b></b></div></div>",enter,ospan,retrieval,azhUUqqrjBWbcY7wu6QfocyJ8Z82,html-keyboard-response,132,908090,0.0-46.0-4.0-1.0-2.0,12,12,12,5.0,"[""Y"",""Q"",""P"",""C"",""S""]","[""Y"",""Q"",""P"",""C"",""S""]",1.0,5.0,,,,,,,5e89e802134569681e691e0a,08:53:59,03/04/2024
872.5,[''],0,ospan,feedback,azhUUqqrjBWbcY7wu6QfocyJ8Z82,html-button-response,133,909465,0.0-46.0-4.0-1.0-3.0,,,,,,,,,,,,100.0,0.0,,5e89e802134569681e691e0a,08:53:59,03/04/2024
,"<p style=""font-size:75px;"">...</p>",,ospan,iti,azhUUqqrjBWbcY7wu6QfocyJ8Z82,html-keyboard-response,134,910469,0.0-46.0-4.0-2.0-0.0,,,,,,,,,,,,,,,5e89e802134569681e691e0a,08:53:59,03/04/2024
5339.0,,,ospan,symmetry,azhUUqqrjBWbcY7wu6QfocyJ8Z82,symmetry-judgement-task,135,916918,0.0-46.0-4.0-2.0-1.0-0.0,,,,,,,,,,1.0,1.0,,,,5e89e802134569681e691e0a,08:53:59,03/04/2024
,"<div style=""font-size: 10rem; color: #0000FF"">L</div>",,ospan,letter,azhUUqqrjBWbcY7wu6QfocyJ8Z82,html-keyboard-response,136,917922,0.0-46.0-4.0-2.0-1.0-1.0,,,,,,,,,,,,,,,5e89e802134569681e691e0a,08:53:59,03/04/2024
3022.0,,,ospan,symmetry,azhUUqqrjBWbcY7wu6QfocyJ8Z82,symmetry-judgement-task,137,922801,0.0-46.0-4.0-2.0-1.0-2.0,,,,,,,,,,1.0,1.0,,,,5e89e802134569681e691e0a,08:53:59,03/04/2024
,"<div style=""font-size: 10rem; color: #0000FF"">R</div>",,ospan,letter,azhUUqqrjBWbcY7wu6QfocyJ8Z82,html-keyboard-response,138,923805,0.0-46.0-4.0-2.0-1.0-3.0,,,,,,,,,,,,,,,5e89e802134569681e691e0a,08:53:59,03/04/2024
3574.0,,,ospan,symmetry,azhUUqqrjBWbcY7wu6QfocyJ8Z82,symmetry-judgement-task,139,929234,0.0-46.0-4.0-2.0-1.0-4.0,,,,,,,,,,1.0,1.0,,,,5e89e802134569681e691e0a,08:53:59,03/04/2024
,"<div style=""font-size: 10rem; color: #0000FF"">C</div>",,ospan,letter,azhUUqqrjBWbcY7wu6QfocyJ8Z82,html-keyboard-response,140,930238,0.0-46.0-4.0-2.0-1.0-5.0,,,,,,,,,,,,,,,5e89e802134569681e691e0a,08:53:59,03/04/2024
5068.0,"<div class = numbox><p style=""font-size: 2.4rem"">Please recall the letters you saw to the best of your ability. If you do not remember a particular letter, use the SKIP button.<br><b>(When you are ready to lock in your answer, press ENTER)</b></p><button id = button_1 class = ""square num-button"" onclick = ""recordClick(this)""><div class = content><div class = numbers>C</div></div></button><button id = button_2 class = ""square num-button"" onclick = ""recordClick(this)""><div class = content><div class = numbers>G</div></div></button><button id = button_3 class = ""square num-button"" onclick = ""recordClick(this)""><div class = content><div class = numbers>H</div></div></button><button id = button_4 class = ""square num-button"" onclick = ""recordClick(this)""><div class = content><div class = numbers>J</div></div></button><button id = button_5 class = ""square num-button"" onclick = ""recordClick(this)""><div class = content><div class = numbers>K</div></div></button><button id = button_6 class = ""square num-button"" onclick = ""recordClick(this)""><div class = content><div class = numbers>L</div></div></button><button id = button_7 class = ""square num-button"" onclick = ""recordClick(this)""><div class = content><div class = numbers>N</div></div></button><button id = button_8 class = ""square num-button"" onclick = ""recordClick(this)""><div class = content><div class = numbers>P</div></div></button><button id = button_9 class = ""square num-button"" onclick = ""recordClick(this)""><div class = content><div class = numbers>Q</div></div></button><button id = button_10 class = ""square num-button"" onclick = ""recordClick(this)""><div class = content><div class = numbers>R</div></div></button><button id = button_11 class = ""square num-button"" onclick = ""recordClick(this)""><div class = content><div class = numbers>S</div></div></button><button id = button_12 class = ""square num-button"" onclick = ""recordClick(this)""><div class = content><div class = numbers>Y</div></div></button><button class = clear_button id = ""ClearButton"" onclick = ""clearResponse()"">BACKSPACE</button><button class = blank_button id = ""BlankButton"" onclick = ""blankResponse()"">SKIP</button><p style=""font-size: 2.4rem""><u><b>Current Answer:</b></u></p><br><br><div id=echoed_txt style=""font-size: 5rem; color:blue;""><b></b></div></div>",enter,ospan,retrieval,azhUUqqrjBWbcY7wu6QfocyJ8Z82,html-keyboard-response,141,936060,0.0-46.0-4.0-2.0-2.0,15,15,15,3.0,"[""L"",""R"",""C""]","[""L"",""R"",""C""]",1.0,3.0,,,,,,,5e89e802134569681e691e0a,08:53:59,03/04/2024
769.5,[''],0,ospan,feedback,azhUUqqrjBWbcY7wu6QfocyJ8Z82,html-button-response,142,937332,0.0-46.0-4.0-2.0-3.0,,,,,,,,,,,,100.0,0.0,,5e89e802134569681e691e0a,08:53:59,03/04/2024
,"<p style=""font-size:75px;"">...</p>",,ospan,iti,azhUUqqrjBWbcY7wu6QfocyJ8Z82,html-keyboard-response,143,938336,0.0-46.0-5.0-0.0-0.0,,,,,,,,,,,,,,,5e89e802134569681e691e0a,08:53:59,03/04/2024
2587.0,,,ospan,symmetry,azhUUqqrjBWbcY7wu6QfocyJ8Z82,symmetry-judgement-task,144,942035,0.0-46.0-5.0-0.0-1.0-0.0,,,,,,,,,,1.0,1.0,,,,5e89e802134569681e691e0a,08:53:59,03/04/2024
,"<div style=""font-size: 10rem; color: #0000FF"">R</div>",,ospan,letter,azhUUqqrjBWbcY7wu6QfocyJ8Z82,html-keyboard-response,145,943038,0.0-46.0-5.0-0.0-1.0-1.0,,,,,,,,,,,,,,,5e89e802134569681e691e0a,08:53:59,03/04/2024
5484.0,,,ospan,symmetry,azhUUqqrjBWbcY7wu6QfocyJ8Z82,symmetry-judgement-task,146,950383,0.0-46.0-5.0-0.0-1.0-2.0,,,,,,,,,,1.0,1.0,,,,5e89e802134569681e691e0a,08:53:59,03/04/2024
,"<div style=""font-size: 10rem; color: #0000FF"">L</div>",,ospan,letter,azhUUqqrjBWbcY7wu6QfocyJ8Z82,html-keyboard-response,147,951386,0.0-46.0-5.0-0.0-1.0-3.0,,,,,,,,,,,,,,,5e89e802134569681e691e0a,08:53:59,03/04/2024
2821.0,,,ospan,symmetry,azhUUqqrjBWbcY7wu6QfocyJ8Z82,symmetry-judgement-task,148,956067,0.0-46.0-5.0-0.0-1.0-4.0,,,,,,,,,,1.0,1.0,,,,5e89e802134569681e691e0a,08:53:59,03/04/2024
,"<div style=""font-size: 10rem; color: #0000FF"">G</div>",,ospan,letter,azhUUqqrjBWbcY7wu6QfocyJ8Z82,html-keyboard-response,149,957069,0.0-46.0-5.0-0.0-1.0-5.0,,,,,,,,,,,,,,,5e89e802134569681e691e0a,08:53:59,03/04/2024
6333.0,,,ospan,symmetry,azhUUqqrjBWbcY7wu6QfocyJ8Z82,symmetry-judgement-task,150,965251,0.0-46.0-5.0-0.0-1.0-6.0,,,,,,,,,,1.0,1.0,,,,5e89e802134569681e691e0a,08:53:59,03/04/2024
,"<div style=""font-size: 10rem; color: #0000FF"">S</div>",,ospan,letter,azhUUqqrjBWbcY7wu6QfocyJ8Z82,html-keyboard-response,151,966254,0.0-46.0-5.0-0.0-1.0-7.0,,,,,,,,,,,,,,,5e89e802134569681e691e0a,08:53:59,03/04/2024
2311.0,,,ospan,symmetry,azhUUqqrjBWbcY7wu6QfocyJ8Z82,symmetry-judgement-task,152,970417,0.0-46.0-5.0-0.0-1.0-8.0,,,,,,,,,,1.0,1.0,,,,5e89e802134569681e691e0a,08:53:59,03/04/2024
,"<div style=""font-size: 10rem; color: #0000FF"">P</div>",,ospan,letter,azhUUqqrjBWbcY7wu6QfocyJ8Z82,html-keyboard-response,153,971420,0.0-46.0-5.0-0.0-1.0-9.0,,,,,,,,,,,,,,,5e89e802134569681e691e0a,08:53:59,03/04/2024
2514.0,,,ospan,symmetry,azhUUqqrjBWbcY7wu6QfocyJ8Z82,symmetry-judgement-task,154,975799,0.0-46.0-5.0-0.0-1.0-10.0,,,,,,,,,,1.0,1.0,,,,5e89e802134569681e691e0a,08:53:59,03/04/2024
,"<div style=""font-size: 10rem; color: #0000FF"">H</div>",,ospan,letter,azhUUqqrjBWbcY7wu6QfocyJ8Z82,html-keyboard-response,155,976802,0.0-46.0-5.0-0.0-1.0-11.0,,,,,,,,,,,,,,,5e89e802134569681e691e0a,08:53:59,03/04/2024
8430.40000000596,"<div class = numbox><p style=""font-size: 2.4rem"">Please recall the letters you saw to the best of your ability. If you do not remember a particular letter, use the SKIP button.<br><b>(When you are ready to lock in your answer, press ENTER)</b></p><button id = button_1 class = ""square num-button"" onclick = ""recordClick(this)""><div class = content><div class = numbers>C</div></div></button><button id = button_2 class = ""square num-button"" onclick = ""recordClick(this)""><div class = content><div class = numbers>G</div></div></button><button id = button_3 class = ""square num-button"" onclick = ""recordClick(this)""><div class = content><div class = numbers>H</div></div></button><button id = button_4 class = ""square num-button"" onclick = ""recordClick(this)""><div class = content><div class = numbers>J</div></div></button><button id = button_5 class = ""square num-button"" onclick = ""recordClick(this)""><div class = content><div class = numbers>K</div></div></button><button id = button_6 class = ""square num-button"" onclick = ""recordClick(this)""><div class = content><div class = numbers>L</div></div></button><button id = button_7 class = ""square num-button"" onclick = ""recordClick(this)""><div class = content><div class = numbers>N</div></div></button><button id = button_8 class = ""square num-button"" onclick = ""recordClick(this)""><div class = content><div class = numbers>P</div></div></button><button id = button_9 class = ""square num-button"" onclick = ""recordClick(this)""><div class = content><div class = numbers>Q</div></div></button><button id = button_10 class = ""square num-button"" onclick = ""recordClick(this)""><div class = content><div class = numbers>R</div></div></button><button id = button_11 class = ""square num-button"" onclick = ""recordClick(this)""><div class = content><div class = numbers>S</div></div></button><button id = button_12 class = ""square num-button"" onclick = ""recordClick(this)""><div class = content><div class = numbers>Y</div></div></button><button class = clear_button id = ""ClearButton"" onclick = ""clearResponse()"">BACKSPACE</button><button class = blank_button id = ""BlankButton"" onclick = ""blankResponse()"">SKIP</button><p style=""font-size: 2.4rem""><u><b>Current Answer:</b></u></p><br><br><div id=echoed_txt style=""font-size: 5rem; color:blue;""><b></b></div></div>",enter,ospan,retrieval,azhUUqqrjBWbcY7wu6QfocyJ8Z82,html-keyboard-response,156,985985,0.0-46.0-5.0-0.0-2.0,21,21,21,6.0,"[""R"",""L"",""G"",""S"",""P"",""H""]","[""R"",""L"",""G"",""S"",""P"",""H""]",1.0,6.0,,,,,,,5e89e802134569681e691e0a,08:53:59,03/04/2024
793.0,[''],0,ospan,feedback,azhUUqqrjBWbcY7wu6QfocyJ8Z82,html-button-response,157,987281,0.0-46.0-5.0-0.0-3.0,,,,,,,,,,,,100.0,0.0,,5e89e802134569681e691e0a,08:53:59,03/04/2024
,"<p style=""font-size:75px;"">...</p>",,ospan,iti,azhUUqqrjBWbcY7wu6QfocyJ8Z82,html-keyboard-response,158,988285,0.0-46.0-5.0-1.0-0.0,,,,,,,,,,,,,,,5e89e802134569681e691e0a,08:53:59,03/04/2024
2419.0,,,ospan,symmetry,azhUUqqrjBWbcY7wu6QfocyJ8Z82,symmetry-judgement-task,159,991752,0.0-46.0-5.0-1.0-1.0-0.0,,,,,,,,,,1.0,1.0,,,,5e89e802134569681e691e0a,08:53:59,03/04/2024
,"<div style=""font-size: 10rem; color: #0000FF"">Q</div>",,ospan,letter,azhUUqqrjBWbcY7wu6QfocyJ8Z82,html-keyboard-response,160,992755,0.0-46.0-5.0-1.0-1.0-1.0,,,,,,,,,,,,,,,5e89e802134569681e691e0a,08:53:59,03/04/2024
2969.0,,,ospan,symmetry,azhUUqqrjBWbcY7wu6QfocyJ8Z82,symmetry-judgement-task,161,997583,0.0-46.0-5.0-1.0-1.0-2.0,,,,,,,,,,1.0,1.0,,,,5e89e802134569681e691e0a,08:53:59,03/04/2024
,"<div style=""font-size: 10rem; color: #0000FF"">J</div>",,ospan,letter,azhUUqqrjBWbcY7wu6QfocyJ8Z82,html-keyboard-response,162,998586,0.0-46.0-5.0-1.0-1.0-3.0,,,,,,,,,,,,,,,5e89e802134569681e691e0a,08:53:59,03/04/2024
4297.0,,,ospan,symmetry,azhUUqqrjBWbcY7wu6QfocyJ8Z82,symmetry-judgement-task,163,1004734,0.0-46.0-5.0-1.0-1.0-4.0,,,,,,,,,,1.0,1.0,,,,5e89e802134569681e691e0a,08:53:59,03/04/2024
,"<div style=""font-size: 10rem; color: #0000FF"">P</div>",,ospan,letter,azhUUqqrjBWbcY7wu6QfocyJ8Z82,html-keyboard-response,164,1005737,0.0-46.0-5.0-1.0-1.0-5.0,,,,,,,,,,,,,,,5e89e802134569681e691e0a,08:53:59,03/04/2024
1970.0,,,ospan,symmetry,azhUUqqrjBWbcY7wu6QfocyJ8Z82,symmetry-judgement-task,165,1009567,0.0-46.0-5.0-1.0-1.0-6.0,,,,,,,,,,1.0,1.0,,,,5e89e802134569681e691e0a,08:53:59,03/04/2024
,"<div style=""font-size: 10rem; color: #0000FF"">N</div>",,ospan,letter,azhUUqqrjBWbcY7wu6QfocyJ8Z82,html-keyboard-response,166,1010570,0.0-46.0-5.0-1.0-1.0-7.0,,,,,,,,,,,,,,,5e89e802134569681e691e0a,08:53:59,03/04/2024
2226.0,,,ospan,symmetry,azhUUqqrjBWbcY7wu6QfocyJ8Z82,symmetry-judgement-task,167,1014650,0.0-46.0-5.0-1.0-1.0-8.0,,,,,,,,,,1.0,1.0,,,,5e89e802134569681e691e0a,08:53:59,03/04/2024
,"<div style=""font-size: 10rem; color: #0000FF"">Y</div>",,ospan,letter,azhUUqqrjBWbcY7wu6QfocyJ8Z82,html-keyboard-response,168,1015653,0.0-46.0-5.0-1.0-1.0-9.0,,,,,,,,,,,,,,,5e89e802134569681e691e0a,08:53:59,03/04/2024
5850.0,,,ospan,symmetry,azhUUqqrjBWbcY7wu6QfocyJ8Z82,symmetry-judgement-task,169,1023367,0.0-46.0-5.0-1.0-1.0-10.0,,,,,,,,,,1.0,1.0,,,,5e89e802134569681e691e0a,08:53:59,03/04/2024
,"<div style=""font-size: 10rem; color: #0000FF"">K</div>",,ospan,letter,azhUUqqrjBWbcY7wu6QfocyJ8Z82,html-keyboard-response,170,1024370,0.0-46.0-5.0-1.0-1.0-11.0,,,,,,,,,,,,,,,5e89e802134569681e691e0a,08:53:59,03/04/2024
3953.0,,,ospan,symmetry,azhUUqqrjBWbcY7wu6QfocyJ8Z82,symmetry-judgement-task,171,1030199,0.0-46.0-5.0-1.0-1.0-12.0,,,,,,,,,,1.0,1.0,,,,5e89e802134569681e691e0a,08:53:59,03/04/2024
,"<div style=""font-size: 10rem; color: #0000FF"">L</div>",,ospan,letter,azhUUqqrjBWbcY7wu6QfocyJ8Z82,html-keyboard-response,172,1031202,0.0-46.0-5.0-1.0-1.0-13.0,,,,,,,,,,,,,,,5e89e802134569681e691e0a,08:53:59,03/04/2024
8276.09999999404,"<div class = numbox><p style=""font-size: 2.4rem"">Please recall the letters you saw to the best of your ability. If you do not remember a particular letter, use the SKIP button.<br><b>(When you are ready to lock in your answer, press ENTER)</b></p><button id = button_1 class = ""square num-button"" onclick = ""recordClick(this)""><div class = content><div class = numbers>C</div></div></button><button id = button_2 class = ""square num-button"" onclick = ""recordClick(this)""><div class = content><div class = numbers>G</div></div></button><button id = button_3 class = ""square num-button"" onclick = ""recordClick(this)""><div class = content><div class = numbers>H</div></div></button><button id = button_4 class = ""square num-button"" onclick = ""recordClick(this)""><div class = content><div class = numbers>J</div></div></button><button id = button_5 class = ""square num-button"" onclick = ""recordClick(this)""><div class = content><div class = numbers>K</div></div></button><button id = button_6 class = ""square num-button"" onclick = ""recordClick(this)""><div class = content><div class = numbers>L</div></div></button><button id = button_7 class = ""square num-button"" onclick = ""recordClick(this)""><div class = content><div class = numbers>N</div></div></button><button id = button_8 class = ""square num-button"" onclick = ""recordClick(this)""><div class = content><div class = numbers>P</div></div></button><button id = button_9 class = ""square num-button"" onclick = ""recordClick(this)""><div class = content><div class = numbers>Q</div></div></button><button id = button_10 class = ""square num-button"" onclick = ""recordClick(this)""><div class = content><div class = numbers>R</div></div></button><button id = button_11 class = ""square num-button"" onclick = ""recordClick(this)""><div class = content><div class = numbers>S</div></div></button><button id = button_12 class = ""square num-button"" onclick = ""recordClick(this)""><div class = content><div class = numbers>Y</div></div></button><button class = clear_button id = ""ClearButton"" onclick = ""clearResponse()"">BACKSPACE</button><button class = blank_button id = ""BlankButton"" onclick = ""blankResponse()"">SKIP</button><p style=""font-size: 2.4rem""><u><b>Current Answer:</b></u></p><br><br><div id=echoed_txt style=""font-size: 5rem; color:blue;""><b></b></div></div>",enter,ospan,retrieval,azhUUqqrjBWbcY7wu6QfocyJ8Z82,html-keyboard-response,173,1040232,0.0-46.0-5.0-1.0-2.0,28,28,28,7.0,"[""Q"",""J"",""P"",""N"",""Y"",""K"",""L""]","[""Q"",""J"",""P"",""N"",""Y"",""K"",""L""]",1.0,7.0,,,,,,,5e89e802134569681e691e0a,08:53:59,03/04/2024
962.0,[''],0,ospan,feedback,azhUUqqrjBWbcY7wu6QfocyJ8Z82,html-button-response,174,1041698,0.0-46.0-5.0-1.0-3.0,,,,,,,,,,,,100.0,0.0,,5e89e802134569681e691e0a,08:53:59,03/04/2024
,"<p style=""font-size:75px;"">...</p>",,ospan,iti,azhUUqqrjBWbcY7wu6QfocyJ8Z82,html-keyboard-response,175,1042702,0.0-46.0-6.0-0.0-0.0,,,,,,,,,,,,,,,5e89e802134569681e691e0a,08:53:59,03/04/2024
3536.0,,,ospan,symmetry,azhUUqqrjBWbcY7wu6QfocyJ8Z82,symmetry-judgement-task,176,1047350,0.0-46.0-6.0-0.0-1.0-0.0,,,,,,,,,,1.0,1.0,,,,5e89e802134569681e691e0a,08:53:59,03/04/2024
,"<div style=""font-size: 10rem; color: #0000FF"">G</div>",,ospan,letter,azhUUqqrjBWbcY7wu6QfocyJ8Z82,html-keyboard-response,177,1048353,0.0-46.0-6.0-0.0-1.0-1.0,,,,,,,,,,,,,,,5e89e802134569681e691e0a,08:53:59,03/04/2024
4000.0,,,ospan,symmetry,azhUUqqrjBWbcY7wu6QfocyJ8Z82,symmetry-judgement-task,178,1054199,0.0-46.0-6.0-0.0-1.0-2.0,,,,,,,,,,1.0,1.0,,,,5e89e802134569681e691e0a,08:53:59,03/04/2024
,"<div style=""font-size: 10rem; color: #0000FF"">N</div>",,ospan,letter,azhUUqqrjBWbcY7wu6QfocyJ8Z82,html-keyboard-response,179,1055202,0.0-46.0-6.0-0.0-1.0-3.0,,,,,,,,,,,,,,,5e89e802134569681e691e0a,08:53:59,03/04/2024
3766.0,,,ospan,symmetry,azhUUqqrjBWbcY7wu6QfocyJ8Z82,symmetry-judgement-task,180,1060832,0.0-46.0-6.0-0.0-1.0-4.0,,,,,,,,,,1.0,1.0,,,,5e89e802134569681e691e0a,08:53:59,03/04/2024
,"<div style=""font-size: 10rem; color: #0000FF"">S</div>",,ospan,letter,azhUUqqrjBWbcY7wu6QfocyJ8Z82,html-keyboard-response,181,1061835,0.0-46.0-6.0-0.0-1.0-5.0,,,,,,,,,,,,,,,5e89e802134569681e691e0a,08:53:59,03/04/2024
3683.0,,,ospan,symmetry,azhUUqqrjBWbcY7wu6QfocyJ8Z82,symmetry-judgement-task,182,1067365,0.0-46.0-6.0-0.0-1.0-6.0,,,,,,,,,,1.0,1.0,,,,5e89e802134569681e691e0a,08:53:59,03/04/2024
,"<div style=""font-size: 10rem; color: #0000FF"">L</div>",,ospan,letter,azhUUqqrjBWbcY7wu6QfocyJ8Z82,html-keyboard-response,183,1068367,0.0-46.0-6.0-0.0-1.0-7.0,,,,,,,,,,,,,,,5e89e802134569681e691e0a,08:53:59,03/04/2024
4656.0,,,ospan,symmetry,azhUUqqrjBWbcY7wu6QfocyJ8Z82,symmetry-judgement-task,184,1074899,0.0-46.0-6.0-0.0-1.0-8.0,,,,,,,,,,1.0,1.0,,,,5e89e802134569681e691e0a,08:53:59,03/04/2024
,"<div style=""font-size: 10rem; color: #0000FF"">J</div>",,ospan,letter,azhUUqqrjBWbcY7wu6QfocyJ8Z82,html-keyboard-response,185,1075902,0.0-46.0-6.0-0.0-1.0-9.0,,,,,,,,,,,,,,,5e89e802134569681e691e0a,08:53:59,03/04/2024
6177.399999991059,"<div class = numbox><p style=""font-size: 2.4rem"">Please recall the letters you saw to the best of your ability. If you do not remember a particular letter, use the SKIP button.<br><b>(When you are ready to lock in your answer, press ENTER)</b></p><button id = button_1 class = ""square num-button"" onclick = ""recordClick(this)""><div class = content><div class = numbers>C</div></div></button><button id = button_2 class = ""square num-button"" onclick = ""recordClick(this)""><div class = content><div class = numbers>G</div></div></button><button id = button_3 class = ""square num-button"" onclick = ""recordClick(this)""><div class = content><div class = numbers>H</div></div></button><button id = button_4 class = ""square num-button"" onclick = ""recordClick(this)""><div class = content><div class = numbers>J</div></div></button><button id = button_5 class = ""square num-button"" onclick = ""recordClick(this)""><div class = content><div class = numbers>K</div></div></button><button id = button_6 class = ""square num-button"" onclick = ""recordClick(this)""><div class = content><div class = numbers>L</div></div></button><button id = button_7 class = ""square num-button"" onclick = ""recordClick(this)""><div class = content><div class = numbers>N</div></div></button><button id = button_8 class = ""square num-button"" onclick = ""recordClick(this)""><div class = content><div class = numbers>P</div></div></button><button id = button_9 class = ""square num-button"" onclick = ""recordClick(this)""><div class = content><div class = numbers>Q</div></div></button><button id = button_10 class = ""square num-button"" onclick = ""recordClick(this)""><div class = content><div class = numbers>R</div></div></button><button id = button_11 class = ""square num-button"" onclick = ""recordClick(this)""><div class = content><div class = numbers>S</div></div></button><button id = button_12 class = ""square num-button"" onclick = ""recordClick(this)""><div class = content><div class = numbers>Y</div></div></button><button class = clear_button id = ""ClearButton"" onclick = ""clearResponse()"">BACKSPACE</button><button class = blank_button id = ""BlankButton"" onclick = ""blankResponse()"">SKIP</button><p style=""font-size: 2.4rem""><u><b>Current Answer:</b></u></p><br><br><div id=echoed_txt style=""font-size: 5rem; color:blue;""><b></b></div></div>",enter,ospan,retrieval,azhUUqqrjBWbcY7wu6QfocyJ8Z82,html-keyboard-response,186,1082833,0.0-46.0-6.0-0.0-2.0,33,33,33,5.0,"[""G"",""N"",""S"",""L"",""J""]","[""G"",""N"",""S"",""L"",""J""]",1.0,5.0,,,,,,,5e89e802134569681e691e0a,08:53:59,03/04/2024
1227.4000000059605,[''],0,ospan,feedback,azhUUqqrjBWbcY7wu6QfocyJ8Z82,html-button-response,187,1084563,0.0-46.0-6.0-0.0-3.0,,,,,,,,,,,,100.0,0.0,,5e89e802134569681e691e0a,08:53:59,03/04/2024
,"<p style=""font-size:75px;"">...</p>",,ospan,iti,azhUUqqrjBWbcY7wu6QfocyJ8Z82,html-keyboard-response,188,1085567,0.0-46.0-6.0-1.0-0.0,,,,,,,,,,,,,,,5e89e802134569681e691e0a,08:53:59,03/04/2024
2714.0,,,ospan,symmetry,azhUUqqrjBWbcY7wu6QfocyJ8Z82,symmetry-judgement-task,189,1089384,0.0-46.0-6.0-1.0-1.0-0.0,,,,,,,,,,1.0,1.0,,,,5e89e802134569681e691e0a,08:53:59,03/04/2024
,"<div style=""font-size: 10rem; color: #0000FF"">C</div>",,ospan,letter,azhUUqqrjBWbcY7wu6QfocyJ8Z82,html-keyboard-response,190,1090388,0.0-46.0-6.0-1.0-1.0-1.0,,,,,,,,,,,,,,,5e89e802134569681e691e0a,08:53:59,03/04/2024
4498.0,,,ospan,symmetry,azhUUqqrjBWbcY7wu6QfocyJ8Z82,symmetry-judgement-task,191,1096751,0.0-46.0-6.0-1.0-1.0-2.0,,,,,,,,,,1.0,1.0,,,,5e89e802134569681e691e0a,08:53:59,03/04/2024
,"<div style=""font-size: 10rem; color: #0000FF"">H</div>",,ospan,letter,azhUUqqrjBWbcY7wu6QfocyJ8Z82,html-keyboard-response,192,1097754,0.0-46.0-6.0-1.0-1.0-3.0,,,,,,,,,,,,,,,5e89e802134569681e691e0a,08:53:59,03/04/2024
2170.0,,,ospan,symmetry,azhUUqqrjBWbcY7wu6QfocyJ8Z82,symmetry-judgement-task,193,1101784,0.0-46.0-6.0-1.0-1.0-4.0,,,,,,,,,,1.0,1.0,,,,5e89e802134569681e691e0a,08:53:59,03/04/2024
,"<div style=""font-size: 10rem; color: #0000FF"">N</div>",,ospan,letter,azhUUqqrjBWbcY7wu6QfocyJ8Z82,html-keyboard-response,194,1102787,0.0-46.0-6.0-1.0-1.0-5.0,,,,,,,,,,,,,,,5e89e802134569681e691e0a,08:53:59,03/04/2024
2405.0,,,ospan,symmetry,azhUUqqrjBWbcY7wu6QfocyJ8Z82,symmetry-judgement-task,195,1107050,0.0-46.0-6.0-1.0-1.0-6.0,,,,,,,,,,1.0,1.0,,,,5e89e802134569681e691e0a,08:53:59,03/04/2024
,"<div style=""font-size: 10rem; color: #0000FF"">Q</div>",,ospan,letter,azhUUqqrjBWbcY7wu6QfocyJ8Z82,html-keyboard-response,196,1108053,0.0-46.0-6.0-1.0-1.0-7.0,,,,,,,,,,,,,,,5e89e802134569681e691e0a,08:53:59,03/04/2024
3881.0,,,ospan,symmetry,azhUUqqrjBWbcY7wu6QfocyJ8Z82,symmetry-judgement-task,197,1113799,0.0-46.0-6.0-1.0-1.0-8.0,,,,,,,,,,1.0,1.0,,,,5e89e802134569681e691e0a,08:53:59,03/04/2024
,"<div style=""font-size: 10rem; color: #0000FF"">R</div>",,ospan,letter,azhUUqqrjBWbcY7wu6QfocyJ8Z82,html-keyboard-response,198,1114802,0.0-46.0-6.0-1.0-1.0-9.0,,,,,,,,,,,,,,,5e89e802134569681e691e0a,08:53:59,03/04/2024
3839.0,,,ospan,symmetry,azhUUqqrjBWbcY7wu6QfocyJ8Z82,symmetry-judgement-task,199,1120499,0.0-46.0-6.0-1.0-1.0-10.0,,,,,,,,,,1.0,1.0,,,,5e89e802134569681e691e0a,08:53:59,03/04/2024
,"<div style=""font-size: 10rem; color: #0000FF"">K</div>",,ospan,letter,azhUUqqrjBWbcY7wu6QfocyJ8Z82,html-keyboard-response,200,1121502,0.0-46.0-6.0-1.0-1.0-11.0,,,,,,,,,,,,,,,5e89e802134569681e691e0a,08:53:59,03/04/2024
3432.0,,,ospan,symmetry,azhUUqqrjBWbcY7wu6QfocyJ8Z82,symmetry-judgement-task,201,1126784,0.0-46.0-6.0-1.0-1.0-12.0,,,,,,,,,,1.0,1.0,,,,5e89e802134569681e691e0a,08:53:59,03/04/2024
,"<div style=""font-size: 10rem; color: #0000FF"">S</div>",,ospan,letter,azhUUqqrjBWbcY7wu6QfocyJ8Z82,html-keyboard-response,202,1127788,0.0-46.0-6.0-1.0-1.0-13.0,,,,,,,,,,,,,,,5e89e802134569681e691e0a,08:53:59,03/04/2024
3099.0,,,ospan,symmetry,azhUUqqrjBWbcY7wu6QfocyJ8Z82,symmetry-judgement-task,203,1132748,0.0-46.0-6.0-1.0-1.0-14.0,,,,,,,,,,1.0,1.0,,,,5e89e802134569681e691e0a,08:53:59,03/04/2024
,"<div style=""font-size: 10rem; color: #0000FF"">J</div>",,ospan,letter,azhUUqqrjBWbcY7wu6QfocyJ8Z82,html-keyboard-response,204,1133750,0.0-46.0-6.0-1.0-1.0-15.0,,,,,,,,,,,,,,,5e89e802134569681e691e0a,08:53:59,03/04/2024
10583.60000000894,"<div class = numbox><p style=""font-size: 2.4rem"">Please recall the letters you saw to the best of your ability. If you do not remember a particular letter, use the SKIP button.<br><b>(When you are ready to lock in your answer, press ENTER)</b></p><button id = button_1 class = ""square num-button"" onclick = ""recordClick(this)""><div class = content><div class = numbers>C</div></div></button><button id = button_2 class = ""square num-button"" onclick = ""recordClick(this)""><div class = content><div class = numbers>G</div></div></button><button id = button_3 class = ""square num-button"" onclick = ""recordClick(this)""><div class = content><div class = numbers>H</div></div></button><button id = button_4 class = ""square num-button"" onclick = ""recordClick(this)""><div class = content><div class = numbers>J</div></div></button><button id = button_5 class = ""square num-button"" onclick = ""recordClick(this)""><div class = content><div class = numbers>K</div></div></button><button id = button_6 class = ""square num-button"" onclick = ""recordClick(this)""><div class = content><div class = numbers>L</div></div></button><button id = button_7 class = ""square num-button"" onclick = ""recordClick(this)""><div class = content><div class = numbers>N</div></div></button><button id = button_8 class = ""square num-button"" onclick = ""recordClick(this)""><div class = content><div class = numbers>P</div></div></button><button id = button_9 class = ""square num-button"" onclick = ""recordClick(this)""><div class = content><div class = numbers>Q</div></div></button><button id = button_10 class = ""square num-button"" onclick = ""recordClick(this)""><div class = content><div class = numbers>R</div></div></button><button id = button_11 class = ""square num-button"" onclick = ""recordClick(this)""><div class = content><div class = numbers>S</div></div></button><button id = button_12 class = ""square num-button"" onclick = ""recordClick(this)""><div class = content><div class = numbers>Y</div></div></button><button class = clear_button id = ""ClearButton"" onclick = ""clearResponse()"">BACKSPACE</button><button class = blank_button id = ""BlankButton"" onclick = ""blankResponse()"">SKIP</button><p style=""font-size: 2.4rem""><u><b>Current Answer:</b></u></p><br><br><div id=echoed_txt style=""font-size: 5rem; color:blue;""><b></b></div></div>",enter,ospan,retrieval,azhUUqqrjBWbcY7wu6QfocyJ8Z82,html-keyboard-response,205,1145086,0.0-46.0-6.0-1.0-2.0,41,41,41,8.0,"[""C"",""H"",""N"",""Q"",""R"",""K"",""S"",""J""]","[""C"",""H"",""N"",""Q"",""R"",""K"",""S"",""J""]",1.0,8.0,,,,,,,5e89e802134569681e691e0a,08:53:59,03/04/2024
856.9000000059605,[''],0,ospan,feedback,azhUUqqrjBWbcY7wu6QfocyJ8Z82,html-button-response,206,1146447,0.0-46.0-6.0-1.0-3.0,,,,,,,,,,,,100.0,0.0,,5e89e802134569681e691e0a,08:53:59,03/04/2024
32714.5,,{'Q0': 'Enjoyed this task more than the previous one. '},ospan,survey_ospan,azhUUqqrjBWbcY7wu6QfocyJ8Z82,lmdlab-survey-text,207,1179915,0.0-46.0-7.0,,,,,,,,,,,,,,azhUUqqrjBWbcY7wu6QfocyJ8Z82,5e89e802134569681e691e0a,08:53:59,03/04/2024
1476.699999988079,<p><p style='font-size: 3rem'>Great work!<br><br>This completes the symmetry and memory task.</p><br><br><br>,0,ospan,finish,azhUUqqrjBWbcY7wu6QfocyJ8Z82,html-button-response,208,1181397,0.0-46.0-8.0,41,41,41,,,,,,,,,100.0,,,5e89e802134569681e691e0a,08:53:59,03/04/2024
