rt,stimulus,response,exp_name,exp_stage,subjectID,trial_type,trial_index,time_elapsed,internal_node_id,ospan_shown,ospan_total,ospan_abs,length,resp_actual,resp_correct,full_correct,num_correct,feedback,accuracy,correct,math_acc,math_warning,databaseID,prolificID,start_time,date
1778.699999988079,<div class = 'left_align' style='font-size: 3.25rem; line-height: 1.3;'><p class = 'center_align'><b>Welcome to the Symmetry and Memory Task</b><br><br><br><br></p>Press 'continue' to show the instructions.<br><br><br><br></div>,0,ospan,instruct,m9uKhHM6GAV8KmghucjDf6wNkBN2,html-button-response,54,419661,0.0-46.0-0.0-0.0-0.0,,,,,,,,,,,,,,,5da41f84a39c100018614e31,12:09:39,03/04/2024
10478.20000000298,"<div class = 'left_align' style='font-size: 3.25rem; line-height: 1.3;'><p class = 'center_align'><b>Symmetry and Memory Task</b><br><br></p>In this task, you will try to memorize letters you see on the screen<br>while you also view black and white grid pictures.<br><br>In the next few minutes, you will have some practice to get you familiar<br>with how the task works.<br><br>It may be difficult sometimes, but please do not worry about making mistakes!<br><br>We will begin by practicing the letter part of the task.<br><br><br><br></div>",0,ospan,instruct,m9uKhHM6GAV8KmghucjDf6wNkBN2,html-button-response,55,430393,0.0-46.0-0.0-0.0-1.0,,,,,,,,,,,,,,,5da41f84a39c100018614e31,12:09:39,03/04/2024
12614.0,"<div class = 'left_align' style='font-size: 3.25rem; line-height: 1.3;'>For this practice part, letters will appear on the screen one at a time.<br><br>Try to remember each letter in the order presented.<br><br>After some letters have been shown, you will see a response screen. Your<br>goal is to report the letters you saw <b>in order</b>. If you do not remember<br>a particular letter, you will have the option to leave it blank.<br><br><br><br></div>",0,ospan,instruct,m9uKhHM6GAV8KmghucjDf6wNkBN2,html-button-response,56,443261,0.0-46.0-0.0-0.0-2.0,,,,,,,,,,,,,,,5da41f84a39c100018614e31,12:09:39,03/04/2024
3779.7000000029802,"<div class = 'left_align' style='font-size: 3.25rem; line-height: 1.3;'>Remember, it is very important to get the letters in the same<br>order as you see them.<br><br>When you are ready, you may begin the letter practice.</div><br><br><br><br>",0,ospan,instruct,m9uKhHM6GAV8KmghucjDf6wNkBN2,html-button-response,57,447294,0.0-46.0-0.0-0.0-3.0,,,,,,,,,,,,,,,5da41f84a39c100018614e31,12:09:39,03/04/2024
,"<p style=""font-size:75px;"">...</p>",,ospan,iti,m9uKhHM6GAV8KmghucjDf6wNkBN2,html-keyboard-response,58,448545,0.0-46.0-0.0-1.0-0.0,,,,,,,,,,,,,,,5da41f84a39c100018614e31,12:09:39,03/04/2024
,"<div style=""font-size: 10rem; color: #0000FF"">S</div>",,ospan,letter,m9uKhHM6GAV8KmghucjDf6wNkBN2,html-keyboard-response,59,449549,0.0-46.0-0.0-1.0-1.0,,,,,,,,,,,,,,,5da41f84a39c100018614e31,12:09:39,03/04/2024
,"<div style=""font-size: 10rem; color: #0000FF"">K</div>",,ospan,letter,m9uKhHM6GAV8KmghucjDf6wNkBN2,html-keyboard-response,60,451303,0.0-46.0-0.0-1.0-2.0,,,,,,,,,,,,,,,5da41f84a39c100018614e31,12:09:39,03/04/2024
7078.70000000298,"<div class = numbox><p style=""font-size: 2.4rem"">Please recall the letters you saw to the best of your ability. If you do not remember a particular letter, use the SKIP button.<br><b>(When you are ready to lock in your answer, press ENTER)</b></p><button id = button_1 class = ""square num-button"" onclick = ""recordClick(this)""><div class = content><div class = numbers>C</div></div></button><button id = button_2 class = ""square num-button"" onclick = ""recordClick(this)""><div class = content><div class = numbers>G</div></div></button><button id = button_3 class = ""square num-button"" onclick = ""recordClick(this)""><div class = content><div class = numbers>H</div></div></button><button id = button_4 class = ""square num-button"" onclick = ""recordClick(this)""><div class = content><div class = numbers>J</div></div></button><button id = button_5 class = ""square num-button"" onclick = ""recordClick(this)""><div class = content><div class = numbers>K</div></div></button><button id = button_6 class = ""square num-button"" onclick = ""recordClick(this)""><div class = content><div class = numbers>L</div></div></button><button id = button_7 class = ""square num-button"" onclick = ""recordClick(this)""><div class = content><div class = numbers>N</div></div></button><button id = button_8 class = ""square num-button"" onclick = ""recordClick(this)""><div class = content><div class = numbers>P</div></div></button><button id = button_9 class = ""square num-button"" onclick = ""recordClick(this)""><div class = content><div class = numbers>Q</div></div></button><button id = button_10 class = ""square num-button"" onclick = ""recordClick(this)""><div class = content><div class = numbers>R</div></div></button><button id = button_11 class = ""square num-button"" onclick = ""recordClick(this)""><div class = content><div class = numbers>S</div></div></button><button id = button_12 class = ""square num-button"" onclick = ""recordClick(this)""><div class = content><div class = numbers>Y</div></div></button><button class = clear_button id = ""ClearButton"" onclick = ""clearResponse()"">BACKSPACE</button><button class = blank_button id = ""BlankButton"" onclick = ""blankResponse()"">SKIP</button><p style=""font-size: 2.4rem""><u><b>Current Answer:</b></u></p><br><br><div id=echoed_txt style=""font-size: 5rem; color:blue;""><b></b></div></div>",enter,ospan,retrieval,m9uKhHM6GAV8KmghucjDf6wNkBN2,html-keyboard-response,61,459135,0.0-46.0-0.0-1.0-3.0,NA,NA,NA,2.0,"[""S"",""K""]","[""S"",""K""]",1.0,2.0,"['<font color=""green"">S</font>', '<font color=""green"">K</font>']",,,,,,5da41f84a39c100018614e31,12:09:39,03/04/2024
1423.5,"['<p style=""font-size:44px"">Letters:<br><br><br><font color=""green"">S</font> <font color=""green"">K</font></p><br><br>']",0,ospan,practice_feedback,m9uKhHM6GAV8KmghucjDf6wNkBN2,html-button-response,62,461061,0.0-46.0-0.0-1.0-4.0,,,,,,,,,,,,,,,5da41f84a39c100018614e31,12:09:39,03/04/2024
,"<p style=""font-size:75px;"">...</p>",,ospan,iti,m9uKhHM6GAV8KmghucjDf6wNkBN2,html-keyboard-response,63,462064,0.0-46.0-0.0-2.0-0.0,,,,,,,,,,,,,,,5da41f84a39c100018614e31,12:09:39,03/04/2024
,"<div style=""font-size: 10rem; color: #0000FF"">L</div>",,ospan,letter,m9uKhHM6GAV8KmghucjDf6wNkBN2,html-keyboard-response,64,463066,0.0-46.0-0.0-2.0-1.0,,,,,,,,,,,,,,,5da41f84a39c100018614e31,12:09:39,03/04/2024
,"<div style=""font-size: 10rem; color: #0000FF"">C</div>",,ospan,letter,m9uKhHM6GAV8KmghucjDf6wNkBN2,html-keyboard-response,65,464818,0.0-46.0-0.0-2.0-2.0,,,,,,,,,,,,,,,5da41f84a39c100018614e31,12:09:39,03/04/2024
,"<div style=""font-size: 10rem; color: #0000FF"">S</div>",,ospan,letter,m9uKhHM6GAV8KmghucjDf6wNkBN2,html-keyboard-response,66,466572,0.0-46.0-0.0-2.0-3.0,,,,,,,,,,,,,,,5da41f84a39c100018614e31,12:09:39,03/04/2024
2946.1000000089407,"<div class = numbox><p style=""font-size: 2.4rem"">Please recall the letters you saw to the best of your ability. If you do not remember a particular letter, use the SKIP button.<br><b>(When you are ready to lock in your answer, press ENTER)</b></p><button id = button_1 class = ""square num-button"" onclick = ""recordClick(this)""><div class = content><div class = numbers>C</div></div></button><button id = button_2 class = ""square num-button"" onclick = ""recordClick(this)""><div class = content><div class = numbers>G</div></div></button><button id = button_3 class = ""square num-button"" onclick = ""recordClick(this)""><div class = content><div class = numbers>H</div></div></button><button id = button_4 class = ""square num-button"" onclick = ""recordClick(this)""><div class = content><div class = numbers>J</div></div></button><button id = button_5 class = ""square num-button"" onclick = ""recordClick(this)""><div class = content><div class = numbers>K</div></div></button><button id = button_6 class = ""square num-button"" onclick = ""recordClick(this)""><div class = content><div class = numbers>L</div></div></button><button id = button_7 class = ""square num-button"" onclick = ""recordClick(this)""><div class = content><div class = numbers>N</div></div></button><button id = button_8 class = ""square num-button"" onclick = ""recordClick(this)""><div class = content><div class = numbers>P</div></div></button><button id = button_9 class = ""square num-button"" onclick = ""recordClick(this)""><div class = content><div class = numbers>Q</div></div></button><button id = button_10 class = ""square num-button"" onclick = ""recordClick(this)""><div class = content><div class = numbers>R</div></div></button><button id = button_11 class = ""square num-button"" onclick = ""recordClick(this)""><div class = content><div class = numbers>S</div></div></button><button id = button_12 class = ""square num-button"" onclick = ""recordClick(this)""><div class = content><div class = numbers>Y</div></div></button><button class = clear_button id = ""ClearButton"" onclick = ""clearResponse()"">BACKSPACE</button><button class = blank_button id = ""BlankButton"" onclick = ""blankResponse()"">SKIP</button><p style=""font-size: 2.4rem""><u><b>Current Answer:</b></u></p><br><br><div id=echoed_txt style=""font-size: 5rem; color:blue;""><b></b></div></div>",enter,ospan,retrieval,m9uKhHM6GAV8KmghucjDf6wNkBN2,html-keyboard-response,67,470271,0.0-46.0-0.0-2.0-4.0,NA,NA,NA,3.0,"[""L"",""C"",""S""]","[""L"",""C"",""S""]",1.0,3.0,"['<font color=""green"">L</font>', '<font color=""green"">C</font>', '<font color=""green"">S</font>']",,,,,,5da41f84a39c100018614e31,12:09:39,03/04/2024
1121.2999999970198,"['<p style=""font-size:44px"">Letters:<br><br><br><font color=""green"">L</font> <font color=""green"">C</font> <font color=""green"">S</font></p><br><br>']",0,ospan,practice_feedback,m9uKhHM6GAV8KmghucjDf6wNkBN2,html-button-response,68,471894,0.0-46.0-0.0-2.0-5.0,,,,,,,,,,,,,,,5da41f84a39c100018614e31,12:09:39,03/04/2024
12465.29999999702,"<div class = 'left_align' style='font-size: 3.25rem; line-height: 1.3;'>Now you will practice doing the <b>symmetry judgment part</b> of the experiment.<br><br>A black and white grid picture will appear on the screen and you have to judge if it is <br>symmetrical or asymetrical.<br><br>A picture is 'mirror' symmetrical if its left half is identical to the right half when flipped.<br>Here are examples of a symmetrical and an asymetrical picture:<br><br><center><img src='Stimuli/img/symm_instructions_extra.png' style='height:420px; width:900'></img></center><br>To judge symmetry, imagine you were to fold each picture down the middle, like a book –<br>would the left half match the right half when folded onto each other?<br><br></div><br>",0,ospan,instruct,m9uKhHM6GAV8KmghucjDf6wNkBN2,html-button-response,69,484361,0.0-46.0-1.0-0.0-0.0,,,,,,,,,,,,,,,5da41f84a39c100018614e31,12:09:39,03/04/2024
7147.79999999702,"<div class = 'left_align' style='font-size: 3.25rem; line-height: 1.3;'>When you have viewed the picture and determined whether it is symmetrical or not,<br>you can <b>click the Yes or No button</b> below to answer.<br><br>If you take longer than 15 seconds, it will continue automatically<br>and record the answer as an error.</div><br>",0,ospan,instruct,m9uKhHM6GAV8KmghucjDf6wNkBN2,html-button-response,70,491761,0.0-46.0-1.0-0.0-1.0,,,,,,,,,,,,,,,5da41f84a39c100018614e31,12:09:39,03/04/2024
5114.5,"<div class = 'left_align' style='font-size: 3.25rem; line-height: 1.3;'>It is <b>very</b> important that you make the symmetry judgment correctly.<br><br>It is also important that you try and judge the picture as quickly as you can.<br><br>When you are ready, click on the button below to try some practice problems.</div><br><br><br><br>",0,ospan,instruct,m9uKhHM6GAV8KmghucjDf6wNkBN2,html-button-response,71,497128,0.0-46.0-1.0-0.0-2.0,,,,,,,,,,,,,,,5da41f84a39c100018614e31,12:09:39,03/04/2024
1672.0,,,ospan,symmetry,m9uKhHM6GAV8KmghucjDf6wNkBN2,symmetry-judgement-task,72,499596,0.0-46.0-1.0-1.0-0.0,,,,,,,,,,1.0,1.0,,,,5da41f84a39c100018614e31,12:09:39,03/04/2024
,"<p style=""color:green; font-size: 35px"">Correct</p>",,ospan,feedback,m9uKhHM6GAV8KmghucjDf6wNkBN2,html-keyboard-response,73,500347,0.0-46.0-1.0-1.0-1.0,,,,,,,,,,,,,,,5da41f84a39c100018614e31,12:09:39,03/04/2024
1072.0,,,ospan,symmetry,m9uKhHM6GAV8KmghucjDf6wNkBN2,symmetry-judgement-task,74,504129,0.0-46.0-1.0-1.0-2.0,,,,,,,,,,1.0,1.0,,,,5da41f84a39c100018614e31,12:09:39,03/04/2024
,"<p style=""color:green; font-size: 35px"">Correct</p>",,ospan,feedback,m9uKhHM6GAV8KmghucjDf6wNkBN2,html-keyboard-response,75,504882,0.0-46.0-1.0-1.0-3.0,,,,,,,,,,,,,,,5da41f84a39c100018614e31,12:09:39,03/04/2024
1102.0,,,ospan,symmetry,m9uKhHM6GAV8KmghucjDf6wNkBN2,symmetry-judgement-task,76,508697,0.0-46.0-1.0-1.0-4.0,,,,,,,,,,1.0,1.0,,,,5da41f84a39c100018614e31,12:09:39,03/04/2024
,"<p style=""color:green; font-size: 35px"">Correct</p>",,ospan,feedback,m9uKhHM6GAV8KmghucjDf6wNkBN2,html-keyboard-response,77,509448,0.0-46.0-1.0-1.0-5.0,,,,,,,,,,,,,,,5da41f84a39c100018614e31,12:09:39,03/04/2024
1578.4000000059605,"<p style=""font-size: 3rem;"">You responded correctly on 3 of 3 symmetry judgments. Good job!</p><br><br>",0,ospan,practice,m9uKhHM6GAV8KmghucjDf6wNkBN2,html-button-response,78,513029,0.0-46.0-1.0-2.0,,,,,,,,,,,,,,,5da41f84a39c100018614e31,12:09:39,03/04/2024
9315.20000000298,"<div class = 'left_align' style='font-size: 3.25rem; line-height: 1.3;'>Now you will practice doing both parts of the experiment at the same time.<br><br>In the next practice set, you will be given one grid picture to judge.<br>Then letter will appear on the screen. Try to remember the letter.<br><br>It is <b>very important</b> to make the symmetry judgment as quickly and accurately as possible.<br><br>Just as before, once you have make the symmetry judgment, you can click Yes or No.<br><b>Note that you will no longer see Correct or Incorrect feedback.</div><br><br><br><br>",0,ospan,instruct,m9uKhHM6GAV8KmghucjDf6wNkBN2,html-button-response,79,522597,0.0-46.0-2.0-0.0-0.0,,,,,,,,,,,,,,,5da41f84a39c100018614e31,12:09:39,03/04/2024
4580.899999991059,"<div class = 'left_align' style='font-size: 3.25rem; line-height: 1.3;'>After the letter goes away, another grid picture will appear, and then<br>another letter.<br><br>At the end of each set of letters and grids, you will recall the letters to the best<br>of your ability. Remember, try your best to get the letters in the correct order.<br><br>It is important to <b>quickly</b> and <b>accurately</b> make the symmetry judgments.</div><br><br><br><br>",0,ospan,instruct,m9uKhHM6GAV8KmghucjDf6wNkBN2,html-button-response,80,527431,0.0-46.0-2.0-0.0-1.0,,,,,,,,,,,,,,,5da41f84a39c100018614e31,12:09:39,03/04/2024
14146.40000000596,"<div class = 'left_align' style='font-size: 3.25rem; line-height: 1.3;'>On the feedback screen, if you are not doing well at the symmetry judgments,<br>you will also see a warning in the middle. This indicates your percent <br>correct for the grid pictures for the entire experiment.<br><br>It is <b>very</b> important for you to keep accuracy at least at 85%: <u>We can only use<br>data where the participant was at least 85% accurate on the judgments.</u> Therefore,<br> please try your best to perform well on the symmetry judgments, <b>at the same time</b><br>doing your best to recall as many letters as possible.<br><br>Click the button to try some practice problems.</div><br><br><br><br>",0,ospan,instruct,m9uKhHM6GAV8KmghucjDf6wNkBN2,html-button-response,81,541830,0.0-46.0-2.0-0.0-2.0,,,,,,,,,,,,,,,5da41f84a39c100018614e31,12:09:39,03/04/2024
,"<p style=""font-size:75px;"">...</p>",,ospan,iti,m9uKhHM6GAV8KmghucjDf6wNkBN2,html-keyboard-response,82,543085,0.0-46.0-2.0-1.0-0.0,,,,,,,,,,,,,,,5da41f84a39c100018614e31,12:09:39,03/04/2024
1392.0,,,ospan,symmetry,m9uKhHM6GAV8KmghucjDf6wNkBN2,symmetry-judgement-task,83,545666,0.0-46.0-2.0-1.0-1.0-0.0,,,,,,,,,,1.0,1.0,,,,5da41f84a39c100018614e31,12:09:39,03/04/2024
,"<div style=""font-size: 10rem; color: #0000FF"">C</div>",,ospan,letter,m9uKhHM6GAV8KmghucjDf6wNkBN2,html-keyboard-response,84,546669,0.0-46.0-2.0-1.0-1.0-1.0,,,,,,,,,,,,,,,5da41f84a39c100018614e31,12:09:39,03/04/2024
1253.0,,,ospan,symmetry,m9uKhHM6GAV8KmghucjDf6wNkBN2,symmetry-judgement-task,85,549865,0.0-46.0-2.0-1.0-1.0-2.0,,,,,,,,,,1.0,1.0,,,,5da41f84a39c100018614e31,12:09:39,03/04/2024
,"<div style=""font-size: 10rem; color: #0000FF"">J</div>",,ospan,letter,m9uKhHM6GAV8KmghucjDf6wNkBN2,html-keyboard-response,86,550868,0.0-46.0-2.0-1.0-1.0-3.0,,,,,,,,,,,,,,,5da41f84a39c100018614e31,12:09:39,03/04/2024
1198.0,,,ospan,symmetry,m9uKhHM6GAV8KmghucjDf6wNkBN2,symmetry-judgement-task,87,554032,0.0-46.0-2.0-1.0-1.0-4.0,,,,,,,,,,1.0,1.0,,,,5da41f84a39c100018614e31,12:09:39,03/04/2024
,"<div style=""font-size: 10rem; color: #0000FF"">R</div>",,ospan,letter,m9uKhHM6GAV8KmghucjDf6wNkBN2,html-keyboard-response,88,555035,0.0-46.0-2.0-1.0-1.0-5.0,,,,,,,,,,,,,,,5da41f84a39c100018614e31,12:09:39,03/04/2024
3777.4000000059605,"<div class = numbox><p style=""font-size: 2.4rem"">Please recall the letters you saw to the best of your ability. If you do not remember a particular letter, use the SKIP button.<br><b>(When you are ready to lock in your answer, press ENTER)</b></p><button id = button_1 class = ""square num-button"" onclick = ""recordClick(this)""><div class = content><div class = numbers>C</div></div></button><button id = button_2 class = ""square num-button"" onclick = ""recordClick(this)""><div class = content><div class = numbers>G</div></div></button><button id = button_3 class = ""square num-button"" onclick = ""recordClick(this)""><div class = content><div class = numbers>H</div></div></button><button id = button_4 class = ""square num-button"" onclick = ""recordClick(this)""><div class = content><div class = numbers>J</div></div></button><button id = button_5 class = ""square num-button"" onclick = ""recordClick(this)""><div class = content><div class = numbers>K</div></div></button><button id = button_6 class = ""square num-button"" onclick = ""recordClick(this)""><div class = content><div class = numbers>L</div></div></button><button id = button_7 class = ""square num-button"" onclick = ""recordClick(this)""><div class = content><div class = numbers>N</div></div></button><button id = button_8 class = ""square num-button"" onclick = ""recordClick(this)""><div class = content><div class = numbers>P</div></div></button><button id = button_9 class = ""square num-button"" onclick = ""recordClick(this)""><div class = content><div class = numbers>Q</div></div></button><button id = button_10 class = ""square num-button"" onclick = ""recordClick(this)""><div class = content><div class = numbers>R</div></div></button><button id = button_11 class = ""square num-button"" onclick = ""recordClick(this)""><div class = content><div class = numbers>S</div></div></button><button id = button_12 class = ""square num-button"" onclick = ""recordClick(this)""><div class = content><div class = numbers>Y</div></div></button><button class = clear_button id = ""ClearButton"" onclick = ""clearResponse()"">BACKSPACE</button><button class = blank_button id = ""BlankButton"" onclick = ""blankResponse()"">SKIP</button><p style=""font-size: 2.4rem""><u><b>Current Answer:</b></u></p><br><br><div id=echoed_txt style=""font-size: 5rem; color:blue;""><b></b></div></div>",enter,ospan,retrieval,m9uKhHM6GAV8KmghucjDf6wNkBN2,html-keyboard-response,89,559565,0.0-46.0-2.0-1.0-2.0-0.0,NA,NA,NA,3.0,"[""C"",""J"",""R""]","[""C"",""J"",""R""]",1.0,3.0,"['<font color=""green"">C</font>', '<font color=""green"">J</font>', '<font color=""green"">R</font>']",,,,,,5da41f84a39c100018614e31,12:09:39,03/04/2024
1463.2000000029802,"['<p style=""font-size:44px"">Letters:<br><br><br><font color=""green"">C</font> <font color=""green"">J</font> <font color=""green"">R</font></p><br><br><p style=""font-size:30px"">Symmetry:<br><br><font color=""green"">100%</font></p><br><br>']",0,ospan,practice_feedback,m9uKhHM6GAV8KmghucjDf6wNkBN2,html-button-response,90,561530,0.0-46.0-2.0-1.0-2.0-1.0,,,,,,,,,,,,,,,5da41f84a39c100018614e31,12:09:39,03/04/2024
,"<p style=""font-size:75px;"">...</p>",,ospan,iti,m9uKhHM6GAV8KmghucjDf6wNkBN2,html-keyboard-response,91,562533,0.0-46.0-2.0-2.0-0.0,,,,,,,,,,,,,,,5da41f84a39c100018614e31,12:09:39,03/04/2024
1541.0,,,ospan,symmetry,m9uKhHM6GAV8KmghucjDf6wNkBN2,symmetry-judgement-task,92,565267,0.0-46.0-2.0-2.0-1.0-0.0,,,,,,,,,,1.0,1.0,,,,5da41f84a39c100018614e31,12:09:39,03/04/2024
,"<div style=""font-size: 10rem; color: #0000FF"">S</div>",,ospan,letter,m9uKhHM6GAV8KmghucjDf6wNkBN2,html-keyboard-response,93,566269,0.0-46.0-2.0-2.0-1.0-1.0,,,,,,,,,,,,,,,5da41f84a39c100018614e31,12:09:39,03/04/2024
1487.0,,,ospan,symmetry,m9uKhHM6GAV8KmghucjDf6wNkBN2,symmetry-judgement-task,94,569699,0.0-46.0-2.0-2.0-1.0-2.0,,,,,,,,,,1.0,1.0,,,,5da41f84a39c100018614e31,12:09:39,03/04/2024
,"<div style=""font-size: 10rem; color: #0000FF"">G</div>",,ospan,letter,m9uKhHM6GAV8KmghucjDf6wNkBN2,html-keyboard-response,95,570701,0.0-46.0-2.0-2.0-1.0-3.0,,,,,,,,,,,,,,,5da41f84a39c100018614e31,12:09:39,03/04/2024
1566.0,,,ospan,symmetry,m9uKhHM6GAV8KmghucjDf6wNkBN2,symmetry-judgement-task,96,574232,0.0-46.0-2.0-2.0-1.0-4.0,,,,,,,,,,1.0,1.0,,,,5da41f84a39c100018614e31,12:09:39,03/04/2024
,"<div style=""font-size: 10rem; color: #0000FF"">P</div>",,ospan,letter,m9uKhHM6GAV8KmghucjDf6wNkBN2,html-keyboard-response,97,575235,0.0-46.0-2.0-2.0-1.0-5.0,,,,,,,,,,,,,,,5da41f84a39c100018614e31,12:09:39,03/04/2024
3099.8999999910593,"<div class = numbox><p style=""font-size: 2.4rem"">Please recall the letters you saw to the best of your ability. If you do not remember a particular letter, use the SKIP button.<br><b>(When you are ready to lock in your answer, press ENTER)</b></p><button id = button_1 class = ""square num-button"" onclick = ""recordClick(this)""><div class = content><div class = numbers>C</div></div></button><button id = button_2 class = ""square num-button"" onclick = ""recordClick(this)""><div class = content><div class = numbers>G</div></div></button><button id = button_3 class = ""square num-button"" onclick = ""recordClick(this)""><div class = content><div class = numbers>H</div></div></button><button id = button_4 class = ""square num-button"" onclick = ""recordClick(this)""><div class = content><div class = numbers>J</div></div></button><button id = button_5 class = ""square num-button"" onclick = ""recordClick(this)""><div class = content><div class = numbers>K</div></div></button><button id = button_6 class = ""square num-button"" onclick = ""recordClick(this)""><div class = content><div class = numbers>L</div></div></button><button id = button_7 class = ""square num-button"" onclick = ""recordClick(this)""><div class = content><div class = numbers>N</div></div></button><button id = button_8 class = ""square num-button"" onclick = ""recordClick(this)""><div class = content><div class = numbers>P</div></div></button><button id = button_9 class = ""square num-button"" onclick = ""recordClick(this)""><div class = content><div class = numbers>Q</div></div></button><button id = button_10 class = ""square num-button"" onclick = ""recordClick(this)""><div class = content><div class = numbers>R</div></div></button><button id = button_11 class = ""square num-button"" onclick = ""recordClick(this)""><div class = content><div class = numbers>S</div></div></button><button id = button_12 class = ""square num-button"" onclick = ""recordClick(this)""><div class = content><div class = numbers>Y</div></div></button><button class = clear_button id = ""ClearButton"" onclick = ""clearResponse()"">BACKSPACE</button><button class = blank_button id = ""BlankButton"" onclick = ""blankResponse()"">SKIP</button><p style=""font-size: 2.4rem""><u><b>Current Answer:</b></u></p><br><br><div id=echoed_txt style=""font-size: 5rem; color:blue;""><b></b></div></div>",enter,ospan,retrieval,m9uKhHM6GAV8KmghucjDf6wNkBN2,html-keyboard-response,98,579088,0.0-46.0-2.0-2.0-2.0-0.0,NA,NA,NA,3.0,"[""S"",""G"",""P""]","[""S"",""G"",""P""]",1.0,3.0,"['<font color=""green"">S</font>', '<font color=""green"">G</font>', '<font color=""green"">P</font>']",,,,,,5da41f84a39c100018614e31,12:09:39,03/04/2024
1841.2999999970198,"['<p style=""font-size:44px"">Letters:<br><br><br><font color=""green"">S</font> <font color=""green"">G</font> <font color=""green"">P</font></p><br><br><p style=""font-size:30px"">Symmetry:<br><br><font color=""green"">100%</font></p><br><br>']",0,ospan,practice_feedback,m9uKhHM6GAV8KmghucjDf6wNkBN2,html-button-response,99,581431,0.0-46.0-2.0-2.0-2.0-1.0,,,,,,,,,,,,,,,5da41f84a39c100018614e31,12:09:39,03/04/2024
20431.19999998808,"<div class = 'left_align' style='font-size: 3rem; line-height: 1.3;'><b>Great work! That is the end of practice.</b><br><br>The real trials will look just like the practice trials you just completed.<br><br><u>Here, you will not see feedback</u>. First, you will see an grid picture to judge,<br>then a letter to remember. When the recall screen appears, report the letters in the<br>order presented. If you forget a letter, remember to use the <b>blank</b> button to move to the<br>next letter. Some of the sets will have more symmetry grids and letters than others.<br><br>It is important that you do your best on both the symmetry judgments and the letter recall<br>parts of the experiment. For for the symmetry judgments, try to work as <b>quickly</b> and <br>as <b>accurately</b> as possible. Remember to keep your symmetry accuracy at 85% or above.<br><br><b>For the letters, do NOT use any external aid (e.g., writing on paper, electronic device).</b><br><br>It is <u>very important</u> to our experiment to have a <b>true</b> view of your real performance.<br><br>Do not worry if you miss some when it gets hard! This task is meant to be very challenging!<br><br>Click the button to begin.</div><br><br><br><br>",0,ospan,starting_real_here,m9uKhHM6GAV8KmghucjDf6wNkBN2,html-button-response,100,601865,0.0-46.0-2.0-3.0,,,,,,,,,,,,,,,5da41f84a39c100018614e31,12:09:39,03/04/2024
,"<p style=""font-size:75px;"">...</p>",,ospan,iti,m9uKhHM6GAV8KmghucjDf6wNkBN2,html-keyboard-response,101,603120,0.0-46.0-3.0-0.0-0.0,,,,,,,,,,,,,,,5da41f84a39c100018614e31,12:09:39,03/04/2024
1383.0,,,ospan,symmetry,m9uKhHM6GAV8KmghucjDf6wNkBN2,symmetry-judgement-task,102,605701,0.0-46.0-3.0-0.0-1.0-0.0,,,,,,,,,,1.0,1.0,,,,5da41f84a39c100018614e31,12:09:39,03/04/2024
,"<div style=""font-size: 10rem; color: #0000FF"">S</div>",,ospan,letter,m9uKhHM6GAV8KmghucjDf6wNkBN2,html-keyboard-response,103,606704,0.0-46.0-3.0-0.0-1.0-1.0,,,,,,,,,,,,,,,5da41f84a39c100018614e31,12:09:39,03/04/2024
1091.0,,,ospan,symmetry,m9uKhHM6GAV8KmghucjDf6wNkBN2,symmetry-judgement-task,104,609733,0.0-46.0-3.0-0.0-1.0-2.0,,,,,,,,,,1.0,1.0,,,,5da41f84a39c100018614e31,12:09:39,03/04/2024
,"<div style=""font-size: 10rem; color: #0000FF"">R</div>",,ospan,letter,m9uKhHM6GAV8KmghucjDf6wNkBN2,html-keyboard-response,105,610735,0.0-46.0-3.0-0.0-1.0-3.0,,,,,,,,,,,,,,,5da41f84a39c100018614e31,12:09:39,03/04/2024
1120.0,,,ospan,symmetry,m9uKhHM6GAV8KmghucjDf6wNkBN2,symmetry-judgement-task,106,613801,0.0-46.0-3.0-0.0-1.0-4.0,,,,,,,,,,1.0,1.0,,,,5da41f84a39c100018614e31,12:09:39,03/04/2024
,"<div style=""font-size: 10rem; color: #0000FF"">K</div>",,ospan,letter,m9uKhHM6GAV8KmghucjDf6wNkBN2,html-keyboard-response,107,614803,0.0-46.0-3.0-0.0-1.0-5.0,,,,,,,,,,,,,,,5da41f84a39c100018614e31,12:09:39,03/04/2024
2539.0999999940395,"<div class = numbox><p style=""font-size: 2.4rem"">Please recall the letters you saw to the best of your ability. If you do not remember a particular letter, use the SKIP button.<br><b>(When you are ready to lock in your answer, press ENTER)</b></p><button id = button_1 class = ""square num-button"" onclick = ""recordClick(this)""><div class = content><div class = numbers>C</div></div></button><button id = button_2 class = ""square num-button"" onclick = ""recordClick(this)""><div class = content><div class = numbers>G</div></div></button><button id = button_3 class = ""square num-button"" onclick = ""recordClick(this)""><div class = content><div class = numbers>H</div></div></button><button id = button_4 class = ""square num-button"" onclick = ""recordClick(this)""><div class = content><div class = numbers>J</div></div></button><button id = button_5 class = ""square num-button"" onclick = ""recordClick(this)""><div class = content><div class = numbers>K</div></div></button><button id = button_6 class = ""square num-button"" onclick = ""recordClick(this)""><div class = content><div class = numbers>L</div></div></button><button id = button_7 class = ""square num-button"" onclick = ""recordClick(this)""><div class = content><div class = numbers>N</div></div></button><button id = button_8 class = ""square num-button"" onclick = ""recordClick(this)""><div class = content><div class = numbers>P</div></div></button><button id = button_9 class = ""square num-button"" onclick = ""recordClick(this)""><div class = content><div class = numbers>Q</div></div></button><button id = button_10 class = ""square num-button"" onclick = ""recordClick(this)""><div class = content><div class = numbers>R</div></div></button><button id = button_11 class = ""square num-button"" onclick = ""recordClick(this)""><div class = content><div class = numbers>S</div></div></button><button id = button_12 class = ""square num-button"" onclick = ""recordClick(this)""><div class = content><div class = numbers>Y</div></div></button><button class = clear_button id = ""ClearButton"" onclick = ""clearResponse()"">BACKSPACE</button><button class = blank_button id = ""BlankButton"" onclick = ""blankResponse()"">SKIP</button><p style=""font-size: 2.4rem""><u><b>Current Answer:</b></u></p><br><br><div id=echoed_txt style=""font-size: 5rem; color:blue;""><b></b></div></div>",enter,ospan,retrieval,m9uKhHM6GAV8KmghucjDf6wNkBN2,html-keyboard-response,108,618096,0.0-46.0-3.0-0.0-2.0,3,3,3,3.0,"[""S"",""R"",""K""]","[""S"",""R"",""K""]",1.0,3.0,,,,,,,5da41f84a39c100018614e31,12:09:39,03/04/2024
933.2000000029802,[''],0,ospan,feedback,m9uKhHM6GAV8KmghucjDf6wNkBN2,html-button-response,109,619532,0.0-46.0-3.0-0.0-3.0,,,,,,,,,,,,100.0,0.0,,5da41f84a39c100018614e31,12:09:39,03/04/2024
,"<p style=""font-size:75px;"">...</p>",,ospan,iti,m9uKhHM6GAV8KmghucjDf6wNkBN2,html-keyboard-response,110,620534,0.0-46.0-4.0-0.0-0.0,,,,,,,,,,,,,,,5da41f84a39c100018614e31,12:09:39,03/04/2024
1334.0,,,ospan,symmetry,m9uKhHM6GAV8KmghucjDf6wNkBN2,symmetry-judgement-task,111,623069,0.0-46.0-4.0-0.0-1.0-0.0,,,,,,,,,,1.0,1.0,,,,5da41f84a39c100018614e31,12:09:39,03/04/2024
,"<div style=""font-size: 10rem; color: #0000FF"">K</div>",,ospan,letter,m9uKhHM6GAV8KmghucjDf6wNkBN2,html-keyboard-response,112,624071,0.0-46.0-4.0-0.0-1.0-1.0,,,,,,,,,,,,,,,5da41f84a39c100018614e31,12:09:39,03/04/2024
1147.0,,,ospan,symmetry,m9uKhHM6GAV8KmghucjDf6wNkBN2,symmetry-judgement-task,113,627167,0.0-46.0-4.0-0.0-1.0-2.0,,,,,,,,,,1.0,1.0,,,,5da41f84a39c100018614e31,12:09:39,03/04/2024
,"<div style=""font-size: 10rem; color: #0000FF"">H</div>",,ospan,letter,m9uKhHM6GAV8KmghucjDf6wNkBN2,html-keyboard-response,114,628170,0.0-46.0-4.0-0.0-1.0-3.0,,,,,,,,,,,,,,,5da41f84a39c100018614e31,12:09:39,03/04/2024
1222.0,,,ospan,symmetry,m9uKhHM6GAV8KmghucjDf6wNkBN2,symmetry-judgement-task,115,631335,0.0-46.0-4.0-0.0-1.0-4.0,,,,,,,,,,1.0,1.0,,,,5da41f84a39c100018614e31,12:09:39,03/04/2024
,"<div style=""font-size: 10rem; color: #0000FF"">Q</div>",,ospan,letter,m9uKhHM6GAV8KmghucjDf6wNkBN2,html-keyboard-response,116,632338,0.0-46.0-4.0-0.0-1.0-5.0,,,,,,,,,,,,,,,5da41f84a39c100018614e31,12:09:39,03/04/2024
1584.0,,,ospan,symmetry,m9uKhHM6GAV8KmghucjDf6wNkBN2,symmetry-judgement-task,117,635868,0.0-46.0-4.0-0.0-1.0-6.0,,,,,,,,,,1.0,1.0,,,,5da41f84a39c100018614e31,12:09:39,03/04/2024
,"<div style=""font-size: 10rem; color: #0000FF"">J</div>",,ospan,letter,m9uKhHM6GAV8KmghucjDf6wNkBN2,html-keyboard-response,118,636871,0.0-46.0-4.0-0.0-1.0-7.0,,,,,,,,,,,,,,,5da41f84a39c100018614e31,12:09:39,03/04/2024
4770.20000000298,"<div class = numbox><p style=""font-size: 2.4rem"">Please recall the letters you saw to the best of your ability. If you do not remember a particular letter, use the SKIP button.<br><b>(When you are ready to lock in your answer, press ENTER)</b></p><button id = button_1 class = ""square num-button"" onclick = ""recordClick(this)""><div class = content><div class = numbers>C</div></div></button><button id = button_2 class = ""square num-button"" onclick = ""recordClick(this)""><div class = content><div class = numbers>G</div></div></button><button id = button_3 class = ""square num-button"" onclick = ""recordClick(this)""><div class = content><div class = numbers>H</div></div></button><button id = button_4 class = ""square num-button"" onclick = ""recordClick(this)""><div class = content><div class = numbers>J</div></div></button><button id = button_5 class = ""square num-button"" onclick = ""recordClick(this)""><div class = content><div class = numbers>K</div></div></button><button id = button_6 class = ""square num-button"" onclick = ""recordClick(this)""><div class = content><div class = numbers>L</div></div></button><button id = button_7 class = ""square num-button"" onclick = ""recordClick(this)""><div class = content><div class = numbers>N</div></div></button><button id = button_8 class = ""square num-button"" onclick = ""recordClick(this)""><div class = content><div class = numbers>P</div></div></button><button id = button_9 class = ""square num-button"" onclick = ""recordClick(this)""><div class = content><div class = numbers>Q</div></div></button><button id = button_10 class = ""square num-button"" onclick = ""recordClick(this)""><div class = content><div class = numbers>R</div></div></button><button id = button_11 class = ""square num-button"" onclick = ""recordClick(this)""><div class = content><div class = numbers>S</div></div></button><button id = button_12 class = ""square num-button"" onclick = ""recordClick(this)""><div class = content><div class = numbers>Y</div></div></button><button class = clear_button id = ""ClearButton"" onclick = ""clearResponse()"">BACKSPACE</button><button class = blank_button id = ""BlankButton"" onclick = ""blankResponse()"">SKIP</button><p style=""font-size: 2.4rem""><u><b>Current Answer:</b></u></p><br><br><div id=echoed_txt style=""font-size: 5rem; color:blue;""><b></b></div></div>",enter,ospan,retrieval,m9uKhHM6GAV8KmghucjDf6wNkBN2,html-keyboard-response,119,642393,0.0-46.0-4.0-0.0-2.0,7,7,7,4.0,"[""K"",""H"",""Q"",""J""]","[""K"",""H"",""Q"",""J""]",1.0,4.0,,,,,,,5da41f84a39c100018614e31,12:09:39,03/04/2024
1171.1000000089407,[''],0,ospan,feedback,m9uKhHM6GAV8KmghucjDf6wNkBN2,html-button-response,120,644067,0.0-46.0-4.0-0.0-3.0,,,,,,,,,,,,100.0,0.0,,5da41f84a39c100018614e31,12:09:39,03/04/2024
,"<p style=""font-size:75px;"">...</p>",,ospan,iti,m9uKhHM6GAV8KmghucjDf6wNkBN2,html-keyboard-response,121,645069,0.0-46.0-4.0-1.0-0.0,,,,,,,,,,,,,,,5da41f84a39c100018614e31,12:09:39,03/04/2024
1595.0,,,ospan,symmetry,m9uKhHM6GAV8KmghucjDf6wNkBN2,symmetry-judgement-task,122,647702,0.0-46.0-4.0-1.0-1.0-0.0,,,,,,,,,,1.0,1.0,,,,5da41f84a39c100018614e31,12:09:39,03/04/2024
,"<div style=""font-size: 10rem; color: #0000FF"">G</div>",,ospan,letter,m9uKhHM6GAV8KmghucjDf6wNkBN2,html-keyboard-response,123,648704,0.0-46.0-4.0-1.0-1.0-1.0,,,,,,,,,,,,,,,5da41f84a39c100018614e31,12:09:39,03/04/2024
1153.0,,,ospan,symmetry,m9uKhHM6GAV8KmghucjDf6wNkBN2,symmetry-judgement-task,124,651803,0.0-46.0-4.0-1.0-1.0-2.0,,,,,,,,,,1.0,1.0,,,,5da41f84a39c100018614e31,12:09:39,03/04/2024
,"<div style=""font-size: 10rem; color: #0000FF"">C</div>",,ospan,letter,m9uKhHM6GAV8KmghucjDf6wNkBN2,html-keyboard-response,125,652804,0.0-46.0-4.0-1.0-1.0-3.0,,,,,,,,,,,,,,,5da41f84a39c100018614e31,12:09:39,03/04/2024
1122.0,,,ospan,symmetry,m9uKhHM6GAV8KmghucjDf6wNkBN2,symmetry-judgement-task,126,655869,0.0-46.0-4.0-1.0-1.0-4.0,,,,,,,,,,1.0,1.0,,,,5da41f84a39c100018614e31,12:09:39,03/04/2024
,"<div style=""font-size: 10rem; color: #0000FF"">H</div>",,ospan,letter,m9uKhHM6GAV8KmghucjDf6wNkBN2,html-keyboard-response,127,656872,0.0-46.0-4.0-1.0-1.0-5.0,,,,,,,,,,,,,,,5da41f84a39c100018614e31,12:09:39,03/04/2024
1270.0,,,ospan,symmetry,m9uKhHM6GAV8KmghucjDf6wNkBN2,symmetry-judgement-task,128,660102,0.0-46.0-4.0-1.0-1.0-6.0,,,,,,,,,,1.0,1.0,,,,5da41f84a39c100018614e31,12:09:39,03/04/2024
,"<div style=""font-size: 10rem; color: #0000FF"">N</div>",,ospan,letter,m9uKhHM6GAV8KmghucjDf6wNkBN2,html-keyboard-response,129,661105,0.0-46.0-4.0-1.0-1.0-7.0,,,,,,,,,,,,,,,5da41f84a39c100018614e31,12:09:39,03/04/2024
1851.0,,,ospan,symmetry,m9uKhHM6GAV8KmghucjDf6wNkBN2,symmetry-judgement-task,130,664902,0.0-46.0-4.0-1.0-1.0-8.0,,,,,,,,,,1.0,1.0,,,,5da41f84a39c100018614e31,12:09:39,03/04/2024
,"<div style=""font-size: 10rem; color: #0000FF"">S</div>",,ospan,letter,m9uKhHM6GAV8KmghucjDf6wNkBN2,html-keyboard-response,131,665905,0.0-46.0-4.0-1.0-1.0-9.0,,,,,,,,,,,,,,,5da41f84a39c100018614e31,12:09:39,03/04/2024
6804.9000000059605,"<div class = numbox><p style=""font-size: 2.4rem"">Please recall the letters you saw to the best of your ability. If you do not remember a particular letter, use the SKIP button.<br><b>(When you are ready to lock in your answer, press ENTER)</b></p><button id = button_1 class = ""square num-button"" onclick = ""recordClick(this)""><div class = content><div class = numbers>C</div></div></button><button id = button_2 class = ""square num-button"" onclick = ""recordClick(this)""><div class = content><div class = numbers>G</div></div></button><button id = button_3 class = ""square num-button"" onclick = ""recordClick(this)""><div class = content><div class = numbers>H</div></div></button><button id = button_4 class = ""square num-button"" onclick = ""recordClick(this)""><div class = content><div class = numbers>J</div></div></button><button id = button_5 class = ""square num-button"" onclick = ""recordClick(this)""><div class = content><div class = numbers>K</div></div></button><button id = button_6 class = ""square num-button"" onclick = ""recordClick(this)""><div class = content><div class = numbers>L</div></div></button><button id = button_7 class = ""square num-button"" onclick = ""recordClick(this)""><div class = content><div class = numbers>N</div></div></button><button id = button_8 class = ""square num-button"" onclick = ""recordClick(this)""><div class = content><div class = numbers>P</div></div></button><button id = button_9 class = ""square num-button"" onclick = ""recordClick(this)""><div class = content><div class = numbers>Q</div></div></button><button id = button_10 class = ""square num-button"" onclick = ""recordClick(this)""><div class = content><div class = numbers>R</div></div></button><button id = button_11 class = ""square num-button"" onclick = ""recordClick(this)""><div class = content><div class = numbers>S</div></div></button><button id = button_12 class = ""square num-button"" onclick = ""recordClick(this)""><div class = content><div class = numbers>Y</div></div></button><button class = clear_button id = ""ClearButton"" onclick = ""clearResponse()"">BACKSPACE</button><button class = blank_button id = ""BlankButton"" onclick = ""blankResponse()"">SKIP</button><p style=""font-size: 2.4rem""><u><b>Current Answer:</b></u></p><br><br><div id=echoed_txt style=""font-size: 5rem; color:blue;""><b></b></div></div>",enter,ospan,retrieval,m9uKhHM6GAV8KmghucjDf6wNkBN2,html-keyboard-response,132,673463,0.0-46.0-4.0-1.0-2.0,12,12,12,5.0,"[""G"",""C"",""H"",""N"",""S""]","[""G"",""C"",""H"",""N"",""S""]",1.0,5.0,,,,,,,5da41f84a39c100018614e31,12:09:39,03/04/2024
1335.7999999970198,[''],0,ospan,feedback,m9uKhHM6GAV8KmghucjDf6wNkBN2,html-button-response,133,675301,0.0-46.0-4.0-1.0-3.0,,,,,,,,,,,,100.0,0.0,,5da41f84a39c100018614e31,12:09:39,03/04/2024
,"<p style=""font-size:75px;"">...</p>",,ospan,iti,m9uKhHM6GAV8KmghucjDf6wNkBN2,html-keyboard-response,134,676303,0.0-46.0-4.0-2.0-0.0,,,,,,,,,,,,,,,5da41f84a39c100018614e31,12:09:39,03/04/2024
1361.0,,,ospan,symmetry,m9uKhHM6GAV8KmghucjDf6wNkBN2,symmetry-judgement-task,135,678702,0.0-46.0-4.0-2.0-1.0-0.0,,,,,,,,,,1.0,1.0,,,,5da41f84a39c100018614e31,12:09:39,03/04/2024
,"<div style=""font-size: 10rem; color: #0000FF"">C</div>",,ospan,letter,m9uKhHM6GAV8KmghucjDf6wNkBN2,html-keyboard-response,136,679704,0.0-46.0-4.0-2.0-1.0-1.0,,,,,,,,,,,,,,,5da41f84a39c100018614e31,12:09:39,03/04/2024
1442.0,,,ospan,symmetry,m9uKhHM6GAV8KmghucjDf6wNkBN2,symmetry-judgement-task,137,682935,0.0-46.0-4.0-2.0-1.0-2.0,,,,,,,,,,1.0,1.0,,,,5da41f84a39c100018614e31,12:09:39,03/04/2024
,"<div style=""font-size: 10rem; color: #0000FF"">P</div>",,ospan,letter,m9uKhHM6GAV8KmghucjDf6wNkBN2,html-keyboard-response,138,683938,0.0-46.0-4.0-2.0-1.0-3.0,,,,,,,,,,,,,,,5da41f84a39c100018614e31,12:09:39,03/04/2024
1183.0,,,ospan,symmetry,m9uKhHM6GAV8KmghucjDf6wNkBN2,symmetry-judgement-task,139,687069,0.0-46.0-4.0-2.0-1.0-4.0,,,,,,,,,,1.0,1.0,,,,5da41f84a39c100018614e31,12:09:39,03/04/2024
,"<div style=""font-size: 10rem; color: #0000FF"">L</div>",,ospan,letter,m9uKhHM6GAV8KmghucjDf6wNkBN2,html-keyboard-response,140,688070,0.0-46.0-4.0-2.0-1.0-5.0,,,,,,,,,,,,,,,5da41f84a39c100018614e31,12:09:39,03/04/2024
3578.2000000029802,"<div class = numbox><p style=""font-size: 2.4rem"">Please recall the letters you saw to the best of your ability. If you do not remember a particular letter, use the SKIP button.<br><b>(When you are ready to lock in your answer, press ENTER)</b></p><button id = button_1 class = ""square num-button"" onclick = ""recordClick(this)""><div class = content><div class = numbers>C</div></div></button><button id = button_2 class = ""square num-button"" onclick = ""recordClick(this)""><div class = content><div class = numbers>G</div></div></button><button id = button_3 class = ""square num-button"" onclick = ""recordClick(this)""><div class = content><div class = numbers>H</div></div></button><button id = button_4 class = ""square num-button"" onclick = ""recordClick(this)""><div class = content><div class = numbers>J</div></div></button><button id = button_5 class = ""square num-button"" onclick = ""recordClick(this)""><div class = content><div class = numbers>K</div></div></button><button id = button_6 class = ""square num-button"" onclick = ""recordClick(this)""><div class = content><div class = numbers>L</div></div></button><button id = button_7 class = ""square num-button"" onclick = ""recordClick(this)""><div class = content><div class = numbers>N</div></div></button><button id = button_8 class = ""square num-button"" onclick = ""recordClick(this)""><div class = content><div class = numbers>P</div></div></button><button id = button_9 class = ""square num-button"" onclick = ""recordClick(this)""><div class = content><div class = numbers>Q</div></div></button><button id = button_10 class = ""square num-button"" onclick = ""recordClick(this)""><div class = content><div class = numbers>R</div></div></button><button id = button_11 class = ""square num-button"" onclick = ""recordClick(this)""><div class = content><div class = numbers>S</div></div></button><button id = button_12 class = ""square num-button"" onclick = ""recordClick(this)""><div class = content><div class = numbers>Y</div></div></button><button class = clear_button id = ""ClearButton"" onclick = ""clearResponse()"">BACKSPACE</button><button class = blank_button id = ""BlankButton"" onclick = ""blankResponse()"">SKIP</button><p style=""font-size: 2.4rem""><u><b>Current Answer:</b></u></p><br><br><div id=echoed_txt style=""font-size: 5rem; color:blue;""><b></b></div></div>",enter,ospan,retrieval,m9uKhHM6GAV8KmghucjDf6wNkBN2,html-keyboard-response,141,692401,0.0-46.0-4.0-2.0-2.0,15,15,15,3.0,"[""C"",""P"",""L""]","[""C"",""P"",""L""]",1.0,3.0,,,,,,,5da41f84a39c100018614e31,12:09:39,03/04/2024
631.2999999970198,[''],0,ospan,feedback,m9uKhHM6GAV8KmghucjDf6wNkBN2,html-button-response,142,693534,0.0-46.0-4.0-2.0-3.0,,,,,,,,,,,,100.0,0.0,,5da41f84a39c100018614e31,12:09:39,03/04/2024
,"<p style=""font-size:75px;"">...</p>",,ospan,iti,m9uKhHM6GAV8KmghucjDf6wNkBN2,html-keyboard-response,143,694536,0.0-46.0-5.0-0.0-0.0,,,,,,,,,,,,,,,5da41f84a39c100018614e31,12:09:39,03/04/2024
1760.0,,,ospan,symmetry,m9uKhHM6GAV8KmghucjDf6wNkBN2,symmetry-judgement-task,144,697504,0.0-46.0-5.0-0.0-1.0-0.0,,,,,,,,,,1.0,1.0,,,,5da41f84a39c100018614e31,12:09:39,03/04/2024
,"<div style=""font-size: 10rem; color: #0000FF"">Y</div>",,ospan,letter,m9uKhHM6GAV8KmghucjDf6wNkBN2,html-keyboard-response,145,698507,0.0-46.0-5.0-0.0-1.0-1.0,,,,,,,,,,,,,,,5da41f84a39c100018614e31,12:09:39,03/04/2024
1250.0,,,ospan,symmetry,m9uKhHM6GAV8KmghucjDf6wNkBN2,symmetry-judgement-task,146,701703,0.0-46.0-5.0-0.0-1.0-2.0,,,,,,,,,,1.0,1.0,,,,5da41f84a39c100018614e31,12:09:39,03/04/2024
,"<div style=""font-size: 10rem; color: #0000FF"">G</div>",,ospan,letter,m9uKhHM6GAV8KmghucjDf6wNkBN2,html-keyboard-response,147,702705,0.0-46.0-5.0-0.0-1.0-3.0,,,,,,,,,,,,,,,5da41f84a39c100018614e31,12:09:39,03/04/2024
1062.0,,,ospan,symmetry,m9uKhHM6GAV8KmghucjDf6wNkBN2,symmetry-judgement-task,148,705702,0.0-46.0-5.0-0.0-1.0-4.0,,,,,,,,,,1.0,1.0,,,,5da41f84a39c100018614e31,12:09:39,03/04/2024
,"<div style=""font-size: 10rem; color: #0000FF"">K</div>",,ospan,letter,m9uKhHM6GAV8KmghucjDf6wNkBN2,html-keyboard-response,149,706705,0.0-46.0-5.0-0.0-1.0-5.0,,,,,,,,,,,,,,,5da41f84a39c100018614e31,12:09:39,03/04/2024
921.0,,,ospan,symmetry,m9uKhHM6GAV8KmghucjDf6wNkBN2,symmetry-judgement-task,150,709571,0.0-46.0-5.0-0.0-1.0-6.0,,,,,,,,,,1.0,1.0,,,,5da41f84a39c100018614e31,12:09:39,03/04/2024
,"<div style=""font-size: 10rem; color: #0000FF"">S</div>",,ospan,letter,m9uKhHM6GAV8KmghucjDf6wNkBN2,html-keyboard-response,151,710573,0.0-46.0-5.0-0.0-1.0-7.0,,,,,,,,,,,,,,,5da41f84a39c100018614e31,12:09:39,03/04/2024
957.0,,,ospan,symmetry,m9uKhHM6GAV8KmghucjDf6wNkBN2,symmetry-judgement-task,152,713470,0.0-46.0-5.0-0.0-1.0-8.0,,,,,,,,,,1.0,1.0,,,,5da41f84a39c100018614e31,12:09:39,03/04/2024
,"<div style=""font-size: 10rem; color: #0000FF"">P</div>",,ospan,letter,m9uKhHM6GAV8KmghucjDf6wNkBN2,html-keyboard-response,153,714473,0.0-46.0-5.0-0.0-1.0-9.0,,,,,,,,,,,,,,,5da41f84a39c100018614e31,12:09:39,03/04/2024
1164.0,,,ospan,symmetry,m9uKhHM6GAV8KmghucjDf6wNkBN2,symmetry-judgement-task,154,717604,0.0-46.0-5.0-0.0-1.0-10.0,,,,,,,,,,1.0,1.0,,,,5da41f84a39c100018614e31,12:09:39,03/04/2024
,"<div style=""font-size: 10rem; color: #0000FF"">C</div>",,ospan,letter,m9uKhHM6GAV8KmghucjDf6wNkBN2,html-keyboard-response,155,718606,0.0-46.0-5.0-0.0-1.0-11.0,,,,,,,,,,,,,,,5da41f84a39c100018614e31,12:09:39,03/04/2024
9302.09999999404,"<div class = numbox><p style=""font-size: 2.4rem"">Please recall the letters you saw to the best of your ability. If you do not remember a particular letter, use the SKIP button.<br><b>(When you are ready to lock in your answer, press ENTER)</b></p><button id = button_1 class = ""square num-button"" onclick = ""recordClick(this)""><div class = content><div class = numbers>C</div></div></button><button id = button_2 class = ""square num-button"" onclick = ""recordClick(this)""><div class = content><div class = numbers>G</div></div></button><button id = button_3 class = ""square num-button"" onclick = ""recordClick(this)""><div class = content><div class = numbers>H</div></div></button><button id = button_4 class = ""square num-button"" onclick = ""recordClick(this)""><div class = content><div class = numbers>J</div></div></button><button id = button_5 class = ""square num-button"" onclick = ""recordClick(this)""><div class = content><div class = numbers>K</div></div></button><button id = button_6 class = ""square num-button"" onclick = ""recordClick(this)""><div class = content><div class = numbers>L</div></div></button><button id = button_7 class = ""square num-button"" onclick = ""recordClick(this)""><div class = content><div class = numbers>N</div></div></button><button id = button_8 class = ""square num-button"" onclick = ""recordClick(this)""><div class = content><div class = numbers>P</div></div></button><button id = button_9 class = ""square num-button"" onclick = ""recordClick(this)""><div class = content><div class = numbers>Q</div></div></button><button id = button_10 class = ""square num-button"" onclick = ""recordClick(this)""><div class = content><div class = numbers>R</div></div></button><button id = button_11 class = ""square num-button"" onclick = ""recordClick(this)""><div class = content><div class = numbers>S</div></div></button><button id = button_12 class = ""square num-button"" onclick = ""recordClick(this)""><div class = content><div class = numbers>Y</div></div></button><button class = clear_button id = ""ClearButton"" onclick = ""clearResponse()"">BACKSPACE</button><button class = blank_button id = ""BlankButton"" onclick = ""blankResponse()"">SKIP</button><p style=""font-size: 2.4rem""><u><b>Current Answer:</b></u></p><br><br><div id=echoed_txt style=""font-size: 5rem; color:blue;""><b></b></div></div>",enter,ospan,retrieval,m9uKhHM6GAV8KmghucjDf6wNkBN2,html-keyboard-response,156,728661,0.0-46.0-5.0-0.0-2.0,21,21,21,6.0,"[""Y"",""G"",""K"",""S"",""P"",""C""]","[""Y"",""G"",""K"",""S"",""P"",""C""]",1.0,6.0,,,,,,,5da41f84a39c100018614e31,12:09:39,03/04/2024
838.6999999880791,[''],0,ospan,feedback,m9uKhHM6GAV8KmghucjDf6wNkBN2,html-button-response,157,730002,0.0-46.0-5.0-0.0-3.0,,,,,,,,,,,,100.0,0.0,,5da41f84a39c100018614e31,12:09:39,03/04/2024
,"<p style=""font-size:75px;"">...</p>",,ospan,iti,m9uKhHM6GAV8KmghucjDf6wNkBN2,html-keyboard-response,158,731005,0.0-46.0-5.0-1.0-0.0,,,,,,,,,,,,,,,5da41f84a39c100018614e31,12:09:39,03/04/2024
1360.0,,,ospan,symmetry,m9uKhHM6GAV8KmghucjDf6wNkBN2,symmetry-judgement-task,159,733404,0.0-46.0-5.0-1.0-1.0-0.0,,,,,,,,,,1.0,1.0,,,,5da41f84a39c100018614e31,12:09:39,03/04/2024
,"<div style=""font-size: 10rem; color: #0000FF"">K</div>",,ospan,letter,m9uKhHM6GAV8KmghucjDf6wNkBN2,html-keyboard-response,160,734407,0.0-46.0-5.0-1.0-1.0-1.0,,,,,,,,,,,,,,,5da41f84a39c100018614e31,12:09:39,03/04/2024
1316.0,,,ospan,symmetry,m9uKhHM6GAV8KmghucjDf6wNkBN2,symmetry-judgement-task,161,737671,0.0-46.0-5.0-1.0-1.0-2.0,,,,,,,,,,1.0,1.0,,,,5da41f84a39c100018614e31,12:09:39,03/04/2024
,"<div style=""font-size: 10rem; color: #0000FF"">R</div>",,ospan,letter,m9uKhHM6GAV8KmghucjDf6wNkBN2,html-keyboard-response,162,738674,0.0-46.0-5.0-1.0-1.0-3.0,,,,,,,,,,,,,,,5da41f84a39c100018614e31,12:09:39,03/04/2024
1246.0,,,ospan,symmetry,m9uKhHM6GAV8KmghucjDf6wNkBN2,symmetry-judgement-task,163,741874,0.0-46.0-5.0-1.0-1.0-4.0,,,,,,,,,,1.0,1.0,,,,5da41f84a39c100018614e31,12:09:39,03/04/2024
,"<div style=""font-size: 10rem; color: #0000FF"">H</div>",,ospan,letter,m9uKhHM6GAV8KmghucjDf6wNkBN2,html-keyboard-response,164,742876,0.0-46.0-5.0-1.0-1.0-5.0,,,,,,,,,,,,,,,5da41f84a39c100018614e31,12:09:39,03/04/2024
1029.0,,,ospan,symmetry,m9uKhHM6GAV8KmghucjDf6wNkBN2,symmetry-judgement-task,165,745837,0.0-46.0-5.0-1.0-1.0-6.0,,,,,,,,,,1.0,1.0,,,,5da41f84a39c100018614e31,12:09:39,03/04/2024
,"<div style=""font-size: 10rem; color: #0000FF"">J</div>",,ospan,letter,m9uKhHM6GAV8KmghucjDf6wNkBN2,html-keyboard-response,166,746839,0.0-46.0-5.0-1.0-1.0-7.0,,,,,,,,,,,,,,,5da41f84a39c100018614e31,12:09:39,03/04/2024
978.0,,,ospan,symmetry,m9uKhHM6GAV8KmghucjDf6wNkBN2,symmetry-judgement-task,167,749772,0.0-46.0-5.0-1.0-1.0-8.0,,,,,,,,,,1.0,1.0,,,,5da41f84a39c100018614e31,12:09:39,03/04/2024
,"<div style=""font-size: 10rem; color: #0000FF"">S</div>",,ospan,letter,m9uKhHM6GAV8KmghucjDf6wNkBN2,html-keyboard-response,168,750775,0.0-46.0-5.0-1.0-1.0-9.0,,,,,,,,,,,,,,,5da41f84a39c100018614e31,12:09:39,03/04/2024
1453.0,,,ospan,symmetry,m9uKhHM6GAV8KmghucjDf6wNkBN2,symmetry-judgement-task,169,754171,0.0-46.0-5.0-1.0-1.0-10.0,,,,,,,,,,1.0,1.0,,,,5da41f84a39c100018614e31,12:09:39,03/04/2024
,"<div style=""font-size: 10rem; color: #0000FF"">P</div>",,ospan,letter,m9uKhHM6GAV8KmghucjDf6wNkBN2,html-keyboard-response,170,755174,0.0-46.0-5.0-1.0-1.0-11.0,,,,,,,,,,,,,,,5da41f84a39c100018614e31,12:09:39,03/04/2024
913.0,,,ospan,symmetry,m9uKhHM6GAV8KmghucjDf6wNkBN2,symmetry-judgement-task,171,758040,0.0-46.0-5.0-1.0-1.0-12.0,,,,,,,,,,1.0,1.0,,,,5da41f84a39c100018614e31,12:09:39,03/04/2024
,"<div style=""font-size: 10rem; color: #0000FF"">Y</div>",,ospan,letter,m9uKhHM6GAV8KmghucjDf6wNkBN2,html-keyboard-response,172,759043,0.0-46.0-5.0-1.0-1.0-13.0,,,,,,,,,,,,,,,5da41f84a39c100018614e31,12:09:39,03/04/2024
12924.59999999404,"<div class = numbox><p style=""font-size: 2.4rem"">Please recall the letters you saw to the best of your ability. If you do not remember a particular letter, use the SKIP button.<br><b>(When you are ready to lock in your answer, press ENTER)</b></p><button id = button_1 class = ""square num-button"" onclick = ""recordClick(this)""><div class = content><div class = numbers>C</div></div></button><button id = button_2 class = ""square num-button"" onclick = ""recordClick(this)""><div class = content><div class = numbers>G</div></div></button><button id = button_3 class = ""square num-button"" onclick = ""recordClick(this)""><div class = content><div class = numbers>H</div></div></button><button id = button_4 class = ""square num-button"" onclick = ""recordClick(this)""><div class = content><div class = numbers>J</div></div></button><button id = button_5 class = ""square num-button"" onclick = ""recordClick(this)""><div class = content><div class = numbers>K</div></div></button><button id = button_6 class = ""square num-button"" onclick = ""recordClick(this)""><div class = content><div class = numbers>L</div></div></button><button id = button_7 class = ""square num-button"" onclick = ""recordClick(this)""><div class = content><div class = numbers>N</div></div></button><button id = button_8 class = ""square num-button"" onclick = ""recordClick(this)""><div class = content><div class = numbers>P</div></div></button><button id = button_9 class = ""square num-button"" onclick = ""recordClick(this)""><div class = content><div class = numbers>Q</div></div></button><button id = button_10 class = ""square num-button"" onclick = ""recordClick(this)""><div class = content><div class = numbers>R</div></div></button><button id = button_11 class = ""square num-button"" onclick = ""recordClick(this)""><div class = content><div class = numbers>S</div></div></button><button id = button_12 class = ""square num-button"" onclick = ""recordClick(this)""><div class = content><div class = numbers>Y</div></div></button><button class = clear_button id = ""ClearButton"" onclick = ""clearResponse()"">BACKSPACE</button><button class = blank_button id = ""BlankButton"" onclick = ""blankResponse()"">SKIP</button><p style=""font-size: 2.4rem""><u><b>Current Answer:</b></u></p><br><br><div id=echoed_txt style=""font-size: 5rem; color:blue;""><b></b></div></div>",enter,ospan,retrieval,m9uKhHM6GAV8KmghucjDf6wNkBN2,html-keyboard-response,173,772720,0.0-46.0-5.0-1.0-2.0,28,23,21,7.0,"[""K"",""R"",""J"",""S"",""P"",""J"",""Q""]","[""K"",""R"",""H"",""J"",""S"",""P"",""Y""]",0.0,2.0,,,,,,,5da41f84a39c100018614e31,12:09:39,03/04/2024
1348.0999999940395,[''],0,ospan,feedback,m9uKhHM6GAV8KmghucjDf6wNkBN2,html-button-response,174,774570,0.0-46.0-5.0-1.0-3.0,,,,,,,,,,,,100.0,0.0,,5da41f84a39c100018614e31,12:09:39,03/04/2024
,"<p style=""font-size:75px;"">...</p>",,ospan,iti,m9uKhHM6GAV8KmghucjDf6wNkBN2,html-keyboard-response,175,775573,0.0-46.0-6.0-0.0-0.0,,,,,,,,,,,,,,,5da41f84a39c100018614e31,12:09:39,03/04/2024
1606.0,,,ospan,symmetry,m9uKhHM6GAV8KmghucjDf6wNkBN2,symmetry-judgement-task,176,778373,0.0-46.0-6.0-0.0-1.0-0.0,,,,,,,,,,1.0,1.0,,,,5da41f84a39c100018614e31,12:09:39,03/04/2024
,"<div style=""font-size: 10rem; color: #0000FF"">S</div>",,ospan,letter,m9uKhHM6GAV8KmghucjDf6wNkBN2,html-keyboard-response,177,779375,0.0-46.0-6.0-0.0-1.0-1.0,,,,,,,,,,,,,,,5da41f84a39c100018614e31,12:09:39,03/04/2024
1254.0,,,ospan,symmetry,m9uKhHM6GAV8KmghucjDf6wNkBN2,symmetry-judgement-task,178,782574,0.0-46.0-6.0-0.0-1.0-2.0,,,,,,,,,,1.0,1.0,,,,5da41f84a39c100018614e31,12:09:39,03/04/2024
,"<div style=""font-size: 10rem; color: #0000FF"">K</div>",,ospan,letter,m9uKhHM6GAV8KmghucjDf6wNkBN2,html-keyboard-response,179,783576,0.0-46.0-6.0-0.0-1.0-3.0,,,,,,,,,,,,,,,5da41f84a39c100018614e31,12:09:39,03/04/2024
1743.0,,,ospan,symmetry,m9uKhHM6GAV8KmghucjDf6wNkBN2,symmetry-judgement-task,180,787273,0.0-46.0-6.0-0.0-1.0-4.0,,,,,,,,,,1.0,1.0,,,,5da41f84a39c100018614e31,12:09:39,03/04/2024
,"<div style=""font-size: 10rem; color: #0000FF"">G</div>",,ospan,letter,m9uKhHM6GAV8KmghucjDf6wNkBN2,html-keyboard-response,181,788275,0.0-46.0-6.0-0.0-1.0-5.0,,,,,,,,,,,,,,,5da41f84a39c100018614e31,12:09:39,03/04/2024
1450.0,,,ospan,symmetry,m9uKhHM6GAV8KmghucjDf6wNkBN2,symmetry-judgement-task,182,791671,0.0-46.0-6.0-0.0-1.0-6.0,,,,,,,,,,1.0,1.0,,,,5da41f84a39c100018614e31,12:09:39,03/04/2024
,"<div style=""font-size: 10rem; color: #0000FF"">C</div>",,ospan,letter,m9uKhHM6GAV8KmghucjDf6wNkBN2,html-keyboard-response,183,792674,0.0-46.0-6.0-0.0-1.0-7.0,,,,,,,,,,,,,,,5da41f84a39c100018614e31,12:09:39,03/04/2024
1194.0,,,ospan,symmetry,m9uKhHM6GAV8KmghucjDf6wNkBN2,symmetry-judgement-task,184,795807,0.0-46.0-6.0-0.0-1.0-8.0,,,,,,,,,,1.0,1.0,,,,5da41f84a39c100018614e31,12:09:39,03/04/2024
,"<div style=""font-size: 10rem; color: #0000FF"">L</div>",,ospan,letter,m9uKhHM6GAV8KmghucjDf6wNkBN2,html-keyboard-response,185,796809,0.0-46.0-6.0-0.0-1.0-9.0,,,,,,,,,,,,,,,5da41f84a39c100018614e31,12:09:39,03/04/2024
4242.5,"<div class = numbox><p style=""font-size: 2.4rem"">Please recall the letters you saw to the best of your ability. If you do not remember a particular letter, use the SKIP button.<br><b>(When you are ready to lock in your answer, press ENTER)</b></p><button id = button_1 class = ""square num-button"" onclick = ""recordClick(this)""><div class = content><div class = numbers>C</div></div></button><button id = button_2 class = ""square num-button"" onclick = ""recordClick(this)""><div class = content><div class = numbers>G</div></div></button><button id = button_3 class = ""square num-button"" onclick = ""recordClick(this)""><div class = content><div class = numbers>H</div></div></button><button id = button_4 class = ""square num-button"" onclick = ""recordClick(this)""><div class = content><div class = numbers>J</div></div></button><button id = button_5 class = ""square num-button"" onclick = ""recordClick(this)""><div class = content><div class = numbers>K</div></div></button><button id = button_6 class = ""square num-button"" onclick = ""recordClick(this)""><div class = content><div class = numbers>L</div></div></button><button id = button_7 class = ""square num-button"" onclick = ""recordClick(this)""><div class = content><div class = numbers>N</div></div></button><button id = button_8 class = ""square num-button"" onclick = ""recordClick(this)""><div class = content><div class = numbers>P</div></div></button><button id = button_9 class = ""square num-button"" onclick = ""recordClick(this)""><div class = content><div class = numbers>Q</div></div></button><button id = button_10 class = ""square num-button"" onclick = ""recordClick(this)""><div class = content><div class = numbers>R</div></div></button><button id = button_11 class = ""square num-button"" onclick = ""recordClick(this)""><div class = content><div class = numbers>S</div></div></button><button id = button_12 class = ""square num-button"" onclick = ""recordClick(this)""><div class = content><div class = numbers>Y</div></div></button><button class = clear_button id = ""ClearButton"" onclick = ""clearResponse()"">BACKSPACE</button><button class = blank_button id = ""BlankButton"" onclick = ""blankResponse()"">SKIP</button><p style=""font-size: 2.4rem""><u><b>Current Answer:</b></u></p><br><br><div id=echoed_txt style=""font-size: 5rem; color:blue;""><b></b></div></div>",enter,ospan,retrieval,m9uKhHM6GAV8KmghucjDf6wNkBN2,html-keyboard-response,186,801805,0.0-46.0-6.0-0.0-2.0,33,28,26,5.0,"[""S"",""K"",""G"",""C"",""L""]","[""S"",""K"",""G"",""C"",""L""]",1.0,5.0,,,,,,,5da41f84a39c100018614e31,12:09:39,03/04/2024
663.5,[''],0,ospan,feedback,m9uKhHM6GAV8KmghucjDf6wNkBN2,html-button-response,187,802970,0.0-46.0-6.0-0.0-3.0,,,,,,,,,,,,100.0,0.0,,5da41f84a39c100018614e31,12:09:39,03/04/2024
,"<p style=""font-size:75px;"">...</p>",,ospan,iti,m9uKhHM6GAV8KmghucjDf6wNkBN2,html-keyboard-response,188,803972,0.0-46.0-6.0-1.0-0.0,,,,,,,,,,,,,,,5da41f84a39c100018614e31,12:09:39,03/04/2024
1203.0,,,ospan,symmetry,m9uKhHM6GAV8KmghucjDf6wNkBN2,symmetry-judgement-task,189,806374,0.0-46.0-6.0-1.0-1.0-0.0,,,,,,,,,,1.0,1.0,,,,5da41f84a39c100018614e31,12:09:39,03/04/2024
,"<div style=""font-size: 10rem; color: #0000FF"">H</div>",,ospan,letter,m9uKhHM6GAV8KmghucjDf6wNkBN2,html-keyboard-response,190,807377,0.0-46.0-6.0-1.0-1.0-1.0,,,,,,,,,,,,,,,5da41f84a39c100018614e31,12:09:39,03/04/2024
853.0,,,ospan,symmetry,m9uKhHM6GAV8KmghucjDf6wNkBN2,symmetry-judgement-task,191,810172,0.0-46.0-6.0-1.0-1.0-2.0,,,,,,,,,,1.0,1.0,,,,5da41f84a39c100018614e31,12:09:39,03/04/2024
,"<div style=""font-size: 10rem; color: #0000FF"">C</div>",,ospan,letter,m9uKhHM6GAV8KmghucjDf6wNkBN2,html-keyboard-response,192,811175,0.0-46.0-6.0-1.0-1.0-3.0,,,,,,,,,,,,,,,5da41f84a39c100018614e31,12:09:39,03/04/2024
2547.0,,,ospan,symmetry,m9uKhHM6GAV8KmghucjDf6wNkBN2,symmetry-judgement-task,193,815673,0.0-46.0-6.0-1.0-1.0-4.0,,,,,,,,,,1.0,1.0,,,,5da41f84a39c100018614e31,12:09:39,03/04/2024
,"<div style=""font-size: 10rem; color: #0000FF"">Y</div>",,ospan,letter,m9uKhHM6GAV8KmghucjDf6wNkBN2,html-keyboard-response,194,816676,0.0-46.0-6.0-1.0-1.0-5.0,,,,,,,,,,,,,,,5da41f84a39c100018614e31,12:09:39,03/04/2024
1332.0,,,ospan,symmetry,m9uKhHM6GAV8KmghucjDf6wNkBN2,symmetry-judgement-task,195,819941,0.0-46.0-6.0-1.0-1.0-6.0,,,,,,,,,,1.0,1.0,,,,5da41f84a39c100018614e31,12:09:39,03/04/2024
,"<div style=""font-size: 10rem; color: #0000FF"">P</div>",,ospan,letter,m9uKhHM6GAV8KmghucjDf6wNkBN2,html-keyboard-response,196,820943,0.0-46.0-6.0-1.0-1.0-7.0,,,,,,,,,,,,,,,5da41f84a39c100018614e31,12:09:39,03/04/2024
1116.0,,,ospan,symmetry,m9uKhHM6GAV8KmghucjDf6wNkBN2,symmetry-judgement-task,197,824006,0.0-46.0-6.0-1.0-1.0-8.0,,,,,,,,,,1.0,1.0,,,,5da41f84a39c100018614e31,12:09:39,03/04/2024
,"<div style=""font-size: 10rem; color: #0000FF"">Q</div>",,ospan,letter,m9uKhHM6GAV8KmghucjDf6wNkBN2,html-keyboard-response,198,825009,0.0-46.0-6.0-1.0-1.0-9.0,,,,,,,,,,,,,,,5da41f84a39c100018614e31,12:09:39,03/04/2024
1122.0,,,ospan,symmetry,m9uKhHM6GAV8KmghucjDf6wNkBN2,symmetry-judgement-task,199,828074,0.0-46.0-6.0-1.0-1.0-10.0,,,,,,,,,,1.0,1.0,,,,5da41f84a39c100018614e31,12:09:39,03/04/2024
,"<div style=""font-size: 10rem; color: #0000FF"">R</div>",,ospan,letter,m9uKhHM6GAV8KmghucjDf6wNkBN2,html-keyboard-response,200,829077,0.0-46.0-6.0-1.0-1.0-11.0,,,,,,,,,,,,,,,5da41f84a39c100018614e31,12:09:39,03/04/2024
1393.0,,,ospan,symmetry,m9uKhHM6GAV8KmghucjDf6wNkBN2,symmetry-judgement-task,201,832408,0.0-46.0-6.0-1.0-1.0-12.0,,,,,,,,,,1.0,1.0,,,,5da41f84a39c100018614e31,12:09:39,03/04/2024
,"<div style=""font-size: 10rem; color: #0000FF"">N</div>",,ospan,letter,m9uKhHM6GAV8KmghucjDf6wNkBN2,html-keyboard-response,202,833410,0.0-46.0-6.0-1.0-1.0-13.0,,,,,,,,,,,,,,,5da41f84a39c100018614e31,12:09:39,03/04/2024
1132.0,,,ospan,symmetry,m9uKhHM6GAV8KmghucjDf6wNkBN2,symmetry-judgement-task,203,836508,0.0-46.0-6.0-1.0-1.0-14.0,,,,,,,,,,1.0,1.0,,,,5da41f84a39c100018614e31,12:09:39,03/04/2024
,"<div style=""font-size: 10rem; color: #0000FF"">L</div>",,ospan,letter,m9uKhHM6GAV8KmghucjDf6wNkBN2,html-keyboard-response,204,837511,0.0-46.0-6.0-1.0-1.0-15.0,,,,,,,,,,,,,,,5da41f84a39c100018614e31,12:09:39,03/04/2024
11021.79999999702,"<div class = numbox><p style=""font-size: 2.4rem"">Please recall the letters you saw to the best of your ability. If you do not remember a particular letter, use the SKIP button.<br><b>(When you are ready to lock in your answer, press ENTER)</b></p><button id = button_1 class = ""square num-button"" onclick = ""recordClick(this)""><div class = content><div class = numbers>C</div></div></button><button id = button_2 class = ""square num-button"" onclick = ""recordClick(this)""><div class = content><div class = numbers>G</div></div></button><button id = button_3 class = ""square num-button"" onclick = ""recordClick(this)""><div class = content><div class = numbers>H</div></div></button><button id = button_4 class = ""square num-button"" onclick = ""recordClick(this)""><div class = content><div class = numbers>J</div></div></button><button id = button_5 class = ""square num-button"" onclick = ""recordClick(this)""><div class = content><div class = numbers>K</div></div></button><button id = button_6 class = ""square num-button"" onclick = ""recordClick(this)""><div class = content><div class = numbers>L</div></div></button><button id = button_7 class = ""square num-button"" onclick = ""recordClick(this)""><div class = content><div class = numbers>N</div></div></button><button id = button_8 class = ""square num-button"" onclick = ""recordClick(this)""><div class = content><div class = numbers>P</div></div></button><button id = button_9 class = ""square num-button"" onclick = ""recordClick(this)""><div class = content><div class = numbers>Q</div></div></button><button id = button_10 class = ""square num-button"" onclick = ""recordClick(this)""><div class = content><div class = numbers>R</div></div></button><button id = button_11 class = ""square num-button"" onclick = ""recordClick(this)""><div class = content><div class = numbers>S</div></div></button><button id = button_12 class = ""square num-button"" onclick = ""recordClick(this)""><div class = content><div class = numbers>Y</div></div></button><button class = clear_button id = ""ClearButton"" onclick = ""clearResponse()"">BACKSPACE</button><button class = blank_button id = ""BlankButton"" onclick = ""blankResponse()"">SKIP</button><p style=""font-size: 2.4rem""><u><b>Current Answer:</b></u></p><br><br><div id=echoed_txt style=""font-size: 5rem; color:blue;""><b></b></div></div>",enter,ospan,retrieval,m9uKhHM6GAV8KmghucjDf6wNkBN2,html-keyboard-response,205,849285,0.0-46.0-6.0-1.0-2.0,41,34,26,8.0,"[""H"",""P"",""Y"",""C"",""Q"",""R"",""N"",""L""]","[""H"",""C"",""Y"",""P"",""Q"",""R"",""N"",""L""]",0.0,6.0,,,,,,,5da41f84a39c100018614e31,12:09:39,03/04/2024
584.8999999910593,[''],0,ospan,feedback,m9uKhHM6GAV8KmghucjDf6wNkBN2,html-button-response,206,850372,0.0-46.0-6.0-1.0-3.0,,,,,,,,,,,,100.0,0.0,,5da41f84a39c100018614e31,12:09:39,03/04/2024
24764.89999999106,,"{'Q0': 'I enjoyed it, I found it challenging sometimes! All instructions clear.'}",ospan,survey_ospan,m9uKhHM6GAV8KmghucjDf6wNkBN2,lmdlab-survey-text,207,875893,0.0-46.0-7.0,,,,,,,,,,,,,,m9uKhHM6GAV8KmghucjDf6wNkBN2,5da41f84a39c100018614e31,12:09:39,03/04/2024
1876.8999999910593,<p><p style='font-size: 3rem'>Great work!<br><br>This completes the symmetry and memory task.</p><br><br><br>,0,ospan,finish,m9uKhHM6GAV8KmghucjDf6wNkBN2,html-button-response,208,877773,0.0-46.0-8.0,41,34,26,,,,,,,,,100.0,,,5da41f84a39c100018614e31,12:09:39,03/04/2024
