rt,stimulus,response,exp_name,exp_stage,subjectID,trial_type,trial_index,time_elapsed,internal_node_id,ospan_shown,ospan_total,ospan_abs,length,resp_actual,resp_correct,full_correct,num_correct,feedback,accuracy,correct,math_acc,math_warning,databaseID,prolificID,start_time,date
3423.0,<div class = 'left_align' style='font-size: 3.25rem; line-height: 1.3;'><p class = 'center_align'><b>Welcome to the Symmetry and Memory Task</b><br><br><br><br></p>Press 'continue' to show the instructions.<br><br><br><br></div>,0,ospan,instruct,edpiWEagaagMwkYaqGGdXyn6Z2s1,html-button-response,54,708290,0.0-46.0-0.0-0.0-0.0,,,,,,,,,,,,,,,63ed0a8a65ddbf9edae99a16,17:35:00,03/04/2024
8618.0,"<div class = 'left_align' style='font-size: 3.25rem; line-height: 1.3;'><p class = 'center_align'><b>Symmetry and Memory Task</b><br><br></p>In this task, you will try to memorize letters you see on the screen<br>while you also view black and white grid pictures.<br><br>In the next few minutes, you will have some practice to get you familiar<br>with how the task works.<br><br>It may be difficult sometimes, but please do not worry about making mistakes!<br><br>We will begin by practicing the letter part of the task.<br><br><br><br></div>",0,ospan,instruct,edpiWEagaagMwkYaqGGdXyn6Z2s1,html-button-response,55,717164,0.0-46.0-0.0-0.0-1.0,,,,,,,,,,,,,,,63ed0a8a65ddbf9edae99a16,17:35:00,03/04/2024
10444.0,"<div class = 'left_align' style='font-size: 3.25rem; line-height: 1.3;'>For this practice part, letters will appear on the screen one at a time.<br><br>Try to remember each letter in the order presented.<br><br>After some letters have been shown, you will see a response screen. Your<br>goal is to report the letters you saw <b>in order</b>. If you do not remember<br>a particular letter, you will have the option to leave it blank.<br><br><br><br></div>",0,ospan,instruct,edpiWEagaagMwkYaqGGdXyn6Z2s1,html-button-response,56,727875,0.0-46.0-0.0-0.0-2.0,,,,,,,,,,,,,,,63ed0a8a65ddbf9edae99a16,17:35:00,03/04/2024
3476.0,"<div class = 'left_align' style='font-size: 3.25rem; line-height: 1.3;'>Remember, it is very important to get the letters in the same<br>order as you see them.<br><br>When you are ready, you may begin the letter practice.</div><br><br><br><br>",0,ospan,instruct,edpiWEagaagMwkYaqGGdXyn6Z2s1,html-button-response,57,731619,0.0-46.0-0.0-0.0-3.0,,,,,,,,,,,,,,,63ed0a8a65ddbf9edae99a16,17:35:00,03/04/2024
,"<p style=""font-size:75px;"">...</p>",,ospan,iti,edpiWEagaagMwkYaqGGdXyn6Z2s1,html-keyboard-response,58,732902,0.0-46.0-0.0-1.0-0.0,,,,,,,,,,,,,,,63ed0a8a65ddbf9edae99a16,17:35:00,03/04/2024
,"<div style=""font-size: 10rem; color: #0000FF"">S</div>",,ospan,letter,edpiWEagaagMwkYaqGGdXyn6Z2s1,html-keyboard-response,59,733918,0.0-46.0-0.0-1.0-1.0,,,,,,,,,,,,,,,63ed0a8a65ddbf9edae99a16,17:35:00,03/04/2024
,"<div style=""font-size: 10rem; color: #0000FF"">C</div>",,ospan,letter,edpiWEagaagMwkYaqGGdXyn6Z2s1,html-keyboard-response,60,735688,0.0-46.0-0.0-1.0-2.0,,,,,,,,,,,,,,,63ed0a8a65ddbf9edae99a16,17:35:00,03/04/2024
6068.0,"<div class = numbox><p style=""font-size: 2.4rem"">Please recall the letters you saw to the best of your ability. If you do not remember a particular letter, use the SKIP button.<br><b>(When you are ready to lock in your answer, press ENTER)</b></p><button id = button_1 class = ""square num-button"" onclick = ""recordClick(this)""><div class = content><div class = numbers>C</div></div></button><button id = button_2 class = ""square num-button"" onclick = ""recordClick(this)""><div class = content><div class = numbers>G</div></div></button><button id = button_3 class = ""square num-button"" onclick = ""recordClick(this)""><div class = content><div class = numbers>H</div></div></button><button id = button_4 class = ""square num-button"" onclick = ""recordClick(this)""><div class = content><div class = numbers>J</div></div></button><button id = button_5 class = ""square num-button"" onclick = ""recordClick(this)""><div class = content><div class = numbers>K</div></div></button><button id = button_6 class = ""square num-button"" onclick = ""recordClick(this)""><div class = content><div class = numbers>L</div></div></button><button id = button_7 class = ""square num-button"" onclick = ""recordClick(this)""><div class = content><div class = numbers>N</div></div></button><button id = button_8 class = ""square num-button"" onclick = ""recordClick(this)""><div class = content><div class = numbers>P</div></div></button><button id = button_9 class = ""square num-button"" onclick = ""recordClick(this)""><div class = content><div class = numbers>Q</div></div></button><button id = button_10 class = ""square num-button"" onclick = ""recordClick(this)""><div class = content><div class = numbers>R</div></div></button><button id = button_11 class = ""square num-button"" onclick = ""recordClick(this)""><div class = content><div class = numbers>S</div></div></button><button id = button_12 class = ""square num-button"" onclick = ""recordClick(this)""><div class = content><div class = numbers>Y</div></div></button><button class = clear_button id = ""ClearButton"" onclick = ""clearResponse()"">BACKSPACE</button><button class = blank_button id = ""BlankButton"" onclick = ""blankResponse()"">SKIP</button><p style=""font-size: 2.4rem""><u><b>Current Answer:</b></u></p><br><br><div id=echoed_txt style=""font-size: 5rem; color:blue;""><b></b></div></div>",enter,ospan,retrieval,edpiWEagaagMwkYaqGGdXyn6Z2s1,html-keyboard-response,61,742523,0.0-46.0-0.0-1.0-3.0,NA,NA,NA,2.0,"[""S"",""C""]","[""S"",""C""]",1.0,2.0,"['<font color=""green"">S</font>', '<font color=""green"">C</font>']",,,,,,63ed0a8a65ddbf9edae99a16,17:35:00,03/04/2024
2526.0,"['<p style=""font-size:44px"">Letters:<br><br><br><font color=""green"">S</font> <font color=""green"">C</font></p><br><br>']",0,ospan,practice_feedback,edpiWEagaagMwkYaqGGdXyn6Z2s1,html-button-response,62,745556,0.0-46.0-0.0-1.0-4.0,,,,,,,,,,,,,,,63ed0a8a65ddbf9edae99a16,17:35:00,03/04/2024
,"<p style=""font-size:75px;"">...</p>",,ospan,iti,edpiWEagaagMwkYaqGGdXyn6Z2s1,html-keyboard-response,63,746565,0.0-46.0-0.0-2.0-0.0,,,,,,,,,,,,,,,63ed0a8a65ddbf9edae99a16,17:35:00,03/04/2024
,"<div style=""font-size: 10rem; color: #0000FF"">N</div>",,ospan,letter,edpiWEagaagMwkYaqGGdXyn6Z2s1,html-keyboard-response,64,747571,0.0-46.0-0.0-2.0-1.0,,,,,,,,,,,,,,,63ed0a8a65ddbf9edae99a16,17:35:00,03/04/2024
,"<div style=""font-size: 10rem; color: #0000FF"">S</div>",,ospan,letter,edpiWEagaagMwkYaqGGdXyn6Z2s1,html-keyboard-response,65,749331,0.0-46.0-0.0-2.0-2.0,,,,,,,,,,,,,,,63ed0a8a65ddbf9edae99a16,17:35:00,03/04/2024
,"<div style=""font-size: 10rem; color: #0000FF"">L</div>",,ospan,letter,edpiWEagaagMwkYaqGGdXyn6Z2s1,html-keyboard-response,66,751087,0.0-46.0-0.0-2.0-3.0,,,,,,,,,,,,,,,63ed0a8a65ddbf9edae99a16,17:35:00,03/04/2024
6997.0,"<div class = numbox><p style=""font-size: 2.4rem"">Please recall the letters you saw to the best of your ability. If you do not remember a particular letter, use the SKIP button.<br><b>(When you are ready to lock in your answer, press ENTER)</b></p><button id = button_1 class = ""square num-button"" onclick = ""recordClick(this)""><div class = content><div class = numbers>C</div></div></button><button id = button_2 class = ""square num-button"" onclick = ""recordClick(this)""><div class = content><div class = numbers>G</div></div></button><button id = button_3 class = ""square num-button"" onclick = ""recordClick(this)""><div class = content><div class = numbers>H</div></div></button><button id = button_4 class = ""square num-button"" onclick = ""recordClick(this)""><div class = content><div class = numbers>J</div></div></button><button id = button_5 class = ""square num-button"" onclick = ""recordClick(this)""><div class = content><div class = numbers>K</div></div></button><button id = button_6 class = ""square num-button"" onclick = ""recordClick(this)""><div class = content><div class = numbers>L</div></div></button><button id = button_7 class = ""square num-button"" onclick = ""recordClick(this)""><div class = content><div class = numbers>N</div></div></button><button id = button_8 class = ""square num-button"" onclick = ""recordClick(this)""><div class = content><div class = numbers>P</div></div></button><button id = button_9 class = ""square num-button"" onclick = ""recordClick(this)""><div class = content><div class = numbers>Q</div></div></button><button id = button_10 class = ""square num-button"" onclick = ""recordClick(this)""><div class = content><div class = numbers>R</div></div></button><button id = button_11 class = ""square num-button"" onclick = ""recordClick(this)""><div class = content><div class = numbers>S</div></div></button><button id = button_12 class = ""square num-button"" onclick = ""recordClick(this)""><div class = content><div class = numbers>Y</div></div></button><button class = clear_button id = ""ClearButton"" onclick = ""clearResponse()"">BACKSPACE</button><button class = blank_button id = ""BlankButton"" onclick = ""blankResponse()"">SKIP</button><p style=""font-size: 2.4rem""><u><b>Current Answer:</b></u></p><br><br><div id=echoed_txt style=""font-size: 5rem; color:blue;""><b></b></div></div>",enter,ospan,retrieval,edpiWEagaagMwkYaqGGdXyn6Z2s1,html-keyboard-response,67,758841,0.0-46.0-0.0-2.0-4.0,NA,NA,NA,3.0,"[""N"",""S"",""L""]","[""N"",""S"",""L""]",1.0,3.0,"['<font color=""green"">N</font>', '<font color=""green"">S</font>', '<font color=""green"">L</font>']",,,,,,63ed0a8a65ddbf9edae99a16,17:35:00,03/04/2024
1165.0,"['<p style=""font-size:44px"">Letters:<br><br><br><font color=""green"">N</font> <font color=""green"">S</font> <font color=""green"">L</font></p><br><br>']",0,ospan,practice_feedback,edpiWEagaagMwkYaqGGdXyn6Z2s1,html-button-response,68,760519,0.0-46.0-0.0-2.0-5.0,,,,,,,,,,,,,,,63ed0a8a65ddbf9edae99a16,17:35:00,03/04/2024
10084.0,"<div class = 'left_align' style='font-size: 3.25rem; line-height: 1.3;'>Now you will practice doing the <b>symmetry judgment part</b> of the experiment.<br><br>A black and white grid picture will appear on the screen and you have to judge if it is <br>symmetrical or asymetrical.<br><br>A picture is 'mirror' symmetrical if its left half is identical to the right half when flipped.<br>Here are examples of a symmetrical and an asymetrical picture:<br><br><center><img src='Stimuli/img/symm_instructions_extra.png' style='height:420px; width:900'></img></center><br>To judge symmetry, imagine you were to fold each picture down the middle, like a book –<br>would the left half match the right half when folded onto each other?<br><br></div><br>",0,ospan,instruct,edpiWEagaagMwkYaqGGdXyn6Z2s1,html-button-response,69,770607,0.0-46.0-1.0-0.0-0.0,,,,,,,,,,,,,,,63ed0a8a65ddbf9edae99a16,17:35:00,03/04/2024
7966.0,"<div class = 'left_align' style='font-size: 3.25rem; line-height: 1.3;'>When you have viewed the picture and determined whether it is symmetrical or not,<br>you can <b>click the Yes or No button</b> below to answer.<br><br>If you take longer than 15 seconds, it will continue automatically<br>and record the answer as an error.</div><br>",0,ospan,instruct,edpiWEagaagMwkYaqGGdXyn6Z2s1,html-button-response,70,778828,0.0-46.0-1.0-0.0-1.0,,,,,,,,,,,,,,,63ed0a8a65ddbf9edae99a16,17:35:00,03/04/2024
8398.0,"<div class = 'left_align' style='font-size: 3.25rem; line-height: 1.3;'>It is <b>very</b> important that you make the symmetry judgment correctly.<br><br>It is also important that you try and judge the picture as quickly as you can.<br><br>When you are ready, click on the button below to try some practice problems.</div><br><br><br><br>",0,ospan,instruct,edpiWEagaagMwkYaqGGdXyn6Z2s1,html-button-response,71,787483,0.0-46.0-1.0-0.0-2.0,,,,,,,,,,,,,,,63ed0a8a65ddbf9edae99a16,17:35:00,03/04/2024
1448.0,,,ospan,symmetry,edpiWEagaagMwkYaqGGdXyn6Z2s1,symmetry-judgement-task,72,789847,0.0-46.0-1.0-1.0-0.0,,,,,,,,,,1.0,1.0,,,,63ed0a8a65ddbf9edae99a16,17:35:00,03/04/2024
,"<p style=""color:green; font-size: 35px"">Correct</p>",,ospan,feedback,edpiWEagaagMwkYaqGGdXyn6Z2s1,html-keyboard-response,73,790613,0.0-46.0-1.0-1.0-1.0,,,,,,,,,,,,,,,63ed0a8a65ddbf9edae99a16,17:35:00,03/04/2024
1234.0,,,ospan,symmetry,edpiWEagaagMwkYaqGGdXyn6Z2s1,symmetry-judgement-task,74,794512,0.0-46.0-1.0-1.0-2.0,,,,,,,,,,1.0,1.0,,,,63ed0a8a65ddbf9edae99a16,17:35:00,03/04/2024
,"<p style=""color:green; font-size: 35px"">Correct</p>",,ospan,feedback,edpiWEagaagMwkYaqGGdXyn6Z2s1,html-keyboard-response,75,795276,0.0-46.0-1.0-1.0-3.0,,,,,,,,,,,,,,,63ed0a8a65ddbf9edae99a16,17:35:00,03/04/2024
850.0,,,ospan,symmetry,edpiWEagaagMwkYaqGGdXyn6Z2s1,symmetry-judgement-task,76,798825,0.0-46.0-1.0-1.0-4.0,,,,,,,,,,1.0,1.0,,,,63ed0a8a65ddbf9edae99a16,17:35:00,03/04/2024
,"<p style=""color:green; font-size: 35px"">Correct</p>",,ospan,feedback,edpiWEagaagMwkYaqGGdXyn6Z2s1,html-keyboard-response,77,799578,0.0-46.0-1.0-1.0-5.0,,,,,,,,,,,,,,,63ed0a8a65ddbf9edae99a16,17:35:00,03/04/2024
2492.0,"<p style=""font-size: 3rem;"">You responded correctly on 3 of 3 symmetry judgments. Good job!</p><br><br>",0,ospan,practice,edpiWEagaagMwkYaqGGdXyn6Z2s1,html-button-response,78,804125,0.0-46.0-1.0-2.0,,,,,,,,,,,,,,,63ed0a8a65ddbf9edae99a16,17:35:00,03/04/2024
18837.0,"<div class = 'left_align' style='font-size: 3.25rem; line-height: 1.3;'>Now you will practice doing both parts of the experiment at the same time.<br><br>In the next practice set, you will be given one grid picture to judge.<br>Then letter will appear on the screen. Try to remember the letter.<br><br>It is <b>very important</b> to make the symmetry judgment as quickly and accurately as possible.<br><br>Just as before, once you have make the symmetry judgment, you can click Yes or No.<br><b>Note that you will no longer see Correct or Incorrect feedback.</div><br><br><br><br>",0,ospan,instruct,edpiWEagaagMwkYaqGGdXyn6Z2s1,html-button-response,79,823225,0.0-46.0-2.0-0.0-0.0,,,,,,,,,,,,,,,63ed0a8a65ddbf9edae99a16,17:35:00,03/04/2024
8342.0,"<div class = 'left_align' style='font-size: 3.25rem; line-height: 1.3;'>After the letter goes away, another grid picture will appear, and then<br>another letter.<br><br>At the end of each set of letters and grids, you will recall the letters to the best<br>of your ability. Remember, try your best to get the letters in the correct order.<br><br>It is important to <b>quickly</b> and <b>accurately</b> make the symmetry judgments.</div><br><br><br><br>",0,ospan,instruct,edpiWEagaagMwkYaqGGdXyn6Z2s1,html-button-response,80,831832,0.0-46.0-2.0-0.0-1.0,,,,,,,,,,,,,,,63ed0a8a65ddbf9edae99a16,17:35:00,03/04/2024
16311.0,"<div class = 'left_align' style='font-size: 3.25rem; line-height: 1.3;'>On the feedback screen, if you are not doing well at the symmetry judgments,<br>you will also see a warning in the middle. This indicates your percent <br>correct for the grid pictures for the entire experiment.<br><br>It is <b>very</b> important for you to keep accuracy at least at 85%: <u>We can only use<br>data where the participant was at least 85% accurate on the judgments.</u> Therefore,<br> please try your best to perform well on the symmetry judgments, <b>at the same time</b><br>doing your best to recall as many letters as possible.<br><br>Click the button to try some practice problems.</div><br><br><br><br>",0,ospan,instruct,edpiWEagaagMwkYaqGGdXyn6Z2s1,html-button-response,81,848397,0.0-46.0-2.0-0.0-2.0,,,,,,,,,,,,,,,63ed0a8a65ddbf9edae99a16,17:35:00,03/04/2024
,"<p style=""font-size:75px;"">...</p>",,ospan,iti,edpiWEagaagMwkYaqGGdXyn6Z2s1,html-keyboard-response,82,849670,0.0-46.0-2.0-1.0-0.0,,,,,,,,,,,,,,,63ed0a8a65ddbf9edae99a16,17:35:00,03/04/2024
1315.0,,,ospan,symmetry,edpiWEagaagMwkYaqGGdXyn6Z2s1,symmetry-judgement-task,83,852169,0.0-46.0-2.0-1.0-1.0-0.0,,,,,,,,,,1.0,1.0,,,,63ed0a8a65ddbf9edae99a16,17:35:00,03/04/2024
,"<div style=""font-size: 10rem; color: #0000FF"">L</div>",,ospan,letter,edpiWEagaagMwkYaqGGdXyn6Z2s1,html-keyboard-response,84,853175,0.0-46.0-2.0-1.0-1.0-1.0,,,,,,,,,,,,,,,63ed0a8a65ddbf9edae99a16,17:35:00,03/04/2024
1316.0,,,ospan,symmetry,edpiWEagaagMwkYaqGGdXyn6Z2s1,symmetry-judgement-task,85,856414,0.0-46.0-2.0-1.0-1.0-2.0,,,,,,,,,,1.0,1.0,,,,63ed0a8a65ddbf9edae99a16,17:35:00,03/04/2024
,"<div style=""font-size: 10rem; color: #0000FF"">K</div>",,ospan,letter,edpiWEagaagMwkYaqGGdXyn6Z2s1,html-keyboard-response,86,857415,0.0-46.0-2.0-1.0-1.0-3.0,,,,,,,,,,,,,,,63ed0a8a65ddbf9edae99a16,17:35:00,03/04/2024
1473.0,,,ospan,symmetry,edpiWEagaagMwkYaqGGdXyn6Z2s1,symmetry-judgement-task,87,860825,0.0-46.0-2.0-1.0-1.0-4.0,,,,,,,,,,1.0,1.0,,,,63ed0a8a65ddbf9edae99a16,17:35:00,03/04/2024
,"<div style=""font-size: 10rem; color: #0000FF"">P</div>",,ospan,letter,edpiWEagaagMwkYaqGGdXyn6Z2s1,html-keyboard-response,88,861831,0.0-46.0-2.0-1.0-1.0-5.0,,,,,,,,,,,,,,,63ed0a8a65ddbf9edae99a16,17:35:00,03/04/2024
4055.0,"<div class = numbox><p style=""font-size: 2.4rem"">Please recall the letters you saw to the best of your ability. If you do not remember a particular letter, use the SKIP button.<br><b>(When you are ready to lock in your answer, press ENTER)</b></p><button id = button_1 class = ""square num-button"" onclick = ""recordClick(this)""><div class = content><div class = numbers>C</div></div></button><button id = button_2 class = ""square num-button"" onclick = ""recordClick(this)""><div class = content><div class = numbers>G</div></div></button><button id = button_3 class = ""square num-button"" onclick = ""recordClick(this)""><div class = content><div class = numbers>H</div></div></button><button id = button_4 class = ""square num-button"" onclick = ""recordClick(this)""><div class = content><div class = numbers>J</div></div></button><button id = button_5 class = ""square num-button"" onclick = ""recordClick(this)""><div class = content><div class = numbers>K</div></div></button><button id = button_6 class = ""square num-button"" onclick = ""recordClick(this)""><div class = content><div class = numbers>L</div></div></button><button id = button_7 class = ""square num-button"" onclick = ""recordClick(this)""><div class = content><div class = numbers>N</div></div></button><button id = button_8 class = ""square num-button"" onclick = ""recordClick(this)""><div class = content><div class = numbers>P</div></div></button><button id = button_9 class = ""square num-button"" onclick = ""recordClick(this)""><div class = content><div class = numbers>Q</div></div></button><button id = button_10 class = ""square num-button"" onclick = ""recordClick(this)""><div class = content><div class = numbers>R</div></div></button><button id = button_11 class = ""square num-button"" onclick = ""recordClick(this)""><div class = content><div class = numbers>S</div></div></button><button id = button_12 class = ""square num-button"" onclick = ""recordClick(this)""><div class = content><div class = numbers>Y</div></div></button><button class = clear_button id = ""ClearButton"" onclick = ""clearResponse()"">BACKSPACE</button><button class = blank_button id = ""BlankButton"" onclick = ""blankResponse()"">SKIP</button><p style=""font-size: 2.4rem""><u><b>Current Answer:</b></u></p><br><br><div id=echoed_txt style=""font-size: 5rem; color:blue;""><b></b></div></div>",enter,ospan,retrieval,edpiWEagaagMwkYaqGGdXyn6Z2s1,html-keyboard-response,89,866644,0.0-46.0-2.0-1.0-2.0-0.0,NA,NA,NA,3.0,"[""L"",""K"",""P""]","[""L"",""K"",""P""]",1.0,3.0,"['<font color=""green"">L</font>', '<font color=""green"">K</font>', '<font color=""green"">P</font>']",,,,,,63ed0a8a65ddbf9edae99a16,17:35:00,03/04/2024
1857.0,"['<p style=""font-size:44px"">Letters:<br><br><br><font color=""green"">L</font> <font color=""green"">K</font> <font color=""green"">P</font></p><br><br><p style=""font-size:30px"">Symmetry:<br><br><font color=""green"">100%</font></p><br><br>']",0,ospan,practice_feedback,edpiWEagaagMwkYaqGGdXyn6Z2s1,html-button-response,90,869005,0.0-46.0-2.0-1.0-2.0-1.0,,,,,,,,,,,,,,,63ed0a8a65ddbf9edae99a16,17:35:00,03/04/2024
,"<p style=""font-size:75px;"">...</p>",,ospan,iti,edpiWEagaagMwkYaqGGdXyn6Z2s1,html-keyboard-response,91,870013,0.0-46.0-2.0-2.0-0.0,,,,,,,,,,,,,,,63ed0a8a65ddbf9edae99a16,17:35:00,03/04/2024
1359.0,,,ospan,symmetry,edpiWEagaagMwkYaqGGdXyn6Z2s1,symmetry-judgement-task,92,872516,0.0-46.0-2.0-2.0-1.0-0.0,,,,,,,,,,1.0,1.0,,,,63ed0a8a65ddbf9edae99a16,17:35:00,03/04/2024
,"<div style=""font-size: 10rem; color: #0000FF"">H</div>",,ospan,letter,edpiWEagaagMwkYaqGGdXyn6Z2s1,html-keyboard-response,93,873518,0.0-46.0-2.0-2.0-1.0-1.0,,,,,,,,,,,,,,,63ed0a8a65ddbf9edae99a16,17:35:00,03/04/2024
1209.0,,,ospan,symmetry,edpiWEagaagMwkYaqGGdXyn6Z2s1,symmetry-judgement-task,94,876626,0.0-46.0-2.0-2.0-1.0-2.0,,,,,,,,,,1.0,1.0,,,,63ed0a8a65ddbf9edae99a16,17:35:00,03/04/2024
,"<div style=""font-size: 10rem; color: #0000FF"">P</div>",,ospan,letter,edpiWEagaagMwkYaqGGdXyn6Z2s1,html-keyboard-response,95,877630,0.0-46.0-2.0-2.0-1.0-3.0,,,,,,,,,,,,,,,63ed0a8a65ddbf9edae99a16,17:35:00,03/04/2024
971.0,,,ospan,symmetry,edpiWEagaagMwkYaqGGdXyn6Z2s1,symmetry-judgement-task,96,880508,0.0-46.0-2.0-2.0-1.0-4.0,,,,,,,,,,1.0,1.0,,,,63ed0a8a65ddbf9edae99a16,17:35:00,03/04/2024
,"<div style=""font-size: 10rem; color: #0000FF"">K</div>",,ospan,letter,edpiWEagaagMwkYaqGGdXyn6Z2s1,html-keyboard-response,97,881513,0.0-46.0-2.0-2.0-1.0-5.0,,,,,,,,,,,,,,,63ed0a8a65ddbf9edae99a16,17:35:00,03/04/2024
3231.0,"<div class = numbox><p style=""font-size: 2.4rem"">Please recall the letters you saw to the best of your ability. If you do not remember a particular letter, use the SKIP button.<br><b>(When you are ready to lock in your answer, press ENTER)</b></p><button id = button_1 class = ""square num-button"" onclick = ""recordClick(this)""><div class = content><div class = numbers>C</div></div></button><button id = button_2 class = ""square num-button"" onclick = ""recordClick(this)""><div class = content><div class = numbers>G</div></div></button><button id = button_3 class = ""square num-button"" onclick = ""recordClick(this)""><div class = content><div class = numbers>H</div></div></button><button id = button_4 class = ""square num-button"" onclick = ""recordClick(this)""><div class = content><div class = numbers>J</div></div></button><button id = button_5 class = ""square num-button"" onclick = ""recordClick(this)""><div class = content><div class = numbers>K</div></div></button><button id = button_6 class = ""square num-button"" onclick = ""recordClick(this)""><div class = content><div class = numbers>L</div></div></button><button id = button_7 class = ""square num-button"" onclick = ""recordClick(this)""><div class = content><div class = numbers>N</div></div></button><button id = button_8 class = ""square num-button"" onclick = ""recordClick(this)""><div class = content><div class = numbers>P</div></div></button><button id = button_9 class = ""square num-button"" onclick = ""recordClick(this)""><div class = content><div class = numbers>Q</div></div></button><button id = button_10 class = ""square num-button"" onclick = ""recordClick(this)""><div class = content><div class = numbers>R</div></div></button><button id = button_11 class = ""square num-button"" onclick = ""recordClick(this)""><div class = content><div class = numbers>S</div></div></button><button id = button_12 class = ""square num-button"" onclick = ""recordClick(this)""><div class = content><div class = numbers>Y</div></div></button><button class = clear_button id = ""ClearButton"" onclick = ""clearResponse()"">BACKSPACE</button><button class = blank_button id = ""BlankButton"" onclick = ""blankResponse()"">SKIP</button><p style=""font-size: 2.4rem""><u><b>Current Answer:</b></u></p><br><br><div id=echoed_txt style=""font-size: 5rem; color:blue;""><b></b></div></div>",enter,ospan,retrieval,edpiWEagaagMwkYaqGGdXyn6Z2s1,html-keyboard-response,98,885499,0.0-46.0-2.0-2.0-2.0-0.0,NA,NA,NA,3.0,"[""H"",""P"",""K""]","[""H"",""P"",""K""]",1.0,3.0,"['<font color=""green"">H</font>', '<font color=""green"">P</font>', '<font color=""green"">K</font>']",,,,,,63ed0a8a65ddbf9edae99a16,17:35:00,03/04/2024
3184.0,"['<p style=""font-size:44px"">Letters:<br><br><br><font color=""green"">H</font> <font color=""green"">P</font> <font color=""green"">K</font></p><br><br><p style=""font-size:30px"">Symmetry:<br><br><font color=""green"">100%</font></p><br><br>']",0,ospan,practice_feedback,edpiWEagaagMwkYaqGGdXyn6Z2s1,html-button-response,99,889199,0.0-46.0-2.0-2.0-2.0-1.0,,,,,,,,,,,,,,,63ed0a8a65ddbf9edae99a16,17:35:00,03/04/2024
28322.0,"<div class = 'left_align' style='font-size: 3rem; line-height: 1.3;'><b>Great work! That is the end of practice.</b><br><br>The real trials will look just like the practice trials you just completed.<br><br><u>Here, you will not see feedback</u>. First, you will see an grid picture to judge,<br>then a letter to remember. When the recall screen appears, report the letters in the<br>order presented. If you forget a letter, remember to use the <b>blank</b> button to move to the<br>next letter. Some of the sets will have more symmetry grids and letters than others.<br><br>It is important that you do your best on both the symmetry judgments and the letter recall<br>parts of the experiment. For for the symmetry judgments, try to work as <b>quickly</b> and <br>as <b>accurately</b> as possible. Remember to keep your symmetry accuracy at 85% or above.<br><br><b>For the letters, do NOT use any external aid (e.g., writing on paper, electronic device).</b><br><br>It is <u>very important</u> to our experiment to have a <b>true</b> view of your real performance.<br><br>Do not worry if you miss some when it gets hard! This task is meant to be very challenging!<br><br>Click the button to begin.</div><br><br><br><br>",0,ospan,starting_real_here,edpiWEagaagMwkYaqGGdXyn6Z2s1,html-button-response,100,917524,0.0-46.0-2.0-3.0,,,,,,,,,,,,,,,63ed0a8a65ddbf9edae99a16,17:35:00,03/04/2024
,"<p style=""font-size:75px;"">...</p>",,ospan,iti,edpiWEagaagMwkYaqGGdXyn6Z2s1,html-keyboard-response,101,918788,0.0-46.0-3.0-0.0-0.0,,,,,,,,,,,,,,,63ed0a8a65ddbf9edae99a16,17:35:00,03/04/2024
1122.0,,,ospan,symmetry,edpiWEagaagMwkYaqGGdXyn6Z2s1,symmetry-judgement-task,102,921070,0.0-46.0-3.0-0.0-1.0-0.0,,,,,,,,,,1.0,1.0,,,,63ed0a8a65ddbf9edae99a16,17:35:00,03/04/2024
,"<div style=""font-size: 10rem; color: #0000FF"">L</div>",,ospan,letter,edpiWEagaagMwkYaqGGdXyn6Z2s1,html-keyboard-response,103,922079,0.0-46.0-3.0-0.0-1.0-1.0,,,,,,,,,,,,,,,63ed0a8a65ddbf9edae99a16,17:35:00,03/04/2024
1077.0,,,ospan,symmetry,edpiWEagaagMwkYaqGGdXyn6Z2s1,symmetry-judgement-task,104,925061,0.0-46.0-3.0-0.0-1.0-2.0,,,,,,,,,,1.0,1.0,,,,63ed0a8a65ddbf9edae99a16,17:35:00,03/04/2024
,"<div style=""font-size: 10rem; color: #0000FF"">N</div>",,ospan,letter,edpiWEagaagMwkYaqGGdXyn6Z2s1,html-keyboard-response,105,926067,0.0-46.0-3.0-0.0-1.0-3.0,,,,,,,,,,,,,,,63ed0a8a65ddbf9edae99a16,17:35:00,03/04/2024
1328.0,,,ospan,symmetry,edpiWEagaagMwkYaqGGdXyn6Z2s1,symmetry-judgement-task,106,929313,0.0-46.0-3.0-0.0-1.0-4.0,,,,,,,,,,1.0,1.0,,,,63ed0a8a65ddbf9edae99a16,17:35:00,03/04/2024
,"<div style=""font-size: 10rem; color: #0000FF"">Q</div>",,ospan,letter,edpiWEagaagMwkYaqGGdXyn6Z2s1,html-keyboard-response,107,930318,0.0-46.0-3.0-0.0-1.0-5.0,,,,,,,,,,,,,,,63ed0a8a65ddbf9edae99a16,17:35:00,03/04/2024
2714.0,"<div class = numbox><p style=""font-size: 2.4rem"">Please recall the letters you saw to the best of your ability. If you do not remember a particular letter, use the SKIP button.<br><b>(When you are ready to lock in your answer, press ENTER)</b></p><button id = button_1 class = ""square num-button"" onclick = ""recordClick(this)""><div class = content><div class = numbers>C</div></div></button><button id = button_2 class = ""square num-button"" onclick = ""recordClick(this)""><div class = content><div class = numbers>G</div></div></button><button id = button_3 class = ""square num-button"" onclick = ""recordClick(this)""><div class = content><div class = numbers>H</div></div></button><button id = button_4 class = ""square num-button"" onclick = ""recordClick(this)""><div class = content><div class = numbers>J</div></div></button><button id = button_5 class = ""square num-button"" onclick = ""recordClick(this)""><div class = content><div class = numbers>K</div></div></button><button id = button_6 class = ""square num-button"" onclick = ""recordClick(this)""><div class = content><div class = numbers>L</div></div></button><button id = button_7 class = ""square num-button"" onclick = ""recordClick(this)""><div class = content><div class = numbers>N</div></div></button><button id = button_8 class = ""square num-button"" onclick = ""recordClick(this)""><div class = content><div class = numbers>P</div></div></button><button id = button_9 class = ""square num-button"" onclick = ""recordClick(this)""><div class = content><div class = numbers>Q</div></div></button><button id = button_10 class = ""square num-button"" onclick = ""recordClick(this)""><div class = content><div class = numbers>R</div></div></button><button id = button_11 class = ""square num-button"" onclick = ""recordClick(this)""><div class = content><div class = numbers>S</div></div></button><button id = button_12 class = ""square num-button"" onclick = ""recordClick(this)""><div class = content><div class = numbers>Y</div></div></button><button class = clear_button id = ""ClearButton"" onclick = ""clearResponse()"">BACKSPACE</button><button class = blank_button id = ""BlankButton"" onclick = ""blankResponse()"">SKIP</button><p style=""font-size: 2.4rem""><u><b>Current Answer:</b></u></p><br><br><div id=echoed_txt style=""font-size: 5rem; color:blue;""><b></b></div></div>",enter,ospan,retrieval,edpiWEagaagMwkYaqGGdXyn6Z2s1,html-keyboard-response,108,933784,0.0-46.0-3.0-0.0-2.0,3,3,3,3.0,"[""L"",""N"",""Q""]","[""L"",""N"",""Q""]",1.0,3.0,,,,,,,63ed0a8a65ddbf9edae99a16,17:35:00,03/04/2024
1467.0,[''],0,ospan,feedback,edpiWEagaagMwkYaqGGdXyn6Z2s1,html-button-response,109,935764,0.0-46.0-3.0-0.0-3.0,,,,,,,,,,,,100.0,0.0,,63ed0a8a65ddbf9edae99a16,17:35:00,03/04/2024
,"<p style=""font-size:75px;"">...</p>",,ospan,iti,edpiWEagaagMwkYaqGGdXyn6Z2s1,html-keyboard-response,110,936825,0.0-46.0-4.0-0.0-0.0,,,,,,,,,,,,,,,63ed0a8a65ddbf9edae99a16,17:35:00,03/04/2024
1078.0,,,ospan,symmetry,edpiWEagaagMwkYaqGGdXyn6Z2s1,symmetry-judgement-task,111,939046,0.0-46.0-4.0-0.0-1.0-0.0,,,,,,,,,,1.0,1.0,,,,63ed0a8a65ddbf9edae99a16,17:35:00,03/04/2024
,"<div style=""font-size: 10rem; color: #0000FF"">N</div>",,ospan,letter,edpiWEagaagMwkYaqGGdXyn6Z2s1,html-keyboard-response,112,940050,0.0-46.0-4.0-0.0-1.0-1.0,,,,,,,,,,,,,,,63ed0a8a65ddbf9edae99a16,17:35:00,03/04/2024
1034.0,,,ospan,symmetry,edpiWEagaagMwkYaqGGdXyn6Z2s1,symmetry-judgement-task,113,942980,0.0-46.0-4.0-0.0-1.0-2.0,,,,,,,,,,1.0,1.0,,,,63ed0a8a65ddbf9edae99a16,17:35:00,03/04/2024
,"<div style=""font-size: 10rem; color: #0000FF"">Q</div>",,ospan,letter,edpiWEagaagMwkYaqGGdXyn6Z2s1,html-keyboard-response,114,943985,0.0-46.0-4.0-0.0-1.0-3.0,,,,,,,,,,,,,,,63ed0a8a65ddbf9edae99a16,17:35:00,03/04/2024
1208.0,,,ospan,symmetry,edpiWEagaagMwkYaqGGdXyn6Z2s1,symmetry-judgement-task,115,947106,0.0-46.0-4.0-0.0-1.0-4.0,,,,,,,,,,1.0,1.0,,,,63ed0a8a65ddbf9edae99a16,17:35:00,03/04/2024
,"<div style=""font-size: 10rem; color: #0000FF"">G</div>",,ospan,letter,edpiWEagaagMwkYaqGGdXyn6Z2s1,html-keyboard-response,116,948109,0.0-46.0-4.0-0.0-1.0-5.0,,,,,,,,,,,,,,,63ed0a8a65ddbf9edae99a16,17:35:00,03/04/2024
1205.0,,,ospan,symmetry,edpiWEagaagMwkYaqGGdXyn6Z2s1,symmetry-judgement-task,117,951214,0.0-46.0-4.0-0.0-1.0-6.0,,,,,,,,,,1.0,1.0,,,,63ed0a8a65ddbf9edae99a16,17:35:00,03/04/2024
,"<div style=""font-size: 10rem; color: #0000FF"">K</div>",,ospan,letter,edpiWEagaagMwkYaqGGdXyn6Z2s1,html-keyboard-response,118,952220,0.0-46.0-4.0-0.0-1.0-7.0,,,,,,,,,,,,,,,63ed0a8a65ddbf9edae99a16,17:35:00,03/04/2024
4601.0,"<div class = numbox><p style=""font-size: 2.4rem"">Please recall the letters you saw to the best of your ability. If you do not remember a particular letter, use the SKIP button.<br><b>(When you are ready to lock in your answer, press ENTER)</b></p><button id = button_1 class = ""square num-button"" onclick = ""recordClick(this)""><div class = content><div class = numbers>C</div></div></button><button id = button_2 class = ""square num-button"" onclick = ""recordClick(this)""><div class = content><div class = numbers>G</div></div></button><button id = button_3 class = ""square num-button"" onclick = ""recordClick(this)""><div class = content><div class = numbers>H</div></div></button><button id = button_4 class = ""square num-button"" onclick = ""recordClick(this)""><div class = content><div class = numbers>J</div></div></button><button id = button_5 class = ""square num-button"" onclick = ""recordClick(this)""><div class = content><div class = numbers>K</div></div></button><button id = button_6 class = ""square num-button"" onclick = ""recordClick(this)""><div class = content><div class = numbers>L</div></div></button><button id = button_7 class = ""square num-button"" onclick = ""recordClick(this)""><div class = content><div class = numbers>N</div></div></button><button id = button_8 class = ""square num-button"" onclick = ""recordClick(this)""><div class = content><div class = numbers>P</div></div></button><button id = button_9 class = ""square num-button"" onclick = ""recordClick(this)""><div class = content><div class = numbers>Q</div></div></button><button id = button_10 class = ""square num-button"" onclick = ""recordClick(this)""><div class = content><div class = numbers>R</div></div></button><button id = button_11 class = ""square num-button"" onclick = ""recordClick(this)""><div class = content><div class = numbers>S</div></div></button><button id = button_12 class = ""square num-button"" onclick = ""recordClick(this)""><div class = content><div class = numbers>Y</div></div></button><button class = clear_button id = ""ClearButton"" onclick = ""clearResponse()"">BACKSPACE</button><button class = blank_button id = ""BlankButton"" onclick = ""blankResponse()"">SKIP</button><p style=""font-size: 2.4rem""><u><b>Current Answer:</b></u></p><br><br><div id=echoed_txt style=""font-size: 5rem; color:blue;""><b></b></div></div>",enter,ospan,retrieval,edpiWEagaagMwkYaqGGdXyn6Z2s1,html-keyboard-response,119,957587,0.0-46.0-4.0-0.0-2.0,7,7,7,4.0,"[""N"",""Q"",""G"",""K""]","[""N"",""Q"",""G"",""K""]",1.0,4.0,,,,,,,63ed0a8a65ddbf9edae99a16,17:35:00,03/04/2024
1098.0,[''],0,ospan,feedback,edpiWEagaagMwkYaqGGdXyn6Z2s1,html-button-response,120,959191,0.0-46.0-4.0-0.0-3.0,,,,,,,,,,,,100.0,0.0,,63ed0a8a65ddbf9edae99a16,17:35:00,03/04/2024
,"<p style=""font-size:75px;"">...</p>",,ospan,iti,edpiWEagaagMwkYaqGGdXyn6Z2s1,html-keyboard-response,121,960234,0.0-46.0-4.0-1.0-0.0,,,,,,,,,,,,,,,63ed0a8a65ddbf9edae99a16,17:35:00,03/04/2024
1311.0,,,ospan,symmetry,edpiWEagaagMwkYaqGGdXyn6Z2s1,symmetry-judgement-task,122,962690,0.0-46.0-4.0-1.0-1.0-0.0,,,,,,,,,,1.0,1.0,,,,63ed0a8a65ddbf9edae99a16,17:35:00,03/04/2024
,"<div style=""font-size: 10rem; color: #0000FF"">K</div>",,ospan,letter,edpiWEagaagMwkYaqGGdXyn6Z2s1,html-keyboard-response,123,963692,0.0-46.0-4.0-1.0-1.0-1.0,,,,,,,,,,,,,,,63ed0a8a65ddbf9edae99a16,17:35:00,03/04/2024
1122.0,,,ospan,symmetry,edpiWEagaagMwkYaqGGdXyn6Z2s1,symmetry-judgement-task,124,966710,0.0-46.0-4.0-1.0-1.0-2.0,,,,,,,,,,1.0,1.0,,,,63ed0a8a65ddbf9edae99a16,17:35:00,03/04/2024
,"<div style=""font-size: 10rem; color: #0000FF"">Q</div>",,ospan,letter,edpiWEagaagMwkYaqGGdXyn6Z2s1,html-keyboard-response,125,967713,0.0-46.0-4.0-1.0-1.0-3.0,,,,,,,,,,,,,,,63ed0a8a65ddbf9edae99a16,17:35:00,03/04/2024
1518.0,,,ospan,symmetry,edpiWEagaagMwkYaqGGdXyn6Z2s1,symmetry-judgement-task,126,971136,0.0-46.0-4.0-1.0-1.0-4.0,,,,,,,,,,1.0,1.0,,,,63ed0a8a65ddbf9edae99a16,17:35:00,03/04/2024
,"<div style=""font-size: 10rem; color: #0000FF"">J</div>",,ospan,letter,edpiWEagaagMwkYaqGGdXyn6Z2s1,html-keyboard-response,127,972149,0.0-46.0-4.0-1.0-1.0-5.0,,,,,,,,,,,,,,,63ed0a8a65ddbf9edae99a16,17:35:00,03/04/2024
1523.0,,,ospan,symmetry,edpiWEagaagMwkYaqGGdXyn6Z2s1,symmetry-judgement-task,128,975562,0.0-46.0-4.0-1.0-1.0-6.0,,,,,,,,,,1.0,1.0,,,,63ed0a8a65ddbf9edae99a16,17:35:00,03/04/2024
,"<div style=""font-size: 10rem; color: #0000FF"">S</div>",,ospan,letter,edpiWEagaagMwkYaqGGdXyn6Z2s1,html-keyboard-response,129,976566,0.0-46.0-4.0-1.0-1.0-7.0,,,,,,,,,,,,,,,63ed0a8a65ddbf9edae99a16,17:35:00,03/04/2024
1415.0,,,ospan,symmetry,edpiWEagaagMwkYaqGGdXyn6Z2s1,symmetry-judgement-task,130,979891,0.0-46.0-4.0-1.0-1.0-8.0,,,,,,,,,,1.0,1.0,,,,63ed0a8a65ddbf9edae99a16,17:35:00,03/04/2024
,"<div style=""font-size: 10rem; color: #0000FF"">P</div>",,ospan,letter,edpiWEagaagMwkYaqGGdXyn6Z2s1,html-keyboard-response,131,980913,0.0-46.0-4.0-1.0-1.0-9.0,,,,,,,,,,,,,,,63ed0a8a65ddbf9edae99a16,17:35:00,03/04/2024
20775.0,"<div class = numbox><p style=""font-size: 2.4rem"">Please recall the letters you saw to the best of your ability. If you do not remember a particular letter, use the SKIP button.<br><b>(When you are ready to lock in your answer, press ENTER)</b></p><button id = button_1 class = ""square num-button"" onclick = ""recordClick(this)""><div class = content><div class = numbers>C</div></div></button><button id = button_2 class = ""square num-button"" onclick = ""recordClick(this)""><div class = content><div class = numbers>G</div></div></button><button id = button_3 class = ""square num-button"" onclick = ""recordClick(this)""><div class = content><div class = numbers>H</div></div></button><button id = button_4 class = ""square num-button"" onclick = ""recordClick(this)""><div class = content><div class = numbers>J</div></div></button><button id = button_5 class = ""square num-button"" onclick = ""recordClick(this)""><div class = content><div class = numbers>K</div></div></button><button id = button_6 class = ""square num-button"" onclick = ""recordClick(this)""><div class = content><div class = numbers>L</div></div></button><button id = button_7 class = ""square num-button"" onclick = ""recordClick(this)""><div class = content><div class = numbers>N</div></div></button><button id = button_8 class = ""square num-button"" onclick = ""recordClick(this)""><div class = content><div class = numbers>P</div></div></button><button id = button_9 class = ""square num-button"" onclick = ""recordClick(this)""><div class = content><div class = numbers>Q</div></div></button><button id = button_10 class = ""square num-button"" onclick = ""recordClick(this)""><div class = content><div class = numbers>R</div></div></button><button id = button_11 class = ""square num-button"" onclick = ""recordClick(this)""><div class = content><div class = numbers>S</div></div></button><button id = button_12 class = ""square num-button"" onclick = ""recordClick(this)""><div class = content><div class = numbers>Y</div></div></button><button class = clear_button id = ""ClearButton"" onclick = ""clearResponse()"">BACKSPACE</button><button class = blank_button id = ""BlankButton"" onclick = ""blankResponse()"">SKIP</button><p style=""font-size: 2.4rem""><u><b>Current Answer:</b></u></p><br><br><div id=echoed_txt style=""font-size: 5rem; color:blue;""><b></b></div></div>",enter,ospan,retrieval,edpiWEagaagMwkYaqGGdXyn6Z2s1,html-keyboard-response,132,1002453,0.0-46.0-4.0-1.0-2.0,12,9,7,5.0,"[""K"",""Q"",""_"",""J"",""S""]","[""K"",""Q"",""J"",""S"",""P""]",0.0,2.0,,,,,,,63ed0a8a65ddbf9edae99a16,17:35:00,03/04/2024
1583.0,[''],0,ospan,feedback,edpiWEagaagMwkYaqGGdXyn6Z2s1,html-button-response,133,1004547,0.0-46.0-4.0-1.0-3.0,,,,,,,,,,,,100.0,0.0,,63ed0a8a65ddbf9edae99a16,17:35:00,03/04/2024
,"<p style=""font-size:75px;"">...</p>",,ospan,iti,edpiWEagaagMwkYaqGGdXyn6Z2s1,html-keyboard-response,134,1005611,0.0-46.0-4.0-2.0-0.0,,,,,,,,,,,,,,,63ed0a8a65ddbf9edae99a16,17:35:00,03/04/2024
1173.0,,,ospan,symmetry,edpiWEagaagMwkYaqGGdXyn6Z2s1,symmetry-judgement-task,135,1007938,0.0-46.0-4.0-2.0-1.0-0.0,,,,,,,,,,1.0,1.0,,,,63ed0a8a65ddbf9edae99a16,17:35:00,03/04/2024
,"<div style=""font-size: 10rem; color: #0000FF"">Y</div>",,ospan,letter,edpiWEagaagMwkYaqGGdXyn6Z2s1,html-keyboard-response,136,1008953,0.0-46.0-4.0-2.0-1.0-1.0,,,,,,,,,,,,,,,63ed0a8a65ddbf9edae99a16,17:35:00,03/04/2024
1128.0,,,ospan,symmetry,edpiWEagaagMwkYaqGGdXyn6Z2s1,symmetry-judgement-task,137,1011983,0.0-46.0-4.0-2.0-1.0-2.0,,,,,,,,,,1.0,1.0,,,,63ed0a8a65ddbf9edae99a16,17:35:00,03/04/2024
,"<div style=""font-size: 10rem; color: #0000FF"">Q</div>",,ospan,letter,edpiWEagaagMwkYaqGGdXyn6Z2s1,html-keyboard-response,138,1013005,0.0-46.0-4.0-2.0-1.0-3.0,,,,,,,,,,,,,,,63ed0a8a65ddbf9edae99a16,17:35:00,03/04/2024
1511.0,,,ospan,symmetry,edpiWEagaagMwkYaqGGdXyn6Z2s1,symmetry-judgement-task,139,1016407,0.0-46.0-4.0-2.0-1.0-4.0,,,,,,,,,,1.0,1.0,,,,63ed0a8a65ddbf9edae99a16,17:35:00,03/04/2024
,"<div style=""font-size: 10rem; color: #0000FF"">N</div>",,ospan,letter,edpiWEagaagMwkYaqGGdXyn6Z2s1,html-keyboard-response,140,1017423,0.0-46.0-4.0-2.0-1.0-5.0,,,,,,,,,,,,,,,63ed0a8a65ddbf9edae99a16,17:35:00,03/04/2024
3182.0,"<div class = numbox><p style=""font-size: 2.4rem"">Please recall the letters you saw to the best of your ability. If you do not remember a particular letter, use the SKIP button.<br><b>(When you are ready to lock in your answer, press ENTER)</b></p><button id = button_1 class = ""square num-button"" onclick = ""recordClick(this)""><div class = content><div class = numbers>C</div></div></button><button id = button_2 class = ""square num-button"" onclick = ""recordClick(this)""><div class = content><div class = numbers>G</div></div></button><button id = button_3 class = ""square num-button"" onclick = ""recordClick(this)""><div class = content><div class = numbers>H</div></div></button><button id = button_4 class = ""square num-button"" onclick = ""recordClick(this)""><div class = content><div class = numbers>J</div></div></button><button id = button_5 class = ""square num-button"" onclick = ""recordClick(this)""><div class = content><div class = numbers>K</div></div></button><button id = button_6 class = ""square num-button"" onclick = ""recordClick(this)""><div class = content><div class = numbers>L</div></div></button><button id = button_7 class = ""square num-button"" onclick = ""recordClick(this)""><div class = content><div class = numbers>N</div></div></button><button id = button_8 class = ""square num-button"" onclick = ""recordClick(this)""><div class = content><div class = numbers>P</div></div></button><button id = button_9 class = ""square num-button"" onclick = ""recordClick(this)""><div class = content><div class = numbers>Q</div></div></button><button id = button_10 class = ""square num-button"" onclick = ""recordClick(this)""><div class = content><div class = numbers>R</div></div></button><button id = button_11 class = ""square num-button"" onclick = ""recordClick(this)""><div class = content><div class = numbers>S</div></div></button><button id = button_12 class = ""square num-button"" onclick = ""recordClick(this)""><div class = content><div class = numbers>Y</div></div></button><button class = clear_button id = ""ClearButton"" onclick = ""clearResponse()"">BACKSPACE</button><button class = blank_button id = ""BlankButton"" onclick = ""blankResponse()"">SKIP</button><p style=""font-size: 2.4rem""><u><b>Current Answer:</b></u></p><br><br><div id=echoed_txt style=""font-size: 5rem; color:blue;""><b></b></div></div>",enter,ospan,retrieval,edpiWEagaagMwkYaqGGdXyn6Z2s1,html-keyboard-response,141,1021360,0.0-46.0-4.0-2.0-2.0,15,12,10,3.0,"[""Y"",""Q"",""N""]","[""Y"",""Q"",""N""]",1.0,3.0,,,,,,,63ed0a8a65ddbf9edae99a16,17:35:00,03/04/2024
650.0,[''],0,ospan,feedback,edpiWEagaagMwkYaqGGdXyn6Z2s1,html-button-response,142,1022521,0.0-46.0-4.0-2.0-3.0,,,,,,,,,,,,100.0,0.0,,63ed0a8a65ddbf9edae99a16,17:35:00,03/04/2024
,"<p style=""font-size:75px;"">...</p>",,ospan,iti,edpiWEagaagMwkYaqGGdXyn6Z2s1,html-keyboard-response,143,1023531,0.0-46.0-5.0-0.0-0.0,,,,,,,,,,,,,,,63ed0a8a65ddbf9edae99a16,17:35:00,03/04/2024
1213.0,,,ospan,symmetry,edpiWEagaagMwkYaqGGdXyn6Z2s1,symmetry-judgement-task,144,1025903,0.0-46.0-5.0-0.0-1.0-0.0,,,,,,,,,,1.0,1.0,,,,63ed0a8a65ddbf9edae99a16,17:35:00,03/04/2024
,"<div style=""font-size: 10rem; color: #0000FF"">R</div>",,ospan,letter,edpiWEagaagMwkYaqGGdXyn6Z2s1,html-keyboard-response,145,1026906,0.0-46.0-5.0-0.0-1.0-1.0,,,,,,,,,,,,,,,63ed0a8a65ddbf9edae99a16,17:35:00,03/04/2024
1154.0,,,ospan,symmetry,edpiWEagaagMwkYaqGGdXyn6Z2s1,symmetry-judgement-task,146,1029956,0.0-46.0-5.0-0.0-1.0-2.0,,,,,,,,,,1.0,1.0,,,,63ed0a8a65ddbf9edae99a16,17:35:00,03/04/2024
,"<div style=""font-size: 10rem; color: #0000FF"">H</div>",,ospan,letter,edpiWEagaagMwkYaqGGdXyn6Z2s1,html-keyboard-response,147,1030963,0.0-46.0-5.0-0.0-1.0-3.0,,,,,,,,,,,,,,,63ed0a8a65ddbf9edae99a16,17:35:00,03/04/2024
1344.0,,,ospan,symmetry,edpiWEagaagMwkYaqGGdXyn6Z2s1,symmetry-judgement-task,148,1034213,0.0-46.0-5.0-0.0-1.0-4.0,,,,,,,,,,1.0,1.0,,,,63ed0a8a65ddbf9edae99a16,17:35:00,03/04/2024
,"<div style=""font-size: 10rem; color: #0000FF"">J</div>",,ospan,letter,edpiWEagaagMwkYaqGGdXyn6Z2s1,html-keyboard-response,149,1035215,0.0-46.0-5.0-0.0-1.0-5.0,,,,,,,,,,,,,,,63ed0a8a65ddbf9edae99a16,17:35:00,03/04/2024
1144.0,,,ospan,symmetry,edpiWEagaagMwkYaqGGdXyn6Z2s1,symmetry-judgement-task,150,1038327,0.0-46.0-5.0-0.0-1.0-6.0,,,,,,,,,,1.0,1.0,,,,63ed0a8a65ddbf9edae99a16,17:35:00,03/04/2024
,"<div style=""font-size: 10rem; color: #0000FF"">G</div>",,ospan,letter,edpiWEagaagMwkYaqGGdXyn6Z2s1,html-keyboard-response,151,1039336,0.0-46.0-5.0-0.0-1.0-7.0,,,,,,,,,,,,,,,63ed0a8a65ddbf9edae99a16,17:35:00,03/04/2024
2356.0,,,ospan,symmetry,edpiWEagaagMwkYaqGGdXyn6Z2s1,symmetry-judgement-task,152,1043594,0.0-46.0-5.0-0.0-1.0-8.0,,,,,,,,,,1.0,1.0,,,,63ed0a8a65ddbf9edae99a16,17:35:00,03/04/2024
,"<div style=""font-size: 10rem; color: #0000FF"">L</div>",,ospan,letter,edpiWEagaagMwkYaqGGdXyn6Z2s1,html-keyboard-response,153,1044596,0.0-46.0-5.0-0.0-1.0-9.0,,,,,,,,,,,,,,,63ed0a8a65ddbf9edae99a16,17:35:00,03/04/2024
1339.0,,,ospan,symmetry,edpiWEagaagMwkYaqGGdXyn6Z2s1,symmetry-judgement-task,154,1047838,0.0-46.0-5.0-0.0-1.0-10.0,,,,,,,,,,1.0,1.0,,,,63ed0a8a65ddbf9edae99a16,17:35:00,03/04/2024
,"<div style=""font-size: 10rem; color: #0000FF"">K</div>",,ospan,letter,edpiWEagaagMwkYaqGGdXyn6Z2s1,html-keyboard-response,155,1048843,0.0-46.0-5.0-0.0-1.0-11.0,,,,,,,,,,,,,,,63ed0a8a65ddbf9edae99a16,17:35:00,03/04/2024
25280.0,"<div class = numbox><p style=""font-size: 2.4rem"">Please recall the letters you saw to the best of your ability. If you do not remember a particular letter, use the SKIP button.<br><b>(When you are ready to lock in your answer, press ENTER)</b></p><button id = button_1 class = ""square num-button"" onclick = ""recordClick(this)""><div class = content><div class = numbers>C</div></div></button><button id = button_2 class = ""square num-button"" onclick = ""recordClick(this)""><div class = content><div class = numbers>G</div></div></button><button id = button_3 class = ""square num-button"" onclick = ""recordClick(this)""><div class = content><div class = numbers>H</div></div></button><button id = button_4 class = ""square num-button"" onclick = ""recordClick(this)""><div class = content><div class = numbers>J</div></div></button><button id = button_5 class = ""square num-button"" onclick = ""recordClick(this)""><div class = content><div class = numbers>K</div></div></button><button id = button_6 class = ""square num-button"" onclick = ""recordClick(this)""><div class = content><div class = numbers>L</div></div></button><button id = button_7 class = ""square num-button"" onclick = ""recordClick(this)""><div class = content><div class = numbers>N</div></div></button><button id = button_8 class = ""square num-button"" onclick = ""recordClick(this)""><div class = content><div class = numbers>P</div></div></button><button id = button_9 class = ""square num-button"" onclick = ""recordClick(this)""><div class = content><div class = numbers>Q</div></div></button><button id = button_10 class = ""square num-button"" onclick = ""recordClick(this)""><div class = content><div class = numbers>R</div></div></button><button id = button_11 class = ""square num-button"" onclick = ""recordClick(this)""><div class = content><div class = numbers>S</div></div></button><button id = button_12 class = ""square num-button"" onclick = ""recordClick(this)""><div class = content><div class = numbers>Y</div></div></button><button class = clear_button id = ""ClearButton"" onclick = ""clearResponse()"">BACKSPACE</button><button class = blank_button id = ""BlankButton"" onclick = ""blankResponse()"">SKIP</button><p style=""font-size: 2.4rem""><u><b>Current Answer:</b></u></p><br><br><div id=echoed_txt style=""font-size: 5rem; color:blue;""><b></b></div></div>",enter,ospan,retrieval,edpiWEagaagMwkYaqGGdXyn6Z2s1,html-keyboard-response,156,1074880,0.0-46.0-5.0-0.0-2.0,21,17,10,6.0,"[""R"",""H"",""J"",""G"",""L"",""_""]","[""R"",""H"",""J"",""G"",""L"",""K""]",0.0,5.0,,,,,,,63ed0a8a65ddbf9edae99a16,17:35:00,03/04/2024
1057.0,[''],0,ospan,feedback,edpiWEagaagMwkYaqGGdXyn6Z2s1,html-button-response,157,1076454,0.0-46.0-5.0-0.0-3.0,,,,,,,,,,,,100.0,0.0,,63ed0a8a65ddbf9edae99a16,17:35:00,03/04/2024
,"<p style=""font-size:75px;"">...</p>",,ospan,iti,edpiWEagaagMwkYaqGGdXyn6Z2s1,html-keyboard-response,158,1077462,0.0-46.0-5.0-1.0-0.0,,,,,,,,,,,,,,,63ed0a8a65ddbf9edae99a16,17:35:00,03/04/2024
1623.0,,,ospan,symmetry,edpiWEagaagMwkYaqGGdXyn6Z2s1,symmetry-judgement-task,159,1080230,0.0-46.0-5.0-1.0-1.0-0.0,,,,,,,,,,1.0,1.0,,,,63ed0a8a65ddbf9edae99a16,17:35:00,03/04/2024
,"<div style=""font-size: 10rem; color: #0000FF"">N</div>",,ospan,letter,edpiWEagaagMwkYaqGGdXyn6Z2s1,html-keyboard-response,160,1081242,0.0-46.0-5.0-1.0-1.0-1.0,,,,,,,,,,,,,,,63ed0a8a65ddbf9edae99a16,17:35:00,03/04/2024
1495.0,,,ospan,symmetry,edpiWEagaagMwkYaqGGdXyn6Z2s1,symmetry-judgement-task,161,1084664,0.0-46.0-5.0-1.0-1.0-2.0,,,,,,,,,,1.0,1.0,,,,63ed0a8a65ddbf9edae99a16,17:35:00,03/04/2024
,"<div style=""font-size: 10rem; color: #0000FF"">P</div>",,ospan,letter,edpiWEagaagMwkYaqGGdXyn6Z2s1,html-keyboard-response,162,1085671,0.0-46.0-5.0-1.0-1.0-3.0,,,,,,,,,,,,,,,63ed0a8a65ddbf9edae99a16,17:35:00,03/04/2024
1197.0,,,ospan,symmetry,edpiWEagaagMwkYaqGGdXyn6Z2s1,symmetry-judgement-task,163,1088771,0.0-46.0-5.0-1.0-1.0-4.0,,,,,,,,,,1.0,1.0,,,,63ed0a8a65ddbf9edae99a16,17:35:00,03/04/2024
,"<div style=""font-size: 10rem; color: #0000FF"">H</div>",,ospan,letter,edpiWEagaagMwkYaqGGdXyn6Z2s1,html-keyboard-response,164,1089776,0.0-46.0-5.0-1.0-1.0-5.0,,,,,,,,,,,,,,,63ed0a8a65ddbf9edae99a16,17:35:00,03/04/2024
2036.0,,,ospan,symmetry,edpiWEagaagMwkYaqGGdXyn6Z2s1,symmetry-judgement-task,165,1093713,0.0-46.0-5.0-1.0-1.0-6.0,,,,,,,,,,1.0,1.0,,,,63ed0a8a65ddbf9edae99a16,17:35:00,03/04/2024
,"<div style=""font-size: 10rem; color: #0000FF"">R</div>",,ospan,letter,edpiWEagaagMwkYaqGGdXyn6Z2s1,html-keyboard-response,166,1094715,0.0-46.0-5.0-1.0-1.0-7.0,,,,,,,,,,,,,,,63ed0a8a65ddbf9edae99a16,17:35:00,03/04/2024
2382.0,,,ospan,symmetry,edpiWEagaagMwkYaqGGdXyn6Z2s1,symmetry-judgement-task,167,1099018,0.0-46.0-5.0-1.0-1.0-8.0,,,,,,,,,,1.0,1.0,,,,63ed0a8a65ddbf9edae99a16,17:35:00,03/04/2024
,"<div style=""font-size: 10rem; color: #0000FF"">G</div>",,ospan,letter,edpiWEagaagMwkYaqGGdXyn6Z2s1,html-keyboard-response,168,1100027,0.0-46.0-5.0-1.0-1.0-9.0,,,,,,,,,,,,,,,63ed0a8a65ddbf9edae99a16,17:35:00,03/04/2024
2348.0,,,ospan,symmetry,edpiWEagaagMwkYaqGGdXyn6Z2s1,symmetry-judgement-task,169,1104276,0.0-46.0-5.0-1.0-1.0-10.0,,,,,,,,,,1.0,1.0,,,,63ed0a8a65ddbf9edae99a16,17:35:00,03/04/2024
,"<div style=""font-size: 10rem; color: #0000FF"">K</div>",,ospan,letter,edpiWEagaagMwkYaqGGdXyn6Z2s1,html-keyboard-response,170,1105279,0.0-46.0-5.0-1.0-1.0-11.0,,,,,,,,,,,,,,,63ed0a8a65ddbf9edae99a16,17:35:00,03/04/2024
1990.0,,,ospan,symmetry,edpiWEagaagMwkYaqGGdXyn6Z2s1,symmetry-judgement-task,171,1109165,0.0-46.0-5.0-1.0-1.0-12.0,,,,,,,,,,1.0,1.0,,,,63ed0a8a65ddbf9edae99a16,17:35:00,03/04/2024
,"<div style=""font-size: 10rem; color: #0000FF"">Y</div>",,ospan,letter,edpiWEagaagMwkYaqGGdXyn6Z2s1,html-keyboard-response,172,1110167,0.0-46.0-5.0-1.0-1.0-13.0,,,,,,,,,,,,,,,63ed0a8a65ddbf9edae99a16,17:35:00,03/04/2024
14920.0,"<div class = numbox><p style=""font-size: 2.4rem"">Please recall the letters you saw to the best of your ability. If you do not remember a particular letter, use the SKIP button.<br><b>(When you are ready to lock in your answer, press ENTER)</b></p><button id = button_1 class = ""square num-button"" onclick = ""recordClick(this)""><div class = content><div class = numbers>C</div></div></button><button id = button_2 class = ""square num-button"" onclick = ""recordClick(this)""><div class = content><div class = numbers>G</div></div></button><button id = button_3 class = ""square num-button"" onclick = ""recordClick(this)""><div class = content><div class = numbers>H</div></div></button><button id = button_4 class = ""square num-button"" onclick = ""recordClick(this)""><div class = content><div class = numbers>J</div></div></button><button id = button_5 class = ""square num-button"" onclick = ""recordClick(this)""><div class = content><div class = numbers>K</div></div></button><button id = button_6 class = ""square num-button"" onclick = ""recordClick(this)""><div class = content><div class = numbers>L</div></div></button><button id = button_7 class = ""square num-button"" onclick = ""recordClick(this)""><div class = content><div class = numbers>N</div></div></button><button id = button_8 class = ""square num-button"" onclick = ""recordClick(this)""><div class = content><div class = numbers>P</div></div></button><button id = button_9 class = ""square num-button"" onclick = ""recordClick(this)""><div class = content><div class = numbers>Q</div></div></button><button id = button_10 class = ""square num-button"" onclick = ""recordClick(this)""><div class = content><div class = numbers>R</div></div></button><button id = button_11 class = ""square num-button"" onclick = ""recordClick(this)""><div class = content><div class = numbers>S</div></div></button><button id = button_12 class = ""square num-button"" onclick = ""recordClick(this)""><div class = content><div class = numbers>Y</div></div></button><button class = clear_button id = ""ClearButton"" onclick = ""clearResponse()"">BACKSPACE</button><button class = blank_button id = ""BlankButton"" onclick = ""blankResponse()"">SKIP</button><p style=""font-size: 2.4rem""><u><b>Current Answer:</b></u></p><br><br><div id=echoed_txt style=""font-size: 5rem; color:blue;""><b></b></div></div>",enter,ospan,retrieval,edpiWEagaagMwkYaqGGdXyn6Z2s1,html-keyboard-response,173,1125846,0.0-46.0-5.0-1.0-2.0,28,24,17,7.0,"[""N"",""P"",""H"",""R"",""G"",""K"",""Y""]","[""N"",""P"",""H"",""R"",""G"",""K"",""Y""]",1.0,7.0,,,,,,,63ed0a8a65ddbf9edae99a16,17:35:00,03/04/2024
968.0,[''],0,ospan,feedback,edpiWEagaagMwkYaqGGdXyn6Z2s1,html-button-response,174,1127318,0.0-46.0-5.0-1.0-3.0,,,,,,,,,,,,100.0,0.0,,63ed0a8a65ddbf9edae99a16,17:35:00,03/04/2024
,"<p style=""font-size:75px;"">...</p>",,ospan,iti,edpiWEagaagMwkYaqGGdXyn6Z2s1,html-keyboard-response,175,1128397,0.0-46.0-6.0-0.0-0.0,,,,,,,,,,,,,,,63ed0a8a65ddbf9edae99a16,17:35:00,03/04/2024
1231.0,,,ospan,symmetry,edpiWEagaagMwkYaqGGdXyn6Z2s1,symmetry-judgement-task,176,1130768,0.0-46.0-6.0-0.0-1.0-0.0,,,,,,,,,,1.0,1.0,,,,63ed0a8a65ddbf9edae99a16,17:35:00,03/04/2024
,"<div style=""font-size: 10rem; color: #0000FF"">H</div>",,ospan,letter,edpiWEagaagMwkYaqGGdXyn6Z2s1,html-keyboard-response,177,1131779,0.0-46.0-6.0-0.0-1.0-1.0,,,,,,,,,,,,,,,63ed0a8a65ddbf9edae99a16,17:35:00,03/04/2024
1194.0,,,ospan,symmetry,edpiWEagaagMwkYaqGGdXyn6Z2s1,symmetry-judgement-task,178,1134889,0.0-46.0-6.0-0.0-1.0-2.0,,,,,,,,,,1.0,1.0,,,,63ed0a8a65ddbf9edae99a16,17:35:00,03/04/2024
,"<div style=""font-size: 10rem; color: #0000FF"">L</div>",,ospan,letter,edpiWEagaagMwkYaqGGdXyn6Z2s1,html-keyboard-response,179,1135895,0.0-46.0-6.0-0.0-1.0-3.0,,,,,,,,,,,,,,,63ed0a8a65ddbf9edae99a16,17:35:00,03/04/2024
1709.0,,,ospan,symmetry,edpiWEagaagMwkYaqGGdXyn6Z2s1,symmetry-judgement-task,180,1139501,0.0-46.0-6.0-0.0-1.0-4.0,,,,,,,,,,1.0,1.0,,,,63ed0a8a65ddbf9edae99a16,17:35:00,03/04/2024
,"<div style=""font-size: 10rem; color: #0000FF"">G</div>",,ospan,letter,edpiWEagaagMwkYaqGGdXyn6Z2s1,html-keyboard-response,181,1140566,0.0-46.0-6.0-0.0-1.0-5.0,,,,,,,,,,,,,,,63ed0a8a65ddbf9edae99a16,17:35:00,03/04/2024
1188.0,,,ospan,symmetry,edpiWEagaagMwkYaqGGdXyn6Z2s1,symmetry-judgement-task,182,1143670,0.0-46.0-6.0-0.0-1.0-6.0,,,,,,,,,,1.0,1.0,,,,63ed0a8a65ddbf9edae99a16,17:35:00,03/04/2024
,"<div style=""font-size: 10rem; color: #0000FF"">J</div>",,ospan,letter,edpiWEagaagMwkYaqGGdXyn6Z2s1,html-keyboard-response,183,1144673,0.0-46.0-6.0-0.0-1.0-7.0,,,,,,,,,,,,,,,63ed0a8a65ddbf9edae99a16,17:35:00,03/04/2024
1352.0,,,ospan,symmetry,edpiWEagaagMwkYaqGGdXyn6Z2s1,symmetry-judgement-task,184,1147928,0.0-46.0-6.0-0.0-1.0-8.0,,,,,,,,,,1.0,1.0,,,,63ed0a8a65ddbf9edae99a16,17:35:00,03/04/2024
,"<div style=""font-size: 10rem; color: #0000FF"">N</div>",,ospan,letter,edpiWEagaagMwkYaqGGdXyn6Z2s1,html-keyboard-response,185,1148930,0.0-46.0-6.0-0.0-1.0-9.0,,,,,,,,,,,,,,,63ed0a8a65ddbf9edae99a16,17:35:00,03/04/2024
14653.0,"<div class = numbox><p style=""font-size: 2.4rem"">Please recall the letters you saw to the best of your ability. If you do not remember a particular letter, use the SKIP button.<br><b>(When you are ready to lock in your answer, press ENTER)</b></p><button id = button_1 class = ""square num-button"" onclick = ""recordClick(this)""><div class = content><div class = numbers>C</div></div></button><button id = button_2 class = ""square num-button"" onclick = ""recordClick(this)""><div class = content><div class = numbers>G</div></div></button><button id = button_3 class = ""square num-button"" onclick = ""recordClick(this)""><div class = content><div class = numbers>H</div></div></button><button id = button_4 class = ""square num-button"" onclick = ""recordClick(this)""><div class = content><div class = numbers>J</div></div></button><button id = button_5 class = ""square num-button"" onclick = ""recordClick(this)""><div class = content><div class = numbers>K</div></div></button><button id = button_6 class = ""square num-button"" onclick = ""recordClick(this)""><div class = content><div class = numbers>L</div></div></button><button id = button_7 class = ""square num-button"" onclick = ""recordClick(this)""><div class = content><div class = numbers>N</div></div></button><button id = button_8 class = ""square num-button"" onclick = ""recordClick(this)""><div class = content><div class = numbers>P</div></div></button><button id = button_9 class = ""square num-button"" onclick = ""recordClick(this)""><div class = content><div class = numbers>Q</div></div></button><button id = button_10 class = ""square num-button"" onclick = ""recordClick(this)""><div class = content><div class = numbers>R</div></div></button><button id = button_11 class = ""square num-button"" onclick = ""recordClick(this)""><div class = content><div class = numbers>S</div></div></button><button id = button_12 class = ""square num-button"" onclick = ""recordClick(this)""><div class = content><div class = numbers>Y</div></div></button><button class = clear_button id = ""ClearButton"" onclick = ""clearResponse()"">BACKSPACE</button><button class = blank_button id = ""BlankButton"" onclick = ""blankResponse()"">SKIP</button><p style=""font-size: 2.4rem""><u><b>Current Answer:</b></u></p><br><br><div id=echoed_txt style=""font-size: 5rem; color:blue;""><b></b></div></div>",enter,ospan,retrieval,edpiWEagaagMwkYaqGGdXyn6Z2s1,html-keyboard-response,186,1164339,0.0-46.0-6.0-0.0-2.0,33,29,22,5.0,"[""H"",""L"",""G"",""J"",""N""]","[""H"",""L"",""G"",""J"",""N""]",1.0,5.0,,,,,,,63ed0a8a65ddbf9edae99a16,17:35:00,03/04/2024
780.0,[''],0,ospan,feedback,edpiWEagaagMwkYaqGGdXyn6Z2s1,html-button-response,187,1165627,0.0-46.0-6.0-0.0-3.0,,,,,,,,,,,,100.0,0.0,,63ed0a8a65ddbf9edae99a16,17:35:00,03/04/2024
,"<p style=""font-size:75px;"">...</p>",,ospan,iti,edpiWEagaagMwkYaqGGdXyn6Z2s1,html-keyboard-response,188,1166632,0.0-46.0-6.0-1.0-0.0,,,,,,,,,,,,,,,63ed0a8a65ddbf9edae99a16,17:35:00,03/04/2024
1392.0,,,ospan,symmetry,edpiWEagaagMwkYaqGGdXyn6Z2s1,symmetry-judgement-task,189,1169235,0.0-46.0-6.0-1.0-1.0-0.0,,,,,,,,,,1.0,1.0,,,,63ed0a8a65ddbf9edae99a16,17:35:00,03/04/2024
,"<div style=""font-size: 10rem; color: #0000FF"">N</div>",,ospan,letter,edpiWEagaagMwkYaqGGdXyn6Z2s1,html-keyboard-response,190,1170236,0.0-46.0-6.0-1.0-1.0-1.0,,,,,,,,,,,,,,,63ed0a8a65ddbf9edae99a16,17:35:00,03/04/2024
894.0,,,ospan,symmetry,edpiWEagaagMwkYaqGGdXyn6Z2s1,symmetry-judgement-task,191,1173050,0.0-46.0-6.0-1.0-1.0-2.0,,,,,,,,,,1.0,1.0,,,,63ed0a8a65ddbf9edae99a16,17:35:00,03/04/2024
,"<div style=""font-size: 10rem; color: #0000FF"">L</div>",,ospan,letter,edpiWEagaagMwkYaqGGdXyn6Z2s1,html-keyboard-response,192,1174055,0.0-46.0-6.0-1.0-1.0-3.0,,,,,,,,,,,,,,,63ed0a8a65ddbf9edae99a16,17:35:00,03/04/2024
1538.0,,,ospan,symmetry,edpiWEagaagMwkYaqGGdXyn6Z2s1,symmetry-judgement-task,193,1177498,0.0-46.0-6.0-1.0-1.0-4.0,,,,,,,,,,1.0,1.0,,,,63ed0a8a65ddbf9edae99a16,17:35:00,03/04/2024
,"<div style=""font-size: 10rem; color: #0000FF"">J</div>",,ospan,letter,edpiWEagaagMwkYaqGGdXyn6Z2s1,html-keyboard-response,194,1178517,0.0-46.0-6.0-1.0-1.0-5.0,,,,,,,,,,,,,,,63ed0a8a65ddbf9edae99a16,17:35:00,03/04/2024
1903.0,,,ospan,symmetry,edpiWEagaagMwkYaqGGdXyn6Z2s1,symmetry-judgement-task,195,1182331,0.0-46.0-6.0-1.0-1.0-6.0,,,,,,,,,,1.0,1.0,,,,63ed0a8a65ddbf9edae99a16,17:35:00,03/04/2024
,"<div style=""font-size: 10rem; color: #0000FF"">K</div>",,ospan,letter,edpiWEagaagMwkYaqGGdXyn6Z2s1,html-keyboard-response,196,1183336,0.0-46.0-6.0-1.0-1.0-7.0,,,,,,,,,,,,,,,63ed0a8a65ddbf9edae99a16,17:35:00,03/04/2024
1938.0,,,ospan,symmetry,edpiWEagaagMwkYaqGGdXyn6Z2s1,symmetry-judgement-task,197,1187176,0.0-46.0-6.0-1.0-1.0-8.0,,,,,,,,,,1.0,1.0,,,,63ed0a8a65ddbf9edae99a16,17:35:00,03/04/2024
,"<div style=""font-size: 10rem; color: #0000FF"">G</div>",,ospan,letter,edpiWEagaagMwkYaqGGdXyn6Z2s1,html-keyboard-response,198,1188191,0.0-46.0-6.0-1.0-1.0-9.0,,,,,,,,,,,,,,,63ed0a8a65ddbf9edae99a16,17:35:00,03/04/2024
1419.0,,,ospan,symmetry,edpiWEagaagMwkYaqGGdXyn6Z2s1,symmetry-judgement-task,199,1191506,0.0-46.0-6.0-1.0-1.0-10.0,,,,,,,,,,1.0,1.0,,,,63ed0a8a65ddbf9edae99a16,17:35:00,03/04/2024
,"<div style=""font-size: 10rem; color: #0000FF"">H</div>",,ospan,letter,edpiWEagaagMwkYaqGGdXyn6Z2s1,html-keyboard-response,200,1192521,0.0-46.0-6.0-1.0-1.0-11.0,,,,,,,,,,,,,,,63ed0a8a65ddbf9edae99a16,17:35:00,03/04/2024
2189.0,,,ospan,symmetry,edpiWEagaagMwkYaqGGdXyn6Z2s1,symmetry-judgement-task,201,1196624,0.0-46.0-6.0-1.0-1.0-12.0,,,,,,,,,,1.0,1.0,,,,63ed0a8a65ddbf9edae99a16,17:35:00,03/04/2024
,"<div style=""font-size: 10rem; color: #0000FF"">Y</div>",,ospan,letter,edpiWEagaagMwkYaqGGdXyn6Z2s1,html-keyboard-response,202,1197640,0.0-46.0-6.0-1.0-1.0-13.0,,,,,,,,,,,,,,,63ed0a8a65ddbf9edae99a16,17:35:00,03/04/2024
1346.0,,,ospan,symmetry,edpiWEagaagMwkYaqGGdXyn6Z2s1,symmetry-judgement-task,203,1200887,0.0-46.0-6.0-1.0-1.0-14.0,,,,,,,,,,1.0,1.0,,,,63ed0a8a65ddbf9edae99a16,17:35:00,03/04/2024
,"<div style=""font-size: 10rem; color: #0000FF"">P</div>",,ospan,letter,edpiWEagaagMwkYaqGGdXyn6Z2s1,html-keyboard-response,204,1201889,0.0-46.0-6.0-1.0-1.0-15.0,,,,,,,,,,,,,,,63ed0a8a65ddbf9edae99a16,17:35:00,03/04/2024
29942.0,"<div class = numbox><p style=""font-size: 2.4rem"">Please recall the letters you saw to the best of your ability. If you do not remember a particular letter, use the SKIP button.<br><b>(When you are ready to lock in your answer, press ENTER)</b></p><button id = button_1 class = ""square num-button"" onclick = ""recordClick(this)""><div class = content><div class = numbers>C</div></div></button><button id = button_2 class = ""square num-button"" onclick = ""recordClick(this)""><div class = content><div class = numbers>G</div></div></button><button id = button_3 class = ""square num-button"" onclick = ""recordClick(this)""><div class = content><div class = numbers>H</div></div></button><button id = button_4 class = ""square num-button"" onclick = ""recordClick(this)""><div class = content><div class = numbers>J</div></div></button><button id = button_5 class = ""square num-button"" onclick = ""recordClick(this)""><div class = content><div class = numbers>K</div></div></button><button id = button_6 class = ""square num-button"" onclick = ""recordClick(this)""><div class = content><div class = numbers>L</div></div></button><button id = button_7 class = ""square num-button"" onclick = ""recordClick(this)""><div class = content><div class = numbers>N</div></div></button><button id = button_8 class = ""square num-button"" onclick = ""recordClick(this)""><div class = content><div class = numbers>P</div></div></button><button id = button_9 class = ""square num-button"" onclick = ""recordClick(this)""><div class = content><div class = numbers>Q</div></div></button><button id = button_10 class = ""square num-button"" onclick = ""recordClick(this)""><div class = content><div class = numbers>R</div></div></button><button id = button_11 class = ""square num-button"" onclick = ""recordClick(this)""><div class = content><div class = numbers>S</div></div></button><button id = button_12 class = ""square num-button"" onclick = ""recordClick(this)""><div class = content><div class = numbers>Y</div></div></button><button class = clear_button id = ""ClearButton"" onclick = ""clearResponse()"">BACKSPACE</button><button class = blank_button id = ""BlankButton"" onclick = ""blankResponse()"">SKIP</button><p style=""font-size: 2.4rem""><u><b>Current Answer:</b></u></p><br><br><div id=echoed_txt style=""font-size: 5rem; color:blue;""><b></b></div></div>",enter,ospan,retrieval,edpiWEagaagMwkYaqGGdXyn6Z2s1,html-keyboard-response,205,1232595,0.0-46.0-6.0-1.0-2.0,41,36,22,8.0,"[""N"",""L"",""J"",""K"",""G"",""H"",""Y"",""_""]","[""N"",""L"",""J"",""K"",""G"",""H"",""Y"",""P""]",0.0,7.0,,,,,,,63ed0a8a65ddbf9edae99a16,17:35:00,03/04/2024
2523.0,[''],0,ospan,feedback,edpiWEagaagMwkYaqGGdXyn6Z2s1,html-button-response,206,1235634,0.0-46.0-6.0-1.0-3.0,,,,,,,,,,,,100.0,0.0,,63ed0a8a65ddbf9edae99a16,17:35:00,03/04/2024
134361.0,,"{'Q0': 'I enjoyed how challenging it was, and how fluid this session was too. What I would like to see improved would be that we were told there may be a warning if you were underperforming in the symmetry task but I think it is useful to find out halfway through what your percentage is even if you are fine. '}",ospan,survey_ospan,edpiWEagaagMwkYaqGGdXyn6Z2s1,lmdlab-survey-text,207,1370752,0.0-46.0-7.0,,,,,,,,,,,,,,edpiWEagaagMwkYaqGGdXyn6Z2s1,63ed0a8a65ddbf9edae99a16,17:35:00,03/04/2024
9395.0,<p><p style='font-size: 3rem'>Great work!<br><br>This completes the symmetry and memory task.</p><br><br><br>,0,ospan,finish,edpiWEagaagMwkYaqGGdXyn6Z2s1,html-button-response,208,1380150,0.0-46.0-8.0,41,36,22,,,,,,,,,100.0,,,63ed0a8a65ddbf9edae99a16,17:35:00,03/04/2024
