rt,stimulus,response,exp_name,exp_stage,subjectID,trial_type,trial_index,time_elapsed,internal_node_id,ospan_shown,ospan_total,ospan_abs,length,resp_actual,resp_correct,full_correct,num_correct,feedback,accuracy,correct,math_acc,math_warning,databaseID,prolificID,start_time,date
1930.6999998092651,<div class = 'left_align' style='font-size: 3.25rem; line-height: 1.3;'><p class = 'center_align'><b>Welcome to the Symmetry and Memory Task</b><br><br><br><br></p>Press 'continue' to show the instructions.<br><br><br><br></div>,0,ospan,instruct,0R9BCP6fVpcgEGuQoEJPlkhhZoY2,html-button-response,54,481709,0.0-46.0-0.0-0.0-0.0,,,,,,,,,,,,,,,60342884b95a3823eaf5fd9b,15:10:50,03/04/2024
56716.799999952316,"<div class = 'left_align' style='font-size: 3.25rem; line-height: 1.3;'><p class = 'center_align'><b>Symmetry and Memory Task</b><br><br></p>In this task, you will try to memorize letters you see on the screen<br>while you also view black and white grid pictures.<br><br>In the next few minutes, you will have some practice to get you familiar<br>with how the task works.<br><br>It may be difficult sometimes, but please do not worry about making mistakes!<br><br>We will begin by practicing the letter part of the task.<br><br><br><br></div>",0,ospan,instruct,0R9BCP6fVpcgEGuQoEJPlkhhZoY2,html-button-response,55,538681,0.0-46.0-0.0-0.0-1.0,,,,,,,,,,,,,,,60342884b95a3823eaf5fd9b,15:10:50,03/04/2024
8037.600000143051,"<div class = 'left_align' style='font-size: 3.25rem; line-height: 1.3;'>For this practice part, letters will appear on the screen one at a time.<br><br>Try to remember each letter in the order presented.<br><br>After some letters have been shown, you will see a response screen. Your<br>goal is to report the letters you saw <b>in order</b>. If you do not remember<br>a particular letter, you will have the option to leave it blank.<br><br><br><br></div>",0,ospan,instruct,0R9BCP6fVpcgEGuQoEJPlkhhZoY2,html-button-response,56,546971,0.0-46.0-0.0-0.0-2.0,,,,,,,,,,,,,,,60342884b95a3823eaf5fd9b,15:10:50,03/04/2024
3770.0,"<div class = 'left_align' style='font-size: 3.25rem; line-height: 1.3;'>Remember, it is very important to get the letters in the same<br>order as you see them.<br><br>When you are ready, you may begin the letter practice.</div><br><br><br><br>",0,ospan,instruct,0R9BCP6fVpcgEGuQoEJPlkhhZoY2,html-button-response,57,550993,0.0-46.0-0.0-0.0-3.0,,,,,,,,,,,,,,,60342884b95a3823eaf5fd9b,15:10:50,03/04/2024
,"<p style=""font-size:75px;"">...</p>",,ospan,iti,0R9BCP6fVpcgEGuQoEJPlkhhZoY2,html-keyboard-response,58,552258,0.0-46.0-0.0-1.0-0.0,,,,,,,,,,,,,,,60342884b95a3823eaf5fd9b,15:10:50,03/04/2024
,"<div style=""font-size: 10rem; color: #0000FF"">C</div>",,ospan,letter,0R9BCP6fVpcgEGuQoEJPlkhhZoY2,html-keyboard-response,59,553261,0.0-46.0-0.0-1.0-1.0,,,,,,,,,,,,,,,60342884b95a3823eaf5fd9b,15:10:50,03/04/2024
,"<div style=""font-size: 10rem; color: #0000FF"">N</div>",,ospan,letter,0R9BCP6fVpcgEGuQoEJPlkhhZoY2,html-keyboard-response,60,555030,0.0-46.0-0.0-1.0-2.0,,,,,,,,,,,,,,,60342884b95a3823eaf5fd9b,15:10:50,03/04/2024
7283.400000095367,"<div class = numbox><p style=""font-size: 2.4rem"">Please recall the letters you saw to the best of your ability. If you do not remember a particular letter, use the SKIP button.<br><b>(When you are ready to lock in your answer, press ENTER)</b></p><button id = button_1 class = ""square num-button"" onclick = ""recordClick(this)""><div class = content><div class = numbers>C</div></div></button><button id = button_2 class = ""square num-button"" onclick = ""recordClick(this)""><div class = content><div class = numbers>G</div></div></button><button id = button_3 class = ""square num-button"" onclick = ""recordClick(this)""><div class = content><div class = numbers>H</div></div></button><button id = button_4 class = ""square num-button"" onclick = ""recordClick(this)""><div class = content><div class = numbers>J</div></div></button><button id = button_5 class = ""square num-button"" onclick = ""recordClick(this)""><div class = content><div class = numbers>K</div></div></button><button id = button_6 class = ""square num-button"" onclick = ""recordClick(this)""><div class = content><div class = numbers>L</div></div></button><button id = button_7 class = ""square num-button"" onclick = ""recordClick(this)""><div class = content><div class = numbers>N</div></div></button><button id = button_8 class = ""square num-button"" onclick = ""recordClick(this)""><div class = content><div class = numbers>P</div></div></button><button id = button_9 class = ""square num-button"" onclick = ""recordClick(this)""><div class = content><div class = numbers>Q</div></div></button><button id = button_10 class = ""square num-button"" onclick = ""recordClick(this)""><div class = content><div class = numbers>R</div></div></button><button id = button_11 class = ""square num-button"" onclick = ""recordClick(this)""><div class = content><div class = numbers>S</div></div></button><button id = button_12 class = ""square num-button"" onclick = ""recordClick(this)""><div class = content><div class = numbers>Y</div></div></button><button class = clear_button id = ""ClearButton"" onclick = ""clearResponse()"">BACKSPACE</button><button class = blank_button id = ""BlankButton"" onclick = ""blankResponse()"">SKIP</button><p style=""font-size: 2.4rem""><u><b>Current Answer:</b></u></p><br><br><div id=echoed_txt style=""font-size: 5rem; color:blue;""><b></b></div></div>",enter,ospan,retrieval,0R9BCP6fVpcgEGuQoEJPlkhhZoY2,html-keyboard-response,61,563078,0.0-46.0-0.0-1.0-3.0,NA,NA,NA,2.0,"[""C"",""N""]","[""C"",""N""]",1.0,2.0,"['<font color=""green"">C</font>', '<font color=""green"">N</font>']",,,,,,60342884b95a3823eaf5fd9b,15:10:50,03/04/2024
1407.5,"['<p style=""font-size:44px"">Letters:<br><br><br><font color=""green"">C</font> <font color=""green"">N</font></p><br><br>']",0,ospan,practice_feedback,0R9BCP6fVpcgEGuQoEJPlkhhZoY2,html-button-response,62,564991,0.0-46.0-0.0-1.0-4.0,,,,,,,,,,,,,,,60342884b95a3823eaf5fd9b,15:10:50,03/04/2024
,"<p style=""font-size:75px;"">...</p>",,ospan,iti,0R9BCP6fVpcgEGuQoEJPlkhhZoY2,html-keyboard-response,63,565996,0.0-46.0-0.0-2.0-0.0,,,,,,,,,,,,,,,60342884b95a3823eaf5fd9b,15:10:50,03/04/2024
,"<div style=""font-size: 10rem; color: #0000FF"">G</div>",,ospan,letter,0R9BCP6fVpcgEGuQoEJPlkhhZoY2,html-keyboard-response,64,566998,0.0-46.0-0.0-2.0-1.0,,,,,,,,,,,,,,,60342884b95a3823eaf5fd9b,15:10:50,03/04/2024
,"<div style=""font-size: 10rem; color: #0000FF"">N</div>",,ospan,letter,0R9BCP6fVpcgEGuQoEJPlkhhZoY2,html-keyboard-response,65,568766,0.0-46.0-0.0-2.0-2.0,,,,,,,,,,,,,,,60342884b95a3823eaf5fd9b,15:10:50,03/04/2024
,"<div style=""font-size: 10rem; color: #0000FF"">R</div>",,ospan,letter,0R9BCP6fVpcgEGuQoEJPlkhhZoY2,html-keyboard-response,66,570525,0.0-46.0-0.0-2.0-3.0,,,,,,,,,,,,,,,60342884b95a3823eaf5fd9b,15:10:50,03/04/2024
5475.600000143051,"<div class = numbox><p style=""font-size: 2.4rem"">Please recall the letters you saw to the best of your ability. If you do not remember a particular letter, use the SKIP button.<br><b>(When you are ready to lock in your answer, press ENTER)</b></p><button id = button_1 class = ""square num-button"" onclick = ""recordClick(this)""><div class = content><div class = numbers>C</div></div></button><button id = button_2 class = ""square num-button"" onclick = ""recordClick(this)""><div class = content><div class = numbers>G</div></div></button><button id = button_3 class = ""square num-button"" onclick = ""recordClick(this)""><div class = content><div class = numbers>H</div></div></button><button id = button_4 class = ""square num-button"" onclick = ""recordClick(this)""><div class = content><div class = numbers>J</div></div></button><button id = button_5 class = ""square num-button"" onclick = ""recordClick(this)""><div class = content><div class = numbers>K</div></div></button><button id = button_6 class = ""square num-button"" onclick = ""recordClick(this)""><div class = content><div class = numbers>L</div></div></button><button id = button_7 class = ""square num-button"" onclick = ""recordClick(this)""><div class = content><div class = numbers>N</div></div></button><button id = button_8 class = ""square num-button"" onclick = ""recordClick(this)""><div class = content><div class = numbers>P</div></div></button><button id = button_9 class = ""square num-button"" onclick = ""recordClick(this)""><div class = content><div class = numbers>Q</div></div></button><button id = button_10 class = ""square num-button"" onclick = ""recordClick(this)""><div class = content><div class = numbers>R</div></div></button><button id = button_11 class = ""square num-button"" onclick = ""recordClick(this)""><div class = content><div class = numbers>S</div></div></button><button id = button_12 class = ""square num-button"" onclick = ""recordClick(this)""><div class = content><div class = numbers>Y</div></div></button><button class = clear_button id = ""ClearButton"" onclick = ""clearResponse()"">BACKSPACE</button><button class = blank_button id = ""BlankButton"" onclick = ""blankResponse()"">SKIP</button><p style=""font-size: 2.4rem""><u><b>Current Answer:</b></u></p><br><br><div id=echoed_txt style=""font-size: 5rem; color:blue;""><b></b></div></div>",enter,ospan,retrieval,0R9BCP6fVpcgEGuQoEJPlkhhZoY2,html-keyboard-response,67,576765,0.0-46.0-0.0-2.0-4.0,NA,NA,NA,3.0,"[""G"",""N"",""R""]","[""G"",""N"",""R""]",1.0,3.0,"['<font color=""green"">G</font>', '<font color=""green"">N</font>', '<font color=""green"">R</font>']",,,,,,60342884b95a3823eaf5fd9b,15:10:50,03/04/2024
1690.5,"['<p style=""font-size:44px"">Letters:<br><br><br><font color=""green"">G</font> <font color=""green"">N</font> <font color=""green"">R</font></p><br><br>']",0,ospan,practice_feedback,0R9BCP6fVpcgEGuQoEJPlkhhZoY2,html-button-response,68,578971,0.0-46.0-0.0-2.0-5.0,,,,,,,,,,,,,,,60342884b95a3823eaf5fd9b,15:10:50,03/04/2024
10453.299999952316,"<div class = 'left_align' style='font-size: 3.25rem; line-height: 1.3;'>Now you will practice doing the <b>symmetry judgment part</b> of the experiment.<br><br>A black and white grid picture will appear on the screen and you have to judge if it is <br>symmetrical or asymetrical.<br><br>A picture is 'mirror' symmetrical if its left half is identical to the right half when flipped.<br>Here are examples of a symmetrical and an asymetrical picture:<br><br><center><img src='Stimuli/img/symm_instructions_extra.png' style='height:420px; width:900'></img></center><br>To judge symmetry, imagine you were to fold each picture down the middle, like a book –<br>would the left half match the right half when folded onto each other?<br><br></div><br>",0,ospan,instruct,0R9BCP6fVpcgEGuQoEJPlkhhZoY2,html-button-response,69,589425,0.0-46.0-1.0-0.0-0.0,,,,,,,,,,,,,,,60342884b95a3823eaf5fd9b,15:10:50,03/04/2024
4910.799999952316,"<div class = 'left_align' style='font-size: 3.25rem; line-height: 1.3;'>When you have viewed the picture and determined whether it is symmetrical or not,<br>you can <b>click the Yes or No button</b> below to answer.<br><br>If you take longer than 15 seconds, it will continue automatically<br>and record the answer as an error.</div><br>",0,ospan,instruct,0R9BCP6fVpcgEGuQoEJPlkhhZoY2,html-button-response,70,594590,0.0-46.0-1.0-0.0-1.0,,,,,,,,,,,,,,,60342884b95a3823eaf5fd9b,15:10:50,03/04/2024
4282.0,"<div class = 'left_align' style='font-size: 3.25rem; line-height: 1.3;'>It is <b>very</b> important that you make the symmetry judgment correctly.<br><br>It is also important that you try and judge the picture as quickly as you can.<br><br>When you are ready, click on the button below to try some practice problems.</div><br><br><br><br>",0,ospan,instruct,0R9BCP6fVpcgEGuQoEJPlkhhZoY2,html-button-response,71,599135,0.0-46.0-1.0-0.0-2.0,,,,,,,,,,,,,,,60342884b95a3823eaf5fd9b,15:10:50,03/04/2024
2552.0,,,ospan,symmetry,0R9BCP6fVpcgEGuQoEJPlkhhZoY2,symmetry-judgement-task,72,602478,0.0-46.0-1.0-1.0-0.0,,,,,,,,,,1.0,1.0,,,,60342884b95a3823eaf5fd9b,15:10:50,03/04/2024
,"<p style=""color:green; font-size: 35px"">Correct</p>",,ospan,feedback,0R9BCP6fVpcgEGuQoEJPlkhhZoY2,html-keyboard-response,73,603243,0.0-46.0-1.0-1.0-1.0,,,,,,,,,,,,,,,60342884b95a3823eaf5fd9b,15:10:50,03/04/2024
1623.0,,,ospan,symmetry,0R9BCP6fVpcgEGuQoEJPlkhhZoY2,symmetry-judgement-task,74,607543,0.0-46.0-1.0-1.0-2.0,,,,,,,,,,1.0,1.0,,,,60342884b95a3823eaf5fd9b,15:10:50,03/04/2024
,"<p style=""color:green; font-size: 35px"">Correct</p>",,ospan,feedback,0R9BCP6fVpcgEGuQoEJPlkhhZoY2,html-keyboard-response,75,608300,0.0-46.0-1.0-1.0-3.0,,,,,,,,,,,,,,,60342884b95a3823eaf5fd9b,15:10:50,03/04/2024
1591.0,,,ospan,symmetry,0R9BCP6fVpcgEGuQoEJPlkhhZoY2,symmetry-judgement-task,76,612563,0.0-46.0-1.0-1.0-4.0,,,,,,,,,,1.0,1.0,,,,60342884b95a3823eaf5fd9b,15:10:50,03/04/2024
,"<p style=""color:green; font-size: 35px"">Correct</p>",,ospan,feedback,0R9BCP6fVpcgEGuQoEJPlkhhZoY2,html-keyboard-response,77,613323,0.0-46.0-1.0-1.0-5.0,,,,,,,,,,,,,,,60342884b95a3823eaf5fd9b,15:10:50,03/04/2024
1514.4000000953674,"<p style=""font-size: 3rem;"">You responded correctly on 3 of 3 symmetry judgments. Good job!</p><br><br>",0,ospan,practice,0R9BCP6fVpcgEGuQoEJPlkhhZoY2,html-button-response,78,616854,0.0-46.0-1.0-2.0,,,,,,,,,,,,,,,60342884b95a3823eaf5fd9b,15:10:50,03/04/2024
16715.5,"<div class = 'left_align' style='font-size: 3.25rem; line-height: 1.3;'>Now you will practice doing both parts of the experiment at the same time.<br><br>In the next practice set, you will be given one grid picture to judge.<br>Then letter will appear on the screen. Try to remember the letter.<br><br>It is <b>very important</b> to make the symmetry judgment as quickly and accurately as possible.<br><br>Just as before, once you have make the symmetry judgment, you can click Yes or No.<br><b>Note that you will no longer see Correct or Incorrect feedback.</div><br><br><br><br>",0,ospan,instruct,0R9BCP6fVpcgEGuQoEJPlkhhZoY2,html-button-response,79,633822,0.0-46.0-2.0-0.0-0.0,,,,,,,,,,,,,,,60342884b95a3823eaf5fd9b,15:10:50,03/04/2024
10546.300000190735,"<div class = 'left_align' style='font-size: 3.25rem; line-height: 1.3;'>After the letter goes away, another grid picture will appear, and then<br>another letter.<br><br>At the end of each set of letters and grids, you will recall the letters to the best<br>of your ability. Remember, try your best to get the letters in the correct order.<br><br>It is important to <b>quickly</b> and <b>accurately</b> make the symmetry judgments.</div><br><br><br><br>",0,ospan,instruct,0R9BCP6fVpcgEGuQoEJPlkhhZoY2,html-button-response,80,644624,0.0-46.0-2.0-0.0-1.0,,,,,,,,,,,,,,,60342884b95a3823eaf5fd9b,15:10:50,03/04/2024
11802.5,"<div class = 'left_align' style='font-size: 3.25rem; line-height: 1.3;'>On the feedback screen, if you are not doing well at the symmetry judgments,<br>you will also see a warning in the middle. This indicates your percent <br>correct for the grid pictures for the entire experiment.<br><br>It is <b>very</b> important for you to keep accuracy at least at 85%: <u>We can only use<br>data where the participant was at least 85% accurate on the judgments.</u> Therefore,<br> please try your best to perform well on the symmetry judgments, <b>at the same time</b><br>doing your best to recall as many letters as possible.<br><br>Click the button to try some practice problems.</div><br><br><br><br>",0,ospan,instruct,0R9BCP6fVpcgEGuQoEJPlkhhZoY2,html-button-response,81,656680,0.0-46.0-2.0-0.0-2.0,,,,,,,,,,,,,,,60342884b95a3823eaf5fd9b,15:10:50,03/04/2024
,"<p style=""font-size:75px;"">...</p>",,ospan,iti,0R9BCP6fVpcgEGuQoEJPlkhhZoY2,html-keyboard-response,82,657939,0.0-46.0-2.0-1.0-0.0,,,,,,,,,,,,,,,60342884b95a3823eaf5fd9b,15:10:50,03/04/2024
1888.0,,,ospan,symmetry,0R9BCP6fVpcgEGuQoEJPlkhhZoY2,symmetry-judgement-task,83,661015,0.0-46.0-2.0-1.0-1.0-0.0,,,,,,,,,,1.0,1.0,,,,60342884b95a3823eaf5fd9b,15:10:50,03/04/2024
,"<div style=""font-size: 10rem; color: #0000FF"">Q</div>",,ospan,letter,0R9BCP6fVpcgEGuQoEJPlkhhZoY2,html-keyboard-response,84,662028,0.0-46.0-2.0-1.0-1.0-1.0,,,,,,,,,,,,,,,60342884b95a3823eaf5fd9b,15:10:50,03/04/2024
1869.0,,,ospan,symmetry,0R9BCP6fVpcgEGuQoEJPlkhhZoY2,symmetry-judgement-task,85,665821,0.0-46.0-2.0-1.0-1.0-2.0,,,,,,,,,,1.0,1.0,,,,60342884b95a3823eaf5fd9b,15:10:50,03/04/2024
,"<div style=""font-size: 10rem; color: #0000FF"">R</div>",,ospan,letter,0R9BCP6fVpcgEGuQoEJPlkhhZoY2,html-keyboard-response,86,666834,0.0-46.0-2.0-1.0-1.0-3.0,,,,,,,,,,,,,,,60342884b95a3823eaf5fd9b,15:10:50,03/04/2024
1600.0,,,ospan,symmetry,0R9BCP6fVpcgEGuQoEJPlkhhZoY2,symmetry-judgement-task,87,670358,0.0-46.0-2.0-1.0-1.0-4.0,,,,,,,,,,1.0,1.0,,,,60342884b95a3823eaf5fd9b,15:10:50,03/04/2024
,"<div style=""font-size: 10rem; color: #0000FF"">H</div>",,ospan,letter,0R9BCP6fVpcgEGuQoEJPlkhhZoY2,html-keyboard-response,88,671372,0.0-46.0-2.0-1.0-1.0-5.0,,,,,,,,,,,,,,,60342884b95a3823eaf5fd9b,15:10:50,03/04/2024
5255.5,"<div class = numbox><p style=""font-size: 2.4rem"">Please recall the letters you saw to the best of your ability. If you do not remember a particular letter, use the SKIP button.<br><b>(When you are ready to lock in your answer, press ENTER)</b></p><button id = button_1 class = ""square num-button"" onclick = ""recordClick(this)""><div class = content><div class = numbers>C</div></div></button><button id = button_2 class = ""square num-button"" onclick = ""recordClick(this)""><div class = content><div class = numbers>G</div></div></button><button id = button_3 class = ""square num-button"" onclick = ""recordClick(this)""><div class = content><div class = numbers>H</div></div></button><button id = button_4 class = ""square num-button"" onclick = ""recordClick(this)""><div class = content><div class = numbers>J</div></div></button><button id = button_5 class = ""square num-button"" onclick = ""recordClick(this)""><div class = content><div class = numbers>K</div></div></button><button id = button_6 class = ""square num-button"" onclick = ""recordClick(this)""><div class = content><div class = numbers>L</div></div></button><button id = button_7 class = ""square num-button"" onclick = ""recordClick(this)""><div class = content><div class = numbers>N</div></div></button><button id = button_8 class = ""square num-button"" onclick = ""recordClick(this)""><div class = content><div class = numbers>P</div></div></button><button id = button_9 class = ""square num-button"" onclick = ""recordClick(this)""><div class = content><div class = numbers>Q</div></div></button><button id = button_10 class = ""square num-button"" onclick = ""recordClick(this)""><div class = content><div class = numbers>R</div></div></button><button id = button_11 class = ""square num-button"" onclick = ""recordClick(this)""><div class = content><div class = numbers>S</div></div></button><button id = button_12 class = ""square num-button"" onclick = ""recordClick(this)""><div class = content><div class = numbers>Y</div></div></button><button class = clear_button id = ""ClearButton"" onclick = ""clearResponse()"">BACKSPACE</button><button class = blank_button id = ""BlankButton"" onclick = ""blankResponse()"">SKIP</button><p style=""font-size: 2.4rem""><u><b>Current Answer:</b></u></p><br><br><div id=echoed_txt style=""font-size: 5rem; color:blue;""><b></b></div></div>",enter,ospan,retrieval,0R9BCP6fVpcgEGuQoEJPlkhhZoY2,html-keyboard-response,89,677390,0.0-46.0-2.0-1.0-2.0-0.0,NA,NA,NA,3.0,"[""Q"",""R"",""H""]","[""Q"",""R"",""H""]",1.0,3.0,"['<font color=""green"">Q</font>', '<font color=""green"">R</font>', '<font color=""green"">H</font>']",,,,,,60342884b95a3823eaf5fd9b,15:10:50,03/04/2024
1804.2000000476837,"['<p style=""font-size:44px"">Letters:<br><br><br><font color=""green"">Q</font> <font color=""green"">R</font> <font color=""green"">H</font></p><br><br><p style=""font-size:30px"">Symmetry:<br><br><font color=""green"">100%</font></p><br><br>']",0,ospan,practice_feedback,0R9BCP6fVpcgEGuQoEJPlkhhZoY2,html-button-response,90,679704,0.0-46.0-2.0-1.0-2.0-1.0,,,,,,,,,,,,,,,60342884b95a3823eaf5fd9b,15:10:50,03/04/2024
,"<p style=""font-size:75px;"">...</p>",,ospan,iti,0R9BCP6fVpcgEGuQoEJPlkhhZoY2,html-keyboard-response,91,680708,0.0-46.0-2.0-2.0-0.0,,,,,,,,,,,,,,,60342884b95a3823eaf5fd9b,15:10:50,03/04/2024
2199.0,,,ospan,symmetry,0R9BCP6fVpcgEGuQoEJPlkhhZoY2,symmetry-judgement-task,92,683960,0.0-46.0-2.0-2.0-1.0-0.0,,,,,,,,,,1.0,1.0,,,,60342884b95a3823eaf5fd9b,15:10:50,03/04/2024
,"<div style=""font-size: 10rem; color: #0000FF"">J</div>",,ospan,letter,0R9BCP6fVpcgEGuQoEJPlkhhZoY2,html-keyboard-response,93,684971,0.0-46.0-2.0-2.0-1.0-1.0,,,,,,,,,,,,,,,60342884b95a3823eaf5fd9b,15:10:50,03/04/2024
1739.0,,,ospan,symmetry,0R9BCP6fVpcgEGuQoEJPlkhhZoY2,symmetry-judgement-task,94,688631,0.0-46.0-2.0-2.0-1.0-2.0,,,,,,,,,,1.0,1.0,,,,60342884b95a3823eaf5fd9b,15:10:50,03/04/2024
,"<div style=""font-size: 10rem; color: #0000FF"">R</div>",,ospan,letter,0R9BCP6fVpcgEGuQoEJPlkhhZoY2,html-keyboard-response,95,689638,0.0-46.0-2.0-2.0-1.0-3.0,,,,,,,,,,,,,,,60342884b95a3823eaf5fd9b,15:10:50,03/04/2024
1344.0,,,ospan,symmetry,0R9BCP6fVpcgEGuQoEJPlkhhZoY2,symmetry-judgement-task,96,692912,0.0-46.0-2.0-2.0-1.0-4.0,,,,,,,,,,1.0,1.0,,,,60342884b95a3823eaf5fd9b,15:10:50,03/04/2024
,"<div style=""font-size: 10rem; color: #0000FF"">G</div>",,ospan,letter,0R9BCP6fVpcgEGuQoEJPlkhhZoY2,html-keyboard-response,97,693916,0.0-46.0-2.0-2.0-1.0-5.0,,,,,,,,,,,,,,,60342884b95a3823eaf5fd9b,15:10:50,03/04/2024
4939.300000190735,"<div class = numbox><p style=""font-size: 2.4rem"">Please recall the letters you saw to the best of your ability. If you do not remember a particular letter, use the SKIP button.<br><b>(When you are ready to lock in your answer, press ENTER)</b></p><button id = button_1 class = ""square num-button"" onclick = ""recordClick(this)""><div class = content><div class = numbers>C</div></div></button><button id = button_2 class = ""square num-button"" onclick = ""recordClick(this)""><div class = content><div class = numbers>G</div></div></button><button id = button_3 class = ""square num-button"" onclick = ""recordClick(this)""><div class = content><div class = numbers>H</div></div></button><button id = button_4 class = ""square num-button"" onclick = ""recordClick(this)""><div class = content><div class = numbers>J</div></div></button><button id = button_5 class = ""square num-button"" onclick = ""recordClick(this)""><div class = content><div class = numbers>K</div></div></button><button id = button_6 class = ""square num-button"" onclick = ""recordClick(this)""><div class = content><div class = numbers>L</div></div></button><button id = button_7 class = ""square num-button"" onclick = ""recordClick(this)""><div class = content><div class = numbers>N</div></div></button><button id = button_8 class = ""square num-button"" onclick = ""recordClick(this)""><div class = content><div class = numbers>P</div></div></button><button id = button_9 class = ""square num-button"" onclick = ""recordClick(this)""><div class = content><div class = numbers>Q</div></div></button><button id = button_10 class = ""square num-button"" onclick = ""recordClick(this)""><div class = content><div class = numbers>R</div></div></button><button id = button_11 class = ""square num-button"" onclick = ""recordClick(this)""><div class = content><div class = numbers>S</div></div></button><button id = button_12 class = ""square num-button"" onclick = ""recordClick(this)""><div class = content><div class = numbers>Y</div></div></button><button class = clear_button id = ""ClearButton"" onclick = ""clearResponse()"">BACKSPACE</button><button class = blank_button id = ""BlankButton"" onclick = ""blankResponse()"">SKIP</button><p style=""font-size: 2.4rem""><u><b>Current Answer:</b></u></p><br><br><div id=echoed_txt style=""font-size: 5rem; color:blue;""><b></b></div></div>",enter,ospan,retrieval,0R9BCP6fVpcgEGuQoEJPlkhhZoY2,html-keyboard-response,98,699614,0.0-46.0-2.0-2.0-2.0-0.0,NA,NA,NA,3.0,"[""J"",""R"",""G""]","[""J"",""R"",""G""]",1.0,3.0,"['<font color=""green"">J</font>', '<font color=""green"">R</font>', '<font color=""green"">G</font>']",,,,,,60342884b95a3823eaf5fd9b,15:10:50,03/04/2024
1364.2999999523163,"['<p style=""font-size:44px"">Letters:<br><br><br><font color=""green"">J</font> <font color=""green"">R</font> <font color=""green"">G</font></p><br><br><p style=""font-size:30px"">Symmetry:<br><br><font color=""green"">100%</font></p><br><br>']",0,ospan,practice_feedback,0R9BCP6fVpcgEGuQoEJPlkhhZoY2,html-button-response,99,701486,0.0-46.0-2.0-2.0-2.0-1.0,,,,,,,,,,,,,,,60342884b95a3823eaf5fd9b,15:10:50,03/04/2024
18573.200000047684,"<div class = 'left_align' style='font-size: 3rem; line-height: 1.3;'><b>Great work! That is the end of practice.</b><br><br>The real trials will look just like the practice trials you just completed.<br><br><u>Here, you will not see feedback</u>. First, you will see an grid picture to judge,<br>then a letter to remember. When the recall screen appears, report the letters in the<br>order presented. If you forget a letter, remember to use the <b>blank</b> button to move to the<br>next letter. Some of the sets will have more symmetry grids and letters than others.<br><br>It is important that you do your best on both the symmetry judgments and the letter recall<br>parts of the experiment. For for the symmetry judgments, try to work as <b>quickly</b> and <br>as <b>accurately</b> as possible. Remember to keep your symmetry accuracy at 85% or above.<br><br><b>For the letters, do NOT use any external aid (e.g., writing on paper, electronic device).</b><br><br>It is <u>very important</u> to our experiment to have a <b>true</b> view of your real performance.<br><br>Do not worry if you miss some when it gets hard! This task is meant to be very challenging!<br><br>Click the button to begin.</div><br><br><br><br>",0,ospan,starting_real_here,0R9BCP6fVpcgEGuQoEJPlkhhZoY2,html-button-response,100,720059,0.0-46.0-2.0-3.0,,,,,,,,,,,,,,,60342884b95a3823eaf5fd9b,15:10:50,03/04/2024
,"<p style=""font-size:75px;"">...</p>",,ospan,iti,0R9BCP6fVpcgEGuQoEJPlkhhZoY2,html-keyboard-response,101,721327,0.0-46.0-3.0-0.0-0.0,,,,,,,,,,,,,,,60342884b95a3823eaf5fd9b,15:10:50,03/04/2024
1633.0,,,ospan,symmetry,0R9BCP6fVpcgEGuQoEJPlkhhZoY2,symmetry-judgement-task,102,723998,0.0-46.0-3.0-0.0-1.0-0.0,,,,,,,,,,1.0,1.0,,,,60342884b95a3823eaf5fd9b,15:10:50,03/04/2024
,"<div style=""font-size: 10rem; color: #0000FF"">Y</div>",,ospan,letter,0R9BCP6fVpcgEGuQoEJPlkhhZoY2,html-keyboard-response,103,725012,0.0-46.0-3.0-0.0-1.0-1.0,,,,,,,,,,,,,,,60342884b95a3823eaf5fd9b,15:10:50,03/04/2024
1942.0,,,ospan,symmetry,0R9BCP6fVpcgEGuQoEJPlkhhZoY2,symmetry-judgement-task,104,728868,0.0-46.0-3.0-0.0-1.0-2.0,,,,,,,,,,1.0,1.0,,,,60342884b95a3823eaf5fd9b,15:10:50,03/04/2024
,"<div style=""font-size: 10rem; color: #0000FF"">R</div>",,ospan,letter,0R9BCP6fVpcgEGuQoEJPlkhhZoY2,html-keyboard-response,105,729876,0.0-46.0-3.0-0.0-1.0-3.0,,,,,,,,,,,,,,,60342884b95a3823eaf5fd9b,15:10:50,03/04/2024
1598.0,,,ospan,symmetry,0R9BCP6fVpcgEGuQoEJPlkhhZoY2,symmetry-judgement-task,106,733428,0.0-46.0-3.0-0.0-1.0-4.0,,,,,,,,,,1.0,1.0,,,,60342884b95a3823eaf5fd9b,15:10:50,03/04/2024
,"<div style=""font-size: 10rem; color: #0000FF"">N</div>",,ospan,letter,0R9BCP6fVpcgEGuQoEJPlkhhZoY2,html-keyboard-response,107,734443,0.0-46.0-3.0-0.0-1.0-5.0,,,,,,,,,,,,,,,60342884b95a3823eaf5fd9b,15:10:50,03/04/2024
4221.599999904633,"<div class = numbox><p style=""font-size: 2.4rem"">Please recall the letters you saw to the best of your ability. If you do not remember a particular letter, use the SKIP button.<br><b>(When you are ready to lock in your answer, press ENTER)</b></p><button id = button_1 class = ""square num-button"" onclick = ""recordClick(this)""><div class = content><div class = numbers>C</div></div></button><button id = button_2 class = ""square num-button"" onclick = ""recordClick(this)""><div class = content><div class = numbers>G</div></div></button><button id = button_3 class = ""square num-button"" onclick = ""recordClick(this)""><div class = content><div class = numbers>H</div></div></button><button id = button_4 class = ""square num-button"" onclick = ""recordClick(this)""><div class = content><div class = numbers>J</div></div></button><button id = button_5 class = ""square num-button"" onclick = ""recordClick(this)""><div class = content><div class = numbers>K</div></div></button><button id = button_6 class = ""square num-button"" onclick = ""recordClick(this)""><div class = content><div class = numbers>L</div></div></button><button id = button_7 class = ""square num-button"" onclick = ""recordClick(this)""><div class = content><div class = numbers>N</div></div></button><button id = button_8 class = ""square num-button"" onclick = ""recordClick(this)""><div class = content><div class = numbers>P</div></div></button><button id = button_9 class = ""square num-button"" onclick = ""recordClick(this)""><div class = content><div class = numbers>Q</div></div></button><button id = button_10 class = ""square num-button"" onclick = ""recordClick(this)""><div class = content><div class = numbers>R</div></div></button><button id = button_11 class = ""square num-button"" onclick = ""recordClick(this)""><div class = content><div class = numbers>S</div></div></button><button id = button_12 class = ""square num-button"" onclick = ""recordClick(this)""><div class = content><div class = numbers>Y</div></div></button><button class = clear_button id = ""ClearButton"" onclick = ""clearResponse()"">BACKSPACE</button><button class = blank_button id = ""BlankButton"" onclick = ""blankResponse()"">SKIP</button><p style=""font-size: 2.4rem""><u><b>Current Answer:</b></u></p><br><br><div id=echoed_txt style=""font-size: 5rem; color:blue;""><b></b></div></div>",enter,ospan,retrieval,0R9BCP6fVpcgEGuQoEJPlkhhZoY2,html-keyboard-response,108,739422,0.0-46.0-3.0-0.0-2.0,3,3,3,3.0,"[""Y"",""R"",""N""]","[""Y"",""R"",""N""]",1.0,3.0,,,,,,,60342884b95a3823eaf5fd9b,15:10:50,03/04/2024
4695.0,[''],0,ospan,feedback,0R9BCP6fVpcgEGuQoEJPlkhhZoY2,html-button-response,109,744620,0.0-46.0-3.0-0.0-3.0,,,,,,,,,,,,100.0,0.0,,60342884b95a3823eaf5fd9b,15:10:50,03/04/2024
,"<p style=""font-size:75px;"">...</p>",,ospan,iti,0R9BCP6fVpcgEGuQoEJPlkhhZoY2,html-keyboard-response,110,745622,0.0-46.0-4.0-0.0-0.0,,,,,,,,,,,,,,,60342884b95a3823eaf5fd9b,15:10:50,03/04/2024
1263.0,,,ospan,symmetry,0R9BCP6fVpcgEGuQoEJPlkhhZoY2,symmetry-judgement-task,111,747941,0.0-46.0-4.0-0.0-1.0-0.0,,,,,,,,,,1.0,1.0,,,,60342884b95a3823eaf5fd9b,15:10:50,03/04/2024
,"<div style=""font-size: 10rem; color: #0000FF"">L</div>",,ospan,letter,0R9BCP6fVpcgEGuQoEJPlkhhZoY2,html-keyboard-response,112,748945,0.0-46.0-4.0-0.0-1.0-1.0,,,,,,,,,,,,,,,60342884b95a3823eaf5fd9b,15:10:50,03/04/2024
2173.0,,,ospan,symmetry,0R9BCP6fVpcgEGuQoEJPlkhhZoY2,symmetry-judgement-task,113,753052,0.0-46.0-4.0-0.0-1.0-2.0,,,,,,,,,,1.0,1.0,,,,60342884b95a3823eaf5fd9b,15:10:50,03/04/2024
,"<div style=""font-size: 10rem; color: #0000FF"">K</div>",,ospan,letter,0R9BCP6fVpcgEGuQoEJPlkhhZoY2,html-keyboard-response,114,754055,0.0-46.0-4.0-0.0-1.0-3.0,,,,,,,,,,,,,,,60342884b95a3823eaf5fd9b,15:10:50,03/04/2024
3087.0,,,ospan,symmetry,0R9BCP6fVpcgEGuQoEJPlkhhZoY2,symmetry-judgement-task,115,759056,0.0-46.0-4.0-0.0-1.0-4.0,,,,,,,,,,1.0,1.0,,,,60342884b95a3823eaf5fd9b,15:10:50,03/04/2024
,"<div style=""font-size: 10rem; color: #0000FF"">Y</div>",,ospan,letter,0R9BCP6fVpcgEGuQoEJPlkhhZoY2,html-keyboard-response,116,760071,0.0-46.0-4.0-0.0-1.0-5.0,,,,,,,,,,,,,,,60342884b95a3823eaf5fd9b,15:10:50,03/04/2024
2003.0,,,ospan,symmetry,0R9BCP6fVpcgEGuQoEJPlkhhZoY2,symmetry-judgement-task,117,763871,0.0-46.0-4.0-0.0-1.0-6.0,,,,,,,,,,1.0,1.0,,,,60342884b95a3823eaf5fd9b,15:10:50,03/04/2024
,"<div style=""font-size: 10rem; color: #0000FF"">H</div>",,ospan,letter,0R9BCP6fVpcgEGuQoEJPlkhhZoY2,html-keyboard-response,118,764877,0.0-46.0-4.0-0.0-1.0-7.0,,,,,,,,,,,,,,,60342884b95a3823eaf5fd9b,15:10:50,03/04/2024
5542.099999904633,"<div class = numbox><p style=""font-size: 2.4rem"">Please recall the letters you saw to the best of your ability. If you do not remember a particular letter, use the SKIP button.<br><b>(When you are ready to lock in your answer, press ENTER)</b></p><button id = button_1 class = ""square num-button"" onclick = ""recordClick(this)""><div class = content><div class = numbers>C</div></div></button><button id = button_2 class = ""square num-button"" onclick = ""recordClick(this)""><div class = content><div class = numbers>G</div></div></button><button id = button_3 class = ""square num-button"" onclick = ""recordClick(this)""><div class = content><div class = numbers>H</div></div></button><button id = button_4 class = ""square num-button"" onclick = ""recordClick(this)""><div class = content><div class = numbers>J</div></div></button><button id = button_5 class = ""square num-button"" onclick = ""recordClick(this)""><div class = content><div class = numbers>K</div></div></button><button id = button_6 class = ""square num-button"" onclick = ""recordClick(this)""><div class = content><div class = numbers>L</div></div></button><button id = button_7 class = ""square num-button"" onclick = ""recordClick(this)""><div class = content><div class = numbers>N</div></div></button><button id = button_8 class = ""square num-button"" onclick = ""recordClick(this)""><div class = content><div class = numbers>P</div></div></button><button id = button_9 class = ""square num-button"" onclick = ""recordClick(this)""><div class = content><div class = numbers>Q</div></div></button><button id = button_10 class = ""square num-button"" onclick = ""recordClick(this)""><div class = content><div class = numbers>R</div></div></button><button id = button_11 class = ""square num-button"" onclick = ""recordClick(this)""><div class = content><div class = numbers>S</div></div></button><button id = button_12 class = ""square num-button"" onclick = ""recordClick(this)""><div class = content><div class = numbers>Y</div></div></button><button class = clear_button id = ""ClearButton"" onclick = ""clearResponse()"">BACKSPACE</button><button class = blank_button id = ""BlankButton"" onclick = ""blankResponse()"">SKIP</button><p style=""font-size: 2.4rem""><u><b>Current Answer:</b></u></p><br><br><div id=echoed_txt style=""font-size: 5rem; color:blue;""><b></b></div></div>",enter,ospan,retrieval,0R9BCP6fVpcgEGuQoEJPlkhhZoY2,html-keyboard-response,119,771182,0.0-46.0-4.0-0.0-2.0,7,7,7,4.0,"[""L"",""K"",""Y"",""H""]","[""L"",""K"",""Y"",""H""]",1.0,4.0,,,,,,,60342884b95a3823eaf5fd9b,15:10:50,03/04/2024
1060.5999999046326,[''],0,ospan,feedback,0R9BCP6fVpcgEGuQoEJPlkhhZoY2,html-button-response,120,772748,0.0-46.0-4.0-0.0-3.0,,,,,,,,,,,,100.0,0.0,,60342884b95a3823eaf5fd9b,15:10:50,03/04/2024
,"<p style=""font-size:75px;"">...</p>",,ospan,iti,0R9BCP6fVpcgEGuQoEJPlkhhZoY2,html-keyboard-response,121,773755,0.0-46.0-4.0-1.0-0.0,,,,,,,,,,,,,,,60342884b95a3823eaf5fd9b,15:10:50,03/04/2024
1786.0,,,ospan,symmetry,0R9BCP6fVpcgEGuQoEJPlkhhZoY2,symmetry-judgement-task,122,776574,0.0-46.0-4.0-1.0-1.0-0.0,,,,,,,,,,1.0,1.0,,,,60342884b95a3823eaf5fd9b,15:10:50,03/04/2024
,"<div style=""font-size: 10rem; color: #0000FF"">S</div>",,ospan,letter,0R9BCP6fVpcgEGuQoEJPlkhhZoY2,html-keyboard-response,123,777589,0.0-46.0-4.0-1.0-1.0-1.0,,,,,,,,,,,,,,,60342884b95a3823eaf5fd9b,15:10:50,03/04/2024
2584.0,,,ospan,symmetry,0R9BCP6fVpcgEGuQoEJPlkhhZoY2,symmetry-judgement-task,124,782093,0.0-46.0-4.0-1.0-1.0-2.0,,,,,,,,,,1.0,1.0,,,,60342884b95a3823eaf5fd9b,15:10:50,03/04/2024
,"<div style=""font-size: 10rem; color: #0000FF"">H</div>",,ospan,letter,0R9BCP6fVpcgEGuQoEJPlkhhZoY2,html-keyboard-response,125,783111,0.0-46.0-4.0-1.0-1.0-3.0,,,,,,,,,,,,,,,60342884b95a3823eaf5fd9b,15:10:50,03/04/2024
1441.0,,,ospan,symmetry,0R9BCP6fVpcgEGuQoEJPlkhhZoY2,symmetry-judgement-task,126,786469,0.0-46.0-4.0-1.0-1.0-4.0,,,,,,,,,,1.0,1.0,,,,60342884b95a3823eaf5fd9b,15:10:50,03/04/2024
,"<div style=""font-size: 10rem; color: #0000FF"">J</div>",,ospan,letter,0R9BCP6fVpcgEGuQoEJPlkhhZoY2,html-keyboard-response,127,787477,0.0-46.0-4.0-1.0-1.0-5.0,,,,,,,,,,,,,,,60342884b95a3823eaf5fd9b,15:10:50,03/04/2024
1916.0,,,ospan,symmetry,0R9BCP6fVpcgEGuQoEJPlkhhZoY2,symmetry-judgement-task,128,791300,0.0-46.0-4.0-1.0-1.0-6.0,,,,,,,,,,1.0,1.0,,,,60342884b95a3823eaf5fd9b,15:10:50,03/04/2024
,"<div style=""font-size: 10rem; color: #0000FF"">L</div>",,ospan,letter,0R9BCP6fVpcgEGuQoEJPlkhhZoY2,html-keyboard-response,129,792308,0.0-46.0-4.0-1.0-1.0-7.0,,,,,,,,,,,,,,,60342884b95a3823eaf5fd9b,15:10:50,03/04/2024
1522.0,,,ospan,symmetry,0R9BCP6fVpcgEGuQoEJPlkhhZoY2,symmetry-judgement-task,130,795769,0.0-46.0-4.0-1.0-1.0-8.0,,,,,,,,,,1.0,1.0,,,,60342884b95a3823eaf5fd9b,15:10:50,03/04/2024
,"<div style=""font-size: 10rem; color: #0000FF"">R</div>",,ospan,letter,0R9BCP6fVpcgEGuQoEJPlkhhZoY2,html-keyboard-response,131,796778,0.0-46.0-4.0-1.0-1.0-9.0,,,,,,,,,,,,,,,60342884b95a3823eaf5fd9b,15:10:50,03/04/2024
6702.799999952316,"<div class = numbox><p style=""font-size: 2.4rem"">Please recall the letters you saw to the best of your ability. If you do not remember a particular letter, use the SKIP button.<br><b>(When you are ready to lock in your answer, press ENTER)</b></p><button id = button_1 class = ""square num-button"" onclick = ""recordClick(this)""><div class = content><div class = numbers>C</div></div></button><button id = button_2 class = ""square num-button"" onclick = ""recordClick(this)""><div class = content><div class = numbers>G</div></div></button><button id = button_3 class = ""square num-button"" onclick = ""recordClick(this)""><div class = content><div class = numbers>H</div></div></button><button id = button_4 class = ""square num-button"" onclick = ""recordClick(this)""><div class = content><div class = numbers>J</div></div></button><button id = button_5 class = ""square num-button"" onclick = ""recordClick(this)""><div class = content><div class = numbers>K</div></div></button><button id = button_6 class = ""square num-button"" onclick = ""recordClick(this)""><div class = content><div class = numbers>L</div></div></button><button id = button_7 class = ""square num-button"" onclick = ""recordClick(this)""><div class = content><div class = numbers>N</div></div></button><button id = button_8 class = ""square num-button"" onclick = ""recordClick(this)""><div class = content><div class = numbers>P</div></div></button><button id = button_9 class = ""square num-button"" onclick = ""recordClick(this)""><div class = content><div class = numbers>Q</div></div></button><button id = button_10 class = ""square num-button"" onclick = ""recordClick(this)""><div class = content><div class = numbers>R</div></div></button><button id = button_11 class = ""square num-button"" onclick = ""recordClick(this)""><div class = content><div class = numbers>S</div></div></button><button id = button_12 class = ""square num-button"" onclick = ""recordClick(this)""><div class = content><div class = numbers>Y</div></div></button><button class = clear_button id = ""ClearButton"" onclick = ""clearResponse()"">BACKSPACE</button><button class = blank_button id = ""BlankButton"" onclick = ""blankResponse()"">SKIP</button><p style=""font-size: 2.4rem""><u><b>Current Answer:</b></u></p><br><br><div id=echoed_txt style=""font-size: 5rem; color:blue;""><b></b></div></div>",enter,ospan,retrieval,0R9BCP6fVpcgEGuQoEJPlkhhZoY2,html-keyboard-response,132,804238,0.0-46.0-4.0-1.0-2.0,12,12,12,5.0,"[""S"",""H"",""J"",""L"",""R""]","[""S"",""H"",""J"",""L"",""R""]",1.0,5.0,,,,,,,60342884b95a3823eaf5fd9b,15:10:50,03/04/2024
2213.399999856949,[''],0,ospan,feedback,0R9BCP6fVpcgEGuQoEJPlkhhZoY2,html-button-response,133,806964,0.0-46.0-4.0-1.0-3.0,,,,,,,,,,,,100.0,0.0,,60342884b95a3823eaf5fd9b,15:10:50,03/04/2024
,"<p style=""font-size:75px;"">...</p>",,ospan,iti,0R9BCP6fVpcgEGuQoEJPlkhhZoY2,html-keyboard-response,134,807976,0.0-46.0-4.0-2.0-0.0,,,,,,,,,,,,,,,60342884b95a3823eaf5fd9b,15:10:50,03/04/2024
1638.0,,,ospan,symmetry,0R9BCP6fVpcgEGuQoEJPlkhhZoY2,symmetry-judgement-task,135,810780,0.0-46.0-4.0-2.0-1.0-0.0,,,,,,,,,,1.0,1.0,,,,60342884b95a3823eaf5fd9b,15:10:50,03/04/2024
,"<div style=""font-size: 10rem; color: #0000FF"">Y</div>",,ospan,letter,0R9BCP6fVpcgEGuQoEJPlkhhZoY2,html-keyboard-response,136,811790,0.0-46.0-4.0-2.0-1.0-1.0,,,,,,,,,,,,,,,60342884b95a3823eaf5fd9b,15:10:50,03/04/2024
1476.0,,,ospan,symmetry,0R9BCP6fVpcgEGuQoEJPlkhhZoY2,symmetry-judgement-task,137,815180,0.0-46.0-4.0-2.0-1.0-2.0,,,,,,,,,,1.0,1.0,,,,60342884b95a3823eaf5fd9b,15:10:50,03/04/2024
,"<div style=""font-size: 10rem; color: #0000FF"">N</div>",,ospan,letter,0R9BCP6fVpcgEGuQoEJPlkhhZoY2,html-keyboard-response,138,816196,0.0-46.0-4.0-2.0-1.0-3.0,,,,,,,,,,,,,,,60342884b95a3823eaf5fd9b,15:10:50,03/04/2024
1630.0,,,ospan,symmetry,0R9BCP6fVpcgEGuQoEJPlkhhZoY2,symmetry-judgement-task,139,819744,0.0-46.0-4.0-2.0-1.0-4.0,,,,,,,,,,1.0,1.0,,,,60342884b95a3823eaf5fd9b,15:10:50,03/04/2024
,"<div style=""font-size: 10rem; color: #0000FF"">R</div>",,ospan,letter,0R9BCP6fVpcgEGuQoEJPlkhhZoY2,html-keyboard-response,140,820755,0.0-46.0-4.0-2.0-1.0-5.0,,,,,,,,,,,,,,,60342884b95a3823eaf5fd9b,15:10:50,03/04/2024
3794.399999856949,"<div class = numbox><p style=""font-size: 2.4rem"">Please recall the letters you saw to the best of your ability. If you do not remember a particular letter, use the SKIP button.<br><b>(When you are ready to lock in your answer, press ENTER)</b></p><button id = button_1 class = ""square num-button"" onclick = ""recordClick(this)""><div class = content><div class = numbers>C</div></div></button><button id = button_2 class = ""square num-button"" onclick = ""recordClick(this)""><div class = content><div class = numbers>G</div></div></button><button id = button_3 class = ""square num-button"" onclick = ""recordClick(this)""><div class = content><div class = numbers>H</div></div></button><button id = button_4 class = ""square num-button"" onclick = ""recordClick(this)""><div class = content><div class = numbers>J</div></div></button><button id = button_5 class = ""square num-button"" onclick = ""recordClick(this)""><div class = content><div class = numbers>K</div></div></button><button id = button_6 class = ""square num-button"" onclick = ""recordClick(this)""><div class = content><div class = numbers>L</div></div></button><button id = button_7 class = ""square num-button"" onclick = ""recordClick(this)""><div class = content><div class = numbers>N</div></div></button><button id = button_8 class = ""square num-button"" onclick = ""recordClick(this)""><div class = content><div class = numbers>P</div></div></button><button id = button_9 class = ""square num-button"" onclick = ""recordClick(this)""><div class = content><div class = numbers>Q</div></div></button><button id = button_10 class = ""square num-button"" onclick = ""recordClick(this)""><div class = content><div class = numbers>R</div></div></button><button id = button_11 class = ""square num-button"" onclick = ""recordClick(this)""><div class = content><div class = numbers>S</div></div></button><button id = button_12 class = ""square num-button"" onclick = ""recordClick(this)""><div class = content><div class = numbers>Y</div></div></button><button class = clear_button id = ""ClearButton"" onclick = ""clearResponse()"">BACKSPACE</button><button class = blank_button id = ""BlankButton"" onclick = ""blankResponse()"">SKIP</button><p style=""font-size: 2.4rem""><u><b>Current Answer:</b></u></p><br><br><div id=echoed_txt style=""font-size: 5rem; color:blue;""><b></b></div></div>",enter,ospan,retrieval,0R9BCP6fVpcgEGuQoEJPlkhhZoY2,html-keyboard-response,141,825301,0.0-46.0-4.0-2.0-2.0,15,15,15,3.0,"[""Y"",""N"",""R""]","[""Y"",""N"",""R""]",1.0,3.0,,,,,,,60342884b95a3823eaf5fd9b,15:10:50,03/04/2024
859.0,[''],0,ospan,feedback,0R9BCP6fVpcgEGuQoEJPlkhhZoY2,html-button-response,142,826669,0.0-46.0-4.0-2.0-3.0,,,,,,,,,,,,100.0,0.0,,60342884b95a3823eaf5fd9b,15:10:50,03/04/2024
,"<p style=""font-size:75px;"">...</p>",,ospan,iti,0R9BCP6fVpcgEGuQoEJPlkhhZoY2,html-keyboard-response,143,827679,0.0-46.0-5.0-0.0-0.0,,,,,,,,,,,,,,,60342884b95a3823eaf5fd9b,15:10:50,03/04/2024
1339.0,,,ospan,symmetry,0R9BCP6fVpcgEGuQoEJPlkhhZoY2,symmetry-judgement-task,144,830053,0.0-46.0-5.0-0.0-1.0-0.0,,,,,,,,,,1.0,1.0,,,,60342884b95a3823eaf5fd9b,15:10:50,03/04/2024
,"<div style=""font-size: 10rem; color: #0000FF"">L</div>",,ospan,letter,0R9BCP6fVpcgEGuQoEJPlkhhZoY2,html-keyboard-response,145,831060,0.0-46.0-5.0-0.0-1.0-1.0,,,,,,,,,,,,,,,60342884b95a3823eaf5fd9b,15:10:50,03/04/2024
1821.0,,,ospan,symmetry,0R9BCP6fVpcgEGuQoEJPlkhhZoY2,symmetry-judgement-task,146,834793,0.0-46.0-5.0-0.0-1.0-2.0,,,,,,,,,,1.0,1.0,,,,60342884b95a3823eaf5fd9b,15:10:50,03/04/2024
,"<div style=""font-size: 10rem; color: #0000FF"">Q</div>",,ospan,letter,0R9BCP6fVpcgEGuQoEJPlkhhZoY2,html-keyboard-response,147,835806,0.0-46.0-5.0-0.0-1.0-3.0,,,,,,,,,,,,,,,60342884b95a3823eaf5fd9b,15:10:50,03/04/2024
1501.0,,,ospan,symmetry,0R9BCP6fVpcgEGuQoEJPlkhhZoY2,symmetry-judgement-task,148,839217,0.0-46.0-5.0-0.0-1.0-4.0,,,,,,,,,,1.0,1.0,,,,60342884b95a3823eaf5fd9b,15:10:50,03/04/2024
,"<div style=""font-size: 10rem; color: #0000FF"">H</div>",,ospan,letter,0R9BCP6fVpcgEGuQoEJPlkhhZoY2,html-keyboard-response,149,840219,0.0-46.0-5.0-0.0-1.0-5.0,,,,,,,,,,,,,,,60342884b95a3823eaf5fd9b,15:10:50,03/04/2024
1493.0,,,ospan,symmetry,0R9BCP6fVpcgEGuQoEJPlkhhZoY2,symmetry-judgement-task,150,843679,0.0-46.0-5.0-0.0-1.0-6.0,,,,,,,,,,1.0,1.0,,,,60342884b95a3823eaf5fd9b,15:10:50,03/04/2024
,"<div style=""font-size: 10rem; color: #0000FF"">J</div>",,ospan,letter,0R9BCP6fVpcgEGuQoEJPlkhhZoY2,html-keyboard-response,151,844681,0.0-46.0-5.0-0.0-1.0-7.0,,,,,,,,,,,,,,,60342884b95a3823eaf5fd9b,15:10:50,03/04/2024
1475.0,,,ospan,symmetry,0R9BCP6fVpcgEGuQoEJPlkhhZoY2,symmetry-judgement-task,152,848082,0.0-46.0-5.0-0.0-1.0-8.0,,,,,,,,,,1.0,1.0,,,,60342884b95a3823eaf5fd9b,15:10:50,03/04/2024
,"<div style=""font-size: 10rem; color: #0000FF"">P</div>",,ospan,letter,0R9BCP6fVpcgEGuQoEJPlkhhZoY2,html-keyboard-response,153,849085,0.0-46.0-5.0-0.0-1.0-9.0,,,,,,,,,,,,,,,60342884b95a3823eaf5fd9b,15:10:50,03/04/2024
1904.0,,,ospan,symmetry,0R9BCP6fVpcgEGuQoEJPlkhhZoY2,symmetry-judgement-task,154,852927,0.0-46.0-5.0-0.0-1.0-10.0,,,,,,,,,,1.0,1.0,,,,60342884b95a3823eaf5fd9b,15:10:50,03/04/2024
,"<div style=""font-size: 10rem; color: #0000FF"">Y</div>",,ospan,letter,0R9BCP6fVpcgEGuQoEJPlkhhZoY2,html-keyboard-response,155,853930,0.0-46.0-5.0-0.0-1.0-11.0,,,,,,,,,,,,,,,60342884b95a3823eaf5fd9b,15:10:50,03/04/2024
7494.5,"<div class = numbox><p style=""font-size: 2.4rem"">Please recall the letters you saw to the best of your ability. If you do not remember a particular letter, use the SKIP button.<br><b>(When you are ready to lock in your answer, press ENTER)</b></p><button id = button_1 class = ""square num-button"" onclick = ""recordClick(this)""><div class = content><div class = numbers>C</div></div></button><button id = button_2 class = ""square num-button"" onclick = ""recordClick(this)""><div class = content><div class = numbers>G</div></div></button><button id = button_3 class = ""square num-button"" onclick = ""recordClick(this)""><div class = content><div class = numbers>H</div></div></button><button id = button_4 class = ""square num-button"" onclick = ""recordClick(this)""><div class = content><div class = numbers>J</div></div></button><button id = button_5 class = ""square num-button"" onclick = ""recordClick(this)""><div class = content><div class = numbers>K</div></div></button><button id = button_6 class = ""square num-button"" onclick = ""recordClick(this)""><div class = content><div class = numbers>L</div></div></button><button id = button_7 class = ""square num-button"" onclick = ""recordClick(this)""><div class = content><div class = numbers>N</div></div></button><button id = button_8 class = ""square num-button"" onclick = ""recordClick(this)""><div class = content><div class = numbers>P</div></div></button><button id = button_9 class = ""square num-button"" onclick = ""recordClick(this)""><div class = content><div class = numbers>Q</div></div></button><button id = button_10 class = ""square num-button"" onclick = ""recordClick(this)""><div class = content><div class = numbers>R</div></div></button><button id = button_11 class = ""square num-button"" onclick = ""recordClick(this)""><div class = content><div class = numbers>S</div></div></button><button id = button_12 class = ""square num-button"" onclick = ""recordClick(this)""><div class = content><div class = numbers>Y</div></div></button><button class = clear_button id = ""ClearButton"" onclick = ""clearResponse()"">BACKSPACE</button><button class = blank_button id = ""BlankButton"" onclick = ""blankResponse()"">SKIP</button><p style=""font-size: 2.4rem""><u><b>Current Answer:</b></u></p><br><br><div id=echoed_txt style=""font-size: 5rem; color:blue;""><b></b></div></div>",enter,ospan,retrieval,0R9BCP6fVpcgEGuQoEJPlkhhZoY2,html-keyboard-response,156,862189,0.0-46.0-5.0-0.0-2.0,21,21,21,6.0,"[""L"",""Q"",""H"",""J"",""P"",""Y""]","[""L"",""Q"",""H"",""J"",""P"",""Y""]",1.0,6.0,,,,,,,60342884b95a3823eaf5fd9b,15:10:50,03/04/2024
1321.5,[''],0,ospan,feedback,0R9BCP6fVpcgEGuQoEJPlkhhZoY2,html-button-response,157,864021,0.0-46.0-5.0-0.0-3.0,,,,,,,,,,,,100.0,0.0,,60342884b95a3823eaf5fd9b,15:10:50,03/04/2024
,"<p style=""font-size:75px;"">...</p>",,ospan,iti,0R9BCP6fVpcgEGuQoEJPlkhhZoY2,html-keyboard-response,158,865038,0.0-46.0-5.0-1.0-0.0,,,,,,,,,,,,,,,60342884b95a3823eaf5fd9b,15:10:50,03/04/2024
1676.0,,,ospan,symmetry,0R9BCP6fVpcgEGuQoEJPlkhhZoY2,symmetry-judgement-task,159,867914,0.0-46.0-5.0-1.0-1.0-0.0,,,,,,,,,,1.0,1.0,,,,60342884b95a3823eaf5fd9b,15:10:50,03/04/2024
,"<div style=""font-size: 10rem; color: #0000FF"">J</div>",,ospan,letter,0R9BCP6fVpcgEGuQoEJPlkhhZoY2,html-keyboard-response,160,868924,0.0-46.0-5.0-1.0-1.0-1.0,,,,,,,,,,,,,,,60342884b95a3823eaf5fd9b,15:10:50,03/04/2024
1875.0,,,ospan,symmetry,0R9BCP6fVpcgEGuQoEJPlkhhZoY2,symmetry-judgement-task,161,872717,0.0-46.0-5.0-1.0-1.0-2.0,,,,,,,,,,1.0,1.0,,,,60342884b95a3823eaf5fd9b,15:10:50,03/04/2024
,"<div style=""font-size: 10rem; color: #0000FF"">Y</div>",,ospan,letter,0R9BCP6fVpcgEGuQoEJPlkhhZoY2,html-keyboard-response,162,873730,0.0-46.0-5.0-1.0-1.0-3.0,,,,,,,,,,,,,,,60342884b95a3823eaf5fd9b,15:10:50,03/04/2024
3103.0,,,ospan,symmetry,0R9BCP6fVpcgEGuQoEJPlkhhZoY2,symmetry-judgement-task,163,878766,0.0-46.0-5.0-1.0-1.0-4.0,,,,,,,,,,1.0,1.0,,,,60342884b95a3823eaf5fd9b,15:10:50,03/04/2024
,"<div style=""font-size: 10rem; color: #0000FF"">Q</div>",,ospan,letter,0R9BCP6fVpcgEGuQoEJPlkhhZoY2,html-keyboard-response,164,879780,0.0-46.0-5.0-1.0-1.0-5.0,,,,,,,,,,,,,,,60342884b95a3823eaf5fd9b,15:10:50,03/04/2024
1662.0,,,ospan,symmetry,0R9BCP6fVpcgEGuQoEJPlkhhZoY2,symmetry-judgement-task,165,883355,0.0-46.0-5.0-1.0-1.0-6.0,,,,,,,,,,1.0,1.0,,,,60342884b95a3823eaf5fd9b,15:10:50,03/04/2024
,"<div style=""font-size: 10rem; color: #0000FF"">S</div>",,ospan,letter,0R9BCP6fVpcgEGuQoEJPlkhhZoY2,html-keyboard-response,166,884364,0.0-46.0-5.0-1.0-1.0-7.0,,,,,,,,,,,,,,,60342884b95a3823eaf5fd9b,15:10:50,03/04/2024
1690.0,,,ospan,symmetry,0R9BCP6fVpcgEGuQoEJPlkhhZoY2,symmetry-judgement-task,167,887977,0.0-46.0-5.0-1.0-1.0-8.0,,,,,,,,,,1.0,1.0,,,,60342884b95a3823eaf5fd9b,15:10:50,03/04/2024
,"<div style=""font-size: 10rem; color: #0000FF"">C</div>",,ospan,letter,0R9BCP6fVpcgEGuQoEJPlkhhZoY2,html-keyboard-response,168,888984,0.0-46.0-5.0-1.0-1.0-9.0,,,,,,,,,,,,,,,60342884b95a3823eaf5fd9b,15:10:50,03/04/2024
2473.0,,,ospan,symmetry,0R9BCP6fVpcgEGuQoEJPlkhhZoY2,symmetry-judgement-task,169,893360,0.0-46.0-5.0-1.0-1.0-10.0,,,,,,,,,,1.0,1.0,,,,60342884b95a3823eaf5fd9b,15:10:50,03/04/2024
,"<div style=""font-size: 10rem; color: #0000FF"">R</div>",,ospan,letter,0R9BCP6fVpcgEGuQoEJPlkhhZoY2,html-keyboard-response,170,894366,0.0-46.0-5.0-1.0-1.0-11.0,,,,,,,,,,,,,,,60342884b95a3823eaf5fd9b,15:10:50,03/04/2024
1266.0,,,ospan,symmetry,0R9BCP6fVpcgEGuQoEJPlkhhZoY2,symmetry-judgement-task,171,897555,0.0-46.0-5.0-1.0-1.0-12.0,,,,,,,,,,1.0,1.0,,,,60342884b95a3823eaf5fd9b,15:10:50,03/04/2024
,"<div style=""font-size: 10rem; color: #0000FF"">G</div>",,ospan,letter,0R9BCP6fVpcgEGuQoEJPlkhhZoY2,html-keyboard-response,172,898564,0.0-46.0-5.0-1.0-1.0-13.0,,,,,,,,,,,,,,,60342884b95a3823eaf5fd9b,15:10:50,03/04/2024
19912.700000047684,"<div class = numbox><p style=""font-size: 2.4rem"">Please recall the letters you saw to the best of your ability. If you do not remember a particular letter, use the SKIP button.<br><b>(When you are ready to lock in your answer, press ENTER)</b></p><button id = button_1 class = ""square num-button"" onclick = ""recordClick(this)""><div class = content><div class = numbers>C</div></div></button><button id = button_2 class = ""square num-button"" onclick = ""recordClick(this)""><div class = content><div class = numbers>G</div></div></button><button id = button_3 class = ""square num-button"" onclick = ""recordClick(this)""><div class = content><div class = numbers>H</div></div></button><button id = button_4 class = ""square num-button"" onclick = ""recordClick(this)""><div class = content><div class = numbers>J</div></div></button><button id = button_5 class = ""square num-button"" onclick = ""recordClick(this)""><div class = content><div class = numbers>K</div></div></button><button id = button_6 class = ""square num-button"" onclick = ""recordClick(this)""><div class = content><div class = numbers>L</div></div></button><button id = button_7 class = ""square num-button"" onclick = ""recordClick(this)""><div class = content><div class = numbers>N</div></div></button><button id = button_8 class = ""square num-button"" onclick = ""recordClick(this)""><div class = content><div class = numbers>P</div></div></button><button id = button_9 class = ""square num-button"" onclick = ""recordClick(this)""><div class = content><div class = numbers>Q</div></div></button><button id = button_10 class = ""square num-button"" onclick = ""recordClick(this)""><div class = content><div class = numbers>R</div></div></button><button id = button_11 class = ""square num-button"" onclick = ""recordClick(this)""><div class = content><div class = numbers>S</div></div></button><button id = button_12 class = ""square num-button"" onclick = ""recordClick(this)""><div class = content><div class = numbers>Y</div></div></button><button class = clear_button id = ""ClearButton"" onclick = ""clearResponse()"">BACKSPACE</button><button class = blank_button id = ""BlankButton"" onclick = ""blankResponse()"">SKIP</button><p style=""font-size: 2.4rem""><u><b>Current Answer:</b></u></p><br><br><div id=echoed_txt style=""font-size: 5rem; color:blue;""><b></b></div></div>",enter,ospan,retrieval,0R9BCP6fVpcgEGuQoEJPlkhhZoY2,html-keyboard-response,173,919230,0.0-46.0-5.0-1.0-2.0,28,24,21,7.0,"[""J"",""Y"",""S"",""C"",""R"",""Q"",""G""]","[""J"",""Y"",""Q"",""S"",""C"",""R"",""G""]",0.0,3.0,,,,,,,60342884b95a3823eaf5fd9b,15:10:50,03/04/2024
980.2000000476837,[''],0,ospan,feedback,0R9BCP6fVpcgEGuQoEJPlkhhZoY2,html-button-response,174,920716,0.0-46.0-5.0-1.0-3.0,,,,,,,,,,,,100.0,0.0,,60342884b95a3823eaf5fd9b,15:10:50,03/04/2024
,"<p style=""font-size:75px;"">...</p>",,ospan,iti,0R9BCP6fVpcgEGuQoEJPlkhhZoY2,html-keyboard-response,175,921720,0.0-46.0-6.0-0.0-0.0,,,,,,,,,,,,,,,60342884b95a3823eaf5fd9b,15:10:50,03/04/2024
1663.0,,,ospan,symmetry,0R9BCP6fVpcgEGuQoEJPlkhhZoY2,symmetry-judgement-task,176,924548,0.0-46.0-6.0-0.0-1.0-0.0,,,,,,,,,,1.0,1.0,,,,60342884b95a3823eaf5fd9b,15:10:50,03/04/2024
,"<div style=""font-size: 10rem; color: #0000FF"">S</div>",,ospan,letter,0R9BCP6fVpcgEGuQoEJPlkhhZoY2,html-keyboard-response,177,925550,0.0-46.0-6.0-0.0-1.0-1.0,,,,,,,,,,,,,,,60342884b95a3823eaf5fd9b,15:10:50,03/04/2024
1277.0,,,ospan,symmetry,0R9BCP6fVpcgEGuQoEJPlkhhZoY2,symmetry-judgement-task,178,928763,0.0-46.0-6.0-0.0-1.0-2.0,,,,,,,,,,1.0,1.0,,,,60342884b95a3823eaf5fd9b,15:10:50,03/04/2024
,"<div style=""font-size: 10rem; color: #0000FF"">H</div>",,ospan,letter,0R9BCP6fVpcgEGuQoEJPlkhhZoY2,html-keyboard-response,179,929778,0.0-46.0-6.0-0.0-1.0-3.0,,,,,,,,,,,,,,,60342884b95a3823eaf5fd9b,15:10:50,03/04/2024
1819.0,,,ospan,symmetry,0R9BCP6fVpcgEGuQoEJPlkhhZoY2,symmetry-judgement-task,180,933532,0.0-46.0-6.0-0.0-1.0-4.0,,,,,,,,,,1.0,1.0,,,,60342884b95a3823eaf5fd9b,15:10:50,03/04/2024
,"<div style=""font-size: 10rem; color: #0000FF"">N</div>",,ospan,letter,0R9BCP6fVpcgEGuQoEJPlkhhZoY2,html-keyboard-response,181,934540,0.0-46.0-6.0-0.0-1.0-5.0,,,,,,,,,,,,,,,60342884b95a3823eaf5fd9b,15:10:50,03/04/2024
1451.0,,,ospan,symmetry,0R9BCP6fVpcgEGuQoEJPlkhhZoY2,symmetry-judgement-task,182,937916,0.0-46.0-6.0-0.0-1.0-6.0,,,,,,,,,,1.0,1.0,,,,60342884b95a3823eaf5fd9b,15:10:50,03/04/2024
,"<div style=""font-size: 10rem; color: #0000FF"">C</div>",,ospan,letter,0R9BCP6fVpcgEGuQoEJPlkhhZoY2,html-keyboard-response,183,938920,0.0-46.0-6.0-0.0-1.0-7.0,,,,,,,,,,,,,,,60342884b95a3823eaf5fd9b,15:10:50,03/04/2024
2000.0,,,ospan,symmetry,0R9BCP6fVpcgEGuQoEJPlkhhZoY2,symmetry-judgement-task,184,942857,0.0-46.0-6.0-0.0-1.0-8.0,,,,,,,,,,1.0,1.0,,,,60342884b95a3823eaf5fd9b,15:10:50,03/04/2024
,"<div style=""font-size: 10rem; color: #0000FF"">Q</div>",,ospan,letter,0R9BCP6fVpcgEGuQoEJPlkhhZoY2,html-keyboard-response,185,943858,0.0-46.0-6.0-0.0-1.0-9.0,,,,,,,,,,,,,,,60342884b95a3823eaf5fd9b,15:10:50,03/04/2024
4927.700000047684,"<div class = numbox><p style=""font-size: 2.4rem"">Please recall the letters you saw to the best of your ability. If you do not remember a particular letter, use the SKIP button.<br><b>(When you are ready to lock in your answer, press ENTER)</b></p><button id = button_1 class = ""square num-button"" onclick = ""recordClick(this)""><div class = content><div class = numbers>C</div></div></button><button id = button_2 class = ""square num-button"" onclick = ""recordClick(this)""><div class = content><div class = numbers>G</div></div></button><button id = button_3 class = ""square num-button"" onclick = ""recordClick(this)""><div class = content><div class = numbers>H</div></div></button><button id = button_4 class = ""square num-button"" onclick = ""recordClick(this)""><div class = content><div class = numbers>J</div></div></button><button id = button_5 class = ""square num-button"" onclick = ""recordClick(this)""><div class = content><div class = numbers>K</div></div></button><button id = button_6 class = ""square num-button"" onclick = ""recordClick(this)""><div class = content><div class = numbers>L</div></div></button><button id = button_7 class = ""square num-button"" onclick = ""recordClick(this)""><div class = content><div class = numbers>N</div></div></button><button id = button_8 class = ""square num-button"" onclick = ""recordClick(this)""><div class = content><div class = numbers>P</div></div></button><button id = button_9 class = ""square num-button"" onclick = ""recordClick(this)""><div class = content><div class = numbers>Q</div></div></button><button id = button_10 class = ""square num-button"" onclick = ""recordClick(this)""><div class = content><div class = numbers>R</div></div></button><button id = button_11 class = ""square num-button"" onclick = ""recordClick(this)""><div class = content><div class = numbers>S</div></div></button><button id = button_12 class = ""square num-button"" onclick = ""recordClick(this)""><div class = content><div class = numbers>Y</div></div></button><button class = clear_button id = ""ClearButton"" onclick = ""clearResponse()"">BACKSPACE</button><button class = blank_button id = ""BlankButton"" onclick = ""blankResponse()"">SKIP</button><p style=""font-size: 2.4rem""><u><b>Current Answer:</b></u></p><br><br><div id=echoed_txt style=""font-size: 5rem; color:blue;""><b></b></div></div>",enter,ospan,retrieval,0R9BCP6fVpcgEGuQoEJPlkhhZoY2,html-keyboard-response,186,949542,0.0-46.0-6.0-0.0-2.0,33,29,26,5.0,"[""S"",""H"",""N"",""C"",""Q""]","[""S"",""H"",""N"",""C"",""Q""]",1.0,5.0,,,,,,,60342884b95a3823eaf5fd9b,15:10:50,03/04/2024
1015.5,[''],0,ospan,feedback,0R9BCP6fVpcgEGuQoEJPlkhhZoY2,html-button-response,187,951060,0.0-46.0-6.0-0.0-3.0,,,,,,,,,,,,100.0,0.0,,60342884b95a3823eaf5fd9b,15:10:50,03/04/2024
,"<p style=""font-size:75px;"">...</p>",,ospan,iti,0R9BCP6fVpcgEGuQoEJPlkhhZoY2,html-keyboard-response,188,952075,0.0-46.0-6.0-1.0-0.0,,,,,,,,,,,,,,,60342884b95a3823eaf5fd9b,15:10:50,03/04/2024
1352.0,,,ospan,symmetry,0R9BCP6fVpcgEGuQoEJPlkhhZoY2,symmetry-judgement-task,189,954587,0.0-46.0-6.0-1.0-1.0-0.0,,,,,,,,,,1.0,1.0,,,,60342884b95a3823eaf5fd9b,15:10:50,03/04/2024
,"<div style=""font-size: 10rem; color: #0000FF"">L</div>",,ospan,letter,0R9BCP6fVpcgEGuQoEJPlkhhZoY2,html-keyboard-response,190,955602,0.0-46.0-6.0-1.0-1.0-1.0,,,,,,,,,,,,,,,60342884b95a3823eaf5fd9b,15:10:50,03/04/2024
1184.0,,,ospan,symmetry,0R9BCP6fVpcgEGuQoEJPlkhhZoY2,symmetry-judgement-task,191,958700,0.0-46.0-6.0-1.0-1.0-2.0,,,,,,,,,,1.0,1.0,,,,60342884b95a3823eaf5fd9b,15:10:50,03/04/2024
,"<div style=""font-size: 10rem; color: #0000FF"">Y</div>",,ospan,letter,0R9BCP6fVpcgEGuQoEJPlkhhZoY2,html-keyboard-response,192,959709,0.0-46.0-6.0-1.0-1.0-3.0,,,,,,,,,,,,,,,60342884b95a3823eaf5fd9b,15:10:50,03/04/2024
1345.0,,,ospan,symmetry,0R9BCP6fVpcgEGuQoEJPlkhhZoY2,symmetry-judgement-task,193,962990,0.0-46.0-6.0-1.0-1.0-4.0,,,,,,,,,,1.0,1.0,,,,60342884b95a3823eaf5fd9b,15:10:50,03/04/2024
,"<div style=""font-size: 10rem; color: #0000FF"">K</div>",,ospan,letter,0R9BCP6fVpcgEGuQoEJPlkhhZoY2,html-keyboard-response,194,963994,0.0-46.0-6.0-1.0-1.0-5.0,,,,,,,,,,,,,,,60342884b95a3823eaf5fd9b,15:10:50,03/04/2024
1246.0,,,ospan,symmetry,0R9BCP6fVpcgEGuQoEJPlkhhZoY2,symmetry-judgement-task,195,967157,0.0-46.0-6.0-1.0-1.0-6.0,,,,,,,,,,1.0,1.0,,,,60342884b95a3823eaf5fd9b,15:10:50,03/04/2024
,"<div style=""font-size: 10rem; color: #0000FF"">N</div>",,ospan,letter,0R9BCP6fVpcgEGuQoEJPlkhhZoY2,html-keyboard-response,196,968169,0.0-46.0-6.0-1.0-1.0-7.0,,,,,,,,,,,,,,,60342884b95a3823eaf5fd9b,15:10:50,03/04/2024
1248.0,,,ospan,symmetry,0R9BCP6fVpcgEGuQoEJPlkhhZoY2,symmetry-judgement-task,197,971352,0.0-46.0-6.0-1.0-1.0-8.0,,,,,,,,,,1.0,1.0,,,,60342884b95a3823eaf5fd9b,15:10:50,03/04/2024
,"<div style=""font-size: 10rem; color: #0000FF"">R</div>",,ospan,letter,0R9BCP6fVpcgEGuQoEJPlkhhZoY2,html-keyboard-response,198,972365,0.0-46.0-6.0-1.0-1.0-9.0,,,,,,,,,,,,,,,60342884b95a3823eaf5fd9b,15:10:50,03/04/2024
1111.0,,,ospan,symmetry,0R9BCP6fVpcgEGuQoEJPlkhhZoY2,symmetry-judgement-task,199,975403,0.0-46.0-6.0-1.0-1.0-10.0,,,,,,,,,,1.0,1.0,,,,60342884b95a3823eaf5fd9b,15:10:50,03/04/2024
,"<div style=""font-size: 10rem; color: #0000FF"">P</div>",,ospan,letter,0R9BCP6fVpcgEGuQoEJPlkhhZoY2,html-keyboard-response,200,976412,0.0-46.0-6.0-1.0-1.0-11.0,,,,,,,,,,,,,,,60342884b95a3823eaf5fd9b,15:10:50,03/04/2024
934.0,,,ospan,symmetry,0R9BCP6fVpcgEGuQoEJPlkhhZoY2,symmetry-judgement-task,201,979279,0.0-46.0-6.0-1.0-1.0-12.0,,,,,,,,,,1.0,1.0,,,,60342884b95a3823eaf5fd9b,15:10:50,03/04/2024
,"<div style=""font-size: 10rem; color: #0000FF"">C</div>",,ospan,letter,0R9BCP6fVpcgEGuQoEJPlkhhZoY2,html-keyboard-response,202,980286,0.0-46.0-6.0-1.0-1.0-13.0,,,,,,,,,,,,,,,60342884b95a3823eaf5fd9b,15:10:50,03/04/2024
2208.0,,,ospan,symmetry,0R9BCP6fVpcgEGuQoEJPlkhhZoY2,symmetry-judgement-task,203,984417,0.0-46.0-6.0-1.0-1.0-14.0,,,,,,,,,,1.0,1.0,,,,60342884b95a3823eaf5fd9b,15:10:50,03/04/2024
,"<div style=""font-size: 10rem; color: #0000FF"">G</div>",,ospan,letter,0R9BCP6fVpcgEGuQoEJPlkhhZoY2,html-keyboard-response,204,985420,0.0-46.0-6.0-1.0-1.0-15.0,,,,,,,,,,,,,,,60342884b95a3823eaf5fd9b,15:10:50,03/04/2024
16388.0,"<div class = numbox><p style=""font-size: 2.4rem"">Please recall the letters you saw to the best of your ability. If you do not remember a particular letter, use the SKIP button.<br><b>(When you are ready to lock in your answer, press ENTER)</b></p><button id = button_1 class = ""square num-button"" onclick = ""recordClick(this)""><div class = content><div class = numbers>C</div></div></button><button id = button_2 class = ""square num-button"" onclick = ""recordClick(this)""><div class = content><div class = numbers>G</div></div></button><button id = button_3 class = ""square num-button"" onclick = ""recordClick(this)""><div class = content><div class = numbers>H</div></div></button><button id = button_4 class = ""square num-button"" onclick = ""recordClick(this)""><div class = content><div class = numbers>J</div></div></button><button id = button_5 class = ""square num-button"" onclick = ""recordClick(this)""><div class = content><div class = numbers>K</div></div></button><button id = button_6 class = ""square num-button"" onclick = ""recordClick(this)""><div class = content><div class = numbers>L</div></div></button><button id = button_7 class = ""square num-button"" onclick = ""recordClick(this)""><div class = content><div class = numbers>N</div></div></button><button id = button_8 class = ""square num-button"" onclick = ""recordClick(this)""><div class = content><div class = numbers>P</div></div></button><button id = button_9 class = ""square num-button"" onclick = ""recordClick(this)""><div class = content><div class = numbers>Q</div></div></button><button id = button_10 class = ""square num-button"" onclick = ""recordClick(this)""><div class = content><div class = numbers>R</div></div></button><button id = button_11 class = ""square num-button"" onclick = ""recordClick(this)""><div class = content><div class = numbers>S</div></div></button><button id = button_12 class = ""square num-button"" onclick = ""recordClick(this)""><div class = content><div class = numbers>Y</div></div></button><button class = clear_button id = ""ClearButton"" onclick = ""clearResponse()"">BACKSPACE</button><button class = blank_button id = ""BlankButton"" onclick = ""blankResponse()"">SKIP</button><p style=""font-size: 2.4rem""><u><b>Current Answer:</b></u></p><br><br><div id=echoed_txt style=""font-size: 5rem; color:blue;""><b></b></div></div>",enter,ospan,retrieval,0R9BCP6fVpcgEGuQoEJPlkhhZoY2,html-keyboard-response,205,1002566,0.0-46.0-6.0-1.0-2.0,41,37,34,8.0,"[""L"",""Y"",""K"",""N"",""R"",""P"",""C"",""G""]","[""L"",""Y"",""K"",""N"",""R"",""P"",""C"",""G""]",1.0,8.0,,,,,,,60342884b95a3823eaf5fd9b,15:10:50,03/04/2024
1431.2000000476837,[''],0,ospan,feedback,0R9BCP6fVpcgEGuQoEJPlkhhZoY2,html-button-response,206,1004500,0.0-46.0-6.0-1.0-3.0,,,,,,,,,,,,100.0,0.0,,60342884b95a3823eaf5fd9b,15:10:50,03/04/2024
14026.099999904633,,{'Q0': 'I enjoyed the letter memory task'},ospan,survey_ospan,0R9BCP6fVpcgEGuQoEJPlkhhZoY2,lmdlab-survey-text,207,1019289,0.0-46.0-7.0,,,,,,,,,,,,,,0R9BCP6fVpcgEGuQoEJPlkhhZoY2,60342884b95a3823eaf5fd9b,15:10:50,03/04/2024
1223.7999999523163,<p><p style='font-size: 3rem'>Great work!<br><br>This completes the symmetry and memory task.</p><br><br><br>,0,ospan,finish,0R9BCP6fVpcgEGuQoEJPlkhhZoY2,html-button-response,208,1020514,0.0-46.0-8.0,41,37,34,,,,,,,,,100.0,,,60342884b95a3823eaf5fd9b,15:10:50,03/04/2024
