rt,stimulus,response,exp_name,exp_stage,subjectID,trial_type,trial_index,time_elapsed,internal_node_id,ospan_shown,ospan_total,ospan_abs,length,resp_actual,resp_correct,full_correct,num_correct,feedback,accuracy,correct,math_acc,math_warning,databaseID,prolificID,start_time,date
4023.399999976158,<div class = 'left_align' style='font-size: 3.25rem; line-height: 1.3;'><p class = 'center_align'><b>Welcome to the Symmetry and Memory Task</b><br><br><br><br></p>Press 'continue' to show the instructions.<br><br><br><br></div>,0,ospan,instruct,VOr8sccTLdVbHA1BF0qjTqOmoZo2,html-button-response,54,827326,0.0-46.0-0.0-0.0-0.0,,,,,,,,,,,,,,,5a8ad2082a842c0001fce0f2,15:00:04,03/04/2024
13396.700000047684,"<div class = 'left_align' style='font-size: 3.25rem; line-height: 1.3;'><p class = 'center_align'><b>Symmetry and Memory Task</b><br><br></p>In this task, you will try to memorize letters you see on the screen<br>while you also view black and white grid pictures.<br><br>In the next few minutes, you will have some practice to get you familiar<br>with how the task works.<br><br>It may be difficult sometimes, but please do not worry about making mistakes!<br><br>We will begin by practicing the letter part of the task.<br><br><br><br></div>",0,ospan,instruct,VOr8sccTLdVbHA1BF0qjTqOmoZo2,html-button-response,55,840986,0.0-46.0-0.0-0.0-1.0,,,,,,,,,,,,,,,5a8ad2082a842c0001fce0f2,15:00:04,03/04/2024
21757.600000023842,"<div class = 'left_align' style='font-size: 3.25rem; line-height: 1.3;'>For this practice part, letters will appear on the screen one at a time.<br><br>Try to remember each letter in the order presented.<br><br>After some letters have been shown, you will see a response screen. Your<br>goal is to report the letters you saw <b>in order</b>. If you do not remember<br>a particular letter, you will have the option to leave it blank.<br><br><br><br></div>",0,ospan,instruct,VOr8sccTLdVbHA1BF0qjTqOmoZo2,html-button-response,56,863006,0.0-46.0-0.0-0.0-2.0,,,,,,,,,,,,,,,5a8ad2082a842c0001fce0f2,15:00:04,03/04/2024
4123.5,"<div class = 'left_align' style='font-size: 3.25rem; line-height: 1.3;'>Remember, it is very important to get the letters in the same<br>order as you see them.<br><br>When you are ready, you may begin the letter practice.</div><br><br><br><br>",0,ospan,instruct,VOr8sccTLdVbHA1BF0qjTqOmoZo2,html-button-response,57,867394,0.0-46.0-0.0-0.0-3.0,,,,,,,,,,,,,,,5a8ad2082a842c0001fce0f2,15:00:04,03/04/2024
,"<p style=""font-size:75px;"">...</p>",,ospan,iti,VOr8sccTLdVbHA1BF0qjTqOmoZo2,html-keyboard-response,58,868664,0.0-46.0-0.0-1.0-0.0,,,,,,,,,,,,,,,5a8ad2082a842c0001fce0f2,15:00:04,03/04/2024
,"<div style=""font-size: 10rem; color: #0000FF"">H</div>",,ospan,letter,VOr8sccTLdVbHA1BF0qjTqOmoZo2,html-keyboard-response,59,869673,0.0-46.0-0.0-1.0-1.0,,,,,,,,,,,,,,,5a8ad2082a842c0001fce0f2,15:00:04,03/04/2024
,"<div style=""font-size: 10rem; color: #0000FF"">Y</div>",,ospan,letter,VOr8sccTLdVbHA1BF0qjTqOmoZo2,html-keyboard-response,60,871446,0.0-46.0-0.0-1.0-2.0,,,,,,,,,,,,,,,5a8ad2082a842c0001fce0f2,15:00:04,03/04/2024
11262.899999976158,"<div class = numbox><p style=""font-size: 2.4rem"">Please recall the letters you saw to the best of your ability. If you do not remember a particular letter, use the SKIP button.<br><b>(When you are ready to lock in your answer, press ENTER)</b></p><button id = button_1 class = ""square num-button"" onclick = ""recordClick(this)""><div class = content><div class = numbers>C</div></div></button><button id = button_2 class = ""square num-button"" onclick = ""recordClick(this)""><div class = content><div class = numbers>G</div></div></button><button id = button_3 class = ""square num-button"" onclick = ""recordClick(this)""><div class = content><div class = numbers>H</div></div></button><button id = button_4 class = ""square num-button"" onclick = ""recordClick(this)""><div class = content><div class = numbers>J</div></div></button><button id = button_5 class = ""square num-button"" onclick = ""recordClick(this)""><div class = content><div class = numbers>K</div></div></button><button id = button_6 class = ""square num-button"" onclick = ""recordClick(this)""><div class = content><div class = numbers>L</div></div></button><button id = button_7 class = ""square num-button"" onclick = ""recordClick(this)""><div class = content><div class = numbers>N</div></div></button><button id = button_8 class = ""square num-button"" onclick = ""recordClick(this)""><div class = content><div class = numbers>P</div></div></button><button id = button_9 class = ""square num-button"" onclick = ""recordClick(this)""><div class = content><div class = numbers>Q</div></div></button><button id = button_10 class = ""square num-button"" onclick = ""recordClick(this)""><div class = content><div class = numbers>R</div></div></button><button id = button_11 class = ""square num-button"" onclick = ""recordClick(this)""><div class = content><div class = numbers>S</div></div></button><button id = button_12 class = ""square num-button"" onclick = ""recordClick(this)""><div class = content><div class = numbers>Y</div></div></button><button class = clear_button id = ""ClearButton"" onclick = ""clearResponse()"">BACKSPACE</button><button class = blank_button id = ""BlankButton"" onclick = ""blankResponse()"">SKIP</button><p style=""font-size: 2.4rem""><u><b>Current Answer:</b></u></p><br><br><div id=echoed_txt style=""font-size: 5rem; color:blue;""><b></b></div></div>",enter,ospan,retrieval,VOr8sccTLdVbHA1BF0qjTqOmoZo2,html-keyboard-response,61,883474,0.0-46.0-0.0-1.0-3.0,NA,NA,NA,2.0,"[""H"",""Y""]","[""H"",""Y""]",1.0,2.0,"['<font color=""green"">H</font>', '<font color=""green"">Y</font>']",,,,,,5a8ad2082a842c0001fce0f2,15:00:04,03/04/2024
2141.0,"['<p style=""font-size:44px"">Letters:<br><br><br><font color=""green"">H</font> <font color=""green"">Y</font></p><br><br>']",0,ospan,practice_feedback,VOr8sccTLdVbHA1BF0qjTqOmoZo2,html-button-response,62,886124,0.0-46.0-0.0-1.0-4.0,,,,,,,,,,,,,,,5a8ad2082a842c0001fce0f2,15:00:04,03/04/2024
,"<p style=""font-size:75px;"">...</p>",,ospan,iti,VOr8sccTLdVbHA1BF0qjTqOmoZo2,html-keyboard-response,63,887133,0.0-46.0-0.0-2.0-0.0,,,,,,,,,,,,,,,5a8ad2082a842c0001fce0f2,15:00:04,03/04/2024
,"<div style=""font-size: 10rem; color: #0000FF"">Y</div>",,ospan,letter,VOr8sccTLdVbHA1BF0qjTqOmoZo2,html-keyboard-response,64,888140,0.0-46.0-0.0-2.0-1.0,,,,,,,,,,,,,,,5a8ad2082a842c0001fce0f2,15:00:04,03/04/2024
,"<div style=""font-size: 10rem; color: #0000FF"">L</div>",,ospan,letter,VOr8sccTLdVbHA1BF0qjTqOmoZo2,html-keyboard-response,65,889917,0.0-46.0-0.0-2.0-2.0,,,,,,,,,,,,,,,5a8ad2082a842c0001fce0f2,15:00:04,03/04/2024
,"<div style=""font-size: 10rem; color: #0000FF"">N</div>",,ospan,letter,VOr8sccTLdVbHA1BF0qjTqOmoZo2,html-keyboard-response,66,891692,0.0-46.0-0.0-2.0-3.0,,,,,,,,,,,,,,,5a8ad2082a842c0001fce0f2,15:00:04,03/04/2024
7072.199999928474,"<div class = numbox><p style=""font-size: 2.4rem"">Please recall the letters you saw to the best of your ability. If you do not remember a particular letter, use the SKIP button.<br><b>(When you are ready to lock in your answer, press ENTER)</b></p><button id = button_1 class = ""square num-button"" onclick = ""recordClick(this)""><div class = content><div class = numbers>C</div></div></button><button id = button_2 class = ""square num-button"" onclick = ""recordClick(this)""><div class = content><div class = numbers>G</div></div></button><button id = button_3 class = ""square num-button"" onclick = ""recordClick(this)""><div class = content><div class = numbers>H</div></div></button><button id = button_4 class = ""square num-button"" onclick = ""recordClick(this)""><div class = content><div class = numbers>J</div></div></button><button id = button_5 class = ""square num-button"" onclick = ""recordClick(this)""><div class = content><div class = numbers>K</div></div></button><button id = button_6 class = ""square num-button"" onclick = ""recordClick(this)""><div class = content><div class = numbers>L</div></div></button><button id = button_7 class = ""square num-button"" onclick = ""recordClick(this)""><div class = content><div class = numbers>N</div></div></button><button id = button_8 class = ""square num-button"" onclick = ""recordClick(this)""><div class = content><div class = numbers>P</div></div></button><button id = button_9 class = ""square num-button"" onclick = ""recordClick(this)""><div class = content><div class = numbers>Q</div></div></button><button id = button_10 class = ""square num-button"" onclick = ""recordClick(this)""><div class = content><div class = numbers>R</div></div></button><button id = button_11 class = ""square num-button"" onclick = ""recordClick(this)""><div class = content><div class = numbers>S</div></div></button><button id = button_12 class = ""square num-button"" onclick = ""recordClick(this)""><div class = content><div class = numbers>Y</div></div></button><button class = clear_button id = ""ClearButton"" onclick = ""clearResponse()"">BACKSPACE</button><button class = blank_button id = ""BlankButton"" onclick = ""blankResponse()"">SKIP</button><p style=""font-size: 2.4rem""><u><b>Current Answer:</b></u></p><br><br><div id=echoed_txt style=""font-size: 5rem; color:blue;""><b></b></div></div>",enter,ospan,retrieval,VOr8sccTLdVbHA1BF0qjTqOmoZo2,html-keyboard-response,67,899530,0.0-46.0-0.0-2.0-4.0,NA,NA,NA,3.0,"[""Y"",""L"",""N""]","[""Y"",""L"",""N""]",1.0,3.0,"['<font color=""green"">Y</font>', '<font color=""green"">L</font>', '<font color=""green"">N</font>']",,,,,,5a8ad2082a842c0001fce0f2,15:00:04,03/04/2024
1574.8000000715256,"['<p style=""font-size:44px"">Letters:<br><br><br><font color=""green"">Y</font> <font color=""green"">L</font> <font color=""green"">N</font></p><br><br>']",0,ospan,practice_feedback,VOr8sccTLdVbHA1BF0qjTqOmoZo2,html-button-response,68,901620,0.0-46.0-0.0-2.0-5.0,,,,,,,,,,,,,,,5a8ad2082a842c0001fce0f2,15:00:04,03/04/2024
22824.5,"<div class = 'left_align' style='font-size: 3.25rem; line-height: 1.3;'>Now you will practice doing the <b>symmetry judgment part</b> of the experiment.<br><br>A black and white grid picture will appear on the screen and you have to judge if it is <br>symmetrical or asymetrical.<br><br>A picture is 'mirror' symmetrical if its left half is identical to the right half when flipped.<br>Here are examples of a symmetrical and an asymetrical picture:<br><br><center><img src='Stimuli/img/symm_instructions_extra.png' style='height:420px; width:900'></img></center><br>To judge symmetry, imagine you were to fold each picture down the middle, like a book –<br>would the left half match the right half when folded onto each other?<br><br></div><br>",0,ospan,instruct,VOr8sccTLdVbHA1BF0qjTqOmoZo2,html-button-response,69,924451,0.0-46.0-1.0-0.0-0.0,,,,,,,,,,,,,,,5a8ad2082a842c0001fce0f2,15:00:04,03/04/2024
5221.700000047684,"<div class = 'left_align' style='font-size: 3.25rem; line-height: 1.3;'>When you have viewed the picture and determined whether it is symmetrical or not,<br>you can <b>click the Yes or No button</b> below to answer.<br><br>If you take longer than 15 seconds, it will continue automatically<br>and record the answer as an error.</div><br>",0,ospan,instruct,VOr8sccTLdVbHA1BF0qjTqOmoZo2,html-button-response,70,929936,0.0-46.0-1.0-0.0-1.0,,,,,,,,,,,,,,,5a8ad2082a842c0001fce0f2,15:00:04,03/04/2024
5205.5,"<div class = 'left_align' style='font-size: 3.25rem; line-height: 1.3;'>It is <b>very</b> important that you make the symmetry judgment correctly.<br><br>It is also important that you try and judge the picture as quickly as you can.<br><br>When you are ready, click on the button below to try some practice problems.</div><br><br><br><br>",0,ospan,instruct,VOr8sccTLdVbHA1BF0qjTqOmoZo2,html-button-response,71,935404,0.0-46.0-1.0-0.0-2.0,,,,,,,,,,,,,,,5a8ad2082a842c0001fce0f2,15:00:04,03/04/2024
3864.0,,,ospan,symmetry,VOr8sccTLdVbHA1BF0qjTqOmoZo2,symmetry-judgement-task,72,940189,0.0-46.0-1.0-1.0-0.0,,,,,,,,,,1.0,1.0,,,,5a8ad2082a842c0001fce0f2,15:00:04,03/04/2024
,"<p style=""color:green; font-size: 35px"">Correct</p>",,ospan,feedback,VOr8sccTLdVbHA1BF0qjTqOmoZo2,html-keyboard-response,73,940951,0.0-46.0-1.0-1.0-1.0,,,,,,,,,,,,,,,5a8ad2082a842c0001fce0f2,15:00:04,03/04/2024
2412.0,,,ospan,symmetry,VOr8sccTLdVbHA1BF0qjTqOmoZo2,symmetry-judgement-task,74,946371,0.0-46.0-1.0-1.0-2.0,,,,,,,,,,1.0,1.0,,,,5a8ad2082a842c0001fce0f2,15:00:04,03/04/2024
,"<p style=""color:green; font-size: 35px"">Correct</p>",,ospan,feedback,VOr8sccTLdVbHA1BF0qjTqOmoZo2,html-keyboard-response,75,947134,0.0-46.0-1.0-1.0-3.0,,,,,,,,,,,,,,,5a8ad2082a842c0001fce0f2,15:00:04,03/04/2024
2038.0,,,ospan,symmetry,VOr8sccTLdVbHA1BF0qjTqOmoZo2,symmetry-judgement-task,76,952170,0.0-46.0-1.0-1.0-4.0,,,,,,,,,,1.0,1.0,,,,5a8ad2082a842c0001fce0f2,15:00:04,03/04/2024
,"<p style=""color:green; font-size: 35px"">Correct</p>",,ospan,feedback,VOr8sccTLdVbHA1BF0qjTqOmoZo2,html-keyboard-response,77,952932,0.0-46.0-1.0-1.0-5.0,,,,,,,,,,,,,,,5a8ad2082a842c0001fce0f2,15:00:04,03/04/2024
2192.5,"<p style=""font-size: 3rem;"">You responded correctly on 3 of 3 symmetry judgments. Good job!</p><br><br>",0,ospan,practice,VOr8sccTLdVbHA1BF0qjTqOmoZo2,html-button-response,78,957129,0.0-46.0-1.0-2.0,,,,,,,,,,,,,,,5a8ad2082a842c0001fce0f2,15:00:04,03/04/2024
12734.0,"<div class = 'left_align' style='font-size: 3.25rem; line-height: 1.3;'>Now you will practice doing both parts of the experiment at the same time.<br><br>In the next practice set, you will be given one grid picture to judge.<br>Then letter will appear on the screen. Try to remember the letter.<br><br>It is <b>very important</b> to make the symmetry judgment as quickly and accurately as possible.<br><br>Just as before, once you have make the symmetry judgment, you can click Yes or No.<br><b>Note that you will no longer see Correct or Incorrect feedback.</div><br><br><br><br>",0,ospan,instruct,VOr8sccTLdVbHA1BF0qjTqOmoZo2,html-button-response,79,970128,0.0-46.0-2.0-0.0-0.0,,,,,,,,,,,,,,,5a8ad2082a842c0001fce0f2,15:00:04,03/04/2024
9457.200000047684,"<div class = 'left_align' style='font-size: 3.25rem; line-height: 1.3;'>After the letter goes away, another grid picture will appear, and then<br>another letter.<br><br>At the end of each set of letters and grids, you will recall the letters to the best<br>of your ability. Remember, try your best to get the letters in the correct order.<br><br>It is important to <b>quickly</b> and <b>accurately</b> make the symmetry judgments.</div><br><br><br><br>",0,ospan,instruct,VOr8sccTLdVbHA1BF0qjTqOmoZo2,html-button-response,80,979850,0.0-46.0-2.0-0.0-1.0,,,,,,,,,,,,,,,5a8ad2082a842c0001fce0f2,15:00:04,03/04/2024
18107.200000047684,"<div class = 'left_align' style='font-size: 3.25rem; line-height: 1.3;'>On the feedback screen, if you are not doing well at the symmetry judgments,<br>you will also see a warning in the middle. This indicates your percent <br>correct for the grid pictures for the entire experiment.<br><br>It is <b>very</b> important for you to keep accuracy at least at 85%: <u>We can only use<br>data where the participant was at least 85% accurate on the judgments.</u> Therefore,<br> please try your best to perform well on the symmetry judgments, <b>at the same time</b><br>doing your best to recall as many letters as possible.<br><br>Click the button to try some practice problems.</div><br><br><br><br>",0,ospan,instruct,VOr8sccTLdVbHA1BF0qjTqOmoZo2,html-button-response,81,998222,0.0-46.0-2.0-0.0-2.0,,,,,,,,,,,,,,,5a8ad2082a842c0001fce0f2,15:00:04,03/04/2024
,"<p style=""font-size:75px;"">...</p>",,ospan,iti,VOr8sccTLdVbHA1BF0qjTqOmoZo2,html-keyboard-response,82,999496,0.0-46.0-2.0-1.0-0.0,,,,,,,,,,,,,,,5a8ad2082a842c0001fce0f2,15:00:04,03/04/2024
2202.0,,,ospan,symmetry,VOr8sccTLdVbHA1BF0qjTqOmoZo2,symmetry-judgement-task,83,1002848,0.0-46.0-2.0-1.0-1.0-0.0,,,,,,,,,,1.0,1.0,,,,5a8ad2082a842c0001fce0f2,15:00:04,03/04/2024
,"<div style=""font-size: 10rem; color: #0000FF"">C</div>",,ospan,letter,VOr8sccTLdVbHA1BF0qjTqOmoZo2,html-keyboard-response,84,1003856,0.0-46.0-2.0-1.0-1.0-1.0,,,,,,,,,,,,,,,5a8ad2082a842c0001fce0f2,15:00:04,03/04/2024
1961.0,,,ospan,symmetry,VOr8sccTLdVbHA1BF0qjTqOmoZo2,symmetry-judgement-task,85,1008083,0.0-46.0-2.0-1.0-1.0-2.0,,,,,,,,,,1.0,1.0,,,,5a8ad2082a842c0001fce0f2,15:00:04,03/04/2024
,"<div style=""font-size: 10rem; color: #0000FF"">S</div>",,ospan,letter,VOr8sccTLdVbHA1BF0qjTqOmoZo2,html-keyboard-response,86,1009095,0.0-46.0-2.0-1.0-1.0-3.0,,,,,,,,,,,,,,,5a8ad2082a842c0001fce0f2,15:00:04,03/04/2024
2345.0,,,ospan,symmetry,VOr8sccTLdVbHA1BF0qjTqOmoZo2,symmetry-judgement-task,87,1013686,0.0-46.0-2.0-1.0-1.0-4.0,,,,,,,,,,1.0,1.0,,,,5a8ad2082a842c0001fce0f2,15:00:04,03/04/2024
,"<div style=""font-size: 10rem; color: #0000FF"">J</div>",,ospan,letter,VOr8sccTLdVbHA1BF0qjTqOmoZo2,html-keyboard-response,88,1014698,0.0-46.0-2.0-1.0-1.0-5.0,,,,,,,,,,,,,,,5a8ad2082a842c0001fce0f2,15:00:04,03/04/2024
5762.399999976158,"<div class = numbox><p style=""font-size: 2.4rem"">Please recall the letters you saw to the best of your ability. If you do not remember a particular letter, use the SKIP button.<br><b>(When you are ready to lock in your answer, press ENTER)</b></p><button id = button_1 class = ""square num-button"" onclick = ""recordClick(this)""><div class = content><div class = numbers>C</div></div></button><button id = button_2 class = ""square num-button"" onclick = ""recordClick(this)""><div class = content><div class = numbers>G</div></div></button><button id = button_3 class = ""square num-button"" onclick = ""recordClick(this)""><div class = content><div class = numbers>H</div></div></button><button id = button_4 class = ""square num-button"" onclick = ""recordClick(this)""><div class = content><div class = numbers>J</div></div></button><button id = button_5 class = ""square num-button"" onclick = ""recordClick(this)""><div class = content><div class = numbers>K</div></div></button><button id = button_6 class = ""square num-button"" onclick = ""recordClick(this)""><div class = content><div class = numbers>L</div></div></button><button id = button_7 class = ""square num-button"" onclick = ""recordClick(this)""><div class = content><div class = numbers>N</div></div></button><button id = button_8 class = ""square num-button"" onclick = ""recordClick(this)""><div class = content><div class = numbers>P</div></div></button><button id = button_9 class = ""square num-button"" onclick = ""recordClick(this)""><div class = content><div class = numbers>Q</div></div></button><button id = button_10 class = ""square num-button"" onclick = ""recordClick(this)""><div class = content><div class = numbers>R</div></div></button><button id = button_11 class = ""square num-button"" onclick = ""recordClick(this)""><div class = content><div class = numbers>S</div></div></button><button id = button_12 class = ""square num-button"" onclick = ""recordClick(this)""><div class = content><div class = numbers>Y</div></div></button><button class = clear_button id = ""ClearButton"" onclick = ""clearResponse()"">BACKSPACE</button><button class = blank_button id = ""BlankButton"" onclick = ""blankResponse()"">SKIP</button><p style=""font-size: 2.4rem""><u><b>Current Answer:</b></u></p><br><br><div id=echoed_txt style=""font-size: 5rem; color:blue;""><b></b></div></div>",enter,ospan,retrieval,VOr8sccTLdVbHA1BF0qjTqOmoZo2,html-keyboard-response,89,1021222,0.0-46.0-2.0-1.0-2.0-0.0,NA,NA,NA,3.0,"[""C"",""S"",""J""]","[""C"",""S"",""J""]",1.0,3.0,"['<font color=""green"">C</font>', '<font color=""green"">S</font>', '<font color=""green"">J</font>']",,,,,,5a8ad2082a842c0001fce0f2,15:00:04,03/04/2024
1503.6000000238419,"['<p style=""font-size:44px"">Letters:<br><br><br><font color=""green"">C</font> <font color=""green"">S</font> <font color=""green"">J</font></p><br><br><p style=""font-size:30px"">Symmetry:<br><br><font color=""green"">100%</font></p><br><br>']",0,ospan,practice_feedback,VOr8sccTLdVbHA1BF0qjTqOmoZo2,html-button-response,90,1023232,0.0-46.0-2.0-1.0-2.0-1.0,,,,,,,,,,,,,,,5a8ad2082a842c0001fce0f2,15:00:04,03/04/2024
,"<p style=""font-size:75px;"">...</p>",,ospan,iti,VOr8sccTLdVbHA1BF0qjTqOmoZo2,html-keyboard-response,91,1024239,0.0-46.0-2.0-2.0-0.0,,,,,,,,,,,,,,,5a8ad2082a842c0001fce0f2,15:00:04,03/04/2024
2324.0,,,ospan,symmetry,VOr8sccTLdVbHA1BF0qjTqOmoZo2,symmetry-judgement-task,92,1027728,0.0-46.0-2.0-2.0-1.0-0.0,,,,,,,,,,1.0,1.0,,,,5a8ad2082a842c0001fce0f2,15:00:04,03/04/2024
,"<div style=""font-size: 10rem; color: #0000FF"">P</div>",,ospan,letter,VOr8sccTLdVbHA1BF0qjTqOmoZo2,html-keyboard-response,93,1028743,0.0-46.0-2.0-2.0-1.0-1.0,,,,,,,,,,,,,,,5a8ad2082a842c0001fce0f2,15:00:04,03/04/2024
2214.0,,,ospan,symmetry,VOr8sccTLdVbHA1BF0qjTqOmoZo2,symmetry-judgement-task,94,1033209,0.0-46.0-2.0-2.0-1.0-2.0,,,,,,,,,,1.0,1.0,,,,5a8ad2082a842c0001fce0f2,15:00:04,03/04/2024
,"<div style=""font-size: 10rem; color: #0000FF"">L</div>",,ospan,letter,VOr8sccTLdVbHA1BF0qjTqOmoZo2,html-keyboard-response,95,1034217,0.0-46.0-2.0-2.0-1.0-3.0,,,,,,,,,,,,,,,5a8ad2082a842c0001fce0f2,15:00:04,03/04/2024
2178.0,,,ospan,symmetry,VOr8sccTLdVbHA1BF0qjTqOmoZo2,symmetry-judgement-task,96,1038738,0.0-46.0-2.0-2.0-1.0-4.0,,,,,,,,,,1.0,1.0,,,,5a8ad2082a842c0001fce0f2,15:00:04,03/04/2024
,"<div style=""font-size: 10rem; color: #0000FF"">N</div>",,ospan,letter,VOr8sccTLdVbHA1BF0qjTqOmoZo2,html-keyboard-response,97,1039753,0.0-46.0-2.0-2.0-1.0-5.0,,,,,,,,,,,,,,,5a8ad2082a842c0001fce0f2,15:00:04,03/04/2024
6670.099999904633,"<div class = numbox><p style=""font-size: 2.4rem"">Please recall the letters you saw to the best of your ability. If you do not remember a particular letter, use the SKIP button.<br><b>(When you are ready to lock in your answer, press ENTER)</b></p><button id = button_1 class = ""square num-button"" onclick = ""recordClick(this)""><div class = content><div class = numbers>C</div></div></button><button id = button_2 class = ""square num-button"" onclick = ""recordClick(this)""><div class = content><div class = numbers>G</div></div></button><button id = button_3 class = ""square num-button"" onclick = ""recordClick(this)""><div class = content><div class = numbers>H</div></div></button><button id = button_4 class = ""square num-button"" onclick = ""recordClick(this)""><div class = content><div class = numbers>J</div></div></button><button id = button_5 class = ""square num-button"" onclick = ""recordClick(this)""><div class = content><div class = numbers>K</div></div></button><button id = button_6 class = ""square num-button"" onclick = ""recordClick(this)""><div class = content><div class = numbers>L</div></div></button><button id = button_7 class = ""square num-button"" onclick = ""recordClick(this)""><div class = content><div class = numbers>N</div></div></button><button id = button_8 class = ""square num-button"" onclick = ""recordClick(this)""><div class = content><div class = numbers>P</div></div></button><button id = button_9 class = ""square num-button"" onclick = ""recordClick(this)""><div class = content><div class = numbers>Q</div></div></button><button id = button_10 class = ""square num-button"" onclick = ""recordClick(this)""><div class = content><div class = numbers>R</div></div></button><button id = button_11 class = ""square num-button"" onclick = ""recordClick(this)""><div class = content><div class = numbers>S</div></div></button><button id = button_12 class = ""square num-button"" onclick = ""recordClick(this)""><div class = content><div class = numbers>Y</div></div></button><button class = clear_button id = ""ClearButton"" onclick = ""clearResponse()"">BACKSPACE</button><button class = blank_button id = ""BlankButton"" onclick = ""blankResponse()"">SKIP</button><p style=""font-size: 2.4rem""><u><b>Current Answer:</b></u></p><br><br><div id=echoed_txt style=""font-size: 5rem; color:blue;""><b></b></div></div>",enter,ospan,retrieval,VOr8sccTLdVbHA1BF0qjTqOmoZo2,html-keyboard-response,98,1047187,0.0-46.0-2.0-2.0-2.0-0.0,NA,NA,NA,3.0,"[""P"",""L"",""N""]","[""P"",""L"",""N""]",1.0,3.0,"['<font color=""green"">P</font>', '<font color=""green"">L</font>', '<font color=""green"">N</font>']",,,,,,5a8ad2082a842c0001fce0f2,15:00:04,03/04/2024
1272.8000000715256,"['<p style=""font-size:44px"">Letters:<br><br><br><font color=""green"">P</font> <font color=""green"">L</font> <font color=""green"">N</font></p><br><br><p style=""font-size:30px"">Symmetry:<br><br><font color=""green"">100%</font></p><br><br>']",0,ospan,practice_feedback,VOr8sccTLdVbHA1BF0qjTqOmoZo2,html-button-response,99,1048978,0.0-46.0-2.0-2.0-2.0-1.0,,,,,,,,,,,,,,,5a8ad2082a842c0001fce0f2,15:00:04,03/04/2024
13751.299999952316,"<div class = 'left_align' style='font-size: 3rem; line-height: 1.3;'><b>Great work! That is the end of practice.</b><br><br>The real trials will look just like the practice trials you just completed.<br><br><u>Here, you will not see feedback</u>. First, you will see an grid picture to judge,<br>then a letter to remember. When the recall screen appears, report the letters in the<br>order presented. If you forget a letter, remember to use the <b>blank</b> button to move to the<br>next letter. Some of the sets will have more symmetry grids and letters than others.<br><br>It is important that you do your best on both the symmetry judgments and the letter recall<br>parts of the experiment. For for the symmetry judgments, try to work as <b>quickly</b> and <br>as <b>accurately</b> as possible. Remember to keep your symmetry accuracy at 85% or above.<br><br><b>For the letters, do NOT use any external aid (e.g., writing on paper, electronic device).</b><br><br>It is <u>very important</u> to our experiment to have a <b>true</b> view of your real performance.<br><br>Do not worry if you miss some when it gets hard! This task is meant to be very challenging!<br><br>Click the button to begin.</div><br><br><br><br>",0,ospan,starting_real_here,VOr8sccTLdVbHA1BF0qjTqOmoZo2,html-button-response,100,1062735,0.0-46.0-2.0-3.0,,,,,,,,,,,,,,,5a8ad2082a842c0001fce0f2,15:00:04,03/04/2024
,"<p style=""font-size:75px;"">...</p>",,ospan,iti,VOr8sccTLdVbHA1BF0qjTqOmoZo2,html-keyboard-response,101,1064002,0.0-46.0-3.0-0.0-0.0,,,,,,,,,,,,,,,5a8ad2082a842c0001fce0f2,15:00:04,03/04/2024
2139.0,,,ospan,symmetry,VOr8sccTLdVbHA1BF0qjTqOmoZo2,symmetry-judgement-task,102,1067660,0.0-46.0-3.0-0.0-1.0-0.0,,,,,,,,,,1.0,1.0,,,,5a8ad2082a842c0001fce0f2,15:00:04,03/04/2024
,"<div style=""font-size: 10rem; color: #0000FF"">P</div>",,ospan,letter,VOr8sccTLdVbHA1BF0qjTqOmoZo2,html-keyboard-response,103,1068674,0.0-46.0-3.0-0.0-1.0-1.0,,,,,,,,,,,,,,,5a8ad2082a842c0001fce0f2,15:00:04,03/04/2024
2828.0,,,ospan,symmetry,VOr8sccTLdVbHA1BF0qjTqOmoZo2,symmetry-judgement-task,104,1073785,0.0-46.0-3.0-0.0-1.0-2.0,,,,,,,,,,1.0,1.0,,,,5a8ad2082a842c0001fce0f2,15:00:04,03/04/2024
,"<div style=""font-size: 10rem; color: #0000FF"">Q</div>",,ospan,letter,VOr8sccTLdVbHA1BF0qjTqOmoZo2,html-keyboard-response,105,1074796,0.0-46.0-3.0-0.0-1.0-3.0,,,,,,,,,,,,,,,5a8ad2082a842c0001fce0f2,15:00:04,03/04/2024
2697.0,,,ospan,symmetry,VOr8sccTLdVbHA1BF0qjTqOmoZo2,symmetry-judgement-task,106,1079774,0.0-46.0-3.0-0.0-1.0-4.0,,,,,,,,,,1.0,1.0,,,,5a8ad2082a842c0001fce0f2,15:00:04,03/04/2024
,"<div style=""font-size: 10rem; color: #0000FF"">C</div>",,ospan,letter,VOr8sccTLdVbHA1BF0qjTqOmoZo2,html-keyboard-response,107,1080788,0.0-46.0-3.0-0.0-1.0-5.0,,,,,,,,,,,,,,,5a8ad2082a842c0001fce0f2,15:00:04,03/04/2024
7681.199999928474,"<div class = numbox><p style=""font-size: 2.4rem"">Please recall the letters you saw to the best of your ability. If you do not remember a particular letter, use the SKIP button.<br><b>(When you are ready to lock in your answer, press ENTER)</b></p><button id = button_1 class = ""square num-button"" onclick = ""recordClick(this)""><div class = content><div class = numbers>C</div></div></button><button id = button_2 class = ""square num-button"" onclick = ""recordClick(this)""><div class = content><div class = numbers>G</div></div></button><button id = button_3 class = ""square num-button"" onclick = ""recordClick(this)""><div class = content><div class = numbers>H</div></div></button><button id = button_4 class = ""square num-button"" onclick = ""recordClick(this)""><div class = content><div class = numbers>J</div></div></button><button id = button_5 class = ""square num-button"" onclick = ""recordClick(this)""><div class = content><div class = numbers>K</div></div></button><button id = button_6 class = ""square num-button"" onclick = ""recordClick(this)""><div class = content><div class = numbers>L</div></div></button><button id = button_7 class = ""square num-button"" onclick = ""recordClick(this)""><div class = content><div class = numbers>N</div></div></button><button id = button_8 class = ""square num-button"" onclick = ""recordClick(this)""><div class = content><div class = numbers>P</div></div></button><button id = button_9 class = ""square num-button"" onclick = ""recordClick(this)""><div class = content><div class = numbers>Q</div></div></button><button id = button_10 class = ""square num-button"" onclick = ""recordClick(this)""><div class = content><div class = numbers>R</div></div></button><button id = button_11 class = ""square num-button"" onclick = ""recordClick(this)""><div class = content><div class = numbers>S</div></div></button><button id = button_12 class = ""square num-button"" onclick = ""recordClick(this)""><div class = content><div class = numbers>Y</div></div></button><button class = clear_button id = ""ClearButton"" onclick = ""clearResponse()"">BACKSPACE</button><button class = blank_button id = ""BlankButton"" onclick = ""blankResponse()"">SKIP</button><p style=""font-size: 2.4rem""><u><b>Current Answer:</b></u></p><br><br><div id=echoed_txt style=""font-size: 5rem; color:blue;""><b></b></div></div>",enter,ospan,retrieval,VOr8sccTLdVbHA1BF0qjTqOmoZo2,html-keyboard-response,108,1089235,0.0-46.0-3.0-0.0-2.0,3,3,3,3.0,"[""P"",""Q"",""C""]","[""P"",""Q"",""C""]",1.0,3.0,,,,,,,5a8ad2082a842c0001fce0f2,15:00:04,03/04/2024
1225.6000000238419,[''],0,ospan,feedback,VOr8sccTLdVbHA1BF0qjTqOmoZo2,html-button-response,109,1090970,0.0-46.0-3.0-0.0-3.0,,,,,,,,,,,,100.0,0.0,,5a8ad2082a842c0001fce0f2,15:00:04,03/04/2024
,"<p style=""font-size:75px;"">...</p>",,ospan,iti,VOr8sccTLdVbHA1BF0qjTqOmoZo2,html-keyboard-response,110,1091977,0.0-46.0-4.0-0.0-0.0,,,,,,,,,,,,,,,5a8ad2082a842c0001fce0f2,15:00:04,03/04/2024
2181.0,,,ospan,symmetry,VOr8sccTLdVbHA1BF0qjTqOmoZo2,symmetry-judgement-task,111,1095299,0.0-46.0-4.0-0.0-1.0-0.0,,,,,,,,,,1.0,1.0,,,,5a8ad2082a842c0001fce0f2,15:00:04,03/04/2024
,"<div style=""font-size: 10rem; color: #0000FF"">S</div>",,ospan,letter,VOr8sccTLdVbHA1BF0qjTqOmoZo2,html-keyboard-response,112,1096310,0.0-46.0-4.0-0.0-1.0-1.0,,,,,,,,,,,,,,,5a8ad2082a842c0001fce0f2,15:00:04,03/04/2024
1976.0,,,ospan,symmetry,VOr8sccTLdVbHA1BF0qjTqOmoZo2,symmetry-judgement-task,113,1100576,0.0-46.0-4.0-0.0-1.0-2.0,,,,,,,,,,1.0,1.0,,,,5a8ad2082a842c0001fce0f2,15:00:04,03/04/2024
,"<div style=""font-size: 10rem; color: #0000FF"">L</div>",,ospan,letter,VOr8sccTLdVbHA1BF0qjTqOmoZo2,html-keyboard-response,114,1101586,0.0-46.0-4.0-0.0-1.0-3.0,,,,,,,,,,,,,,,5a8ad2082a842c0001fce0f2,15:00:04,03/04/2024
2494.0,,,ospan,symmetry,VOr8sccTLdVbHA1BF0qjTqOmoZo2,symmetry-judgement-task,115,1106358,0.0-46.0-4.0-0.0-1.0-4.0,,,,,,,,,,1.0,1.0,,,,5a8ad2082a842c0001fce0f2,15:00:04,03/04/2024
,"<div style=""font-size: 10rem; color: #0000FF"">J</div>",,ospan,letter,VOr8sccTLdVbHA1BF0qjTqOmoZo2,html-keyboard-response,116,1107374,0.0-46.0-4.0-0.0-1.0-5.0,,,,,,,,,,,,,,,5a8ad2082a842c0001fce0f2,15:00:04,03/04/2024
2438.0,,,ospan,symmetry,VOr8sccTLdVbHA1BF0qjTqOmoZo2,symmetry-judgement-task,117,1112053,0.0-46.0-4.0-0.0-1.0-6.0,,,,,,,,,,1.0,1.0,,,,5a8ad2082a842c0001fce0f2,15:00:04,03/04/2024
,"<div style=""font-size: 10rem; color: #0000FF"">K</div>",,ospan,letter,VOr8sccTLdVbHA1BF0qjTqOmoZo2,html-keyboard-response,118,1113062,0.0-46.0-4.0-0.0-1.0-7.0,,,,,,,,,,,,,,,5a8ad2082a842c0001fce0f2,15:00:04,03/04/2024
6988.700000047684,"<div class = numbox><p style=""font-size: 2.4rem"">Please recall the letters you saw to the best of your ability. If you do not remember a particular letter, use the SKIP button.<br><b>(When you are ready to lock in your answer, press ENTER)</b></p><button id = button_1 class = ""square num-button"" onclick = ""recordClick(this)""><div class = content><div class = numbers>C</div></div></button><button id = button_2 class = ""square num-button"" onclick = ""recordClick(this)""><div class = content><div class = numbers>G</div></div></button><button id = button_3 class = ""square num-button"" onclick = ""recordClick(this)""><div class = content><div class = numbers>H</div></div></button><button id = button_4 class = ""square num-button"" onclick = ""recordClick(this)""><div class = content><div class = numbers>J</div></div></button><button id = button_5 class = ""square num-button"" onclick = ""recordClick(this)""><div class = content><div class = numbers>K</div></div></button><button id = button_6 class = ""square num-button"" onclick = ""recordClick(this)""><div class = content><div class = numbers>L</div></div></button><button id = button_7 class = ""square num-button"" onclick = ""recordClick(this)""><div class = content><div class = numbers>N</div></div></button><button id = button_8 class = ""square num-button"" onclick = ""recordClick(this)""><div class = content><div class = numbers>P</div></div></button><button id = button_9 class = ""square num-button"" onclick = ""recordClick(this)""><div class = content><div class = numbers>Q</div></div></button><button id = button_10 class = ""square num-button"" onclick = ""recordClick(this)""><div class = content><div class = numbers>R</div></div></button><button id = button_11 class = ""square num-button"" onclick = ""recordClick(this)""><div class = content><div class = numbers>S</div></div></button><button id = button_12 class = ""square num-button"" onclick = ""recordClick(this)""><div class = content><div class = numbers>Y</div></div></button><button class = clear_button id = ""ClearButton"" onclick = ""clearResponse()"">BACKSPACE</button><button class = blank_button id = ""BlankButton"" onclick = ""blankResponse()"">SKIP</button><p style=""font-size: 2.4rem""><u><b>Current Answer:</b></u></p><br><br><div id=echoed_txt style=""font-size: 5rem; color:blue;""><b></b></div></div>",enter,ospan,retrieval,VOr8sccTLdVbHA1BF0qjTqOmoZo2,html-keyboard-response,119,1120806,0.0-46.0-4.0-0.0-2.0,7,7,7,4.0,"[""S"",""L"",""J"",""K""]","[""S"",""L"",""J"",""K""]",1.0,4.0,,,,,,,5a8ad2082a842c0001fce0f2,15:00:04,03/04/2024
1316.2999999523163,[''],0,ospan,feedback,VOr8sccTLdVbHA1BF0qjTqOmoZo2,html-button-response,120,1122632,0.0-46.0-4.0-0.0-3.0,,,,,,,,,,,,100.0,0.0,,5a8ad2082a842c0001fce0f2,15:00:04,03/04/2024
,"<p style=""font-size:75px;"">...</p>",,ospan,iti,VOr8sccTLdVbHA1BF0qjTqOmoZo2,html-keyboard-response,121,1123643,0.0-46.0-4.0-1.0-0.0,,,,,,,,,,,,,,,5a8ad2082a842c0001fce0f2,15:00:04,03/04/2024
2525.0,,,ospan,symmetry,VOr8sccTLdVbHA1BF0qjTqOmoZo2,symmetry-judgement-task,122,1127312,0.0-46.0-4.0-1.0-1.0-0.0,,,,,,,,,,1.0,1.0,,,,5a8ad2082a842c0001fce0f2,15:00:04,03/04/2024
,"<div style=""font-size: 10rem; color: #0000FF"">K</div>",,ospan,letter,VOr8sccTLdVbHA1BF0qjTqOmoZo2,html-keyboard-response,123,1128316,0.0-46.0-4.0-1.0-1.0-1.0,,,,,,,,,,,,,,,5a8ad2082a842c0001fce0f2,15:00:04,03/04/2024
2307.0,,,ospan,symmetry,VOr8sccTLdVbHA1BF0qjTqOmoZo2,symmetry-judgement-task,124,1132955,0.0-46.0-4.0-1.0-1.0-2.0,,,,,,,,,,1.0,1.0,,,,5a8ad2082a842c0001fce0f2,15:00:04,03/04/2024
,"<div style=""font-size: 10rem; color: #0000FF"">Q</div>",,ospan,letter,VOr8sccTLdVbHA1BF0qjTqOmoZo2,html-keyboard-response,125,1133968,0.0-46.0-4.0-1.0-1.0-3.0,,,,,,,,,,,,,,,5a8ad2082a842c0001fce0f2,15:00:04,03/04/2024
2285.0,,,ospan,symmetry,VOr8sccTLdVbHA1BF0qjTqOmoZo2,symmetry-judgement-task,126,1138531,0.0-46.0-4.0-1.0-1.0-4.0,,,,,,,,,,1.0,1.0,,,,5a8ad2082a842c0001fce0f2,15:00:04,03/04/2024
,"<div style=""font-size: 10rem; color: #0000FF"">C</div>",,ospan,letter,VOr8sccTLdVbHA1BF0qjTqOmoZo2,html-keyboard-response,127,1139547,0.0-46.0-4.0-1.0-1.0-5.0,,,,,,,,,,,,,,,5a8ad2082a842c0001fce0f2,15:00:04,03/04/2024
1817.0,,,ospan,symmetry,VOr8sccTLdVbHA1BF0qjTqOmoZo2,symmetry-judgement-task,128,1143719,0.0-46.0-4.0-1.0-1.0-6.0,,,,,,,,,,1.0,1.0,,,,5a8ad2082a842c0001fce0f2,15:00:04,03/04/2024
,"<div style=""font-size: 10rem; color: #0000FF"">G</div>",,ospan,letter,VOr8sccTLdVbHA1BF0qjTqOmoZo2,html-keyboard-response,129,1144734,0.0-46.0-4.0-1.0-1.0-7.0,,,,,,,,,,,,,,,5a8ad2082a842c0001fce0f2,15:00:04,03/04/2024
1871.0,,,ospan,symmetry,VOr8sccTLdVbHA1BF0qjTqOmoZo2,symmetry-judgement-task,130,1148862,0.0-46.0-4.0-1.0-1.0-8.0,,,,,,,,,,1.0,1.0,,,,5a8ad2082a842c0001fce0f2,15:00:04,03/04/2024
,"<div style=""font-size: 10rem; color: #0000FF"">R</div>",,ospan,letter,VOr8sccTLdVbHA1BF0qjTqOmoZo2,html-keyboard-response,131,1149875,0.0-46.0-4.0-1.0-1.0-9.0,,,,,,,,,,,,,,,5a8ad2082a842c0001fce0f2,15:00:04,03/04/2024
7772.5,"<div class = numbox><p style=""font-size: 2.4rem"">Please recall the letters you saw to the best of your ability. If you do not remember a particular letter, use the SKIP button.<br><b>(When you are ready to lock in your answer, press ENTER)</b></p><button id = button_1 class = ""square num-button"" onclick = ""recordClick(this)""><div class = content><div class = numbers>C</div></div></button><button id = button_2 class = ""square num-button"" onclick = ""recordClick(this)""><div class = content><div class = numbers>G</div></div></button><button id = button_3 class = ""square num-button"" onclick = ""recordClick(this)""><div class = content><div class = numbers>H</div></div></button><button id = button_4 class = ""square num-button"" onclick = ""recordClick(this)""><div class = content><div class = numbers>J</div></div></button><button id = button_5 class = ""square num-button"" onclick = ""recordClick(this)""><div class = content><div class = numbers>K</div></div></button><button id = button_6 class = ""square num-button"" onclick = ""recordClick(this)""><div class = content><div class = numbers>L</div></div></button><button id = button_7 class = ""square num-button"" onclick = ""recordClick(this)""><div class = content><div class = numbers>N</div></div></button><button id = button_8 class = ""square num-button"" onclick = ""recordClick(this)""><div class = content><div class = numbers>P</div></div></button><button id = button_9 class = ""square num-button"" onclick = ""recordClick(this)""><div class = content><div class = numbers>Q</div></div></button><button id = button_10 class = ""square num-button"" onclick = ""recordClick(this)""><div class = content><div class = numbers>R</div></div></button><button id = button_11 class = ""square num-button"" onclick = ""recordClick(this)""><div class = content><div class = numbers>S</div></div></button><button id = button_12 class = ""square num-button"" onclick = ""recordClick(this)""><div class = content><div class = numbers>Y</div></div></button><button class = clear_button id = ""ClearButton"" onclick = ""clearResponse()"">BACKSPACE</button><button class = blank_button id = ""BlankButton"" onclick = ""blankResponse()"">SKIP</button><p style=""font-size: 2.4rem""><u><b>Current Answer:</b></u></p><br><br><div id=echoed_txt style=""font-size: 5rem; color:blue;""><b></b></div></div>",enter,ospan,retrieval,VOr8sccTLdVbHA1BF0qjTqOmoZo2,html-keyboard-response,132,1158415,0.0-46.0-4.0-1.0-2.0,12,12,12,5.0,"[""K"",""Q"",""C"",""G"",""R""]","[""K"",""Q"",""C"",""G"",""R""]",1.0,5.0,,,,,,,5a8ad2082a842c0001fce0f2,15:00:04,03/04/2024
1452.1000000238419,[''],0,ospan,feedback,VOr8sccTLdVbHA1BF0qjTqOmoZo2,html-button-response,133,1160378,0.0-46.0-4.0-1.0-3.0,,,,,,,,,,,,100.0,0.0,,5a8ad2082a842c0001fce0f2,15:00:04,03/04/2024
,"<p style=""font-size:75px;"">...</p>",,ospan,iti,VOr8sccTLdVbHA1BF0qjTqOmoZo2,html-keyboard-response,134,1161383,0.0-46.0-4.0-2.0-0.0,,,,,,,,,,,,,,,5a8ad2082a842c0001fce0f2,15:00:04,03/04/2024
2015.0,,,ospan,symmetry,VOr8sccTLdVbHA1BF0qjTqOmoZo2,symmetry-judgement-task,135,1164893,0.0-46.0-4.0-2.0-1.0-0.0,,,,,,,,,,1.0,1.0,,,,5a8ad2082a842c0001fce0f2,15:00:04,03/04/2024
,"<div style=""font-size: 10rem; color: #0000FF"">C</div>",,ospan,letter,VOr8sccTLdVbHA1BF0qjTqOmoZo2,html-keyboard-response,136,1165906,0.0-46.0-4.0-2.0-1.0-1.0,,,,,,,,,,,,,,,5a8ad2082a842c0001fce0f2,15:00:04,03/04/2024
2136.0,,,ospan,symmetry,VOr8sccTLdVbHA1BF0qjTqOmoZo2,symmetry-judgement-task,137,1170300,0.0-46.0-4.0-2.0-1.0-2.0,,,,,,,,,,1.0,1.0,,,,5a8ad2082a842c0001fce0f2,15:00:04,03/04/2024
,"<div style=""font-size: 10rem; color: #0000FF"">K</div>",,ospan,letter,VOr8sccTLdVbHA1BF0qjTqOmoZo2,html-keyboard-response,138,1171315,0.0-46.0-4.0-2.0-1.0-3.0,,,,,,,,,,,,,,,5a8ad2082a842c0001fce0f2,15:00:04,03/04/2024
1606.0,,,ospan,symmetry,VOr8sccTLdVbHA1BF0qjTqOmoZo2,symmetry-judgement-task,139,1175244,0.0-46.0-4.0-2.0-1.0-4.0,,,,,,,,,,1.0,1.0,,,,5a8ad2082a842c0001fce0f2,15:00:04,03/04/2024
,"<div style=""font-size: 10rem; color: #0000FF"">H</div>",,ospan,letter,VOr8sccTLdVbHA1BF0qjTqOmoZo2,html-keyboard-response,140,1176258,0.0-46.0-4.0-2.0-1.0-5.0,,,,,,,,,,,,,,,5a8ad2082a842c0001fce0f2,15:00:04,03/04/2024
5421.900000095367,"<div class = numbox><p style=""font-size: 2.4rem"">Please recall the letters you saw to the best of your ability. If you do not remember a particular letter, use the SKIP button.<br><b>(When you are ready to lock in your answer, press ENTER)</b></p><button id = button_1 class = ""square num-button"" onclick = ""recordClick(this)""><div class = content><div class = numbers>C</div></div></button><button id = button_2 class = ""square num-button"" onclick = ""recordClick(this)""><div class = content><div class = numbers>G</div></div></button><button id = button_3 class = ""square num-button"" onclick = ""recordClick(this)""><div class = content><div class = numbers>H</div></div></button><button id = button_4 class = ""square num-button"" onclick = ""recordClick(this)""><div class = content><div class = numbers>J</div></div></button><button id = button_5 class = ""square num-button"" onclick = ""recordClick(this)""><div class = content><div class = numbers>K</div></div></button><button id = button_6 class = ""square num-button"" onclick = ""recordClick(this)""><div class = content><div class = numbers>L</div></div></button><button id = button_7 class = ""square num-button"" onclick = ""recordClick(this)""><div class = content><div class = numbers>N</div></div></button><button id = button_8 class = ""square num-button"" onclick = ""recordClick(this)""><div class = content><div class = numbers>P</div></div></button><button id = button_9 class = ""square num-button"" onclick = ""recordClick(this)""><div class = content><div class = numbers>Q</div></div></button><button id = button_10 class = ""square num-button"" onclick = ""recordClick(this)""><div class = content><div class = numbers>R</div></div></button><button id = button_11 class = ""square num-button"" onclick = ""recordClick(this)""><div class = content><div class = numbers>S</div></div></button><button id = button_12 class = ""square num-button"" onclick = ""recordClick(this)""><div class = content><div class = numbers>Y</div></div></button><button class = clear_button id = ""ClearButton"" onclick = ""clearResponse()"">BACKSPACE</button><button class = blank_button id = ""BlankButton"" onclick = ""blankResponse()"">SKIP</button><p style=""font-size: 2.4rem""><u><b>Current Answer:</b></u></p><br><br><div id=echoed_txt style=""font-size: 5rem; color:blue;""><b></b></div></div>",enter,ospan,retrieval,VOr8sccTLdVbHA1BF0qjTqOmoZo2,html-keyboard-response,141,1182444,0.0-46.0-4.0-2.0-2.0,15,15,15,3.0,"[""C"",""K"",""H""]","[""C"",""K"",""H""]",1.0,3.0,,,,,,,5a8ad2082a842c0001fce0f2,15:00:04,03/04/2024
1320.8999999761581,[''],0,ospan,feedback,VOr8sccTLdVbHA1BF0qjTqOmoZo2,html-button-response,142,1184282,0.0-46.0-4.0-2.0-3.0,,,,,,,,,,,,100.0,0.0,,5a8ad2082a842c0001fce0f2,15:00:04,03/04/2024
,"<p style=""font-size:75px;"">...</p>",,ospan,iti,VOr8sccTLdVbHA1BF0qjTqOmoZo2,html-keyboard-response,143,1185290,0.0-46.0-5.0-0.0-0.0,,,,,,,,,,,,,,,5a8ad2082a842c0001fce0f2,15:00:04,03/04/2024
1711.0,,,ospan,symmetry,VOr8sccTLdVbHA1BF0qjTqOmoZo2,symmetry-judgement-task,144,1188535,0.0-46.0-5.0-0.0-1.0-0.0,,,,,,,,,,1.0,1.0,,,,5a8ad2082a842c0001fce0f2,15:00:04,03/04/2024
,"<div style=""font-size: 10rem; color: #0000FF"">P</div>",,ospan,letter,VOr8sccTLdVbHA1BF0qjTqOmoZo2,html-keyboard-response,145,1189553,0.0-46.0-5.0-0.0-1.0-1.0,,,,,,,,,,,,,,,5a8ad2082a842c0001fce0f2,15:00:04,03/04/2024
2003.0,,,ospan,symmetry,VOr8sccTLdVbHA1BF0qjTqOmoZo2,symmetry-judgement-task,146,1193850,0.0-46.0-5.0-0.0-1.0-2.0,,,,,,,,,,1.0,1.0,,,,5a8ad2082a842c0001fce0f2,15:00:04,03/04/2024
,"<div style=""font-size: 10rem; color: #0000FF"">S</div>",,ospan,letter,VOr8sccTLdVbHA1BF0qjTqOmoZo2,html-keyboard-response,147,1194862,0.0-46.0-5.0-0.0-1.0-3.0,,,,,,,,,,,,,,,5a8ad2082a842c0001fce0f2,15:00:04,03/04/2024
1842.0,,,ospan,symmetry,VOr8sccTLdVbHA1BF0qjTqOmoZo2,symmetry-judgement-task,148,1198989,0.0-46.0-5.0-0.0-1.0-4.0,,,,,,,,,,1.0,1.0,,,,5a8ad2082a842c0001fce0f2,15:00:04,03/04/2024
,"<div style=""font-size: 10rem; color: #0000FF"">C</div>",,ospan,letter,VOr8sccTLdVbHA1BF0qjTqOmoZo2,html-keyboard-response,149,1200001,0.0-46.0-5.0-0.0-1.0-5.0,,,,,,,,,,,,,,,5a8ad2082a842c0001fce0f2,15:00:04,03/04/2024
1938.0,,,ospan,symmetry,VOr8sccTLdVbHA1BF0qjTqOmoZo2,symmetry-judgement-task,150,1204287,0.0-46.0-5.0-0.0-1.0-6.0,,,,,,,,,,1.0,1.0,,,,5a8ad2082a842c0001fce0f2,15:00:04,03/04/2024
,"<div style=""font-size: 10rem; color: #0000FF"">K</div>",,ospan,letter,VOr8sccTLdVbHA1BF0qjTqOmoZo2,html-keyboard-response,151,1205298,0.0-46.0-5.0-0.0-1.0-7.0,,,,,,,,,,,,,,,5a8ad2082a842c0001fce0f2,15:00:04,03/04/2024
2094.0,,,ospan,symmetry,VOr8sccTLdVbHA1BF0qjTqOmoZo2,symmetry-judgement-task,152,1209671,0.0-46.0-5.0-0.0-1.0-8.0,,,,,,,,,,1.0,1.0,,,,5a8ad2082a842c0001fce0f2,15:00:04,03/04/2024
,"<div style=""font-size: 10rem; color: #0000FF"">L</div>",,ospan,letter,VOr8sccTLdVbHA1BF0qjTqOmoZo2,html-keyboard-response,153,1210684,0.0-46.0-5.0-0.0-1.0-9.0,,,,,,,,,,,,,,,5a8ad2082a842c0001fce0f2,15:00:04,03/04/2024
1976.0,,,ospan,symmetry,VOr8sccTLdVbHA1BF0qjTqOmoZo2,symmetry-judgement-task,154,1214944,0.0-46.0-5.0-0.0-1.0-10.0,,,,,,,,,,1.0,1.0,,,,5a8ad2082a842c0001fce0f2,15:00:04,03/04/2024
,"<div style=""font-size: 10rem; color: #0000FF"">H</div>",,ospan,letter,VOr8sccTLdVbHA1BF0qjTqOmoZo2,html-keyboard-response,155,1215956,0.0-46.0-5.0-0.0-1.0-11.0,,,,,,,,,,,,,,,5a8ad2082a842c0001fce0f2,15:00:04,03/04/2024
7521.100000023842,"<div class = numbox><p style=""font-size: 2.4rem"">Please recall the letters you saw to the best of your ability. If you do not remember a particular letter, use the SKIP button.<br><b>(When you are ready to lock in your answer, press ENTER)</b></p><button id = button_1 class = ""square num-button"" onclick = ""recordClick(this)""><div class = content><div class = numbers>C</div></div></button><button id = button_2 class = ""square num-button"" onclick = ""recordClick(this)""><div class = content><div class = numbers>G</div></div></button><button id = button_3 class = ""square num-button"" onclick = ""recordClick(this)""><div class = content><div class = numbers>H</div></div></button><button id = button_4 class = ""square num-button"" onclick = ""recordClick(this)""><div class = content><div class = numbers>J</div></div></button><button id = button_5 class = ""square num-button"" onclick = ""recordClick(this)""><div class = content><div class = numbers>K</div></div></button><button id = button_6 class = ""square num-button"" onclick = ""recordClick(this)""><div class = content><div class = numbers>L</div></div></button><button id = button_7 class = ""square num-button"" onclick = ""recordClick(this)""><div class = content><div class = numbers>N</div></div></button><button id = button_8 class = ""square num-button"" onclick = ""recordClick(this)""><div class = content><div class = numbers>P</div></div></button><button id = button_9 class = ""square num-button"" onclick = ""recordClick(this)""><div class = content><div class = numbers>Q</div></div></button><button id = button_10 class = ""square num-button"" onclick = ""recordClick(this)""><div class = content><div class = numbers>R</div></div></button><button id = button_11 class = ""square num-button"" onclick = ""recordClick(this)""><div class = content><div class = numbers>S</div></div></button><button id = button_12 class = ""square num-button"" onclick = ""recordClick(this)""><div class = content><div class = numbers>Y</div></div></button><button class = clear_button id = ""ClearButton"" onclick = ""clearResponse()"">BACKSPACE</button><button class = blank_button id = ""BlankButton"" onclick = ""blankResponse()"">SKIP</button><p style=""font-size: 2.4rem""><u><b>Current Answer:</b></u></p><br><br><div id=echoed_txt style=""font-size: 5rem; color:blue;""><b></b></div></div>",enter,ospan,retrieval,VOr8sccTLdVbHA1BF0qjTqOmoZo2,html-keyboard-response,156,1224244,0.0-46.0-5.0-0.0-2.0,21,21,21,6.0,"[""P"",""S"",""C"",""K"",""L"",""H""]","[""P"",""S"",""C"",""K"",""L"",""H""]",1.0,6.0,,,,,,,5a8ad2082a842c0001fce0f2,15:00:04,03/04/2024
1293.5,[''],0,ospan,feedback,VOr8sccTLdVbHA1BF0qjTqOmoZo2,html-button-response,157,1226055,0.0-46.0-5.0-0.0-3.0,,,,,,,,,,,,100.0,0.0,,5a8ad2082a842c0001fce0f2,15:00:04,03/04/2024
,"<p style=""font-size:75px;"">...</p>",,ospan,iti,VOr8sccTLdVbHA1BF0qjTqOmoZo2,html-keyboard-response,158,1227076,0.0-46.0-5.0-1.0-0.0,,,,,,,,,,,,,,,5a8ad2082a842c0001fce0f2,15:00:04,03/04/2024
2615.0,,,ospan,symmetry,VOr8sccTLdVbHA1BF0qjTqOmoZo2,symmetry-judgement-task,159,1230849,0.0-46.0-5.0-1.0-1.0-0.0,,,,,,,,,,1.0,1.0,,,,5a8ad2082a842c0001fce0f2,15:00:04,03/04/2024
,"<div style=""font-size: 10rem; color: #0000FF"">C</div>",,ospan,letter,VOr8sccTLdVbHA1BF0qjTqOmoZo2,html-keyboard-response,160,1231860,0.0-46.0-5.0-1.0-1.0-1.0,,,,,,,,,,,,,,,5a8ad2082a842c0001fce0f2,15:00:04,03/04/2024
2808.0,,,ospan,symmetry,VOr8sccTLdVbHA1BF0qjTqOmoZo2,symmetry-judgement-task,161,1236914,0.0-46.0-5.0-1.0-1.0-2.0,,,,,,,,,,1.0,1.0,,,,5a8ad2082a842c0001fce0f2,15:00:04,03/04/2024
,"<div style=""font-size: 10rem; color: #0000FF"">L</div>",,ospan,letter,VOr8sccTLdVbHA1BF0qjTqOmoZo2,html-keyboard-response,162,1237924,0.0-46.0-5.0-1.0-1.0-3.0,,,,,,,,,,,,,,,5a8ad2082a842c0001fce0f2,15:00:04,03/04/2024
2330.0,,,ospan,symmetry,VOr8sccTLdVbHA1BF0qjTqOmoZo2,symmetry-judgement-task,163,1242516,0.0-46.0-5.0-1.0-1.0-4.0,,,,,,,,,,1.0,1.0,,,,5a8ad2082a842c0001fce0f2,15:00:04,03/04/2024
,"<div style=""font-size: 10rem; color: #0000FF"">Y</div>",,ospan,letter,VOr8sccTLdVbHA1BF0qjTqOmoZo2,html-keyboard-response,164,1243529,0.0-46.0-5.0-1.0-1.0-5.0,,,,,,,,,,,,,,,5a8ad2082a842c0001fce0f2,15:00:04,03/04/2024
3503.0,,,ospan,symmetry,VOr8sccTLdVbHA1BF0qjTqOmoZo2,symmetry-judgement-task,165,1249345,0.0-46.0-5.0-1.0-1.0-6.0,,,,,,,,,,1.0,1.0,,,,5a8ad2082a842c0001fce0f2,15:00:04,03/04/2024
,"<div style=""font-size: 10rem; color: #0000FF"">G</div>",,ospan,letter,VOr8sccTLdVbHA1BF0qjTqOmoZo2,html-keyboard-response,166,1250360,0.0-46.0-5.0-1.0-1.0-7.0,,,,,,,,,,,,,,,5a8ad2082a842c0001fce0f2,15:00:04,03/04/2024
2313.0,,,ospan,symmetry,VOr8sccTLdVbHA1BF0qjTqOmoZo2,symmetry-judgement-task,167,1254950,0.0-46.0-5.0-1.0-1.0-8.0,,,,,,,,,,1.0,1.0,,,,5a8ad2082a842c0001fce0f2,15:00:04,03/04/2024
,"<div style=""font-size: 10rem; color: #0000FF"">P</div>",,ospan,letter,VOr8sccTLdVbHA1BF0qjTqOmoZo2,html-keyboard-response,168,1255958,0.0-46.0-5.0-1.0-1.0-9.0,,,,,,,,,,,,,,,5a8ad2082a842c0001fce0f2,15:00:04,03/04/2024
3642.0,,,ospan,symmetry,VOr8sccTLdVbHA1BF0qjTqOmoZo2,symmetry-judgement-task,169,1261847,0.0-46.0-5.0-1.0-1.0-10.0,,,,,,,,,,1.0,1.0,,,,5a8ad2082a842c0001fce0f2,15:00:04,03/04/2024
,"<div style=""font-size: 10rem; color: #0000FF"">N</div>",,ospan,letter,VOr8sccTLdVbHA1BF0qjTqOmoZo2,html-keyboard-response,170,1262850,0.0-46.0-5.0-1.0-1.0-11.0,,,,,,,,,,,,,,,5a8ad2082a842c0001fce0f2,15:00:04,03/04/2024
3897.0,,,ospan,symmetry,VOr8sccTLdVbHA1BF0qjTqOmoZo2,symmetry-judgement-task,171,1269019,0.0-46.0-5.0-1.0-1.0-12.0,,,,,,,,,,1.0,1.0,,,,5a8ad2082a842c0001fce0f2,15:00:04,03/04/2024
,"<div style=""font-size: 10rem; color: #0000FF"">R</div>",,ospan,letter,VOr8sccTLdVbHA1BF0qjTqOmoZo2,html-keyboard-response,172,1270033,0.0-46.0-5.0-1.0-1.0-13.0,,,,,,,,,,,,,,,5a8ad2082a842c0001fce0f2,15:00:04,03/04/2024
12288.100000023842,"<div class = numbox><p style=""font-size: 2.4rem"">Please recall the letters you saw to the best of your ability. If you do not remember a particular letter, use the SKIP button.<br><b>(When you are ready to lock in your answer, press ENTER)</b></p><button id = button_1 class = ""square num-button"" onclick = ""recordClick(this)""><div class = content><div class = numbers>C</div></div></button><button id = button_2 class = ""square num-button"" onclick = ""recordClick(this)""><div class = content><div class = numbers>G</div></div></button><button id = button_3 class = ""square num-button"" onclick = ""recordClick(this)""><div class = content><div class = numbers>H</div></div></button><button id = button_4 class = ""square num-button"" onclick = ""recordClick(this)""><div class = content><div class = numbers>J</div></div></button><button id = button_5 class = ""square num-button"" onclick = ""recordClick(this)""><div class = content><div class = numbers>K</div></div></button><button id = button_6 class = ""square num-button"" onclick = ""recordClick(this)""><div class = content><div class = numbers>L</div></div></button><button id = button_7 class = ""square num-button"" onclick = ""recordClick(this)""><div class = content><div class = numbers>N</div></div></button><button id = button_8 class = ""square num-button"" onclick = ""recordClick(this)""><div class = content><div class = numbers>P</div></div></button><button id = button_9 class = ""square num-button"" onclick = ""recordClick(this)""><div class = content><div class = numbers>Q</div></div></button><button id = button_10 class = ""square num-button"" onclick = ""recordClick(this)""><div class = content><div class = numbers>R</div></div></button><button id = button_11 class = ""square num-button"" onclick = ""recordClick(this)""><div class = content><div class = numbers>S</div></div></button><button id = button_12 class = ""square num-button"" onclick = ""recordClick(this)""><div class = content><div class = numbers>Y</div></div></button><button class = clear_button id = ""ClearButton"" onclick = ""clearResponse()"">BACKSPACE</button><button class = blank_button id = ""BlankButton"" onclick = ""blankResponse()"">SKIP</button><p style=""font-size: 2.4rem""><u><b>Current Answer:</b></u></p><br><br><div id=echoed_txt style=""font-size: 5rem; color:blue;""><b></b></div></div>",enter,ospan,retrieval,VOr8sccTLdVbHA1BF0qjTqOmoZo2,html-keyboard-response,173,1283087,0.0-46.0-5.0-1.0-2.0,28,26,21,7.0,"[""C"",""L"",""Y"",""G"",""P"",""L"",""J""]","[""C"",""L"",""Y"",""G"",""P"",""N"",""R""]",0.0,5.0,,,,,,,5a8ad2082a842c0001fce0f2,15:00:04,03/04/2024
1306.5,[''],0,ospan,feedback,VOr8sccTLdVbHA1BF0qjTqOmoZo2,html-button-response,174,1284906,0.0-46.0-5.0-1.0-3.0,,,,,,,,,,,,100.0,0.0,,5a8ad2082a842c0001fce0f2,15:00:04,03/04/2024
,"<p style=""font-size:75px;"">...</p>",,ospan,iti,VOr8sccTLdVbHA1BF0qjTqOmoZo2,html-keyboard-response,175,1285920,0.0-46.0-6.0-0.0-0.0,,,,,,,,,,,,,,,5a8ad2082a842c0001fce0f2,15:00:04,03/04/2024
2065.0,,,ospan,symmetry,VOr8sccTLdVbHA1BF0qjTqOmoZo2,symmetry-judgement-task,176,1289504,0.0-46.0-6.0-0.0-1.0-0.0,,,,,,,,,,1.0,1.0,,,,5a8ad2082a842c0001fce0f2,15:00:04,03/04/2024
,"<div style=""font-size: 10rem; color: #0000FF"">J</div>",,ospan,letter,VOr8sccTLdVbHA1BF0qjTqOmoZo2,html-keyboard-response,177,1290515,0.0-46.0-6.0-0.0-1.0-1.0,,,,,,,,,,,,,,,5a8ad2082a842c0001fce0f2,15:00:04,03/04/2024
1945.0,,,ospan,symmetry,VOr8sccTLdVbHA1BF0qjTqOmoZo2,symmetry-judgement-task,178,1294743,0.0-46.0-6.0-0.0-1.0-2.0,,,,,,,,,,1.0,1.0,,,,5a8ad2082a842c0001fce0f2,15:00:04,03/04/2024
,"<div style=""font-size: 10rem; color: #0000FF"">L</div>",,ospan,letter,VOr8sccTLdVbHA1BF0qjTqOmoZo2,html-keyboard-response,179,1295759,0.0-46.0-6.0-0.0-1.0-3.0,,,,,,,,,,,,,,,5a8ad2082a842c0001fce0f2,15:00:04,03/04/2024
1475.0,,,ospan,symmetry,VOr8sccTLdVbHA1BF0qjTqOmoZo2,symmetry-judgement-task,180,1299524,0.0-46.0-6.0-0.0-1.0-4.0,,,,,,,,,,1.0,1.0,,,,5a8ad2082a842c0001fce0f2,15:00:04,03/04/2024
,"<div style=""font-size: 10rem; color: #0000FF"">K</div>",,ospan,letter,VOr8sccTLdVbHA1BF0qjTqOmoZo2,html-keyboard-response,181,1300537,0.0-46.0-6.0-0.0-1.0-5.0,,,,,,,,,,,,,,,5a8ad2082a842c0001fce0f2,15:00:04,03/04/2024
1656.0,,,ospan,symmetry,VOr8sccTLdVbHA1BF0qjTqOmoZo2,symmetry-judgement-task,182,1304560,0.0-46.0-6.0-0.0-1.0-6.0,,,,,,,,,,1.0,1.0,,,,5a8ad2082a842c0001fce0f2,15:00:04,03/04/2024
,"<div style=""font-size: 10rem; color: #0000FF"">S</div>",,ospan,letter,VOr8sccTLdVbHA1BF0qjTqOmoZo2,html-keyboard-response,183,1305572,0.0-46.0-6.0-0.0-1.0-7.0,,,,,,,,,,,,,,,5a8ad2082a842c0001fce0f2,15:00:04,03/04/2024
3290.0,,,ospan,symmetry,VOr8sccTLdVbHA1BF0qjTqOmoZo2,symmetry-judgement-task,184,1311155,0.0-46.0-6.0-0.0-1.0-8.0,,,,,,,,,,1.0,1.0,,,,5a8ad2082a842c0001fce0f2,15:00:04,03/04/2024
,"<div style=""font-size: 10rem; color: #0000FF"">P</div>",,ospan,letter,VOr8sccTLdVbHA1BF0qjTqOmoZo2,html-keyboard-response,185,1312168,0.0-46.0-6.0-0.0-1.0-9.0,,,,,,,,,,,,,,,5a8ad2082a842c0001fce0f2,15:00:04,03/04/2024
13658.600000023842,"<div class = numbox><p style=""font-size: 2.4rem"">Please recall the letters you saw to the best of your ability. If you do not remember a particular letter, use the SKIP button.<br><b>(When you are ready to lock in your answer, press ENTER)</b></p><button id = button_1 class = ""square num-button"" onclick = ""recordClick(this)""><div class = content><div class = numbers>C</div></div></button><button id = button_2 class = ""square num-button"" onclick = ""recordClick(this)""><div class = content><div class = numbers>G</div></div></button><button id = button_3 class = ""square num-button"" onclick = ""recordClick(this)""><div class = content><div class = numbers>H</div></div></button><button id = button_4 class = ""square num-button"" onclick = ""recordClick(this)""><div class = content><div class = numbers>J</div></div></button><button id = button_5 class = ""square num-button"" onclick = ""recordClick(this)""><div class = content><div class = numbers>K</div></div></button><button id = button_6 class = ""square num-button"" onclick = ""recordClick(this)""><div class = content><div class = numbers>L</div></div></button><button id = button_7 class = ""square num-button"" onclick = ""recordClick(this)""><div class = content><div class = numbers>N</div></div></button><button id = button_8 class = ""square num-button"" onclick = ""recordClick(this)""><div class = content><div class = numbers>P</div></div></button><button id = button_9 class = ""square num-button"" onclick = ""recordClick(this)""><div class = content><div class = numbers>Q</div></div></button><button id = button_10 class = ""square num-button"" onclick = ""recordClick(this)""><div class = content><div class = numbers>R</div></div></button><button id = button_11 class = ""square num-button"" onclick = ""recordClick(this)""><div class = content><div class = numbers>S</div></div></button><button id = button_12 class = ""square num-button"" onclick = ""recordClick(this)""><div class = content><div class = numbers>Y</div></div></button><button class = clear_button id = ""ClearButton"" onclick = ""clearResponse()"">BACKSPACE</button><button class = blank_button id = ""BlankButton"" onclick = ""blankResponse()"">SKIP</button><p style=""font-size: 2.4rem""><u><b>Current Answer:</b></u></p><br><br><div id=echoed_txt style=""font-size: 5rem; color:blue;""><b></b></div></div>",enter,ospan,retrieval,VOr8sccTLdVbHA1BF0qjTqOmoZo2,html-keyboard-response,186,1326590,0.0-46.0-6.0-0.0-2.0,33,29,21,5.0,"[""J"",""K"",""L"",""S"",""P""]","[""J"",""L"",""K"",""S"",""P""]",0.0,3.0,,,,,,,5a8ad2082a842c0001fce0f2,15:00:04,03/04/2024
1303.6000000238419,[''],0,ospan,feedback,VOr8sccTLdVbHA1BF0qjTqOmoZo2,html-button-response,187,1328399,0.0-46.0-6.0-0.0-3.0,,,,,,,,,,,,100.0,0.0,,5a8ad2082a842c0001fce0f2,15:00:04,03/04/2024
,"<p style=""font-size:75px;"">...</p>",,ospan,iti,VOr8sccTLdVbHA1BF0qjTqOmoZo2,html-keyboard-response,188,1329408,0.0-46.0-6.0-1.0-0.0,,,,,,,,,,,,,,,5a8ad2082a842c0001fce0f2,15:00:04,03/04/2024
2950.0,,,ospan,symmetry,VOr8sccTLdVbHA1BF0qjTqOmoZo2,symmetry-judgement-task,189,1333903,0.0-46.0-6.0-1.0-1.0-0.0,,,,,,,,,,1.0,1.0,,,,5a8ad2082a842c0001fce0f2,15:00:04,03/04/2024
,"<div style=""font-size: 10rem; color: #0000FF"">P</div>",,ospan,letter,VOr8sccTLdVbHA1BF0qjTqOmoZo2,html-keyboard-response,190,1334914,0.0-46.0-6.0-1.0-1.0-1.0,,,,,,,,,,,,,,,5a8ad2082a842c0001fce0f2,15:00:04,03/04/2024
2077.0,,,ospan,symmetry,VOr8sccTLdVbHA1BF0qjTqOmoZo2,symmetry-judgement-task,191,1339248,0.0-46.0-6.0-1.0-1.0-2.0,,,,,,,,,,1.0,1.0,,,,5a8ad2082a842c0001fce0f2,15:00:04,03/04/2024
,"<div style=""font-size: 10rem; color: #0000FF"">H</div>",,ospan,letter,VOr8sccTLdVbHA1BF0qjTqOmoZo2,html-keyboard-response,192,1340262,0.0-46.0-6.0-1.0-1.0-3.0,,,,,,,,,,,,,,,5a8ad2082a842c0001fce0f2,15:00:04,03/04/2024
2477.0,,,ospan,symmetry,VOr8sccTLdVbHA1BF0qjTqOmoZo2,symmetry-judgement-task,193,1345015,0.0-46.0-6.0-1.0-1.0-4.0,,,,,,,,,,1.0,1.0,,,,5a8ad2082a842c0001fce0f2,15:00:04,03/04/2024
,"<div style=""font-size: 10rem; color: #0000FF"">Y</div>",,ospan,letter,VOr8sccTLdVbHA1BF0qjTqOmoZo2,html-keyboard-response,194,1346024,0.0-46.0-6.0-1.0-1.0-5.0,,,,,,,,,,,,,,,5a8ad2082a842c0001fce0f2,15:00:04,03/04/2024
1838.0,,,ospan,symmetry,VOr8sccTLdVbHA1BF0qjTqOmoZo2,symmetry-judgement-task,195,1350166,0.0-46.0-6.0-1.0-1.0-6.0,,,,,,,,,,1.0,1.0,,,,5a8ad2082a842c0001fce0f2,15:00:04,03/04/2024
,"<div style=""font-size: 10rem; color: #0000FF"">R</div>",,ospan,letter,VOr8sccTLdVbHA1BF0qjTqOmoZo2,html-keyboard-response,196,1351177,0.0-46.0-6.0-1.0-1.0-7.0,,,,,,,,,,,,,,,5a8ad2082a842c0001fce0f2,15:00:04,03/04/2024
1984.0,,,ospan,symmetry,VOr8sccTLdVbHA1BF0qjTqOmoZo2,symmetry-judgement-task,197,1355433,0.0-46.0-6.0-1.0-1.0-8.0,,,,,,,,,,1.0,1.0,,,,5a8ad2082a842c0001fce0f2,15:00:04,03/04/2024
,"<div style=""font-size: 10rem; color: #0000FF"">S</div>",,ospan,letter,VOr8sccTLdVbHA1BF0qjTqOmoZo2,html-keyboard-response,198,1356445,0.0-46.0-6.0-1.0-1.0-9.0,,,,,,,,,,,,,,,5a8ad2082a842c0001fce0f2,15:00:04,03/04/2024
1951.0,,,ospan,symmetry,VOr8sccTLdVbHA1BF0qjTqOmoZo2,symmetry-judgement-task,199,1360686,0.0-46.0-6.0-1.0-1.0-10.0,,,,,,,,,,1.0,1.0,,,,5a8ad2082a842c0001fce0f2,15:00:04,03/04/2024
,"<div style=""font-size: 10rem; color: #0000FF"">N</div>",,ospan,letter,VOr8sccTLdVbHA1BF0qjTqOmoZo2,html-keyboard-response,200,1361699,0.0-46.0-6.0-1.0-1.0-11.0,,,,,,,,,,,,,,,5a8ad2082a842c0001fce0f2,15:00:04,03/04/2024
3273.0,,,ospan,symmetry,VOr8sccTLdVbHA1BF0qjTqOmoZo2,symmetry-judgement-task,201,1367279,0.0-46.0-6.0-1.0-1.0-12.0,,,,,,,,,,1.0,1.0,,,,5a8ad2082a842c0001fce0f2,15:00:04,03/04/2024
,"<div style=""font-size: 10rem; color: #0000FF"">C</div>",,ospan,letter,VOr8sccTLdVbHA1BF0qjTqOmoZo2,html-keyboard-response,202,1368289,0.0-46.0-6.0-1.0-1.0-13.0,,,,,,,,,,,,,,,5a8ad2082a842c0001fce0f2,15:00:04,03/04/2024
2147.0,,,ospan,symmetry,VOr8sccTLdVbHA1BF0qjTqOmoZo2,symmetry-judgement-task,203,1372696,0.0-46.0-6.0-1.0-1.0-14.0,,,,,,,,,,1.0,1.0,,,,5a8ad2082a842c0001fce0f2,15:00:04,03/04/2024
,"<div style=""font-size: 10rem; color: #0000FF"">K</div>",,ospan,letter,VOr8sccTLdVbHA1BF0qjTqOmoZo2,html-keyboard-response,204,1373708,0.0-46.0-6.0-1.0-1.0-15.0,,,,,,,,,,,,,,,5a8ad2082a842c0001fce0f2,15:00:04,03/04/2024
21726.799999952316,"<div class = numbox><p style=""font-size: 2.4rem"">Please recall the letters you saw to the best of your ability. If you do not remember a particular letter, use the SKIP button.<br><b>(When you are ready to lock in your answer, press ENTER)</b></p><button id = button_1 class = ""square num-button"" onclick = ""recordClick(this)""><div class = content><div class = numbers>C</div></div></button><button id = button_2 class = ""square num-button"" onclick = ""recordClick(this)""><div class = content><div class = numbers>G</div></div></button><button id = button_3 class = ""square num-button"" onclick = ""recordClick(this)""><div class = content><div class = numbers>H</div></div></button><button id = button_4 class = ""square num-button"" onclick = ""recordClick(this)""><div class = content><div class = numbers>J</div></div></button><button id = button_5 class = ""square num-button"" onclick = ""recordClick(this)""><div class = content><div class = numbers>K</div></div></button><button id = button_6 class = ""square num-button"" onclick = ""recordClick(this)""><div class = content><div class = numbers>L</div></div></button><button id = button_7 class = ""square num-button"" onclick = ""recordClick(this)""><div class = content><div class = numbers>N</div></div></button><button id = button_8 class = ""square num-button"" onclick = ""recordClick(this)""><div class = content><div class = numbers>P</div></div></button><button id = button_9 class = ""square num-button"" onclick = ""recordClick(this)""><div class = content><div class = numbers>Q</div></div></button><button id = button_10 class = ""square num-button"" onclick = ""recordClick(this)""><div class = content><div class = numbers>R</div></div></button><button id = button_11 class = ""square num-button"" onclick = ""recordClick(this)""><div class = content><div class = numbers>S</div></div></button><button id = button_12 class = ""square num-button"" onclick = ""recordClick(this)""><div class = content><div class = numbers>Y</div></div></button><button class = clear_button id = ""ClearButton"" onclick = ""clearResponse()"">BACKSPACE</button><button class = blank_button id = ""BlankButton"" onclick = ""blankResponse()"">SKIP</button><p style=""font-size: 2.4rem""><u><b>Current Answer:</b></u></p><br><br><div id=echoed_txt style=""font-size: 5rem; color:blue;""><b></b></div></div>",enter,ospan,retrieval,VOr8sccTLdVbHA1BF0qjTqOmoZo2,html-keyboard-response,205,1396188,0.0-46.0-6.0-1.0-2.0,41,35,21,8.0,"[""P"",""H"",""Y"",""R"",""L"",""N"",""C""]","[""P"",""H"",""Y"",""R"",""S"",""N"",""C"",""K""]",0.0,6.0,,,,,,,5a8ad2082a842c0001fce0f2,15:00:04,03/04/2024
1717.7000000476837,[''],0,ospan,feedback,VOr8sccTLdVbHA1BF0qjTqOmoZo2,html-button-response,206,1398423,0.0-46.0-6.0-1.0-3.0,,,,,,,,,,,,100.0,0.0,,5a8ad2082a842c0001fce0f2,15:00:04,03/04/2024
23688.100000023842,,"{'Q0': 'Clear instructions, not too long'}",ospan,survey_ospan,VOr8sccTLdVbHA1BF0qjTqOmoZo2,lmdlab-survey-text,207,1422876,0.0-46.0-7.0,,,,,,,,,,,,,,VOr8sccTLdVbHA1BF0qjTqOmoZo2,5a8ad2082a842c0001fce0f2,15:00:04,03/04/2024
1756.6000000238419,<p><p style='font-size: 3rem'>Great work!<br><br>This completes the symmetry and memory task.</p><br><br><br>,0,ospan,finish,VOr8sccTLdVbHA1BF0qjTqOmoZo2,html-button-response,208,1424645,0.0-46.0-8.0,41,35,21,,,,,,,,,100.0,,,5a8ad2082a842c0001fce0f2,15:00:04,03/04/2024
