rt,stimulus,response,exp_name,exp_stage,subjectID,trial_type,trial_index,time_elapsed,internal_node_id,ospan_shown,ospan_total,ospan_abs,length,resp_actual,resp_correct,full_correct,num_correct,feedback,accuracy,correct,math_acc,math_warning,databaseID,prolificID,start_time,date
2611.3000000000466,<div class = 'left_align' style='font-size: 3.25rem; line-height: 1.3;'><p class = 'center_align'><b>Welcome to the Symmetry and Memory Task</b><br><br><br><br></p>Press 'continue' to show the instructions.<br><br><br><br></div>,0,ospan,instruct,72XV1XzAzTgC4ElXg6gmJOOBFyB2,html-button-response,54,634569,0.0-46.0-0.0-0.0-0.0,,,,,,,,,,,,,,,655509818aa2ed735957565c,09:00:32,03/04/2024
5434.199999999953,"<div class = 'left_align' style='font-size: 3.25rem; line-height: 1.3;'><p class = 'center_align'><b>Symmetry and Memory Task</b><br><br></p>In this task, you will try to memorize letters you see on the screen<br>while you also view black and white grid pictures.<br><br>In the next few minutes, you will have some practice to get you familiar<br>with how the task works.<br><br>It may be difficult sometimes, but please do not worry about making mistakes!<br><br>We will begin by practicing the letter part of the task.<br><br><br><br></div>",0,ospan,instruct,72XV1XzAzTgC4ElXg6gmJOOBFyB2,html-button-response,55,640256,0.0-46.0-0.0-0.0-1.0,,,,,,,,,,,,,,,655509818aa2ed735957565c,09:00:32,03/04/2024
8281.400000000023,"<div class = 'left_align' style='font-size: 3.25rem; line-height: 1.3;'>For this practice part, letters will appear on the screen one at a time.<br><br>Try to remember each letter in the order presented.<br><br>After some letters have been shown, you will see a response screen. Your<br>goal is to report the letters you saw <b>in order</b>. If you do not remember<br>a particular letter, you will have the option to leave it blank.<br><br><br><br></div>",0,ospan,instruct,72XV1XzAzTgC4ElXg6gmJOOBFyB2,html-button-response,56,648792,0.0-46.0-0.0-0.0-2.0,,,,,,,,,,,,,,,655509818aa2ed735957565c,09:00:32,03/04/2024
3371.20000000007,"<div class = 'left_align' style='font-size: 3.25rem; line-height: 1.3;'>Remember, it is very important to get the letters in the same<br>order as you see them.<br><br>When you are ready, you may begin the letter practice.</div><br><br><br><br>",0,ospan,instruct,72XV1XzAzTgC4ElXg6gmJOOBFyB2,html-button-response,57,652417,0.0-46.0-0.0-0.0-3.0,,,,,,,,,,,,,,,655509818aa2ed735957565c,09:00:32,03/04/2024
,"<p style=""font-size:75px;"">...</p>",,ospan,iti,72XV1XzAzTgC4ElXg6gmJOOBFyB2,html-keyboard-response,58,653671,0.0-46.0-0.0-1.0-0.0,,,,,,,,,,,,,,,655509818aa2ed735957565c,09:00:32,03/04/2024
,"<div style=""font-size: 10rem; color: #0000FF"">N</div>",,ospan,letter,72XV1XzAzTgC4ElXg6gmJOOBFyB2,html-keyboard-response,59,654676,0.0-46.0-0.0-1.0-1.0,,,,,,,,,,,,,,,655509818aa2ed735957565c,09:00:32,03/04/2024
,"<div style=""font-size: 10rem; color: #0000FF"">P</div>",,ospan,letter,72XV1XzAzTgC4ElXg6gmJOOBFyB2,html-keyboard-response,60,656430,0.0-46.0-0.0-1.0-2.0,,,,,,,,,,,,,,,655509818aa2ed735957565c,09:00:32,03/04/2024
48434.5,"<div class = numbox><p style=""font-size: 2.4rem"">Please recall the letters you saw to the best of your ability. If you do not remember a particular letter, use the SKIP button.<br><b>(When you are ready to lock in your answer, press ENTER)</b></p><button id = button_1 class = ""square num-button"" onclick = ""recordClick(this)""><div class = content><div class = numbers>C</div></div></button><button id = button_2 class = ""square num-button"" onclick = ""recordClick(this)""><div class = content><div class = numbers>G</div></div></button><button id = button_3 class = ""square num-button"" onclick = ""recordClick(this)""><div class = content><div class = numbers>H</div></div></button><button id = button_4 class = ""square num-button"" onclick = ""recordClick(this)""><div class = content><div class = numbers>J</div></div></button><button id = button_5 class = ""square num-button"" onclick = ""recordClick(this)""><div class = content><div class = numbers>K</div></div></button><button id = button_6 class = ""square num-button"" onclick = ""recordClick(this)""><div class = content><div class = numbers>L</div></div></button><button id = button_7 class = ""square num-button"" onclick = ""recordClick(this)""><div class = content><div class = numbers>N</div></div></button><button id = button_8 class = ""square num-button"" onclick = ""recordClick(this)""><div class = content><div class = numbers>P</div></div></button><button id = button_9 class = ""square num-button"" onclick = ""recordClick(this)""><div class = content><div class = numbers>Q</div></div></button><button id = button_10 class = ""square num-button"" onclick = ""recordClick(this)""><div class = content><div class = numbers>R</div></div></button><button id = button_11 class = ""square num-button"" onclick = ""recordClick(this)""><div class = content><div class = numbers>S</div></div></button><button id = button_12 class = ""square num-button"" onclick = ""recordClick(this)""><div class = content><div class = numbers>Y</div></div></button><button class = clear_button id = ""ClearButton"" onclick = ""clearResponse()"">BACKSPACE</button><button class = blank_button id = ""BlankButton"" onclick = ""blankResponse()"">SKIP</button><p style=""font-size: 2.4rem""><u><b>Current Answer:</b></u></p><br><br><div id=echoed_txt style=""font-size: 5rem; color:blue;""><b></b></div></div>",enter,ospan,retrieval,72XV1XzAzTgC4ElXg6gmJOOBFyB2,html-keyboard-response,61,705618,0.0-46.0-0.0-1.0-3.0,NA,NA,NA,2.0,"[""_"",""G"",""N""]","[""N"",""P""]",0.0,0.0,"['<font color=""red"">N</font>', '<font color=""red"">P</font>']",,,,,,655509818aa2ed735957565c,09:00:32,03/04/2024
5784.79999999993,"['<p style=""font-size:44px"">Letters:<br><br><br><font color=""red"">N</font> <font color=""red"">P</font></p><br><br>']",0,ospan,practice_feedback,72XV1XzAzTgC4ElXg6gmJOOBFyB2,html-button-response,62,711911,0.0-46.0-0.0-1.0-4.0,,,,,,,,,,,,,,,655509818aa2ed735957565c,09:00:32,03/04/2024
,"<p style=""font-size:75px;"">...</p>",,ospan,iti,72XV1XzAzTgC4ElXg6gmJOOBFyB2,html-keyboard-response,63,712915,0.0-46.0-0.0-2.0-0.0,,,,,,,,,,,,,,,655509818aa2ed735957565c,09:00:32,03/04/2024
,"<div style=""font-size: 10rem; color: #0000FF"">Y</div>",,ospan,letter,72XV1XzAzTgC4ElXg6gmJOOBFyB2,html-keyboard-response,64,713918,0.0-46.0-0.0-2.0-1.0,,,,,,,,,,,,,,,655509818aa2ed735957565c,09:00:32,03/04/2024
,"<div style=""font-size: 10rem; color: #0000FF"">G</div>",,ospan,letter,72XV1XzAzTgC4ElXg6gmJOOBFyB2,html-keyboard-response,65,715671,0.0-46.0-0.0-2.0-2.0,,,,,,,,,,,,,,,655509818aa2ed735957565c,09:00:32,03/04/2024
,"<div style=""font-size: 10rem; color: #0000FF"">S</div>",,ospan,letter,72XV1XzAzTgC4ElXg6gmJOOBFyB2,html-keyboard-response,66,717423,0.0-46.0-0.0-2.0-3.0,,,,,,,,,,,,,,,655509818aa2ed735957565c,09:00:32,03/04/2024
24889.699999999953,"<div class = numbox><p style=""font-size: 2.4rem"">Please recall the letters you saw to the best of your ability. If you do not remember a particular letter, use the SKIP button.<br><b>(When you are ready to lock in your answer, press ENTER)</b></p><button id = button_1 class = ""square num-button"" onclick = ""recordClick(this)""><div class = content><div class = numbers>C</div></div></button><button id = button_2 class = ""square num-button"" onclick = ""recordClick(this)""><div class = content><div class = numbers>G</div></div></button><button id = button_3 class = ""square num-button"" onclick = ""recordClick(this)""><div class = content><div class = numbers>H</div></div></button><button id = button_4 class = ""square num-button"" onclick = ""recordClick(this)""><div class = content><div class = numbers>J</div></div></button><button id = button_5 class = ""square num-button"" onclick = ""recordClick(this)""><div class = content><div class = numbers>K</div></div></button><button id = button_6 class = ""square num-button"" onclick = ""recordClick(this)""><div class = content><div class = numbers>L</div></div></button><button id = button_7 class = ""square num-button"" onclick = ""recordClick(this)""><div class = content><div class = numbers>N</div></div></button><button id = button_8 class = ""square num-button"" onclick = ""recordClick(this)""><div class = content><div class = numbers>P</div></div></button><button id = button_9 class = ""square num-button"" onclick = ""recordClick(this)""><div class = content><div class = numbers>Q</div></div></button><button id = button_10 class = ""square num-button"" onclick = ""recordClick(this)""><div class = content><div class = numbers>R</div></div></button><button id = button_11 class = ""square num-button"" onclick = ""recordClick(this)""><div class = content><div class = numbers>S</div></div></button><button id = button_12 class = ""square num-button"" onclick = ""recordClick(this)""><div class = content><div class = numbers>Y</div></div></button><button class = clear_button id = ""ClearButton"" onclick = ""clearResponse()"">BACKSPACE</button><button class = blank_button id = ""BlankButton"" onclick = ""blankResponse()"">SKIP</button><p style=""font-size: 2.4rem""><u><b>Current Answer:</b></u></p><br><br><div id=echoed_txt style=""font-size: 5rem; color:blue;""><b></b></div></div>",enter,ospan,retrieval,72XV1XzAzTgC4ElXg6gmJOOBFyB2,html-keyboard-response,67,743069,0.0-46.0-0.0-2.0-4.0,NA,NA,NA,3.0,"[""Y"",""Y"",""G"",""S""]","[""Y"",""G"",""S""]",0.0,1.0,"['<font color=""green"">Y</font>', '<font color=""red"">G</font>', '<font color=""red"">S</font>']",,,,,,655509818aa2ed735957565c,09:00:32,03/04/2024
4264.29999999993,"['<p style=""font-size:44px"">Letters:<br><br><br><font color=""green"">Y</font> <font color=""red"">G</font> <font color=""red"">S</font></p><br><br>']",0,ospan,practice_feedback,72XV1XzAzTgC4ElXg6gmJOOBFyB2,html-button-response,68,747839,0.0-46.0-0.0-2.0-5.0,,,,,,,,,,,,,,,655509818aa2ed735957565c,09:00:32,03/04/2024
42334.69999999995,"<div class = 'left_align' style='font-size: 3.25rem; line-height: 1.3;'>Now you will practice doing the <b>symmetry judgment part</b> of the experiment.<br><br>A black and white grid picture will appear on the screen and you have to judge if it is <br>symmetrical or asymetrical.<br><br>A picture is 'mirror' symmetrical if its left half is identical to the right half when flipped.<br>Here are examples of a symmetrical and an asymetrical picture:<br><br><center><img src='Stimuli/img/symm_instructions_extra.png' style='height:420px; width:900'></img></center><br>To judge symmetry, imagine you were to fold each picture down the middle, like a book –<br>would the left half match the right half when folded onto each other?<br><br></div><br>",0,ospan,instruct,72XV1XzAzTgC4ElXg6gmJOOBFyB2,html-button-response,69,790177,0.0-46.0-1.0-0.0-0.0,,,,,,,,,,,,,,,655509818aa2ed735957565c,09:00:32,03/04/2024
5428.600000000093,"<div class = 'left_align' style='font-size: 3.25rem; line-height: 1.3;'>When you have viewed the picture and determined whether it is symmetrical or not,<br>you can <b>click the Yes or No button</b> below to answer.<br><br>If you take longer than 15 seconds, it will continue automatically<br>and record the answer as an error.</div><br>",0,ospan,instruct,72XV1XzAzTgC4ElXg6gmJOOBFyB2,html-button-response,70,795860,0.0-46.0-1.0-0.0-1.0,,,,,,,,,,,,,,,655509818aa2ed735957565c,09:00:32,03/04/2024
2789.0,"<div class = 'left_align' style='font-size: 3.25rem; line-height: 1.3;'>It is <b>very</b> important that you make the symmetry judgment correctly.<br><br>It is also important that you try and judge the picture as quickly as you can.<br><br>When you are ready, click on the button below to try some practice problems.</div><br><br><br><br>",0,ospan,instruct,72XV1XzAzTgC4ElXg6gmJOOBFyB2,html-button-response,71,798903,0.0-46.0-1.0-0.0-2.0,,,,,,,,,,,,,,,655509818aa2ed735957565c,09:00:32,03/04/2024
2648.0,,,ospan,symmetry,72XV1XzAzTgC4ElXg6gmJOOBFyB2,symmetry-judgement-task,72,802361,0.0-46.0-1.0-1.0-0.0,,,,,,,,,,1.0,1.0,,,,655509818aa2ed735957565c,09:00:32,03/04/2024
,"<p style=""color:green; font-size: 35px"">Correct</p>",,ospan,feedback,72XV1XzAzTgC4ElXg6gmJOOBFyB2,html-keyboard-response,73,803114,0.0-46.0-1.0-1.0-1.0,,,,,,,,,,,,,,,655509818aa2ed735957565c,09:00:32,03/04/2024
2326.0,,,ospan,symmetry,72XV1XzAzTgC4ElXg6gmJOOBFyB2,symmetry-judgement-task,74,808395,0.0-46.0-1.0-1.0-2.0,,,,,,,,,,1.0,1.0,,,,655509818aa2ed735957565c,09:00:32,03/04/2024
,"<p style=""color:green; font-size: 35px"">Correct</p>",,ospan,feedback,72XV1XzAzTgC4ElXg6gmJOOBFyB2,html-keyboard-response,75,809147,0.0-46.0-1.0-1.0-3.0,,,,,,,,,,,,,,,655509818aa2ed735957565c,09:00:32,03/04/2024
2742.0,,,ospan,symmetry,72XV1XzAzTgC4ElXg6gmJOOBFyB2,symmetry-judgement-task,76,814837,0.0-46.0-1.0-1.0-4.0,,,,,,,,,,1.0,1.0,,,,655509818aa2ed735957565c,09:00:32,03/04/2024
,"<p style=""color:green; font-size: 35px"">Correct</p>",,ospan,feedback,72XV1XzAzTgC4ElXg6gmJOOBFyB2,html-keyboard-response,77,815592,0.0-46.0-1.0-1.0-5.0,,,,,,,,,,,,,,,655509818aa2ed735957565c,09:00:32,03/04/2024
2638.1999999999534,"<p style=""font-size: 3rem;"">You responded correctly on 3 of 3 symmetry judgments. Good job!</p><br><br>",0,ospan,practice,72XV1XzAzTgC4ElXg6gmJOOBFyB2,html-button-response,78,820235,0.0-46.0-1.0-2.0,,,,,,,,,,,,,,,655509818aa2ed735957565c,09:00:32,03/04/2024
23335.899999999907,"<div class = 'left_align' style='font-size: 3.25rem; line-height: 1.3;'>Now you will practice doing both parts of the experiment at the same time.<br><br>In the next practice set, you will be given one grid picture to judge.<br>Then letter will appear on the screen. Try to remember the letter.<br><br>It is <b>very important</b> to make the symmetry judgment as quickly and accurately as possible.<br><br>Just as before, once you have make the symmetry judgment, you can click Yes or No.<br><b>Note that you will no longer see Correct or Incorrect feedback.</div><br><br><br><br>",0,ospan,instruct,72XV1XzAzTgC4ElXg6gmJOOBFyB2,html-button-response,79,843823,0.0-46.0-2.0-0.0-0.0,,,,,,,,,,,,,,,655509818aa2ed735957565c,09:00:32,03/04/2024
26739.399999999907,"<div class = 'left_align' style='font-size: 3.25rem; line-height: 1.3;'>After the letter goes away, another grid picture will appear, and then<br>another letter.<br><br>At the end of each set of letters and grids, you will recall the letters to the best<br>of your ability. Remember, try your best to get the letters in the correct order.<br><br>It is important to <b>quickly</b> and <b>accurately</b> make the symmetry judgments.</div><br><br><br><br>",0,ospan,instruct,72XV1XzAzTgC4ElXg6gmJOOBFyB2,html-button-response,80,870817,0.0-46.0-2.0-0.0-1.0,,,,,,,,,,,,,,,655509818aa2ed735957565c,09:00:32,03/04/2024
50809.10000000009,"<div class = 'left_align' style='font-size: 3.25rem; line-height: 1.3;'>On the feedback screen, if you are not doing well at the symmetry judgments,<br>you will also see a warning in the middle. This indicates your percent <br>correct for the grid pictures for the entire experiment.<br><br>It is <b>very</b> important for you to keep accuracy at least at 85%: <u>We can only use<br>data where the participant was at least 85% accurate on the judgments.</u> Therefore,<br> please try your best to perform well on the symmetry judgments, <b>at the same time</b><br>doing your best to recall as many letters as possible.<br><br>Click the button to try some practice problems.</div><br><br><br><br>",0,ospan,instruct,72XV1XzAzTgC4ElXg6gmJOOBFyB2,html-button-response,81,921882,0.0-46.0-2.0-0.0-2.0,,,,,,,,,,,,,,,655509818aa2ed735957565c,09:00:32,03/04/2024
,"<p style=""font-size:75px;"">...</p>",,ospan,iti,72XV1XzAzTgC4ElXg6gmJOOBFyB2,html-keyboard-response,82,923135,0.0-46.0-2.0-1.0-0.0,,,,,,,,,,,,,,,655509818aa2ed735957565c,09:00:32,03/04/2024
3415.0,,,ospan,symmetry,72XV1XzAzTgC4ElXg6gmJOOBFyB2,symmetry-judgement-task,83,927986,0.0-46.0-2.0-1.0-1.0-0.0,,,,,,,,,,1.0,1.0,,,,655509818aa2ed735957565c,09:00:32,03/04/2024
,"<div style=""font-size: 10rem; color: #0000FF"">G</div>",,ospan,letter,72XV1XzAzTgC4ElXg6gmJOOBFyB2,html-keyboard-response,84,928989,0.0-46.0-2.0-1.0-1.0-1.0,,,,,,,,,,,,,,,655509818aa2ed735957565c,09:00:32,03/04/2024
3653.0,,,ospan,symmetry,72XV1XzAzTgC4ElXg6gmJOOBFyB2,symmetry-judgement-task,85,935017,0.0-46.0-2.0-1.0-1.0-2.0,,,,,,,,,,1.0,1.0,,,,655509818aa2ed735957565c,09:00:32,03/04/2024
,"<div style=""font-size: 10rem; color: #0000FF"">C</div>",,ospan,letter,72XV1XzAzTgC4ElXg6gmJOOBFyB2,html-keyboard-response,86,936022,0.0-46.0-2.0-1.0-1.0-3.0,,,,,,,,,,,,,,,655509818aa2ed735957565c,09:00:32,03/04/2024
3265.0,,,ospan,symmetry,72XV1XzAzTgC4ElXg6gmJOOBFyB2,symmetry-judgement-task,87,941599,0.0-46.0-2.0-1.0-1.0-4.0,,,,,,,,,,1.0,1.0,,,,655509818aa2ed735957565c,09:00:32,03/04/2024
,"<div style=""font-size: 10rem; color: #0000FF"">R</div>",,ospan,letter,72XV1XzAzTgC4ElXg6gmJOOBFyB2,html-keyboard-response,88,942603,0.0-46.0-2.0-1.0-1.0-5.0,,,,,,,,,,,,,,,655509818aa2ed735957565c,09:00:32,03/04/2024
37727.10000000021,"<div class = numbox><p style=""font-size: 2.4rem"">Please recall the letters you saw to the best of your ability. If you do not remember a particular letter, use the SKIP button.<br><b>(When you are ready to lock in your answer, press ENTER)</b></p><button id = button_1 class = ""square num-button"" onclick = ""recordClick(this)""><div class = content><div class = numbers>C</div></div></button><button id = button_2 class = ""square num-button"" onclick = ""recordClick(this)""><div class = content><div class = numbers>G</div></div></button><button id = button_3 class = ""square num-button"" onclick = ""recordClick(this)""><div class = content><div class = numbers>H</div></div></button><button id = button_4 class = ""square num-button"" onclick = ""recordClick(this)""><div class = content><div class = numbers>J</div></div></button><button id = button_5 class = ""square num-button"" onclick = ""recordClick(this)""><div class = content><div class = numbers>K</div></div></button><button id = button_6 class = ""square num-button"" onclick = ""recordClick(this)""><div class = content><div class = numbers>L</div></div></button><button id = button_7 class = ""square num-button"" onclick = ""recordClick(this)""><div class = content><div class = numbers>N</div></div></button><button id = button_8 class = ""square num-button"" onclick = ""recordClick(this)""><div class = content><div class = numbers>P</div></div></button><button id = button_9 class = ""square num-button"" onclick = ""recordClick(this)""><div class = content><div class = numbers>Q</div></div></button><button id = button_10 class = ""square num-button"" onclick = ""recordClick(this)""><div class = content><div class = numbers>R</div></div></button><button id = button_11 class = ""square num-button"" onclick = ""recordClick(this)""><div class = content><div class = numbers>S</div></div></button><button id = button_12 class = ""square num-button"" onclick = ""recordClick(this)""><div class = content><div class = numbers>Y</div></div></button><button class = clear_button id = ""ClearButton"" onclick = ""clearResponse()"">BACKSPACE</button><button class = blank_button id = ""BlankButton"" onclick = ""blankResponse()"">SKIP</button><p style=""font-size: 2.4rem""><u><b>Current Answer:</b></u></p><br><br><div id=echoed_txt style=""font-size: 5rem; color:blue;""><b></b></div></div>",enter,ospan,retrieval,72XV1XzAzTgC4ElXg6gmJOOBFyB2,html-keyboard-response,89,981086,0.0-46.0-2.0-1.0-2.0-0.0,NA,NA,NA,3.0,"[""G"",""G"",""G"",""G"",""G"",""G"",""G"",""G"",""C"",""S""]","[""G"",""C"",""R""]",0.0,1.0,"['<font color=""green"">G</font>', '<font color=""red"">C</font>', '<font color=""red"">R</font>']",,,,,,655509818aa2ed735957565c,09:00:32,03/04/2024
4471.5,"['<p style=""font-size:44px"">Letters:<br><br><br><font color=""green"">G</font> <font color=""red"">C</font> <font color=""red"">R</font></p><br><br><p style=""font-size:30px"">Symmetry:<br><br><font color=""green"">100%</font></p><br><br>']",0,ospan,practice_feedback,72XV1XzAzTgC4ElXg6gmJOOBFyB2,html-button-response,90,986062,0.0-46.0-2.0-1.0-2.0-1.0,,,,,,,,,,,,,,,655509818aa2ed735957565c,09:00:32,03/04/2024
,"<p style=""font-size:75px;"">...</p>",,ospan,iti,72XV1XzAzTgC4ElXg6gmJOOBFyB2,html-keyboard-response,91,987066,0.0-46.0-2.0-2.0-0.0,,,,,,,,,,,,,,,655509818aa2ed735957565c,09:00:32,03/04/2024
2643.0,,,ospan,symmetry,72XV1XzAzTgC4ElXg6gmJOOBFyB2,symmetry-judgement-task,92,991185,0.0-46.0-2.0-2.0-1.0-0.0,,,,,,,,,,1.0,1.0,,,,655509818aa2ed735957565c,09:00:32,03/04/2024
,"<div style=""font-size: 10rem; color: #0000FF"">C</div>",,ospan,letter,72XV1XzAzTgC4ElXg6gmJOOBFyB2,html-keyboard-response,93,992190,0.0-46.0-2.0-2.0-1.0-1.0,,,,,,,,,,,,,,,655509818aa2ed735957565c,09:00:32,03/04/2024
3269.0,,,ospan,symmetry,72XV1XzAzTgC4ElXg6gmJOOBFyB2,symmetry-judgement-task,94,997636,0.0-46.0-2.0-2.0-1.0-2.0,,,,,,,,,,1.0,1.0,,,,655509818aa2ed735957565c,09:00:32,03/04/2024
,"<div style=""font-size: 10rem; color: #0000FF"">H</div>",,ospan,letter,72XV1XzAzTgC4ElXg6gmJOOBFyB2,html-keyboard-response,95,998640,0.0-46.0-2.0-2.0-1.0-3.0,,,,,,,,,,,,,,,655509818aa2ed735957565c,09:00:32,03/04/2024
1828.0,,,ospan,symmetry,72XV1XzAzTgC4ElXg6gmJOOBFyB2,symmetry-judgement-task,96,1002646,0.0-46.0-2.0-2.0-1.0-4.0,,,,,,,,,,1.0,1.0,,,,655509818aa2ed735957565c,09:00:32,03/04/2024
,"<div style=""font-size: 10rem; color: #0000FF"">L</div>",,ospan,letter,72XV1XzAzTgC4ElXg6gmJOOBFyB2,html-keyboard-response,97,1003650,0.0-46.0-2.0-2.0-1.0-5.0,,,,,,,,,,,,,,,655509818aa2ed735957565c,09:00:32,03/04/2024
21284.200000000186,"<div class = numbox><p style=""font-size: 2.4rem"">Please recall the letters you saw to the best of your ability. If you do not remember a particular letter, use the SKIP button.<br><b>(When you are ready to lock in your answer, press ENTER)</b></p><button id = button_1 class = ""square num-button"" onclick = ""recordClick(this)""><div class = content><div class = numbers>C</div></div></button><button id = button_2 class = ""square num-button"" onclick = ""recordClick(this)""><div class = content><div class = numbers>G</div></div></button><button id = button_3 class = ""square num-button"" onclick = ""recordClick(this)""><div class = content><div class = numbers>H</div></div></button><button id = button_4 class = ""square num-button"" onclick = ""recordClick(this)""><div class = content><div class = numbers>J</div></div></button><button id = button_5 class = ""square num-button"" onclick = ""recordClick(this)""><div class = content><div class = numbers>K</div></div></button><button id = button_6 class = ""square num-button"" onclick = ""recordClick(this)""><div class = content><div class = numbers>L</div></div></button><button id = button_7 class = ""square num-button"" onclick = ""recordClick(this)""><div class = content><div class = numbers>N</div></div></button><button id = button_8 class = ""square num-button"" onclick = ""recordClick(this)""><div class = content><div class = numbers>P</div></div></button><button id = button_9 class = ""square num-button"" onclick = ""recordClick(this)""><div class = content><div class = numbers>Q</div></div></button><button id = button_10 class = ""square num-button"" onclick = ""recordClick(this)""><div class = content><div class = numbers>R</div></div></button><button id = button_11 class = ""square num-button"" onclick = ""recordClick(this)""><div class = content><div class = numbers>S</div></div></button><button id = button_12 class = ""square num-button"" onclick = ""recordClick(this)""><div class = content><div class = numbers>Y</div></div></button><button class = clear_button id = ""ClearButton"" onclick = ""clearResponse()"">BACKSPACE</button><button class = blank_button id = ""BlankButton"" onclick = ""blankResponse()"">SKIP</button><p style=""font-size: 2.4rem""><u><b>Current Answer:</b></u></p><br><br><div id=echoed_txt style=""font-size: 5rem; color:blue;""><b></b></div></div>",enter,ospan,retrieval,72XV1XzAzTgC4ElXg6gmJOOBFyB2,html-keyboard-response,98,1025689,0.0-46.0-2.0-2.0-2.0-0.0,NA,NA,NA,3.0,"[""C"",""H"",""L""]","[""C"",""H"",""L""]",1.0,3.0,"['<font color=""green"">C</font>', '<font color=""green"">H</font>', '<font color=""green"">L</font>']",,,,,,655509818aa2ed735957565c,09:00:32,03/04/2024
4337.199999999953,"['<p style=""font-size:44px"">Letters:<br><br><br><font color=""green"">C</font> <font color=""green"">H</font> <font color=""green"">L</font></p><br><br><p style=""font-size:30px"">Symmetry:<br><br><font color=""green"">100%</font></p><br><br>']",0,ospan,practice_feedback,72XV1XzAzTgC4ElXg6gmJOOBFyB2,html-button-response,99,1030533,0.0-46.0-2.0-2.0-2.0-1.0,,,,,,,,,,,,,,,655509818aa2ed735957565c,09:00:32,03/04/2024
9925.800000000047,"<div class = 'left_align' style='font-size: 3rem; line-height: 1.3;'><b>Great work! That is the end of practice.</b><br><br>The real trials will look just like the practice trials you just completed.<br><br><u>Here, you will not see feedback</u>. First, you will see an grid picture to judge,<br>then a letter to remember. When the recall screen appears, report the letters in the<br>order presented. If you forget a letter, remember to use the <b>blank</b> button to move to the<br>next letter. Some of the sets will have more symmetry grids and letters than others.<br><br>It is important that you do your best on both the symmetry judgments and the letter recall<br>parts of the experiment. For for the symmetry judgments, try to work as <b>quickly</b> and <br>as <b>accurately</b> as possible. Remember to keep your symmetry accuracy at 85% or above.<br><br><b>For the letters, do NOT use any external aid (e.g., writing on paper, electronic device).</b><br><br>It is <u>very important</u> to our experiment to have a <b>true</b> view of your real performance.<br><br>Do not worry if you miss some when it gets hard! This task is meant to be very challenging!<br><br>Click the button to begin.</div><br><br><br><br>",0,ospan,starting_real_here,72XV1XzAzTgC4ElXg6gmJOOBFyB2,html-button-response,100,1040464,0.0-46.0-2.0-3.0,,,,,,,,,,,,,,,655509818aa2ed735957565c,09:00:32,03/04/2024
,"<p style=""font-size:75px;"">...</p>",,ospan,iti,72XV1XzAzTgC4ElXg6gmJOOBFyB2,html-keyboard-response,101,1041720,0.0-46.0-3.0-0.0-0.0,,,,,,,,,,,,,,,655509818aa2ed735957565c,09:00:32,03/04/2024
2425.0,,,ospan,symmetry,72XV1XzAzTgC4ElXg6gmJOOBFyB2,symmetry-judgement-task,102,1045585,0.0-46.0-3.0-0.0-1.0-0.0,,,,,,,,,,1.0,1.0,,,,655509818aa2ed735957565c,09:00:32,03/04/2024
,"<div style=""font-size: 10rem; color: #0000FF"">K</div>",,ospan,letter,72XV1XzAzTgC4ElXg6gmJOOBFyB2,html-keyboard-response,103,1046589,0.0-46.0-3.0-0.0-1.0-1.0,,,,,,,,,,,,,,,655509818aa2ed735957565c,09:00:32,03/04/2024
2378.0,,,ospan,symmetry,72XV1XzAzTgC4ElXg6gmJOOBFyB2,symmetry-judgement-task,104,1051127,0.0-46.0-3.0-0.0-1.0-2.0,,,,,,,,,,1.0,1.0,,,,655509818aa2ed735957565c,09:00:32,03/04/2024
,"<div style=""font-size: 10rem; color: #0000FF"">C</div>",,ospan,letter,72XV1XzAzTgC4ElXg6gmJOOBFyB2,html-keyboard-response,105,1052129,0.0-46.0-3.0-0.0-1.0-3.0,,,,,,,,,,,,,,,655509818aa2ed735957565c,09:00:32,03/04/2024
2586.0,,,ospan,symmetry,72XV1XzAzTgC4ElXg6gmJOOBFyB2,symmetry-judgement-task,106,1056920,0.0-46.0-3.0-0.0-1.0-4.0,,,,,,,,,,1.0,1.0,,,,655509818aa2ed735957565c,09:00:32,03/04/2024
,"<div style=""font-size: 10rem; color: #0000FF"">P</div>",,ospan,letter,72XV1XzAzTgC4ElXg6gmJOOBFyB2,html-keyboard-response,107,1057922,0.0-46.0-3.0-0.0-1.0-5.0,,,,,,,,,,,,,,,655509818aa2ed735957565c,09:00:32,03/04/2024
7130.300000000047,"<div class = numbox><p style=""font-size: 2.4rem"">Please recall the letters you saw to the best of your ability. If you do not remember a particular letter, use the SKIP button.<br><b>(When you are ready to lock in your answer, press ENTER)</b></p><button id = button_1 class = ""square num-button"" onclick = ""recordClick(this)""><div class = content><div class = numbers>C</div></div></button><button id = button_2 class = ""square num-button"" onclick = ""recordClick(this)""><div class = content><div class = numbers>G</div></div></button><button id = button_3 class = ""square num-button"" onclick = ""recordClick(this)""><div class = content><div class = numbers>H</div></div></button><button id = button_4 class = ""square num-button"" onclick = ""recordClick(this)""><div class = content><div class = numbers>J</div></div></button><button id = button_5 class = ""square num-button"" onclick = ""recordClick(this)""><div class = content><div class = numbers>K</div></div></button><button id = button_6 class = ""square num-button"" onclick = ""recordClick(this)""><div class = content><div class = numbers>L</div></div></button><button id = button_7 class = ""square num-button"" onclick = ""recordClick(this)""><div class = content><div class = numbers>N</div></div></button><button id = button_8 class = ""square num-button"" onclick = ""recordClick(this)""><div class = content><div class = numbers>P</div></div></button><button id = button_9 class = ""square num-button"" onclick = ""recordClick(this)""><div class = content><div class = numbers>Q</div></div></button><button id = button_10 class = ""square num-button"" onclick = ""recordClick(this)""><div class = content><div class = numbers>R</div></div></button><button id = button_11 class = ""square num-button"" onclick = ""recordClick(this)""><div class = content><div class = numbers>S</div></div></button><button id = button_12 class = ""square num-button"" onclick = ""recordClick(this)""><div class = content><div class = numbers>Y</div></div></button><button class = clear_button id = ""ClearButton"" onclick = ""clearResponse()"">BACKSPACE</button><button class = blank_button id = ""BlankButton"" onclick = ""blankResponse()"">SKIP</button><p style=""font-size: 2.4rem""><u><b>Current Answer:</b></u></p><br><br><div id=echoed_txt style=""font-size: 5rem; color:blue;""><b></b></div></div>",enter,ospan,retrieval,72XV1XzAzTgC4ElXg6gmJOOBFyB2,html-keyboard-response,108,1065808,0.0-46.0-3.0-0.0-2.0,3,3,3,3.0,"[""K"",""C"",""P""]","[""K"",""C"",""P""]",1.0,3.0,,,,,,,655509818aa2ed735957565c,09:00:32,03/04/2024
2413.2999999998137,[''],0,ospan,feedback,72XV1XzAzTgC4ElXg6gmJOOBFyB2,html-button-response,109,1068728,0.0-46.0-3.0-0.0-3.0,,,,,,,,,,,,100.0,0.0,,655509818aa2ed735957565c,09:00:32,03/04/2024
,"<p style=""font-size:75px;"">...</p>",,ospan,iti,72XV1XzAzTgC4ElXg6gmJOOBFyB2,html-keyboard-response,110,1069734,0.0-46.0-4.0-0.0-0.0,,,,,,,,,,,,,,,655509818aa2ed735957565c,09:00:32,03/04/2024
4040.0,,,ospan,symmetry,72XV1XzAzTgC4ElXg6gmJOOBFyB2,symmetry-judgement-task,111,1075223,0.0-46.0-4.0-0.0-1.0-0.0,,,,,,,,,,1.0,1.0,,,,655509818aa2ed735957565c,09:00:32,03/04/2024
,"<div style=""font-size: 10rem; color: #0000FF"">C</div>",,ospan,letter,72XV1XzAzTgC4ElXg6gmJOOBFyB2,html-keyboard-response,112,1076228,0.0-46.0-4.0-0.0-1.0-1.0,,,,,,,,,,,,,,,655509818aa2ed735957565c,09:00:32,03/04/2024
2750.0,,,ospan,symmetry,72XV1XzAzTgC4ElXg6gmJOOBFyB2,symmetry-judgement-task,113,1080798,0.0-46.0-4.0-0.0-1.0-2.0,,,,,,,,,,1.0,1.0,,,,655509818aa2ed735957565c,09:00:32,03/04/2024
,"<div style=""font-size: 10rem; color: #0000FF"">Y</div>",,ospan,letter,72XV1XzAzTgC4ElXg6gmJOOBFyB2,html-keyboard-response,114,1081802,0.0-46.0-4.0-0.0-1.0-3.0,,,,,,,,,,,,,,,655509818aa2ed735957565c,09:00:32,03/04/2024
2271.0,,,ospan,symmetry,72XV1XzAzTgC4ElXg6gmJOOBFyB2,symmetry-judgement-task,115,1086251,0.0-46.0-4.0-0.0-1.0-4.0,,,,,,,,,,1.0,1.0,,,,655509818aa2ed735957565c,09:00:32,03/04/2024
,"<div style=""font-size: 10rem; color: #0000FF"">P</div>",,ospan,letter,72XV1XzAzTgC4ElXg6gmJOOBFyB2,html-keyboard-response,116,1087254,0.0-46.0-4.0-0.0-1.0-5.0,,,,,,,,,,,,,,,655509818aa2ed735957565c,09:00:32,03/04/2024
3500.0,,,ospan,symmetry,72XV1XzAzTgC4ElXg6gmJOOBFyB2,symmetry-judgement-task,117,1092922,0.0-46.0-4.0-0.0-1.0-6.0,,,,,,,,,,1.0,1.0,,,,655509818aa2ed735957565c,09:00:32,03/04/2024
,"<div style=""font-size: 10rem; color: #0000FF"">K</div>",,ospan,letter,72XV1XzAzTgC4ElXg6gmJOOBFyB2,html-keyboard-response,118,1093927,0.0-46.0-4.0-0.0-1.0-7.0,,,,,,,,,,,,,,,655509818aa2ed735957565c,09:00:32,03/04/2024
8742.5,"<div class = numbox><p style=""font-size: 2.4rem"">Please recall the letters you saw to the best of your ability. If you do not remember a particular letter, use the SKIP button.<br><b>(When you are ready to lock in your answer, press ENTER)</b></p><button id = button_1 class = ""square num-button"" onclick = ""recordClick(this)""><div class = content><div class = numbers>C</div></div></button><button id = button_2 class = ""square num-button"" onclick = ""recordClick(this)""><div class = content><div class = numbers>G</div></div></button><button id = button_3 class = ""square num-button"" onclick = ""recordClick(this)""><div class = content><div class = numbers>H</div></div></button><button id = button_4 class = ""square num-button"" onclick = ""recordClick(this)""><div class = content><div class = numbers>J</div></div></button><button id = button_5 class = ""square num-button"" onclick = ""recordClick(this)""><div class = content><div class = numbers>K</div></div></button><button id = button_6 class = ""square num-button"" onclick = ""recordClick(this)""><div class = content><div class = numbers>L</div></div></button><button id = button_7 class = ""square num-button"" onclick = ""recordClick(this)""><div class = content><div class = numbers>N</div></div></button><button id = button_8 class = ""square num-button"" onclick = ""recordClick(this)""><div class = content><div class = numbers>P</div></div></button><button id = button_9 class = ""square num-button"" onclick = ""recordClick(this)""><div class = content><div class = numbers>Q</div></div></button><button id = button_10 class = ""square num-button"" onclick = ""recordClick(this)""><div class = content><div class = numbers>R</div></div></button><button id = button_11 class = ""square num-button"" onclick = ""recordClick(this)""><div class = content><div class = numbers>S</div></div></button><button id = button_12 class = ""square num-button"" onclick = ""recordClick(this)""><div class = content><div class = numbers>Y</div></div></button><button class = clear_button id = ""ClearButton"" onclick = ""clearResponse()"">BACKSPACE</button><button class = blank_button id = ""BlankButton"" onclick = ""blankResponse()"">SKIP</button><p style=""font-size: 2.4rem""><u><b>Current Answer:</b></u></p><br><br><div id=echoed_txt style=""font-size: 5rem; color:blue;""><b></b></div></div>",enter,ospan,retrieval,72XV1XzAzTgC4ElXg6gmJOOBFyB2,html-keyboard-response,119,1103425,0.0-46.0-4.0-0.0-2.0,7,7,7,4.0,"[""C"",""Y"",""P"",""K""]","[""C"",""Y"",""P"",""K""]",1.0,4.0,,,,,,,655509818aa2ed735957565c,09:00:32,03/04/2024
1833.0,[''],0,ospan,feedback,72XV1XzAzTgC4ElXg6gmJOOBFyB2,html-button-response,120,1105763,0.0-46.0-4.0-0.0-3.0,,,,,,,,,,,,100.0,0.0,,655509818aa2ed735957565c,09:00:32,03/04/2024
,"<p style=""font-size:75px;"">...</p>",,ospan,iti,72XV1XzAzTgC4ElXg6gmJOOBFyB2,html-keyboard-response,121,1106768,0.0-46.0-4.0-1.0-0.0,,,,,,,,,,,,,,,655509818aa2ed735957565c,09:00:32,03/04/2024
2471.0,,,ospan,symmetry,72XV1XzAzTgC4ElXg6gmJOOBFyB2,symmetry-judgement-task,122,1110303,0.0-46.0-4.0-1.0-1.0-0.0,,,,,,,,,,1.0,1.0,,,,655509818aa2ed735957565c,09:00:32,03/04/2024
,"<div style=""font-size: 10rem; color: #0000FF"">G</div>",,ospan,letter,72XV1XzAzTgC4ElXg6gmJOOBFyB2,html-keyboard-response,123,1111308,0.0-46.0-4.0-1.0-1.0-1.0,,,,,,,,,,,,,,,655509818aa2ed735957565c,09:00:32,03/04/2024
1745.0,,,ospan,symmetry,72XV1XzAzTgC4ElXg6gmJOOBFyB2,symmetry-judgement-task,124,1115218,0.0-46.0-4.0-1.0-1.0-2.0,,,,,,,,,,1.0,1.0,,,,655509818aa2ed735957565c,09:00:32,03/04/2024
,"<div style=""font-size: 10rem; color: #0000FF"">S</div>",,ospan,letter,72XV1XzAzTgC4ElXg6gmJOOBFyB2,html-keyboard-response,125,1116220,0.0-46.0-4.0-1.0-1.0-3.0,,,,,,,,,,,,,,,655509818aa2ed735957565c,09:00:32,03/04/2024
1923.0,,,ospan,symmetry,72XV1XzAzTgC4ElXg6gmJOOBFyB2,symmetry-judgement-task,126,1120331,0.0-46.0-4.0-1.0-1.0-4.0,,,,,,,,,,0.0,0.0,,,,655509818aa2ed735957565c,09:00:32,03/04/2024
,"<div style=""font-size: 10rem; color: #0000FF"">Q</div>",,ospan,letter,72XV1XzAzTgC4ElXg6gmJOOBFyB2,html-keyboard-response,127,1121334,0.0-46.0-4.0-1.0-1.0-5.0,,,,,,,,,,,,,,,655509818aa2ed735957565c,09:00:32,03/04/2024
3106.0,,,ospan,symmetry,72XV1XzAzTgC4ElXg6gmJOOBFyB2,symmetry-judgement-task,128,1126646,0.0-46.0-4.0-1.0-1.0-6.0,,,,,,,,,,1.0,1.0,,,,655509818aa2ed735957565c,09:00:32,03/04/2024
,"<div style=""font-size: 10rem; color: #0000FF"">J</div>",,ospan,letter,72XV1XzAzTgC4ElXg6gmJOOBFyB2,html-keyboard-response,129,1127651,0.0-46.0-4.0-1.0-1.0-7.0,,,,,,,,,,,,,,,655509818aa2ed735957565c,09:00:32,03/04/2024
1973.0,,,ospan,symmetry,72XV1XzAzTgC4ElXg6gmJOOBFyB2,symmetry-judgement-task,130,1131800,0.0-46.0-4.0-1.0-1.0-8.0,,,,,,,,,,1.0,1.0,,,,655509818aa2ed735957565c,09:00:32,03/04/2024
,"<div style=""font-size: 10rem; color: #0000FF"">P</div>",,ospan,letter,72XV1XzAzTgC4ElXg6gmJOOBFyB2,html-keyboard-response,131,1132803,0.0-46.0-4.0-1.0-1.0-9.0,,,,,,,,,,,,,,,655509818aa2ed735957565c,09:00:32,03/04/2024
13923.300000000047,"<div class = numbox><p style=""font-size: 2.4rem"">Please recall the letters you saw to the best of your ability. If you do not remember a particular letter, use the SKIP button.<br><b>(When you are ready to lock in your answer, press ENTER)</b></p><button id = button_1 class = ""square num-button"" onclick = ""recordClick(this)""><div class = content><div class = numbers>C</div></div></button><button id = button_2 class = ""square num-button"" onclick = ""recordClick(this)""><div class = content><div class = numbers>G</div></div></button><button id = button_3 class = ""square num-button"" onclick = ""recordClick(this)""><div class = content><div class = numbers>H</div></div></button><button id = button_4 class = ""square num-button"" onclick = ""recordClick(this)""><div class = content><div class = numbers>J</div></div></button><button id = button_5 class = ""square num-button"" onclick = ""recordClick(this)""><div class = content><div class = numbers>K</div></div></button><button id = button_6 class = ""square num-button"" onclick = ""recordClick(this)""><div class = content><div class = numbers>L</div></div></button><button id = button_7 class = ""square num-button"" onclick = ""recordClick(this)""><div class = content><div class = numbers>N</div></div></button><button id = button_8 class = ""square num-button"" onclick = ""recordClick(this)""><div class = content><div class = numbers>P</div></div></button><button id = button_9 class = ""square num-button"" onclick = ""recordClick(this)""><div class = content><div class = numbers>Q</div></div></button><button id = button_10 class = ""square num-button"" onclick = ""recordClick(this)""><div class = content><div class = numbers>R</div></div></button><button id = button_11 class = ""square num-button"" onclick = ""recordClick(this)""><div class = content><div class = numbers>S</div></div></button><button id = button_12 class = ""square num-button"" onclick = ""recordClick(this)""><div class = content><div class = numbers>Y</div></div></button><button class = clear_button id = ""ClearButton"" onclick = ""clearResponse()"">BACKSPACE</button><button class = blank_button id = ""BlankButton"" onclick = ""blankResponse()"">SKIP</button><p style=""font-size: 2.4rem""><u><b>Current Answer:</b></u></p><br><br><div id=echoed_txt style=""font-size: 5rem; color:blue;""><b></b></div></div>",enter,ospan,retrieval,72XV1XzAzTgC4ElXg6gmJOOBFyB2,html-keyboard-response,132,1147480,0.0-46.0-4.0-1.0-2.0,12,9,7,5.0,"[""C"",""P"",""Q"",""S"",""P""]","[""G"",""S"",""Q"",""J"",""P""]",0.0,2.0,,,,,,,655509818aa2ed735957565c,09:00:32,03/04/2024
2064.899999999907,[''],0,ospan,feedback,72XV1XzAzTgC4ElXg6gmJOOBFyB2,html-button-response,133,1150050,0.0-46.0-4.0-1.0-3.0,,,,,,,,,,,,92.0,0.0,,655509818aa2ed735957565c,09:00:32,03/04/2024
,"<p style=""font-size:75px;"">...</p>",,ospan,iti,72XV1XzAzTgC4ElXg6gmJOOBFyB2,html-keyboard-response,134,1151056,0.0-46.0-4.0-2.0-0.0,,,,,,,,,,,,,,,655509818aa2ed735957565c,09:00:32,03/04/2024
2953.0,,,ospan,symmetry,72XV1XzAzTgC4ElXg6gmJOOBFyB2,symmetry-judgement-task,135,1155071,0.0-46.0-4.0-2.0-1.0-0.0,,,,,,,,,,1.0,1.0,,,,655509818aa2ed735957565c,09:00:32,03/04/2024
,"<div style=""font-size: 10rem; color: #0000FF"">J</div>",,ospan,letter,72XV1XzAzTgC4ElXg6gmJOOBFyB2,html-keyboard-response,136,1156075,0.0-46.0-4.0-2.0-1.0-1.0,,,,,,,,,,,,,,,655509818aa2ed735957565c,09:00:32,03/04/2024
2174.0,,,ospan,symmetry,72XV1XzAzTgC4ElXg6gmJOOBFyB2,symmetry-judgement-task,137,1160496,0.0-46.0-4.0-2.0-1.0-2.0,,,,,,,,,,1.0,1.0,,,,655509818aa2ed735957565c,09:00:32,03/04/2024
,"<div style=""font-size: 10rem; color: #0000FF"">S</div>",,ospan,letter,72XV1XzAzTgC4ElXg6gmJOOBFyB2,html-keyboard-response,138,1161501,0.0-46.0-4.0-2.0-1.0-3.0,,,,,,,,,,,,,,,655509818aa2ed735957565c,09:00:32,03/04/2024
3192.0,,,ospan,symmetry,72XV1XzAzTgC4ElXg6gmJOOBFyB2,symmetry-judgement-task,139,1166888,0.0-46.0-4.0-2.0-1.0-4.0,,,,,,,,,,0.0,0.0,,,,655509818aa2ed735957565c,09:00:32,03/04/2024
,"<div style=""font-size: 10rem; color: #0000FF"">R</div>",,ospan,letter,72XV1XzAzTgC4ElXg6gmJOOBFyB2,html-keyboard-response,140,1167893,0.0-46.0-4.0-2.0-1.0-5.0,,,,,,,,,,,,,,,655509818aa2ed735957565c,09:00:32,03/04/2024
7587.59999999986,"<div class = numbox><p style=""font-size: 2.4rem"">Please recall the letters you saw to the best of your ability. If you do not remember a particular letter, use the SKIP button.<br><b>(When you are ready to lock in your answer, press ENTER)</b></p><button id = button_1 class = ""square num-button"" onclick = ""recordClick(this)""><div class = content><div class = numbers>C</div></div></button><button id = button_2 class = ""square num-button"" onclick = ""recordClick(this)""><div class = content><div class = numbers>G</div></div></button><button id = button_3 class = ""square num-button"" onclick = ""recordClick(this)""><div class = content><div class = numbers>H</div></div></button><button id = button_4 class = ""square num-button"" onclick = ""recordClick(this)""><div class = content><div class = numbers>J</div></div></button><button id = button_5 class = ""square num-button"" onclick = ""recordClick(this)""><div class = content><div class = numbers>K</div></div></button><button id = button_6 class = ""square num-button"" onclick = ""recordClick(this)""><div class = content><div class = numbers>L</div></div></button><button id = button_7 class = ""square num-button"" onclick = ""recordClick(this)""><div class = content><div class = numbers>N</div></div></button><button id = button_8 class = ""square num-button"" onclick = ""recordClick(this)""><div class = content><div class = numbers>P</div></div></button><button id = button_9 class = ""square num-button"" onclick = ""recordClick(this)""><div class = content><div class = numbers>Q</div></div></button><button id = button_10 class = ""square num-button"" onclick = ""recordClick(this)""><div class = content><div class = numbers>R</div></div></button><button id = button_11 class = ""square num-button"" onclick = ""recordClick(this)""><div class = content><div class = numbers>S</div></div></button><button id = button_12 class = ""square num-button"" onclick = ""recordClick(this)""><div class = content><div class = numbers>Y</div></div></button><button class = clear_button id = ""ClearButton"" onclick = ""clearResponse()"">BACKSPACE</button><button class = blank_button id = ""BlankButton"" onclick = ""blankResponse()"">SKIP</button><p style=""font-size: 2.4rem""><u><b>Current Answer:</b></u></p><br><br><div id=echoed_txt style=""font-size: 5rem; color:blue;""><b></b></div></div>",enter,ospan,retrieval,72XV1XzAzTgC4ElXg6gmJOOBFyB2,html-keyboard-response,141,1176237,0.0-46.0-4.0-2.0-2.0,15,12,10,3.0,"[""J"",""S"",""R""]","[""J"",""S"",""R""]",1.0,3.0,,,,,,,655509818aa2ed735957565c,09:00:32,03/04/2024
3311.1999999999534,[''],0,ospan,feedback,72XV1XzAzTgC4ElXg6gmJOOBFyB2,html-button-response,142,1180051,0.0-46.0-4.0-2.0-3.0,,,,,,,,,,,,87.0,0.0,,655509818aa2ed735957565c,09:00:32,03/04/2024
,"<p style=""font-size:75px;"">...</p>",,ospan,iti,72XV1XzAzTgC4ElXg6gmJOOBFyB2,html-keyboard-response,143,1181057,0.0-46.0-5.0-0.0-0.0,,,,,,,,,,,,,,,655509818aa2ed735957565c,09:00:32,03/04/2024
2754.0,,,ospan,symmetry,72XV1XzAzTgC4ElXg6gmJOOBFyB2,symmetry-judgement-task,144,1185235,0.0-46.0-5.0-0.0-1.0-0.0,,,,,,,,,,1.0,1.0,,,,655509818aa2ed735957565c,09:00:32,03/04/2024
,"<div style=""font-size: 10rem; color: #0000FF"">Q</div>",,ospan,letter,72XV1XzAzTgC4ElXg6gmJOOBFyB2,html-keyboard-response,145,1186240,0.0-46.0-5.0-0.0-1.0-1.0,,,,,,,,,,,,,,,655509818aa2ed735957565c,09:00:32,03/04/2024
2101.0,,,ospan,symmetry,72XV1XzAzTgC4ElXg6gmJOOBFyB2,symmetry-judgement-task,146,1190532,0.0-46.0-5.0-0.0-1.0-2.0,,,,,,,,,,1.0,1.0,,,,655509818aa2ed735957565c,09:00:32,03/04/2024
,"<div style=""font-size: 10rem; color: #0000FF"">L</div>",,ospan,letter,72XV1XzAzTgC4ElXg6gmJOOBFyB2,html-keyboard-response,147,1191536,0.0-46.0-5.0-0.0-1.0-3.0,,,,,,,,,,,,,,,655509818aa2ed735957565c,09:00:32,03/04/2024
2017.0,,,ospan,symmetry,72XV1XzAzTgC4ElXg6gmJOOBFyB2,symmetry-judgement-task,148,1195726,0.0-46.0-5.0-0.0-1.0-4.0,,,,,,,,,,1.0,1.0,,,,655509818aa2ed735957565c,09:00:32,03/04/2024
,"<div style=""font-size: 10rem; color: #0000FF"">J</div>",,ospan,letter,72XV1XzAzTgC4ElXg6gmJOOBFyB2,html-keyboard-response,149,1196729,0.0-46.0-5.0-0.0-1.0-5.0,,,,,,,,,,,,,,,655509818aa2ed735957565c,09:00:32,03/04/2024
2672.0,,,ospan,symmetry,72XV1XzAzTgC4ElXg6gmJOOBFyB2,symmetry-judgement-task,150,1201577,0.0-46.0-5.0-0.0-1.0-6.0,,,,,,,,,,1.0,1.0,,,,655509818aa2ed735957565c,09:00:32,03/04/2024
,"<div style=""font-size: 10rem; color: #0000FF"">N</div>",,ospan,letter,72XV1XzAzTgC4ElXg6gmJOOBFyB2,html-keyboard-response,151,1202584,0.0-46.0-5.0-0.0-1.0-7.0,,,,,,,,,,,,,,,655509818aa2ed735957565c,09:00:32,03/04/2024
1657.0,,,ospan,symmetry,72XV1XzAzTgC4ElXg6gmJOOBFyB2,symmetry-judgement-task,152,1206405,0.0-46.0-5.0-0.0-1.0-8.0,,,,,,,,,,1.0,1.0,,,,655509818aa2ed735957565c,09:00:32,03/04/2024
,"<div style=""font-size: 10rem; color: #0000FF"">C</div>",,ospan,letter,72XV1XzAzTgC4ElXg6gmJOOBFyB2,html-keyboard-response,153,1207408,0.0-46.0-5.0-0.0-1.0-9.0,,,,,,,,,,,,,,,655509818aa2ed735957565c,09:00:32,03/04/2024
2648.0,,,ospan,symmetry,72XV1XzAzTgC4ElXg6gmJOOBFyB2,symmetry-judgement-task,154,1212247,0.0-46.0-5.0-0.0-1.0-10.0,,,,,,,,,,1.0,1.0,,,,655509818aa2ed735957565c,09:00:32,03/04/2024
,"<div style=""font-size: 10rem; color: #0000FF"">K</div>",,ospan,letter,72XV1XzAzTgC4ElXg6gmJOOBFyB2,html-keyboard-response,155,1213253,0.0-46.0-5.0-0.0-1.0-11.0,,,,,,,,,,,,,,,655509818aa2ed735957565c,09:00:32,03/04/2024
9983.300000000047,"<div class = numbox><p style=""font-size: 2.4rem"">Please recall the letters you saw to the best of your ability. If you do not remember a particular letter, use the SKIP button.<br><b>(When you are ready to lock in your answer, press ENTER)</b></p><button id = button_1 class = ""square num-button"" onclick = ""recordClick(this)""><div class = content><div class = numbers>C</div></div></button><button id = button_2 class = ""square num-button"" onclick = ""recordClick(this)""><div class = content><div class = numbers>G</div></div></button><button id = button_3 class = ""square num-button"" onclick = ""recordClick(this)""><div class = content><div class = numbers>H</div></div></button><button id = button_4 class = ""square num-button"" onclick = ""recordClick(this)""><div class = content><div class = numbers>J</div></div></button><button id = button_5 class = ""square num-button"" onclick = ""recordClick(this)""><div class = content><div class = numbers>K</div></div></button><button id = button_6 class = ""square num-button"" onclick = ""recordClick(this)""><div class = content><div class = numbers>L</div></div></button><button id = button_7 class = ""square num-button"" onclick = ""recordClick(this)""><div class = content><div class = numbers>N</div></div></button><button id = button_8 class = ""square num-button"" onclick = ""recordClick(this)""><div class = content><div class = numbers>P</div></div></button><button id = button_9 class = ""square num-button"" onclick = ""recordClick(this)""><div class = content><div class = numbers>Q</div></div></button><button id = button_10 class = ""square num-button"" onclick = ""recordClick(this)""><div class = content><div class = numbers>R</div></div></button><button id = button_11 class = ""square num-button"" onclick = ""recordClick(this)""><div class = content><div class = numbers>S</div></div></button><button id = button_12 class = ""square num-button"" onclick = ""recordClick(this)""><div class = content><div class = numbers>Y</div></div></button><button class = clear_button id = ""ClearButton"" onclick = ""clearResponse()"">BACKSPACE</button><button class = blank_button id = ""BlankButton"" onclick = ""blankResponse()"">SKIP</button><p style=""font-size: 2.4rem""><u><b>Current Answer:</b></u></p><br><br><div id=echoed_txt style=""font-size: 5rem; color:blue;""><b></b></div></div>",enter,ospan,retrieval,72XV1XzAzTgC4ElXg6gmJOOBFyB2,html-keyboard-response,156,1223990,0.0-46.0-5.0-0.0-2.0,21,14,10,6.0,"[""Q"",""J"",""L"",""N"",""P""]","[""Q"",""L"",""J"",""N"",""C"",""K""]",0.0,2.0,,,,,,,655509818aa2ed735957565c,09:00:32,03/04/2024
1725.1999999999534,[''],0,ospan,feedback,72XV1XzAzTgC4ElXg6gmJOOBFyB2,html-button-response,157,1226221,0.0-46.0-5.0-0.0-3.0,,,,,,,,,,,,90.0,0.0,,655509818aa2ed735957565c,09:00:32,03/04/2024
,"<p style=""font-size:75px;"">...</p>",,ospan,iti,72XV1XzAzTgC4ElXg6gmJOOBFyB2,html-keyboard-response,158,1227224,0.0-46.0-5.0-1.0-0.0,,,,,,,,,,,,,,,655509818aa2ed735957565c,09:00:32,03/04/2024
2803.0,,,ospan,symmetry,72XV1XzAzTgC4ElXg6gmJOOBFyB2,symmetry-judgement-task,159,1231095,0.0-46.0-5.0-1.0-1.0-0.0,,,,,,,,,,1.0,1.0,,,,655509818aa2ed735957565c,09:00:32,03/04/2024
,"<div style=""font-size: 10rem; color: #0000FF"">Y</div>",,ospan,letter,72XV1XzAzTgC4ElXg6gmJOOBFyB2,html-keyboard-response,160,1232098,0.0-46.0-5.0-1.0-1.0-1.0,,,,,,,,,,,,,,,655509818aa2ed735957565c,09:00:32,03/04/2024
2669.0,,,ospan,symmetry,72XV1XzAzTgC4ElXg6gmJOOBFyB2,symmetry-judgement-task,161,1236964,0.0-46.0-5.0-1.0-1.0-2.0,,,,,,,,,,1.0,1.0,,,,655509818aa2ed735957565c,09:00:32,03/04/2024
,"<div style=""font-size: 10rem; color: #0000FF"">N</div>",,ospan,letter,72XV1XzAzTgC4ElXg6gmJOOBFyB2,html-keyboard-response,162,1237969,0.0-46.0-5.0-1.0-1.0-3.0,,,,,,,,,,,,,,,655509818aa2ed735957565c,09:00:32,03/04/2024
1970.0,,,ospan,symmetry,72XV1XzAzTgC4ElXg6gmJOOBFyB2,symmetry-judgement-task,163,1242103,0.0-46.0-5.0-1.0-1.0-4.0,,,,,,,,,,1.0,1.0,,,,655509818aa2ed735957565c,09:00:32,03/04/2024
,"<div style=""font-size: 10rem; color: #0000FF"">K</div>",,ospan,letter,72XV1XzAzTgC4ElXg6gmJOOBFyB2,html-keyboard-response,164,1243106,0.0-46.0-5.0-1.0-1.0-5.0,,,,,,,,,,,,,,,655509818aa2ed735957565c,09:00:32,03/04/2024
2659.0,,,ospan,symmetry,72XV1XzAzTgC4ElXg6gmJOOBFyB2,symmetry-judgement-task,165,1248002,0.0-46.0-5.0-1.0-1.0-6.0,,,,,,,,,,1.0,1.0,,,,655509818aa2ed735957565c,09:00:32,03/04/2024
,"<div style=""font-size: 10rem; color: #0000FF"">Q</div>",,ospan,letter,72XV1XzAzTgC4ElXg6gmJOOBFyB2,html-keyboard-response,166,1249007,0.0-46.0-5.0-1.0-1.0-7.0,,,,,,,,,,,,,,,655509818aa2ed735957565c,09:00:32,03/04/2024
3540.0,,,ospan,symmetry,72XV1XzAzTgC4ElXg6gmJOOBFyB2,symmetry-judgement-task,167,1254741,0.0-46.0-5.0-1.0-1.0-8.0,,,,,,,,,,1.0,1.0,,,,655509818aa2ed735957565c,09:00:32,03/04/2024
,"<div style=""font-size: 10rem; color: #0000FF"">G</div>",,ospan,letter,72XV1XzAzTgC4ElXg6gmJOOBFyB2,html-keyboard-response,168,1255744,0.0-46.0-5.0-1.0-1.0-9.0,,,,,,,,,,,,,,,655509818aa2ed735957565c,09:00:32,03/04/2024
3261.0,,,ospan,symmetry,72XV1XzAzTgC4ElXg6gmJOOBFyB2,symmetry-judgement-task,169,1261214,0.0-46.0-5.0-1.0-1.0-10.0,,,,,,,,,,1.0,1.0,,,,655509818aa2ed735957565c,09:00:32,03/04/2024
,"<div style=""font-size: 10rem; color: #0000FF"">L</div>",,ospan,letter,72XV1XzAzTgC4ElXg6gmJOOBFyB2,html-keyboard-response,170,1262217,0.0-46.0-5.0-1.0-1.0-11.0,,,,,,,,,,,,,,,655509818aa2ed735957565c,09:00:32,03/04/2024
2465.0,,,ospan,symmetry,72XV1XzAzTgC4ElXg6gmJOOBFyB2,symmetry-judgement-task,171,1266877,0.0-46.0-5.0-1.0-1.0-12.0,,,,,,,,,,1.0,1.0,,,,655509818aa2ed735957565c,09:00:32,03/04/2024
,"<div style=""font-size: 10rem; color: #0000FF"">J</div>",,ospan,letter,72XV1XzAzTgC4ElXg6gmJOOBFyB2,html-keyboard-response,172,1267880,0.0-46.0-5.0-1.0-1.0-13.0,,,,,,,,,,,,,,,655509818aa2ed735957565c,09:00:32,03/04/2024
9778.5,"<div class = numbox><p style=""font-size: 2.4rem"">Please recall the letters you saw to the best of your ability. If you do not remember a particular letter, use the SKIP button.<br><b>(When you are ready to lock in your answer, press ENTER)</b></p><button id = button_1 class = ""square num-button"" onclick = ""recordClick(this)""><div class = content><div class = numbers>C</div></div></button><button id = button_2 class = ""square num-button"" onclick = ""recordClick(this)""><div class = content><div class = numbers>G</div></div></button><button id = button_3 class = ""square num-button"" onclick = ""recordClick(this)""><div class = content><div class = numbers>H</div></div></button><button id = button_4 class = ""square num-button"" onclick = ""recordClick(this)""><div class = content><div class = numbers>J</div></div></button><button id = button_5 class = ""square num-button"" onclick = ""recordClick(this)""><div class = content><div class = numbers>K</div></div></button><button id = button_6 class = ""square num-button"" onclick = ""recordClick(this)""><div class = content><div class = numbers>L</div></div></button><button id = button_7 class = ""square num-button"" onclick = ""recordClick(this)""><div class = content><div class = numbers>N</div></div></button><button id = button_8 class = ""square num-button"" onclick = ""recordClick(this)""><div class = content><div class = numbers>P</div></div></button><button id = button_9 class = ""square num-button"" onclick = ""recordClick(this)""><div class = content><div class = numbers>Q</div></div></button><button id = button_10 class = ""square num-button"" onclick = ""recordClick(this)""><div class = content><div class = numbers>R</div></div></button><button id = button_11 class = ""square num-button"" onclick = ""recordClick(this)""><div class = content><div class = numbers>S</div></div></button><button id = button_12 class = ""square num-button"" onclick = ""recordClick(this)""><div class = content><div class = numbers>Y</div></div></button><button class = clear_button id = ""ClearButton"" onclick = ""clearResponse()"">BACKSPACE</button><button class = blank_button id = ""BlankButton"" onclick = ""blankResponse()"">SKIP</button><p style=""font-size: 2.4rem""><u><b>Current Answer:</b></u></p><br><br><div id=echoed_txt style=""font-size: 5rem; color:blue;""><b></b></div></div>",enter,ospan,retrieval,72XV1XzAzTgC4ElXg6gmJOOBFyB2,html-keyboard-response,173,1278414,0.0-46.0-5.0-1.0-2.0,28,14,10,7.0,"[""N"",""L"",""Q"",""J"",""L"",""J""]","[""Y"",""N"",""K"",""Q"",""G"",""L"",""J""]",0.0,0.0,,,,,,,655509818aa2ed735957565c,09:00:32,03/04/2024
2419.100000000093,[''],0,ospan,feedback,72XV1XzAzTgC4ElXg6gmJOOBFyB2,html-button-response,174,1281338,0.0-46.0-5.0-1.0-3.0,,,,,,,,,,,,93.0,0.0,,655509818aa2ed735957565c,09:00:32,03/04/2024
,"<p style=""font-size:75px;"">...</p>",,ospan,iti,72XV1XzAzTgC4ElXg6gmJOOBFyB2,html-keyboard-response,175,1282345,0.0-46.0-6.0-0.0-0.0,,,,,,,,,,,,,,,655509818aa2ed735957565c,09:00:32,03/04/2024
2737.0,,,ospan,symmetry,72XV1XzAzTgC4ElXg6gmJOOBFyB2,symmetry-judgement-task,176,1286491,0.0-46.0-6.0-0.0-1.0-0.0,,,,,,,,,,1.0,1.0,,,,655509818aa2ed735957565c,09:00:32,03/04/2024
,"<div style=""font-size: 10rem; color: #0000FF"">L</div>",,ospan,letter,72XV1XzAzTgC4ElXg6gmJOOBFyB2,html-keyboard-response,177,1287496,0.0-46.0-6.0-0.0-1.0-1.0,,,,,,,,,,,,,,,655509818aa2ed735957565c,09:00:32,03/04/2024
5465.0,,,ospan,symmetry,72XV1XzAzTgC4ElXg6gmJOOBFyB2,symmetry-judgement-task,178,1295111,0.0-46.0-6.0-0.0-1.0-2.0,,,,,,,,,,1.0,1.0,,,,655509818aa2ed735957565c,09:00:32,03/04/2024
,"<div style=""font-size: 10rem; color: #0000FF"">G</div>",,ospan,letter,72XV1XzAzTgC4ElXg6gmJOOBFyB2,html-keyboard-response,179,1296115,0.0-46.0-6.0-0.0-1.0-3.0,,,,,,,,,,,,,,,655509818aa2ed735957565c,09:00:32,03/04/2024
3291.0,,,ospan,symmetry,72XV1XzAzTgC4ElXg6gmJOOBFyB2,symmetry-judgement-task,180,1301621,0.0-46.0-6.0-0.0-1.0-4.0,,,,,,,,,,1.0,1.0,,,,655509818aa2ed735957565c,09:00:32,03/04/2024
,"<div style=""font-size: 10rem; color: #0000FF"">P</div>",,ospan,letter,72XV1XzAzTgC4ElXg6gmJOOBFyB2,html-keyboard-response,181,1302625,0.0-46.0-6.0-0.0-1.0-5.0,,,,,,,,,,,,,,,655509818aa2ed735957565c,09:00:32,03/04/2024
3169.0,,,ospan,symmetry,72XV1XzAzTgC4ElXg6gmJOOBFyB2,symmetry-judgement-task,182,1307992,0.0-46.0-6.0-0.0-1.0-6.0,,,,,,,,,,1.0,1.0,,,,655509818aa2ed735957565c,09:00:32,03/04/2024
,"<div style=""font-size: 10rem; color: #0000FF"">Q</div>",,ospan,letter,72XV1XzAzTgC4ElXg6gmJOOBFyB2,html-keyboard-response,183,1308995,0.0-46.0-6.0-0.0-1.0-7.0,,,,,,,,,,,,,,,655509818aa2ed735957565c,09:00:32,03/04/2024
2641.0,,,ospan,symmetry,72XV1XzAzTgC4ElXg6gmJOOBFyB2,symmetry-judgement-task,184,1313849,0.0-46.0-6.0-0.0-1.0-8.0,,,,,,,,,,1.0,1.0,,,,655509818aa2ed735957565c,09:00:32,03/04/2024
,"<div style=""font-size: 10rem; color: #0000FF"">Y</div>",,ospan,letter,72XV1XzAzTgC4ElXg6gmJOOBFyB2,html-keyboard-response,185,1314855,0.0-46.0-6.0-0.0-1.0-9.0,,,,,,,,,,,,,,,655509818aa2ed735957565c,09:00:32,03/04/2024
9969.600000000093,"<div class = numbox><p style=""font-size: 2.4rem"">Please recall the letters you saw to the best of your ability. If you do not remember a particular letter, use the SKIP button.<br><b>(When you are ready to lock in your answer, press ENTER)</b></p><button id = button_1 class = ""square num-button"" onclick = ""recordClick(this)""><div class = content><div class = numbers>C</div></div></button><button id = button_2 class = ""square num-button"" onclick = ""recordClick(this)""><div class = content><div class = numbers>G</div></div></button><button id = button_3 class = ""square num-button"" onclick = ""recordClick(this)""><div class = content><div class = numbers>H</div></div></button><button id = button_4 class = ""square num-button"" onclick = ""recordClick(this)""><div class = content><div class = numbers>J</div></div></button><button id = button_5 class = ""square num-button"" onclick = ""recordClick(this)""><div class = content><div class = numbers>K</div></div></button><button id = button_6 class = ""square num-button"" onclick = ""recordClick(this)""><div class = content><div class = numbers>L</div></div></button><button id = button_7 class = ""square num-button"" onclick = ""recordClick(this)""><div class = content><div class = numbers>N</div></div></button><button id = button_8 class = ""square num-button"" onclick = ""recordClick(this)""><div class = content><div class = numbers>P</div></div></button><button id = button_9 class = ""square num-button"" onclick = ""recordClick(this)""><div class = content><div class = numbers>Q</div></div></button><button id = button_10 class = ""square num-button"" onclick = ""recordClick(this)""><div class = content><div class = numbers>R</div></div></button><button id = button_11 class = ""square num-button"" onclick = ""recordClick(this)""><div class = content><div class = numbers>S</div></div></button><button id = button_12 class = ""square num-button"" onclick = ""recordClick(this)""><div class = content><div class = numbers>Y</div></div></button><button class = clear_button id = ""ClearButton"" onclick = ""clearResponse()"">BACKSPACE</button><button class = blank_button id = ""BlankButton"" onclick = ""blankResponse()"">SKIP</button><p style=""font-size: 2.4rem""><u><b>Current Answer:</b></u></p><br><br><div id=echoed_txt style=""font-size: 5rem; color:blue;""><b></b></div></div>",enter,ospan,retrieval,72XV1XzAzTgC4ElXg6gmJOOBFyB2,html-keyboard-response,186,1325577,0.0-46.0-6.0-0.0-2.0,33,18,10,5.0,"[""L"",""J"",""P"",""Q"",""Y""]","[""L"",""G"",""P"",""Q"",""Y""]",0.0,4.0,,,,,,,655509818aa2ed735957565c,09:00:32,03/04/2024
4561.300000000047,[''],0,ospan,feedback,72XV1XzAzTgC4ElXg6gmJOOBFyB2,html-button-response,187,1330643,0.0-46.0-6.0-0.0-3.0,,,,,,,,,,,,94.0,0.0,,655509818aa2ed735957565c,09:00:32,03/04/2024
,"<p style=""font-size:75px;"">...</p>",,ospan,iti,72XV1XzAzTgC4ElXg6gmJOOBFyB2,html-keyboard-response,188,1331649,0.0-46.0-6.0-1.0-0.0,,,,,,,,,,,,,,,655509818aa2ed735957565c,09:00:32,03/04/2024
3086.0,,,ospan,symmetry,72XV1XzAzTgC4ElXg6gmJOOBFyB2,symmetry-judgement-task,189,1336191,0.0-46.0-6.0-1.0-1.0-0.0,,,,,,,,,,1.0,1.0,,,,655509818aa2ed735957565c,09:00:32,03/04/2024
,"<div style=""font-size: 10rem; color: #0000FF"">K</div>",,ospan,letter,72XV1XzAzTgC4ElXg6gmJOOBFyB2,html-keyboard-response,190,1337195,0.0-46.0-6.0-1.0-1.0-1.0,,,,,,,,,,,,,,,655509818aa2ed735957565c,09:00:32,03/04/2024
2740.0,,,ospan,symmetry,72XV1XzAzTgC4ElXg6gmJOOBFyB2,symmetry-judgement-task,191,1342091,0.0-46.0-6.0-1.0-1.0-2.0,,,,,,,,,,1.0,1.0,,,,655509818aa2ed735957565c,09:00:32,03/04/2024
,"<div style=""font-size: 10rem; color: #0000FF"">N</div>",,ospan,letter,72XV1XzAzTgC4ElXg6gmJOOBFyB2,html-keyboard-response,192,1343095,0.0-46.0-6.0-1.0-1.0-3.0,,,,,,,,,,,,,,,655509818aa2ed735957565c,09:00:32,03/04/2024
2645.0,,,ospan,symmetry,72XV1XzAzTgC4ElXg6gmJOOBFyB2,symmetry-judgement-task,193,1347919,0.0-46.0-6.0-1.0-1.0-4.0,,,,,,,,,,1.0,1.0,,,,655509818aa2ed735957565c,09:00:32,03/04/2024
,"<div style=""font-size: 10rem; color: #0000FF"">H</div>",,ospan,letter,72XV1XzAzTgC4ElXg6gmJOOBFyB2,html-keyboard-response,194,1348923,0.0-46.0-6.0-1.0-1.0-5.0,,,,,,,,,,,,,,,655509818aa2ed735957565c,09:00:32,03/04/2024
1964.0,,,ospan,symmetry,72XV1XzAzTgC4ElXg6gmJOOBFyB2,symmetry-judgement-task,195,1353076,0.0-46.0-6.0-1.0-1.0-6.0,,,,,,,,,,1.0,1.0,,,,655509818aa2ed735957565c,09:00:32,03/04/2024
,"<div style=""font-size: 10rem; color: #0000FF"">C</div>",,ospan,letter,72XV1XzAzTgC4ElXg6gmJOOBFyB2,html-keyboard-response,196,1354079,0.0-46.0-6.0-1.0-1.0-7.0,,,,,,,,,,,,,,,655509818aa2ed735957565c,09:00:32,03/04/2024
3158.0,,,ospan,symmetry,72XV1XzAzTgC4ElXg6gmJOOBFyB2,symmetry-judgement-task,197,1359401,0.0-46.0-6.0-1.0-1.0-8.0,,,,,,,,,,1.0,1.0,,,,655509818aa2ed735957565c,09:00:32,03/04/2024
,"<div style=""font-size: 10rem; color: #0000FF"">S</div>",,ospan,letter,72XV1XzAzTgC4ElXg6gmJOOBFyB2,html-keyboard-response,198,1360405,0.0-46.0-6.0-1.0-1.0-9.0,,,,,,,,,,,,,,,655509818aa2ed735957565c,09:00:32,03/04/2024
2614.0,,,ospan,symmetry,72XV1XzAzTgC4ElXg6gmJOOBFyB2,symmetry-judgement-task,199,1365218,0.0-46.0-6.0-1.0-1.0-10.0,,,,,,,,,,1.0,1.0,,,,655509818aa2ed735957565c,09:00:32,03/04/2024
,"<div style=""font-size: 10rem; color: #0000FF"">Y</div>",,ospan,letter,72XV1XzAzTgC4ElXg6gmJOOBFyB2,html-keyboard-response,200,1366223,0.0-46.0-6.0-1.0-1.0-11.0,,,,,,,,,,,,,,,655509818aa2ed735957565c,09:00:32,03/04/2024
2129.0,,,ospan,symmetry,72XV1XzAzTgC4ElXg6gmJOOBFyB2,symmetry-judgement-task,201,1370564,0.0-46.0-6.0-1.0-1.0-12.0,,,,,,,,,,1.0,1.0,,,,655509818aa2ed735957565c,09:00:32,03/04/2024
,"<div style=""font-size: 10rem; color: #0000FF"">G</div>",,ospan,letter,72XV1XzAzTgC4ElXg6gmJOOBFyB2,html-keyboard-response,202,1371567,0.0-46.0-6.0-1.0-1.0-13.0,,,,,,,,,,,,,,,655509818aa2ed735957565c,09:00:32,03/04/2024
4083.0,,,ospan,symmetry,72XV1XzAzTgC4ElXg6gmJOOBFyB2,symmetry-judgement-task,203,1377836,0.0-46.0-6.0-1.0-1.0-14.0,,,,,,,,,,1.0,1.0,,,,655509818aa2ed735957565c,09:00:32,03/04/2024
,"<div style=""font-size: 10rem; color: #0000FF"">J</div>",,ospan,letter,72XV1XzAzTgC4ElXg6gmJOOBFyB2,html-keyboard-response,204,1378840,0.0-46.0-6.0-1.0-1.0-15.0,,,,,,,,,,,,,,,655509818aa2ed735957565c,09:00:32,03/04/2024
14592.199999999953,"<div class = numbox><p style=""font-size: 2.4rem"">Please recall the letters you saw to the best of your ability. If you do not remember a particular letter, use the SKIP button.<br><b>(When you are ready to lock in your answer, press ENTER)</b></p><button id = button_1 class = ""square num-button"" onclick = ""recordClick(this)""><div class = content><div class = numbers>C</div></div></button><button id = button_2 class = ""square num-button"" onclick = ""recordClick(this)""><div class = content><div class = numbers>G</div></div></button><button id = button_3 class = ""square num-button"" onclick = ""recordClick(this)""><div class = content><div class = numbers>H</div></div></button><button id = button_4 class = ""square num-button"" onclick = ""recordClick(this)""><div class = content><div class = numbers>J</div></div></button><button id = button_5 class = ""square num-button"" onclick = ""recordClick(this)""><div class = content><div class = numbers>K</div></div></button><button id = button_6 class = ""square num-button"" onclick = ""recordClick(this)""><div class = content><div class = numbers>L</div></div></button><button id = button_7 class = ""square num-button"" onclick = ""recordClick(this)""><div class = content><div class = numbers>N</div></div></button><button id = button_8 class = ""square num-button"" onclick = ""recordClick(this)""><div class = content><div class = numbers>P</div></div></button><button id = button_9 class = ""square num-button"" onclick = ""recordClick(this)""><div class = content><div class = numbers>Q</div></div></button><button id = button_10 class = ""square num-button"" onclick = ""recordClick(this)""><div class = content><div class = numbers>R</div></div></button><button id = button_11 class = ""square num-button"" onclick = ""recordClick(this)""><div class = content><div class = numbers>S</div></div></button><button id = button_12 class = ""square num-button"" onclick = ""recordClick(this)""><div class = content><div class = numbers>Y</div></div></button><button class = clear_button id = ""ClearButton"" onclick = ""clearResponse()"">BACKSPACE</button><button class = blank_button id = ""BlankButton"" onclick = ""blankResponse()"">SKIP</button><p style=""font-size: 2.4rem""><u><b>Current Answer:</b></u></p><br><br><div id=echoed_txt style=""font-size: 5rem; color:blue;""><b></b></div></div>",enter,ospan,retrieval,72XV1XzAzTgC4ElXg6gmJOOBFyB2,html-keyboard-response,205,1394186,0.0-46.0-6.0-1.0-2.0,41,18,10,8.0,"[""_"",""_"",""_"",""_"",""J"",""L""]","[""K"",""N"",""H"",""C"",""S"",""Y"",""G"",""J""]",0.0,0.0,,,,,,,655509818aa2ed735957565c,09:00:32,03/04/2024
2281.899999999907,[''],0,ospan,feedback,72XV1XzAzTgC4ElXg6gmJOOBFyB2,html-button-response,206,1396972,0.0-46.0-6.0-1.0-3.0,,,,,,,,,,,,95.0,0.0,,655509818aa2ed735957565c,09:00:32,03/04/2024
9855.09999999986,,{'Q0': 'it was well made'},ospan,survey_ospan,72XV1XzAzTgC4ElXg6gmJOOBFyB2,lmdlab-survey-text,207,1407583,0.0-46.0-7.0,,,,,,,,,,,,,,72XV1XzAzTgC4ElXg6gmJOOBFyB2,655509818aa2ed735957565c,09:00:32,03/04/2024
2423.9000000001397,<p><p style='font-size: 3rem'>Great work!<br><br>This completes the symmetry and memory task.</p><br><br><br>,0,ospan,finish,72XV1XzAzTgC4ElXg6gmJOOBFyB2,html-button-response,208,1410013,0.0-46.0-8.0,41,18,10,,,,,,,,,95.0,,,655509818aa2ed735957565c,09:00:32,03/04/2024
