rt,stimulus,response,exp_name,exp_stage,subjectID,trial_type,trial_index,time_elapsed,internal_node_id,ospan_shown,ospan_total,ospan_abs,length,resp_actual,resp_correct,full_correct,num_correct,feedback,accuracy,correct,math_acc,math_warning,databaseID,prolificID,start_time,date
2303.0999999999767,<div class = 'left_align' style='font-size: 3.25rem; line-height: 1.3;'><p class = 'center_align'><b>Welcome to the Symmetry and Memory Task</b><br><br><br><br></p>Press 'continue' to show the instructions.<br><br><br><br></div>,0,ospan,instruct,Biev3lfM0rXJIzwRFLdP9L2Lgcb2,html-button-response,54,627257,0.0-46.0-0.0-0.0-0.0,,,,,,,,,,,,,,,5e80b109ca1800791e1ca40c,14:59:10,04/04/2024
15370.699999999953,"<div class = 'left_align' style='font-size: 3.25rem; line-height: 1.3;'><p class = 'center_align'><b>Symmetry and Memory Task</b><br><br></p>In this task, you will try to memorize letters you see on the screen<br>while you also view black and white grid pictures.<br><br>In the next few minutes, you will have some practice to get you familiar<br>with how the task works.<br><br>It may be difficult sometimes, but please do not worry about making mistakes!<br><br>We will begin by practicing the letter part of the task.<br><br><br><br></div>",0,ospan,instruct,Biev3lfM0rXJIzwRFLdP9L2Lgcb2,html-button-response,55,642888,0.0-46.0-0.0-0.0-1.0,,,,,,,,,,,,,,,5e80b109ca1800791e1ca40c,14:59:10,04/04/2024
9989.300000000047,"<div class = 'left_align' style='font-size: 3.25rem; line-height: 1.3;'>For this practice part, letters will appear on the screen one at a time.<br><br>Try to remember each letter in the order presented.<br><br>After some letters have been shown, you will see a response screen. Your<br>goal is to report the letters you saw <b>in order</b>. If you do not remember<br>a particular letter, you will have the option to leave it blank.<br><br><br><br></div>",0,ospan,instruct,Biev3lfM0rXJIzwRFLdP9L2Lgcb2,html-button-response,56,653144,0.0-46.0-0.0-0.0-2.0,,,,,,,,,,,,,,,5e80b109ca1800791e1ca40c,14:59:10,04/04/2024
3647.399999999907,"<div class = 'left_align' style='font-size: 3.25rem; line-height: 1.3;'>Remember, it is very important to get the letters in the same<br>order as you see them.<br><br>When you are ready, you may begin the letter practice.</div><br><br><br><br>",0,ospan,instruct,Biev3lfM0rXJIzwRFLdP9L2Lgcb2,html-button-response,57,657044,0.0-46.0-0.0-0.0-3.0,,,,,,,,,,,,,,,5e80b109ca1800791e1ca40c,14:59:10,04/04/2024
,"<p style=""font-size:75px;"">...</p>",,ospan,iti,Biev3lfM0rXJIzwRFLdP9L2Lgcb2,html-keyboard-response,58,658304,0.0-46.0-0.0-1.0-0.0,,,,,,,,,,,,,,,5e80b109ca1800791e1ca40c,14:59:10,04/04/2024
,"<div style=""font-size: 10rem; color: #0000FF"">S</div>",,ospan,letter,Biev3lfM0rXJIzwRFLdP9L2Lgcb2,html-keyboard-response,59,659311,0.0-46.0-0.0-1.0-1.0,,,,,,,,,,,,,,,5e80b109ca1800791e1ca40c,14:59:10,04/04/2024
,"<div style=""font-size: 10rem; color: #0000FF"">G</div>",,ospan,letter,Biev3lfM0rXJIzwRFLdP9L2Lgcb2,html-keyboard-response,60,661071,0.0-46.0-0.0-1.0-2.0,,,,,,,,,,,,,,,5e80b109ca1800791e1ca40c,14:59:10,04/04/2024
9793.400000000023,"<div class = numbox><p style=""font-size: 2.4rem"">Please recall the letters you saw to the best of your ability. If you do not remember a particular letter, use the SKIP button.<br><b>(When you are ready to lock in your answer, press ENTER)</b></p><button id = button_1 class = ""square num-button"" onclick = ""recordClick(this)""><div class = content><div class = numbers>C</div></div></button><button id = button_2 class = ""square num-button"" onclick = ""recordClick(this)""><div class = content><div class = numbers>G</div></div></button><button id = button_3 class = ""square num-button"" onclick = ""recordClick(this)""><div class = content><div class = numbers>H</div></div></button><button id = button_4 class = ""square num-button"" onclick = ""recordClick(this)""><div class = content><div class = numbers>J</div></div></button><button id = button_5 class = ""square num-button"" onclick = ""recordClick(this)""><div class = content><div class = numbers>K</div></div></button><button id = button_6 class = ""square num-button"" onclick = ""recordClick(this)""><div class = content><div class = numbers>L</div></div></button><button id = button_7 class = ""square num-button"" onclick = ""recordClick(this)""><div class = content><div class = numbers>N</div></div></button><button id = button_8 class = ""square num-button"" onclick = ""recordClick(this)""><div class = content><div class = numbers>P</div></div></button><button id = button_9 class = ""square num-button"" onclick = ""recordClick(this)""><div class = content><div class = numbers>Q</div></div></button><button id = button_10 class = ""square num-button"" onclick = ""recordClick(this)""><div class = content><div class = numbers>R</div></div></button><button id = button_11 class = ""square num-button"" onclick = ""recordClick(this)""><div class = content><div class = numbers>S</div></div></button><button id = button_12 class = ""square num-button"" onclick = ""recordClick(this)""><div class = content><div class = numbers>Y</div></div></button><button class = clear_button id = ""ClearButton"" onclick = ""clearResponse()"">BACKSPACE</button><button class = blank_button id = ""BlankButton"" onclick = ""blankResponse()"">SKIP</button><p style=""font-size: 2.4rem""><u><b>Current Answer:</b></u></p><br><br><div id=echoed_txt style=""font-size: 5rem; color:blue;""><b></b></div></div>",enter,ospan,retrieval,Biev3lfM0rXJIzwRFLdP9L2Lgcb2,html-keyboard-response,61,671621,0.0-46.0-0.0-1.0-3.0,NA,NA,NA,2.0,"[""S"",""G""]","[""S"",""G""]",1.0,2.0,"['<font color=""green"">S</font>', '<font color=""green"">G</font>']",,,,,,5e80b109ca1800791e1ca40c,14:59:10,04/04/2024
1596.2000000000698,"['<p style=""font-size:44px"">Letters:<br><br><br><font color=""green"">S</font> <font color=""green"">G</font></p><br><br>']",0,ospan,practice_feedback,Biev3lfM0rXJIzwRFLdP9L2Lgcb2,html-button-response,62,673726,0.0-46.0-0.0-1.0-4.0,,,,,,,,,,,,,,,5e80b109ca1800791e1ca40c,14:59:10,04/04/2024
,"<p style=""font-size:75px;"">...</p>",,ospan,iti,Biev3lfM0rXJIzwRFLdP9L2Lgcb2,html-keyboard-response,63,674733,0.0-46.0-0.0-2.0-0.0,,,,,,,,,,,,,,,5e80b109ca1800791e1ca40c,14:59:10,04/04/2024
,"<div style=""font-size: 10rem; color: #0000FF"">H</div>",,ospan,letter,Biev3lfM0rXJIzwRFLdP9L2Lgcb2,html-keyboard-response,64,675740,0.0-46.0-0.0-2.0-1.0,,,,,,,,,,,,,,,5e80b109ca1800791e1ca40c,14:59:10,04/04/2024
,"<div style=""font-size: 10rem; color: #0000FF"">Y</div>",,ospan,letter,Biev3lfM0rXJIzwRFLdP9L2Lgcb2,html-keyboard-response,65,677501,0.0-46.0-0.0-2.0-2.0,,,,,,,,,,,,,,,5e80b109ca1800791e1ca40c,14:59:10,04/04/2024
,"<div style=""font-size: 10rem; color: #0000FF"">C</div>",,ospan,letter,Biev3lfM0rXJIzwRFLdP9L2Lgcb2,html-keyboard-response,66,679262,0.0-46.0-0.0-2.0-3.0,,,,,,,,,,,,,,,5e80b109ca1800791e1ca40c,14:59:10,04/04/2024
8669.900000000023,"<div class = numbox><p style=""font-size: 2.4rem"">Please recall the letters you saw to the best of your ability. If you do not remember a particular letter, use the SKIP button.<br><b>(When you are ready to lock in your answer, press ENTER)</b></p><button id = button_1 class = ""square num-button"" onclick = ""recordClick(this)""><div class = content><div class = numbers>C</div></div></button><button id = button_2 class = ""square num-button"" onclick = ""recordClick(this)""><div class = content><div class = numbers>G</div></div></button><button id = button_3 class = ""square num-button"" onclick = ""recordClick(this)""><div class = content><div class = numbers>H</div></div></button><button id = button_4 class = ""square num-button"" onclick = ""recordClick(this)""><div class = content><div class = numbers>J</div></div></button><button id = button_5 class = ""square num-button"" onclick = ""recordClick(this)""><div class = content><div class = numbers>K</div></div></button><button id = button_6 class = ""square num-button"" onclick = ""recordClick(this)""><div class = content><div class = numbers>L</div></div></button><button id = button_7 class = ""square num-button"" onclick = ""recordClick(this)""><div class = content><div class = numbers>N</div></div></button><button id = button_8 class = ""square num-button"" onclick = ""recordClick(this)""><div class = content><div class = numbers>P</div></div></button><button id = button_9 class = ""square num-button"" onclick = ""recordClick(this)""><div class = content><div class = numbers>Q</div></div></button><button id = button_10 class = ""square num-button"" onclick = ""recordClick(this)""><div class = content><div class = numbers>R</div></div></button><button id = button_11 class = ""square num-button"" onclick = ""recordClick(this)""><div class = content><div class = numbers>S</div></div></button><button id = button_12 class = ""square num-button"" onclick = ""recordClick(this)""><div class = content><div class = numbers>Y</div></div></button><button class = clear_button id = ""ClearButton"" onclick = ""clearResponse()"">BACKSPACE</button><button class = blank_button id = ""BlankButton"" onclick = ""blankResponse()"">SKIP</button><p style=""font-size: 2.4rem""><u><b>Current Answer:</b></u></p><br><br><div id=echoed_txt style=""font-size: 5rem; color:blue;""><b></b></div></div>",enter,ospan,retrieval,Biev3lfM0rXJIzwRFLdP9L2Lgcb2,html-keyboard-response,67,688687,0.0-46.0-0.0-2.0-4.0,NA,NA,NA,3.0,"[""H"",""Y"",""C""]","[""H"",""Y"",""C""]",1.0,3.0,"['<font color=""green"">H</font>', '<font color=""green"">Y</font>', '<font color=""green"">C</font>']",,,,,,5e80b109ca1800791e1ca40c,14:59:10,04/04/2024
1341.0,"['<p style=""font-size:44px"">Letters:<br><br><br><font color=""green"">H</font> <font color=""green"">Y</font> <font color=""green"">C</font></p><br><br>']",0,ospan,practice_feedback,Biev3lfM0rXJIzwRFLdP9L2Lgcb2,html-button-response,68,690534,0.0-46.0-0.0-2.0-5.0,,,,,,,,,,,,,,,5e80b109ca1800791e1ca40c,14:59:10,04/04/2024
35390.09999999998,"<div class = 'left_align' style='font-size: 3.25rem; line-height: 1.3;'>Now you will practice doing the <b>symmetry judgment part</b> of the experiment.<br><br>A black and white grid picture will appear on the screen and you have to judge if it is <br>symmetrical or asymetrical.<br><br>A picture is 'mirror' symmetrical if its left half is identical to the right half when flipped.<br>Here are examples of a symmetrical and an asymetrical picture:<br><br><center><img src='Stimuli/img/symm_instructions_extra.png' style='height:420px; width:900'></img></center><br>To judge symmetry, imagine you were to fold each picture down the middle, like a book –<br>would the left half match the right half when folded onto each other?<br><br></div><br>",0,ospan,instruct,Biev3lfM0rXJIzwRFLdP9L2Lgcb2,html-button-response,69,725927,0.0-46.0-1.0-0.0-0.0,,,,,,,,,,,,,,,5e80b109ca1800791e1ca40c,14:59:10,04/04/2024
4512.100000000093,"<div class = 'left_align' style='font-size: 3.25rem; line-height: 1.3;'>When you have viewed the picture and determined whether it is symmetrical or not,<br>you can <b>click the Yes or No button</b> below to answer.<br><br>If you take longer than 15 seconds, it will continue automatically<br>and record the answer as an error.</div><br>",0,ospan,instruct,Biev3lfM0rXJIzwRFLdP9L2Lgcb2,html-button-response,70,730714,0.0-46.0-1.0-0.0-1.0,,,,,,,,,,,,,,,5e80b109ca1800791e1ca40c,14:59:10,04/04/2024
4554.399999999907,"<div class = 'left_align' style='font-size: 3.25rem; line-height: 1.3;'>It is <b>very</b> important that you make the symmetry judgment correctly.<br><br>It is also important that you try and judge the picture as quickly as you can.<br><br>When you are ready, click on the button below to try some practice problems.</div><br><br><br><br>",0,ospan,instruct,Biev3lfM0rXJIzwRFLdP9L2Lgcb2,html-button-response,71,735520,0.0-46.0-1.0-0.0-2.0,,,,,,,,,,,,,,,5e80b109ca1800791e1ca40c,14:59:10,04/04/2024
2688.0,,,ospan,symmetry,Biev3lfM0rXJIzwRFLdP9L2Lgcb2,symmetry-judgement-task,72,739002,0.0-46.0-1.0-1.0-0.0,,,,,,,,,,1.0,1.0,,,,5e80b109ca1800791e1ca40c,14:59:10,04/04/2024
,"<p style=""color:green; font-size: 35px"">Correct</p>",,ospan,feedback,Biev3lfM0rXJIzwRFLdP9L2Lgcb2,html-keyboard-response,73,739757,0.0-46.0-1.0-1.0-1.0,,,,,,,,,,,,,,,5e80b109ca1800791e1ca40c,14:59:10,04/04/2024
6460.0,,,ospan,symmetry,Biev3lfM0rXJIzwRFLdP9L2Lgcb2,symmetry-judgement-task,74,748855,0.0-46.0-1.0-1.0-2.0,,,,,,,,,,1.0,1.0,,,,5e80b109ca1800791e1ca40c,14:59:10,04/04/2024
,"<p style=""color:green; font-size: 35px"">Correct</p>",,ospan,feedback,Biev3lfM0rXJIzwRFLdP9L2Lgcb2,html-keyboard-response,75,749610,0.0-46.0-1.0-1.0-3.0,,,,,,,,,,,,,,,5e80b109ca1800791e1ca40c,14:59:10,04/04/2024
4143.0,,,ospan,symmetry,Biev3lfM0rXJIzwRFLdP9L2Lgcb2,symmetry-judgement-task,76,756307,0.0-46.0-1.0-1.0-4.0,,,,,,,,,,1.0,1.0,,,,5e80b109ca1800791e1ca40c,14:59:10,04/04/2024
,"<p style=""color:green; font-size: 35px"">Correct</p>",,ospan,feedback,Biev3lfM0rXJIzwRFLdP9L2Lgcb2,html-keyboard-response,77,757068,0.0-46.0-1.0-1.0-5.0,,,,,,,,,,,,,,,5e80b109ca1800791e1ca40c,14:59:10,04/04/2024
1471.4000000000233,"<p style=""font-size: 3rem;"">You responded correctly on 3 of 3 symmetry judgments. Good job!</p><br><br>",0,ospan,practice,Biev3lfM0rXJIzwRFLdP9L2Lgcb2,html-button-response,78,760546,0.0-46.0-1.0-2.0,,,,,,,,,,,,,,,5e80b109ca1800791e1ca40c,14:59:10,04/04/2024
15394.29999999993,"<div class = 'left_align' style='font-size: 3.25rem; line-height: 1.3;'>Now you will practice doing both parts of the experiment at the same time.<br><br>In the next practice set, you will be given one grid picture to judge.<br>Then letter will appear on the screen. Try to remember the letter.<br><br>It is <b>very important</b> to make the symmetry judgment as quickly and accurately as possible.<br><br>Just as before, once you have make the symmetry judgment, you can click Yes or No.<br><b>Note that you will no longer see Correct or Incorrect feedback.</div><br><br><br><br>",0,ospan,instruct,Biev3lfM0rXJIzwRFLdP9L2Lgcb2,html-button-response,79,776194,0.0-46.0-2.0-0.0-0.0,,,,,,,,,,,,,,,5e80b109ca1800791e1ca40c,14:59:10,04/04/2024
5369.900000000023,"<div class = 'left_align' style='font-size: 3.25rem; line-height: 1.3;'>After the letter goes away, another grid picture will appear, and then<br>another letter.<br><br>At the end of each set of letters and grids, you will recall the letters to the best<br>of your ability. Remember, try your best to get the letters in the correct order.<br><br>It is important to <b>quickly</b> and <b>accurately</b> make the symmetry judgments.</div><br><br><br><br>",0,ospan,instruct,Biev3lfM0rXJIzwRFLdP9L2Lgcb2,html-button-response,80,781819,0.0-46.0-2.0-0.0-1.0,,,,,,,,,,,,,,,5e80b109ca1800791e1ca40c,14:59:10,04/04/2024
19061.300000000047,"<div class = 'left_align' style='font-size: 3.25rem; line-height: 1.3;'>On the feedback screen, if you are not doing well at the symmetry judgments,<br>you will also see a warning in the middle. This indicates your percent <br>correct for the grid pictures for the entire experiment.<br><br>It is <b>very</b> important for you to keep accuracy at least at 85%: <u>We can only use<br>data where the participant was at least 85% accurate on the judgments.</u> Therefore,<br> please try your best to perform well on the symmetry judgments, <b>at the same time</b><br>doing your best to recall as many letters as possible.<br><br>Click the button to try some practice problems.</div><br><br><br><br>",0,ospan,instruct,Biev3lfM0rXJIzwRFLdP9L2Lgcb2,html-button-response,81,801150,0.0-46.0-2.0-0.0-2.0,,,,,,,,,,,,,,,5e80b109ca1800791e1ca40c,14:59:10,04/04/2024
,"<p style=""font-size:75px;"">...</p>",,ospan,iti,Biev3lfM0rXJIzwRFLdP9L2Lgcb2,html-keyboard-response,82,802415,0.0-46.0-2.0-1.0-0.0,,,,,,,,,,,,,,,5e80b109ca1800791e1ca40c,14:59:10,04/04/2024
2308.0,,,ospan,symmetry,Biev3lfM0rXJIzwRFLdP9L2Lgcb2,symmetry-judgement-task,83,805765,0.0-46.0-2.0-1.0-1.0-0.0,,,,,,,,,,1.0,1.0,,,,5e80b109ca1800791e1ca40c,14:59:10,04/04/2024
,"<div style=""font-size: 10rem; color: #0000FF"">J</div>",,ospan,letter,Biev3lfM0rXJIzwRFLdP9L2Lgcb2,html-keyboard-response,84,806773,0.0-46.0-2.0-1.0-1.0-1.0,,,,,,,,,,,,,,,5e80b109ca1800791e1ca40c,14:59:10,04/04/2024
1920.0,,,ospan,symmetry,Biev3lfM0rXJIzwRFLdP9L2Lgcb2,symmetry-judgement-task,85,810596,0.0-46.0-2.0-1.0-1.0-2.0,,,,,,,,,,1.0,1.0,,,,5e80b109ca1800791e1ca40c,14:59:10,04/04/2024
,"<div style=""font-size: 10rem; color: #0000FF"">Q</div>",,ospan,letter,Biev3lfM0rXJIzwRFLdP9L2Lgcb2,html-keyboard-response,86,811612,0.0-46.0-2.0-1.0-1.0-3.0,,,,,,,,,,,,,,,5e80b109ca1800791e1ca40c,14:59:10,04/04/2024
2788.0,,,ospan,symmetry,Biev3lfM0rXJIzwRFLdP9L2Lgcb2,symmetry-judgement-task,87,816333,0.0-46.0-2.0-1.0-1.0-4.0,,,,,,,,,,1.0,1.0,,,,5e80b109ca1800791e1ca40c,14:59:10,04/04/2024
,"<div style=""font-size: 10rem; color: #0000FF"">S</div>",,ospan,letter,Biev3lfM0rXJIzwRFLdP9L2Lgcb2,html-keyboard-response,88,817342,0.0-46.0-2.0-1.0-1.0-5.0,,,,,,,,,,,,,,,5e80b109ca1800791e1ca40c,14:59:10,04/04/2024
5817.599999999977,"<div class = numbox><p style=""font-size: 2.4rem"">Please recall the letters you saw to the best of your ability. If you do not remember a particular letter, use the SKIP button.<br><b>(When you are ready to lock in your answer, press ENTER)</b></p><button id = button_1 class = ""square num-button"" onclick = ""recordClick(this)""><div class = content><div class = numbers>C</div></div></button><button id = button_2 class = ""square num-button"" onclick = ""recordClick(this)""><div class = content><div class = numbers>G</div></div></button><button id = button_3 class = ""square num-button"" onclick = ""recordClick(this)""><div class = content><div class = numbers>H</div></div></button><button id = button_4 class = ""square num-button"" onclick = ""recordClick(this)""><div class = content><div class = numbers>J</div></div></button><button id = button_5 class = ""square num-button"" onclick = ""recordClick(this)""><div class = content><div class = numbers>K</div></div></button><button id = button_6 class = ""square num-button"" onclick = ""recordClick(this)""><div class = content><div class = numbers>L</div></div></button><button id = button_7 class = ""square num-button"" onclick = ""recordClick(this)""><div class = content><div class = numbers>N</div></div></button><button id = button_8 class = ""square num-button"" onclick = ""recordClick(this)""><div class = content><div class = numbers>P</div></div></button><button id = button_9 class = ""square num-button"" onclick = ""recordClick(this)""><div class = content><div class = numbers>Q</div></div></button><button id = button_10 class = ""square num-button"" onclick = ""recordClick(this)""><div class = content><div class = numbers>R</div></div></button><button id = button_11 class = ""square num-button"" onclick = ""recordClick(this)""><div class = content><div class = numbers>S</div></div></button><button id = button_12 class = ""square num-button"" onclick = ""recordClick(this)""><div class = content><div class = numbers>Y</div></div></button><button class = clear_button id = ""ClearButton"" onclick = ""clearResponse()"">BACKSPACE</button><button class = blank_button id = ""BlankButton"" onclick = ""blankResponse()"">SKIP</button><p style=""font-size: 2.4rem""><u><b>Current Answer:</b></u></p><br><br><div id=echoed_txt style=""font-size: 5rem; color:blue;""><b></b></div></div>",enter,ospan,retrieval,Biev3lfM0rXJIzwRFLdP9L2Lgcb2,html-keyboard-response,89,823916,0.0-46.0-2.0-1.0-2.0-0.0,NA,NA,NA,3.0,"[""J"",""Q"",""S""]","[""J"",""Q"",""S""]",1.0,3.0,"['<font color=""green"">J</font>', '<font color=""green"">Q</font>', '<font color=""green"">S</font>']",,,,,,5e80b109ca1800791e1ca40c,14:59:10,04/04/2024
1472.5,"['<p style=""font-size:44px"">Letters:<br><br><br><font color=""green"">J</font> <font color=""green"">Q</font> <font color=""green"">S</font></p><br><br><p style=""font-size:30px"">Symmetry:<br><br><font color=""green"">100%</font></p><br><br>']",0,ospan,practice_feedback,Biev3lfM0rXJIzwRFLdP9L2Lgcb2,html-button-response,90,825898,0.0-46.0-2.0-1.0-2.0-1.0,,,,,,,,,,,,,,,5e80b109ca1800791e1ca40c,14:59:10,04/04/2024
,"<p style=""font-size:75px;"">...</p>",,ospan,iti,Biev3lfM0rXJIzwRFLdP9L2Lgcb2,html-keyboard-response,91,826915,0.0-46.0-2.0-2.0-0.0,,,,,,,,,,,,,,,5e80b109ca1800791e1ca40c,14:59:10,04/04/2024
1925.0,,,ospan,symmetry,Biev3lfM0rXJIzwRFLdP9L2Lgcb2,symmetry-judgement-task,92,829999,0.0-46.0-2.0-2.0-1.0-0.0,,,,,,,,,,1.0,1.0,,,,5e80b109ca1800791e1ca40c,14:59:10,04/04/2024
,"<div style=""font-size: 10rem; color: #0000FF"">L</div>",,ospan,letter,Biev3lfM0rXJIzwRFLdP9L2Lgcb2,html-keyboard-response,93,831010,0.0-46.0-2.0-2.0-1.0-1.0,,,,,,,,,,,,,,,5e80b109ca1800791e1ca40c,14:59:10,04/04/2024
2047.0,,,ospan,symmetry,Biev3lfM0rXJIzwRFLdP9L2Lgcb2,symmetry-judgement-task,94,834965,0.0-46.0-2.0-2.0-1.0-2.0,,,,,,,,,,1.0,1.0,,,,5e80b109ca1800791e1ca40c,14:59:10,04/04/2024
,"<div style=""font-size: 10rem; color: #0000FF"">R</div>",,ospan,letter,Biev3lfM0rXJIzwRFLdP9L2Lgcb2,html-keyboard-response,95,835972,0.0-46.0-2.0-2.0-1.0-3.0,,,,,,,,,,,,,,,5e80b109ca1800791e1ca40c,14:59:10,04/04/2024
1662.0,,,ospan,symmetry,Biev3lfM0rXJIzwRFLdP9L2Lgcb2,symmetry-judgement-task,96,839561,0.0-46.0-2.0-2.0-1.0-4.0,,,,,,,,,,1.0,1.0,,,,5e80b109ca1800791e1ca40c,14:59:10,04/04/2024
,"<div style=""font-size: 10rem; color: #0000FF"">Q</div>",,ospan,letter,Biev3lfM0rXJIzwRFLdP9L2Lgcb2,html-keyboard-response,97,840569,0.0-46.0-2.0-2.0-1.0-5.0,,,,,,,,,,,,,,,5e80b109ca1800791e1ca40c,14:59:10,04/04/2024
3498.0999999999767,"<div class = numbox><p style=""font-size: 2.4rem"">Please recall the letters you saw to the best of your ability. If you do not remember a particular letter, use the SKIP button.<br><b>(When you are ready to lock in your answer, press ENTER)</b></p><button id = button_1 class = ""square num-button"" onclick = ""recordClick(this)""><div class = content><div class = numbers>C</div></div></button><button id = button_2 class = ""square num-button"" onclick = ""recordClick(this)""><div class = content><div class = numbers>G</div></div></button><button id = button_3 class = ""square num-button"" onclick = ""recordClick(this)""><div class = content><div class = numbers>H</div></div></button><button id = button_4 class = ""square num-button"" onclick = ""recordClick(this)""><div class = content><div class = numbers>J</div></div></button><button id = button_5 class = ""square num-button"" onclick = ""recordClick(this)""><div class = content><div class = numbers>K</div></div></button><button id = button_6 class = ""square num-button"" onclick = ""recordClick(this)""><div class = content><div class = numbers>L</div></div></button><button id = button_7 class = ""square num-button"" onclick = ""recordClick(this)""><div class = content><div class = numbers>N</div></div></button><button id = button_8 class = ""square num-button"" onclick = ""recordClick(this)""><div class = content><div class = numbers>P</div></div></button><button id = button_9 class = ""square num-button"" onclick = ""recordClick(this)""><div class = content><div class = numbers>Q</div></div></button><button id = button_10 class = ""square num-button"" onclick = ""recordClick(this)""><div class = content><div class = numbers>R</div></div></button><button id = button_11 class = ""square num-button"" onclick = ""recordClick(this)""><div class = content><div class = numbers>S</div></div></button><button id = button_12 class = ""square num-button"" onclick = ""recordClick(this)""><div class = content><div class = numbers>Y</div></div></button><button class = clear_button id = ""ClearButton"" onclick = ""clearResponse()"">BACKSPACE</button><button class = blank_button id = ""BlankButton"" onclick = ""blankResponse()"">SKIP</button><p style=""font-size: 2.4rem""><u><b>Current Answer:</b></u></p><br><br><div id=echoed_txt style=""font-size: 5rem; color:blue;""><b></b></div></div>",enter,ospan,retrieval,Biev3lfM0rXJIzwRFLdP9L2Lgcb2,html-keyboard-response,98,844823,0.0-46.0-2.0-2.0-2.0-0.0,NA,NA,NA,3.0,"[""L"",""R"",""Q""]","[""L"",""R"",""Q""]",1.0,3.0,"['<font color=""green"">L</font>', '<font color=""green"">R</font>', '<font color=""green"">Q</font>']",,,,,,5e80b109ca1800791e1ca40c,14:59:10,04/04/2024
1587.6999999999534,"['<p style=""font-size:44px"">Letters:<br><br><br><font color=""green"">L</font> <font color=""green"">R</font> <font color=""green"">Q</font></p><br><br><p style=""font-size:30px"">Symmetry:<br><br><font color=""green"">100%</font></p><br><br>']",0,ospan,practice_feedback,Biev3lfM0rXJIzwRFLdP9L2Lgcb2,html-button-response,99,846920,0.0-46.0-2.0-2.0-2.0-1.0,,,,,,,,,,,,,,,5e80b109ca1800791e1ca40c,14:59:10,04/04/2024
12360.199999999953,"<div class = 'left_align' style='font-size: 3rem; line-height: 1.3;'><b>Great work! That is the end of practice.</b><br><br>The real trials will look just like the practice trials you just completed.<br><br><u>Here, you will not see feedback</u>. First, you will see an grid picture to judge,<br>then a letter to remember. When the recall screen appears, report the letters in the<br>order presented. If you forget a letter, remember to use the <b>blank</b> button to move to the<br>next letter. Some of the sets will have more symmetry grids and letters than others.<br><br>It is important that you do your best on both the symmetry judgments and the letter recall<br>parts of the experiment. For for the symmetry judgments, try to work as <b>quickly</b> and <br>as <b>accurately</b> as possible. Remember to keep your symmetry accuracy at 85% or above.<br><br><b>For the letters, do NOT use any external aid (e.g., writing on paper, electronic device).</b><br><br>It is <u>very important</u> to our experiment to have a <b>true</b> view of your real performance.<br><br>Do not worry if you miss some when it gets hard! This task is meant to be very challenging!<br><br>Click the button to begin.</div><br><br><br><br>",0,ospan,starting_real_here,Biev3lfM0rXJIzwRFLdP9L2Lgcb2,html-button-response,100,859282,0.0-46.0-2.0-3.0,,,,,,,,,,,,,,,5e80b109ca1800791e1ca40c,14:59:10,04/04/2024
,"<p style=""font-size:75px;"">...</p>",,ospan,iti,Biev3lfM0rXJIzwRFLdP9L2Lgcb2,html-keyboard-response,101,860547,0.0-46.0-3.0-0.0-0.0,,,,,,,,,,,,,,,5e80b109ca1800791e1ca40c,14:59:10,04/04/2024
2471.0,,,ospan,symmetry,Biev3lfM0rXJIzwRFLdP9L2Lgcb2,symmetry-judgement-task,102,864169,0.0-46.0-3.0-0.0-1.0-0.0,,,,,,,,,,1.0,1.0,,,,5e80b109ca1800791e1ca40c,14:59:10,04/04/2024
,"<div style=""font-size: 10rem; color: #0000FF"">K</div>",,ospan,letter,Biev3lfM0rXJIzwRFLdP9L2Lgcb2,html-keyboard-response,103,865179,0.0-46.0-3.0-0.0-1.0-1.0,,,,,,,,,,,,,,,5e80b109ca1800791e1ca40c,14:59:10,04/04/2024
1724.0,,,ospan,symmetry,Biev3lfM0rXJIzwRFLdP9L2Lgcb2,symmetry-judgement-task,104,868857,0.0-46.0-3.0-0.0-1.0-2.0,,,,,,,,,,1.0,1.0,,,,5e80b109ca1800791e1ca40c,14:59:10,04/04/2024
,"<div style=""font-size: 10rem; color: #0000FF"">R</div>",,ospan,letter,Biev3lfM0rXJIzwRFLdP9L2Lgcb2,html-keyboard-response,105,869872,0.0-46.0-3.0-0.0-1.0-3.0,,,,,,,,,,,,,,,5e80b109ca1800791e1ca40c,14:59:10,04/04/2024
1920.0,,,ospan,symmetry,Biev3lfM0rXJIzwRFLdP9L2Lgcb2,symmetry-judgement-task,106,873681,0.0-46.0-3.0-0.0-1.0-4.0,,,,,,,,,,1.0,1.0,,,,5e80b109ca1800791e1ca40c,14:59:10,04/04/2024
,"<div style=""font-size: 10rem; color: #0000FF"">Y</div>",,ospan,letter,Biev3lfM0rXJIzwRFLdP9L2Lgcb2,html-keyboard-response,107,874691,0.0-46.0-3.0-0.0-1.0-5.0,,,,,,,,,,,,,,,5e80b109ca1800791e1ca40c,14:59:10,04/04/2024
3756.20000000007,"<div class = numbox><p style=""font-size: 2.4rem"">Please recall the letters you saw to the best of your ability. If you do not remember a particular letter, use the SKIP button.<br><b>(When you are ready to lock in your answer, press ENTER)</b></p><button id = button_1 class = ""square num-button"" onclick = ""recordClick(this)""><div class = content><div class = numbers>C</div></div></button><button id = button_2 class = ""square num-button"" onclick = ""recordClick(this)""><div class = content><div class = numbers>G</div></div></button><button id = button_3 class = ""square num-button"" onclick = ""recordClick(this)""><div class = content><div class = numbers>H</div></div></button><button id = button_4 class = ""square num-button"" onclick = ""recordClick(this)""><div class = content><div class = numbers>J</div></div></button><button id = button_5 class = ""square num-button"" onclick = ""recordClick(this)""><div class = content><div class = numbers>K</div></div></button><button id = button_6 class = ""square num-button"" onclick = ""recordClick(this)""><div class = content><div class = numbers>L</div></div></button><button id = button_7 class = ""square num-button"" onclick = ""recordClick(this)""><div class = content><div class = numbers>N</div></div></button><button id = button_8 class = ""square num-button"" onclick = ""recordClick(this)""><div class = content><div class = numbers>P</div></div></button><button id = button_9 class = ""square num-button"" onclick = ""recordClick(this)""><div class = content><div class = numbers>Q</div></div></button><button id = button_10 class = ""square num-button"" onclick = ""recordClick(this)""><div class = content><div class = numbers>R</div></div></button><button id = button_11 class = ""square num-button"" onclick = ""recordClick(this)""><div class = content><div class = numbers>S</div></div></button><button id = button_12 class = ""square num-button"" onclick = ""recordClick(this)""><div class = content><div class = numbers>Y</div></div></button><button class = clear_button id = ""ClearButton"" onclick = ""clearResponse()"">BACKSPACE</button><button class = blank_button id = ""BlankButton"" onclick = ""blankResponse()"">SKIP</button><p style=""font-size: 2.4rem""><u><b>Current Answer:</b></u></p><br><br><div id=echoed_txt style=""font-size: 5rem; color:blue;""><b></b></div></div>",enter,ospan,retrieval,Biev3lfM0rXJIzwRFLdP9L2Lgcb2,html-keyboard-response,108,879205,0.0-46.0-3.0-0.0-2.0,3,3,3,3.0,"[""K"",""R"",""Y""]","[""K"",""R"",""Y""]",1.0,3.0,,,,,,,5e80b109ca1800791e1ca40c,14:59:10,04/04/2024
1228.6000000000931,[''],0,ospan,feedback,Biev3lfM0rXJIzwRFLdP9L2Lgcb2,html-button-response,109,880951,0.0-46.0-3.0-0.0-3.0,,,,,,,,,,,,100.0,0.0,,5e80b109ca1800791e1ca40c,14:59:10,04/04/2024
,"<p style=""font-size:75px;"">...</p>",,ospan,iti,Biev3lfM0rXJIzwRFLdP9L2Lgcb2,html-keyboard-response,110,881962,0.0-46.0-4.0-0.0-0.0,,,,,,,,,,,,,,,5e80b109ca1800791e1ca40c,14:59:10,04/04/2024
3735.0,,,ospan,symmetry,Biev3lfM0rXJIzwRFLdP9L2Lgcb2,symmetry-judgement-task,111,886825,0.0-46.0-4.0-0.0-1.0-0.0,,,,,,,,,,1.0,1.0,,,,5e80b109ca1800791e1ca40c,14:59:10,04/04/2024
,"<div style=""font-size: 10rem; color: #0000FF"">J</div>",,ospan,letter,Biev3lfM0rXJIzwRFLdP9L2Lgcb2,html-keyboard-response,112,887831,0.0-46.0-4.0-0.0-1.0-1.0,,,,,,,,,,,,,,,5e80b109ca1800791e1ca40c,14:59:10,04/04/2024
2376.0,,,ospan,symmetry,Biev3lfM0rXJIzwRFLdP9L2Lgcb2,symmetry-judgement-task,113,892088,0.0-46.0-4.0-0.0-1.0-2.0,,,,,,,,,,1.0,1.0,,,,5e80b109ca1800791e1ca40c,14:59:10,04/04/2024
,"<div style=""font-size: 10rem; color: #0000FF"">L</div>",,ospan,letter,Biev3lfM0rXJIzwRFLdP9L2Lgcb2,html-keyboard-response,114,893095,0.0-46.0-4.0-0.0-1.0-3.0,,,,,,,,,,,,,,,5e80b109ca1800791e1ca40c,14:59:10,04/04/2024
2830.0,,,ospan,symmetry,Biev3lfM0rXJIzwRFLdP9L2Lgcb2,symmetry-judgement-task,115,897821,0.0-46.0-4.0-0.0-1.0-4.0,,,,,,,,,,1.0,1.0,,,,5e80b109ca1800791e1ca40c,14:59:10,04/04/2024
,"<div style=""font-size: 10rem; color: #0000FF"">G</div>",,ospan,letter,Biev3lfM0rXJIzwRFLdP9L2Lgcb2,html-keyboard-response,116,898832,0.0-46.0-4.0-0.0-1.0-5.0,,,,,,,,,,,,,,,5e80b109ca1800791e1ca40c,14:59:10,04/04/2024
3192.0,,,ospan,symmetry,Biev3lfM0rXJIzwRFLdP9L2Lgcb2,symmetry-judgement-task,117,903914,0.0-46.0-4.0-0.0-1.0-6.0,,,,,,,,,,1.0,1.0,,,,5e80b109ca1800791e1ca40c,14:59:10,04/04/2024
,"<div style=""font-size: 10rem; color: #0000FF"">Q</div>",,ospan,letter,Biev3lfM0rXJIzwRFLdP9L2Lgcb2,html-keyboard-response,118,904925,0.0-46.0-4.0-0.0-1.0-7.0,,,,,,,,,,,,,,,5e80b109ca1800791e1ca40c,14:59:10,04/04/2024
3918.399999999907,"<div class = numbox><p style=""font-size: 2.4rem"">Please recall the letters you saw to the best of your ability. If you do not remember a particular letter, use the SKIP button.<br><b>(When you are ready to lock in your answer, press ENTER)</b></p><button id = button_1 class = ""square num-button"" onclick = ""recordClick(this)""><div class = content><div class = numbers>C</div></div></button><button id = button_2 class = ""square num-button"" onclick = ""recordClick(this)""><div class = content><div class = numbers>G</div></div></button><button id = button_3 class = ""square num-button"" onclick = ""recordClick(this)""><div class = content><div class = numbers>H</div></div></button><button id = button_4 class = ""square num-button"" onclick = ""recordClick(this)""><div class = content><div class = numbers>J</div></div></button><button id = button_5 class = ""square num-button"" onclick = ""recordClick(this)""><div class = content><div class = numbers>K</div></div></button><button id = button_6 class = ""square num-button"" onclick = ""recordClick(this)""><div class = content><div class = numbers>L</div></div></button><button id = button_7 class = ""square num-button"" onclick = ""recordClick(this)""><div class = content><div class = numbers>N</div></div></button><button id = button_8 class = ""square num-button"" onclick = ""recordClick(this)""><div class = content><div class = numbers>P</div></div></button><button id = button_9 class = ""square num-button"" onclick = ""recordClick(this)""><div class = content><div class = numbers>Q</div></div></button><button id = button_10 class = ""square num-button"" onclick = ""recordClick(this)""><div class = content><div class = numbers>R</div></div></button><button id = button_11 class = ""square num-button"" onclick = ""recordClick(this)""><div class = content><div class = numbers>S</div></div></button><button id = button_12 class = ""square num-button"" onclick = ""recordClick(this)""><div class = content><div class = numbers>Y</div></div></button><button class = clear_button id = ""ClearButton"" onclick = ""clearResponse()"">BACKSPACE</button><button class = blank_button id = ""BlankButton"" onclick = ""blankResponse()"">SKIP</button><p style=""font-size: 2.4rem""><u><b>Current Answer:</b></u></p><br><br><div id=echoed_txt style=""font-size: 5rem; color:blue;""><b></b></div></div>",enter,ospan,retrieval,Biev3lfM0rXJIzwRFLdP9L2Lgcb2,html-keyboard-response,119,909596,0.0-46.0-4.0-0.0-2.0,7,5,3,4.0,"[""J"",""L"",""Q""]","[""J"",""L"",""G"",""Q""]",0.0,2.0,,,,,,,5e80b109ca1800791e1ca40c,14:59:10,04/04/2024
1374.0,[''],0,ospan,feedback,Biev3lfM0rXJIzwRFLdP9L2Lgcb2,html-button-response,120,911482,0.0-46.0-4.0-0.0-3.0,,,,,,,,,,,,100.0,0.0,,5e80b109ca1800791e1ca40c,14:59:10,04/04/2024
,"<p style=""font-size:75px;"">...</p>",,ospan,iti,Biev3lfM0rXJIzwRFLdP9L2Lgcb2,html-keyboard-response,121,912490,0.0-46.0-4.0-1.0-0.0,,,,,,,,,,,,,,,5e80b109ca1800791e1ca40c,14:59:10,04/04/2024
2625.0,,,ospan,symmetry,Biev3lfM0rXJIzwRFLdP9L2Lgcb2,symmetry-judgement-task,122,916243,0.0-46.0-4.0-1.0-1.0-0.0,,,,,,,,,,1.0,1.0,,,,5e80b109ca1800791e1ca40c,14:59:10,04/04/2024
,"<div style=""font-size: 10rem; color: #0000FF"">G</div>",,ospan,letter,Biev3lfM0rXJIzwRFLdP9L2Lgcb2,html-keyboard-response,123,917250,0.0-46.0-4.0-1.0-1.0-1.0,,,,,,,,,,,,,,,5e80b109ca1800791e1ca40c,14:59:10,04/04/2024
3400.0,,,ospan,symmetry,Biev3lfM0rXJIzwRFLdP9L2Lgcb2,symmetry-judgement-task,124,922542,0.0-46.0-4.0-1.0-1.0-2.0,,,,,,,,,,1.0,1.0,,,,5e80b109ca1800791e1ca40c,14:59:10,04/04/2024
,"<div style=""font-size: 10rem; color: #0000FF"">J</div>",,ospan,letter,Biev3lfM0rXJIzwRFLdP9L2Lgcb2,html-keyboard-response,125,923547,0.0-46.0-4.0-1.0-1.0-3.0,,,,,,,,,,,,,,,5e80b109ca1800791e1ca40c,14:59:10,04/04/2024
4344.0,,,ospan,symmetry,Biev3lfM0rXJIzwRFLdP9L2Lgcb2,symmetry-judgement-task,126,929780,0.0-46.0-4.0-1.0-1.0-4.0,,,,,,,,,,1.0,1.0,,,,5e80b109ca1800791e1ca40c,14:59:10,04/04/2024
,"<div style=""font-size: 10rem; color: #0000FF"">N</div>",,ospan,letter,Biev3lfM0rXJIzwRFLdP9L2Lgcb2,html-keyboard-response,127,930786,0.0-46.0-4.0-1.0-1.0-5.0,,,,,,,,,,,,,,,5e80b109ca1800791e1ca40c,14:59:10,04/04/2024
4821.0,,,ospan,symmetry,Biev3lfM0rXJIzwRFLdP9L2Lgcb2,symmetry-judgement-task,128,937500,0.0-46.0-4.0-1.0-1.0-6.0,,,,,,,,,,1.0,1.0,,,,5e80b109ca1800791e1ca40c,14:59:10,04/04/2024
,"<div style=""font-size: 10rem; color: #0000FF"">Q</div>",,ospan,letter,Biev3lfM0rXJIzwRFLdP9L2Lgcb2,html-keyboard-response,129,938506,0.0-46.0-4.0-1.0-1.0-7.0,,,,,,,,,,,,,,,5e80b109ca1800791e1ca40c,14:59:10,04/04/2024
6178.0,,,ospan,symmetry,Biev3lfM0rXJIzwRFLdP9L2Lgcb2,symmetry-judgement-task,130,946607,0.0-46.0-4.0-1.0-1.0-8.0,,,,,,,,,,1.0,1.0,,,,5e80b109ca1800791e1ca40c,14:59:10,04/04/2024
,"<div style=""font-size: 10rem; color: #0000FF"">Y</div>",,ospan,letter,Biev3lfM0rXJIzwRFLdP9L2Lgcb2,html-keyboard-response,131,947616,0.0-46.0-4.0-1.0-1.0-9.0,,,,,,,,,,,,,,,5e80b109ca1800791e1ca40c,14:59:10,04/04/2024
11436.59999999986,"<div class = numbox><p style=""font-size: 2.4rem"">Please recall the letters you saw to the best of your ability. If you do not remember a particular letter, use the SKIP button.<br><b>(When you are ready to lock in your answer, press ENTER)</b></p><button id = button_1 class = ""square num-button"" onclick = ""recordClick(this)""><div class = content><div class = numbers>C</div></div></button><button id = button_2 class = ""square num-button"" onclick = ""recordClick(this)""><div class = content><div class = numbers>G</div></div></button><button id = button_3 class = ""square num-button"" onclick = ""recordClick(this)""><div class = content><div class = numbers>H</div></div></button><button id = button_4 class = ""square num-button"" onclick = ""recordClick(this)""><div class = content><div class = numbers>J</div></div></button><button id = button_5 class = ""square num-button"" onclick = ""recordClick(this)""><div class = content><div class = numbers>K</div></div></button><button id = button_6 class = ""square num-button"" onclick = ""recordClick(this)""><div class = content><div class = numbers>L</div></div></button><button id = button_7 class = ""square num-button"" onclick = ""recordClick(this)""><div class = content><div class = numbers>N</div></div></button><button id = button_8 class = ""square num-button"" onclick = ""recordClick(this)""><div class = content><div class = numbers>P</div></div></button><button id = button_9 class = ""square num-button"" onclick = ""recordClick(this)""><div class = content><div class = numbers>Q</div></div></button><button id = button_10 class = ""square num-button"" onclick = ""recordClick(this)""><div class = content><div class = numbers>R</div></div></button><button id = button_11 class = ""square num-button"" onclick = ""recordClick(this)""><div class = content><div class = numbers>S</div></div></button><button id = button_12 class = ""square num-button"" onclick = ""recordClick(this)""><div class = content><div class = numbers>Y</div></div></button><button class = clear_button id = ""ClearButton"" onclick = ""clearResponse()"">BACKSPACE</button><button class = blank_button id = ""BlankButton"" onclick = ""blankResponse()"">SKIP</button><p style=""font-size: 2.4rem""><u><b>Current Answer:</b></u></p><br><br><div id=echoed_txt style=""font-size: 5rem; color:blue;""><b></b></div></div>",enter,ospan,retrieval,Biev3lfM0rXJIzwRFLdP9L2Lgcb2,html-keyboard-response,132,959809,0.0-46.0-4.0-1.0-2.0,12,10,8,5.0,"[""G"",""J"",""N"",""Q"",""Y""]","[""G"",""J"",""N"",""Q"",""Y""]",1.0,5.0,,,,,,,5e80b109ca1800791e1ca40c,14:59:10,04/04/2024
3432.7000000001863,[''],0,ospan,feedback,Biev3lfM0rXJIzwRFLdP9L2Lgcb2,html-button-response,133,963759,0.0-46.0-4.0-1.0-3.0,,,,,,,,,,,,100.0,0.0,,5e80b109ca1800791e1ca40c,14:59:10,04/04/2024
,"<p style=""font-size:75px;"">...</p>",,ospan,iti,Biev3lfM0rXJIzwRFLdP9L2Lgcb2,html-keyboard-response,134,964765,0.0-46.0-4.0-2.0-0.0,,,,,,,,,,,,,,,5e80b109ca1800791e1ca40c,14:59:10,04/04/2024
3680.0,,,ospan,symmetry,Biev3lfM0rXJIzwRFLdP9L2Lgcb2,symmetry-judgement-task,135,969588,0.0-46.0-4.0-2.0-1.0-0.0,,,,,,,,,,1.0,1.0,,,,5e80b109ca1800791e1ca40c,14:59:10,04/04/2024
,"<div style=""font-size: 10rem; color: #0000FF"">S</div>",,ospan,letter,Biev3lfM0rXJIzwRFLdP9L2Lgcb2,html-keyboard-response,136,970609,0.0-46.0-4.0-2.0-1.0-1.0,,,,,,,,,,,,,,,5e80b109ca1800791e1ca40c,14:59:10,04/04/2024
2572.0,,,ospan,symmetry,Biev3lfM0rXJIzwRFLdP9L2Lgcb2,symmetry-judgement-task,137,975058,0.0-46.0-4.0-2.0-1.0-2.0,,,,,,,,,,1.0,1.0,,,,5e80b109ca1800791e1ca40c,14:59:10,04/04/2024
,"<div style=""font-size: 10rem; color: #0000FF"">L</div>",,ospan,letter,Biev3lfM0rXJIzwRFLdP9L2Lgcb2,html-keyboard-response,138,976064,0.0-46.0-4.0-2.0-1.0-3.0,,,,,,,,,,,,,,,5e80b109ca1800791e1ca40c,14:59:10,04/04/2024
1945.0,,,ospan,symmetry,Biev3lfM0rXJIzwRFLdP9L2Lgcb2,symmetry-judgement-task,139,979896,0.0-46.0-4.0-2.0-1.0-4.0,,,,,,,,,,1.0,1.0,,,,5e80b109ca1800791e1ca40c,14:59:10,04/04/2024
,"<div style=""font-size: 10rem; color: #0000FF"">H</div>",,ospan,letter,Biev3lfM0rXJIzwRFLdP9L2Lgcb2,html-keyboard-response,140,980905,0.0-46.0-4.0-2.0-1.0-5.0,,,,,,,,,,,,,,,5e80b109ca1800791e1ca40c,14:59:10,04/04/2024
4479.399999999907,"<div class = numbox><p style=""font-size: 2.4rem"">Please recall the letters you saw to the best of your ability. If you do not remember a particular letter, use the SKIP button.<br><b>(When you are ready to lock in your answer, press ENTER)</b></p><button id = button_1 class = ""square num-button"" onclick = ""recordClick(this)""><div class = content><div class = numbers>C</div></div></button><button id = button_2 class = ""square num-button"" onclick = ""recordClick(this)""><div class = content><div class = numbers>G</div></div></button><button id = button_3 class = ""square num-button"" onclick = ""recordClick(this)""><div class = content><div class = numbers>H</div></div></button><button id = button_4 class = ""square num-button"" onclick = ""recordClick(this)""><div class = content><div class = numbers>J</div></div></button><button id = button_5 class = ""square num-button"" onclick = ""recordClick(this)""><div class = content><div class = numbers>K</div></div></button><button id = button_6 class = ""square num-button"" onclick = ""recordClick(this)""><div class = content><div class = numbers>L</div></div></button><button id = button_7 class = ""square num-button"" onclick = ""recordClick(this)""><div class = content><div class = numbers>N</div></div></button><button id = button_8 class = ""square num-button"" onclick = ""recordClick(this)""><div class = content><div class = numbers>P</div></div></button><button id = button_9 class = ""square num-button"" onclick = ""recordClick(this)""><div class = content><div class = numbers>Q</div></div></button><button id = button_10 class = ""square num-button"" onclick = ""recordClick(this)""><div class = content><div class = numbers>R</div></div></button><button id = button_11 class = ""square num-button"" onclick = ""recordClick(this)""><div class = content><div class = numbers>S</div></div></button><button id = button_12 class = ""square num-button"" onclick = ""recordClick(this)""><div class = content><div class = numbers>Y</div></div></button><button class = clear_button id = ""ClearButton"" onclick = ""clearResponse()"">BACKSPACE</button><button class = blank_button id = ""BlankButton"" onclick = ""blankResponse()"">SKIP</button><p style=""font-size: 2.4rem""><u><b>Current Answer:</b></u></p><br><br><div id=echoed_txt style=""font-size: 5rem; color:blue;""><b></b></div></div>",enter,ospan,retrieval,Biev3lfM0rXJIzwRFLdP9L2Lgcb2,html-keyboard-response,141,986142,0.0-46.0-4.0-2.0-2.0,15,13,11,3.0,"[""S"",""L"",""H""]","[""S"",""L"",""H""]",1.0,3.0,,,,,,,5e80b109ca1800791e1ca40c,14:59:10,04/04/2024
1514.6000000000931,[''],0,ospan,feedback,Biev3lfM0rXJIzwRFLdP9L2Lgcb2,html-button-response,142,988160,0.0-46.0-4.0-2.0-3.0,,,,,,,,,,,,100.0,0.0,,5e80b109ca1800791e1ca40c,14:59:10,04/04/2024
,"<p style=""font-size:75px;"">...</p>",,ospan,iti,Biev3lfM0rXJIzwRFLdP9L2Lgcb2,html-keyboard-response,143,989171,0.0-46.0-5.0-0.0-0.0,,,,,,,,,,,,,,,5e80b109ca1800791e1ca40c,14:59:10,04/04/2024
4542.0,,,ospan,symmetry,Biev3lfM0rXJIzwRFLdP9L2Lgcb2,symmetry-judgement-task,144,994836,0.0-46.0-5.0-0.0-1.0-0.0,,,,,,,,,,1.0,1.0,,,,5e80b109ca1800791e1ca40c,14:59:10,04/04/2024
,"<div style=""font-size: 10rem; color: #0000FF"">S</div>",,ospan,letter,Biev3lfM0rXJIzwRFLdP9L2Lgcb2,html-keyboard-response,145,995843,0.0-46.0-5.0-0.0-1.0-1.0,,,,,,,,,,,,,,,5e80b109ca1800791e1ca40c,14:59:10,04/04/2024
1962.0,,,ospan,symmetry,Biev3lfM0rXJIzwRFLdP9L2Lgcb2,symmetry-judgement-task,146,999676,0.0-46.0-5.0-0.0-1.0-2.0,,,,,,,,,,1.0,1.0,,,,5e80b109ca1800791e1ca40c,14:59:10,04/04/2024
,"<div style=""font-size: 10rem; color: #0000FF"">L</div>",,ospan,letter,Biev3lfM0rXJIzwRFLdP9L2Lgcb2,html-keyboard-response,147,1000683,0.0-46.0-5.0-0.0-1.0-3.0,,,,,,,,,,,,,,,5e80b109ca1800791e1ca40c,14:59:10,04/04/2024
3191.0,,,ospan,symmetry,Biev3lfM0rXJIzwRFLdP9L2Lgcb2,symmetry-judgement-task,148,1005758,0.0-46.0-5.0-0.0-1.0-4.0,,,,,,,,,,1.0,1.0,,,,5e80b109ca1800791e1ca40c,14:59:10,04/04/2024
,"<div style=""font-size: 10rem; color: #0000FF"">Y</div>",,ospan,letter,Biev3lfM0rXJIzwRFLdP9L2Lgcb2,html-keyboard-response,149,1006764,0.0-46.0-5.0-0.0-1.0-5.0,,,,,,,,,,,,,,,5e80b109ca1800791e1ca40c,14:59:10,04/04/2024
2717.0,,,ospan,symmetry,Biev3lfM0rXJIzwRFLdP9L2Lgcb2,symmetry-judgement-task,150,1011363,0.0-46.0-5.0-0.0-1.0-6.0,,,,,,,,,,1.0,1.0,,,,5e80b109ca1800791e1ca40c,14:59:10,04/04/2024
,"<div style=""font-size: 10rem; color: #0000FF"">P</div>",,ospan,letter,Biev3lfM0rXJIzwRFLdP9L2Lgcb2,html-keyboard-response,151,1012372,0.0-46.0-5.0-0.0-1.0-7.0,,,,,,,,,,,,,,,5e80b109ca1800791e1ca40c,14:59:10,04/04/2024
1784.0,,,ospan,symmetry,Biev3lfM0rXJIzwRFLdP9L2Lgcb2,symmetry-judgement-task,152,1016049,0.0-46.0-5.0-0.0-1.0-8.0,,,,,,,,,,1.0,1.0,,,,5e80b109ca1800791e1ca40c,14:59:10,04/04/2024
,"<div style=""font-size: 10rem; color: #0000FF"">H</div>",,ospan,letter,Biev3lfM0rXJIzwRFLdP9L2Lgcb2,html-keyboard-response,153,1017054,0.0-46.0-5.0-0.0-1.0-9.0,,,,,,,,,,,,,,,5e80b109ca1800791e1ca40c,14:59:10,04/04/2024
2563.0,,,ospan,symmetry,Biev3lfM0rXJIzwRFLdP9L2Lgcb2,symmetry-judgement-task,154,1021492,0.0-46.0-5.0-0.0-1.0-10.0,,,,,,,,,,1.0,1.0,,,,5e80b109ca1800791e1ca40c,14:59:10,04/04/2024
,"<div style=""font-size: 10rem; color: #0000FF"">J</div>",,ospan,letter,Biev3lfM0rXJIzwRFLdP9L2Lgcb2,html-keyboard-response,155,1022500,0.0-46.0-5.0-0.0-1.0-11.0,,,,,,,,,,,,,,,5e80b109ca1800791e1ca40c,14:59:10,04/04/2024
7084.300000000047,"<div class = numbox><p style=""font-size: 2.4rem"">Please recall the letters you saw to the best of your ability. If you do not remember a particular letter, use the SKIP button.<br><b>(When you are ready to lock in your answer, press ENTER)</b></p><button id = button_1 class = ""square num-button"" onclick = ""recordClick(this)""><div class = content><div class = numbers>C</div></div></button><button id = button_2 class = ""square num-button"" onclick = ""recordClick(this)""><div class = content><div class = numbers>G</div></div></button><button id = button_3 class = ""square num-button"" onclick = ""recordClick(this)""><div class = content><div class = numbers>H</div></div></button><button id = button_4 class = ""square num-button"" onclick = ""recordClick(this)""><div class = content><div class = numbers>J</div></div></button><button id = button_5 class = ""square num-button"" onclick = ""recordClick(this)""><div class = content><div class = numbers>K</div></div></button><button id = button_6 class = ""square num-button"" onclick = ""recordClick(this)""><div class = content><div class = numbers>L</div></div></button><button id = button_7 class = ""square num-button"" onclick = ""recordClick(this)""><div class = content><div class = numbers>N</div></div></button><button id = button_8 class = ""square num-button"" onclick = ""recordClick(this)""><div class = content><div class = numbers>P</div></div></button><button id = button_9 class = ""square num-button"" onclick = ""recordClick(this)""><div class = content><div class = numbers>Q</div></div></button><button id = button_10 class = ""square num-button"" onclick = ""recordClick(this)""><div class = content><div class = numbers>R</div></div></button><button id = button_11 class = ""square num-button"" onclick = ""recordClick(this)""><div class = content><div class = numbers>S</div></div></button><button id = button_12 class = ""square num-button"" onclick = ""recordClick(this)""><div class = content><div class = numbers>Y</div></div></button><button class = clear_button id = ""ClearButton"" onclick = ""clearResponse()"">BACKSPACE</button><button class = blank_button id = ""BlankButton"" onclick = ""blankResponse()"">SKIP</button><p style=""font-size: 2.4rem""><u><b>Current Answer:</b></u></p><br><br><div id=echoed_txt style=""font-size: 5rem; color:blue;""><b></b></div></div>",enter,ospan,retrieval,Biev3lfM0rXJIzwRFLdP9L2Lgcb2,html-keyboard-response,156,1030334,0.0-46.0-5.0-0.0-2.0,21,19,17,6.0,"[""S"",""L"",""Y"",""P"",""H"",""J""]","[""S"",""L"",""Y"",""P"",""H"",""J""]",1.0,6.0,,,,,,,5e80b109ca1800791e1ca40c,14:59:10,04/04/2024
1209.0,[''],0,ospan,feedback,Biev3lfM0rXJIzwRFLdP9L2Lgcb2,html-button-response,157,1032046,0.0-46.0-5.0-0.0-3.0,,,,,,,,,,,,100.0,0.0,,5e80b109ca1800791e1ca40c,14:59:10,04/04/2024
,"<p style=""font-size:75px;"">...</p>",,ospan,iti,Biev3lfM0rXJIzwRFLdP9L2Lgcb2,html-keyboard-response,158,1033052,0.0-46.0-5.0-1.0-0.0,,,,,,,,,,,,,,,5e80b109ca1800791e1ca40c,14:59:10,04/04/2024
1910.0,,,ospan,symmetry,Biev3lfM0rXJIzwRFLdP9L2Lgcb2,symmetry-judgement-task,159,1036097,0.0-46.0-5.0-1.0-1.0-0.0,,,,,,,,,,1.0,1.0,,,,5e80b109ca1800791e1ca40c,14:59:10,04/04/2024
,"<div style=""font-size: 10rem; color: #0000FF"">S</div>",,ospan,letter,Biev3lfM0rXJIzwRFLdP9L2Lgcb2,html-keyboard-response,160,1037105,0.0-46.0-5.0-1.0-1.0-1.0,,,,,,,,,,,,,,,5e80b109ca1800791e1ca40c,14:59:10,04/04/2024
1819.0,,,ospan,symmetry,Biev3lfM0rXJIzwRFLdP9L2Lgcb2,symmetry-judgement-task,161,1040798,0.0-46.0-5.0-1.0-1.0-2.0,,,,,,,,,,1.0,1.0,,,,5e80b109ca1800791e1ca40c,14:59:10,04/04/2024
,"<div style=""font-size: 10rem; color: #0000FF"">N</div>",,ospan,letter,Biev3lfM0rXJIzwRFLdP9L2Lgcb2,html-keyboard-response,162,1041807,0.0-46.0-5.0-1.0-1.0-3.0,,,,,,,,,,,,,,,5e80b109ca1800791e1ca40c,14:59:10,04/04/2024
1453.0,,,ospan,symmetry,Biev3lfM0rXJIzwRFLdP9L2Lgcb2,symmetry-judgement-task,163,1045168,0.0-46.0-5.0-1.0-1.0-4.0,,,,,,,,,,1.0,1.0,,,,5e80b109ca1800791e1ca40c,14:59:10,04/04/2024
,"<div style=""font-size: 10rem; color: #0000FF"">H</div>",,ospan,letter,Biev3lfM0rXJIzwRFLdP9L2Lgcb2,html-keyboard-response,164,1046173,0.0-46.0-5.0-1.0-1.0-5.0,,,,,,,,,,,,,,,5e80b109ca1800791e1ca40c,14:59:10,04/04/2024
2041.0,,,ospan,symmetry,Biev3lfM0rXJIzwRFLdP9L2Lgcb2,symmetry-judgement-task,165,1050096,0.0-46.0-5.0-1.0-1.0-6.0,,,,,,,,,,1.0,1.0,,,,5e80b109ca1800791e1ca40c,14:59:10,04/04/2024
,"<div style=""font-size: 10rem; color: #0000FF"">G</div>",,ospan,letter,Biev3lfM0rXJIzwRFLdP9L2Lgcb2,html-keyboard-response,166,1051111,0.0-46.0-5.0-1.0-1.0-7.0,,,,,,,,,,,,,,,5e80b109ca1800791e1ca40c,14:59:10,04/04/2024
1303.0,,,ospan,symmetry,Biev3lfM0rXJIzwRFLdP9L2Lgcb2,symmetry-judgement-task,167,1054294,0.0-46.0-5.0-1.0-1.0-8.0,,,,,,,,,,1.0,1.0,,,,5e80b109ca1800791e1ca40c,14:59:10,04/04/2024
,"<div style=""font-size: 10rem; color: #0000FF"">L</div>",,ospan,letter,Biev3lfM0rXJIzwRFLdP9L2Lgcb2,html-keyboard-response,168,1055295,0.0-46.0-5.0-1.0-1.0-9.0,,,,,,,,,,,,,,,5e80b109ca1800791e1ca40c,14:59:10,04/04/2024
2328.0,,,ospan,symmetry,Biev3lfM0rXJIzwRFLdP9L2Lgcb2,symmetry-judgement-task,169,1059505,0.0-46.0-5.0-1.0-1.0-10.0,,,,,,,,,,1.0,1.0,,,,5e80b109ca1800791e1ca40c,14:59:10,04/04/2024
,"<div style=""font-size: 10rem; color: #0000FF"">Q</div>",,ospan,letter,Biev3lfM0rXJIzwRFLdP9L2Lgcb2,html-keyboard-response,170,1060511,0.0-46.0-5.0-1.0-1.0-11.0,,,,,,,,,,,,,,,5e80b109ca1800791e1ca40c,14:59:10,04/04/2024
1866.0,,,ospan,symmetry,Biev3lfM0rXJIzwRFLdP9L2Lgcb2,symmetry-judgement-task,171,1064258,0.0-46.0-5.0-1.0-1.0-12.0,,,,,,,,,,1.0,1.0,,,,5e80b109ca1800791e1ca40c,14:59:10,04/04/2024
,"<div style=""font-size: 10rem; color: #0000FF"">P</div>",,ospan,letter,Biev3lfM0rXJIzwRFLdP9L2Lgcb2,html-keyboard-response,172,1065265,0.0-46.0-5.0-1.0-1.0-13.0,,,,,,,,,,,,,,,5e80b109ca1800791e1ca40c,14:59:10,04/04/2024
8170.40000000014,"<div class = numbox><p style=""font-size: 2.4rem"">Please recall the letters you saw to the best of your ability. If you do not remember a particular letter, use the SKIP button.<br><b>(When you are ready to lock in your answer, press ENTER)</b></p><button id = button_1 class = ""square num-button"" onclick = ""recordClick(this)""><div class = content><div class = numbers>C</div></div></button><button id = button_2 class = ""square num-button"" onclick = ""recordClick(this)""><div class = content><div class = numbers>G</div></div></button><button id = button_3 class = ""square num-button"" onclick = ""recordClick(this)""><div class = content><div class = numbers>H</div></div></button><button id = button_4 class = ""square num-button"" onclick = ""recordClick(this)""><div class = content><div class = numbers>J</div></div></button><button id = button_5 class = ""square num-button"" onclick = ""recordClick(this)""><div class = content><div class = numbers>K</div></div></button><button id = button_6 class = ""square num-button"" onclick = ""recordClick(this)""><div class = content><div class = numbers>L</div></div></button><button id = button_7 class = ""square num-button"" onclick = ""recordClick(this)""><div class = content><div class = numbers>N</div></div></button><button id = button_8 class = ""square num-button"" onclick = ""recordClick(this)""><div class = content><div class = numbers>P</div></div></button><button id = button_9 class = ""square num-button"" onclick = ""recordClick(this)""><div class = content><div class = numbers>Q</div></div></button><button id = button_10 class = ""square num-button"" onclick = ""recordClick(this)""><div class = content><div class = numbers>R</div></div></button><button id = button_11 class = ""square num-button"" onclick = ""recordClick(this)""><div class = content><div class = numbers>S</div></div></button><button id = button_12 class = ""square num-button"" onclick = ""recordClick(this)""><div class = content><div class = numbers>Y</div></div></button><button class = clear_button id = ""ClearButton"" onclick = ""clearResponse()"">BACKSPACE</button><button class = blank_button id = ""BlankButton"" onclick = ""blankResponse()"">SKIP</button><p style=""font-size: 2.4rem""><u><b>Current Answer:</b></u></p><br><br><div id=echoed_txt style=""font-size: 5rem; color:blue;""><b></b></div></div>",enter,ospan,retrieval,Biev3lfM0rXJIzwRFLdP9L2Lgcb2,html-keyboard-response,173,1074191,0.0-46.0-5.0-1.0-2.0,28,22,17,7.0,"[""S"",""N"",""H"",""L"",""Q""]","[""S"",""N"",""H"",""G"",""L"",""Q"",""P""]",0.0,3.0,,,,,,,5e80b109ca1800791e1ca40c,14:59:10,04/04/2024
1309.4000000001397,[''],0,ospan,feedback,Biev3lfM0rXJIzwRFLdP9L2Lgcb2,html-button-response,174,1076005,0.0-46.0-5.0-1.0-3.0,,,,,,,,,,,,100.0,0.0,,5e80b109ca1800791e1ca40c,14:59:10,04/04/2024
,"<p style=""font-size:75px;"">...</p>",,ospan,iti,Biev3lfM0rXJIzwRFLdP9L2Lgcb2,html-keyboard-response,175,1077014,0.0-46.0-6.0-0.0-0.0,,,,,,,,,,,,,,,5e80b109ca1800791e1ca40c,14:59:10,04/04/2024
2069.0,,,ospan,symmetry,Biev3lfM0rXJIzwRFLdP9L2Lgcb2,symmetry-judgement-task,176,1080131,0.0-46.0-6.0-0.0-1.0-0.0,,,,,,,,,,1.0,1.0,,,,5e80b109ca1800791e1ca40c,14:59:10,04/04/2024
,"<div style=""font-size: 10rem; color: #0000FF"">J</div>",,ospan,letter,Biev3lfM0rXJIzwRFLdP9L2Lgcb2,html-keyboard-response,177,1081137,0.0-46.0-6.0-0.0-1.0-1.0,,,,,,,,,,,,,,,5e80b109ca1800791e1ca40c,14:59:10,04/04/2024
1883.0,,,ospan,symmetry,Biev3lfM0rXJIzwRFLdP9L2Lgcb2,symmetry-judgement-task,178,1084903,0.0-46.0-6.0-0.0-1.0-2.0,,,,,,,,,,1.0,1.0,,,,5e80b109ca1800791e1ca40c,14:59:10,04/04/2024
,"<div style=""font-size: 10rem; color: #0000FF"">G</div>",,ospan,letter,Biev3lfM0rXJIzwRFLdP9L2Lgcb2,html-keyboard-response,179,1085911,0.0-46.0-6.0-0.0-1.0-3.0,,,,,,,,,,,,,,,5e80b109ca1800791e1ca40c,14:59:10,04/04/2024
1572.0,,,ospan,symmetry,Biev3lfM0rXJIzwRFLdP9L2Lgcb2,symmetry-judgement-task,180,1089384,0.0-46.0-6.0-0.0-1.0-4.0,,,,,,,,,,1.0,1.0,,,,5e80b109ca1800791e1ca40c,14:59:10,04/04/2024
,"<div style=""font-size: 10rem; color: #0000FF"">K</div>",,ospan,letter,Biev3lfM0rXJIzwRFLdP9L2Lgcb2,html-keyboard-response,181,1090392,0.0-46.0-6.0-0.0-1.0-5.0,,,,,,,,,,,,,,,5e80b109ca1800791e1ca40c,14:59:10,04/04/2024
2418.0,,,ospan,symmetry,Biev3lfM0rXJIzwRFLdP9L2Lgcb2,symmetry-judgement-task,182,1094687,0.0-46.0-6.0-0.0-1.0-6.0,,,,,,,,,,1.0,1.0,,,,5e80b109ca1800791e1ca40c,14:59:10,04/04/2024
,"<div style=""font-size: 10rem; color: #0000FF"">Y</div>",,ospan,letter,Biev3lfM0rXJIzwRFLdP9L2Lgcb2,html-keyboard-response,183,1095692,0.0-46.0-6.0-0.0-1.0-7.0,,,,,,,,,,,,,,,5e80b109ca1800791e1ca40c,14:59:10,04/04/2024
1514.0,,,ospan,symmetry,Biev3lfM0rXJIzwRFLdP9L2Lgcb2,symmetry-judgement-task,184,1099104,0.0-46.0-6.0-0.0-1.0-8.0,,,,,,,,,,1.0,1.0,,,,5e80b109ca1800791e1ca40c,14:59:10,04/04/2024
,"<div style=""font-size: 10rem; color: #0000FF"">C</div>",,ospan,letter,Biev3lfM0rXJIzwRFLdP9L2Lgcb2,html-keyboard-response,185,1100112,0.0-46.0-6.0-0.0-1.0-9.0,,,,,,,,,,,,,,,5e80b109ca1800791e1ca40c,14:59:10,04/04/2024
10193.200000000186,"<div class = numbox><p style=""font-size: 2.4rem"">Please recall the letters you saw to the best of your ability. If you do not remember a particular letter, use the SKIP button.<br><b>(When you are ready to lock in your answer, press ENTER)</b></p><button id = button_1 class = ""square num-button"" onclick = ""recordClick(this)""><div class = content><div class = numbers>C</div></div></button><button id = button_2 class = ""square num-button"" onclick = ""recordClick(this)""><div class = content><div class = numbers>G</div></div></button><button id = button_3 class = ""square num-button"" onclick = ""recordClick(this)""><div class = content><div class = numbers>H</div></div></button><button id = button_4 class = ""square num-button"" onclick = ""recordClick(this)""><div class = content><div class = numbers>J</div></div></button><button id = button_5 class = ""square num-button"" onclick = ""recordClick(this)""><div class = content><div class = numbers>K</div></div></button><button id = button_6 class = ""square num-button"" onclick = ""recordClick(this)""><div class = content><div class = numbers>L</div></div></button><button id = button_7 class = ""square num-button"" onclick = ""recordClick(this)""><div class = content><div class = numbers>N</div></div></button><button id = button_8 class = ""square num-button"" onclick = ""recordClick(this)""><div class = content><div class = numbers>P</div></div></button><button id = button_9 class = ""square num-button"" onclick = ""recordClick(this)""><div class = content><div class = numbers>Q</div></div></button><button id = button_10 class = ""square num-button"" onclick = ""recordClick(this)""><div class = content><div class = numbers>R</div></div></button><button id = button_11 class = ""square num-button"" onclick = ""recordClick(this)""><div class = content><div class = numbers>S</div></div></button><button id = button_12 class = ""square num-button"" onclick = ""recordClick(this)""><div class = content><div class = numbers>Y</div></div></button><button class = clear_button id = ""ClearButton"" onclick = ""clearResponse()"">BACKSPACE</button><button class = blank_button id = ""BlankButton"" onclick = ""blankResponse()"">SKIP</button><p style=""font-size: 2.4rem""><u><b>Current Answer:</b></u></p><br><br><div id=echoed_txt style=""font-size: 5rem; color:blue;""><b></b></div></div>",enter,ospan,retrieval,Biev3lfM0rXJIzwRFLdP9L2Lgcb2,html-keyboard-response,186,1111060,0.0-46.0-6.0-0.0-2.0,33,27,22,5.0,"[""J"",""G"",""K"",""Y"",""C"",""_""]","[""J"",""G"",""K"",""Y"",""C""]",1.0,5.0,,,,,,,5e80b109ca1800791e1ca40c,14:59:10,04/04/2024
1262.3000000000466,[''],0,ospan,feedback,Biev3lfM0rXJIzwRFLdP9L2Lgcb2,html-button-response,187,1112825,0.0-46.0-6.0-0.0-3.0,,,,,,,,,,,,100.0,0.0,,5e80b109ca1800791e1ca40c,14:59:10,04/04/2024
,"<p style=""font-size:75px;"">...</p>",,ospan,iti,Biev3lfM0rXJIzwRFLdP9L2Lgcb2,html-keyboard-response,188,1113833,0.0-46.0-6.0-1.0-0.0,,,,,,,,,,,,,,,5e80b109ca1800791e1ca40c,14:59:10,04/04/2024
1979.0,,,ospan,symmetry,Biev3lfM0rXJIzwRFLdP9L2Lgcb2,symmetry-judgement-task,189,1116940,0.0-46.0-6.0-1.0-1.0-0.0,,,,,,,,,,1.0,1.0,,,,5e80b109ca1800791e1ca40c,14:59:10,04/04/2024
,"<div style=""font-size: 10rem; color: #0000FF"">K</div>",,ospan,letter,Biev3lfM0rXJIzwRFLdP9L2Lgcb2,html-keyboard-response,190,1117952,0.0-46.0-6.0-1.0-1.0-1.0,,,,,,,,,,,,,,,5e80b109ca1800791e1ca40c,14:59:10,04/04/2024
2332.0,,,ospan,symmetry,Biev3lfM0rXJIzwRFLdP9L2Lgcb2,symmetry-judgement-task,191,1122170,0.0-46.0-6.0-1.0-1.0-2.0,,,,,,,,,,1.0,1.0,,,,5e80b109ca1800791e1ca40c,14:59:10,04/04/2024
,"<div style=""font-size: 10rem; color: #0000FF"">H</div>",,ospan,letter,Biev3lfM0rXJIzwRFLdP9L2Lgcb2,html-keyboard-response,192,1123177,0.0-46.0-6.0-1.0-1.0-3.0,,,,,,,,,,,,,,,5e80b109ca1800791e1ca40c,14:59:10,04/04/2024
2366.0,,,ospan,symmetry,Biev3lfM0rXJIzwRFLdP9L2Lgcb2,symmetry-judgement-task,193,1127421,0.0-46.0-6.0-1.0-1.0-4.0,,,,,,,,,,1.0,1.0,,,,5e80b109ca1800791e1ca40c,14:59:10,04/04/2024
,"<div style=""font-size: 10rem; color: #0000FF"">L</div>",,ospan,letter,Biev3lfM0rXJIzwRFLdP9L2Lgcb2,html-keyboard-response,194,1128430,0.0-46.0-6.0-1.0-1.0-5.0,,,,,,,,,,,,,,,5e80b109ca1800791e1ca40c,14:59:10,04/04/2024
2227.0,,,ospan,symmetry,Biev3lfM0rXJIzwRFLdP9L2Lgcb2,symmetry-judgement-task,195,1132545,0.0-46.0-6.0-1.0-1.0-6.0,,,,,,,,,,1.0,1.0,,,,5e80b109ca1800791e1ca40c,14:59:10,04/04/2024
,"<div style=""font-size: 10rem; color: #0000FF"">R</div>",,ospan,letter,Biev3lfM0rXJIzwRFLdP9L2Lgcb2,html-keyboard-response,196,1133553,0.0-46.0-6.0-1.0-1.0-7.0,,,,,,,,,,,,,,,5e80b109ca1800791e1ca40c,14:59:10,04/04/2024
2457.0,,,ospan,symmetry,Biev3lfM0rXJIzwRFLdP9L2Lgcb2,symmetry-judgement-task,197,1137897,0.0-46.0-6.0-1.0-1.0-8.0,,,,,,,,,,1.0,1.0,,,,5e80b109ca1800791e1ca40c,14:59:10,04/04/2024
,"<div style=""font-size: 10rem; color: #0000FF"">G</div>",,ospan,letter,Biev3lfM0rXJIzwRFLdP9L2Lgcb2,html-keyboard-response,198,1138902,0.0-46.0-6.0-1.0-1.0-9.0,,,,,,,,,,,,,,,5e80b109ca1800791e1ca40c,14:59:10,04/04/2024
2153.0,,,ospan,symmetry,Biev3lfM0rXJIzwRFLdP9L2Lgcb2,symmetry-judgement-task,199,1142949,0.0-46.0-6.0-1.0-1.0-10.0,,,,,,,,,,1.0,1.0,,,,5e80b109ca1800791e1ca40c,14:59:10,04/04/2024
,"<div style=""font-size: 10rem; color: #0000FF"">P</div>",,ospan,letter,Biev3lfM0rXJIzwRFLdP9L2Lgcb2,html-keyboard-response,200,1143955,0.0-46.0-6.0-1.0-1.0-11.0,,,,,,,,,,,,,,,5e80b109ca1800791e1ca40c,14:59:10,04/04/2024
3206.0,,,ospan,symmetry,Biev3lfM0rXJIzwRFLdP9L2Lgcb2,symmetry-judgement-task,201,1149052,0.0-46.0-6.0-1.0-1.0-12.0,,,,,,,,,,1.0,1.0,,,,5e80b109ca1800791e1ca40c,14:59:10,04/04/2024
,"<div style=""font-size: 10rem; color: #0000FF"">Y</div>",,ospan,letter,Biev3lfM0rXJIzwRFLdP9L2Lgcb2,html-keyboard-response,202,1150058,0.0-46.0-6.0-1.0-1.0-13.0,,,,,,,,,,,,,,,5e80b109ca1800791e1ca40c,14:59:10,04/04/2024
2645.0,,,ospan,symmetry,Biev3lfM0rXJIzwRFLdP9L2Lgcb2,symmetry-judgement-task,203,1154581,0.0-46.0-6.0-1.0-1.0-14.0,,,,,,,,,,1.0,1.0,,,,5e80b109ca1800791e1ca40c,14:59:10,04/04/2024
,"<div style=""font-size: 10rem; color: #0000FF"">N</div>",,ospan,letter,Biev3lfM0rXJIzwRFLdP9L2Lgcb2,html-keyboard-response,204,1155586,0.0-46.0-6.0-1.0-1.0-15.0,,,,,,,,,,,,,,,5e80b109ca1800791e1ca40c,14:59:10,04/04/2024
17141.300000000047,"<div class = numbox><p style=""font-size: 2.4rem"">Please recall the letters you saw to the best of your ability. If you do not remember a particular letter, use the SKIP button.<br><b>(When you are ready to lock in your answer, press ENTER)</b></p><button id = button_1 class = ""square num-button"" onclick = ""recordClick(this)""><div class = content><div class = numbers>C</div></div></button><button id = button_2 class = ""square num-button"" onclick = ""recordClick(this)""><div class = content><div class = numbers>G</div></div></button><button id = button_3 class = ""square num-button"" onclick = ""recordClick(this)""><div class = content><div class = numbers>H</div></div></button><button id = button_4 class = ""square num-button"" onclick = ""recordClick(this)""><div class = content><div class = numbers>J</div></div></button><button id = button_5 class = ""square num-button"" onclick = ""recordClick(this)""><div class = content><div class = numbers>K</div></div></button><button id = button_6 class = ""square num-button"" onclick = ""recordClick(this)""><div class = content><div class = numbers>L</div></div></button><button id = button_7 class = ""square num-button"" onclick = ""recordClick(this)""><div class = content><div class = numbers>N</div></div></button><button id = button_8 class = ""square num-button"" onclick = ""recordClick(this)""><div class = content><div class = numbers>P</div></div></button><button id = button_9 class = ""square num-button"" onclick = ""recordClick(this)""><div class = content><div class = numbers>Q</div></div></button><button id = button_10 class = ""square num-button"" onclick = ""recordClick(this)""><div class = content><div class = numbers>R</div></div></button><button id = button_11 class = ""square num-button"" onclick = ""recordClick(this)""><div class = content><div class = numbers>S</div></div></button><button id = button_12 class = ""square num-button"" onclick = ""recordClick(this)""><div class = content><div class = numbers>Y</div></div></button><button class = clear_button id = ""ClearButton"" onclick = ""clearResponse()"">BACKSPACE</button><button class = blank_button id = ""BlankButton"" onclick = ""blankResponse()"">SKIP</button><p style=""font-size: 2.4rem""><u><b>Current Answer:</b></u></p><br><br><div id=echoed_txt style=""font-size: 5rem; color:blue;""><b></b></div></div>",enter,ospan,retrieval,Biev3lfM0rXJIzwRFLdP9L2Lgcb2,html-keyboard-response,205,1173483,0.0-46.0-6.0-1.0-2.0,41,30,22,8.0,"[""K"",""H"",""L"",""J"",""P"",""_""]","[""K"",""H"",""L"",""R"",""G"",""P"",""Y"",""N""]",0.0,3.0,,,,,,,5e80b109ca1800791e1ca40c,14:59:10,04/04/2024
1529.7000000001863,[''],0,ospan,feedback,Biev3lfM0rXJIzwRFLdP9L2Lgcb2,html-button-response,206,1175515,0.0-46.0-6.0-1.0-3.0,,,,,,,,,,,,100.0,0.0,,5e80b109ca1800791e1ca40c,14:59:10,04/04/2024
12755.299999999814,,{'Q0': 'instructions were clear '},ospan,survey_ospan,Biev3lfM0rXJIzwRFLdP9L2Lgcb2,lmdlab-survey-text,207,1189032,0.0-46.0-7.0,,,,,,,,,,,,,,Biev3lfM0rXJIzwRFLdP9L2Lgcb2,5e80b109ca1800791e1ca40c,14:59:10,04/04/2024
1443.4000000001397,<p><p style='font-size: 3rem'>Great work!<br><br>This completes the symmetry and memory task.</p><br><br><br>,0,ospan,finish,Biev3lfM0rXJIzwRFLdP9L2Lgcb2,html-button-response,208,1190478,0.0-46.0-8.0,41,30,22,,,,,,,,,100.0,,,5e80b109ca1800791e1ca40c,14:59:10,04/04/2024
