rt,stimulus,response,exp_name,exp_stage,subjectID,trial_type,trial_index,time_elapsed,internal_node_id,ospan_shown,ospan_total,ospan_abs,length,resp_actual,resp_correct,full_correct,num_correct,feedback,accuracy,correct,math_acc,math_warning,databaseID,prolificID,start_time,date
1375.5999999996275,<div class = 'left_align' style='font-size: 3.25rem; line-height: 1.3;'><p class = 'center_align'><b>Welcome to the Symmetry and Memory Task</b><br><br><br><br></p>Press 'continue' to show the instructions.<br><br><br><br></div>,0,ospan,instruct,9NXGw8ADeLTW37tM81eueN0Amnd2,html-button-response,51,555842,0.0-43.0-0.0-0.0-0.0,,,,,,,,,,,,,,,5ee5defbfe74a3000d106f51,13:50:47,06/03/2024
4712.700000001118,"<div class = 'left_align' style='font-size: 3.25rem; line-height: 1.3;'><p class = 'center_align'><b>Symmetry and Memory Task</b><br><br></p>In this task, you will try to memorize letters you see on the screen<br>while you also view black and white grid pictures.<br><br>In the next few minutes, you will have some practice to get you familiar<br>with how the task works.<br><br>It may be difficult sometimes, but please do not worry about making mistakes!<br><br>We will begin by practicing the letter part of the task.<br><br><br><br></div>",0,ospan,instruct,9NXGw8ADeLTW37tM81eueN0Amnd2,html-button-response,52,560809,0.0-43.0-0.0-0.0-1.0,,,,,,,,,,,,,,,5ee5defbfe74a3000d106f51,13:50:47,06/03/2024
34730.40000000037,"<div class = 'left_align' style='font-size: 3.25rem; line-height: 1.3;'>For this practice part, letters will appear on the screen one at a time.<br><br>Try to remember each letter in the order presented.<br><br>After some letters have been shown, you will see a response screen. Your<br>goal is to report the letters you saw <b>in order</b>. If you do not remember<br>a particular letter, you will have the option to leave it blank.<br><br><br><br></div>",0,ospan,instruct,9NXGw8ADeLTW37tM81eueN0Amnd2,html-button-response,53,595793,0.0-43.0-0.0-0.0-2.0,,,,,,,,,,,,,,,5ee5defbfe74a3000d106f51,13:50:47,06/03/2024
15795.0,"<div class = 'left_align' style='font-size: 3.25rem; line-height: 1.3;'>Remember, it is very important to get the letters in the same<br>order as you see them.<br><br>When you are ready, you may begin the letter practice.</div><br><br><br><br>",0,ospan,instruct,9NXGw8ADeLTW37tM81eueN0Amnd2,html-button-response,54,611842,0.0-43.0-0.0-0.0-3.0,,,,,,,,,,,,,,,5ee5defbfe74a3000d106f51,13:50:47,06/03/2024
,"<p style=""font-size:75px;"">...</p>",,ospan,iti,9NXGw8ADeLTW37tM81eueN0Amnd2,html-keyboard-response,55,613097,0.0-43.0-0.0-1.0-0.0,,,,,,,,,,,,,,,5ee5defbfe74a3000d106f51,13:50:47,06/03/2024
,"<div style=""font-size: 10rem; color: #0000FF"">Q</div>",,ospan,letter,9NXGw8ADeLTW37tM81eueN0Amnd2,html-keyboard-response,56,614100,0.0-43.0-0.0-1.0-1.0,,,,,,,,,,,,,,,5ee5defbfe74a3000d106f51,13:50:47,06/03/2024
,"<div style=""font-size: 10rem; color: #0000FF"">N</div>",,ospan,letter,9NXGw8ADeLTW37tM81eueN0Amnd2,html-keyboard-response,57,615855,0.0-43.0-0.0-1.0-2.0,,,,,,,,,,,,,,,5ee5defbfe74a3000d106f51,13:50:47,06/03/2024
6235.0999999996275,"<div class = numbox><p style=""font-size: 2.4rem"">Please recall the letters you saw to the best of your ability. If you do not remember a particular letter, use the SKIP button.<br><b>(When you are ready to lock in your answer, press ENTER)</b></p><button id = button_1 class = ""square num-button"" onclick = ""recordClick(this)""><div class = content><div class = numbers>C</div></div></button><button id = button_2 class = ""square num-button"" onclick = ""recordClick(this)""><div class = content><div class = numbers>G</div></div></button><button id = button_3 class = ""square num-button"" onclick = ""recordClick(this)""><div class = content><div class = numbers>H</div></div></button><button id = button_4 class = ""square num-button"" onclick = ""recordClick(this)""><div class = content><div class = numbers>J</div></div></button><button id = button_5 class = ""square num-button"" onclick = ""recordClick(this)""><div class = content><div class = numbers>K</div></div></button><button id = button_6 class = ""square num-button"" onclick = ""recordClick(this)""><div class = content><div class = numbers>L</div></div></button><button id = button_7 class = ""square num-button"" onclick = ""recordClick(this)""><div class = content><div class = numbers>N</div></div></button><button id = button_8 class = ""square num-button"" onclick = ""recordClick(this)""><div class = content><div class = numbers>P</div></div></button><button id = button_9 class = ""square num-button"" onclick = ""recordClick(this)""><div class = content><div class = numbers>Q</div></div></button><button id = button_10 class = ""square num-button"" onclick = ""recordClick(this)""><div class = content><div class = numbers>R</div></div></button><button id = button_11 class = ""square num-button"" onclick = ""recordClick(this)""><div class = content><div class = numbers>S</div></div></button><button id = button_12 class = ""square num-button"" onclick = ""recordClick(this)""><div class = content><div class = numbers>Y</div></div></button><button class = clear_button id = ""ClearButton"" onclick = ""clearResponse()"">BACKSPACE</button><button class = blank_button id = ""BlankButton"" onclick = ""blankResponse()"">SKIP</button><p style=""font-size: 2.4rem""><u><b>Current Answer:</b></u></p><br><br><div id=echoed_txt style=""font-size: 5rem; color:blue;""><b></b></div></div>",enter,ospan,retrieval,9NXGw8ADeLTW37tM81eueN0Amnd2,html-keyboard-response,58,622844,0.0-43.0-0.0-1.0-3.0,NA,NA,NA,2.0,"[""Q"",""N""]","[""Q"",""N""]",1.0,2.0,"['<font color=""green"">Q</font>', '<font color=""green"">N</font>']",,,,,,5ee5defbfe74a3000d106f51,13:50:47,06/03/2024
2525.0999999996275,"['<p style=""font-size:44px"">Letters:<br><br><br><font color=""green"">Q</font> <font color=""green"">N</font></p><br><br>']",0,ospan,practice_feedback,9NXGw8ADeLTW37tM81eueN0Amnd2,html-button-response,59,625875,0.0-43.0-0.0-1.0-4.0,,,,,,,,,,,,,,,5ee5defbfe74a3000d106f51,13:50:47,06/03/2024
,"<p style=""font-size:75px;"">...</p>",,ospan,iti,9NXGw8ADeLTW37tM81eueN0Amnd2,html-keyboard-response,60,626879,0.0-43.0-0.0-2.0-0.0,,,,,,,,,,,,,,,5ee5defbfe74a3000d106f51,13:50:47,06/03/2024
,"<div style=""font-size: 10rem; color: #0000FF"">Q</div>",,ospan,letter,9NXGw8ADeLTW37tM81eueN0Amnd2,html-keyboard-response,61,627882,0.0-43.0-0.0-2.0-1.0,,,,,,,,,,,,,,,5ee5defbfe74a3000d106f51,13:50:47,06/03/2024
,"<div style=""font-size: 10rem; color: #0000FF"">J</div>",,ospan,letter,9NXGw8ADeLTW37tM81eueN0Amnd2,html-keyboard-response,62,629634,0.0-43.0-0.0-2.0-2.0,,,,,,,,,,,,,,,5ee5defbfe74a3000d106f51,13:50:47,06/03/2024
,"<div style=""font-size: 10rem; color: #0000FF"">G</div>",,ospan,letter,9NXGw8ADeLTW37tM81eueN0Amnd2,html-keyboard-response,63,631386,0.0-43.0-0.0-2.0-3.0,,,,,,,,,,,,,,,5ee5defbfe74a3000d106f51,13:50:47,06/03/2024
4709.799999998882,"<div class = numbox><p style=""font-size: 2.4rem"">Please recall the letters you saw to the best of your ability. If you do not remember a particular letter, use the SKIP button.<br><b>(When you are ready to lock in your answer, press ENTER)</b></p><button id = button_1 class = ""square num-button"" onclick = ""recordClick(this)""><div class = content><div class = numbers>C</div></div></button><button id = button_2 class = ""square num-button"" onclick = ""recordClick(this)""><div class = content><div class = numbers>G</div></div></button><button id = button_3 class = ""square num-button"" onclick = ""recordClick(this)""><div class = content><div class = numbers>H</div></div></button><button id = button_4 class = ""square num-button"" onclick = ""recordClick(this)""><div class = content><div class = numbers>J</div></div></button><button id = button_5 class = ""square num-button"" onclick = ""recordClick(this)""><div class = content><div class = numbers>K</div></div></button><button id = button_6 class = ""square num-button"" onclick = ""recordClick(this)""><div class = content><div class = numbers>L</div></div></button><button id = button_7 class = ""square num-button"" onclick = ""recordClick(this)""><div class = content><div class = numbers>N</div></div></button><button id = button_8 class = ""square num-button"" onclick = ""recordClick(this)""><div class = content><div class = numbers>P</div></div></button><button id = button_9 class = ""square num-button"" onclick = ""recordClick(this)""><div class = content><div class = numbers>Q</div></div></button><button id = button_10 class = ""square num-button"" onclick = ""recordClick(this)""><div class = content><div class = numbers>R</div></div></button><button id = button_11 class = ""square num-button"" onclick = ""recordClick(this)""><div class = content><div class = numbers>S</div></div></button><button id = button_12 class = ""square num-button"" onclick = ""recordClick(this)""><div class = content><div class = numbers>Y</div></div></button><button class = clear_button id = ""ClearButton"" onclick = ""clearResponse()"">BACKSPACE</button><button class = blank_button id = ""BlankButton"" onclick = ""blankResponse()"">SKIP</button><p style=""font-size: 2.4rem""><u><b>Current Answer:</b></u></p><br><br><div id=echoed_txt style=""font-size: 5rem; color:blue;""><b></b></div></div>",enter,ospan,retrieval,9NXGw8ADeLTW37tM81eueN0Amnd2,html-keyboard-response,64,636850,0.0-43.0-0.0-2.0-4.0,NA,NA,NA,3.0,"[""Q"",""J"",""G""]","[""Q"",""J"",""G""]",1.0,3.0,"['<font color=""green"">Q</font>', '<font color=""green"">J</font>', '<font color=""green"">G</font>']",,,,,,5ee5defbfe74a3000d106f51,13:50:47,06/03/2024
3023.2999999988824,"['<p style=""font-size:44px"">Letters:<br><br><br><font color=""green"">Q</font> <font color=""green"">J</font> <font color=""green"">G</font></p><br><br>']",0,ospan,practice_feedback,9NXGw8ADeLTW37tM81eueN0Amnd2,html-button-response,65,640376,0.0-43.0-0.0-2.0-5.0,,,,,,,,,,,,,,,5ee5defbfe74a3000d106f51,13:50:47,06/03/2024
3347.0,"<div class = 'left_align' style='font-size: 3.25rem; line-height: 1.3;'>Now you will practice doing the <b>symmetry judgment part</b> of the experiment.<br><br>A black and white grid picture will appear on the screen and you have to judge if it is <br>symmetrical or asymetrical.<br><br>A picture is 'mirror' symmetrical if its left half is identical to the right half when flipped.<br>Here are examples of a symmetrical and an asymetrical picture:<br><br><center><img src='Stimuli/img/symm_instructions_extra.png' style='height:420px; width:900'></img></center><br>To judge symmetry, imagine you were to fold each picture down the middle, like a book –<br>would the left half match the right half when folded onto each other?<br><br></div><br>",0,ospan,instruct,9NXGw8ADeLTW37tM81eueN0Amnd2,html-button-response,66,643725,0.0-43.0-1.0-0.0-0.0,,,,,,,,,,,,,,,5ee5defbfe74a3000d106f51,13:50:47,06/03/2024
2112.699999999255,"<div class = 'left_align' style='font-size: 3.25rem; line-height: 1.3;'>When you have viewed the picture and determined whether it is symmetrical or not,<br>you can <b>click the Yes or No button</b> below to answer.<br><br>If you take longer than 15 seconds, it will continue automatically<br>and record the answer as an error.</div><br>",0,ospan,instruct,9NXGw8ADeLTW37tM81eueN0Amnd2,html-button-response,67,646091,0.0-43.0-1.0-0.0-1.0,,,,,,,,,,,,,,,5ee5defbfe74a3000d106f51,13:50:47,06/03/2024
1064.300000000745,"<div class = 'left_align' style='font-size: 3.25rem; line-height: 1.3;'>It is <b>very</b> important that you make the symmetry judgment correctly.<br><br>It is also important that you try and judge the picture as quickly as you can.<br><br>When you are ready, click on the button below to try some practice problems.</div><br><br><br><br>",0,ospan,instruct,9NXGw8ADeLTW37tM81eueN0Amnd2,html-button-response,68,647408,0.0-43.0-1.0-0.0-2.0,,,,,,,,,,,,,,,5ee5defbfe74a3000d106f51,13:50:47,06/03/2024
1914.0,,,ospan,symmetry,9NXGw8ADeLTW37tM81eueN0Amnd2,symmetry-judgement-task,69,650110,0.0-43.0-1.0-1.0-0.0,,,,,,,,,,1.0,1.0,,,,5ee5defbfe74a3000d106f51,13:50:47,06/03/2024
,"<p style=""color:green; font-size: 35px"">Correct</p>",,ospan,feedback,9NXGw8ADeLTW37tM81eueN0Amnd2,html-keyboard-response,70,650863,0.0-43.0-1.0-1.0-1.0,,,,,,,,,,,,,,,5ee5defbfe74a3000d106f51,13:50:47,06/03/2024
1336.0,,,ospan,symmetry,9NXGw8ADeLTW37tM81eueN0Amnd2,symmetry-judgement-task,71,654795,0.0-43.0-1.0-1.0-2.0,,,,,,,,,,1.0,1.0,,,,5ee5defbfe74a3000d106f51,13:50:47,06/03/2024
,"<p style=""color:green; font-size: 35px"">Correct</p>",,ospan,feedback,9NXGw8ADeLTW37tM81eueN0Amnd2,html-keyboard-response,72,655548,0.0-43.0-1.0-1.0-3.0,,,,,,,,,,,,,,,5ee5defbfe74a3000d106f51,13:50:47,06/03/2024
1335.0,,,ospan,symmetry,9NXGw8ADeLTW37tM81eueN0Amnd2,symmetry-judgement-task,73,659477,0.0-43.0-1.0-1.0-4.0,,,,,,,,,,1.0,1.0,,,,5ee5defbfe74a3000d106f51,13:50:47,06/03/2024
,"<p style=""color:green; font-size: 35px"">Correct</p>",,ospan,feedback,9NXGw8ADeLTW37tM81eueN0Amnd2,html-keyboard-response,74,660229,0.0-43.0-1.0-1.0-5.0,,,,,,,,,,,,,,,5ee5defbfe74a3000d106f51,13:50:47,06/03/2024
1358.9000000003725,"<p style=""font-size: 3rem;"">You responded correctly on 3 of 3 symmetry judgments. Good job!</p><br><br>",0,ospan,practice,9NXGw8ADeLTW37tM81eueN0Amnd2,html-button-response,75,663592,0.0-43.0-1.0-2.0,,,,,,,,,,,,,,,5ee5defbfe74a3000d106f51,13:50:47,06/03/2024
1479.7000000011176,"<div class = 'left_align' style='font-size: 3.25rem; line-height: 1.3;'>Now you will practice doing both parts of the experiment at the same time.<br><br>In the next practice set, you will be given one grid picture to judge.<br>Then letter will appear on the screen. Try to remember the letter.<br><br>It is <b>very important</b> to make the symmetry judgment as quickly and accurately as possible.<br><br>Just as before, once you have make the symmetry judgment, you can click Yes or No.<br><b>Note that you will no longer see Correct or Incorrect feedback.</div><br><br><br><br>",0,ospan,instruct,9NXGw8ADeLTW37tM81eueN0Amnd2,html-button-response,76,665325,0.0-43.0-2.0-0.0-0.0,,,,,,,,,,,,,,,5ee5defbfe74a3000d106f51,13:50:47,06/03/2024
1896.0,"<div class = 'left_align' style='font-size: 3.25rem; line-height: 1.3;'>After the letter goes away, another grid picture will appear, and then<br>another letter.<br><br>At the end of each set of letters and grids, you will recall the letters to the best<br>of your ability. Remember, try your best to get the letters in the correct order.<br><br>It is important to <b>quickly</b> and <b>accurately</b> make the symmetry judgments.</div><br><br><br><br>",0,ospan,instruct,9NXGw8ADeLTW37tM81eueN0Amnd2,html-button-response,77,667475,0.0-43.0-2.0-0.0-1.0,,,,,,,,,,,,,,,5ee5defbfe74a3000d106f51,13:50:47,06/03/2024
3379.699999999255,"<div class = 'left_align' style='font-size: 3.25rem; line-height: 1.3;'>On the feedback screen, if you are not doing well at the symmetry judgments,<br>you will also see a warning in the middle. This indicates your percent <br>correct for the grid pictures for the entire experiment.<br><br>It is <b>very</b> important for you to keep accuracy at least at 85%: <u>We can only use<br>data where the participant was at least 85% accurate on the judgments.</u> Therefore,<br> please try your best to perform well on the symmetry judgments, <b>at the same time</b><br>doing your best to recall as many letters as possible.<br><br>Click the button to try some practice problems.</div><br><br><br><br>",0,ospan,instruct,9NXGw8ADeLTW37tM81eueN0Amnd2,html-button-response,78,671109,0.0-43.0-2.0-0.0-2.0,,,,,,,,,,,,,,,5ee5defbfe74a3000d106f51,13:50:47,06/03/2024
,"<p style=""font-size:75px;"">...</p>",,ospan,iti,9NXGw8ADeLTW37tM81eueN0Amnd2,html-keyboard-response,79,672364,0.0-43.0-2.0-1.0-0.0,,,,,,,,,,,,,,,5ee5defbfe74a3000d106f51,13:50:47,06/03/2024
1748.0,,,ospan,symmetry,9NXGw8ADeLTW37tM81eueN0Amnd2,symmetry-judgement-task,80,675144,0.0-43.0-2.0-1.0-1.0-0.0,,,,,,,,,,0.0,0.0,,,,5ee5defbfe74a3000d106f51,13:50:47,06/03/2024
,"<div style=""font-size: 10rem; color: #0000FF"">R</div>",,ospan,letter,9NXGw8ADeLTW37tM81eueN0Amnd2,html-keyboard-response,81,676147,0.0-43.0-2.0-1.0-1.0-1.0,,,,,,,,,,,,,,,5ee5defbfe74a3000d106f51,13:50:47,06/03/2024
2530.0,,,ospan,symmetry,9NXGw8ADeLTW37tM81eueN0Amnd2,symmetry-judgement-task,82,680511,0.0-43.0-2.0-1.0-1.0-2.0,,,,,,,,,,0.0,0.0,,,,5ee5defbfe74a3000d106f51,13:50:47,06/03/2024
,"<div style=""font-size: 10rem; color: #0000FF"">P</div>",,ospan,letter,9NXGw8ADeLTW37tM81eueN0Amnd2,html-keyboard-response,83,681515,0.0-43.0-2.0-1.0-1.0-3.0,,,,,,,,,,,,,,,5ee5defbfe74a3000d106f51,13:50:47,06/03/2024
3173.0,,,ospan,symmetry,9NXGw8ADeLTW37tM81eueN0Amnd2,symmetry-judgement-task,84,686527,0.0-43.0-2.0-1.0-1.0-4.0,,,,,,,,,,0.0,0.0,,,,5ee5defbfe74a3000d106f51,13:50:47,06/03/2024
,"<div style=""font-size: 10rem; color: #0000FF"">C</div>",,ospan,letter,9NXGw8ADeLTW37tM81eueN0Amnd2,html-keyboard-response,85,687530,0.0-43.0-2.0-1.0-1.0-5.0,,,,,,,,,,,,,,,5ee5defbfe74a3000d106f51,13:50:47,06/03/2024
3594.300000000745,"<div class = numbox><p style=""font-size: 2.4rem"">Please recall the letters you saw to the best of your ability. If you do not remember a particular letter, use the SKIP button.<br><b>(When you are ready to lock in your answer, press ENTER)</b></p><button id = button_1 class = ""square num-button"" onclick = ""recordClick(this)""><div class = content><div class = numbers>C</div></div></button><button id = button_2 class = ""square num-button"" onclick = ""recordClick(this)""><div class = content><div class = numbers>G</div></div></button><button id = button_3 class = ""square num-button"" onclick = ""recordClick(this)""><div class = content><div class = numbers>H</div></div></button><button id = button_4 class = ""square num-button"" onclick = ""recordClick(this)""><div class = content><div class = numbers>J</div></div></button><button id = button_5 class = ""square num-button"" onclick = ""recordClick(this)""><div class = content><div class = numbers>K</div></div></button><button id = button_6 class = ""square num-button"" onclick = ""recordClick(this)""><div class = content><div class = numbers>L</div></div></button><button id = button_7 class = ""square num-button"" onclick = ""recordClick(this)""><div class = content><div class = numbers>N</div></div></button><button id = button_8 class = ""square num-button"" onclick = ""recordClick(this)""><div class = content><div class = numbers>P</div></div></button><button id = button_9 class = ""square num-button"" onclick = ""recordClick(this)""><div class = content><div class = numbers>Q</div></div></button><button id = button_10 class = ""square num-button"" onclick = ""recordClick(this)""><div class = content><div class = numbers>R</div></div></button><button id = button_11 class = ""square num-button"" onclick = ""recordClick(this)""><div class = content><div class = numbers>S</div></div></button><button id = button_12 class = ""square num-button"" onclick = ""recordClick(this)""><div class = content><div class = numbers>Y</div></div></button><button class = clear_button id = ""ClearButton"" onclick = ""clearResponse()"">BACKSPACE</button><button class = blank_button id = ""BlankButton"" onclick = ""blankResponse()"">SKIP</button><p style=""font-size: 2.4rem""><u><b>Current Answer:</b></u></p><br><br><div id=echoed_txt style=""font-size: 5rem; color:blue;""><b></b></div></div>",enter,ospan,retrieval,9NXGw8ADeLTW37tM81eueN0Amnd2,html-keyboard-response,86,691878,0.0-43.0-2.0-1.0-2.0-0.0,NA,NA,NA,3.0,"[""R"",""P"",""C""]","[""R"",""P"",""C""]",1.0,3.0,"['<font color=""green"">R</font>', '<font color=""green"">P</font>', '<font color=""green"">C</font>']",,,,,,5ee5defbfe74a3000d106f51,13:50:47,06/03/2024
2760.300000000745,"['<p style=""font-size:44px"">Letters:<br><br><br><font color=""green"">R</font> <font color=""green"">P</font> <font color=""green"">C</font></p><br><br><p style=""font-size:30px"">Symmetry:<br><br><font color=""red"">0%</font></p><br><br>']",0,ospan,practice_feedback,9NXGw8ADeLTW37tM81eueN0Amnd2,html-button-response,87,695142,0.0-43.0-2.0-1.0-2.0-1.0,,,,,,,,,,,,,,,5ee5defbfe74a3000d106f51,13:50:47,06/03/2024
,"<p style=""font-size:75px;"">...</p>",,ospan,iti,9NXGw8ADeLTW37tM81eueN0Amnd2,html-keyboard-response,88,696147,0.0-43.0-2.0-2.0-0.0,,,,,,,,,,,,,,,5ee5defbfe74a3000d106f51,13:50:47,06/03/2024
2701.0,,,ospan,symmetry,9NXGw8ADeLTW37tM81eueN0Amnd2,symmetry-judgement-task,89,699945,0.0-43.0-2.0-2.0-1.0-0.0,,,,,,,,,,1.0,1.0,,,,5ee5defbfe74a3000d106f51,13:50:47,06/03/2024
,"<div style=""font-size: 10rem; color: #0000FF"">N</div>",,ospan,letter,9NXGw8ADeLTW37tM81eueN0Amnd2,html-keyboard-response,90,700948,0.0-43.0-2.0-2.0-1.0-1.0,,,,,,,,,,,,,,,5ee5defbfe74a3000d106f51,13:50:47,06/03/2024
3839.0,,,ospan,symmetry,9NXGw8ADeLTW37tM81eueN0Amnd2,symmetry-judgement-task,91,706627,0.0-43.0-2.0-2.0-1.0-2.0,,,,,,,,,,1.0,1.0,,,,5ee5defbfe74a3000d106f51,13:50:47,06/03/2024
,"<div style=""font-size: 10rem; color: #0000FF"">S</div>",,ospan,letter,9NXGw8ADeLTW37tM81eueN0Amnd2,html-keyboard-response,92,707630,0.0-43.0-2.0-2.0-1.0-3.0,,,,,,,,,,,,,,,5ee5defbfe74a3000d106f51,13:50:47,06/03/2024
3997.0,,,ospan,symmetry,9NXGw8ADeLTW37tM81eueN0Amnd2,symmetry-judgement-task,93,713461,0.0-43.0-2.0-2.0-1.0-4.0,,,,,,,,,,1.0,1.0,,,,5ee5defbfe74a3000d106f51,13:50:47,06/03/2024
,"<div style=""font-size: 10rem; color: #0000FF"">G</div>",,ospan,letter,9NXGw8ADeLTW37tM81eueN0Amnd2,html-keyboard-response,94,714465,0.0-43.0-2.0-2.0-1.0-5.0,,,,,,,,,,,,,,,5ee5defbfe74a3000d106f51,13:50:47,06/03/2024
2413.10000000149,"<div class = numbox><p style=""font-size: 2.4rem"">Please recall the letters you saw to the best of your ability. If you do not remember a particular letter, use the SKIP button.<br><b>(When you are ready to lock in your answer, press ENTER)</b></p><button id = button_1 class = ""square num-button"" onclick = ""recordClick(this)""><div class = content><div class = numbers>C</div></div></button><button id = button_2 class = ""square num-button"" onclick = ""recordClick(this)""><div class = content><div class = numbers>G</div></div></button><button id = button_3 class = ""square num-button"" onclick = ""recordClick(this)""><div class = content><div class = numbers>H</div></div></button><button id = button_4 class = ""square num-button"" onclick = ""recordClick(this)""><div class = content><div class = numbers>J</div></div></button><button id = button_5 class = ""square num-button"" onclick = ""recordClick(this)""><div class = content><div class = numbers>K</div></div></button><button id = button_6 class = ""square num-button"" onclick = ""recordClick(this)""><div class = content><div class = numbers>L</div></div></button><button id = button_7 class = ""square num-button"" onclick = ""recordClick(this)""><div class = content><div class = numbers>N</div></div></button><button id = button_8 class = ""square num-button"" onclick = ""recordClick(this)""><div class = content><div class = numbers>P</div></div></button><button id = button_9 class = ""square num-button"" onclick = ""recordClick(this)""><div class = content><div class = numbers>Q</div></div></button><button id = button_10 class = ""square num-button"" onclick = ""recordClick(this)""><div class = content><div class = numbers>R</div></div></button><button id = button_11 class = ""square num-button"" onclick = ""recordClick(this)""><div class = content><div class = numbers>S</div></div></button><button id = button_12 class = ""square num-button"" onclick = ""recordClick(this)""><div class = content><div class = numbers>Y</div></div></button><button class = clear_button id = ""ClearButton"" onclick = ""clearResponse()"">BACKSPACE</button><button class = blank_button id = ""BlankButton"" onclick = ""blankResponse()"">SKIP</button><p style=""font-size: 2.4rem""><u><b>Current Answer:</b></u></p><br><br><div id=echoed_txt style=""font-size: 5rem; color:blue;""><b></b></div></div>",enter,ospan,retrieval,9NXGw8ADeLTW37tM81eueN0Amnd2,html-keyboard-response,95,717631,0.0-43.0-2.0-2.0-2.0-0.0,NA,NA,NA,3.0,"[""N"",""S"",""G""]","[""N"",""S"",""G""]",1.0,3.0,"['<font color=""green"">N</font>', '<font color=""green"">S</font>', '<font color=""green"">G</font>']",,,,,,5ee5defbfe74a3000d106f51,13:50:47,06/03/2024
1274.4000000003725,"['<p style=""font-size:44px"">Letters:<br><br><br><font color=""green"">N</font> <font color=""green"">S</font> <font color=""green"">G</font></p><br><br><p style=""font-size:30px"">Symmetry:<br><br><font color=""red"">50%</font></p><br><br>']",0,ospan,practice_feedback,9NXGw8ADeLTW37tM81eueN0Amnd2,html-button-response,96,719409,0.0-43.0-2.0-2.0-2.0-1.0,,,,,,,,,,,,,,,5ee5defbfe74a3000d106f51,13:50:47,06/03/2024
5997.0999999996275,"<div class = 'left_align' style='font-size: 3rem; line-height: 1.3;'><b>Great work! That is the end of practice.</b><br><br>The real trials will look just like the practice trials you just completed.<br><br><u>Here, you will not see feedback</u>. First, you will see an grid picture to judge,<br>then a letter to remember. When the recall screen appears, report the letters in the<br>order presented. If you forget a letter, remember to use the <b>blank</b> button to move to the<br>next letter. Some of the sets will have more symmetry grids and letters than others.<br><br>It is important that you do your best on both the symmetry judgments and the letter recall<br>parts of the experiment. For for the symmetry judgments, try to work as <b>quickly</b> and <br>as <b>accurately</b> as possible. Remember to keep your symmetry accuracy at 85% or above.<br><br><b>For the letters, do NOT use any external aid (e.g., writing on paper, electronic device).</b><br><br>It is <u>very important</u> to our experiment to have a <b>true</b> view of your real performance.<br><br>Do not worry if you miss some when it gets hard! This task is meant to be very challenging!<br><br>Click the button to begin.</div><br><br><br><br>",0,ospan,starting_real_here,9NXGw8ADeLTW37tM81eueN0Amnd2,html-button-response,97,725409,0.0-43.0-2.0-3.0,,,,,,,,,,,,,,,5ee5defbfe74a3000d106f51,13:50:47,06/03/2024
,"<p style=""font-size:75px;"">...</p>",,ospan,iti,9NXGw8ADeLTW37tM81eueN0Amnd2,html-keyboard-response,98,726664,0.0-43.0-3.0-0.0-0.0,,,,,,,,,,,,,,,5ee5defbfe74a3000d106f51,13:50:47,06/03/2024
2653.0,,,ospan,symmetry,9NXGw8ADeLTW37tM81eueN0Amnd2,symmetry-judgement-task,99,730411,0.0-43.0-3.0-0.0-1.0-0.0,,,,,,,,,,1.0,1.0,,,,5ee5defbfe74a3000d106f51,13:50:47,06/03/2024
,"<div style=""font-size: 10rem; color: #0000FF"">G</div>",,ospan,letter,9NXGw8ADeLTW37tM81eueN0Amnd2,html-keyboard-response,100,731414,0.0-43.0-3.0-0.0-1.0-1.0,,,,,,,,,,,,,,,5ee5defbfe74a3000d106f51,13:50:47,06/03/2024
915.0,,,ospan,symmetry,9NXGw8ADeLTW37tM81eueN0Amnd2,symmetry-judgement-task,101,734178,0.0-43.0-3.0-0.0-1.0-2.0,,,,,,,,,,1.0,1.0,,,,5ee5defbfe74a3000d106f51,13:50:47,06/03/2024
,"<div style=""font-size: 10rem; color: #0000FF"">C</div>",,ospan,letter,9NXGw8ADeLTW37tM81eueN0Amnd2,html-keyboard-response,102,735181,0.0-43.0-3.0-0.0-1.0-3.0,,,,,,,,,,,,,,,5ee5defbfe74a3000d106f51,13:50:47,06/03/2024
1419.0,,,ospan,symmetry,9NXGw8ADeLTW37tM81eueN0Amnd2,symmetry-judgement-task,103,738427,0.0-43.0-3.0-0.0-1.0-4.0,,,,,,,,,,0.0,0.0,,,,5ee5defbfe74a3000d106f51,13:50:47,06/03/2024
,"<div style=""font-size: 10rem; color: #0000FF"">S</div>",,ospan,letter,9NXGw8ADeLTW37tM81eueN0Amnd2,html-keyboard-response,104,739429,0.0-43.0-3.0-0.0-1.0-5.0,,,,,,,,,,,,,,,5ee5defbfe74a3000d106f51,13:50:47,06/03/2024
3040.9000000003725,"<div class = numbox><p style=""font-size: 2.4rem"">Please recall the letters you saw to the best of your ability. If you do not remember a particular letter, use the SKIP button.<br><b>(When you are ready to lock in your answer, press ENTER)</b></p><button id = button_1 class = ""square num-button"" onclick = ""recordClick(this)""><div class = content><div class = numbers>C</div></div></button><button id = button_2 class = ""square num-button"" onclick = ""recordClick(this)""><div class = content><div class = numbers>G</div></div></button><button id = button_3 class = ""square num-button"" onclick = ""recordClick(this)""><div class = content><div class = numbers>H</div></div></button><button id = button_4 class = ""square num-button"" onclick = ""recordClick(this)""><div class = content><div class = numbers>J</div></div></button><button id = button_5 class = ""square num-button"" onclick = ""recordClick(this)""><div class = content><div class = numbers>K</div></div></button><button id = button_6 class = ""square num-button"" onclick = ""recordClick(this)""><div class = content><div class = numbers>L</div></div></button><button id = button_7 class = ""square num-button"" onclick = ""recordClick(this)""><div class = content><div class = numbers>N</div></div></button><button id = button_8 class = ""square num-button"" onclick = ""recordClick(this)""><div class = content><div class = numbers>P</div></div></button><button id = button_9 class = ""square num-button"" onclick = ""recordClick(this)""><div class = content><div class = numbers>Q</div></div></button><button id = button_10 class = ""square num-button"" onclick = ""recordClick(this)""><div class = content><div class = numbers>R</div></div></button><button id = button_11 class = ""square num-button"" onclick = ""recordClick(this)""><div class = content><div class = numbers>S</div></div></button><button id = button_12 class = ""square num-button"" onclick = ""recordClick(this)""><div class = content><div class = numbers>Y</div></div></button><button class = clear_button id = ""ClearButton"" onclick = ""clearResponse()"">BACKSPACE</button><button class = blank_button id = ""BlankButton"" onclick = ""blankResponse()"">SKIP</button><p style=""font-size: 2.4rem""><u><b>Current Answer:</b></u></p><br><br><div id=echoed_txt style=""font-size: 5rem; color:blue;""><b></b></div></div>",enter,ospan,retrieval,9NXGw8ADeLTW37tM81eueN0Amnd2,html-keyboard-response,105,743224,0.0-43.0-3.0-0.0-2.0,3,3,3,3.0,"[""G"",""C"",""S""]","[""G"",""C"",""S""]",1.0,3.0,,,,,,,5ee5defbfe74a3000d106f51,13:50:47,06/03/2024
3363.9000000003725,"['<p style=""font-size: 3.75rem"">Low symmetry accuracy!<br><br><br><font color=""red"">67%</font><br><br></p>']",0,ospan,feedback,9NXGw8ADeLTW37tM81eueN0Amnd2,html-button-response,106,747091,0.0-43.0-3.0-0.0-3.0,,,,,,,,,,,,67.0,1.0,,5ee5defbfe74a3000d106f51,13:50:47,06/03/2024
,"<p style=""font-size:75px;"">...</p>",,ospan,iti,9NXGw8ADeLTW37tM81eueN0Amnd2,html-keyboard-response,107,748094,0.0-43.0-4.0-0.0-0.0,,,,,,,,,,,,,,,5ee5defbfe74a3000d106f51,13:50:47,06/03/2024
4237.0,,,ospan,symmetry,9NXGw8ADeLTW37tM81eueN0Amnd2,symmetry-judgement-task,108,753361,0.0-43.0-4.0-0.0-1.0-0.0,,,,,,,,,,1.0,1.0,,,,5ee5defbfe74a3000d106f51,13:50:47,06/03/2024
,"<div style=""font-size: 10rem; color: #0000FF"">P</div>",,ospan,letter,9NXGw8ADeLTW37tM81eueN0Amnd2,html-keyboard-response,109,754365,0.0-43.0-4.0-0.0-1.0-1.0,,,,,,,,,,,,,,,5ee5defbfe74a3000d106f51,13:50:47,06/03/2024
1295.0,,,ospan,symmetry,9NXGw8ADeLTW37tM81eueN0Amnd2,symmetry-judgement-task,110,757510,0.0-43.0-4.0-0.0-1.0-2.0,,,,,,,,,,1.0,1.0,,,,5ee5defbfe74a3000d106f51,13:50:47,06/03/2024
,"<div style=""font-size: 10rem; color: #0000FF"">K</div>",,ospan,letter,9NXGw8ADeLTW37tM81eueN0Amnd2,html-keyboard-response,111,758513,0.0-43.0-4.0-0.0-1.0-3.0,,,,,,,,,,,,,,,5ee5defbfe74a3000d106f51,13:50:47,06/03/2024
2810.0,,,ospan,symmetry,9NXGw8ADeLTW37tM81eueN0Amnd2,symmetry-judgement-task,112,763178,0.0-43.0-4.0-0.0-1.0-4.0,,,,,,,,,,1.0,1.0,,,,5ee5defbfe74a3000d106f51,13:50:47,06/03/2024
,"<div style=""font-size: 10rem; color: #0000FF"">C</div>",,ospan,letter,9NXGw8ADeLTW37tM81eueN0Amnd2,html-keyboard-response,113,764182,0.0-43.0-4.0-0.0-1.0-5.0,,,,,,,,,,,,,,,5ee5defbfe74a3000d106f51,13:50:47,06/03/2024
2349.0,,,ospan,symmetry,9NXGw8ADeLTW37tM81eueN0Amnd2,symmetry-judgement-task,114,768361,0.0-43.0-4.0-0.0-1.0-6.0,,,,,,,,,,1.0,1.0,,,,5ee5defbfe74a3000d106f51,13:50:47,06/03/2024
,"<div style=""font-size: 10rem; color: #0000FF"">H</div>",,ospan,letter,9NXGw8ADeLTW37tM81eueN0Amnd2,html-keyboard-response,115,769364,0.0-43.0-4.0-0.0-1.0-7.0,,,,,,,,,,,,,,,5ee5defbfe74a3000d106f51,13:50:47,06/03/2024
5290.699999999255,"<div class = numbox><p style=""font-size: 2.4rem"">Please recall the letters you saw to the best of your ability. If you do not remember a particular letter, use the SKIP button.<br><b>(When you are ready to lock in your answer, press ENTER)</b></p><button id = button_1 class = ""square num-button"" onclick = ""recordClick(this)""><div class = content><div class = numbers>C</div></div></button><button id = button_2 class = ""square num-button"" onclick = ""recordClick(this)""><div class = content><div class = numbers>G</div></div></button><button id = button_3 class = ""square num-button"" onclick = ""recordClick(this)""><div class = content><div class = numbers>H</div></div></button><button id = button_4 class = ""square num-button"" onclick = ""recordClick(this)""><div class = content><div class = numbers>J</div></div></button><button id = button_5 class = ""square num-button"" onclick = ""recordClick(this)""><div class = content><div class = numbers>K</div></div></button><button id = button_6 class = ""square num-button"" onclick = ""recordClick(this)""><div class = content><div class = numbers>L</div></div></button><button id = button_7 class = ""square num-button"" onclick = ""recordClick(this)""><div class = content><div class = numbers>N</div></div></button><button id = button_8 class = ""square num-button"" onclick = ""recordClick(this)""><div class = content><div class = numbers>P</div></div></button><button id = button_9 class = ""square num-button"" onclick = ""recordClick(this)""><div class = content><div class = numbers>Q</div></div></button><button id = button_10 class = ""square num-button"" onclick = ""recordClick(this)""><div class = content><div class = numbers>R</div></div></button><button id = button_11 class = ""square num-button"" onclick = ""recordClick(this)""><div class = content><div class = numbers>S</div></div></button><button id = button_12 class = ""square num-button"" onclick = ""recordClick(this)""><div class = content><div class = numbers>Y</div></div></button><button class = clear_button id = ""ClearButton"" onclick = ""clearResponse()"">BACKSPACE</button><button class = blank_button id = ""BlankButton"" onclick = ""blankResponse()"">SKIP</button><p style=""font-size: 2.4rem""><u><b>Current Answer:</b></u></p><br><br><div id=echoed_txt style=""font-size: 5rem; color:blue;""><b></b></div></div>",enter,ospan,retrieval,9NXGw8ADeLTW37tM81eueN0Amnd2,html-keyboard-response,116,775408,0.0-43.0-4.0-0.0-2.0,7,7,7,4.0,"[""P"",""K"",""C"",""H""]","[""P"",""K"",""C"",""H""]",1.0,4.0,,,,,,,5ee5defbfe74a3000d106f51,13:50:47,06/03/2024
1330.5999999996275,[''],0,ospan,feedback,9NXGw8ADeLTW37tM81eueN0Amnd2,html-button-response,117,777242,0.0-43.0-4.0-0.0-3.0,,,,,,,,,,,,86.0,0.0,,5ee5defbfe74a3000d106f51,13:50:47,06/03/2024
,"<p style=""font-size:75px;"">...</p>",,ospan,iti,9NXGw8ADeLTW37tM81eueN0Amnd2,html-keyboard-response,118,778246,0.0-43.0-4.0-1.0-0.0,,,,,,,,,,,,,,,5ee5defbfe74a3000d106f51,13:50:47,06/03/2024
2265.0,,,ospan,symmetry,9NXGw8ADeLTW37tM81eueN0Amnd2,symmetry-judgement-task,119,781544,0.0-43.0-4.0-1.0-1.0-0.0,,,,,,,,,,1.0,1.0,,,,5ee5defbfe74a3000d106f51,13:50:47,06/03/2024
,"<div style=""font-size: 10rem; color: #0000FF"">Q</div>",,ospan,letter,9NXGw8ADeLTW37tM81eueN0Amnd2,html-keyboard-response,120,782546,0.0-43.0-4.0-1.0-1.0-1.0,,,,,,,,,,,,,,,5ee5defbfe74a3000d106f51,13:50:47,06/03/2024
1985.0,,,ospan,symmetry,9NXGw8ADeLTW37tM81eueN0Amnd2,symmetry-judgement-task,121,786378,0.0-43.0-4.0-1.0-1.0-2.0,,,,,,,,,,1.0,1.0,,,,5ee5defbfe74a3000d106f51,13:50:47,06/03/2024
,"<div style=""font-size: 10rem; color: #0000FF"">S</div>",,ospan,letter,9NXGw8ADeLTW37tM81eueN0Amnd2,html-keyboard-response,122,787381,0.0-43.0-4.0-1.0-1.0-3.0,,,,,,,,,,,,,,,5ee5defbfe74a3000d106f51,13:50:47,06/03/2024
3135.0,,,ospan,symmetry,9NXGw8ADeLTW37tM81eueN0Amnd2,symmetry-judgement-task,123,792359,0.0-43.0-4.0-1.0-1.0-4.0,,,,,,,,,,1.0,1.0,,,,5ee5defbfe74a3000d106f51,13:50:47,06/03/2024
,"<div style=""font-size: 10rem; color: #0000FF"">N</div>",,ospan,letter,9NXGw8ADeLTW37tM81eueN0Amnd2,html-keyboard-response,124,793362,0.0-43.0-4.0-1.0-1.0-5.0,,,,,,,,,,,,,,,5ee5defbfe74a3000d106f51,13:50:47,06/03/2024
1474.0,,,ospan,symmetry,9NXGw8ADeLTW37tM81eueN0Amnd2,symmetry-judgement-task,125,796677,0.0-43.0-4.0-1.0-1.0-6.0,,,,,,,,,,1.0,1.0,,,,5ee5defbfe74a3000d106f51,13:50:47,06/03/2024
,"<div style=""font-size: 10rem; color: #0000FF"">P</div>",,ospan,letter,9NXGw8ADeLTW37tM81eueN0Amnd2,html-keyboard-response,126,797680,0.0-43.0-4.0-1.0-1.0-7.0,,,,,,,,,,,,,,,5ee5defbfe74a3000d106f51,13:50:47,06/03/2024
2465.0,,,ospan,symmetry,9NXGw8ADeLTW37tM81eueN0Amnd2,symmetry-judgement-task,127,801994,0.0-43.0-4.0-1.0-1.0-8.0,,,,,,,,,,1.0,1.0,,,,5ee5defbfe74a3000d106f51,13:50:47,06/03/2024
,"<div style=""font-size: 10rem; color: #0000FF"">Y</div>",,ospan,letter,9NXGw8ADeLTW37tM81eueN0Amnd2,html-keyboard-response,128,802997,0.0-43.0-4.0-1.0-1.0-9.0,,,,,,,,,,,,,,,5ee5defbfe74a3000d106f51,13:50:47,06/03/2024
5734.200000001118,"<div class = numbox><p style=""font-size: 2.4rem"">Please recall the letters you saw to the best of your ability. If you do not remember a particular letter, use the SKIP button.<br><b>(When you are ready to lock in your answer, press ENTER)</b></p><button id = button_1 class = ""square num-button"" onclick = ""recordClick(this)""><div class = content><div class = numbers>C</div></div></button><button id = button_2 class = ""square num-button"" onclick = ""recordClick(this)""><div class = content><div class = numbers>G</div></div></button><button id = button_3 class = ""square num-button"" onclick = ""recordClick(this)""><div class = content><div class = numbers>H</div></div></button><button id = button_4 class = ""square num-button"" onclick = ""recordClick(this)""><div class = content><div class = numbers>J</div></div></button><button id = button_5 class = ""square num-button"" onclick = ""recordClick(this)""><div class = content><div class = numbers>K</div></div></button><button id = button_6 class = ""square num-button"" onclick = ""recordClick(this)""><div class = content><div class = numbers>L</div></div></button><button id = button_7 class = ""square num-button"" onclick = ""recordClick(this)""><div class = content><div class = numbers>N</div></div></button><button id = button_8 class = ""square num-button"" onclick = ""recordClick(this)""><div class = content><div class = numbers>P</div></div></button><button id = button_9 class = ""square num-button"" onclick = ""recordClick(this)""><div class = content><div class = numbers>Q</div></div></button><button id = button_10 class = ""square num-button"" onclick = ""recordClick(this)""><div class = content><div class = numbers>R</div></div></button><button id = button_11 class = ""square num-button"" onclick = ""recordClick(this)""><div class = content><div class = numbers>S</div></div></button><button id = button_12 class = ""square num-button"" onclick = ""recordClick(this)""><div class = content><div class = numbers>Y</div></div></button><button class = clear_button id = ""ClearButton"" onclick = ""clearResponse()"">BACKSPACE</button><button class = blank_button id = ""BlankButton"" onclick = ""blankResponse()"">SKIP</button><p style=""font-size: 2.4rem""><u><b>Current Answer:</b></u></p><br><br><div id=echoed_txt style=""font-size: 5rem; color:blue;""><b></b></div></div>",enter,ospan,retrieval,9NXGw8ADeLTW37tM81eueN0Amnd2,html-keyboard-response,129,809485,0.0-43.0-4.0-1.0-2.0,12,12,12,5.0,"[""Q"",""S"",""N"",""P"",""Y""]","[""Q"",""S"",""N"",""P"",""Y""]",1.0,5.0,,,,,,,5ee5defbfe74a3000d106f51,13:50:47,06/03/2024
1321.5,[''],0,ospan,feedback,9NXGw8ADeLTW37tM81eueN0Amnd2,html-button-response,130,811309,0.0-43.0-4.0-1.0-3.0,,,,,,,,,,,,92.0,0.0,,5ee5defbfe74a3000d106f51,13:50:47,06/03/2024
,"<p style=""font-size:75px;"">...</p>",,ospan,iti,9NXGw8ADeLTW37tM81eueN0Amnd2,html-keyboard-response,131,812313,0.0-43.0-4.0-2.0-0.0,,,,,,,,,,,,,,,5ee5defbfe74a3000d106f51,13:50:47,06/03/2024
1885.0,,,ospan,symmetry,9NXGw8ADeLTW37tM81eueN0Amnd2,symmetry-judgement-task,132,815294,0.0-43.0-4.0-2.0-1.0-0.0,,,,,,,,,,1.0,1.0,,,,5ee5defbfe74a3000d106f51,13:50:47,06/03/2024
,"<div style=""font-size: 10rem; color: #0000FF"">R</div>",,ospan,letter,9NXGw8ADeLTW37tM81eueN0Amnd2,html-keyboard-response,133,816297,0.0-43.0-4.0-2.0-1.0-1.0,,,,,,,,,,,,,,,5ee5defbfe74a3000d106f51,13:50:47,06/03/2024
2301.0,,,ospan,symmetry,9NXGw8ADeLTW37tM81eueN0Amnd2,symmetry-judgement-task,134,820445,0.0-43.0-4.0-2.0-1.0-2.0,,,,,,,,,,1.0,1.0,,,,5ee5defbfe74a3000d106f51,13:50:47,06/03/2024
,"<div style=""font-size: 10rem; color: #0000FF"">H</div>",,ospan,letter,9NXGw8ADeLTW37tM81eueN0Amnd2,html-keyboard-response,135,821449,0.0-43.0-4.0-2.0-1.0-3.0,,,,,,,,,,,,,,,5ee5defbfe74a3000d106f51,13:50:47,06/03/2024
3948.0,,,ospan,symmetry,9NXGw8ADeLTW37tM81eueN0Amnd2,symmetry-judgement-task,136,827243,0.0-43.0-4.0-2.0-1.0-4.0,,,,,,,,,,1.0,1.0,,,,5ee5defbfe74a3000d106f51,13:50:47,06/03/2024
,"<div style=""font-size: 10rem; color: #0000FF"">S</div>",,ospan,letter,9NXGw8ADeLTW37tM81eueN0Amnd2,html-keyboard-response,137,828246,0.0-43.0-4.0-2.0-1.0-5.0,,,,,,,,,,,,,,,5ee5defbfe74a3000d106f51,13:50:47,06/03/2024
3327.800000000745,"<div class = numbox><p style=""font-size: 2.4rem"">Please recall the letters you saw to the best of your ability. If you do not remember a particular letter, use the SKIP button.<br><b>(When you are ready to lock in your answer, press ENTER)</b></p><button id = button_1 class = ""square num-button"" onclick = ""recordClick(this)""><div class = content><div class = numbers>C</div></div></button><button id = button_2 class = ""square num-button"" onclick = ""recordClick(this)""><div class = content><div class = numbers>G</div></div></button><button id = button_3 class = ""square num-button"" onclick = ""recordClick(this)""><div class = content><div class = numbers>H</div></div></button><button id = button_4 class = ""square num-button"" onclick = ""recordClick(this)""><div class = content><div class = numbers>J</div></div></button><button id = button_5 class = ""square num-button"" onclick = ""recordClick(this)""><div class = content><div class = numbers>K</div></div></button><button id = button_6 class = ""square num-button"" onclick = ""recordClick(this)""><div class = content><div class = numbers>L</div></div></button><button id = button_7 class = ""square num-button"" onclick = ""recordClick(this)""><div class = content><div class = numbers>N</div></div></button><button id = button_8 class = ""square num-button"" onclick = ""recordClick(this)""><div class = content><div class = numbers>P</div></div></button><button id = button_9 class = ""square num-button"" onclick = ""recordClick(this)""><div class = content><div class = numbers>Q</div></div></button><button id = button_10 class = ""square num-button"" onclick = ""recordClick(this)""><div class = content><div class = numbers>R</div></div></button><button id = button_11 class = ""square num-button"" onclick = ""recordClick(this)""><div class = content><div class = numbers>S</div></div></button><button id = button_12 class = ""square num-button"" onclick = ""recordClick(this)""><div class = content><div class = numbers>Y</div></div></button><button class = clear_button id = ""ClearButton"" onclick = ""clearResponse()"">BACKSPACE</button><button class = blank_button id = ""BlankButton"" onclick = ""blankResponse()"">SKIP</button><p style=""font-size: 2.4rem""><u><b>Current Answer:</b></u></p><br><br><div id=echoed_txt style=""font-size: 5rem; color:blue;""><b></b></div></div>",enter,ospan,retrieval,9NXGw8ADeLTW37tM81eueN0Amnd2,html-keyboard-response,138,832328,0.0-43.0-4.0-2.0-2.0,15,15,15,3.0,"[""R"",""H"",""S""]","[""R"",""H"",""S""]",1.0,3.0,,,,,,,5ee5defbfe74a3000d106f51,13:50:47,06/03/2024
1311.4000000003725,[''],0,ospan,feedback,9NXGw8ADeLTW37tM81eueN0Amnd2,html-button-response,139,834142,0.0-43.0-4.0-2.0-3.0,,,,,,,,,,,,93.0,0.0,,5ee5defbfe74a3000d106f51,13:50:47,06/03/2024
,"<p style=""font-size:75px;"">...</p>",,ospan,iti,9NXGw8ADeLTW37tM81eueN0Amnd2,html-keyboard-response,140,835147,0.0-43.0-5.0-0.0-0.0,,,,,,,,,,,,,,,5ee5defbfe74a3000d106f51,13:50:47,06/03/2024
3264.0,,,ospan,symmetry,9NXGw8ADeLTW37tM81eueN0Amnd2,symmetry-judgement-task,141,839445,0.0-43.0-5.0-0.0-1.0-0.0,,,,,,,,,,1.0,1.0,,,,5ee5defbfe74a3000d106f51,13:50:47,06/03/2024
,"<div style=""font-size: 10rem; color: #0000FF"">Y</div>",,ospan,letter,9NXGw8ADeLTW37tM81eueN0Amnd2,html-keyboard-response,142,840448,0.0-43.0-5.0-0.0-1.0-1.0,,,,,,,,,,,,,,,5ee5defbfe74a3000d106f51,13:50:47,06/03/2024
2143.0,,,ospan,symmetry,9NXGw8ADeLTW37tM81eueN0Amnd2,symmetry-judgement-task,143,844426,0.0-43.0-5.0-0.0-1.0-2.0,,,,,,,,,,1.0,1.0,,,,5ee5defbfe74a3000d106f51,13:50:47,06/03/2024
,"<div style=""font-size: 10rem; color: #0000FF"">N</div>",,ospan,letter,9NXGw8ADeLTW37tM81eueN0Amnd2,html-keyboard-response,144,845429,0.0-43.0-5.0-0.0-1.0-3.0,,,,,,,,,,,,,,,5ee5defbfe74a3000d106f51,13:50:47,06/03/2024
1625.0,,,ospan,symmetry,9NXGw8ADeLTW37tM81eueN0Amnd2,symmetry-judgement-task,145,848893,0.0-43.0-5.0-0.0-1.0-4.0,,,,,,,,,,1.0,1.0,,,,5ee5defbfe74a3000d106f51,13:50:47,06/03/2024
,"<div style=""font-size: 10rem; color: #0000FF"">L</div>",,ospan,letter,9NXGw8ADeLTW37tM81eueN0Amnd2,html-keyboard-response,146,849897,0.0-43.0-5.0-0.0-1.0-5.0,,,,,,,,,,,,,,,5ee5defbfe74a3000d106f51,13:50:47,06/03/2024
2070.0,,,ospan,symmetry,9NXGw8ADeLTW37tM81eueN0Amnd2,symmetry-judgement-task,147,853811,0.0-43.0-5.0-0.0-1.0-6.0,,,,,,,,,,1.0,1.0,,,,5ee5defbfe74a3000d106f51,13:50:47,06/03/2024
,"<div style=""font-size: 10rem; color: #0000FF"">K</div>",,ospan,letter,9NXGw8ADeLTW37tM81eueN0Amnd2,html-keyboard-response,148,854815,0.0-43.0-5.0-0.0-1.0-7.0,,,,,,,,,,,,,,,5ee5defbfe74a3000d106f51,13:50:47,06/03/2024
1567.0,,,ospan,symmetry,9NXGw8ADeLTW37tM81eueN0Amnd2,symmetry-judgement-task,149,858211,0.0-43.0-5.0-0.0-1.0-8.0,,,,,,,,,,1.0,1.0,,,,5ee5defbfe74a3000d106f51,13:50:47,06/03/2024
,"<div style=""font-size: 10rem; color: #0000FF"">S</div>",,ospan,letter,9NXGw8ADeLTW37tM81eueN0Amnd2,html-keyboard-response,150,859215,0.0-43.0-5.0-0.0-1.0-9.0,,,,,,,,,,,,,,,5ee5defbfe74a3000d106f51,13:50:47,06/03/2024
1586.0,,,ospan,symmetry,9NXGw8ADeLTW37tM81eueN0Amnd2,symmetry-judgement-task,151,862595,0.0-43.0-5.0-0.0-1.0-10.0,,,,,,,,,,1.0,1.0,,,,5ee5defbfe74a3000d106f51,13:50:47,06/03/2024
,"<div style=""font-size: 10rem; color: #0000FF"">H</div>",,ospan,letter,9NXGw8ADeLTW37tM81eueN0Amnd2,html-keyboard-response,152,863598,0.0-43.0-5.0-0.0-1.0-11.0,,,,,,,,,,,,,,,5ee5defbfe74a3000d106f51,13:50:47,06/03/2024
7821.0999999996275,"<div class = numbox><p style=""font-size: 2.4rem"">Please recall the letters you saw to the best of your ability. If you do not remember a particular letter, use the SKIP button.<br><b>(When you are ready to lock in your answer, press ENTER)</b></p><button id = button_1 class = ""square num-button"" onclick = ""recordClick(this)""><div class = content><div class = numbers>C</div></div></button><button id = button_2 class = ""square num-button"" onclick = ""recordClick(this)""><div class = content><div class = numbers>G</div></div></button><button id = button_3 class = ""square num-button"" onclick = ""recordClick(this)""><div class = content><div class = numbers>H</div></div></button><button id = button_4 class = ""square num-button"" onclick = ""recordClick(this)""><div class = content><div class = numbers>J</div></div></button><button id = button_5 class = ""square num-button"" onclick = ""recordClick(this)""><div class = content><div class = numbers>K</div></div></button><button id = button_6 class = ""square num-button"" onclick = ""recordClick(this)""><div class = content><div class = numbers>L</div></div></button><button id = button_7 class = ""square num-button"" onclick = ""recordClick(this)""><div class = content><div class = numbers>N</div></div></button><button id = button_8 class = ""square num-button"" onclick = ""recordClick(this)""><div class = content><div class = numbers>P</div></div></button><button id = button_9 class = ""square num-button"" onclick = ""recordClick(this)""><div class = content><div class = numbers>Q</div></div></button><button id = button_10 class = ""square num-button"" onclick = ""recordClick(this)""><div class = content><div class = numbers>R</div></div></button><button id = button_11 class = ""square num-button"" onclick = ""recordClick(this)""><div class = content><div class = numbers>S</div></div></button><button id = button_12 class = ""square num-button"" onclick = ""recordClick(this)""><div class = content><div class = numbers>Y</div></div></button><button class = clear_button id = ""ClearButton"" onclick = ""clearResponse()"">BACKSPACE</button><button class = blank_button id = ""BlankButton"" onclick = ""blankResponse()"">SKIP</button><p style=""font-size: 2.4rem""><u><b>Current Answer:</b></u></p><br><br><div id=echoed_txt style=""font-size: 5rem; color:blue;""><b></b></div></div>",enter,ospan,retrieval,9NXGw8ADeLTW37tM81eueN0Amnd2,html-keyboard-response,153,872173,0.0-43.0-5.0-0.0-2.0,21,21,21,6.0,"[""Y"",""N"",""L"",""K"",""S"",""H""]","[""Y"",""N"",""L"",""K"",""S"",""H""]",1.0,6.0,,,,,,,5ee5defbfe74a3000d106f51,13:50:47,06/03/2024
1130.7000000011176,[''],0,ospan,feedback,9NXGw8ADeLTW37tM81eueN0Amnd2,html-button-response,154,873808,0.0-43.0-5.0-0.0-3.0,,,,,,,,,,,,95.0,0.0,,5ee5defbfe74a3000d106f51,13:50:47,06/03/2024
,"<p style=""font-size:75px;"">...</p>",,ospan,iti,9NXGw8ADeLTW37tM81eueN0Amnd2,html-keyboard-response,155,874814,0.0-43.0-5.0-1.0-0.0,,,,,,,,,,,,,,,5ee5defbfe74a3000d106f51,13:50:47,06/03/2024
1551.0,,,ospan,symmetry,9NXGw8ADeLTW37tM81eueN0Amnd2,symmetry-judgement-task,156,877460,0.0-43.0-5.0-1.0-1.0-0.0,,,,,,,,,,1.0,1.0,,,,5ee5defbfe74a3000d106f51,13:50:47,06/03/2024
,"<div style=""font-size: 10rem; color: #0000FF"">J</div>",,ospan,letter,9NXGw8ADeLTW37tM81eueN0Amnd2,html-keyboard-response,157,878464,0.0-43.0-5.0-1.0-1.0-1.0,,,,,,,,,,,,,,,5ee5defbfe74a3000d106f51,13:50:47,06/03/2024
2810.0,,,ospan,symmetry,9NXGw8ADeLTW37tM81eueN0Amnd2,symmetry-judgement-task,158,883112,0.0-43.0-5.0-1.0-1.0-2.0,,,,,,,,,,1.0,1.0,,,,5ee5defbfe74a3000d106f51,13:50:47,06/03/2024
,"<div style=""font-size: 10rem; color: #0000FF"">R</div>",,ospan,letter,9NXGw8ADeLTW37tM81eueN0Amnd2,html-keyboard-response,159,884116,0.0-43.0-5.0-1.0-1.0-3.0,,,,,,,,,,,,,,,5ee5defbfe74a3000d106f51,13:50:47,06/03/2024
3561.0,,,ospan,symmetry,9NXGw8ADeLTW37tM81eueN0Amnd2,symmetry-judgement-task,160,889527,0.0-43.0-5.0-1.0-1.0-4.0,,,,,,,,,,1.0,1.0,,,,5ee5defbfe74a3000d106f51,13:50:47,06/03/2024
,"<div style=""font-size: 10rem; color: #0000FF"">G</div>",,ospan,letter,9NXGw8ADeLTW37tM81eueN0Amnd2,html-keyboard-response,161,890529,0.0-43.0-5.0-1.0-1.0-5.0,,,,,,,,,,,,,,,5ee5defbfe74a3000d106f51,13:50:47,06/03/2024
1509.0,,,ospan,symmetry,9NXGw8ADeLTW37tM81eueN0Amnd2,symmetry-judgement-task,162,893877,0.0-43.0-5.0-1.0-1.0-6.0,,,,,,,,,,1.0,1.0,,,,5ee5defbfe74a3000d106f51,13:50:47,06/03/2024
,"<div style=""font-size: 10rem; color: #0000FF"">C</div>",,ospan,letter,9NXGw8ADeLTW37tM81eueN0Amnd2,html-keyboard-response,163,894881,0.0-43.0-5.0-1.0-1.0-7.0,,,,,,,,,,,,,,,5ee5defbfe74a3000d106f51,13:50:47,06/03/2024
1764.0,,,ospan,symmetry,9NXGw8ADeLTW37tM81eueN0Amnd2,symmetry-judgement-task,164,898478,0.0-43.0-5.0-1.0-1.0-8.0,,,,,,,,,,1.0,1.0,,,,5ee5defbfe74a3000d106f51,13:50:47,06/03/2024
,"<div style=""font-size: 10rem; color: #0000FF"">Y</div>",,ospan,letter,9NXGw8ADeLTW37tM81eueN0Amnd2,html-keyboard-response,165,899481,0.0-43.0-5.0-1.0-1.0-9.0,,,,,,,,,,,,,,,5ee5defbfe74a3000d106f51,13:50:47,06/03/2024
1697.0,,,ospan,symmetry,9NXGw8ADeLTW37tM81eueN0Amnd2,symmetry-judgement-task,166,903012,0.0-43.0-5.0-1.0-1.0-10.0,,,,,,,,,,1.0,1.0,,,,5ee5defbfe74a3000d106f51,13:50:47,06/03/2024
,"<div style=""font-size: 10rem; color: #0000FF"">P</div>",,ospan,letter,9NXGw8ADeLTW37tM81eueN0Amnd2,html-keyboard-response,167,904014,0.0-43.0-5.0-1.0-1.0-11.0,,,,,,,,,,,,,,,5ee5defbfe74a3000d106f51,13:50:47,06/03/2024
5256.0,,,ospan,symmetry,9NXGw8ADeLTW37tM81eueN0Amnd2,symmetry-judgement-task,168,911127,0.0-43.0-5.0-1.0-1.0-12.0,,,,,,,,,,1.0,1.0,,,,5ee5defbfe74a3000d106f51,13:50:47,06/03/2024
,"<div style=""font-size: 10rem; color: #0000FF"">L</div>",,ospan,letter,9NXGw8ADeLTW37tM81eueN0Amnd2,html-keyboard-response,169,912129,0.0-43.0-5.0-1.0-1.0-13.0,,,,,,,,,,,,,,,5ee5defbfe74a3000d106f51,13:50:47,06/03/2024
7727.5999999996275,"<div class = numbox><p style=""font-size: 2.4rem"">Please recall the letters you saw to the best of your ability. If you do not remember a particular letter, use the SKIP button.<br><b>(When you are ready to lock in your answer, press ENTER)</b></p><button id = button_1 class = ""square num-button"" onclick = ""recordClick(this)""><div class = content><div class = numbers>C</div></div></button><button id = button_2 class = ""square num-button"" onclick = ""recordClick(this)""><div class = content><div class = numbers>G</div></div></button><button id = button_3 class = ""square num-button"" onclick = ""recordClick(this)""><div class = content><div class = numbers>H</div></div></button><button id = button_4 class = ""square num-button"" onclick = ""recordClick(this)""><div class = content><div class = numbers>J</div></div></button><button id = button_5 class = ""square num-button"" onclick = ""recordClick(this)""><div class = content><div class = numbers>K</div></div></button><button id = button_6 class = ""square num-button"" onclick = ""recordClick(this)""><div class = content><div class = numbers>L</div></div></button><button id = button_7 class = ""square num-button"" onclick = ""recordClick(this)""><div class = content><div class = numbers>N</div></div></button><button id = button_8 class = ""square num-button"" onclick = ""recordClick(this)""><div class = content><div class = numbers>P</div></div></button><button id = button_9 class = ""square num-button"" onclick = ""recordClick(this)""><div class = content><div class = numbers>Q</div></div></button><button id = button_10 class = ""square num-button"" onclick = ""recordClick(this)""><div class = content><div class = numbers>R</div></div></button><button id = button_11 class = ""square num-button"" onclick = ""recordClick(this)""><div class = content><div class = numbers>S</div></div></button><button id = button_12 class = ""square num-button"" onclick = ""recordClick(this)""><div class = content><div class = numbers>Y</div></div></button><button class = clear_button id = ""ClearButton"" onclick = ""clearResponse()"">BACKSPACE</button><button class = blank_button id = ""BlankButton"" onclick = ""blankResponse()"">SKIP</button><p style=""font-size: 2.4rem""><u><b>Current Answer:</b></u></p><br><br><div id=echoed_txt style=""font-size: 5rem; color:blue;""><b></b></div></div>",enter,ospan,retrieval,9NXGw8ADeLTW37tM81eueN0Amnd2,html-keyboard-response,170,920610,0.0-43.0-5.0-1.0-2.0,28,28,28,7.0,"[""J"",""R"",""G"",""C"",""Y"",""P"",""L""]","[""J"",""R"",""G"",""C"",""Y"",""P"",""L""]",1.0,7.0,,,,,,,5ee5defbfe74a3000d106f51,13:50:47,06/03/2024
3727.800000000745,[''],0,ospan,feedback,9NXGw8ADeLTW37tM81eueN0Amnd2,html-button-response,171,924842,0.0-43.0-5.0-1.0-3.0,,,,,,,,,,,,96.0,0.0,,5ee5defbfe74a3000d106f51,13:50:47,06/03/2024
,"<p style=""font-size:75px;"">...</p>",,ospan,iti,9NXGw8ADeLTW37tM81eueN0Amnd2,html-keyboard-response,172,925848,0.0-43.0-6.0-0.0-0.0,,,,,,,,,,,,,,,5ee5defbfe74a3000d106f51,13:50:47,06/03/2024
1413.0,,,ospan,symmetry,9NXGw8ADeLTW37tM81eueN0Amnd2,symmetry-judgement-task,173,928344,0.0-43.0-6.0-0.0-1.0-0.0,,,,,,,,,,1.0,1.0,,,,5ee5defbfe74a3000d106f51,13:50:47,06/03/2024
,"<div style=""font-size: 10rem; color: #0000FF"">Q</div>",,ospan,letter,9NXGw8ADeLTW37tM81eueN0Amnd2,html-keyboard-response,174,929347,0.0-43.0-6.0-0.0-1.0-1.0,,,,,,,,,,,,,,,5ee5defbfe74a3000d106f51,13:50:47,06/03/2024
2521.0,,,ospan,symmetry,9NXGw8ADeLTW37tM81eueN0Amnd2,symmetry-judgement-task,175,933711,0.0-43.0-6.0-0.0-1.0-2.0,,,,,,,,,,1.0,1.0,,,,5ee5defbfe74a3000d106f51,13:50:47,06/03/2024
,"<div style=""font-size: 10rem; color: #0000FF"">S</div>",,ospan,letter,9NXGw8ADeLTW37tM81eueN0Amnd2,html-keyboard-response,176,934715,0.0-43.0-6.0-0.0-1.0-3.0,,,,,,,,,,,,,,,5ee5defbfe74a3000d106f51,13:50:47,06/03/2024
1389.0,,,ospan,symmetry,9NXGw8ADeLTW37tM81eueN0Amnd2,symmetry-judgement-task,177,937944,0.0-43.0-6.0-0.0-1.0-4.0,,,,,,,,,,1.0,1.0,,,,5ee5defbfe74a3000d106f51,13:50:47,06/03/2024
,"<div style=""font-size: 10rem; color: #0000FF"">P</div>",,ospan,letter,9NXGw8ADeLTW37tM81eueN0Amnd2,html-keyboard-response,178,938947,0.0-43.0-6.0-0.0-1.0-5.0,,,,,,,,,,,,,,,5ee5defbfe74a3000d106f51,13:50:47,06/03/2024
1269.0,,,ospan,symmetry,9NXGw8ADeLTW37tM81eueN0Amnd2,symmetry-judgement-task,179,942061,0.0-43.0-6.0-0.0-1.0-6.0,,,,,,,,,,1.0,1.0,,,,5ee5defbfe74a3000d106f51,13:50:47,06/03/2024
,"<div style=""font-size: 10rem; color: #0000FF"">K</div>",,ospan,letter,9NXGw8ADeLTW37tM81eueN0Amnd2,html-keyboard-response,180,943064,0.0-43.0-6.0-0.0-1.0-7.0,,,,,,,,,,,,,,,5ee5defbfe74a3000d106f51,13:50:47,06/03/2024
1028.0,,,ospan,symmetry,9NXGw8ADeLTW37tM81eueN0Amnd2,symmetry-judgement-task,181,945943,0.0-43.0-6.0-0.0-1.0-8.0,,,,,,,,,,1.0,1.0,,,,5ee5defbfe74a3000d106f51,13:50:47,06/03/2024
,"<div style=""font-size: 10rem; color: #0000FF"">J</div>",,ospan,letter,9NXGw8ADeLTW37tM81eueN0Amnd2,html-keyboard-response,182,946946,0.0-43.0-6.0-0.0-1.0-9.0,,,,,,,,,,,,,,,5ee5defbfe74a3000d106f51,13:50:47,06/03/2024
8281.699999999255,"<div class = numbox><p style=""font-size: 2.4rem"">Please recall the letters you saw to the best of your ability. If you do not remember a particular letter, use the SKIP button.<br><b>(When you are ready to lock in your answer, press ENTER)</b></p><button id = button_1 class = ""square num-button"" onclick = ""recordClick(this)""><div class = content><div class = numbers>C</div></div></button><button id = button_2 class = ""square num-button"" onclick = ""recordClick(this)""><div class = content><div class = numbers>G</div></div></button><button id = button_3 class = ""square num-button"" onclick = ""recordClick(this)""><div class = content><div class = numbers>H</div></div></button><button id = button_4 class = ""square num-button"" onclick = ""recordClick(this)""><div class = content><div class = numbers>J</div></div></button><button id = button_5 class = ""square num-button"" onclick = ""recordClick(this)""><div class = content><div class = numbers>K</div></div></button><button id = button_6 class = ""square num-button"" onclick = ""recordClick(this)""><div class = content><div class = numbers>L</div></div></button><button id = button_7 class = ""square num-button"" onclick = ""recordClick(this)""><div class = content><div class = numbers>N</div></div></button><button id = button_8 class = ""square num-button"" onclick = ""recordClick(this)""><div class = content><div class = numbers>P</div></div></button><button id = button_9 class = ""square num-button"" onclick = ""recordClick(this)""><div class = content><div class = numbers>Q</div></div></button><button id = button_10 class = ""square num-button"" onclick = ""recordClick(this)""><div class = content><div class = numbers>R</div></div></button><button id = button_11 class = ""square num-button"" onclick = ""recordClick(this)""><div class = content><div class = numbers>S</div></div></button><button id = button_12 class = ""square num-button"" onclick = ""recordClick(this)""><div class = content><div class = numbers>Y</div></div></button><button class = clear_button id = ""ClearButton"" onclick = ""clearResponse()"">BACKSPACE</button><button class = blank_button id = ""BlankButton"" onclick = ""blankResponse()"">SKIP</button><p style=""font-size: 2.4rem""><u><b>Current Answer:</b></u></p><br><br><div id=echoed_txt style=""font-size: 5rem; color:blue;""><b></b></div></div>",enter,ospan,retrieval,9NXGw8ADeLTW37tM81eueN0Amnd2,html-keyboard-response,183,955982,0.0-43.0-6.0-0.0-2.0,33,33,33,5.0,"[""Q"",""S"",""P"",""K"",""J""]","[""Q"",""S"",""P"",""K"",""J""]",1.0,5.0,,,,,,,5ee5defbfe74a3000d106f51,13:50:47,06/03/2024
1238.9000000003725,[''],0,ospan,feedback,9NXGw8ADeLTW37tM81eueN0Amnd2,html-button-response,184,957725,0.0-43.0-6.0-0.0-3.0,,,,,,,,,,,,97.0,0.0,,5ee5defbfe74a3000d106f51,13:50:47,06/03/2024
,"<p style=""font-size:75px;"">...</p>",,ospan,iti,9NXGw8ADeLTW37tM81eueN0Amnd2,html-keyboard-response,185,958730,0.0-43.0-6.0-1.0-0.0,,,,,,,,,,,,,,,5ee5defbfe74a3000d106f51,13:50:47,06/03/2024
1874.0,,,ospan,symmetry,9NXGw8ADeLTW37tM81eueN0Amnd2,symmetry-judgement-task,186,961693,0.0-43.0-6.0-1.0-1.0-0.0,,,,,,,,,,1.0,1.0,,,,5ee5defbfe74a3000d106f51,13:50:47,06/03/2024
,"<div style=""font-size: 10rem; color: #0000FF"">Y</div>",,ospan,letter,9NXGw8ADeLTW37tM81eueN0Amnd2,html-keyboard-response,187,962696,0.0-43.0-6.0-1.0-1.0-1.0,,,,,,,,,,,,,,,5ee5defbfe74a3000d106f51,13:50:47,06/03/2024
1781.0,,,ospan,symmetry,9NXGw8ADeLTW37tM81eueN0Amnd2,symmetry-judgement-task,188,966327,0.0-43.0-6.0-1.0-1.0-2.0,,,,,,,,,,1.0,1.0,,,,5ee5defbfe74a3000d106f51,13:50:47,06/03/2024
,"<div style=""font-size: 10rem; color: #0000FF"">L</div>",,ospan,letter,9NXGw8ADeLTW37tM81eueN0Amnd2,html-keyboard-response,189,967330,0.0-43.0-6.0-1.0-1.0-3.0,,,,,,,,,,,,,,,5ee5defbfe74a3000d106f51,13:50:47,06/03/2024
1040.0,,,ospan,symmetry,9NXGw8ADeLTW37tM81eueN0Amnd2,symmetry-judgement-task,190,970211,0.0-43.0-6.0-1.0-1.0-4.0,,,,,,,,,,1.0,1.0,,,,5ee5defbfe74a3000d106f51,13:50:47,06/03/2024
,"<div style=""font-size: 10rem; color: #0000FF"">N</div>",,ospan,letter,9NXGw8ADeLTW37tM81eueN0Amnd2,html-keyboard-response,191,971214,0.0-43.0-6.0-1.0-1.0-5.0,,,,,,,,,,,,,,,5ee5defbfe74a3000d106f51,13:50:47,06/03/2024
4398.0,,,ospan,symmetry,9NXGw8ADeLTW37tM81eueN0Amnd2,symmetry-judgement-task,192,977443,0.0-43.0-6.0-1.0-1.0-6.0,,,,,,,,,,1.0,1.0,,,,5ee5defbfe74a3000d106f51,13:50:47,06/03/2024
,"<div style=""font-size: 10rem; color: #0000FF"">Q</div>",,ospan,letter,9NXGw8ADeLTW37tM81eueN0Amnd2,html-keyboard-response,193,978447,0.0-43.0-6.0-1.0-1.0-7.0,,,,,,,,,,,,,,,5ee5defbfe74a3000d106f51,13:50:47,06/03/2024
2928.0,,,ospan,symmetry,9NXGw8ADeLTW37tM81eueN0Amnd2,symmetry-judgement-task,194,983227,0.0-43.0-6.0-1.0-1.0-8.0,,,,,,,,,,1.0,1.0,,,,5ee5defbfe74a3000d106f51,13:50:47,06/03/2024
,"<div style=""font-size: 10rem; color: #0000FF"">R</div>",,ospan,letter,9NXGw8ADeLTW37tM81eueN0Amnd2,html-keyboard-response,195,984230,0.0-43.0-6.0-1.0-1.0-9.0,,,,,,,,,,,,,,,5ee5defbfe74a3000d106f51,13:50:47,06/03/2024
1674.0,,,ospan,symmetry,9NXGw8ADeLTW37tM81eueN0Amnd2,symmetry-judgement-task,196,987744,0.0-43.0-6.0-1.0-1.0-10.0,,,,,,,,,,1.0,1.0,,,,5ee5defbfe74a3000d106f51,13:50:47,06/03/2024
,"<div style=""font-size: 10rem; color: #0000FF"">K</div>",,ospan,letter,9NXGw8ADeLTW37tM81eueN0Amnd2,html-keyboard-response,197,988747,0.0-43.0-6.0-1.0-1.0-11.0,,,,,,,,,,,,,,,5ee5defbfe74a3000d106f51,13:50:47,06/03/2024
1220.0,,,ospan,symmetry,9NXGw8ADeLTW37tM81eueN0Amnd2,symmetry-judgement-task,198,991811,0.0-43.0-6.0-1.0-1.0-12.0,,,,,,,,,,1.0,1.0,,,,5ee5defbfe74a3000d106f51,13:50:47,06/03/2024
,"<div style=""font-size: 10rem; color: #0000FF"">P</div>",,ospan,letter,9NXGw8ADeLTW37tM81eueN0Amnd2,html-keyboard-response,199,992814,0.0-43.0-6.0-1.0-1.0-13.0,,,,,,,,,,,,,,,5ee5defbfe74a3000d106f51,13:50:47,06/03/2024
2551.0,,,ospan,symmetry,9NXGw8ADeLTW37tM81eueN0Amnd2,symmetry-judgement-task,200,997210,0.0-43.0-6.0-1.0-1.0-14.0,,,,,,,,,,1.0,1.0,,,,5ee5defbfe74a3000d106f51,13:50:47,06/03/2024
,"<div style=""font-size: 10rem; color: #0000FF"">J</div>",,ospan,letter,9NXGw8ADeLTW37tM81eueN0Amnd2,html-keyboard-response,201,998213,0.0-43.0-6.0-1.0-1.0-15.0,,,,,,,,,,,,,,,5ee5defbfe74a3000d106f51,13:50:47,06/03/2024
8604.400000000373,"<div class = numbox><p style=""font-size: 2.4rem"">Please recall the letters you saw to the best of your ability. If you do not remember a particular letter, use the SKIP button.<br><b>(When you are ready to lock in your answer, press ENTER)</b></p><button id = button_1 class = ""square num-button"" onclick = ""recordClick(this)""><div class = content><div class = numbers>C</div></div></button><button id = button_2 class = ""square num-button"" onclick = ""recordClick(this)""><div class = content><div class = numbers>G</div></div></button><button id = button_3 class = ""square num-button"" onclick = ""recordClick(this)""><div class = content><div class = numbers>H</div></div></button><button id = button_4 class = ""square num-button"" onclick = ""recordClick(this)""><div class = content><div class = numbers>J</div></div></button><button id = button_5 class = ""square num-button"" onclick = ""recordClick(this)""><div class = content><div class = numbers>K</div></div></button><button id = button_6 class = ""square num-button"" onclick = ""recordClick(this)""><div class = content><div class = numbers>L</div></div></button><button id = button_7 class = ""square num-button"" onclick = ""recordClick(this)""><div class = content><div class = numbers>N</div></div></button><button id = button_8 class = ""square num-button"" onclick = ""recordClick(this)""><div class = content><div class = numbers>P</div></div></button><button id = button_9 class = ""square num-button"" onclick = ""recordClick(this)""><div class = content><div class = numbers>Q</div></div></button><button id = button_10 class = ""square num-button"" onclick = ""recordClick(this)""><div class = content><div class = numbers>R</div></div></button><button id = button_11 class = ""square num-button"" onclick = ""recordClick(this)""><div class = content><div class = numbers>S</div></div></button><button id = button_12 class = ""square num-button"" onclick = ""recordClick(this)""><div class = content><div class = numbers>Y</div></div></button><button class = clear_button id = ""ClearButton"" onclick = ""clearResponse()"">BACKSPACE</button><button class = blank_button id = ""BlankButton"" onclick = ""blankResponse()"">SKIP</button><p style=""font-size: 2.4rem""><u><b>Current Answer:</b></u></p><br><br><div id=echoed_txt style=""font-size: 5rem; color:blue;""><b></b></div></div>",enter,ospan,retrieval,9NXGw8ADeLTW37tM81eueN0Amnd2,html-keyboard-response,202,1007572,0.0-43.0-6.0-1.0-2.0,41,41,41,8.0,"[""Y"",""L"",""N"",""Q"",""R"",""K"",""P"",""J""]","[""Y"",""L"",""N"",""Q"",""R"",""K"",""P"",""J""]",1.0,8.0,,,,,,,5ee5defbfe74a3000d106f51,13:50:47,06/03/2024
782.5999999996275,[''],0,ospan,feedback,9NXGw8ADeLTW37tM81eueN0Amnd2,html-button-response,203,1008859,0.0-43.0-6.0-1.0-3.0,,,,,,,,,,,,98.0,0.0,,5ee5defbfe74a3000d106f51,13:50:47,06/03/2024
19330.400000000373,,{'Q0': 'I really enjoyed the letters task '},ospan,survey_ospan,9NXGw8ADeLTW37tM81eueN0Amnd2,lmdlab-survey-text,204,1028946,0.0-43.0-7.0,,,,,,,,,,,,,,9NXGw8ADeLTW37tM81eueN0Amnd2,5ee5defbfe74a3000d106f51,13:50:47,06/03/2024
1742.300000000745,<p><p style='font-size: 3rem'>Great work!<br><br>This completes the symmetry and memory task.</p><br><br><br>,0,ospan,finish,9NXGw8ADeLTW37tM81eueN0Amnd2,html-button-response,205,1030692,0.0-43.0-8.0,41,41,41,,,,,,,,,98.0,,,5ee5defbfe74a3000d106f51,13:50:47,06/03/2024
