rt,stimulus,response,exp_name,exp_stage,subjectID,trial_type,trial_index,time_elapsed,internal_node_id,ospan_shown,ospan_total,ospan_abs,length,resp_actual,resp_correct,full_correct,num_correct,feedback,accuracy,correct,math_acc,math_warning,databaseID,prolificID,start_time,date
3610.399999976158,<div class = 'left_align' style='font-size: 3.25rem; line-height: 1.3;'><p class = 'center_align'><b>Welcome to the Symmetry and Memory Task</b><br><br><br><br></p>Press 'continue' to show the instructions.<br><br><br><br></div>,0,ospan,instruct,JIBbBQ2M5zL1Rbyl1toX4RSjR982,html-button-response,54,517999,0.0-46.0-0.0-0.0-0.0,,,,,,,,,,,,,,,5ed8162f9883863100f36190,15:21:20,03/04/2024
10294.5,"<div class = 'left_align' style='font-size: 3.25rem; line-height: 1.3;'><p class = 'center_align'><b>Symmetry and Memory Task</b><br><br></p>In this task, you will try to memorize letters you see on the screen<br>while you also view black and white grid pictures.<br><br>In the next few minutes, you will have some practice to get you familiar<br>with how the task works.<br><br>It may be difficult sometimes, but please do not worry about making mistakes!<br><br>We will begin by practicing the letter part of the task.<br><br><br><br></div>",0,ospan,instruct,JIBbBQ2M5zL1Rbyl1toX4RSjR982,html-button-response,55,528546,0.0-46.0-0.0-0.0-1.0,,,,,,,,,,,,,,,5ed8162f9883863100f36190,15:21:20,03/04/2024
26847.600000023842,"<div class = 'left_align' style='font-size: 3.25rem; line-height: 1.3;'>For this practice part, letters will appear on the screen one at a time.<br><br>Try to remember each letter in the order presented.<br><br>After some letters have been shown, you will see a response screen. Your<br>goal is to report the letters you saw <b>in order</b>. If you do not remember<br>a particular letter, you will have the option to leave it blank.<br><br><br><br></div>",0,ospan,instruct,JIBbBQ2M5zL1Rbyl1toX4RSjR982,html-button-response,56,555645,0.0-46.0-0.0-0.0-2.0,,,,,,,,,,,,,,,5ed8162f9883863100f36190,15:21:20,03/04/2024
4387.300000071526,"<div class = 'left_align' style='font-size: 3.25rem; line-height: 1.3;'>Remember, it is very important to get the letters in the same<br>order as you see them.<br><br>When you are ready, you may begin the letter practice.</div><br><br><br><br>",0,ospan,instruct,JIBbBQ2M5zL1Rbyl1toX4RSjR982,html-button-response,57,560283,0.0-46.0-0.0-0.0-3.0,,,,,,,,,,,,,,,5ed8162f9883863100f36190,15:21:20,03/04/2024
,"<p style=""font-size:75px;"">...</p>",,ospan,iti,JIBbBQ2M5zL1Rbyl1toX4RSjR982,html-keyboard-response,58,561549,0.0-46.0-0.0-1.0-0.0,,,,,,,,,,,,,,,5ed8162f9883863100f36190,15:21:20,03/04/2024
,"<div style=""font-size: 10rem; color: #0000FF"">P</div>",,ospan,letter,JIBbBQ2M5zL1Rbyl1toX4RSjR982,html-keyboard-response,59,562572,0.0-46.0-0.0-1.0-1.0,,,,,,,,,,,,,,,5ed8162f9883863100f36190,15:21:20,03/04/2024
,"<div style=""font-size: 10rem; color: #0000FF"">Y</div>",,ospan,letter,JIBbBQ2M5zL1Rbyl1toX4RSjR982,html-keyboard-response,60,564340,0.0-46.0-0.0-1.0-2.0,,,,,,,,,,,,,,,5ed8162f9883863100f36190,15:21:20,03/04/2024
8473.100000023842,"<div class = numbox><p style=""font-size: 2.4rem"">Please recall the letters you saw to the best of your ability. If you do not remember a particular letter, use the SKIP button.<br><b>(When you are ready to lock in your answer, press ENTER)</b></p><button id = button_1 class = ""square num-button"" onclick = ""recordClick(this)""><div class = content><div class = numbers>C</div></div></button><button id = button_2 class = ""square num-button"" onclick = ""recordClick(this)""><div class = content><div class = numbers>G</div></div></button><button id = button_3 class = ""square num-button"" onclick = ""recordClick(this)""><div class = content><div class = numbers>H</div></div></button><button id = button_4 class = ""square num-button"" onclick = ""recordClick(this)""><div class = content><div class = numbers>J</div></div></button><button id = button_5 class = ""square num-button"" onclick = ""recordClick(this)""><div class = content><div class = numbers>K</div></div></button><button id = button_6 class = ""square num-button"" onclick = ""recordClick(this)""><div class = content><div class = numbers>L</div></div></button><button id = button_7 class = ""square num-button"" onclick = ""recordClick(this)""><div class = content><div class = numbers>N</div></div></button><button id = button_8 class = ""square num-button"" onclick = ""recordClick(this)""><div class = content><div class = numbers>P</div></div></button><button id = button_9 class = ""square num-button"" onclick = ""recordClick(this)""><div class = content><div class = numbers>Q</div></div></button><button id = button_10 class = ""square num-button"" onclick = ""recordClick(this)""><div class = content><div class = numbers>R</div></div></button><button id = button_11 class = ""square num-button"" onclick = ""recordClick(this)""><div class = content><div class = numbers>S</div></div></button><button id = button_12 class = ""square num-button"" onclick = ""recordClick(this)""><div class = content><div class = numbers>Y</div></div></button><button class = clear_button id = ""ClearButton"" onclick = ""clearResponse()"">BACKSPACE</button><button class = blank_button id = ""BlankButton"" onclick = ""blankResponse()"">SKIP</button><p style=""font-size: 2.4rem""><u><b>Current Answer:</b></u></p><br><br><div id=echoed_txt style=""font-size: 5rem; color:blue;""><b></b></div></div>",enter,ospan,retrieval,JIBbBQ2M5zL1Rbyl1toX4RSjR982,html-keyboard-response,61,573577,0.0-46.0-0.0-1.0-3.0,NA,NA,NA,2.0,"[""P"",""Y""]","[""P"",""Y""]",1.0,2.0,"['<font color=""green"">P</font>', '<font color=""green"">Y</font>']",,,,,,5ed8162f9883863100f36190,15:21:20,03/04/2024
1581.3999999761581,"['<p style=""font-size:44px"">Letters:<br><br><br><font color=""green"">P</font> <font color=""green"">Y</font></p><br><br>']",0,ospan,practice_feedback,JIBbBQ2M5zL1Rbyl1toX4RSjR982,html-button-response,62,575669,0.0-46.0-0.0-1.0-4.0,,,,,,,,,,,,,,,5ed8162f9883863100f36190,15:21:20,03/04/2024
,"<p style=""font-size:75px;"">...</p>",,ospan,iti,JIBbBQ2M5zL1Rbyl1toX4RSjR982,html-keyboard-response,63,576672,0.0-46.0-0.0-2.0-0.0,,,,,,,,,,,,,,,5ed8162f9883863100f36190,15:21:20,03/04/2024
,"<div style=""font-size: 10rem; color: #0000FF"">S</div>",,ospan,letter,JIBbBQ2M5zL1Rbyl1toX4RSjR982,html-keyboard-response,64,577687,0.0-46.0-0.0-2.0-1.0,,,,,,,,,,,,,,,5ed8162f9883863100f36190,15:21:20,03/04/2024
,"<div style=""font-size: 10rem; color: #0000FF"">Q</div>",,ospan,letter,JIBbBQ2M5zL1Rbyl1toX4RSjR982,html-keyboard-response,65,579452,0.0-46.0-0.0-2.0-2.0,,,,,,,,,,,,,,,5ed8162f9883863100f36190,15:21:20,03/04/2024
,"<div style=""font-size: 10rem; color: #0000FF"">H</div>",,ospan,letter,JIBbBQ2M5zL1Rbyl1toX4RSjR982,html-keyboard-response,66,581220,0.0-46.0-0.0-2.0-3.0,,,,,,,,,,,,,,,5ed8162f9883863100f36190,15:21:20,03/04/2024
4393.5,"<div class = numbox><p style=""font-size: 2.4rem"">Please recall the letters you saw to the best of your ability. If you do not remember a particular letter, use the SKIP button.<br><b>(When you are ready to lock in your answer, press ENTER)</b></p><button id = button_1 class = ""square num-button"" onclick = ""recordClick(this)""><div class = content><div class = numbers>C</div></div></button><button id = button_2 class = ""square num-button"" onclick = ""recordClick(this)""><div class = content><div class = numbers>G</div></div></button><button id = button_3 class = ""square num-button"" onclick = ""recordClick(this)""><div class = content><div class = numbers>H</div></div></button><button id = button_4 class = ""square num-button"" onclick = ""recordClick(this)""><div class = content><div class = numbers>J</div></div></button><button id = button_5 class = ""square num-button"" onclick = ""recordClick(this)""><div class = content><div class = numbers>K</div></div></button><button id = button_6 class = ""square num-button"" onclick = ""recordClick(this)""><div class = content><div class = numbers>L</div></div></button><button id = button_7 class = ""square num-button"" onclick = ""recordClick(this)""><div class = content><div class = numbers>N</div></div></button><button id = button_8 class = ""square num-button"" onclick = ""recordClick(this)""><div class = content><div class = numbers>P</div></div></button><button id = button_9 class = ""square num-button"" onclick = ""recordClick(this)""><div class = content><div class = numbers>Q</div></div></button><button id = button_10 class = ""square num-button"" onclick = ""recordClick(this)""><div class = content><div class = numbers>R</div></div></button><button id = button_11 class = ""square num-button"" onclick = ""recordClick(this)""><div class = content><div class = numbers>S</div></div></button><button id = button_12 class = ""square num-button"" onclick = ""recordClick(this)""><div class = content><div class = numbers>Y</div></div></button><button class = clear_button id = ""ClearButton"" onclick = ""clearResponse()"">BACKSPACE</button><button class = blank_button id = ""BlankButton"" onclick = ""blankResponse()"">SKIP</button><p style=""font-size: 2.4rem""><u><b>Current Answer:</b></u></p><br><br><div id=echoed_txt style=""font-size: 5rem; color:blue;""><b></b></div></div>",enter,ospan,retrieval,JIBbBQ2M5zL1Rbyl1toX4RSjR982,html-keyboard-response,67,586366,0.0-46.0-0.0-2.0-4.0,NA,NA,NA,3.0,"[""S"",""Q"",""H""]","[""S"",""Q"",""H""]",1.0,3.0,"['<font color=""green"">S</font>', '<font color=""green"">Q</font>', '<font color=""green"">H</font>']",,,,,,5ed8162f9883863100f36190,15:21:20,03/04/2024
3152.5,"['<p style=""font-size:44px"">Letters:<br><br><br><font color=""green"">S</font> <font color=""green"">Q</font> <font color=""green"">H</font></p><br><br>']",0,ospan,practice_feedback,JIBbBQ2M5zL1Rbyl1toX4RSjR982,html-button-response,68,590025,0.0-46.0-0.0-2.0-5.0,,,,,,,,,,,,,,,5ed8162f9883863100f36190,15:21:20,03/04/2024
23819.0,"<div class = 'left_align' style='font-size: 3.25rem; line-height: 1.3;'>Now you will practice doing the <b>symmetry judgment part</b> of the experiment.<br><br>A black and white grid picture will appear on the screen and you have to judge if it is <br>symmetrical or asymetrical.<br><br>A picture is 'mirror' symmetrical if its left half is identical to the right half when flipped.<br>Here are examples of a symmetrical and an asymetrical picture:<br><br><center><img src='Stimuli/img/symm_instructions_extra.png' style='height:420px; width:900'></img></center><br>To judge symmetry, imagine you were to fold each picture down the middle, like a book –<br>would the left half match the right half when folded onto each other?<br><br></div><br>",0,ospan,instruct,JIBbBQ2M5zL1Rbyl1toX4RSjR982,html-button-response,69,613845,0.0-46.0-1.0-0.0-0.0,,,,,,,,,,,,,,,5ed8162f9883863100f36190,15:21:20,03/04/2024
8527.600000023842,"<div class = 'left_align' style='font-size: 3.25rem; line-height: 1.3;'>When you have viewed the picture and determined whether it is symmetrical or not,<br>you can <b>click the Yes or No button</b> below to answer.<br><br>If you take longer than 15 seconds, it will continue automatically<br>and record the answer as an error.</div><br>",0,ospan,instruct,JIBbBQ2M5zL1Rbyl1toX4RSjR982,html-button-response,70,622624,0.0-46.0-1.0-0.0-1.0,,,,,,,,,,,,,,,5ed8162f9883863100f36190,15:21:20,03/04/2024
5411.100000023842,"<div class = 'left_align' style='font-size: 3.25rem; line-height: 1.3;'>It is <b>very</b> important that you make the symmetry judgment correctly.<br><br>It is also important that you try and judge the picture as quickly as you can.<br><br>When you are ready, click on the button below to try some practice problems.</div><br><br><br><br>",0,ospan,instruct,JIBbBQ2M5zL1Rbyl1toX4RSjR982,html-button-response,71,628300,0.0-46.0-1.0-0.0-2.0,,,,,,,,,,,,,,,5ed8162f9883863100f36190,15:21:20,03/04/2024
1890.0,,,ospan,symmetry,JIBbBQ2M5zL1Rbyl1toX4RSjR982,symmetry-judgement-task,72,630969,0.0-46.0-1.0-1.0-0.0,,,,,,,,,,1.0,1.0,,,,5ed8162f9883863100f36190,15:21:20,03/04/2024
,"<p style=""color:green; font-size: 35px"">Correct</p>",,ospan,feedback,JIBbBQ2M5zL1Rbyl1toX4RSjR982,html-keyboard-response,73,631730,0.0-46.0-1.0-1.0-1.0,,,,,,,,,,,,,,,5ed8162f9883863100f36190,15:21:20,03/04/2024
1194.0,,,ospan,symmetry,JIBbBQ2M5zL1Rbyl1toX4RSjR982,symmetry-judgement-task,74,635542,0.0-46.0-1.0-1.0-2.0,,,,,,,,,,1.0,1.0,,,,5ed8162f9883863100f36190,15:21:20,03/04/2024
,"<p style=""color:green; font-size: 35px"">Correct</p>",,ospan,feedback,JIBbBQ2M5zL1Rbyl1toX4RSjR982,html-keyboard-response,75,636294,0.0-46.0-1.0-1.0-3.0,,,,,,,,,,,,,,,5ed8162f9883863100f36190,15:21:20,03/04/2024
1321.0,,,ospan,symmetry,JIBbBQ2M5zL1Rbyl1toX4RSjR982,symmetry-judgement-task,76,640240,0.0-46.0-1.0-1.0-4.0,,,,,,,,,,1.0,1.0,,,,5ed8162f9883863100f36190,15:21:20,03/04/2024
,"<p style=""color:green; font-size: 35px"">Correct</p>",,ospan,feedback,JIBbBQ2M5zL1Rbyl1toX4RSjR982,html-keyboard-response,77,640993,0.0-46.0-1.0-1.0-5.0,,,,,,,,,,,,,,,5ed8162f9883863100f36190,15:21:20,03/04/2024
2099.5,"<p style=""font-size: 3rem;"">You responded correctly on 3 of 3 symmetry judgments. Good job!</p><br><br>",0,ospan,practice,JIBbBQ2M5zL1Rbyl1toX4RSjR982,html-button-response,78,645095,0.0-46.0-1.0-2.0,,,,,,,,,,,,,,,5ed8162f9883863100f36190,15:21:20,03/04/2024
15356.299999952316,"<div class = 'left_align' style='font-size: 3.25rem; line-height: 1.3;'>Now you will practice doing both parts of the experiment at the same time.<br><br>In the next practice set, you will be given one grid picture to judge.<br>Then letter will appear on the screen. Try to remember the letter.<br><br>It is <b>very important</b> to make the symmetry judgment as quickly and accurately as possible.<br><br>Just as before, once you have make the symmetry judgment, you can click Yes or No.<br><b>Note that you will no longer see Correct or Incorrect feedback.</div><br><br><br><br>",0,ospan,instruct,JIBbBQ2M5zL1Rbyl1toX4RSjR982,html-button-response,79,660711,0.0-46.0-2.0-0.0-0.0,,,,,,,,,,,,,,,5ed8162f9883863100f36190,15:21:20,03/04/2024
10398.100000023842,"<div class = 'left_align' style='font-size: 3.25rem; line-height: 1.3;'>After the letter goes away, another grid picture will appear, and then<br>another letter.<br><br>At the end of each set of letters and grids, you will recall the letters to the best<br>of your ability. Remember, try your best to get the letters in the correct order.<br><br>It is important to <b>quickly</b> and <b>accurately</b> make the symmetry judgments.</div><br><br><br><br>",0,ospan,instruct,JIBbBQ2M5zL1Rbyl1toX4RSjR982,html-button-response,80,671365,0.0-46.0-2.0-0.0-1.0,,,,,,,,,,,,,,,5ed8162f9883863100f36190,15:21:20,03/04/2024
18527.0,"<div class = 'left_align' style='font-size: 3.25rem; line-height: 1.3;'>On the feedback screen, if you are not doing well at the symmetry judgments,<br>you will also see a warning in the middle. This indicates your percent <br>correct for the grid pictures for the entire experiment.<br><br>It is <b>very</b> important for you to keep accuracy at least at 85%: <u>We can only use<br>data where the participant was at least 85% accurate on the judgments.</u> Therefore,<br> please try your best to perform well on the symmetry judgments, <b>at the same time</b><br>doing your best to recall as many letters as possible.<br><br>Click the button to try some practice problems.</div><br><br><br><br>",0,ospan,instruct,JIBbBQ2M5zL1Rbyl1toX4RSjR982,html-button-response,81,690159,0.0-46.0-2.0-0.0-2.0,,,,,,,,,,,,,,,5ed8162f9883863100f36190,15:21:20,03/04/2024
,"<p style=""font-size:75px;"">...</p>",,ospan,iti,JIBbBQ2M5zL1Rbyl1toX4RSjR982,html-keyboard-response,82,691417,0.0-46.0-2.0-1.0-0.0,,,,,,,,,,,,,,,5ed8162f9883863100f36190,15:21:20,03/04/2024
1304.0,,,ospan,symmetry,JIBbBQ2M5zL1Rbyl1toX4RSjR982,symmetry-judgement-task,83,693743,0.0-46.0-2.0-1.0-1.0-0.0,,,,,,,,,,1.0,1.0,,,,5ed8162f9883863100f36190,15:21:20,03/04/2024
,"<div style=""font-size: 10rem; color: #0000FF"">G</div>",,ospan,letter,JIBbBQ2M5zL1Rbyl1toX4RSjR982,html-keyboard-response,84,694747,0.0-46.0-2.0-1.0-1.0-1.0,,,,,,,,,,,,,,,5ed8162f9883863100f36190,15:21:20,03/04/2024
1002.0,,,ospan,symmetry,JIBbBQ2M5zL1Rbyl1toX4RSjR982,symmetry-judgement-task,85,697610,0.0-46.0-2.0-1.0-1.0-2.0,,,,,,,,,,1.0,1.0,,,,5ed8162f9883863100f36190,15:21:20,03/04/2024
,"<div style=""font-size: 10rem; color: #0000FF"">Y</div>",,ospan,letter,JIBbBQ2M5zL1Rbyl1toX4RSjR982,html-keyboard-response,86,698623,0.0-46.0-2.0-1.0-1.0-3.0,,,,,,,,,,,,,,,5ed8162f9883863100f36190,15:21:20,03/04/2024
1900.0,,,ospan,symmetry,JIBbBQ2M5zL1Rbyl1toX4RSjR982,symmetry-judgement-task,87,702382,0.0-46.0-2.0-1.0-1.0-4.0,,,,,,,,,,1.0,1.0,,,,5ed8162f9883863100f36190,15:21:20,03/04/2024
,"<div style=""font-size: 10rem; color: #0000FF"">Q</div>",,ospan,letter,JIBbBQ2M5zL1Rbyl1toX4RSjR982,html-keyboard-response,88,703394,0.0-46.0-2.0-1.0-1.0-5.0,,,,,,,,,,,,,,,5ed8162f9883863100f36190,15:21:20,03/04/2024
5921.0,"<div class = numbox><p style=""font-size: 2.4rem"">Please recall the letters you saw to the best of your ability. If you do not remember a particular letter, use the SKIP button.<br><b>(When you are ready to lock in your answer, press ENTER)</b></p><button id = button_1 class = ""square num-button"" onclick = ""recordClick(this)""><div class = content><div class = numbers>C</div></div></button><button id = button_2 class = ""square num-button"" onclick = ""recordClick(this)""><div class = content><div class = numbers>G</div></div></button><button id = button_3 class = ""square num-button"" onclick = ""recordClick(this)""><div class = content><div class = numbers>H</div></div></button><button id = button_4 class = ""square num-button"" onclick = ""recordClick(this)""><div class = content><div class = numbers>J</div></div></button><button id = button_5 class = ""square num-button"" onclick = ""recordClick(this)""><div class = content><div class = numbers>K</div></div></button><button id = button_6 class = ""square num-button"" onclick = ""recordClick(this)""><div class = content><div class = numbers>L</div></div></button><button id = button_7 class = ""square num-button"" onclick = ""recordClick(this)""><div class = content><div class = numbers>N</div></div></button><button id = button_8 class = ""square num-button"" onclick = ""recordClick(this)""><div class = content><div class = numbers>P</div></div></button><button id = button_9 class = ""square num-button"" onclick = ""recordClick(this)""><div class = content><div class = numbers>Q</div></div></button><button id = button_10 class = ""square num-button"" onclick = ""recordClick(this)""><div class = content><div class = numbers>R</div></div></button><button id = button_11 class = ""square num-button"" onclick = ""recordClick(this)""><div class = content><div class = numbers>S</div></div></button><button id = button_12 class = ""square num-button"" onclick = ""recordClick(this)""><div class = content><div class = numbers>Y</div></div></button><button class = clear_button id = ""ClearButton"" onclick = ""clearResponse()"">BACKSPACE</button><button class = blank_button id = ""BlankButton"" onclick = ""blankResponse()"">SKIP</button><p style=""font-size: 2.4rem""><u><b>Current Answer:</b></u></p><br><br><div id=echoed_txt style=""font-size: 5rem; color:blue;""><b></b></div></div>",enter,ospan,retrieval,JIBbBQ2M5zL1Rbyl1toX4RSjR982,html-keyboard-response,89,710073,0.0-46.0-2.0-1.0-2.0-0.0,NA,NA,NA,3.0,"[""G"",""Y"",""Q""]","[""G"",""Y"",""Q""]",1.0,3.0,"['<font color=""green"">G</font>', '<font color=""green"">Y</font>', '<font color=""green"">Q</font>']",,,,,,5ed8162f9883863100f36190,15:21:20,03/04/2024
1206.8999999761581,"['<p style=""font-size:44px"">Letters:<br><br><br><font color=""green"">G</font> <font color=""green"">Y</font> <font color=""green"">Q</font></p><br><br><p style=""font-size:30px"">Symmetry:<br><br><font color=""green"">100%</font></p><br><br>']",0,ospan,practice_feedback,JIBbBQ2M5zL1Rbyl1toX4RSjR982,html-button-response,90,711782,0.0-46.0-2.0-1.0-2.0-1.0,,,,,,,,,,,,,,,5ed8162f9883863100f36190,15:21:20,03/04/2024
,"<p style=""font-size:75px;"">...</p>",,ospan,iti,JIBbBQ2M5zL1Rbyl1toX4RSjR982,html-keyboard-response,91,712788,0.0-46.0-2.0-2.0-0.0,,,,,,,,,,,,,,,5ed8162f9883863100f36190,15:21:20,03/04/2024
1068.0,,,ospan,symmetry,JIBbBQ2M5zL1Rbyl1toX4RSjR982,symmetry-judgement-task,92,714961,0.0-46.0-2.0-2.0-1.0-0.0,,,,,,,,,,1.0,1.0,,,,5ed8162f9883863100f36190,15:21:20,03/04/2024
,"<div style=""font-size: 10rem; color: #0000FF"">Q</div>",,ospan,letter,JIBbBQ2M5zL1Rbyl1toX4RSjR982,html-keyboard-response,93,715963,0.0-46.0-2.0-2.0-1.0-1.0,,,,,,,,,,,,,,,5ed8162f9883863100f36190,15:21:20,03/04/2024
1771.0,,,ospan,symmetry,JIBbBQ2M5zL1Rbyl1toX4RSjR982,symmetry-judgement-task,94,719604,0.0-46.0-2.0-2.0-1.0-2.0,,,,,,,,,,1.0,1.0,,,,5ed8162f9883863100f36190,15:21:20,03/04/2024
,"<div style=""font-size: 10rem; color: #0000FF"">P</div>",,ospan,letter,JIBbBQ2M5zL1Rbyl1toX4RSjR982,html-keyboard-response,95,720616,0.0-46.0-2.0-2.0-1.0-3.0,,,,,,,,,,,,,,,5ed8162f9883863100f36190,15:21:20,03/04/2024
1438.0,,,ospan,symmetry,JIBbBQ2M5zL1Rbyl1toX4RSjR982,symmetry-judgement-task,96,723934,0.0-46.0-2.0-2.0-1.0-4.0,,,,,,,,,,1.0,1.0,,,,5ed8162f9883863100f36190,15:21:20,03/04/2024
,"<div style=""font-size: 10rem; color: #0000FF"">S</div>",,ospan,letter,JIBbBQ2M5zL1Rbyl1toX4RSjR982,html-keyboard-response,97,724945,0.0-46.0-2.0-2.0-1.0-5.0,,,,,,,,,,,,,,,5ed8162f9883863100f36190,15:21:20,03/04/2024
4197.799999952316,"<div class = numbox><p style=""font-size: 2.4rem"">Please recall the letters you saw to the best of your ability. If you do not remember a particular letter, use the SKIP button.<br><b>(When you are ready to lock in your answer, press ENTER)</b></p><button id = button_1 class = ""square num-button"" onclick = ""recordClick(this)""><div class = content><div class = numbers>C</div></div></button><button id = button_2 class = ""square num-button"" onclick = ""recordClick(this)""><div class = content><div class = numbers>G</div></div></button><button id = button_3 class = ""square num-button"" onclick = ""recordClick(this)""><div class = content><div class = numbers>H</div></div></button><button id = button_4 class = ""square num-button"" onclick = ""recordClick(this)""><div class = content><div class = numbers>J</div></div></button><button id = button_5 class = ""square num-button"" onclick = ""recordClick(this)""><div class = content><div class = numbers>K</div></div></button><button id = button_6 class = ""square num-button"" onclick = ""recordClick(this)""><div class = content><div class = numbers>L</div></div></button><button id = button_7 class = ""square num-button"" onclick = ""recordClick(this)""><div class = content><div class = numbers>N</div></div></button><button id = button_8 class = ""square num-button"" onclick = ""recordClick(this)""><div class = content><div class = numbers>P</div></div></button><button id = button_9 class = ""square num-button"" onclick = ""recordClick(this)""><div class = content><div class = numbers>Q</div></div></button><button id = button_10 class = ""square num-button"" onclick = ""recordClick(this)""><div class = content><div class = numbers>R</div></div></button><button id = button_11 class = ""square num-button"" onclick = ""recordClick(this)""><div class = content><div class = numbers>S</div></div></button><button id = button_12 class = ""square num-button"" onclick = ""recordClick(this)""><div class = content><div class = numbers>Y</div></div></button><button class = clear_button id = ""ClearButton"" onclick = ""clearResponse()"">BACKSPACE</button><button class = blank_button id = ""BlankButton"" onclick = ""blankResponse()"">SKIP</button><p style=""font-size: 2.4rem""><u><b>Current Answer:</b></u></p><br><br><div id=echoed_txt style=""font-size: 5rem; color:blue;""><b></b></div></div>",enter,ospan,retrieval,JIBbBQ2M5zL1Rbyl1toX4RSjR982,html-keyboard-response,98,729903,0.0-46.0-2.0-2.0-2.0-0.0,NA,NA,NA,3.0,"[""Q"",""P"",""S""]","[""Q"",""P"",""S""]",1.0,3.0,"['<font color=""green"">Q</font>', '<font color=""green"">P</font>', '<font color=""green"">S</font>']",,,,,,5ed8162f9883863100f36190,15:21:20,03/04/2024
1999.2000000476837,"['<p style=""font-size:44px"">Letters:<br><br><br><font color=""green"">Q</font> <font color=""green"">P</font> <font color=""green"">S</font></p><br><br><p style=""font-size:30px"">Symmetry:<br><br><font color=""green"">100%</font></p><br><br>']",0,ospan,practice_feedback,JIBbBQ2M5zL1Rbyl1toX4RSjR982,html-button-response,99,732407,0.0-46.0-2.0-2.0-2.0-1.0,,,,,,,,,,,,,,,5ed8162f9883863100f36190,15:21:20,03/04/2024
25838.700000047684,"<div class = 'left_align' style='font-size: 3rem; line-height: 1.3;'><b>Great work! That is the end of practice.</b><br><br>The real trials will look just like the practice trials you just completed.<br><br><u>Here, you will not see feedback</u>. First, you will see an grid picture to judge,<br>then a letter to remember. When the recall screen appears, report the letters in the<br>order presented. If you forget a letter, remember to use the <b>blank</b> button to move to the<br>next letter. Some of the sets will have more symmetry grids and letters than others.<br><br>It is important that you do your best on both the symmetry judgments and the letter recall<br>parts of the experiment. For for the symmetry judgments, try to work as <b>quickly</b> and <br>as <b>accurately</b> as possible. Remember to keep your symmetry accuracy at 85% or above.<br><br><b>For the letters, do NOT use any external aid (e.g., writing on paper, electronic device).</b><br><br>It is <u>very important</u> to our experiment to have a <b>true</b> view of your real performance.<br><br>Do not worry if you miss some when it gets hard! This task is meant to be very challenging!<br><br>Click the button to begin.</div><br><br><br><br>",0,ospan,starting_real_here,JIBbBQ2M5zL1Rbyl1toX4RSjR982,html-button-response,100,758247,0.0-46.0-2.0-3.0,,,,,,,,,,,,,,,5ed8162f9883863100f36190,15:21:20,03/04/2024
,"<p style=""font-size:75px;"">...</p>",,ospan,iti,JIBbBQ2M5zL1Rbyl1toX4RSjR982,html-keyboard-response,101,759505,0.0-46.0-3.0-0.0-0.0,,,,,,,,,,,,,,,5ed8162f9883863100f36190,15:21:20,03/04/2024
1777.0,,,ospan,symmetry,JIBbBQ2M5zL1Rbyl1toX4RSjR982,symmetry-judgement-task,102,762304,0.0-46.0-3.0-0.0-1.0-0.0,,,,,,,,,,1.0,1.0,,,,5ed8162f9883863100f36190,15:21:20,03/04/2024
,"<div style=""font-size: 10rem; color: #0000FF"">S</div>",,ospan,letter,JIBbBQ2M5zL1Rbyl1toX4RSjR982,html-keyboard-response,103,763306,0.0-46.0-3.0-0.0-1.0-1.0,,,,,,,,,,,,,,,5ed8162f9883863100f36190,15:21:20,03/04/2024
1253.0,,,ospan,symmetry,JIBbBQ2M5zL1Rbyl1toX4RSjR982,symmetry-judgement-task,104,766415,0.0-46.0-3.0-0.0-1.0-2.0,,,,,,,,,,1.0,1.0,,,,5ed8162f9883863100f36190,15:21:20,03/04/2024
,"<div style=""font-size: 10rem; color: #0000FF"">P</div>",,ospan,letter,JIBbBQ2M5zL1Rbyl1toX4RSjR982,html-keyboard-response,105,767420,0.0-46.0-3.0-0.0-1.0-3.0,,,,,,,,,,,,,,,5ed8162f9883863100f36190,15:21:20,03/04/2024
1376.0,,,ospan,symmetry,JIBbBQ2M5zL1Rbyl1toX4RSjR982,symmetry-judgement-task,106,770666,0.0-46.0-3.0-0.0-1.0-4.0,,,,,,,,,,1.0,1.0,,,,5ed8162f9883863100f36190,15:21:20,03/04/2024
,"<div style=""font-size: 10rem; color: #0000FF"">Y</div>",,ospan,letter,JIBbBQ2M5zL1Rbyl1toX4RSjR982,html-keyboard-response,107,771677,0.0-46.0-3.0-0.0-1.0-5.0,,,,,,,,,,,,,,,5ed8162f9883863100f36190,15:21:20,03/04/2024
2876.100000023842,"<div class = numbox><p style=""font-size: 2.4rem"">Please recall the letters you saw to the best of your ability. If you do not remember a particular letter, use the SKIP button.<br><b>(When you are ready to lock in your answer, press ENTER)</b></p><button id = button_1 class = ""square num-button"" onclick = ""recordClick(this)""><div class = content><div class = numbers>C</div></div></button><button id = button_2 class = ""square num-button"" onclick = ""recordClick(this)""><div class = content><div class = numbers>G</div></div></button><button id = button_3 class = ""square num-button"" onclick = ""recordClick(this)""><div class = content><div class = numbers>H</div></div></button><button id = button_4 class = ""square num-button"" onclick = ""recordClick(this)""><div class = content><div class = numbers>J</div></div></button><button id = button_5 class = ""square num-button"" onclick = ""recordClick(this)""><div class = content><div class = numbers>K</div></div></button><button id = button_6 class = ""square num-button"" onclick = ""recordClick(this)""><div class = content><div class = numbers>L</div></div></button><button id = button_7 class = ""square num-button"" onclick = ""recordClick(this)""><div class = content><div class = numbers>N</div></div></button><button id = button_8 class = ""square num-button"" onclick = ""recordClick(this)""><div class = content><div class = numbers>P</div></div></button><button id = button_9 class = ""square num-button"" onclick = ""recordClick(this)""><div class = content><div class = numbers>Q</div></div></button><button id = button_10 class = ""square num-button"" onclick = ""recordClick(this)""><div class = content><div class = numbers>R</div></div></button><button id = button_11 class = ""square num-button"" onclick = ""recordClick(this)""><div class = content><div class = numbers>S</div></div></button><button id = button_12 class = ""square num-button"" onclick = ""recordClick(this)""><div class = content><div class = numbers>Y</div></div></button><button class = clear_button id = ""ClearButton"" onclick = ""clearResponse()"">BACKSPACE</button><button class = blank_button id = ""BlankButton"" onclick = ""blankResponse()"">SKIP</button><p style=""font-size: 2.4rem""><u><b>Current Answer:</b></u></p><br><br><div id=echoed_txt style=""font-size: 5rem; color:blue;""><b></b></div></div>",enter,ospan,retrieval,JIBbBQ2M5zL1Rbyl1toX4RSjR982,html-keyboard-response,108,775311,0.0-46.0-3.0-0.0-2.0,3,3,3,3.0,"[""S"",""P"",""Y""]","[""S"",""P"",""Y""]",1.0,3.0,,,,,,,5ed8162f9883863100f36190,15:21:20,03/04/2024
745.3999999761581,[''],0,ospan,feedback,JIBbBQ2M5zL1Rbyl1toX4RSjR982,html-button-response,109,776562,0.0-46.0-3.0-0.0-3.0,,,,,,,,,,,,100.0,0.0,,5ed8162f9883863100f36190,15:21:20,03/04/2024
,"<p style=""font-size:75px;"">...</p>",,ospan,iti,JIBbBQ2M5zL1Rbyl1toX4RSjR982,html-keyboard-response,110,777564,0.0-46.0-4.0-0.0-0.0,,,,,,,,,,,,,,,5ed8162f9883863100f36190,15:21:20,03/04/2024
1295.0,,,ospan,symmetry,JIBbBQ2M5zL1Rbyl1toX4RSjR982,symmetry-judgement-task,111,779971,0.0-46.0-4.0-0.0-1.0-0.0,,,,,,,,,,1.0,1.0,,,,5ed8162f9883863100f36190,15:21:20,03/04/2024
,"<div style=""font-size: 10rem; color: #0000FF"">Y</div>",,ospan,letter,JIBbBQ2M5zL1Rbyl1toX4RSjR982,html-keyboard-response,112,780980,0.0-46.0-4.0-0.0-1.0-1.0,,,,,,,,,,,,,,,5ed8162f9883863100f36190,15:21:20,03/04/2024
1255.0,,,ospan,symmetry,JIBbBQ2M5zL1Rbyl1toX4RSjR982,symmetry-judgement-task,113,784101,0.0-46.0-4.0-0.0-1.0-2.0,,,,,,,,,,1.0,1.0,,,,5ed8162f9883863100f36190,15:21:20,03/04/2024
,"<div style=""font-size: 10rem; color: #0000FF"">R</div>",,ospan,letter,JIBbBQ2M5zL1Rbyl1toX4RSjR982,html-keyboard-response,114,785112,0.0-46.0-4.0-0.0-1.0-3.0,,,,,,,,,,,,,,,5ed8162f9883863100f36190,15:21:20,03/04/2024
1204.0,,,ospan,symmetry,JIBbBQ2M5zL1Rbyl1toX4RSjR982,symmetry-judgement-task,115,788172,0.0-46.0-4.0-0.0-1.0-4.0,,,,,,,,,,1.0,1.0,,,,5ed8162f9883863100f36190,15:21:20,03/04/2024
,"<div style=""font-size: 10rem; color: #0000FF"">S</div>",,ospan,letter,JIBbBQ2M5zL1Rbyl1toX4RSjR982,html-keyboard-response,116,789178,0.0-46.0-4.0-0.0-1.0-5.0,,,,,,,,,,,,,,,5ed8162f9883863100f36190,15:21:20,03/04/2024
1433.0,,,ospan,symmetry,JIBbBQ2M5zL1Rbyl1toX4RSjR982,symmetry-judgement-task,117,792466,0.0-46.0-4.0-0.0-1.0-6.0,,,,,,,,,,1.0,1.0,,,,5ed8162f9883863100f36190,15:21:20,03/04/2024
,"<div style=""font-size: 10rem; color: #0000FF"">N</div>",,ospan,letter,JIBbBQ2M5zL1Rbyl1toX4RSjR982,html-keyboard-response,118,793468,0.0-46.0-4.0-0.0-1.0-7.0,,,,,,,,,,,,,,,5ed8162f9883863100f36190,15:21:20,03/04/2024
3290.0,"<div class = numbox><p style=""font-size: 2.4rem"">Please recall the letters you saw to the best of your ability. If you do not remember a particular letter, use the SKIP button.<br><b>(When you are ready to lock in your answer, press ENTER)</b></p><button id = button_1 class = ""square num-button"" onclick = ""recordClick(this)""><div class = content><div class = numbers>C</div></div></button><button id = button_2 class = ""square num-button"" onclick = ""recordClick(this)""><div class = content><div class = numbers>G</div></div></button><button id = button_3 class = ""square num-button"" onclick = ""recordClick(this)""><div class = content><div class = numbers>H</div></div></button><button id = button_4 class = ""square num-button"" onclick = ""recordClick(this)""><div class = content><div class = numbers>J</div></div></button><button id = button_5 class = ""square num-button"" onclick = ""recordClick(this)""><div class = content><div class = numbers>K</div></div></button><button id = button_6 class = ""square num-button"" onclick = ""recordClick(this)""><div class = content><div class = numbers>L</div></div></button><button id = button_7 class = ""square num-button"" onclick = ""recordClick(this)""><div class = content><div class = numbers>N</div></div></button><button id = button_8 class = ""square num-button"" onclick = ""recordClick(this)""><div class = content><div class = numbers>P</div></div></button><button id = button_9 class = ""square num-button"" onclick = ""recordClick(this)""><div class = content><div class = numbers>Q</div></div></button><button id = button_10 class = ""square num-button"" onclick = ""recordClick(this)""><div class = content><div class = numbers>R</div></div></button><button id = button_11 class = ""square num-button"" onclick = ""recordClick(this)""><div class = content><div class = numbers>S</div></div></button><button id = button_12 class = ""square num-button"" onclick = ""recordClick(this)""><div class = content><div class = numbers>Y</div></div></button><button class = clear_button id = ""ClearButton"" onclick = ""clearResponse()"">BACKSPACE</button><button class = blank_button id = ""BlankButton"" onclick = ""blankResponse()"">SKIP</button><p style=""font-size: 2.4rem""><u><b>Current Answer:</b></u></p><br><br><div id=echoed_txt style=""font-size: 5rem; color:blue;""><b></b></div></div>",enter,ospan,retrieval,JIBbBQ2M5zL1Rbyl1toX4RSjR982,html-keyboard-response,119,797510,0.0-46.0-4.0-0.0-2.0,7,7,7,4.0,"[""Y"",""R"",""S"",""N""]","[""Y"",""R"",""S"",""N""]",1.0,4.0,,,,,,,5ed8162f9883863100f36190,15:21:20,03/04/2024
643.1000000238419,[''],0,ospan,feedback,JIBbBQ2M5zL1Rbyl1toX4RSjR982,html-button-response,120,798669,0.0-46.0-4.0-0.0-3.0,,,,,,,,,,,,100.0,0.0,,5ed8162f9883863100f36190,15:21:20,03/04/2024
,"<p style=""font-size:75px;"">...</p>",,ospan,iti,JIBbBQ2M5zL1Rbyl1toX4RSjR982,html-keyboard-response,121,799671,0.0-46.0-4.0-1.0-0.0,,,,,,,,,,,,,,,5ed8162f9883863100f36190,15:21:20,03/04/2024
967.0,,,ospan,symmetry,JIBbBQ2M5zL1Rbyl1toX4RSjR982,symmetry-judgement-task,122,801754,0.0-46.0-4.0-1.0-1.0-0.0,,,,,,,,,,1.0,1.0,,,,5ed8162f9883863100f36190,15:21:20,03/04/2024
,"<div style=""font-size: 10rem; color: #0000FF"">N</div>",,ospan,letter,JIBbBQ2M5zL1Rbyl1toX4RSjR982,html-keyboard-response,123,802766,0.0-46.0-4.0-1.0-1.0-1.0,,,,,,,,,,,,,,,5ed8162f9883863100f36190,15:21:20,03/04/2024
1057.0,,,ospan,symmetry,JIBbBQ2M5zL1Rbyl1toX4RSjR982,symmetry-judgement-task,124,805692,0.0-46.0-4.0-1.0-1.0-2.0,,,,,,,,,,1.0,1.0,,,,5ed8162f9883863100f36190,15:21:20,03/04/2024
,"<div style=""font-size: 10rem; color: #0000FF"">Q</div>",,ospan,letter,JIBbBQ2M5zL1Rbyl1toX4RSjR982,html-keyboard-response,125,806704,0.0-46.0-4.0-1.0-1.0-3.0,,,,,,,,,,,,,,,5ed8162f9883863100f36190,15:21:20,03/04/2024
1285.0,,,ospan,symmetry,JIBbBQ2M5zL1Rbyl1toX4RSjR982,symmetry-judgement-task,126,809839,0.0-46.0-4.0-1.0-1.0-4.0,,,,,,,,,,1.0,1.0,,,,5ed8162f9883863100f36190,15:21:20,03/04/2024
,"<div style=""font-size: 10rem; color: #0000FF"">H</div>",,ospan,letter,JIBbBQ2M5zL1Rbyl1toX4RSjR982,html-keyboard-response,127,810855,0.0-46.0-4.0-1.0-1.0-5.0,,,,,,,,,,,,,,,5ed8162f9883863100f36190,15:21:20,03/04/2024
1636.0,,,ospan,symmetry,JIBbBQ2M5zL1Rbyl1toX4RSjR982,symmetry-judgement-task,128,814347,0.0-46.0-4.0-1.0-1.0-6.0,,,,,,,,,,1.0,1.0,,,,5ed8162f9883863100f36190,15:21:20,03/04/2024
,"<div style=""font-size: 10rem; color: #0000FF"">P</div>",,ospan,letter,JIBbBQ2M5zL1Rbyl1toX4RSjR982,html-keyboard-response,129,815349,0.0-46.0-4.0-1.0-1.0-7.0,,,,,,,,,,,,,,,5ed8162f9883863100f36190,15:21:20,03/04/2024
1251.0,,,ospan,symmetry,JIBbBQ2M5zL1Rbyl1toX4RSjR982,symmetry-judgement-task,130,818467,0.0-46.0-4.0-1.0-1.0-8.0,,,,,,,,,,1.0,1.0,,,,5ed8162f9883863100f36190,15:21:20,03/04/2024
,"<div style=""font-size: 10rem; color: #0000FF"">R</div>",,ospan,letter,JIBbBQ2M5zL1Rbyl1toX4RSjR982,html-keyboard-response,131,819481,0.0-46.0-4.0-1.0-1.0-9.0,,,,,,,,,,,,,,,5ed8162f9883863100f36190,15:21:20,03/04/2024
4912.0,"<div class = numbox><p style=""font-size: 2.4rem"">Please recall the letters you saw to the best of your ability. If you do not remember a particular letter, use the SKIP button.<br><b>(When you are ready to lock in your answer, press ENTER)</b></p><button id = button_1 class = ""square num-button"" onclick = ""recordClick(this)""><div class = content><div class = numbers>C</div></div></button><button id = button_2 class = ""square num-button"" onclick = ""recordClick(this)""><div class = content><div class = numbers>G</div></div></button><button id = button_3 class = ""square num-button"" onclick = ""recordClick(this)""><div class = content><div class = numbers>H</div></div></button><button id = button_4 class = ""square num-button"" onclick = ""recordClick(this)""><div class = content><div class = numbers>J</div></div></button><button id = button_5 class = ""square num-button"" onclick = ""recordClick(this)""><div class = content><div class = numbers>K</div></div></button><button id = button_6 class = ""square num-button"" onclick = ""recordClick(this)""><div class = content><div class = numbers>L</div></div></button><button id = button_7 class = ""square num-button"" onclick = ""recordClick(this)""><div class = content><div class = numbers>N</div></div></button><button id = button_8 class = ""square num-button"" onclick = ""recordClick(this)""><div class = content><div class = numbers>P</div></div></button><button id = button_9 class = ""square num-button"" onclick = ""recordClick(this)""><div class = content><div class = numbers>Q</div></div></button><button id = button_10 class = ""square num-button"" onclick = ""recordClick(this)""><div class = content><div class = numbers>R</div></div></button><button id = button_11 class = ""square num-button"" onclick = ""recordClick(this)""><div class = content><div class = numbers>S</div></div></button><button id = button_12 class = ""square num-button"" onclick = ""recordClick(this)""><div class = content><div class = numbers>Y</div></div></button><button class = clear_button id = ""ClearButton"" onclick = ""clearResponse()"">BACKSPACE</button><button class = blank_button id = ""BlankButton"" onclick = ""blankResponse()"">SKIP</button><p style=""font-size: 2.4rem""><u><b>Current Answer:</b></u></p><br><br><div id=echoed_txt style=""font-size: 5rem; color:blue;""><b></b></div></div>",enter,ospan,retrieval,JIBbBQ2M5zL1Rbyl1toX4RSjR982,html-keyboard-response,132,825159,0.0-46.0-4.0-1.0-2.0,12,12,12,5.0,"[""N"",""Q"",""H"",""P"",""R""]","[""N"",""Q"",""H"",""P"",""R""]",1.0,5.0,,,,,,,5ed8162f9883863100f36190,15:21:20,03/04/2024
4739.800000071526,[''],0,ospan,feedback,JIBbBQ2M5zL1Rbyl1toX4RSjR982,html-button-response,133,830402,0.0-46.0-4.0-1.0-3.0,,,,,,,,,,,,100.0,0.0,,5ed8162f9883863100f36190,15:21:20,03/04/2024
,"<p style=""font-size:75px;"">...</p>",,ospan,iti,JIBbBQ2M5zL1Rbyl1toX4RSjR982,html-keyboard-response,134,831416,0.0-46.0-4.0-2.0-0.0,,,,,,,,,,,,,,,5ed8162f9883863100f36190,15:21:20,03/04/2024
2088.0,,,ospan,symmetry,JIBbBQ2M5zL1Rbyl1toX4RSjR982,symmetry-judgement-task,135,834605,0.0-46.0-4.0-2.0-1.0-0.0,,,,,,,,,,1.0,1.0,,,,5ed8162f9883863100f36190,15:21:20,03/04/2024
,"<div style=""font-size: 10rem; color: #0000FF"">L</div>",,ospan,letter,JIBbBQ2M5zL1Rbyl1toX4RSjR982,html-keyboard-response,136,835615,0.0-46.0-4.0-2.0-1.0-1.0,,,,,,,,,,,,,,,5ed8162f9883863100f36190,15:21:20,03/04/2024
1031.0,,,ospan,symmetry,JIBbBQ2M5zL1Rbyl1toX4RSjR982,symmetry-judgement-task,137,838499,0.0-46.0-4.0-2.0-1.0-2.0,,,,,,,,,,1.0,1.0,,,,5ed8162f9883863100f36190,15:21:20,03/04/2024
,"<div style=""font-size: 10rem; color: #0000FF"">S</div>",,ospan,letter,JIBbBQ2M5zL1Rbyl1toX4RSjR982,html-keyboard-response,138,839508,0.0-46.0-4.0-2.0-1.0-3.0,,,,,,,,,,,,,,,5ed8162f9883863100f36190,15:21:20,03/04/2024
1035.0,,,ospan,symmetry,JIBbBQ2M5zL1Rbyl1toX4RSjR982,symmetry-judgement-task,139,842393,0.0-46.0-4.0-2.0-1.0-4.0,,,,,,,,,,1.0,1.0,,,,5ed8162f9883863100f36190,15:21:20,03/04/2024
,"<div style=""font-size: 10rem; color: #0000FF"">G</div>",,ospan,letter,JIBbBQ2M5zL1Rbyl1toX4RSjR982,html-keyboard-response,140,843398,0.0-46.0-4.0-2.0-1.0-5.0,,,,,,,,,,,,,,,5ed8162f9883863100f36190,15:21:20,03/04/2024
3300.899999976158,"<div class = numbox><p style=""font-size: 2.4rem"">Please recall the letters you saw to the best of your ability. If you do not remember a particular letter, use the SKIP button.<br><b>(When you are ready to lock in your answer, press ENTER)</b></p><button id = button_1 class = ""square num-button"" onclick = ""recordClick(this)""><div class = content><div class = numbers>C</div></div></button><button id = button_2 class = ""square num-button"" onclick = ""recordClick(this)""><div class = content><div class = numbers>G</div></div></button><button id = button_3 class = ""square num-button"" onclick = ""recordClick(this)""><div class = content><div class = numbers>H</div></div></button><button id = button_4 class = ""square num-button"" onclick = ""recordClick(this)""><div class = content><div class = numbers>J</div></div></button><button id = button_5 class = ""square num-button"" onclick = ""recordClick(this)""><div class = content><div class = numbers>K</div></div></button><button id = button_6 class = ""square num-button"" onclick = ""recordClick(this)""><div class = content><div class = numbers>L</div></div></button><button id = button_7 class = ""square num-button"" onclick = ""recordClick(this)""><div class = content><div class = numbers>N</div></div></button><button id = button_8 class = ""square num-button"" onclick = ""recordClick(this)""><div class = content><div class = numbers>P</div></div></button><button id = button_9 class = ""square num-button"" onclick = ""recordClick(this)""><div class = content><div class = numbers>Q</div></div></button><button id = button_10 class = ""square num-button"" onclick = ""recordClick(this)""><div class = content><div class = numbers>R</div></div></button><button id = button_11 class = ""square num-button"" onclick = ""recordClick(this)""><div class = content><div class = numbers>S</div></div></button><button id = button_12 class = ""square num-button"" onclick = ""recordClick(this)""><div class = content><div class = numbers>Y</div></div></button><button class = clear_button id = ""ClearButton"" onclick = ""clearResponse()"">BACKSPACE</button><button class = blank_button id = ""BlankButton"" onclick = ""blankResponse()"">SKIP</button><p style=""font-size: 2.4rem""><u><b>Current Answer:</b></u></p><br><br><div id=echoed_txt style=""font-size: 5rem; color:blue;""><b></b></div></div>",enter,ospan,retrieval,JIBbBQ2M5zL1Rbyl1toX4RSjR982,html-keyboard-response,141,847459,0.0-46.0-4.0-2.0-2.0,15,15,15,3.0,"[""L"",""S"",""G""]","[""L"",""S"",""G""]",1.0,3.0,,,,,,,5ed8162f9883863100f36190,15:21:20,03/04/2024
628.0999999046326,[''],0,ospan,feedback,JIBbBQ2M5zL1Rbyl1toX4RSjR982,html-button-response,142,848603,0.0-46.0-4.0-2.0-3.0,,,,,,,,,,,,100.0,0.0,,5ed8162f9883863100f36190,15:21:20,03/04/2024
,"<p style=""font-size:75px;"">...</p>",,ospan,iti,JIBbBQ2M5zL1Rbyl1toX4RSjR982,html-keyboard-response,143,849607,0.0-46.0-5.0-0.0-0.0,,,,,,,,,,,,,,,5ed8162f9883863100f36190,15:21:20,03/04/2024
1008.0,,,ospan,symmetry,JIBbBQ2M5zL1Rbyl1toX4RSjR982,symmetry-judgement-task,144,851726,0.0-46.0-5.0-0.0-1.0-0.0,,,,,,,,,,1.0,1.0,,,,5ed8162f9883863100f36190,15:21:20,03/04/2024
,"<div style=""font-size: 10rem; color: #0000FF"">N</div>",,ospan,letter,JIBbBQ2M5zL1Rbyl1toX4RSjR982,html-keyboard-response,145,852737,0.0-46.0-5.0-0.0-1.0-1.0,,,,,,,,,,,,,,,5ed8162f9883863100f36190,15:21:20,03/04/2024
966.0,,,ospan,symmetry,JIBbBQ2M5zL1Rbyl1toX4RSjR982,symmetry-judgement-task,146,855575,0.0-46.0-5.0-0.0-1.0-2.0,,,,,,,,,,1.0,1.0,,,,5ed8162f9883863100f36190,15:21:20,03/04/2024
,"<div style=""font-size: 10rem; color: #0000FF"">P</div>",,ospan,letter,JIBbBQ2M5zL1Rbyl1toX4RSjR982,html-keyboard-response,147,856578,0.0-46.0-5.0-0.0-1.0-3.0,,,,,,,,,,,,,,,5ed8162f9883863100f36190,15:21:20,03/04/2024
1164.0,,,ospan,symmetry,JIBbBQ2M5zL1Rbyl1toX4RSjR982,symmetry-judgement-task,148,859609,0.0-46.0-5.0-0.0-1.0-4.0,,,,,,,,,,1.0,1.0,,,,5ed8162f9883863100f36190,15:21:20,03/04/2024
,"<div style=""font-size: 10rem; color: #0000FF"">Q</div>",,ospan,letter,JIBbBQ2M5zL1Rbyl1toX4RSjR982,html-keyboard-response,149,860621,0.0-46.0-5.0-0.0-1.0-5.0,,,,,,,,,,,,,,,5ed8162f9883863100f36190,15:21:20,03/04/2024
1264.0,,,ospan,symmetry,JIBbBQ2M5zL1Rbyl1toX4RSjR982,symmetry-judgement-task,150,863741,0.0-46.0-5.0-0.0-1.0-6.0,,,,,,,,,,1.0,1.0,,,,5ed8162f9883863100f36190,15:21:20,03/04/2024
,"<div style=""font-size: 10rem; color: #0000FF"">G</div>",,ospan,letter,JIBbBQ2M5zL1Rbyl1toX4RSjR982,html-keyboard-response,151,864752,0.0-46.0-5.0-0.0-1.0-7.0,,,,,,,,,,,,,,,5ed8162f9883863100f36190,15:21:20,03/04/2024
1370.0,,,ospan,symmetry,JIBbBQ2M5zL1Rbyl1toX4RSjR982,symmetry-judgement-task,152,867988,0.0-46.0-5.0-0.0-1.0-8.0,,,,,,,,,,1.0,1.0,,,,5ed8162f9883863100f36190,15:21:20,03/04/2024
,"<div style=""font-size: 10rem; color: #0000FF"">L</div>",,ospan,letter,JIBbBQ2M5zL1Rbyl1toX4RSjR982,html-keyboard-response,153,869000,0.0-46.0-5.0-0.0-1.0-9.0,,,,,,,,,,,,,,,5ed8162f9883863100f36190,15:21:20,03/04/2024
963.0,,,ospan,symmetry,JIBbBQ2M5zL1Rbyl1toX4RSjR982,symmetry-judgement-task,154,871838,0.0-46.0-5.0-0.0-1.0-10.0,,,,,,,,,,1.0,1.0,,,,5ed8162f9883863100f36190,15:21:20,03/04/2024
,"<div style=""font-size: 10rem; color: #0000FF"">S</div>",,ospan,letter,JIBbBQ2M5zL1Rbyl1toX4RSjR982,html-keyboard-response,155,872842,0.0-46.0-5.0-0.0-1.0-11.0,,,,,,,,,,,,,,,5ed8162f9883863100f36190,15:21:20,03/04/2024
4888.600000023842,"<div class = numbox><p style=""font-size: 2.4rem"">Please recall the letters you saw to the best of your ability. If you do not remember a particular letter, use the SKIP button.<br><b>(When you are ready to lock in your answer, press ENTER)</b></p><button id = button_1 class = ""square num-button"" onclick = ""recordClick(this)""><div class = content><div class = numbers>C</div></div></button><button id = button_2 class = ""square num-button"" onclick = ""recordClick(this)""><div class = content><div class = numbers>G</div></div></button><button id = button_3 class = ""square num-button"" onclick = ""recordClick(this)""><div class = content><div class = numbers>H</div></div></button><button id = button_4 class = ""square num-button"" onclick = ""recordClick(this)""><div class = content><div class = numbers>J</div></div></button><button id = button_5 class = ""square num-button"" onclick = ""recordClick(this)""><div class = content><div class = numbers>K</div></div></button><button id = button_6 class = ""square num-button"" onclick = ""recordClick(this)""><div class = content><div class = numbers>L</div></div></button><button id = button_7 class = ""square num-button"" onclick = ""recordClick(this)""><div class = content><div class = numbers>N</div></div></button><button id = button_8 class = ""square num-button"" onclick = ""recordClick(this)""><div class = content><div class = numbers>P</div></div></button><button id = button_9 class = ""square num-button"" onclick = ""recordClick(this)""><div class = content><div class = numbers>Q</div></div></button><button id = button_10 class = ""square num-button"" onclick = ""recordClick(this)""><div class = content><div class = numbers>R</div></div></button><button id = button_11 class = ""square num-button"" onclick = ""recordClick(this)""><div class = content><div class = numbers>S</div></div></button><button id = button_12 class = ""square num-button"" onclick = ""recordClick(this)""><div class = content><div class = numbers>Y</div></div></button><button class = clear_button id = ""ClearButton"" onclick = ""clearResponse()"">BACKSPACE</button><button class = blank_button id = ""BlankButton"" onclick = ""blankResponse()"">SKIP</button><p style=""font-size: 2.4rem""><u><b>Current Answer:</b></u></p><br><br><div id=echoed_txt style=""font-size: 5rem; color:blue;""><b></b></div></div>",enter,ospan,retrieval,JIBbBQ2M5zL1Rbyl1toX4RSjR982,html-keyboard-response,156,878486,0.0-46.0-5.0-0.0-2.0,21,21,21,6.0,"[""N"",""P"",""Q"",""G"",""L"",""S""]","[""N"",""P"",""Q"",""G"",""L"",""S""]",1.0,6.0,,,,,,,5ed8162f9883863100f36190,15:21:20,03/04/2024
683.8999999761581,[''],0,ospan,feedback,JIBbBQ2M5zL1Rbyl1toX4RSjR982,html-button-response,157,879684,0.0-46.0-5.0-0.0-3.0,,,,,,,,,,,,100.0,0.0,,5ed8162f9883863100f36190,15:21:20,03/04/2024
,"<p style=""font-size:75px;"">...</p>",,ospan,iti,JIBbBQ2M5zL1Rbyl1toX4RSjR982,html-keyboard-response,158,880699,0.0-46.0-5.0-1.0-0.0,,,,,,,,,,,,,,,5ed8162f9883863100f36190,15:21:20,03/04/2024
1173.0,,,ospan,symmetry,JIBbBQ2M5zL1Rbyl1toX4RSjR982,symmetry-judgement-task,159,882981,0.0-46.0-5.0-1.0-1.0-0.0,,,,,,,,,,1.0,1.0,,,,5ed8162f9883863100f36190,15:21:20,03/04/2024
,"<div style=""font-size: 10rem; color: #0000FF"">R</div>",,ospan,letter,JIBbBQ2M5zL1Rbyl1toX4RSjR982,html-keyboard-response,160,883993,0.0-46.0-5.0-1.0-1.0-1.0,,,,,,,,,,,,,,,5ed8162f9883863100f36190,15:21:20,03/04/2024
1178.0,,,ospan,symmetry,JIBbBQ2M5zL1Rbyl1toX4RSjR982,symmetry-judgement-task,161,887031,0.0-46.0-5.0-1.0-1.0-2.0,,,,,,,,,,1.0,1.0,,,,5ed8162f9883863100f36190,15:21:20,03/04/2024
,"<div style=""font-size: 10rem; color: #0000FF"">G</div>",,ospan,letter,JIBbBQ2M5zL1Rbyl1toX4RSjR982,html-keyboard-response,162,888038,0.0-46.0-5.0-1.0-1.0-3.0,,,,,,,,,,,,,,,5ed8162f9883863100f36190,15:21:20,03/04/2024
1105.0,,,ospan,symmetry,JIBbBQ2M5zL1Rbyl1toX4RSjR982,symmetry-judgement-task,163,890992,0.0-46.0-5.0-1.0-1.0-4.0,,,,,,,,,,1.0,1.0,,,,5ed8162f9883863100f36190,15:21:20,03/04/2024
,"<div style=""font-size: 10rem; color: #0000FF"">S</div>",,ospan,letter,JIBbBQ2M5zL1Rbyl1toX4RSjR982,html-keyboard-response,164,892003,0.0-46.0-5.0-1.0-1.0-5.0,,,,,,,,,,,,,,,5ed8162f9883863100f36190,15:21:20,03/04/2024
1282.0,,,ospan,symmetry,JIBbBQ2M5zL1Rbyl1toX4RSjR982,symmetry-judgement-task,165,895149,0.0-46.0-5.0-1.0-1.0-6.0,,,,,,,,,,1.0,1.0,,,,5ed8162f9883863100f36190,15:21:20,03/04/2024
,"<div style=""font-size: 10rem; color: #0000FF"">J</div>",,ospan,letter,JIBbBQ2M5zL1Rbyl1toX4RSjR982,html-keyboard-response,166,896150,0.0-46.0-5.0-1.0-1.0-7.0,,,,,,,,,,,,,,,5ed8162f9883863100f36190,15:21:20,03/04/2024
3836.0,,,ospan,symmetry,JIBbBQ2M5zL1Rbyl1toX4RSjR982,symmetry-judgement-task,167,901843,0.0-46.0-5.0-1.0-1.0-8.0,,,,,,,,,,1.0,1.0,,,,5ed8162f9883863100f36190,15:21:20,03/04/2024
,"<div style=""font-size: 10rem; color: #0000FF"">C</div>",,ospan,letter,JIBbBQ2M5zL1Rbyl1toX4RSjR982,html-keyboard-response,168,902853,0.0-46.0-5.0-1.0-1.0-9.0,,,,,,,,,,,,,,,5ed8162f9883863100f36190,15:21:20,03/04/2024
2148.0,,,ospan,symmetry,JIBbBQ2M5zL1Rbyl1toX4RSjR982,symmetry-judgement-task,169,906880,0.0-46.0-5.0-1.0-1.0-10.0,,,,,,,,,,1.0,1.0,,,,5ed8162f9883863100f36190,15:21:20,03/04/2024
,"<div style=""font-size: 10rem; color: #0000FF"">P</div>",,ospan,letter,JIBbBQ2M5zL1Rbyl1toX4RSjR982,html-keyboard-response,170,907892,0.0-46.0-5.0-1.0-1.0-11.0,,,,,,,,,,,,,,,5ed8162f9883863100f36190,15:21:20,03/04/2024
1017.0,,,ospan,symmetry,JIBbBQ2M5zL1Rbyl1toX4RSjR982,symmetry-judgement-task,171,910773,0.0-46.0-5.0-1.0-1.0-12.0,,,,,,,,,,1.0,1.0,,,,5ed8162f9883863100f36190,15:21:20,03/04/2024
,"<div style=""font-size: 10rem; color: #0000FF"">Q</div>",,ospan,letter,JIBbBQ2M5zL1Rbyl1toX4RSjR982,html-keyboard-response,172,911784,0.0-46.0-5.0-1.0-1.0-13.0,,,,,,,,,,,,,,,5ed8162f9883863100f36190,15:21:20,03/04/2024
11416.399999976158,"<div class = numbox><p style=""font-size: 2.4rem"">Please recall the letters you saw to the best of your ability. If you do not remember a particular letter, use the SKIP button.<br><b>(When you are ready to lock in your answer, press ENTER)</b></p><button id = button_1 class = ""square num-button"" onclick = ""recordClick(this)""><div class = content><div class = numbers>C</div></div></button><button id = button_2 class = ""square num-button"" onclick = ""recordClick(this)""><div class = content><div class = numbers>G</div></div></button><button id = button_3 class = ""square num-button"" onclick = ""recordClick(this)""><div class = content><div class = numbers>H</div></div></button><button id = button_4 class = ""square num-button"" onclick = ""recordClick(this)""><div class = content><div class = numbers>J</div></div></button><button id = button_5 class = ""square num-button"" onclick = ""recordClick(this)""><div class = content><div class = numbers>K</div></div></button><button id = button_6 class = ""square num-button"" onclick = ""recordClick(this)""><div class = content><div class = numbers>L</div></div></button><button id = button_7 class = ""square num-button"" onclick = ""recordClick(this)""><div class = content><div class = numbers>N</div></div></button><button id = button_8 class = ""square num-button"" onclick = ""recordClick(this)""><div class = content><div class = numbers>P</div></div></button><button id = button_9 class = ""square num-button"" onclick = ""recordClick(this)""><div class = content><div class = numbers>Q</div></div></button><button id = button_10 class = ""square num-button"" onclick = ""recordClick(this)""><div class = content><div class = numbers>R</div></div></button><button id = button_11 class = ""square num-button"" onclick = ""recordClick(this)""><div class = content><div class = numbers>S</div></div></button><button id = button_12 class = ""square num-button"" onclick = ""recordClick(this)""><div class = content><div class = numbers>Y</div></div></button><button class = clear_button id = ""ClearButton"" onclick = ""clearResponse()"">BACKSPACE</button><button class = blank_button id = ""BlankButton"" onclick = ""blankResponse()"">SKIP</button><p style=""font-size: 2.4rem""><u><b>Current Answer:</b></u></p><br><br><div id=echoed_txt style=""font-size: 5rem; color:blue;""><b></b></div></div>",enter,ospan,retrieval,JIBbBQ2M5zL1Rbyl1toX4RSjR982,html-keyboard-response,173,923967,0.0-46.0-5.0-1.0-2.0,28,21,21,7.0,"[""N"",""P"",""R"",""C"",""J"",""Q""]","[""R"",""G"",""S"",""J"",""C"",""P"",""Q""]",0.0,0.0,,,,,,,5ed8162f9883863100f36190,15:21:20,03/04/2024
1477.5,[''],0,ospan,feedback,JIBbBQ2M5zL1Rbyl1toX4RSjR982,html-button-response,174,925949,0.0-46.0-5.0-1.0-3.0,,,,,,,,,,,,100.0,0.0,,5ed8162f9883863100f36190,15:21:20,03/04/2024
,"<p style=""font-size:75px;"">...</p>",,ospan,iti,JIBbBQ2M5zL1Rbyl1toX4RSjR982,html-keyboard-response,175,926951,0.0-46.0-6.0-0.0-0.0,,,,,,,,,,,,,,,5ed8162f9883863100f36190,15:21:20,03/04/2024
1158.0,,,ospan,symmetry,JIBbBQ2M5zL1Rbyl1toX4RSjR982,symmetry-judgement-task,176,929138,0.0-46.0-6.0-0.0-1.0-0.0,,,,,,,,,,1.0,1.0,,,,5ed8162f9883863100f36190,15:21:20,03/04/2024
,"<div style=""font-size: 10rem; color: #0000FF"">H</div>",,ospan,letter,JIBbBQ2M5zL1Rbyl1toX4RSjR982,html-keyboard-response,177,930151,0.0-46.0-6.0-0.0-1.0-1.0,,,,,,,,,,,,,,,5ed8162f9883863100f36190,15:21:20,03/04/2024
1697.0,,,ospan,symmetry,JIBbBQ2M5zL1Rbyl1toX4RSjR982,symmetry-judgement-task,178,933724,0.0-46.0-6.0-0.0-1.0-2.0,,,,,,,,,,1.0,1.0,,,,5ed8162f9883863100f36190,15:21:20,03/04/2024
,"<div style=""font-size: 10rem; color: #0000FF"">J</div>",,ospan,letter,JIBbBQ2M5zL1Rbyl1toX4RSjR982,html-keyboard-response,179,934731,0.0-46.0-6.0-0.0-1.0-3.0,,,,,,,,,,,,,,,5ed8162f9883863100f36190,15:21:20,03/04/2024
1581.0,,,ospan,symmetry,JIBbBQ2M5zL1Rbyl1toX4RSjR982,symmetry-judgement-task,180,938168,0.0-46.0-6.0-0.0-1.0-4.0,,,,,,,,,,1.0,1.0,,,,5ed8162f9883863100f36190,15:21:20,03/04/2024
,"<div style=""font-size: 10rem; color: #0000FF"">L</div>",,ospan,letter,JIBbBQ2M5zL1Rbyl1toX4RSjR982,html-keyboard-response,181,939177,0.0-46.0-6.0-0.0-1.0-5.0,,,,,,,,,,,,,,,5ed8162f9883863100f36190,15:21:20,03/04/2024
1428.0,,,ospan,symmetry,JIBbBQ2M5zL1Rbyl1toX4RSjR982,symmetry-judgement-task,182,942466,0.0-46.0-6.0-0.0-1.0-6.0,,,,,,,,,,1.0,1.0,,,,5ed8162f9883863100f36190,15:21:20,03/04/2024
,"<div style=""font-size: 10rem; color: #0000FF"">P</div>",,ospan,letter,JIBbBQ2M5zL1Rbyl1toX4RSjR982,html-keyboard-response,183,943479,0.0-46.0-6.0-0.0-1.0-7.0,,,,,,,,,,,,,,,5ed8162f9883863100f36190,15:21:20,03/04/2024
1727.0,,,ospan,symmetry,JIBbBQ2M5zL1Rbyl1toX4RSjR982,symmetry-judgement-task,184,947064,0.0-46.0-6.0-0.0-1.0-8.0,,,,,,,,,,1.0,1.0,,,,5ed8162f9883863100f36190,15:21:20,03/04/2024
,"<div style=""font-size: 10rem; color: #0000FF"">Q</div>",,ospan,letter,JIBbBQ2M5zL1Rbyl1toX4RSjR982,html-keyboard-response,185,948074,0.0-46.0-6.0-0.0-1.0-9.0,,,,,,,,,,,,,,,5ed8162f9883863100f36190,15:21:20,03/04/2024
4314.900000095367,"<div class = numbox><p style=""font-size: 2.4rem"">Please recall the letters you saw to the best of your ability. If you do not remember a particular letter, use the SKIP button.<br><b>(When you are ready to lock in your answer, press ENTER)</b></p><button id = button_1 class = ""square num-button"" onclick = ""recordClick(this)""><div class = content><div class = numbers>C</div></div></button><button id = button_2 class = ""square num-button"" onclick = ""recordClick(this)""><div class = content><div class = numbers>G</div></div></button><button id = button_3 class = ""square num-button"" onclick = ""recordClick(this)""><div class = content><div class = numbers>H</div></div></button><button id = button_4 class = ""square num-button"" onclick = ""recordClick(this)""><div class = content><div class = numbers>J</div></div></button><button id = button_5 class = ""square num-button"" onclick = ""recordClick(this)""><div class = content><div class = numbers>K</div></div></button><button id = button_6 class = ""square num-button"" onclick = ""recordClick(this)""><div class = content><div class = numbers>L</div></div></button><button id = button_7 class = ""square num-button"" onclick = ""recordClick(this)""><div class = content><div class = numbers>N</div></div></button><button id = button_8 class = ""square num-button"" onclick = ""recordClick(this)""><div class = content><div class = numbers>P</div></div></button><button id = button_9 class = ""square num-button"" onclick = ""recordClick(this)""><div class = content><div class = numbers>Q</div></div></button><button id = button_10 class = ""square num-button"" onclick = ""recordClick(this)""><div class = content><div class = numbers>R</div></div></button><button id = button_11 class = ""square num-button"" onclick = ""recordClick(this)""><div class = content><div class = numbers>S</div></div></button><button id = button_12 class = ""square num-button"" onclick = ""recordClick(this)""><div class = content><div class = numbers>Y</div></div></button><button class = clear_button id = ""ClearButton"" onclick = ""clearResponse()"">BACKSPACE</button><button class = blank_button id = ""BlankButton"" onclick = ""blankResponse()"">SKIP</button><p style=""font-size: 2.4rem""><u><b>Current Answer:</b></u></p><br><br><div id=echoed_txt style=""font-size: 5rem; color:blue;""><b></b></div></div>",enter,ospan,retrieval,JIBbBQ2M5zL1Rbyl1toX4RSjR982,html-keyboard-response,186,953155,0.0-46.0-6.0-0.0-2.0,33,26,26,5.0,"[""H"",""J"",""L"",""P"",""Q""]","[""H"",""J"",""L"",""P"",""Q""]",1.0,5.0,,,,,,,5ed8162f9883863100f36190,15:21:20,03/04/2024
972.1000000238419,[''],0,ospan,feedback,JIBbBQ2M5zL1Rbyl1toX4RSjR982,html-button-response,187,954630,0.0-46.0-6.0-0.0-3.0,,,,,,,,,,,,100.0,0.0,,5ed8162f9883863100f36190,15:21:20,03/04/2024
,"<p style=""font-size:75px;"">...</p>",,ospan,iti,JIBbBQ2M5zL1Rbyl1toX4RSjR982,html-keyboard-response,188,955640,0.0-46.0-6.0-1.0-0.0,,,,,,,,,,,,,,,5ed8162f9883863100f36190,15:21:20,03/04/2024
1655.0,,,ospan,symmetry,JIBbBQ2M5zL1Rbyl1toX4RSjR982,symmetry-judgement-task,189,958400,0.0-46.0-6.0-1.0-1.0-0.0,,,,,,,,,,1.0,1.0,,,,5ed8162f9883863100f36190,15:21:20,03/04/2024
,"<div style=""font-size: 10rem; color: #0000FF"">G</div>",,ospan,letter,JIBbBQ2M5zL1Rbyl1toX4RSjR982,html-keyboard-response,190,959414,0.0-46.0-6.0-1.0-1.0-1.0,,,,,,,,,,,,,,,5ed8162f9883863100f36190,15:21:20,03/04/2024
1088.0,,,ospan,symmetry,JIBbBQ2M5zL1Rbyl1toX4RSjR982,symmetry-judgement-task,191,962367,0.0-46.0-6.0-1.0-1.0-2.0,,,,,,,,,,1.0,1.0,,,,5ed8162f9883863100f36190,15:21:20,03/04/2024
,"<div style=""font-size: 10rem; color: #0000FF"">J</div>",,ospan,letter,JIBbBQ2M5zL1Rbyl1toX4RSjR982,html-keyboard-response,192,963377,0.0-46.0-6.0-1.0-1.0-3.0,,,,,,,,,,,,,,,5ed8162f9883863100f36190,15:21:20,03/04/2024
1398.0,,,ospan,symmetry,JIBbBQ2M5zL1Rbyl1toX4RSjR982,symmetry-judgement-task,193,966640,0.0-46.0-6.0-1.0-1.0-4.0,,,,,,,,,,1.0,1.0,,,,5ed8162f9883863100f36190,15:21:20,03/04/2024
,"<div style=""font-size: 10rem; color: #0000FF"">N</div>",,ospan,letter,JIBbBQ2M5zL1Rbyl1toX4RSjR982,html-keyboard-response,194,967654,0.0-46.0-6.0-1.0-1.0-5.0,,,,,,,,,,,,,,,5ed8162f9883863100f36190,15:21:20,03/04/2024
1356.0,,,ospan,symmetry,JIBbBQ2M5zL1Rbyl1toX4RSjR982,symmetry-judgement-task,195,970864,0.0-46.0-6.0-1.0-1.0-6.0,,,,,,,,,,1.0,1.0,,,,5ed8162f9883863100f36190,15:21:20,03/04/2024
,"<div style=""font-size: 10rem; color: #0000FF"">S</div>",,ospan,letter,JIBbBQ2M5zL1Rbyl1toX4RSjR982,html-keyboard-response,196,971865,0.0-46.0-6.0-1.0-1.0-7.0,,,,,,,,,,,,,,,5ed8162f9883863100f36190,15:21:20,03/04/2024
1368.0,,,ospan,symmetry,JIBbBQ2M5zL1Rbyl1toX4RSjR982,symmetry-judgement-task,197,975096,0.0-46.0-6.0-1.0-1.0-8.0,,,,,,,,,,1.0,1.0,,,,5ed8162f9883863100f36190,15:21:20,03/04/2024
,"<div style=""font-size: 10rem; color: #0000FF"">P</div>",,ospan,letter,JIBbBQ2M5zL1Rbyl1toX4RSjR982,html-keyboard-response,198,976107,0.0-46.0-6.0-1.0-1.0-9.0,,,,,,,,,,,,,,,5ed8162f9883863100f36190,15:21:20,03/04/2024
1311.0,,,ospan,symmetry,JIBbBQ2M5zL1Rbyl1toX4RSjR982,symmetry-judgement-task,199,979278,0.0-46.0-6.0-1.0-1.0-10.0,,,,,,,,,,1.0,1.0,,,,5ed8162f9883863100f36190,15:21:20,03/04/2024
,"<div style=""font-size: 10rem; color: #0000FF"">Q</div>",,ospan,letter,JIBbBQ2M5zL1Rbyl1toX4RSjR982,html-keyboard-response,200,980290,0.0-46.0-6.0-1.0-1.0-11.0,,,,,,,,,,,,,,,5ed8162f9883863100f36190,15:21:20,03/04/2024
1104.0,,,ospan,symmetry,JIBbBQ2M5zL1Rbyl1toX4RSjR982,symmetry-judgement-task,201,983250,0.0-46.0-6.0-1.0-1.0-12.0,,,,,,,,,,1.0,1.0,,,,5ed8162f9883863100f36190,15:21:20,03/04/2024
,"<div style=""font-size: 10rem; color: #0000FF"">K</div>",,ospan,letter,JIBbBQ2M5zL1Rbyl1toX4RSjR982,html-keyboard-response,202,984257,0.0-46.0-6.0-1.0-1.0-13.0,,,,,,,,,,,,,,,5ed8162f9883863100f36190,15:21:20,03/04/2024
1215.0,,,ospan,symmetry,JIBbBQ2M5zL1Rbyl1toX4RSjR982,symmetry-judgement-task,203,987326,0.0-46.0-6.0-1.0-1.0-14.0,,,,,,,,,,1.0,1.0,,,,5ed8162f9883863100f36190,15:21:20,03/04/2024
,"<div style=""font-size: 10rem; color: #0000FF"">R</div>",,ospan,letter,JIBbBQ2M5zL1Rbyl1toX4RSjR982,html-keyboard-response,204,988327,0.0-46.0-6.0-1.0-1.0-15.0,,,,,,,,,,,,,,,5ed8162f9883863100f36190,15:21:20,03/04/2024
9941.799999952316,"<div class = numbox><p style=""font-size: 2.4rem"">Please recall the letters you saw to the best of your ability. If you do not remember a particular letter, use the SKIP button.<br><b>(When you are ready to lock in your answer, press ENTER)</b></p><button id = button_1 class = ""square num-button"" onclick = ""recordClick(this)""><div class = content><div class = numbers>C</div></div></button><button id = button_2 class = ""square num-button"" onclick = ""recordClick(this)""><div class = content><div class = numbers>G</div></div></button><button id = button_3 class = ""square num-button"" onclick = ""recordClick(this)""><div class = content><div class = numbers>H</div></div></button><button id = button_4 class = ""square num-button"" onclick = ""recordClick(this)""><div class = content><div class = numbers>J</div></div></button><button id = button_5 class = ""square num-button"" onclick = ""recordClick(this)""><div class = content><div class = numbers>K</div></div></button><button id = button_6 class = ""square num-button"" onclick = ""recordClick(this)""><div class = content><div class = numbers>L</div></div></button><button id = button_7 class = ""square num-button"" onclick = ""recordClick(this)""><div class = content><div class = numbers>N</div></div></button><button id = button_8 class = ""square num-button"" onclick = ""recordClick(this)""><div class = content><div class = numbers>P</div></div></button><button id = button_9 class = ""square num-button"" onclick = ""recordClick(this)""><div class = content><div class = numbers>Q</div></div></button><button id = button_10 class = ""square num-button"" onclick = ""recordClick(this)""><div class = content><div class = numbers>R</div></div></button><button id = button_11 class = ""square num-button"" onclick = ""recordClick(this)""><div class = content><div class = numbers>S</div></div></button><button id = button_12 class = ""square num-button"" onclick = ""recordClick(this)""><div class = content><div class = numbers>Y</div></div></button><button class = clear_button id = ""ClearButton"" onclick = ""clearResponse()"">BACKSPACE</button><button class = blank_button id = ""BlankButton"" onclick = ""blankResponse()"">SKIP</button><p style=""font-size: 2.4rem""><u><b>Current Answer:</b></u></p><br><br><div id=echoed_txt style=""font-size: 5rem; color:blue;""><b></b></div></div>",enter,ospan,retrieval,JIBbBQ2M5zL1Rbyl1toX4RSjR982,html-keyboard-response,205,999024,0.0-46.0-6.0-1.0-2.0,41,31,26,8.0,"[""C"",""J"",""N"",""S"",""P"",""Q"",""R"",""K"",""S""]","[""G"",""J"",""N"",""S"",""P"",""Q"",""K"",""R""]",0.0,5.0,,,,,,,5ed8162f9883863100f36190,15:21:20,03/04/2024
4082.399999976158,[''],0,ospan,feedback,JIBbBQ2M5zL1Rbyl1toX4RSjR982,html-button-response,206,1003622,0.0-46.0-6.0-1.0-3.0,,,,,,,,,,,,100.0,0.0,,5ed8162f9883863100f36190,15:21:20,03/04/2024
25915.100000023842,,"{'Q0': 'N/a, I think I understood everything, as it was explained clearly'}",ospan,survey_ospan,JIBbBQ2M5zL1Rbyl1toX4RSjR982,lmdlab-survey-text,207,1030297,0.0-46.0-7.0,,,,,,,,,,,,,,JIBbBQ2M5zL1Rbyl1toX4RSjR982,5ed8162f9883863100f36190,15:21:20,03/04/2024
1150.1000000238419,<p><p style='font-size: 3rem'>Great work!<br><br>This completes the symmetry and memory task.</p><br><br><br>,0,ospan,finish,JIBbBQ2M5zL1Rbyl1toX4RSjR982,html-button-response,208,1031449,0.0-46.0-8.0,41,31,26,,,,,,,,,100.0,,,5ed8162f9883863100f36190,15:21:20,03/04/2024
