rt,stimulus,response,exp_name,exp_stage,subjectID,trial_type,trial_index,time_elapsed,internal_node_id,ospan_shown,ospan_total,ospan_abs,length,resp_actual,resp_correct,full_correct,num_correct,feedback,accuracy,correct,math_acc,math_warning,databaseID,prolificID,start_time,date
3901.300000011921,<div class = 'left_align' style='font-size: 3.25rem; line-height: 1.3;'><p class = 'center_align'><b>Welcome to the Symmetry and Memory Task</b><br><br><br><br></p>Press 'continue' to show the instructions.<br><br><br><br></div>,0,ospan,instruct,Uhp725jSdSdXQD0A432nJYv5ojQ2,html-button-response,51,452336,0.0-43.0-0.0-0.0-0.0,,,,,,,,,,,,,,,63d8267294c685a091016df0,13:38:13,06/03/2024
10511.90000000596,"<div class = 'left_align' style='font-size: 3.25rem; line-height: 1.3;'><p class = 'center_align'><b>Symmetry and Memory Task</b><br><br></p>In this task, you will try to memorize letters you see on the screen<br>while you also view black and white grid pictures.<br><br>In the next few minutes, you will have some practice to get you familiar<br>with how the task works.<br><br>It may be difficult sometimes, but please do not worry about making mistakes!<br><br>We will begin by practicing the letter part of the task.<br><br><br><br></div>",0,ospan,instruct,Uhp725jSdSdXQD0A432nJYv5ojQ2,html-button-response,52,463105,0.0-43.0-0.0-0.0-1.0,,,,,,,,,,,,,,,63d8267294c685a091016df0,13:38:13,06/03/2024
17611.5,"<div class = 'left_align' style='font-size: 3.25rem; line-height: 1.3;'>For this practice part, letters will appear on the screen one at a time.<br><br>Try to remember each letter in the order presented.<br><br>After some letters have been shown, you will see a response screen. Your<br>goal is to report the letters you saw <b>in order</b>. If you do not remember<br>a particular letter, you will have the option to leave it blank.<br><br><br><br></div>",0,ospan,instruct,Uhp725jSdSdXQD0A432nJYv5ojQ2,html-button-response,53,480977,0.0-43.0-0.0-0.0-2.0,,,,,,,,,,,,,,,63d8267294c685a091016df0,13:38:13,06/03/2024
4531.0999999940395,"<div class = 'left_align' style='font-size: 3.25rem; line-height: 1.3;'>Remember, it is very important to get the letters in the same<br>order as you see them.<br><br>When you are ready, you may begin the letter practice.</div><br><br><br><br>",0,ospan,instruct,Uhp725jSdSdXQD0A432nJYv5ojQ2,html-button-response,54,485765,0.0-43.0-0.0-0.0-3.0,,,,,,,,,,,,,,,63d8267294c685a091016df0,13:38:13,06/03/2024
,"<p style=""font-size:75px;"">...</p>",,ospan,iti,Uhp725jSdSdXQD0A432nJYv5ojQ2,html-keyboard-response,55,487037,0.0-43.0-0.0-1.0-0.0,,,,,,,,,,,,,,,63d8267294c685a091016df0,13:38:13,06/03/2024
,"<div style=""font-size: 10rem; color: #0000FF"">Q</div>",,ospan,letter,Uhp725jSdSdXQD0A432nJYv5ojQ2,html-keyboard-response,56,488051,0.0-43.0-0.0-1.0-1.0,,,,,,,,,,,,,,,63d8267294c685a091016df0,13:38:13,06/03/2024
,"<div style=""font-size: 10rem; color: #0000FF"">Y</div>",,ospan,letter,Uhp725jSdSdXQD0A432nJYv5ojQ2,html-keyboard-response,57,489820,0.0-43.0-0.0-1.0-2.0,,,,,,,,,,,,,,,63d8267294c685a091016df0,13:38:13,06/03/2024
8288.20000000298,"<div class = numbox><p style=""font-size: 2.4rem"">Please recall the letters you saw to the best of your ability. If you do not remember a particular letter, use the SKIP button.<br><b>(When you are ready to lock in your answer, press ENTER)</b></p><button id = button_1 class = ""square num-button"" onclick = ""recordClick(this)""><div class = content><div class = numbers>C</div></div></button><button id = button_2 class = ""square num-button"" onclick = ""recordClick(this)""><div class = content><div class = numbers>G</div></div></button><button id = button_3 class = ""square num-button"" onclick = ""recordClick(this)""><div class = content><div class = numbers>H</div></div></button><button id = button_4 class = ""square num-button"" onclick = ""recordClick(this)""><div class = content><div class = numbers>J</div></div></button><button id = button_5 class = ""square num-button"" onclick = ""recordClick(this)""><div class = content><div class = numbers>K</div></div></button><button id = button_6 class = ""square num-button"" onclick = ""recordClick(this)""><div class = content><div class = numbers>L</div></div></button><button id = button_7 class = ""square num-button"" onclick = ""recordClick(this)""><div class = content><div class = numbers>N</div></div></button><button id = button_8 class = ""square num-button"" onclick = ""recordClick(this)""><div class = content><div class = numbers>P</div></div></button><button id = button_9 class = ""square num-button"" onclick = ""recordClick(this)""><div class = content><div class = numbers>Q</div></div></button><button id = button_10 class = ""square num-button"" onclick = ""recordClick(this)""><div class = content><div class = numbers>R</div></div></button><button id = button_11 class = ""square num-button"" onclick = ""recordClick(this)""><div class = content><div class = numbers>S</div></div></button><button id = button_12 class = ""square num-button"" onclick = ""recordClick(this)""><div class = content><div class = numbers>Y</div></div></button><button class = clear_button id = ""ClearButton"" onclick = ""clearResponse()"">BACKSPACE</button><button class = blank_button id = ""BlankButton"" onclick = ""blankResponse()"">SKIP</button><p style=""font-size: 2.4rem""><u><b>Current Answer:</b></u></p><br><br><div id=echoed_txt style=""font-size: 5rem; color:blue;""><b></b></div></div>",enter,ospan,retrieval,Uhp725jSdSdXQD0A432nJYv5ojQ2,html-keyboard-response,58,498875,0.0-43.0-0.0-1.0-3.0,NA,NA,NA,2.0,"[""Q"",""Y""]","[""Q"",""Y""]",1.0,2.0,"['<font color=""green"">Q</font>', '<font color=""green"">Y</font>']",,,,,,63d8267294c685a091016df0,13:38:13,06/03/2024
2263.7999999970198,"['<p style=""font-size:44px"">Letters:<br><br><br><font color=""green"">Q</font> <font color=""green"">Y</font></p><br><br>']",0,ospan,practice_feedback,Uhp725jSdSdXQD0A432nJYv5ojQ2,html-button-response,59,501648,0.0-43.0-0.0-1.0-4.0,,,,,,,,,,,,,,,63d8267294c685a091016df0,13:38:13,06/03/2024
,"<p style=""font-size:75px;"">...</p>",,ospan,iti,Uhp725jSdSdXQD0A432nJYv5ojQ2,html-keyboard-response,60,502655,0.0-43.0-0.0-2.0-0.0,,,,,,,,,,,,,,,63d8267294c685a091016df0,13:38:13,06/03/2024
,"<div style=""font-size: 10rem; color: #0000FF"">R</div>",,ospan,letter,Uhp725jSdSdXQD0A432nJYv5ojQ2,html-keyboard-response,61,503664,0.0-43.0-0.0-2.0-1.0,,,,,,,,,,,,,,,63d8267294c685a091016df0,13:38:13,06/03/2024
,"<div style=""font-size: 10rem; color: #0000FF"">H</div>",,ospan,letter,Uhp725jSdSdXQD0A432nJYv5ojQ2,html-keyboard-response,62,505440,0.0-43.0-0.0-2.0-2.0,,,,,,,,,,,,,,,63d8267294c685a091016df0,13:38:13,06/03/2024
,"<div style=""font-size: 10rem; color: #0000FF"">P</div>",,ospan,letter,Uhp725jSdSdXQD0A432nJYv5ojQ2,html-keyboard-response,63,507216,0.0-43.0-0.0-2.0-3.0,,,,,,,,,,,,,,,63d8267294c685a091016df0,13:38:13,06/03/2024
5502.699999988079,"<div class = numbox><p style=""font-size: 2.4rem"">Please recall the letters you saw to the best of your ability. If you do not remember a particular letter, use the SKIP button.<br><b>(When you are ready to lock in your answer, press ENTER)</b></p><button id = button_1 class = ""square num-button"" onclick = ""recordClick(this)""><div class = content><div class = numbers>C</div></div></button><button id = button_2 class = ""square num-button"" onclick = ""recordClick(this)""><div class = content><div class = numbers>G</div></div></button><button id = button_3 class = ""square num-button"" onclick = ""recordClick(this)""><div class = content><div class = numbers>H</div></div></button><button id = button_4 class = ""square num-button"" onclick = ""recordClick(this)""><div class = content><div class = numbers>J</div></div></button><button id = button_5 class = ""square num-button"" onclick = ""recordClick(this)""><div class = content><div class = numbers>K</div></div></button><button id = button_6 class = ""square num-button"" onclick = ""recordClick(this)""><div class = content><div class = numbers>L</div></div></button><button id = button_7 class = ""square num-button"" onclick = ""recordClick(this)""><div class = content><div class = numbers>N</div></div></button><button id = button_8 class = ""square num-button"" onclick = ""recordClick(this)""><div class = content><div class = numbers>P</div></div></button><button id = button_9 class = ""square num-button"" onclick = ""recordClick(this)""><div class = content><div class = numbers>Q</div></div></button><button id = button_10 class = ""square num-button"" onclick = ""recordClick(this)""><div class = content><div class = numbers>R</div></div></button><button id = button_11 class = ""square num-button"" onclick = ""recordClick(this)""><div class = content><div class = numbers>S</div></div></button><button id = button_12 class = ""square num-button"" onclick = ""recordClick(this)""><div class = content><div class = numbers>Y</div></div></button><button class = clear_button id = ""ClearButton"" onclick = ""clearResponse()"">BACKSPACE</button><button class = blank_button id = ""BlankButton"" onclick = ""blankResponse()"">SKIP</button><p style=""font-size: 2.4rem""><u><b>Current Answer:</b></u></p><br><br><div id=echoed_txt style=""font-size: 5rem; color:blue;""><b></b></div></div>",enter,ospan,retrieval,Uhp725jSdSdXQD0A432nJYv5ojQ2,html-keyboard-response,64,513483,0.0-43.0-0.0-2.0-4.0,NA,NA,NA,3.0,"[""R"",""H"",""P""]","[""R"",""H"",""P""]",1.0,3.0,"['<font color=""green"">R</font>', '<font color=""green"">H</font>', '<font color=""green"">P</font>']",,,,,,63d8267294c685a091016df0,13:38:13,06/03/2024
2256.2000000029802,"['<p style=""font-size:44px"">Letters:<br><br><br><font color=""green"">R</font> <font color=""green"">H</font> <font color=""green"">P</font></p><br><br>']",0,ospan,practice_feedback,Uhp725jSdSdXQD0A432nJYv5ojQ2,html-button-response,65,516244,0.0-43.0-0.0-2.0-5.0,,,,,,,,,,,,,,,63d8267294c685a091016df0,13:38:13,06/03/2024
8360.59999999404,"<div class = 'left_align' style='font-size: 3.25rem; line-height: 1.3;'>Now you will practice doing the <b>symmetry judgment part</b> of the experiment.<br><br>A black and white grid picture will appear on the screen and you have to judge if it is <br>symmetrical or asymetrical.<br><br>A picture is 'mirror' symmetrical if its left half is identical to the right half when flipped.<br>Here are examples of a symmetrical and an asymetrical picture:<br><br><center><img src='Stimuli/img/symm_instructions_extra.png' style='height:420px; width:900'></img></center><br>To judge symmetry, imagine you were to fold each picture down the middle, like a book –<br>would the left half match the right half when folded onto each other?<br><br></div><br>",0,ospan,instruct,Uhp725jSdSdXQD0A432nJYv5ojQ2,html-button-response,66,524608,0.0-43.0-1.0-0.0-0.0,,,,,,,,,,,,,,,63d8267294c685a091016df0,13:38:13,06/03/2024
4533.0,"<div class = 'left_align' style='font-size: 3.25rem; line-height: 1.3;'>When you have viewed the picture and determined whether it is symmetrical or not,<br>you can <b>click the Yes or No button</b> below to answer.<br><br>If you take longer than 15 seconds, it will continue automatically<br>and record the answer as an error.</div><br>",0,ospan,instruct,Uhp725jSdSdXQD0A432nJYv5ojQ2,html-button-response,67,529404,0.0-43.0-1.0-0.0-1.0,,,,,,,,,,,,,,,63d8267294c685a091016df0,13:38:13,06/03/2024
3978.9000000059605,"<div class = 'left_align' style='font-size: 3.25rem; line-height: 1.3;'>It is <b>very</b> important that you make the symmetry judgment correctly.<br><br>It is also important that you try and judge the picture as quickly as you can.<br><br>When you are ready, click on the button below to try some practice problems.</div><br><br><br><br>",0,ospan,instruct,Uhp725jSdSdXQD0A432nJYv5ojQ2,html-button-response,68,533637,0.0-43.0-1.0-0.0-2.0,,,,,,,,,,,,,,,63d8267294c685a091016df0,13:38:13,06/03/2024
3737.0,,,ospan,symmetry,Uhp725jSdSdXQD0A432nJYv5ojQ2,symmetry-judgement-task,69,538177,0.0-43.0-1.0-1.0-0.0,,,,,,,,,,1.0,1.0,,,,63d8267294c685a091016df0,13:38:13,06/03/2024
,"<p style=""color:green; font-size: 35px"">Correct</p>",,ospan,feedback,Uhp725jSdSdXQD0A432nJYv5ojQ2,html-keyboard-response,70,538940,0.0-43.0-1.0-1.0-1.0,,,,,,,,,,,,,,,63d8267294c685a091016df0,13:38:13,06/03/2024
2402.0,,,ospan,symmetry,Uhp725jSdSdXQD0A432nJYv5ojQ2,symmetry-judgement-task,71,543994,0.0-43.0-1.0-1.0-2.0,,,,,,,,,,1.0,1.0,,,,63d8267294c685a091016df0,13:38:13,06/03/2024
,"<p style=""color:green; font-size: 35px"">Correct</p>",,ospan,feedback,Uhp725jSdSdXQD0A432nJYv5ojQ2,html-keyboard-response,72,544758,0.0-43.0-1.0-1.0-3.0,,,,,,,,,,,,,,,63d8267294c685a091016df0,13:38:13,06/03/2024
3131.0,,,ospan,symmetry,Uhp725jSdSdXQD0A432nJYv5ojQ2,symmetry-judgement-task,73,550535,0.0-43.0-1.0-1.0-4.0,,,,,,,,,,1.0,1.0,,,,63d8267294c685a091016df0,13:38:13,06/03/2024
,"<p style=""color:green; font-size: 35px"">Correct</p>",,ospan,feedback,Uhp725jSdSdXQD0A432nJYv5ojQ2,html-keyboard-response,74,551294,0.0-43.0-1.0-1.0-5.0,,,,,,,,,,,,,,,63d8267294c685a091016df0,13:38:13,06/03/2024
1788.7000000029802,"<p style=""font-size: 3rem;"">You responded correctly on 3 of 3 symmetry judgments. Good job!</p><br><br>",0,ospan,practice,Uhp725jSdSdXQD0A432nJYv5ojQ2,html-button-response,75,555088,0.0-43.0-1.0-2.0,,,,,,,,,,,,,,,63d8267294c685a091016df0,13:38:13,06/03/2024
3185.0,"<div class = 'left_align' style='font-size: 3.25rem; line-height: 1.3;'>Now you will practice doing both parts of the experiment at the same time.<br><br>In the next practice set, you will be given one grid picture to judge.<br>Then letter will appear on the screen. Try to remember the letter.<br><br>It is <b>very important</b> to make the symmetry judgment as quickly and accurately as possible.<br><br>Just as before, once you have make the symmetry judgment, you can click Yes or No.<br><b>Note that you will no longer see Correct or Incorrect feedback.</div><br><br><br><br>",0,ospan,instruct,Uhp725jSdSdXQD0A432nJYv5ojQ2,html-button-response,76,558525,0.0-43.0-2.0-0.0-0.0,,,,,,,,,,,,,,,63d8267294c685a091016df0,13:38:13,06/03/2024
1751.5,"<div class = 'left_align' style='font-size: 3.25rem; line-height: 1.3;'>After the letter goes away, another grid picture will appear, and then<br>another letter.<br><br>At the end of each set of letters and grids, you will recall the letters to the best<br>of your ability. Remember, try your best to get the letters in the correct order.<br><br>It is important to <b>quickly</b> and <b>accurately</b> make the symmetry judgments.</div><br><br><br><br>",0,ospan,instruct,Uhp725jSdSdXQD0A432nJYv5ojQ2,html-button-response,77,560528,0.0-43.0-2.0-0.0-1.0,,,,,,,,,,,,,,,63d8267294c685a091016df0,13:38:13,06/03/2024
3287.4000000059605,"<div class = 'left_align' style='font-size: 3.25rem; line-height: 1.3;'>On the feedback screen, if you are not doing well at the symmetry judgments,<br>you will also see a warning in the middle. This indicates your percent <br>correct for the grid pictures for the entire experiment.<br><br>It is <b>very</b> important for you to keep accuracy at least at 85%: <u>We can only use<br>data where the participant was at least 85% accurate on the judgments.</u> Therefore,<br> please try your best to perform well on the symmetry judgments, <b>at the same time</b><br>doing your best to recall as many letters as possible.<br><br>Click the button to try some practice problems.</div><br><br><br><br>",0,ospan,instruct,Uhp725jSdSdXQD0A432nJYv5ojQ2,html-button-response,78,564076,0.0-43.0-2.0-0.0-2.0,,,,,,,,,,,,,,,63d8267294c685a091016df0,13:38:13,06/03/2024
,"<p style=""font-size:75px;"">...</p>",,ospan,iti,Uhp725jSdSdXQD0A432nJYv5ojQ2,html-keyboard-response,79,565348,0.0-43.0-2.0-1.0-0.0,,,,,,,,,,,,,,,63d8267294c685a091016df0,13:38:13,06/03/2024
3080.0,,,ospan,symmetry,Uhp725jSdSdXQD0A432nJYv5ojQ2,symmetry-judgement-task,80,569477,0.0-43.0-2.0-1.0-1.0-0.0,,,,,,,,,,1.0,1.0,,,,63d8267294c685a091016df0,13:38:13,06/03/2024
,"<div style=""font-size: 10rem; color: #0000FF"">C</div>",,ospan,letter,Uhp725jSdSdXQD0A432nJYv5ojQ2,html-keyboard-response,81,570487,0.0-43.0-2.0-1.0-1.0-1.0,,,,,,,,,,,,,,,63d8267294c685a091016df0,13:38:13,06/03/2024
3107.0,,,ospan,symmetry,Uhp725jSdSdXQD0A432nJYv5ojQ2,symmetry-judgement-task,82,575500,0.0-43.0-2.0-1.0-1.0-2.0,,,,,,,,,,1.0,1.0,,,,63d8267294c685a091016df0,13:38:13,06/03/2024
,"<div style=""font-size: 10rem; color: #0000FF"">G</div>",,ospan,letter,Uhp725jSdSdXQD0A432nJYv5ojQ2,html-keyboard-response,83,576512,0.0-43.0-2.0-1.0-1.0-3.0,,,,,,,,,,,,,,,63d8267294c685a091016df0,13:38:13,06/03/2024
1981.0,,,ospan,symmetry,Uhp725jSdSdXQD0A432nJYv5ojQ2,symmetry-judgement-task,84,580389,0.0-43.0-2.0-1.0-1.0-4.0,,,,,,,,,,1.0,1.0,,,,63d8267294c685a091016df0,13:38:13,06/03/2024
,"<div style=""font-size: 10rem; color: #0000FF"">N</div>",,ospan,letter,Uhp725jSdSdXQD0A432nJYv5ojQ2,html-keyboard-response,85,581404,0.0-43.0-2.0-1.0-1.0-5.0,,,,,,,,,,,,,,,63d8267294c685a091016df0,13:38:13,06/03/2024
5696.5,"<div class = numbox><p style=""font-size: 2.4rem"">Please recall the letters you saw to the best of your ability. If you do not remember a particular letter, use the SKIP button.<br><b>(When you are ready to lock in your answer, press ENTER)</b></p><button id = button_1 class = ""square num-button"" onclick = ""recordClick(this)""><div class = content><div class = numbers>C</div></div></button><button id = button_2 class = ""square num-button"" onclick = ""recordClick(this)""><div class = content><div class = numbers>G</div></div></button><button id = button_3 class = ""square num-button"" onclick = ""recordClick(this)""><div class = content><div class = numbers>H</div></div></button><button id = button_4 class = ""square num-button"" onclick = ""recordClick(this)""><div class = content><div class = numbers>J</div></div></button><button id = button_5 class = ""square num-button"" onclick = ""recordClick(this)""><div class = content><div class = numbers>K</div></div></button><button id = button_6 class = ""square num-button"" onclick = ""recordClick(this)""><div class = content><div class = numbers>L</div></div></button><button id = button_7 class = ""square num-button"" onclick = ""recordClick(this)""><div class = content><div class = numbers>N</div></div></button><button id = button_8 class = ""square num-button"" onclick = ""recordClick(this)""><div class = content><div class = numbers>P</div></div></button><button id = button_9 class = ""square num-button"" onclick = ""recordClick(this)""><div class = content><div class = numbers>Q</div></div></button><button id = button_10 class = ""square num-button"" onclick = ""recordClick(this)""><div class = content><div class = numbers>R</div></div></button><button id = button_11 class = ""square num-button"" onclick = ""recordClick(this)""><div class = content><div class = numbers>S</div></div></button><button id = button_12 class = ""square num-button"" onclick = ""recordClick(this)""><div class = content><div class = numbers>Y</div></div></button><button class = clear_button id = ""ClearButton"" onclick = ""clearResponse()"">BACKSPACE</button><button class = blank_button id = ""BlankButton"" onclick = ""blankResponse()"">SKIP</button><p style=""font-size: 2.4rem""><u><b>Current Answer:</b></u></p><br><br><div id=echoed_txt style=""font-size: 5rem; color:blue;""><b></b></div></div>",enter,ospan,retrieval,Uhp725jSdSdXQD0A432nJYv5ojQ2,html-keyboard-response,86,587868,0.0-43.0-2.0-1.0-2.0-0.0,NA,NA,NA,3.0,"[""C"",""G"",""N""]","[""C"",""G"",""N""]",1.0,3.0,"['<font color=""green"">C</font>', '<font color=""green"">G</font>', '<font color=""green"">N</font>']",,,,,,63d8267294c685a091016df0,13:38:13,06/03/2024
1556.6000000089407,"['<p style=""font-size:44px"">Letters:<br><br><br><font color=""green"">C</font> <font color=""green"">G</font> <font color=""green"">N</font></p><br><br><p style=""font-size:30px"">Symmetry:<br><br><font color=""green"">100%</font></p><br><br>']",0,ospan,practice_feedback,Uhp725jSdSdXQD0A432nJYv5ojQ2,html-button-response,87,589940,0.0-43.0-2.0-1.0-2.0-1.0,,,,,,,,,,,,,,,63d8267294c685a091016df0,13:38:13,06/03/2024
,"<p style=""font-size:75px;"">...</p>",,ospan,iti,Uhp725jSdSdXQD0A432nJYv5ojQ2,html-keyboard-response,88,590954,0.0-43.0-2.0-2.0-0.0,,,,,,,,,,,,,,,63d8267294c685a091016df0,13:38:13,06/03/2024
1851.0,,,ospan,symmetry,Uhp725jSdSdXQD0A432nJYv5ojQ2,symmetry-judgement-task,89,593852,0.0-43.0-2.0-2.0-1.0-0.0,,,,,,,,,,1.0,1.0,,,,63d8267294c685a091016df0,13:38:13,06/03/2024
,"<div style=""font-size: 10rem; color: #0000FF"">J</div>",,ospan,letter,Uhp725jSdSdXQD0A432nJYv5ojQ2,html-keyboard-response,90,594869,0.0-43.0-2.0-2.0-1.0-1.0,,,,,,,,,,,,,,,63d8267294c685a091016df0,13:38:13,06/03/2024
1535.0,,,ospan,symmetry,Uhp725jSdSdXQD0A432nJYv5ojQ2,symmetry-judgement-task,91,598318,0.0-43.0-2.0-2.0-1.0-2.0,,,,,,,,,,1.0,1.0,,,,63d8267294c685a091016df0,13:38:13,06/03/2024
,"<div style=""font-size: 10rem; color: #0000FF"">G</div>",,ospan,letter,Uhp725jSdSdXQD0A432nJYv5ojQ2,html-keyboard-response,92,599333,0.0-43.0-2.0-2.0-1.0-3.0,,,,,,,,,,,,,,,63d8267294c685a091016df0,13:38:13,06/03/2024
2322.0,,,ospan,symmetry,Uhp725jSdSdXQD0A432nJYv5ojQ2,symmetry-judgement-task,93,603545,0.0-43.0-2.0-2.0-1.0-4.0,,,,,,,,,,1.0,1.0,,,,63d8267294c685a091016df0,13:38:13,06/03/2024
,"<div style=""font-size: 10rem; color: #0000FF"">K</div>",,ospan,letter,Uhp725jSdSdXQD0A432nJYv5ojQ2,html-keyboard-response,94,604561,0.0-43.0-2.0-2.0-1.0-5.0,,,,,,,,,,,,,,,63d8267294c685a091016df0,13:38:13,06/03/2024
6778.79999999702,"<div class = numbox><p style=""font-size: 2.4rem"">Please recall the letters you saw to the best of your ability. If you do not remember a particular letter, use the SKIP button.<br><b>(When you are ready to lock in your answer, press ENTER)</b></p><button id = button_1 class = ""square num-button"" onclick = ""recordClick(this)""><div class = content><div class = numbers>C</div></div></button><button id = button_2 class = ""square num-button"" onclick = ""recordClick(this)""><div class = content><div class = numbers>G</div></div></button><button id = button_3 class = ""square num-button"" onclick = ""recordClick(this)""><div class = content><div class = numbers>H</div></div></button><button id = button_4 class = ""square num-button"" onclick = ""recordClick(this)""><div class = content><div class = numbers>J</div></div></button><button id = button_5 class = ""square num-button"" onclick = ""recordClick(this)""><div class = content><div class = numbers>K</div></div></button><button id = button_6 class = ""square num-button"" onclick = ""recordClick(this)""><div class = content><div class = numbers>L</div></div></button><button id = button_7 class = ""square num-button"" onclick = ""recordClick(this)""><div class = content><div class = numbers>N</div></div></button><button id = button_8 class = ""square num-button"" onclick = ""recordClick(this)""><div class = content><div class = numbers>P</div></div></button><button id = button_9 class = ""square num-button"" onclick = ""recordClick(this)""><div class = content><div class = numbers>Q</div></div></button><button id = button_10 class = ""square num-button"" onclick = ""recordClick(this)""><div class = content><div class = numbers>R</div></div></button><button id = button_11 class = ""square num-button"" onclick = ""recordClick(this)""><div class = content><div class = numbers>S</div></div></button><button id = button_12 class = ""square num-button"" onclick = ""recordClick(this)""><div class = content><div class = numbers>Y</div></div></button><button class = clear_button id = ""ClearButton"" onclick = ""clearResponse()"">BACKSPACE</button><button class = blank_button id = ""BlankButton"" onclick = ""blankResponse()"">SKIP</button><p style=""font-size: 2.4rem""><u><b>Current Answer:</b></u></p><br><br><div id=echoed_txt style=""font-size: 5rem; color:blue;""><b></b></div></div>",enter,ospan,retrieval,Uhp725jSdSdXQD0A432nJYv5ojQ2,html-keyboard-response,95,612105,0.0-43.0-2.0-2.0-2.0-0.0,NA,NA,NA,3.0,"[""J"",""G"",""K""]","[""J"",""G"",""K""]",1.0,3.0,"['<font color=""green"">J</font>', '<font color=""green"">G</font>', '<font color=""green"">K</font>']",,,,,,63d8267294c685a091016df0,13:38:13,06/03/2024
1086.2000000029802,"['<p style=""font-size:44px"">Letters:<br><br><br><font color=""green"">J</font> <font color=""green"">G</font> <font color=""green"">K</font></p><br><br><p style=""font-size:30px"">Symmetry:<br><br><font color=""green"">100%</font></p><br><br>']",0,ospan,practice_feedback,Uhp725jSdSdXQD0A432nJYv5ojQ2,html-button-response,96,613708,0.0-43.0-2.0-2.0-2.0-1.0,,,,,,,,,,,,,,,63d8267294c685a091016df0,13:38:13,06/03/2024
3219.0,"<div class = 'left_align' style='font-size: 3rem; line-height: 1.3;'><b>Great work! That is the end of practice.</b><br><br>The real trials will look just like the practice trials you just completed.<br><br><u>Here, you will not see feedback</u>. First, you will see an grid picture to judge,<br>then a letter to remember. When the recall screen appears, report the letters in the<br>order presented. If you forget a letter, remember to use the <b>blank</b> button to move to the<br>next letter. Some of the sets will have more symmetry grids and letters than others.<br><br>It is important that you do your best on both the symmetry judgments and the letter recall<br>parts of the experiment. For for the symmetry judgments, try to work as <b>quickly</b> and <br>as <b>accurately</b> as possible. Remember to keep your symmetry accuracy at 85% or above.<br><br><b>For the letters, do NOT use any external aid (e.g., writing on paper, electronic device).</b><br><br>It is <u>very important</u> to our experiment to have a <b>true</b> view of your real performance.<br><br>Do not worry if you miss some when it gets hard! This task is meant to be very challenging!<br><br>Click the button to begin.</div><br><br><br><br>",0,ospan,starting_real_here,Uhp725jSdSdXQD0A432nJYv5ojQ2,html-button-response,97,616928,0.0-43.0-2.0-3.0,,,,,,,,,,,,,,,63d8267294c685a091016df0,13:38:13,06/03/2024
,"<p style=""font-size:75px;"">...</p>",,ospan,iti,Uhp725jSdSdXQD0A432nJYv5ojQ2,html-keyboard-response,98,618186,0.0-43.0-3.0-0.0-0.0,,,,,,,,,,,,,,,63d8267294c685a091016df0,13:38:13,06/03/2024
2200.0,,,ospan,symmetry,Uhp725jSdSdXQD0A432nJYv5ojQ2,symmetry-judgement-task,99,621431,0.0-43.0-3.0-0.0-1.0-0.0,,,,,,,,,,1.0,1.0,,,,63d8267294c685a091016df0,13:38:13,06/03/2024
,"<div style=""font-size: 10rem; color: #0000FF"">J</div>",,ospan,letter,Uhp725jSdSdXQD0A432nJYv5ojQ2,html-keyboard-response,100,622443,0.0-43.0-3.0-0.0-1.0-1.0,,,,,,,,,,,,,,,63d8267294c685a091016df0,13:38:13,06/03/2024
1968.0,,,ospan,symmetry,Uhp725jSdSdXQD0A432nJYv5ojQ2,symmetry-judgement-task,101,626216,0.0-43.0-3.0-0.0-1.0-2.0,,,,,,,,,,1.0,1.0,,,,63d8267294c685a091016df0,13:38:13,06/03/2024
,"<div style=""font-size: 10rem; color: #0000FF"">G</div>",,ospan,letter,Uhp725jSdSdXQD0A432nJYv5ojQ2,html-keyboard-response,102,627229,0.0-43.0-3.0-0.0-1.0-3.0,,,,,,,,,,,,,,,63d8267294c685a091016df0,13:38:13,06/03/2024
2085.0,,,ospan,symmetry,Uhp725jSdSdXQD0A432nJYv5ojQ2,symmetry-judgement-task,103,631224,0.0-43.0-3.0-0.0-1.0-4.0,,,,,,,,,,1.0,1.0,,,,63d8267294c685a091016df0,13:38:13,06/03/2024
,"<div style=""font-size: 10rem; color: #0000FF"">P</div>",,ospan,letter,Uhp725jSdSdXQD0A432nJYv5ojQ2,html-keyboard-response,104,632239,0.0-43.0-3.0-0.0-1.0-5.0,,,,,,,,,,,,,,,63d8267294c685a091016df0,13:38:13,06/03/2024
4720.0,"<div class = numbox><p style=""font-size: 2.4rem"">Please recall the letters you saw to the best of your ability. If you do not remember a particular letter, use the SKIP button.<br><b>(When you are ready to lock in your answer, press ENTER)</b></p><button id = button_1 class = ""square num-button"" onclick = ""recordClick(this)""><div class = content><div class = numbers>C</div></div></button><button id = button_2 class = ""square num-button"" onclick = ""recordClick(this)""><div class = content><div class = numbers>G</div></div></button><button id = button_3 class = ""square num-button"" onclick = ""recordClick(this)""><div class = content><div class = numbers>H</div></div></button><button id = button_4 class = ""square num-button"" onclick = ""recordClick(this)""><div class = content><div class = numbers>J</div></div></button><button id = button_5 class = ""square num-button"" onclick = ""recordClick(this)""><div class = content><div class = numbers>K</div></div></button><button id = button_6 class = ""square num-button"" onclick = ""recordClick(this)""><div class = content><div class = numbers>L</div></div></button><button id = button_7 class = ""square num-button"" onclick = ""recordClick(this)""><div class = content><div class = numbers>N</div></div></button><button id = button_8 class = ""square num-button"" onclick = ""recordClick(this)""><div class = content><div class = numbers>P</div></div></button><button id = button_9 class = ""square num-button"" onclick = ""recordClick(this)""><div class = content><div class = numbers>Q</div></div></button><button id = button_10 class = ""square num-button"" onclick = ""recordClick(this)""><div class = content><div class = numbers>R</div></div></button><button id = button_11 class = ""square num-button"" onclick = ""recordClick(this)""><div class = content><div class = numbers>S</div></div></button><button id = button_12 class = ""square num-button"" onclick = ""recordClick(this)""><div class = content><div class = numbers>Y</div></div></button><button class = clear_button id = ""ClearButton"" onclick = ""clearResponse()"">BACKSPACE</button><button class = blank_button id = ""BlankButton"" onclick = ""blankResponse()"">SKIP</button><p style=""font-size: 2.4rem""><u><b>Current Answer:</b></u></p><br><br><div id=echoed_txt style=""font-size: 5rem; color:blue;""><b></b></div></div>",enter,ospan,retrieval,Uhp725jSdSdXQD0A432nJYv5ojQ2,html-keyboard-response,105,637726,0.0-43.0-3.0-0.0-2.0,3,3,3,3.0,"[""J"",""G"",""P""]","[""J"",""G"",""P""]",1.0,3.0,,,,,,,63d8267294c685a091016df0,13:38:13,06/03/2024
1600.7000000029802,[''],0,ospan,feedback,Uhp725jSdSdXQD0A432nJYv5ojQ2,html-button-response,106,639832,0.0-43.0-3.0-0.0-3.0,,,,,,,,,,,,100.0,0.0,,63d8267294c685a091016df0,13:38:13,06/03/2024
,"<p style=""font-size:75px;"">...</p>",,ospan,iti,Uhp725jSdSdXQD0A432nJYv5ojQ2,html-keyboard-response,107,640835,0.0-43.0-4.0-0.0-0.0,,,,,,,,,,,,,,,63d8267294c685a091016df0,13:38:13,06/03/2024
1534.0,,,ospan,symmetry,Uhp725jSdSdXQD0A432nJYv5ojQ2,symmetry-judgement-task,108,643501,0.0-43.0-4.0-0.0-1.0-0.0,,,,,,,,,,1.0,1.0,,,,63d8267294c685a091016df0,13:38:13,06/03/2024
,"<div style=""font-size: 10rem; color: #0000FF"">G</div>",,ospan,letter,Uhp725jSdSdXQD0A432nJYv5ojQ2,html-keyboard-response,109,644515,0.0-43.0-4.0-0.0-1.0-1.0,,,,,,,,,,,,,,,63d8267294c685a091016df0,13:38:13,06/03/2024
1732.0,,,ospan,symmetry,Uhp725jSdSdXQD0A432nJYv5ojQ2,symmetry-judgement-task,110,648132,0.0-43.0-4.0-0.0-1.0-2.0,,,,,,,,,,1.0,1.0,,,,63d8267294c685a091016df0,13:38:13,06/03/2024
,"<div style=""font-size: 10rem; color: #0000FF"">H</div>",,ospan,letter,Uhp725jSdSdXQD0A432nJYv5ojQ2,html-keyboard-response,111,649145,0.0-43.0-4.0-0.0-1.0-3.0,,,,,,,,,,,,,,,63d8267294c685a091016df0,13:38:13,06/03/2024
1700.0,,,ospan,symmetry,Uhp725jSdSdXQD0A432nJYv5ojQ2,symmetry-judgement-task,112,652741,0.0-43.0-4.0-0.0-1.0-4.0,,,,,,,,,,1.0,1.0,,,,63d8267294c685a091016df0,13:38:13,06/03/2024
,"<div style=""font-size: 10rem; color: #0000FF"">P</div>",,ospan,letter,Uhp725jSdSdXQD0A432nJYv5ojQ2,html-keyboard-response,113,653756,0.0-43.0-4.0-0.0-1.0-5.0,,,,,,,,,,,,,,,63d8267294c685a091016df0,13:38:13,06/03/2024
1551.0,,,ospan,symmetry,Uhp725jSdSdXQD0A432nJYv5ojQ2,symmetry-judgement-task,114,657210,0.0-43.0-4.0-0.0-1.0-6.0,,,,,,,,,,1.0,1.0,,,,63d8267294c685a091016df0,13:38:13,06/03/2024
,"<div style=""font-size: 10rem; color: #0000FF"">C</div>",,ospan,letter,Uhp725jSdSdXQD0A432nJYv5ojQ2,html-keyboard-response,115,658223,0.0-43.0-4.0-0.0-1.0-7.0,,,,,,,,,,,,,,,63d8267294c685a091016df0,13:38:13,06/03/2024
5608.9000000059605,"<div class = numbox><p style=""font-size: 2.4rem"">Please recall the letters you saw to the best of your ability. If you do not remember a particular letter, use the SKIP button.<br><b>(When you are ready to lock in your answer, press ENTER)</b></p><button id = button_1 class = ""square num-button"" onclick = ""recordClick(this)""><div class = content><div class = numbers>C</div></div></button><button id = button_2 class = ""square num-button"" onclick = ""recordClick(this)""><div class = content><div class = numbers>G</div></div></button><button id = button_3 class = ""square num-button"" onclick = ""recordClick(this)""><div class = content><div class = numbers>H</div></div></button><button id = button_4 class = ""square num-button"" onclick = ""recordClick(this)""><div class = content><div class = numbers>J</div></div></button><button id = button_5 class = ""square num-button"" onclick = ""recordClick(this)""><div class = content><div class = numbers>K</div></div></button><button id = button_6 class = ""square num-button"" onclick = ""recordClick(this)""><div class = content><div class = numbers>L</div></div></button><button id = button_7 class = ""square num-button"" onclick = ""recordClick(this)""><div class = content><div class = numbers>N</div></div></button><button id = button_8 class = ""square num-button"" onclick = ""recordClick(this)""><div class = content><div class = numbers>P</div></div></button><button id = button_9 class = ""square num-button"" onclick = ""recordClick(this)""><div class = content><div class = numbers>Q</div></div></button><button id = button_10 class = ""square num-button"" onclick = ""recordClick(this)""><div class = content><div class = numbers>R</div></div></button><button id = button_11 class = ""square num-button"" onclick = ""recordClick(this)""><div class = content><div class = numbers>S</div></div></button><button id = button_12 class = ""square num-button"" onclick = ""recordClick(this)""><div class = content><div class = numbers>Y</div></div></button><button class = clear_button id = ""ClearButton"" onclick = ""clearResponse()"">BACKSPACE</button><button class = blank_button id = ""BlankButton"" onclick = ""blankResponse()"">SKIP</button><p style=""font-size: 2.4rem""><u><b>Current Answer:</b></u></p><br><br><div id=echoed_txt style=""font-size: 5rem; color:blue;""><b></b></div></div>",enter,ospan,retrieval,Uhp725jSdSdXQD0A432nJYv5ojQ2,html-keyboard-response,116,664597,0.0-43.0-4.0-0.0-2.0,7,7,7,4.0,"[""G"",""H"",""P"",""C""]","[""G"",""H"",""P"",""C""]",1.0,4.0,,,,,,,63d8267294c685a091016df0,13:38:13,06/03/2024
1840.1000000089407,[''],0,ospan,feedback,Uhp725jSdSdXQD0A432nJYv5ojQ2,html-button-response,117,666948,0.0-43.0-4.0-0.0-3.0,,,,,,,,,,,,100.0,0.0,,63d8267294c685a091016df0,13:38:13,06/03/2024
,"<p style=""font-size:75px;"">...</p>",,ospan,iti,Uhp725jSdSdXQD0A432nJYv5ojQ2,html-keyboard-response,118,667950,0.0-43.0-4.0-1.0-0.0,,,,,,,,,,,,,,,63d8267294c685a091016df0,13:38:13,06/03/2024
2460.0,,,ospan,symmetry,Uhp725jSdSdXQD0A432nJYv5ojQ2,symmetry-judgement-task,119,671455,0.0-43.0-4.0-1.0-1.0-0.0,,,,,,,,,,1.0,1.0,,,,63d8267294c685a091016df0,13:38:13,06/03/2024
,"<div style=""font-size: 10rem; color: #0000FF"">L</div>",,ospan,letter,Uhp725jSdSdXQD0A432nJYv5ojQ2,html-keyboard-response,120,672467,0.0-43.0-4.0-1.0-1.0-1.0,,,,,,,,,,,,,,,63d8267294c685a091016df0,13:38:13,06/03/2024
1391.0,,,ospan,symmetry,Uhp725jSdSdXQD0A432nJYv5ojQ2,symmetry-judgement-task,121,675779,0.0-43.0-4.0-1.0-1.0-2.0,,,,,,,,,,1.0,1.0,,,,63d8267294c685a091016df0,13:38:13,06/03/2024
,"<div style=""font-size: 10rem; color: #0000FF"">P</div>",,ospan,letter,Uhp725jSdSdXQD0A432nJYv5ojQ2,html-keyboard-response,122,676792,0.0-43.0-4.0-1.0-1.0-3.0,,,,,,,,,,,,,,,63d8267294c685a091016df0,13:38:13,06/03/2024
1201.0,,,ospan,symmetry,Uhp725jSdSdXQD0A432nJYv5ojQ2,symmetry-judgement-task,123,679886,0.0-43.0-4.0-1.0-1.0-4.0,,,,,,,,,,1.0,1.0,,,,63d8267294c685a091016df0,13:38:13,06/03/2024
,"<div style=""font-size: 10rem; color: #0000FF"">H</div>",,ospan,letter,Uhp725jSdSdXQD0A432nJYv5ojQ2,html-keyboard-response,124,680900,0.0-43.0-4.0-1.0-1.0-5.0,,,,,,,,,,,,,,,63d8267294c685a091016df0,13:38:13,06/03/2024
2095.0,,,ospan,symmetry,Uhp725jSdSdXQD0A432nJYv5ojQ2,symmetry-judgement-task,125,684897,0.0-43.0-4.0-1.0-1.0-6.0,,,,,,,,,,1.0,1.0,,,,63d8267294c685a091016df0,13:38:13,06/03/2024
,"<div style=""font-size: 10rem; color: #0000FF"">Y</div>",,ospan,letter,Uhp725jSdSdXQD0A432nJYv5ojQ2,html-keyboard-response,126,685910,0.0-43.0-4.0-1.0-1.0-7.0,,,,,,,,,,,,,,,63d8267294c685a091016df0,13:38:13,06/03/2024
1951.0,,,ospan,symmetry,Uhp725jSdSdXQD0A432nJYv5ojQ2,symmetry-judgement-task,127,689760,0.0-43.0-4.0-1.0-1.0-8.0,,,,,,,,,,1.0,1.0,,,,63d8267294c685a091016df0,13:38:13,06/03/2024
,"<div style=""font-size: 10rem; color: #0000FF"">G</div>",,ospan,letter,Uhp725jSdSdXQD0A432nJYv5ojQ2,html-keyboard-response,128,690774,0.0-43.0-4.0-1.0-1.0-9.0,,,,,,,,,,,,,,,63d8267294c685a091016df0,13:38:13,06/03/2024
7296.0,"<div class = numbox><p style=""font-size: 2.4rem"">Please recall the letters you saw to the best of your ability. If you do not remember a particular letter, use the SKIP button.<br><b>(When you are ready to lock in your answer, press ENTER)</b></p><button id = button_1 class = ""square num-button"" onclick = ""recordClick(this)""><div class = content><div class = numbers>C</div></div></button><button id = button_2 class = ""square num-button"" onclick = ""recordClick(this)""><div class = content><div class = numbers>G</div></div></button><button id = button_3 class = ""square num-button"" onclick = ""recordClick(this)""><div class = content><div class = numbers>H</div></div></button><button id = button_4 class = ""square num-button"" onclick = ""recordClick(this)""><div class = content><div class = numbers>J</div></div></button><button id = button_5 class = ""square num-button"" onclick = ""recordClick(this)""><div class = content><div class = numbers>K</div></div></button><button id = button_6 class = ""square num-button"" onclick = ""recordClick(this)""><div class = content><div class = numbers>L</div></div></button><button id = button_7 class = ""square num-button"" onclick = ""recordClick(this)""><div class = content><div class = numbers>N</div></div></button><button id = button_8 class = ""square num-button"" onclick = ""recordClick(this)""><div class = content><div class = numbers>P</div></div></button><button id = button_9 class = ""square num-button"" onclick = ""recordClick(this)""><div class = content><div class = numbers>Q</div></div></button><button id = button_10 class = ""square num-button"" onclick = ""recordClick(this)""><div class = content><div class = numbers>R</div></div></button><button id = button_11 class = ""square num-button"" onclick = ""recordClick(this)""><div class = content><div class = numbers>S</div></div></button><button id = button_12 class = ""square num-button"" onclick = ""recordClick(this)""><div class = content><div class = numbers>Y</div></div></button><button class = clear_button id = ""ClearButton"" onclick = ""clearResponse()"">BACKSPACE</button><button class = blank_button id = ""BlankButton"" onclick = ""blankResponse()"">SKIP</button><p style=""font-size: 2.4rem""><u><b>Current Answer:</b></u></p><br><br><div id=echoed_txt style=""font-size: 5rem; color:blue;""><b></b></div></div>",enter,ospan,retrieval,Uhp725jSdSdXQD0A432nJYv5ojQ2,html-keyboard-response,129,698837,0.0-43.0-4.0-1.0-2.0,12,12,12,5.0,"[""L"",""P"",""H"",""Y"",""G""]","[""L"",""P"",""H"",""Y"",""G""]",1.0,5.0,,,,,,,63d8267294c685a091016df0,13:38:13,06/03/2024
1771.8999999910593,[''],0,ospan,feedback,Uhp725jSdSdXQD0A432nJYv5ojQ2,html-button-response,130,701120,0.0-43.0-4.0-1.0-3.0,,,,,,,,,,,,100.0,0.0,,63d8267294c685a091016df0,13:38:13,06/03/2024
,"<p style=""font-size:75px;"">...</p>",,ospan,iti,Uhp725jSdSdXQD0A432nJYv5ojQ2,html-keyboard-response,131,702133,0.0-43.0-4.0-2.0-0.0,,,,,,,,,,,,,,,63d8267294c685a091016df0,13:38:13,06/03/2024
2196.0,,,ospan,symmetry,Uhp725jSdSdXQD0A432nJYv5ojQ2,symmetry-judgement-task,132,705459,0.0-43.0-4.0-2.0-1.0-0.0,,,,,,,,,,1.0,1.0,,,,63d8267294c685a091016df0,13:38:13,06/03/2024
,"<div style=""font-size: 10rem; color: #0000FF"">C</div>",,ospan,letter,Uhp725jSdSdXQD0A432nJYv5ojQ2,html-keyboard-response,133,706472,0.0-43.0-4.0-2.0-1.0-1.0,,,,,,,,,,,,,,,63d8267294c685a091016df0,13:38:13,06/03/2024
1619.0,,,ospan,symmetry,Uhp725jSdSdXQD0A432nJYv5ojQ2,symmetry-judgement-task,134,709993,0.0-43.0-4.0-2.0-1.0-2.0,,,,,,,,,,1.0,1.0,,,,63d8267294c685a091016df0,13:38:13,06/03/2024
,"<div style=""font-size: 10rem; color: #0000FF"">L</div>",,ospan,letter,Uhp725jSdSdXQD0A432nJYv5ojQ2,html-keyboard-response,135,711005,0.0-43.0-4.0-2.0-1.0-3.0,,,,,,,,,,,,,,,63d8267294c685a091016df0,13:38:13,06/03/2024
1453.0,,,ospan,symmetry,Uhp725jSdSdXQD0A432nJYv5ojQ2,symmetry-judgement-task,136,714353,0.0-43.0-4.0-2.0-1.0-4.0,,,,,,,,,,1.0,1.0,,,,63d8267294c685a091016df0,13:38:13,06/03/2024
,"<div style=""font-size: 10rem; color: #0000FF"">P</div>",,ospan,letter,Uhp725jSdSdXQD0A432nJYv5ojQ2,html-keyboard-response,137,715368,0.0-43.0-4.0-2.0-1.0-5.0,,,,,,,,,,,,,,,63d8267294c685a091016df0,13:38:13,06/03/2024
4545.899999991059,"<div class = numbox><p style=""font-size: 2.4rem"">Please recall the letters you saw to the best of your ability. If you do not remember a particular letter, use the SKIP button.<br><b>(When you are ready to lock in your answer, press ENTER)</b></p><button id = button_1 class = ""square num-button"" onclick = ""recordClick(this)""><div class = content><div class = numbers>C</div></div></button><button id = button_2 class = ""square num-button"" onclick = ""recordClick(this)""><div class = content><div class = numbers>G</div></div></button><button id = button_3 class = ""square num-button"" onclick = ""recordClick(this)""><div class = content><div class = numbers>H</div></div></button><button id = button_4 class = ""square num-button"" onclick = ""recordClick(this)""><div class = content><div class = numbers>J</div></div></button><button id = button_5 class = ""square num-button"" onclick = ""recordClick(this)""><div class = content><div class = numbers>K</div></div></button><button id = button_6 class = ""square num-button"" onclick = ""recordClick(this)""><div class = content><div class = numbers>L</div></div></button><button id = button_7 class = ""square num-button"" onclick = ""recordClick(this)""><div class = content><div class = numbers>N</div></div></button><button id = button_8 class = ""square num-button"" onclick = ""recordClick(this)""><div class = content><div class = numbers>P</div></div></button><button id = button_9 class = ""square num-button"" onclick = ""recordClick(this)""><div class = content><div class = numbers>Q</div></div></button><button id = button_10 class = ""square num-button"" onclick = ""recordClick(this)""><div class = content><div class = numbers>R</div></div></button><button id = button_11 class = ""square num-button"" onclick = ""recordClick(this)""><div class = content><div class = numbers>S</div></div></button><button id = button_12 class = ""square num-button"" onclick = ""recordClick(this)""><div class = content><div class = numbers>Y</div></div></button><button class = clear_button id = ""ClearButton"" onclick = ""clearResponse()"">BACKSPACE</button><button class = blank_button id = ""BlankButton"" onclick = ""blankResponse()"">SKIP</button><p style=""font-size: 2.4rem""><u><b>Current Answer:</b></u></p><br><br><div id=echoed_txt style=""font-size: 5rem; color:blue;""><b></b></div></div>",enter,ospan,retrieval,Uhp725jSdSdXQD0A432nJYv5ojQ2,html-keyboard-response,138,720682,0.0-43.0-4.0-2.0-2.0,15,15,15,3.0,"[""C"",""L"",""P""]","[""C"",""L"",""P""]",1.0,3.0,,,,,,,63d8267294c685a091016df0,13:38:13,06/03/2024
1026.8999999910593,[''],0,ospan,feedback,Uhp725jSdSdXQD0A432nJYv5ojQ2,html-button-response,139,722219,0.0-43.0-4.0-2.0-3.0,,,,,,,,,,,,100.0,0.0,,63d8267294c685a091016df0,13:38:13,06/03/2024
,"<p style=""font-size:75px;"">...</p>",,ospan,iti,Uhp725jSdSdXQD0A432nJYv5ojQ2,html-keyboard-response,140,723220,0.0-43.0-5.0-0.0-0.0,,,,,,,,,,,,,,,63d8267294c685a091016df0,13:38:13,06/03/2024
1882.0,,,ospan,symmetry,Uhp725jSdSdXQD0A432nJYv5ojQ2,symmetry-judgement-task,141,726147,0.0-43.0-5.0-0.0-1.0-0.0,,,,,,,,,,1.0,1.0,,,,63d8267294c685a091016df0,13:38:13,06/03/2024
,"<div style=""font-size: 10rem; color: #0000FF"">G</div>",,ospan,letter,Uhp725jSdSdXQD0A432nJYv5ojQ2,html-keyboard-response,142,727161,0.0-43.0-5.0-0.0-1.0-1.0,,,,,,,,,,,,,,,63d8267294c685a091016df0,13:38:13,06/03/2024
1818.0,,,ospan,symmetry,Uhp725jSdSdXQD0A432nJYv5ojQ2,symmetry-judgement-task,143,730883,0.0-43.0-5.0-0.0-1.0-2.0,,,,,,,,,,1.0,1.0,,,,63d8267294c685a091016df0,13:38:13,06/03/2024
,"<div style=""font-size: 10rem; color: #0000FF"">H</div>",,ospan,letter,Uhp725jSdSdXQD0A432nJYv5ojQ2,html-keyboard-response,144,731896,0.0-43.0-5.0-0.0-1.0-3.0,,,,,,,,,,,,,,,63d8267294c685a091016df0,13:38:13,06/03/2024
2442.0,,,ospan,symmetry,Uhp725jSdSdXQD0A432nJYv5ojQ2,symmetry-judgement-task,145,736221,0.0-43.0-5.0-0.0-1.0-4.0,,,,,,,,,,1.0,1.0,,,,63d8267294c685a091016df0,13:38:13,06/03/2024
,"<div style=""font-size: 10rem; color: #0000FF"">N</div>",,ospan,letter,Uhp725jSdSdXQD0A432nJYv5ojQ2,html-keyboard-response,146,737232,0.0-43.0-5.0-0.0-1.0-5.0,,,,,,,,,,,,,,,63d8267294c685a091016df0,13:38:13,06/03/2024
1747.0,,,ospan,symmetry,Uhp725jSdSdXQD0A432nJYv5ojQ2,symmetry-judgement-task,147,740895,0.0-43.0-5.0-0.0-1.0-6.0,,,,,,,,,,1.0,1.0,,,,63d8267294c685a091016df0,13:38:13,06/03/2024
,"<div style=""font-size: 10rem; color: #0000FF"">R</div>",,ospan,letter,Uhp725jSdSdXQD0A432nJYv5ojQ2,html-keyboard-response,148,741907,0.0-43.0-5.0-0.0-1.0-7.0,,,,,,,,,,,,,,,63d8267294c685a091016df0,13:38:13,06/03/2024
2358.0,,,ospan,symmetry,Uhp725jSdSdXQD0A432nJYv5ojQ2,symmetry-judgement-task,149,746157,0.0-43.0-5.0-0.0-1.0-8.0,,,,,,,,,,1.0,1.0,,,,63d8267294c685a091016df0,13:38:13,06/03/2024
,"<div style=""font-size: 10rem; color: #0000FF"">Y</div>",,ospan,letter,Uhp725jSdSdXQD0A432nJYv5ojQ2,html-keyboard-response,150,747171,0.0-43.0-5.0-0.0-1.0-9.0,,,,,,,,,,,,,,,63d8267294c685a091016df0,13:38:13,06/03/2024
1713.0,,,ospan,symmetry,Uhp725jSdSdXQD0A432nJYv5ojQ2,symmetry-judgement-task,151,750786,0.0-43.0-5.0-0.0-1.0-10.0,,,,,,,,,,1.0,1.0,,,,63d8267294c685a091016df0,13:38:13,06/03/2024
,"<div style=""font-size: 10rem; color: #0000FF"">Q</div>",,ospan,letter,Uhp725jSdSdXQD0A432nJYv5ojQ2,html-keyboard-response,152,751802,0.0-43.0-5.0-0.0-1.0-11.0,,,,,,,,,,,,,,,63d8267294c685a091016df0,13:38:13,06/03/2024
9469.0,"<div class = numbox><p style=""font-size: 2.4rem"">Please recall the letters you saw to the best of your ability. If you do not remember a particular letter, use the SKIP button.<br><b>(When you are ready to lock in your answer, press ENTER)</b></p><button id = button_1 class = ""square num-button"" onclick = ""recordClick(this)""><div class = content><div class = numbers>C</div></div></button><button id = button_2 class = ""square num-button"" onclick = ""recordClick(this)""><div class = content><div class = numbers>G</div></div></button><button id = button_3 class = ""square num-button"" onclick = ""recordClick(this)""><div class = content><div class = numbers>H</div></div></button><button id = button_4 class = ""square num-button"" onclick = ""recordClick(this)""><div class = content><div class = numbers>J</div></div></button><button id = button_5 class = ""square num-button"" onclick = ""recordClick(this)""><div class = content><div class = numbers>K</div></div></button><button id = button_6 class = ""square num-button"" onclick = ""recordClick(this)""><div class = content><div class = numbers>L</div></div></button><button id = button_7 class = ""square num-button"" onclick = ""recordClick(this)""><div class = content><div class = numbers>N</div></div></button><button id = button_8 class = ""square num-button"" onclick = ""recordClick(this)""><div class = content><div class = numbers>P</div></div></button><button id = button_9 class = ""square num-button"" onclick = ""recordClick(this)""><div class = content><div class = numbers>Q</div></div></button><button id = button_10 class = ""square num-button"" onclick = ""recordClick(this)""><div class = content><div class = numbers>R</div></div></button><button id = button_11 class = ""square num-button"" onclick = ""recordClick(this)""><div class = content><div class = numbers>S</div></div></button><button id = button_12 class = ""square num-button"" onclick = ""recordClick(this)""><div class = content><div class = numbers>Y</div></div></button><button class = clear_button id = ""ClearButton"" onclick = ""clearResponse()"">BACKSPACE</button><button class = blank_button id = ""BlankButton"" onclick = ""blankResponse()"">SKIP</button><p style=""font-size: 2.4rem""><u><b>Current Answer:</b></u></p><br><br><div id=echoed_txt style=""font-size: 5rem; color:blue;""><b></b></div></div>",enter,ospan,retrieval,Uhp725jSdSdXQD0A432nJYv5ojQ2,html-keyboard-response,153,762037,0.0-43.0-5.0-0.0-2.0,21,21,21,6.0,"[""G"",""H"",""N"",""R"",""Y"",""Q""]","[""G"",""H"",""N"",""R"",""Y"",""Q""]",1.0,6.0,,,,,,,63d8267294c685a091016df0,13:38:13,06/03/2024
5938.5,[''],0,ospan,feedback,Uhp725jSdSdXQD0A432nJYv5ojQ2,html-button-response,154,768479,0.0-43.0-5.0-0.0-3.0,,,,,,,,,,,,100.0,0.0,,63d8267294c685a091016df0,13:38:13,06/03/2024
,"<p style=""font-size:75px;"">...</p>",,ospan,iti,Uhp725jSdSdXQD0A432nJYv5ojQ2,html-keyboard-response,155,769482,0.0-43.0-5.0-1.0-0.0,,,,,,,,,,,,,,,63d8267294c685a091016df0,13:38:13,06/03/2024
1737.0,,,ospan,symmetry,Uhp725jSdSdXQD0A432nJYv5ojQ2,symmetry-judgement-task,156,772353,0.0-43.0-5.0-1.0-1.0-0.0,,,,,,,,,,1.0,1.0,,,,63d8267294c685a091016df0,13:38:13,06/03/2024
,"<div style=""font-size: 10rem; color: #0000FF"">Y</div>",,ospan,letter,Uhp725jSdSdXQD0A432nJYv5ojQ2,html-keyboard-response,157,773367,0.0-43.0-5.0-1.0-1.0-1.0,,,,,,,,,,,,,,,63d8267294c685a091016df0,13:38:13,06/03/2024
1153.0,,,ospan,symmetry,Uhp725jSdSdXQD0A432nJYv5ojQ2,symmetry-judgement-task,158,776407,0.0-43.0-5.0-1.0-1.0-2.0,,,,,,,,,,1.0,1.0,,,,63d8267294c685a091016df0,13:38:13,06/03/2024
,"<div style=""font-size: 10rem; color: #0000FF"">G</div>",,ospan,letter,Uhp725jSdSdXQD0A432nJYv5ojQ2,html-keyboard-response,159,777422,0.0-43.0-5.0-1.0-1.0-3.0,,,,,,,,,,,,,,,63d8267294c685a091016df0,13:38:13,06/03/2024
1143.0,,,ospan,symmetry,Uhp725jSdSdXQD0A432nJYv5ojQ2,symmetry-judgement-task,160,780460,0.0-43.0-5.0-1.0-1.0-4.0,,,,,,,,,,1.0,1.0,,,,63d8267294c685a091016df0,13:38:13,06/03/2024
,"<div style=""font-size: 10rem; color: #0000FF"">L</div>",,ospan,letter,Uhp725jSdSdXQD0A432nJYv5ojQ2,html-keyboard-response,161,781472,0.0-43.0-5.0-1.0-1.0-5.0,,,,,,,,,,,,,,,63d8267294c685a091016df0,13:38:13,06/03/2024
2277.0,,,ospan,symmetry,Uhp725jSdSdXQD0A432nJYv5ojQ2,symmetry-judgement-task,162,785650,0.0-43.0-5.0-1.0-1.0-6.0,,,,,,,,,,1.0,1.0,,,,63d8267294c685a091016df0,13:38:13,06/03/2024
,"<div style=""font-size: 10rem; color: #0000FF"">Q</div>",,ospan,letter,Uhp725jSdSdXQD0A432nJYv5ojQ2,html-keyboard-response,163,786661,0.0-43.0-5.0-1.0-1.0-7.0,,,,,,,,,,,,,,,63d8267294c685a091016df0,13:38:13,06/03/2024
2614.0,,,ospan,symmetry,Uhp725jSdSdXQD0A432nJYv5ojQ2,symmetry-judgement-task,164,791165,0.0-43.0-5.0-1.0-1.0-8.0,,,,,,,,,,1.0,1.0,,,,63d8267294c685a091016df0,13:38:13,06/03/2024
,"<div style=""font-size: 10rem; color: #0000FF"">H</div>",,ospan,letter,Uhp725jSdSdXQD0A432nJYv5ojQ2,html-keyboard-response,165,792178,0.0-43.0-5.0-1.0-1.0-9.0,,,,,,,,,,,,,,,63d8267294c685a091016df0,13:38:13,06/03/2024
1977.0,,,ospan,symmetry,Uhp725jSdSdXQD0A432nJYv5ojQ2,symmetry-judgement-task,166,796054,0.0-43.0-5.0-1.0-1.0-10.0,,,,,,,,,,1.0,1.0,,,,63d8267294c685a091016df0,13:38:13,06/03/2024
,"<div style=""font-size: 10rem; color: #0000FF"">S</div>",,ospan,letter,Uhp725jSdSdXQD0A432nJYv5ojQ2,html-keyboard-response,167,797070,0.0-43.0-5.0-1.0-1.0-11.0,,,,,,,,,,,,,,,63d8267294c685a091016df0,13:38:13,06/03/2024
1416.0,,,ospan,symmetry,Uhp725jSdSdXQD0A432nJYv5ojQ2,symmetry-judgement-task,168,800386,0.0-43.0-5.0-1.0-1.0-12.0,,,,,,,,,,1.0,1.0,,,,63d8267294c685a091016df0,13:38:13,06/03/2024
,"<div style=""font-size: 10rem; color: #0000FF"">C</div>",,ospan,letter,Uhp725jSdSdXQD0A432nJYv5ojQ2,html-keyboard-response,169,801402,0.0-43.0-5.0-1.0-1.0-13.0,,,,,,,,,,,,,,,63d8267294c685a091016df0,13:38:13,06/03/2024
12051.0,"<div class = numbox><p style=""font-size: 2.4rem"">Please recall the letters you saw to the best of your ability. If you do not remember a particular letter, use the SKIP button.<br><b>(When you are ready to lock in your answer, press ENTER)</b></p><button id = button_1 class = ""square num-button"" onclick = ""recordClick(this)""><div class = content><div class = numbers>C</div></div></button><button id = button_2 class = ""square num-button"" onclick = ""recordClick(this)""><div class = content><div class = numbers>G</div></div></button><button id = button_3 class = ""square num-button"" onclick = ""recordClick(this)""><div class = content><div class = numbers>H</div></div></button><button id = button_4 class = ""square num-button"" onclick = ""recordClick(this)""><div class = content><div class = numbers>J</div></div></button><button id = button_5 class = ""square num-button"" onclick = ""recordClick(this)""><div class = content><div class = numbers>K</div></div></button><button id = button_6 class = ""square num-button"" onclick = ""recordClick(this)""><div class = content><div class = numbers>L</div></div></button><button id = button_7 class = ""square num-button"" onclick = ""recordClick(this)""><div class = content><div class = numbers>N</div></div></button><button id = button_8 class = ""square num-button"" onclick = ""recordClick(this)""><div class = content><div class = numbers>P</div></div></button><button id = button_9 class = ""square num-button"" onclick = ""recordClick(this)""><div class = content><div class = numbers>Q</div></div></button><button id = button_10 class = ""square num-button"" onclick = ""recordClick(this)""><div class = content><div class = numbers>R</div></div></button><button id = button_11 class = ""square num-button"" onclick = ""recordClick(this)""><div class = content><div class = numbers>S</div></div></button><button id = button_12 class = ""square num-button"" onclick = ""recordClick(this)""><div class = content><div class = numbers>Y</div></div></button><button class = clear_button id = ""ClearButton"" onclick = ""clearResponse()"">BACKSPACE</button><button class = blank_button id = ""BlankButton"" onclick = ""blankResponse()"">SKIP</button><p style=""font-size: 2.4rem""><u><b>Current Answer:</b></u></p><br><br><div id=echoed_txt style=""font-size: 5rem; color:blue;""><b></b></div></div>",enter,ospan,retrieval,Uhp725jSdSdXQD0A432nJYv5ojQ2,html-keyboard-response,170,814221,0.0-43.0-5.0-1.0-2.0,28,26,21,7.0,"[""Y"",""G"",""L"",""Q"",""H""]","[""Y"",""G"",""L"",""Q"",""H"",""S"",""C""]",0.0,5.0,,,,,,,63d8267294c685a091016df0,13:38:13,06/03/2024
1168.3999999910593,[''],0,ospan,feedback,Uhp725jSdSdXQD0A432nJYv5ojQ2,html-button-response,171,815895,0.0-43.0-5.0-1.0-3.0,,,,,,,,,,,,100.0,0.0,,63d8267294c685a091016df0,13:38:13,06/03/2024
,"<p style=""font-size:75px;"">...</p>",,ospan,iti,Uhp725jSdSdXQD0A432nJYv5ojQ2,html-keyboard-response,172,816908,0.0-43.0-6.0-0.0-0.0,,,,,,,,,,,,,,,63d8267294c685a091016df0,13:38:13,06/03/2024
2101.0,,,ospan,symmetry,Uhp725jSdSdXQD0A432nJYv5ojQ2,symmetry-judgement-task,173,820148,0.0-43.0-6.0-0.0-1.0-0.0,,,,,,,,,,1.0,1.0,,,,63d8267294c685a091016df0,13:38:13,06/03/2024
,"<div style=""font-size: 10rem; color: #0000FF"">N</div>",,ospan,letter,Uhp725jSdSdXQD0A432nJYv5ojQ2,html-keyboard-response,174,821157,0.0-43.0-6.0-0.0-1.0-1.0,,,,,,,,,,,,,,,63d8267294c685a091016df0,13:38:13,06/03/2024
1844.0,,,ospan,symmetry,Uhp725jSdSdXQD0A432nJYv5ojQ2,symmetry-judgement-task,175,824908,0.0-43.0-6.0-0.0-1.0-2.0,,,,,,,,,,1.0,1.0,,,,63d8267294c685a091016df0,13:38:13,06/03/2024
,"<div style=""font-size: 10rem; color: #0000FF"">S</div>",,ospan,letter,Uhp725jSdSdXQD0A432nJYv5ojQ2,html-keyboard-response,176,825917,0.0-43.0-6.0-0.0-1.0-3.0,,,,,,,,,,,,,,,63d8267294c685a091016df0,13:38:13,06/03/2024
1835.0,,,ospan,symmetry,Uhp725jSdSdXQD0A432nJYv5ojQ2,symmetry-judgement-task,177,829653,0.0-43.0-6.0-0.0-1.0-4.0,,,,,,,,,,1.0,1.0,,,,63d8267294c685a091016df0,13:38:13,06/03/2024
,"<div style=""font-size: 10rem; color: #0000FF"">Y</div>",,ospan,letter,Uhp725jSdSdXQD0A432nJYv5ojQ2,html-keyboard-response,178,830669,0.0-43.0-6.0-0.0-1.0-5.0,,,,,,,,,,,,,,,63d8267294c685a091016df0,13:38:13,06/03/2024
2358.0,,,ospan,symmetry,Uhp725jSdSdXQD0A432nJYv5ojQ2,symmetry-judgement-task,179,834920,0.0-43.0-6.0-0.0-1.0-6.0,,,,,,,,,,1.0,1.0,,,,63d8267294c685a091016df0,13:38:13,06/03/2024
,"<div style=""font-size: 10rem; color: #0000FF"">K</div>",,ospan,letter,Uhp725jSdSdXQD0A432nJYv5ojQ2,html-keyboard-response,180,835931,0.0-43.0-6.0-0.0-1.0-7.0,,,,,,,,,,,,,,,63d8267294c685a091016df0,13:38:13,06/03/2024
1924.0,,,ospan,symmetry,Uhp725jSdSdXQD0A432nJYv5ojQ2,symmetry-judgement-task,181,839767,0.0-43.0-6.0-0.0-1.0-8.0,,,,,,,,,,1.0,1.0,,,,63d8267294c685a091016df0,13:38:13,06/03/2024
,"<div style=""font-size: 10rem; color: #0000FF"">G</div>",,ospan,letter,Uhp725jSdSdXQD0A432nJYv5ojQ2,html-keyboard-response,182,840781,0.0-43.0-6.0-0.0-1.0-9.0,,,,,,,,,,,,,,,63d8267294c685a091016df0,13:38:13,06/03/2024
7393.79999999702,"<div class = numbox><p style=""font-size: 2.4rem"">Please recall the letters you saw to the best of your ability. If you do not remember a particular letter, use the SKIP button.<br><b>(When you are ready to lock in your answer, press ENTER)</b></p><button id = button_1 class = ""square num-button"" onclick = ""recordClick(this)""><div class = content><div class = numbers>C</div></div></button><button id = button_2 class = ""square num-button"" onclick = ""recordClick(this)""><div class = content><div class = numbers>G</div></div></button><button id = button_3 class = ""square num-button"" onclick = ""recordClick(this)""><div class = content><div class = numbers>H</div></div></button><button id = button_4 class = ""square num-button"" onclick = ""recordClick(this)""><div class = content><div class = numbers>J</div></div></button><button id = button_5 class = ""square num-button"" onclick = ""recordClick(this)""><div class = content><div class = numbers>K</div></div></button><button id = button_6 class = ""square num-button"" onclick = ""recordClick(this)""><div class = content><div class = numbers>L</div></div></button><button id = button_7 class = ""square num-button"" onclick = ""recordClick(this)""><div class = content><div class = numbers>N</div></div></button><button id = button_8 class = ""square num-button"" onclick = ""recordClick(this)""><div class = content><div class = numbers>P</div></div></button><button id = button_9 class = ""square num-button"" onclick = ""recordClick(this)""><div class = content><div class = numbers>Q</div></div></button><button id = button_10 class = ""square num-button"" onclick = ""recordClick(this)""><div class = content><div class = numbers>R</div></div></button><button id = button_11 class = ""square num-button"" onclick = ""recordClick(this)""><div class = content><div class = numbers>S</div></div></button><button id = button_12 class = ""square num-button"" onclick = ""recordClick(this)""><div class = content><div class = numbers>Y</div></div></button><button class = clear_button id = ""ClearButton"" onclick = ""clearResponse()"">BACKSPACE</button><button class = blank_button id = ""BlankButton"" onclick = ""blankResponse()"">SKIP</button><p style=""font-size: 2.4rem""><u><b>Current Answer:</b></u></p><br><br><div id=echoed_txt style=""font-size: 5rem; color:blue;""><b></b></div></div>",enter,ospan,retrieval,Uhp725jSdSdXQD0A432nJYv5ojQ2,html-keyboard-response,183,848940,0.0-43.0-6.0-0.0-2.0,33,31,26,5.0,"[""N"",""S"",""Y"",""K"",""G""]","[""N"",""S"",""Y"",""K"",""G""]",1.0,5.0,,,,,,,63d8267294c685a091016df0,13:38:13,06/03/2024
1060.7999999970198,[''],0,ospan,feedback,Uhp725jSdSdXQD0A432nJYv5ojQ2,html-button-response,184,850515,0.0-43.0-6.0-0.0-3.0,,,,,,,,,,,,100.0,0.0,,63d8267294c685a091016df0,13:38:13,06/03/2024
,"<p style=""font-size:75px;"">...</p>",,ospan,iti,Uhp725jSdSdXQD0A432nJYv5ojQ2,html-keyboard-response,185,851520,0.0-43.0-6.0-1.0-0.0,,,,,,,,,,,,,,,63d8267294c685a091016df0,13:38:13,06/03/2024
1885.0,,,ospan,symmetry,Uhp725jSdSdXQD0A432nJYv5ojQ2,symmetry-judgement-task,186,854536,0.0-43.0-6.0-1.0-1.0-0.0,,,,,,,,,,1.0,1.0,,,,63d8267294c685a091016df0,13:38:13,06/03/2024
,"<div style=""font-size: 10rem; color: #0000FF"">P</div>",,ospan,letter,Uhp725jSdSdXQD0A432nJYv5ojQ2,html-keyboard-response,187,855553,0.0-43.0-6.0-1.0-1.0-1.0,,,,,,,,,,,,,,,63d8267294c685a091016df0,13:38:13,06/03/2024
1778.0,,,ospan,symmetry,Uhp725jSdSdXQD0A432nJYv5ojQ2,symmetry-judgement-task,188,859226,0.0-43.0-6.0-1.0-1.0-2.0,,,,,,,,,,1.0,1.0,,,,63d8267294c685a091016df0,13:38:13,06/03/2024
,"<div style=""font-size: 10rem; color: #0000FF"">Q</div>",,ospan,letter,Uhp725jSdSdXQD0A432nJYv5ojQ2,html-keyboard-response,189,860240,0.0-43.0-6.0-1.0-1.0-3.0,,,,,,,,,,,,,,,63d8267294c685a091016df0,13:38:13,06/03/2024
1227.0,,,ospan,symmetry,Uhp725jSdSdXQD0A432nJYv5ojQ2,symmetry-judgement-task,190,863383,0.0-43.0-6.0-1.0-1.0-4.0,,,,,,,,,,1.0,1.0,,,,63d8267294c685a091016df0,13:38:13,06/03/2024
,"<div style=""font-size: 10rem; color: #0000FF"">G</div>",,ospan,letter,Uhp725jSdSdXQD0A432nJYv5ojQ2,html-keyboard-response,191,864395,0.0-43.0-6.0-1.0-1.0-5.0,,,,,,,,,,,,,,,63d8267294c685a091016df0,13:38:13,06/03/2024
2239.0,,,ospan,symmetry,Uhp725jSdSdXQD0A432nJYv5ojQ2,symmetry-judgement-task,192,868529,0.0-43.0-6.0-1.0-1.0-6.0,,,,,,,,,,1.0,1.0,,,,63d8267294c685a091016df0,13:38:13,06/03/2024
,"<div style=""font-size: 10rem; color: #0000FF"">L</div>",,ospan,letter,Uhp725jSdSdXQD0A432nJYv5ojQ2,html-keyboard-response,193,869543,0.0-43.0-6.0-1.0-1.0-7.0,,,,,,,,,,,,,,,63d8267294c685a091016df0,13:38:13,06/03/2024
1285.0,,,ospan,symmetry,Uhp725jSdSdXQD0A432nJYv5ojQ2,symmetry-judgement-task,194,872766,0.0-43.0-6.0-1.0-1.0-8.0,,,,,,,,,,1.0,1.0,,,,63d8267294c685a091016df0,13:38:13,06/03/2024
,"<div style=""font-size: 10rem; color: #0000FF"">Y</div>",,ospan,letter,Uhp725jSdSdXQD0A432nJYv5ojQ2,html-keyboard-response,195,873781,0.0-43.0-6.0-1.0-1.0-9.0,,,,,,,,,,,,,,,63d8267294c685a091016df0,13:38:13,06/03/2024
2043.0,,,ospan,symmetry,Uhp725jSdSdXQD0A432nJYv5ojQ2,symmetry-judgement-task,196,877774,0.0-43.0-6.0-1.0-1.0-10.0,,,,,,,,,,1.0,1.0,,,,63d8267294c685a091016df0,13:38:13,06/03/2024
,"<div style=""font-size: 10rem; color: #0000FF"">R</div>",,ospan,letter,Uhp725jSdSdXQD0A432nJYv5ojQ2,html-keyboard-response,197,878779,0.0-43.0-6.0-1.0-1.0-11.0,,,,,,,,,,,,,,,63d8267294c685a091016df0,13:38:13,06/03/2024
1384.0,,,ospan,symmetry,Uhp725jSdSdXQD0A432nJYv5ojQ2,symmetry-judgement-task,198,882060,0.0-43.0-6.0-1.0-1.0-12.0,,,,,,,,,,1.0,1.0,,,,63d8267294c685a091016df0,13:38:13,06/03/2024
,"<div style=""font-size: 10rem; color: #0000FF"">K</div>",,ospan,letter,Uhp725jSdSdXQD0A432nJYv5ojQ2,html-keyboard-response,199,883073,0.0-43.0-6.0-1.0-1.0-13.0,,,,,,,,,,,,,,,63d8267294c685a091016df0,13:38:13,06/03/2024
1723.0,,,ospan,symmetry,Uhp725jSdSdXQD0A432nJYv5ojQ2,symmetry-judgement-task,200,886685,0.0-43.0-6.0-1.0-1.0-14.0,,,,,,,,,,1.0,1.0,,,,63d8267294c685a091016df0,13:38:13,06/03/2024
,"<div style=""font-size: 10rem; color: #0000FF"">C</div>",,ospan,letter,Uhp725jSdSdXQD0A432nJYv5ojQ2,html-keyboard-response,201,887702,0.0-43.0-6.0-1.0-1.0-15.0,,,,,,,,,,,,,,,63d8267294c685a091016df0,13:38:13,06/03/2024
11021.59999999404,"<div class = numbox><p style=""font-size: 2.4rem"">Please recall the letters you saw to the best of your ability. If you do not remember a particular letter, use the SKIP button.<br><b>(When you are ready to lock in your answer, press ENTER)</b></p><button id = button_1 class = ""square num-button"" onclick = ""recordClick(this)""><div class = content><div class = numbers>C</div></div></button><button id = button_2 class = ""square num-button"" onclick = ""recordClick(this)""><div class = content><div class = numbers>G</div></div></button><button id = button_3 class = ""square num-button"" onclick = ""recordClick(this)""><div class = content><div class = numbers>H</div></div></button><button id = button_4 class = ""square num-button"" onclick = ""recordClick(this)""><div class = content><div class = numbers>J</div></div></button><button id = button_5 class = ""square num-button"" onclick = ""recordClick(this)""><div class = content><div class = numbers>K</div></div></button><button id = button_6 class = ""square num-button"" onclick = ""recordClick(this)""><div class = content><div class = numbers>L</div></div></button><button id = button_7 class = ""square num-button"" onclick = ""recordClick(this)""><div class = content><div class = numbers>N</div></div></button><button id = button_8 class = ""square num-button"" onclick = ""recordClick(this)""><div class = content><div class = numbers>P</div></div></button><button id = button_9 class = ""square num-button"" onclick = ""recordClick(this)""><div class = content><div class = numbers>Q</div></div></button><button id = button_10 class = ""square num-button"" onclick = ""recordClick(this)""><div class = content><div class = numbers>R</div></div></button><button id = button_11 class = ""square num-button"" onclick = ""recordClick(this)""><div class = content><div class = numbers>S</div></div></button><button id = button_12 class = ""square num-button"" onclick = ""recordClick(this)""><div class = content><div class = numbers>Y</div></div></button><button class = clear_button id = ""ClearButton"" onclick = ""clearResponse()"">BACKSPACE</button><button class = blank_button id = ""BlankButton"" onclick = ""blankResponse()"">SKIP</button><p style=""font-size: 2.4rem""><u><b>Current Answer:</b></u></p><br><br><div id=echoed_txt style=""font-size: 5rem; color:blue;""><b></b></div></div>",enter,ospan,retrieval,Uhp725jSdSdXQD0A432nJYv5ojQ2,html-keyboard-response,202,899489,0.0-43.0-6.0-1.0-2.0,41,37,26,8.0,"[""P"",""Q"",""G"",""L"",""Y"",""R""]","[""P"",""Q"",""G"",""L"",""Y"",""R"",""K"",""C""]",0.0,6.0,,,,,,,63d8267294c685a091016df0,13:38:13,06/03/2024
1347.2999999970198,[''],0,ospan,feedback,Uhp725jSdSdXQD0A432nJYv5ojQ2,html-button-response,203,901343,0.0-43.0-6.0-1.0-3.0,,,,,,,,,,,,100.0,0.0,,63d8267294c685a091016df0,13:38:13,06/03/2024
11020.60000000894,,{'Q0': 'straight forward and easy enough'},ospan,survey_ospan,Uhp725jSdSdXQD0A432nJYv5ojQ2,lmdlab-survey-text,204,913120,0.0-43.0-7.0,,,,,,,,,,,,,,Uhp725jSdSdXQD0A432nJYv5ojQ2,63d8267294c685a091016df0,13:38:13,06/03/2024
1147.4000000059605,<p><p style='font-size: 3rem'>Great work!<br><br>This completes the symmetry and memory task.</p><br><br><br>,0,ospan,finish,Uhp725jSdSdXQD0A432nJYv5ojQ2,html-button-response,205,914271,0.0-43.0-8.0,41,37,26,,,,,,,,,100.0,,,63d8267294c685a091016df0,13:38:13,06/03/2024
