rt,stimulus,response,exp_name,exp_stage,subjectID,trial_type,trial_index,time_elapsed,internal_node_id,ospan_shown,ospan_total,ospan_abs,length,resp_actual,resp_correct,full_correct,num_correct,feedback,accuracy,correct,math_acc,math_warning,databaseID,prolificID,start_time,date
3197.9000000953674,<div class = 'left_align' style='font-size: 3.25rem; line-height: 1.3;'><p class = 'center_align'><b>Welcome to the Symmetry and Memory Task</b><br><br><br><br></p>Press 'continue' to show the instructions.<br><br><br><br></div>,0,ospan,instruct,vOqxsWpimTMgxZ500r3UAw6c39I2,html-button-response,51,407991,0.0-43.0-0.0-0.0-0.0,,,,,,,,,,,,,,,5cb59c9e4c39f300173efd41,18:20:54,06/03/2024
10973.400000095367,"<div class = 'left_align' style='font-size: 3.25rem; line-height: 1.3;'><p class = 'center_align'><b>Symmetry and Memory Task</b><br><br></p>In this task, you will try to memorize letters you see on the screen<br>while you also view black and white grid pictures.<br><br>In the next few minutes, you will have some practice to get you familiar<br>with how the task works.<br><br>It may be difficult sometimes, but please do not worry about making mistakes!<br><br>We will begin by practicing the letter part of the task.<br><br><br><br></div>",0,ospan,instruct,vOqxsWpimTMgxZ500r3UAw6c39I2,html-button-response,52,419221,0.0-43.0-0.0-0.0-1.0,,,,,,,,,,,,,,,5cb59c9e4c39f300173efd41,18:20:54,06/03/2024
11057.0,"<div class = 'left_align' style='font-size: 3.25rem; line-height: 1.3;'>For this practice part, letters will appear on the screen one at a time.<br><br>Try to remember each letter in the order presented.<br><br>After some letters have been shown, you will see a response screen. Your<br>goal is to report the letters you saw <b>in order</b>. If you do not remember<br>a particular letter, you will have the option to leave it blank.<br><br><br><br></div>",0,ospan,instruct,vOqxsWpimTMgxZ500r3UAw6c39I2,html-button-response,53,430543,0.0-43.0-0.0-0.0-2.0,,,,,,,,,,,,,,,5cb59c9e4c39f300173efd41,18:20:54,06/03/2024
4705.600000023842,"<div class = 'left_align' style='font-size: 3.25rem; line-height: 1.3;'>Remember, it is very important to get the letters in the same<br>order as you see them.<br><br>When you are ready, you may begin the letter practice.</div><br><br><br><br>",0,ospan,instruct,vOqxsWpimTMgxZ500r3UAw6c39I2,html-button-response,54,435515,0.0-43.0-0.0-0.0-3.0,,,,,,,,,,,,,,,5cb59c9e4c39f300173efd41,18:20:54,06/03/2024
,"<p style=""font-size:75px;"">...</p>",,ospan,iti,vOqxsWpimTMgxZ500r3UAw6c39I2,html-keyboard-response,55,436807,0.0-43.0-0.0-1.0-0.0,,,,,,,,,,,,,,,5cb59c9e4c39f300173efd41,18:20:54,06/03/2024
,"<div style=""font-size: 10rem; color: #0000FF"">H</div>",,ospan,letter,vOqxsWpimTMgxZ500r3UAw6c39I2,html-keyboard-response,56,437819,0.0-43.0-0.0-1.0-1.0,,,,,,,,,,,,,,,5cb59c9e4c39f300173efd41,18:20:54,06/03/2024
,"<div style=""font-size: 10rem; color: #0000FF"">S</div>",,ospan,letter,vOqxsWpimTMgxZ500r3UAw6c39I2,html-keyboard-response,57,439623,0.0-43.0-0.0-1.0-2.0,,,,,,,,,,,,,,,5cb59c9e4c39f300173efd41,18:20:54,06/03/2024
8295.699999928474,"<div class = numbox><p style=""font-size: 2.4rem"">Please recall the letters you saw to the best of your ability. If you do not remember a particular letter, use the SKIP button.<br><b>(When you are ready to lock in your answer, press ENTER)</b></p><button id = button_1 class = ""square num-button"" onclick = ""recordClick(this)""><div class = content><div class = numbers>C</div></div></button><button id = button_2 class = ""square num-button"" onclick = ""recordClick(this)""><div class = content><div class = numbers>G</div></div></button><button id = button_3 class = ""square num-button"" onclick = ""recordClick(this)""><div class = content><div class = numbers>H</div></div></button><button id = button_4 class = ""square num-button"" onclick = ""recordClick(this)""><div class = content><div class = numbers>J</div></div></button><button id = button_5 class = ""square num-button"" onclick = ""recordClick(this)""><div class = content><div class = numbers>K</div></div></button><button id = button_6 class = ""square num-button"" onclick = ""recordClick(this)""><div class = content><div class = numbers>L</div></div></button><button id = button_7 class = ""square num-button"" onclick = ""recordClick(this)""><div class = content><div class = numbers>N</div></div></button><button id = button_8 class = ""square num-button"" onclick = ""recordClick(this)""><div class = content><div class = numbers>P</div></div></button><button id = button_9 class = ""square num-button"" onclick = ""recordClick(this)""><div class = content><div class = numbers>Q</div></div></button><button id = button_10 class = ""square num-button"" onclick = ""recordClick(this)""><div class = content><div class = numbers>R</div></div></button><button id = button_11 class = ""square num-button"" onclick = ""recordClick(this)""><div class = content><div class = numbers>S</div></div></button><button id = button_12 class = ""square num-button"" onclick = ""recordClick(this)""><div class = content><div class = numbers>Y</div></div></button><button class = clear_button id = ""ClearButton"" onclick = ""clearResponse()"">BACKSPACE</button><button class = blank_button id = ""BlankButton"" onclick = ""blankResponse()"">SKIP</button><p style=""font-size: 2.4rem""><u><b>Current Answer:</b></u></p><br><br><div id=echoed_txt style=""font-size: 5rem; color:blue;""><b></b></div></div>",enter,ospan,retrieval,vOqxsWpimTMgxZ500r3UAw6c39I2,html-keyboard-response,58,448700,0.0-43.0-0.0-1.0-3.0,NA,NA,NA,2.0,"[""H"",""S""]","[""H"",""S""]",1.0,2.0,"['<font color=""green"">H</font>', '<font color=""green"">S</font>']",,,,,,5cb59c9e4c39f300173efd41,18:20:54,06/03/2024
2104.0,"['<p style=""font-size:44px"">Letters:<br><br><br><font color=""green"">H</font> <font color=""green"">S</font></p><br><br>']",0,ospan,practice_feedback,vOqxsWpimTMgxZ500r3UAw6c39I2,html-button-response,59,451318,0.0-43.0-0.0-1.0-4.0,,,,,,,,,,,,,,,5cb59c9e4c39f300173efd41,18:20:54,06/03/2024
,"<p style=""font-size:75px;"">...</p>",,ospan,iti,vOqxsWpimTMgxZ500r3UAw6c39I2,html-keyboard-response,60,452332,0.0-43.0-0.0-2.0-0.0,,,,,,,,,,,,,,,5cb59c9e4c39f300173efd41,18:20:54,06/03/2024
,"<div style=""font-size: 10rem; color: #0000FF"">H</div>",,ospan,letter,vOqxsWpimTMgxZ500r3UAw6c39I2,html-keyboard-response,61,453345,0.0-43.0-0.0-2.0-1.0,,,,,,,,,,,,,,,5cb59c9e4c39f300173efd41,18:20:54,06/03/2024
,"<div style=""font-size: 10rem; color: #0000FF"">K</div>",,ospan,letter,vOqxsWpimTMgxZ500r3UAw6c39I2,html-keyboard-response,62,455130,0.0-43.0-0.0-2.0-2.0,,,,,,,,,,,,,,,5cb59c9e4c39f300173efd41,18:20:54,06/03/2024
,"<div style=""font-size: 10rem; color: #0000FF"">N</div>",,ospan,letter,vOqxsWpimTMgxZ500r3UAw6c39I2,html-keyboard-response,63,456929,0.0-43.0-0.0-2.0-3.0,,,,,,,,,,,,,,,5cb59c9e4c39f300173efd41,18:20:54,06/03/2024
4021.2000000476837,"<div class = numbox><p style=""font-size: 2.4rem"">Please recall the letters you saw to the best of your ability. If you do not remember a particular letter, use the SKIP button.<br><b>(When you are ready to lock in your answer, press ENTER)</b></p><button id = button_1 class = ""square num-button"" onclick = ""recordClick(this)""><div class = content><div class = numbers>C</div></div></button><button id = button_2 class = ""square num-button"" onclick = ""recordClick(this)""><div class = content><div class = numbers>G</div></div></button><button id = button_3 class = ""square num-button"" onclick = ""recordClick(this)""><div class = content><div class = numbers>H</div></div></button><button id = button_4 class = ""square num-button"" onclick = ""recordClick(this)""><div class = content><div class = numbers>J</div></div></button><button id = button_5 class = ""square num-button"" onclick = ""recordClick(this)""><div class = content><div class = numbers>K</div></div></button><button id = button_6 class = ""square num-button"" onclick = ""recordClick(this)""><div class = content><div class = numbers>L</div></div></button><button id = button_7 class = ""square num-button"" onclick = ""recordClick(this)""><div class = content><div class = numbers>N</div></div></button><button id = button_8 class = ""square num-button"" onclick = ""recordClick(this)""><div class = content><div class = numbers>P</div></div></button><button id = button_9 class = ""square num-button"" onclick = ""recordClick(this)""><div class = content><div class = numbers>Q</div></div></button><button id = button_10 class = ""square num-button"" onclick = ""recordClick(this)""><div class = content><div class = numbers>R</div></div></button><button id = button_11 class = ""square num-button"" onclick = ""recordClick(this)""><div class = content><div class = numbers>S</div></div></button><button id = button_12 class = ""square num-button"" onclick = ""recordClick(this)""><div class = content><div class = numbers>Y</div></div></button><button class = clear_button id = ""ClearButton"" onclick = ""clearResponse()"">BACKSPACE</button><button class = blank_button id = ""BlankButton"" onclick = ""blankResponse()"">SKIP</button><p style=""font-size: 2.4rem""><u><b>Current Answer:</b></u></p><br><br><div id=echoed_txt style=""font-size: 5rem; color:blue;""><b></b></div></div>",enter,ospan,retrieval,vOqxsWpimTMgxZ500r3UAw6c39I2,html-keyboard-response,64,461736,0.0-43.0-0.0-2.0-4.0,NA,NA,NA,3.0,"[""H"",""K"",""N""]","[""H"",""K"",""N""]",1.0,3.0,"['<font color=""green"">H</font>', '<font color=""green"">K</font>', '<font color=""green"">N</font>']",,,,,,5cb59c9e4c39f300173efd41,18:20:54,06/03/2024
1095.8000000715256,"['<p style=""font-size:44px"">Letters:<br><br><br><font color=""green"">H</font> <font color=""green"">K</font> <font color=""green"">N</font></p><br><br>']",0,ospan,practice_feedback,vOqxsWpimTMgxZ500r3UAw6c39I2,html-button-response,65,463345,0.0-43.0-0.0-2.0-5.0,,,,,,,,,,,,,,,5cb59c9e4c39f300173efd41,18:20:54,06/03/2024
8963.5,"<div class = 'left_align' style='font-size: 3.25rem; line-height: 1.3;'>Now you will practice doing the <b>symmetry judgment part</b> of the experiment.<br><br>A black and white grid picture will appear on the screen and you have to judge if it is <br>symmetrical or asymetrical.<br><br>A picture is 'mirror' symmetrical if its left half is identical to the right half when flipped.<br>Here are examples of a symmetrical and an asymetrical picture:<br><br><center><img src='Stimuli/img/symm_instructions_extra.png' style='height:420px; width:900'></img></center><br>To judge symmetry, imagine you were to fold each picture down the middle, like a book –<br>would the left half match the right half when folded onto each other?<br><br></div><br>",0,ospan,instruct,vOqxsWpimTMgxZ500r3UAw6c39I2,html-button-response,66,472313,0.0-43.0-1.0-0.0-0.0,,,,,,,,,,,,,,,5cb59c9e4c39f300173efd41,18:20:54,06/03/2024
4755.399999976158,"<div class = 'left_align' style='font-size: 3.25rem; line-height: 1.3;'>When you have viewed the picture and determined whether it is symmetrical or not,<br>you can <b>click the Yes or No button</b> below to answer.<br><br>If you take longer than 15 seconds, it will continue automatically<br>and record the answer as an error.</div><br>",0,ospan,instruct,vOqxsWpimTMgxZ500r3UAw6c39I2,html-button-response,67,477327,0.0-43.0-1.0-0.0-1.0,,,,,,,,,,,,,,,5cb59c9e4c39f300173efd41,18:20:54,06/03/2024
1267.0,"<div class = 'left_align' style='font-size: 3.25rem; line-height: 1.3;'>It is <b>very</b> important that you make the symmetry judgment correctly.<br><br>It is also important that you try and judge the picture as quickly as you can.<br><br>When you are ready, click on the button below to try some practice problems.</div><br><br><br><br>",0,ospan,instruct,vOqxsWpimTMgxZ500r3UAw6c39I2,html-button-response,68,478861,0.0-43.0-1.0-0.0-2.0,,,,,,,,,,,,,,,5cb59c9e4c39f300173efd41,18:20:54,06/03/2024
2557.0,,,ospan,symmetry,vOqxsWpimTMgxZ500r3UAw6c39I2,symmetry-judgement-task,69,482285,0.0-43.0-1.0-1.0-0.0,,,,,,,,,,1.0,1.0,,,,5cb59c9e4c39f300173efd41,18:20:54,06/03/2024
,"<p style=""color:green; font-size: 35px"">Correct</p>",,ospan,feedback,vOqxsWpimTMgxZ500r3UAw6c39I2,html-keyboard-response,70,483069,0.0-43.0-1.0-1.0-1.0,,,,,,,,,,,,,,,5cb59c9e4c39f300173efd41,18:20:54,06/03/2024
1707.0,,,ospan,symmetry,vOqxsWpimTMgxZ500r3UAw6c39I2,symmetry-judgement-task,71,487837,0.0-43.0-1.0-1.0-2.0,,,,,,,,,,1.0,1.0,,,,5cb59c9e4c39f300173efd41,18:20:54,06/03/2024
,"<p style=""color:green; font-size: 35px"">Correct</p>",,ospan,feedback,vOqxsWpimTMgxZ500r3UAw6c39I2,html-keyboard-response,72,488590,0.0-43.0-1.0-1.0-3.0,,,,,,,,,,,,,,,5cb59c9e4c39f300173efd41,18:20:54,06/03/2024
1609.0,,,ospan,symmetry,vOqxsWpimTMgxZ500r3UAw6c39I2,symmetry-judgement-task,73,493027,0.0-43.0-1.0-1.0-4.0,,,,,,,,,,1.0,1.0,,,,5cb59c9e4c39f300173efd41,18:20:54,06/03/2024
,"<p style=""color:green; font-size: 35px"">Correct</p>",,ospan,feedback,vOqxsWpimTMgxZ500r3UAw6c39I2,html-keyboard-response,74,493789,0.0-43.0-1.0-1.0-5.0,,,,,,,,,,,,,,,5cb59c9e4c39f300173efd41,18:20:54,06/03/2024
2313.5999999046326,"<p style=""font-size: 3rem;"">You responded correctly on 3 of 3 symmetry judgments. Good job!</p><br><br>",0,ospan,practice,vOqxsWpimTMgxZ500r3UAw6c39I2,html-button-response,75,498122,0.0-43.0-1.0-2.0,,,,,,,,,,,,,,,5cb59c9e4c39f300173efd41,18:20:54,06/03/2024
12169.100000023842,"<div class = 'left_align' style='font-size: 3.25rem; line-height: 1.3;'>Now you will practice doing both parts of the experiment at the same time.<br><br>In the next practice set, you will be given one grid picture to judge.<br>Then letter will appear on the screen. Try to remember the letter.<br><br>It is <b>very important</b> to make the symmetry judgment as quickly and accurately as possible.<br><br>Just as before, once you have make the symmetry judgment, you can click Yes or No.<br><b>Note that you will no longer see Correct or Incorrect feedback.</div><br><br><br><br>",0,ospan,instruct,vOqxsWpimTMgxZ500r3UAw6c39I2,html-button-response,76,510545,0.0-43.0-2.0-0.0-0.0,,,,,,,,,,,,,,,5cb59c9e4c39f300173efd41,18:20:54,06/03/2024
11353.5,"<div class = 'left_align' style='font-size: 3.25rem; line-height: 1.3;'>After the letter goes away, another grid picture will appear, and then<br>another letter.<br><br>At the end of each set of letters and grids, you will recall the letters to the best<br>of your ability. Remember, try your best to get the letters in the correct order.<br><br>It is important to <b>quickly</b> and <b>accurately</b> make the symmetry judgments.</div><br><br><br><br>",0,ospan,instruct,vOqxsWpimTMgxZ500r3UAw6c39I2,html-button-response,77,522167,0.0-43.0-2.0-0.0-1.0,,,,,,,,,,,,,,,5cb59c9e4c39f300173efd41,18:20:54,06/03/2024
16429.299999952316,"<div class = 'left_align' style='font-size: 3.25rem; line-height: 1.3;'>On the feedback screen, if you are not doing well at the symmetry judgments,<br>you will also see a warning in the middle. This indicates your percent <br>correct for the grid pictures for the entire experiment.<br><br>It is <b>very</b> important for you to keep accuracy at least at 85%: <u>We can only use<br>data where the participant was at least 85% accurate on the judgments.</u> Therefore,<br> please try your best to perform well on the symmetry judgments, <b>at the same time</b><br>doing your best to recall as many letters as possible.<br><br>Click the button to try some practice problems.</div><br><br><br><br>",0,ospan,instruct,vOqxsWpimTMgxZ500r3UAw6c39I2,html-button-response,78,538858,0.0-43.0-2.0-0.0-2.0,,,,,,,,,,,,,,,5cb59c9e4c39f300173efd41,18:20:54,06/03/2024
,"<p style=""font-size:75px;"">...</p>",,ospan,iti,vOqxsWpimTMgxZ500r3UAw6c39I2,html-keyboard-response,79,540131,0.0-43.0-2.0-1.0-0.0,,,,,,,,,,,,,,,5cb59c9e4c39f300173efd41,18:20:54,06/03/2024
1897.0,,,ospan,symmetry,vOqxsWpimTMgxZ500r3UAw6c39I2,symmetry-judgement-task,80,543909,0.0-43.0-2.0-1.0-1.0-0.0,,,,,,,,,,1.0,1.0,,,,5cb59c9e4c39f300173efd41,18:20:54,06/03/2024
,"<div style=""font-size: 10rem; color: #0000FF"">H</div>",,ospan,letter,vOqxsWpimTMgxZ500r3UAw6c39I2,html-keyboard-response,81,544914,0.0-43.0-2.0-1.0-1.0-1.0,,,,,,,,,,,,,,,5cb59c9e4c39f300173efd41,18:20:54,06/03/2024
1902.0,,,ospan,symmetry,vOqxsWpimTMgxZ500r3UAw6c39I2,symmetry-judgement-task,82,549577,0.0-43.0-2.0-1.0-1.0-2.0,,,,,,,,,,1.0,1.0,,,,5cb59c9e4c39f300173efd41,18:20:54,06/03/2024
,"<div style=""font-size: 10rem; color: #0000FF"">N</div>",,ospan,letter,vOqxsWpimTMgxZ500r3UAw6c39I2,html-keyboard-response,83,550595,0.0-43.0-2.0-1.0-1.0-3.0,,,,,,,,,,,,,,,5cb59c9e4c39f300173efd41,18:20:54,06/03/2024
1566.0,,,ospan,symmetry,vOqxsWpimTMgxZ500r3UAw6c39I2,symmetry-judgement-task,84,554601,0.0-43.0-2.0-1.0-1.0-4.0,,,,,,,,,,1.0,1.0,,,,5cb59c9e4c39f300173efd41,18:20:54,06/03/2024
,"<div style=""font-size: 10rem; color: #0000FF"">R</div>",,ospan,letter,vOqxsWpimTMgxZ500r3UAw6c39I2,html-keyboard-response,85,555618,0.0-43.0-2.0-1.0-1.0-5.0,,,,,,,,,,,,,,,5cb59c9e4c39f300173efd41,18:20:54,06/03/2024
4120.0,"<div class = numbox><p style=""font-size: 2.4rem"">Please recall the letters you saw to the best of your ability. If you do not remember a particular letter, use the SKIP button.<br><b>(When you are ready to lock in your answer, press ENTER)</b></p><button id = button_1 class = ""square num-button"" onclick = ""recordClick(this)""><div class = content><div class = numbers>C</div></div></button><button id = button_2 class = ""square num-button"" onclick = ""recordClick(this)""><div class = content><div class = numbers>G</div></div></button><button id = button_3 class = ""square num-button"" onclick = ""recordClick(this)""><div class = content><div class = numbers>H</div></div></button><button id = button_4 class = ""square num-button"" onclick = ""recordClick(this)""><div class = content><div class = numbers>J</div></div></button><button id = button_5 class = ""square num-button"" onclick = ""recordClick(this)""><div class = content><div class = numbers>K</div></div></button><button id = button_6 class = ""square num-button"" onclick = ""recordClick(this)""><div class = content><div class = numbers>L</div></div></button><button id = button_7 class = ""square num-button"" onclick = ""recordClick(this)""><div class = content><div class = numbers>N</div></div></button><button id = button_8 class = ""square num-button"" onclick = ""recordClick(this)""><div class = content><div class = numbers>P</div></div></button><button id = button_9 class = ""square num-button"" onclick = ""recordClick(this)""><div class = content><div class = numbers>Q</div></div></button><button id = button_10 class = ""square num-button"" onclick = ""recordClick(this)""><div class = content><div class = numbers>R</div></div></button><button id = button_11 class = ""square num-button"" onclick = ""recordClick(this)""><div class = content><div class = numbers>S</div></div></button><button id = button_12 class = ""square num-button"" onclick = ""recordClick(this)""><div class = content><div class = numbers>Y</div></div></button><button class = clear_button id = ""ClearButton"" onclick = ""clearResponse()"">BACKSPACE</button><button class = blank_button id = ""BlankButton"" onclick = ""blankResponse()"">SKIP</button><p style=""font-size: 2.4rem""><u><b>Current Answer:</b></u></p><br><br><div id=echoed_txt style=""font-size: 5rem; color:blue;""><b></b></div></div>",enter,ospan,retrieval,vOqxsWpimTMgxZ500r3UAw6c39I2,html-keyboard-response,86,560499,0.0-43.0-2.0-1.0-2.0-0.0,NA,NA,NA,3.0,"[""H"",""N"",""R""]","[""H"",""N"",""R""]",1.0,3.0,"['<font color=""green"">H</font>', '<font color=""green"">N</font>', '<font color=""green"">R</font>']",,,,,,5cb59c9e4c39f300173efd41,18:20:54,06/03/2024
4738.600000023842,"['<p style=""font-size:44px"">Letters:<br><br><br><font color=""green"">H</font> <font color=""green"">N</font> <font color=""green"">R</font></p><br><br><p style=""font-size:30px"">Symmetry:<br><br><font color=""green"">100%</font></p><br><br>']",0,ospan,practice_feedback,vOqxsWpimTMgxZ500r3UAw6c39I2,html-button-response,87,565743,0.0-43.0-2.0-1.0-2.0-1.0,,,,,,,,,,,,,,,5cb59c9e4c39f300173efd41,18:20:54,06/03/2024
,"<p style=""font-size:75px;"">...</p>",,ospan,iti,vOqxsWpimTMgxZ500r3UAw6c39I2,html-keyboard-response,88,566761,0.0-43.0-2.0-2.0-0.0,,,,,,,,,,,,,,,5cb59c9e4c39f300173efd41,18:20:54,06/03/2024
2008.0,,,ospan,symmetry,vOqxsWpimTMgxZ500r3UAw6c39I2,symmetry-judgement-task,89,570632,0.0-43.0-2.0-2.0-1.0-0.0,,,,,,,,,,1.0,1.0,,,,5cb59c9e4c39f300173efd41,18:20:54,06/03/2024
,"<div style=""font-size: 10rem; color: #0000FF"">G</div>",,ospan,letter,vOqxsWpimTMgxZ500r3UAw6c39I2,html-keyboard-response,90,571657,0.0-43.0-2.0-2.0-1.0-1.0,,,,,,,,,,,,,,,5cb59c9e4c39f300173efd41,18:20:54,06/03/2024
1470.0,,,ospan,symmetry,vOqxsWpimTMgxZ500r3UAw6c39I2,symmetry-judgement-task,91,575765,0.0-43.0-2.0-2.0-1.0-2.0,,,,,,,,,,1.0,1.0,,,,5cb59c9e4c39f300173efd41,18:20:54,06/03/2024
,"<div style=""font-size: 10rem; color: #0000FF"">L</div>",,ospan,letter,vOqxsWpimTMgxZ500r3UAw6c39I2,html-keyboard-response,92,576772,0.0-43.0-2.0-2.0-1.0-3.0,,,,,,,,,,,,,,,5cb59c9e4c39f300173efd41,18:20:54,06/03/2024
1598.0,,,ospan,symmetry,vOqxsWpimTMgxZ500r3UAw6c39I2,symmetry-judgement-task,93,580835,0.0-43.0-2.0-2.0-1.0-4.0,,,,,,,,,,1.0,1.0,,,,5cb59c9e4c39f300173efd41,18:20:54,06/03/2024
,"<div style=""font-size: 10rem; color: #0000FF"">N</div>",,ospan,letter,vOqxsWpimTMgxZ500r3UAw6c39I2,html-keyboard-response,94,581842,0.0-43.0-2.0-2.0-1.0-5.0,,,,,,,,,,,,,,,5cb59c9e4c39f300173efd41,18:20:54,06/03/2024
5303.100000023842,"<div class = numbox><p style=""font-size: 2.4rem"">Please recall the letters you saw to the best of your ability. If you do not remember a particular letter, use the SKIP button.<br><b>(When you are ready to lock in your answer, press ENTER)</b></p><button id = button_1 class = ""square num-button"" onclick = ""recordClick(this)""><div class = content><div class = numbers>C</div></div></button><button id = button_2 class = ""square num-button"" onclick = ""recordClick(this)""><div class = content><div class = numbers>G</div></div></button><button id = button_3 class = ""square num-button"" onclick = ""recordClick(this)""><div class = content><div class = numbers>H</div></div></button><button id = button_4 class = ""square num-button"" onclick = ""recordClick(this)""><div class = content><div class = numbers>J</div></div></button><button id = button_5 class = ""square num-button"" onclick = ""recordClick(this)""><div class = content><div class = numbers>K</div></div></button><button id = button_6 class = ""square num-button"" onclick = ""recordClick(this)""><div class = content><div class = numbers>L</div></div></button><button id = button_7 class = ""square num-button"" onclick = ""recordClick(this)""><div class = content><div class = numbers>N</div></div></button><button id = button_8 class = ""square num-button"" onclick = ""recordClick(this)""><div class = content><div class = numbers>P</div></div></button><button id = button_9 class = ""square num-button"" onclick = ""recordClick(this)""><div class = content><div class = numbers>Q</div></div></button><button id = button_10 class = ""square num-button"" onclick = ""recordClick(this)""><div class = content><div class = numbers>R</div></div></button><button id = button_11 class = ""square num-button"" onclick = ""recordClick(this)""><div class = content><div class = numbers>S</div></div></button><button id = button_12 class = ""square num-button"" onclick = ""recordClick(this)""><div class = content><div class = numbers>Y</div></div></button><button class = clear_button id = ""ClearButton"" onclick = ""clearResponse()"">BACKSPACE</button><button class = blank_button id = ""BlankButton"" onclick = ""blankResponse()"">SKIP</button><p style=""font-size: 2.4rem""><u><b>Current Answer:</b></u></p><br><br><div id=echoed_txt style=""font-size: 5rem; color:blue;""><b></b></div></div>",enter,ospan,retrieval,vOqxsWpimTMgxZ500r3UAw6c39I2,html-keyboard-response,95,587898,0.0-43.0-2.0-2.0-2.0-0.0,NA,NA,NA,3.0,"[""G"",""L"",""N""]","[""G"",""L"",""N""]",1.0,3.0,"['<font color=""green"">G</font>', '<font color=""green"">L</font>', '<font color=""green"">N</font>']",,,,,,5cb59c9e4c39f300173efd41,18:20:54,06/03/2024
1547.5,"['<p style=""font-size:44px"">Letters:<br><br><br><font color=""green"">G</font> <font color=""green"">L</font> <font color=""green"">N</font></p><br><br><p style=""font-size:30px"">Symmetry:<br><br><font color=""green"">100%</font></p><br><br>']",0,ospan,practice_feedback,vOqxsWpimTMgxZ500r3UAw6c39I2,html-button-response,96,589959,0.0-43.0-2.0-2.0-2.0-1.0,,,,,,,,,,,,,,,5cb59c9e4c39f300173efd41,18:20:54,06/03/2024
28054.100000023842,"<div class = 'left_align' style='font-size: 3rem; line-height: 1.3;'><b>Great work! That is the end of practice.</b><br><br>The real trials will look just like the practice trials you just completed.<br><br><u>Here, you will not see feedback</u>. First, you will see an grid picture to judge,<br>then a letter to remember. When the recall screen appears, report the letters in the<br>order presented. If you forget a letter, remember to use the <b>blank</b> button to move to the<br>next letter. Some of the sets will have more symmetry grids and letters than others.<br><br>It is important that you do your best on both the symmetry judgments and the letter recall<br>parts of the experiment. For for the symmetry judgments, try to work as <b>quickly</b> and <br>as <b>accurately</b> as possible. Remember to keep your symmetry accuracy at 85% or above.<br><br><b>For the letters, do NOT use any external aid (e.g., writing on paper, electronic device).</b><br><br>It is <u>very important</u> to our experiment to have a <b>true</b> view of your real performance.<br><br>Do not worry if you miss some when it gets hard! This task is meant to be very challenging!<br><br>Click the button to begin.</div><br><br><br><br>",0,ospan,starting_real_here,vOqxsWpimTMgxZ500r3UAw6c39I2,html-button-response,97,618022,0.0-43.0-2.0-3.0,,,,,,,,,,,,,,,5cb59c9e4c39f300173efd41,18:20:54,06/03/2024
,"<p style=""font-size:75px;"">...</p>",,ospan,iti,vOqxsWpimTMgxZ500r3UAw6c39I2,html-keyboard-response,98,619288,0.0-43.0-3.0-0.0-0.0,,,,,,,,,,,,,,,5cb59c9e4c39f300173efd41,18:20:54,06/03/2024
2571.0,,,ospan,symmetry,vOqxsWpimTMgxZ500r3UAw6c39I2,symmetry-judgement-task,99,622981,0.0-43.0-3.0-0.0-1.0-0.0,,,,,,,,,,1.0,1.0,,,,5cb59c9e4c39f300173efd41,18:20:54,06/03/2024
,"<div style=""font-size: 10rem; color: #0000FF"">G</div>",,ospan,letter,vOqxsWpimTMgxZ500r3UAw6c39I2,html-keyboard-response,100,623999,0.0-43.0-3.0-0.0-1.0-1.0,,,,,,,,,,,,,,,5cb59c9e4c39f300173efd41,18:20:54,06/03/2024
1549.0,,,ospan,symmetry,vOqxsWpimTMgxZ500r3UAw6c39I2,symmetry-judgement-task,101,628136,0.0-43.0-3.0-0.0-1.0-2.0,,,,,,,,,,1.0,1.0,,,,5cb59c9e4c39f300173efd41,18:20:54,06/03/2024
,"<div style=""font-size: 10rem; color: #0000FF"">N</div>",,ospan,letter,vOqxsWpimTMgxZ500r3UAw6c39I2,html-keyboard-response,102,629148,0.0-43.0-3.0-0.0-1.0-3.0,,,,,,,,,,,,,,,5cb59c9e4c39f300173efd41,18:20:54,06/03/2024
1428.0,,,ospan,symmetry,vOqxsWpimTMgxZ500r3UAw6c39I2,symmetry-judgement-task,103,633230,0.0-43.0-3.0-0.0-1.0-4.0,,,,,,,,,,1.0,1.0,,,,5cb59c9e4c39f300173efd41,18:20:54,06/03/2024
,"<div style=""font-size: 10rem; color: #0000FF"">C</div>",,ospan,letter,vOqxsWpimTMgxZ500r3UAw6c39I2,html-keyboard-response,104,634234,0.0-43.0-3.0-0.0-1.0-5.0,,,,,,,,,,,,,,,5cb59c9e4c39f300173efd41,18:20:54,06/03/2024
5314.399999976158,"<div class = numbox><p style=""font-size: 2.4rem"">Please recall the letters you saw to the best of your ability. If you do not remember a particular letter, use the SKIP button.<br><b>(When you are ready to lock in your answer, press ENTER)</b></p><button id = button_1 class = ""square num-button"" onclick = ""recordClick(this)""><div class = content><div class = numbers>C</div></div></button><button id = button_2 class = ""square num-button"" onclick = ""recordClick(this)""><div class = content><div class = numbers>G</div></div></button><button id = button_3 class = ""square num-button"" onclick = ""recordClick(this)""><div class = content><div class = numbers>H</div></div></button><button id = button_4 class = ""square num-button"" onclick = ""recordClick(this)""><div class = content><div class = numbers>J</div></div></button><button id = button_5 class = ""square num-button"" onclick = ""recordClick(this)""><div class = content><div class = numbers>K</div></div></button><button id = button_6 class = ""square num-button"" onclick = ""recordClick(this)""><div class = content><div class = numbers>L</div></div></button><button id = button_7 class = ""square num-button"" onclick = ""recordClick(this)""><div class = content><div class = numbers>N</div></div></button><button id = button_8 class = ""square num-button"" onclick = ""recordClick(this)""><div class = content><div class = numbers>P</div></div></button><button id = button_9 class = ""square num-button"" onclick = ""recordClick(this)""><div class = content><div class = numbers>Q</div></div></button><button id = button_10 class = ""square num-button"" onclick = ""recordClick(this)""><div class = content><div class = numbers>R</div></div></button><button id = button_11 class = ""square num-button"" onclick = ""recordClick(this)""><div class = content><div class = numbers>S</div></div></button><button id = button_12 class = ""square num-button"" onclick = ""recordClick(this)""><div class = content><div class = numbers>Y</div></div></button><button class = clear_button id = ""ClearButton"" onclick = ""clearResponse()"">BACKSPACE</button><button class = blank_button id = ""BlankButton"" onclick = ""blankResponse()"">SKIP</button><p style=""font-size: 2.4rem""><u><b>Current Answer:</b></u></p><br><br><div id=echoed_txt style=""font-size: 5rem; color:blue;""><b></b></div></div>",enter,ospan,retrieval,vOqxsWpimTMgxZ500r3UAw6c39I2,html-keyboard-response,105,640303,0.0-43.0-3.0-0.0-2.0,3,3,3,3.0,"[""G"",""N"",""C""]","[""G"",""N"",""C""]",1.0,3.0,,,,,,,5cb59c9e4c39f300173efd41,18:20:54,06/03/2024
1583.7000000476837,[''],0,ospan,feedback,vOqxsWpimTMgxZ500r3UAw6c39I2,html-button-response,106,642400,0.0-43.0-3.0-0.0-3.0,,,,,,,,,,,,100.0,0.0,,5cb59c9e4c39f300173efd41,18:20:54,06/03/2024
,"<p style=""font-size:75px;"">...</p>",,ospan,iti,vOqxsWpimTMgxZ500r3UAw6c39I2,html-keyboard-response,107,643418,0.0-43.0-4.0-0.0-0.0,,,,,,,,,,,,,,,5cb59c9e4c39f300173efd41,18:20:54,06/03/2024
2127.0,,,ospan,symmetry,vOqxsWpimTMgxZ500r3UAw6c39I2,symmetry-judgement-task,108,647483,0.0-43.0-4.0-0.0-1.0-0.0,,,,,,,,,,1.0,1.0,,,,5cb59c9e4c39f300173efd41,18:20:54,06/03/2024
,"<div style=""font-size: 10rem; color: #0000FF"">R</div>",,ospan,letter,vOqxsWpimTMgxZ500r3UAw6c39I2,html-keyboard-response,109,648499,0.0-43.0-4.0-0.0-1.0-1.0,,,,,,,,,,,,,,,5cb59c9e4c39f300173efd41,18:20:54,06/03/2024
1449.0,,,ospan,symmetry,vOqxsWpimTMgxZ500r3UAw6c39I2,symmetry-judgement-task,110,652560,0.0-43.0-4.0-0.0-1.0-2.0,,,,,,,,,,1.0,1.0,,,,5cb59c9e4c39f300173efd41,18:20:54,06/03/2024
,"<div style=""font-size: 10rem; color: #0000FF"">H</div>",,ospan,letter,vOqxsWpimTMgxZ500r3UAw6c39I2,html-keyboard-response,111,653572,0.0-43.0-4.0-0.0-1.0-3.0,,,,,,,,,,,,,,,5cb59c9e4c39f300173efd41,18:20:54,06/03/2024
2785.0,,,ospan,symmetry,vOqxsWpimTMgxZ500r3UAw6c39I2,symmetry-judgement-task,112,659030,0.0-43.0-4.0-0.0-1.0-4.0,,,,,,,,,,1.0,1.0,,,,5cb59c9e4c39f300173efd41,18:20:54,06/03/2024
,"<div style=""font-size: 10rem; color: #0000FF"">N</div>",,ospan,letter,vOqxsWpimTMgxZ500r3UAw6c39I2,html-keyboard-response,113,660042,0.0-43.0-4.0-0.0-1.0-5.0,,,,,,,,,,,,,,,5cb59c9e4c39f300173efd41,18:20:54,06/03/2024
2316.0,,,ospan,symmetry,vOqxsWpimTMgxZ500r3UAw6c39I2,symmetry-judgement-task,114,664752,0.0-43.0-4.0-0.0-1.0-6.0,,,,,,,,,,1.0,1.0,,,,5cb59c9e4c39f300173efd41,18:20:54,06/03/2024
,"<div style=""font-size: 10rem; color: #0000FF"">L</div>",,ospan,letter,vOqxsWpimTMgxZ500r3UAw6c39I2,html-keyboard-response,115,665757,0.0-43.0-4.0-0.0-1.0-7.0,,,,,,,,,,,,,,,5cb59c9e4c39f300173efd41,18:20:54,06/03/2024
5205.599999904633,"<div class = numbox><p style=""font-size: 2.4rem"">Please recall the letters you saw to the best of your ability. If you do not remember a particular letter, use the SKIP button.<br><b>(When you are ready to lock in your answer, press ENTER)</b></p><button id = button_1 class = ""square num-button"" onclick = ""recordClick(this)""><div class = content><div class = numbers>C</div></div></button><button id = button_2 class = ""square num-button"" onclick = ""recordClick(this)""><div class = content><div class = numbers>G</div></div></button><button id = button_3 class = ""square num-button"" onclick = ""recordClick(this)""><div class = content><div class = numbers>H</div></div></button><button id = button_4 class = ""square num-button"" onclick = ""recordClick(this)""><div class = content><div class = numbers>J</div></div></button><button id = button_5 class = ""square num-button"" onclick = ""recordClick(this)""><div class = content><div class = numbers>K</div></div></button><button id = button_6 class = ""square num-button"" onclick = ""recordClick(this)""><div class = content><div class = numbers>L</div></div></button><button id = button_7 class = ""square num-button"" onclick = ""recordClick(this)""><div class = content><div class = numbers>N</div></div></button><button id = button_8 class = ""square num-button"" onclick = ""recordClick(this)""><div class = content><div class = numbers>P</div></div></button><button id = button_9 class = ""square num-button"" onclick = ""recordClick(this)""><div class = content><div class = numbers>Q</div></div></button><button id = button_10 class = ""square num-button"" onclick = ""recordClick(this)""><div class = content><div class = numbers>R</div></div></button><button id = button_11 class = ""square num-button"" onclick = ""recordClick(this)""><div class = content><div class = numbers>S</div></div></button><button id = button_12 class = ""square num-button"" onclick = ""recordClick(this)""><div class = content><div class = numbers>Y</div></div></button><button class = clear_button id = ""ClearButton"" onclick = ""clearResponse()"">BACKSPACE</button><button class = blank_button id = ""BlankButton"" onclick = ""blankResponse()"">SKIP</button><p style=""font-size: 2.4rem""><u><b>Current Answer:</b></u></p><br><br><div id=echoed_txt style=""font-size: 5rem; color:blue;""><b></b></div></div>",enter,ospan,retrieval,vOqxsWpimTMgxZ500r3UAw6c39I2,html-keyboard-response,116,671723,0.0-43.0-4.0-0.0-2.0,7,7,7,4.0,"[""R"",""H"",""N"",""L""]","[""R"",""H"",""N"",""L""]",1.0,4.0,,,,,,,5cb59c9e4c39f300173efd41,18:20:54,06/03/2024
1105.3000000715256,[''],0,ospan,feedback,vOqxsWpimTMgxZ500r3UAw6c39I2,html-button-response,117,673338,0.0-43.0-4.0-0.0-3.0,,,,,,,,,,,,100.0,0.0,,5cb59c9e4c39f300173efd41,18:20:54,06/03/2024
,"<p style=""font-size:75px;"">...</p>",,ospan,iti,vOqxsWpimTMgxZ500r3UAw6c39I2,html-keyboard-response,118,674366,0.0-43.0-4.0-1.0-0.0,,,,,,,,,,,,,,,5cb59c9e4c39f300173efd41,18:20:54,06/03/2024
1920.0,,,ospan,symmetry,vOqxsWpimTMgxZ500r3UAw6c39I2,symmetry-judgement-task,119,678184,0.0-43.0-4.0-1.0-1.0-0.0,,,,,,,,,,1.0,1.0,,,,5cb59c9e4c39f300173efd41,18:20:54,06/03/2024
,"<div style=""font-size: 10rem; color: #0000FF"">Y</div>",,ospan,letter,vOqxsWpimTMgxZ500r3UAw6c39I2,html-keyboard-response,120,679202,0.0-43.0-4.0-1.0-1.0-1.0,,,,,,,,,,,,,,,5cb59c9e4c39f300173efd41,18:20:54,06/03/2024
2240.0,,,ospan,symmetry,vOqxsWpimTMgxZ500r3UAw6c39I2,symmetry-judgement-task,121,683957,0.0-43.0-4.0-1.0-1.0-2.0,,,,,,,,,,1.0,1.0,,,,5cb59c9e4c39f300173efd41,18:20:54,06/03/2024
,"<div style=""font-size: 10rem; color: #0000FF"">L</div>",,ospan,letter,vOqxsWpimTMgxZ500r3UAw6c39I2,html-keyboard-response,122,684971,0.0-43.0-4.0-1.0-1.0-3.0,,,,,,,,,,,,,,,5cb59c9e4c39f300173efd41,18:20:54,06/03/2024
1325.0,,,ospan,symmetry,vOqxsWpimTMgxZ500r3UAw6c39I2,symmetry-judgement-task,123,688832,0.0-43.0-4.0-1.0-1.0-4.0,,,,,,,,,,1.0,1.0,,,,5cb59c9e4c39f300173efd41,18:20:54,06/03/2024
,"<div style=""font-size: 10rem; color: #0000FF"">G</div>",,ospan,letter,vOqxsWpimTMgxZ500r3UAw6c39I2,html-keyboard-response,124,689849,0.0-43.0-4.0-1.0-1.0-5.0,,,,,,,,,,,,,,,5cb59c9e4c39f300173efd41,18:20:54,06/03/2024
1723.0,,,ospan,symmetry,vOqxsWpimTMgxZ500r3UAw6c39I2,symmetry-judgement-task,125,694096,0.0-43.0-4.0-1.0-1.0-6.0,,,,,,,,,,1.0,1.0,,,,5cb59c9e4c39f300173efd41,18:20:54,06/03/2024
,"<div style=""font-size: 10rem; color: #0000FF"">K</div>",,ospan,letter,vOqxsWpimTMgxZ500r3UAw6c39I2,html-keyboard-response,126,695103,0.0-43.0-4.0-1.0-1.0-7.0,,,,,,,,,,,,,,,5cb59c9e4c39f300173efd41,18:20:54,06/03/2024
1673.0,,,ospan,symmetry,vOqxsWpimTMgxZ500r3UAw6c39I2,symmetry-judgement-task,127,699298,0.0-43.0-4.0-1.0-1.0-8.0,,,,,,,,,,1.0,1.0,,,,5cb59c9e4c39f300173efd41,18:20:54,06/03/2024
,"<div style=""font-size: 10rem; color: #0000FF"">R</div>",,ospan,letter,vOqxsWpimTMgxZ500r3UAw6c39I2,html-keyboard-response,128,700315,0.0-43.0-4.0-1.0-1.0-9.0,,,,,,,,,,,,,,,5cb59c9e4c39f300173efd41,18:20:54,06/03/2024
5813.0,"<div class = numbox><p style=""font-size: 2.4rem"">Please recall the letters you saw to the best of your ability. If you do not remember a particular letter, use the SKIP button.<br><b>(When you are ready to lock in your answer, press ENTER)</b></p><button id = button_1 class = ""square num-button"" onclick = ""recordClick(this)""><div class = content><div class = numbers>C</div></div></button><button id = button_2 class = ""square num-button"" onclick = ""recordClick(this)""><div class = content><div class = numbers>G</div></div></button><button id = button_3 class = ""square num-button"" onclick = ""recordClick(this)""><div class = content><div class = numbers>H</div></div></button><button id = button_4 class = ""square num-button"" onclick = ""recordClick(this)""><div class = content><div class = numbers>J</div></div></button><button id = button_5 class = ""square num-button"" onclick = ""recordClick(this)""><div class = content><div class = numbers>K</div></div></button><button id = button_6 class = ""square num-button"" onclick = ""recordClick(this)""><div class = content><div class = numbers>L</div></div></button><button id = button_7 class = ""square num-button"" onclick = ""recordClick(this)""><div class = content><div class = numbers>N</div></div></button><button id = button_8 class = ""square num-button"" onclick = ""recordClick(this)""><div class = content><div class = numbers>P</div></div></button><button id = button_9 class = ""square num-button"" onclick = ""recordClick(this)""><div class = content><div class = numbers>Q</div></div></button><button id = button_10 class = ""square num-button"" onclick = ""recordClick(this)""><div class = content><div class = numbers>R</div></div></button><button id = button_11 class = ""square num-button"" onclick = ""recordClick(this)""><div class = content><div class = numbers>S</div></div></button><button id = button_12 class = ""square num-button"" onclick = ""recordClick(this)""><div class = content><div class = numbers>Y</div></div></button><button class = clear_button id = ""ClearButton"" onclick = ""clearResponse()"">BACKSPACE</button><button class = blank_button id = ""BlankButton"" onclick = ""blankResponse()"">SKIP</button><p style=""font-size: 2.4rem""><u><b>Current Answer:</b></u></p><br><br><div id=echoed_txt style=""font-size: 5rem; color:blue;""><b></b></div></div>",enter,ospan,retrieval,vOqxsWpimTMgxZ500r3UAw6c39I2,html-keyboard-response,129,706889,0.0-43.0-4.0-1.0-2.0,12,12,12,5.0,"[""Y"",""L"",""G"",""K"",""R""]","[""Y"",""L"",""G"",""K"",""R""]",1.0,5.0,,,,,,,5cb59c9e4c39f300173efd41,18:20:54,06/03/2024
1227.5,[''],0,ospan,feedback,vOqxsWpimTMgxZ500r3UAw6c39I2,html-button-response,130,708630,0.0-43.0-4.0-1.0-3.0,,,,,,,,,,,,100.0,0.0,,5cb59c9e4c39f300173efd41,18:20:54,06/03/2024
,"<p style=""font-size:75px;"">...</p>",,ospan,iti,vOqxsWpimTMgxZ500r3UAw6c39I2,html-keyboard-response,131,709656,0.0-43.0-4.0-2.0-0.0,,,,,,,,,,,,,,,5cb59c9e4c39f300173efd41,18:20:54,06/03/2024
1923.0,,,ospan,symmetry,vOqxsWpimTMgxZ500r3UAw6c39I2,symmetry-judgement-task,132,713627,0.0-43.0-4.0-2.0-1.0-0.0,,,,,,,,,,1.0,1.0,,,,5cb59c9e4c39f300173efd41,18:20:54,06/03/2024
,"<div style=""font-size: 10rem; color: #0000FF"">S</div>",,ospan,letter,vOqxsWpimTMgxZ500r3UAw6c39I2,html-keyboard-response,133,714644,0.0-43.0-4.0-2.0-1.0-1.0,,,,,,,,,,,,,,,5cb59c9e4c39f300173efd41,18:20:54,06/03/2024
3840.0,,,ospan,symmetry,vOqxsWpimTMgxZ500r3UAw6c39I2,symmetry-judgement-task,134,721182,0.0-43.0-4.0-2.0-1.0-2.0,,,,,,,,,,1.0,1.0,,,,5cb59c9e4c39f300173efd41,18:20:54,06/03/2024
,"<div style=""font-size: 10rem; color: #0000FF"">J</div>",,ospan,letter,vOqxsWpimTMgxZ500r3UAw6c39I2,html-keyboard-response,135,722197,0.0-43.0-4.0-2.0-1.0-3.0,,,,,,,,,,,,,,,5cb59c9e4c39f300173efd41,18:20:54,06/03/2024
1278.0,,,ospan,symmetry,vOqxsWpimTMgxZ500r3UAw6c39I2,symmetry-judgement-task,136,726214,0.0-43.0-4.0-2.0-1.0-4.0,,,,,,,,,,1.0,1.0,,,,5cb59c9e4c39f300173efd41,18:20:54,06/03/2024
,"<div style=""font-size: 10rem; color: #0000FF"">N</div>",,ospan,letter,vOqxsWpimTMgxZ500r3UAw6c39I2,html-keyboard-response,137,727220,0.0-43.0-4.0-2.0-1.0-5.0,,,,,,,,,,,,,,,5cb59c9e4c39f300173efd41,18:20:54,06/03/2024
9148.399999976158,"<div class = numbox><p style=""font-size: 2.4rem"">Please recall the letters you saw to the best of your ability. If you do not remember a particular letter, use the SKIP button.<br><b>(When you are ready to lock in your answer, press ENTER)</b></p><button id = button_1 class = ""square num-button"" onclick = ""recordClick(this)""><div class = content><div class = numbers>C</div></div></button><button id = button_2 class = ""square num-button"" onclick = ""recordClick(this)""><div class = content><div class = numbers>G</div></div></button><button id = button_3 class = ""square num-button"" onclick = ""recordClick(this)""><div class = content><div class = numbers>H</div></div></button><button id = button_4 class = ""square num-button"" onclick = ""recordClick(this)""><div class = content><div class = numbers>J</div></div></button><button id = button_5 class = ""square num-button"" onclick = ""recordClick(this)""><div class = content><div class = numbers>K</div></div></button><button id = button_6 class = ""square num-button"" onclick = ""recordClick(this)""><div class = content><div class = numbers>L</div></div></button><button id = button_7 class = ""square num-button"" onclick = ""recordClick(this)""><div class = content><div class = numbers>N</div></div></button><button id = button_8 class = ""square num-button"" onclick = ""recordClick(this)""><div class = content><div class = numbers>P</div></div></button><button id = button_9 class = ""square num-button"" onclick = ""recordClick(this)""><div class = content><div class = numbers>Q</div></div></button><button id = button_10 class = ""square num-button"" onclick = ""recordClick(this)""><div class = content><div class = numbers>R</div></div></button><button id = button_11 class = ""square num-button"" onclick = ""recordClick(this)""><div class = content><div class = numbers>S</div></div></button><button id = button_12 class = ""square num-button"" onclick = ""recordClick(this)""><div class = content><div class = numbers>Y</div></div></button><button class = clear_button id = ""ClearButton"" onclick = ""clearResponse()"">BACKSPACE</button><button class = blank_button id = ""BlankButton"" onclick = ""blankResponse()"">SKIP</button><p style=""font-size: 2.4rem""><u><b>Current Answer:</b></u></p><br><br><div id=echoed_txt style=""font-size: 5rem; color:blue;""><b></b></div></div>",enter,ospan,retrieval,vOqxsWpimTMgxZ500r3UAw6c39I2,html-keyboard-response,138,737122,0.0-43.0-4.0-2.0-2.0,15,15,15,3.0,"[""S"",""J"",""N""]","[""S"",""J"",""N""]",1.0,3.0,,,,,,,5cb59c9e4c39f300173efd41,18:20:54,06/03/2024
2321.7000000476837,[''],0,ospan,feedback,vOqxsWpimTMgxZ500r3UAw6c39I2,html-button-response,139,739955,0.0-43.0-4.0-2.0-3.0,,,,,,,,,,,,100.0,0.0,,5cb59c9e4c39f300173efd41,18:20:54,06/03/2024
,"<p style=""font-size:75px;"">...</p>",,ospan,iti,vOqxsWpimTMgxZ500r3UAw6c39I2,html-keyboard-response,140,740960,0.0-43.0-5.0-0.0-0.0,,,,,,,,,,,,,,,5cb59c9e4c39f300173efd41,18:20:54,06/03/2024
3165.0,,,ospan,symmetry,vOqxsWpimTMgxZ500r3UAw6c39I2,symmetry-judgement-task,141,746020,0.0-43.0-5.0-0.0-1.0-0.0,,,,,,,,,,1.0,1.0,,,,5cb59c9e4c39f300173efd41,18:20:54,06/03/2024
,"<div style=""font-size: 10rem; color: #0000FF"">J</div>",,ospan,letter,vOqxsWpimTMgxZ500r3UAw6c39I2,html-keyboard-response,142,747027,0.0-43.0-5.0-0.0-1.0-1.0,,,,,,,,,,,,,,,5cb59c9e4c39f300173efd41,18:20:54,06/03/2024
2017.0,,,ospan,symmetry,vOqxsWpimTMgxZ500r3UAw6c39I2,symmetry-judgement-task,143,751624,0.0-43.0-5.0-0.0-1.0-2.0,,,,,,,,,,1.0,1.0,,,,5cb59c9e4c39f300173efd41,18:20:54,06/03/2024
,"<div style=""font-size: 10rem; color: #0000FF"">L</div>",,ospan,letter,vOqxsWpimTMgxZ500r3UAw6c39I2,html-keyboard-response,144,752639,0.0-43.0-5.0-0.0-1.0-3.0,,,,,,,,,,,,,,,5cb59c9e4c39f300173efd41,18:20:54,06/03/2024
1524.0,,,ospan,symmetry,vOqxsWpimTMgxZ500r3UAw6c39I2,symmetry-judgement-task,145,756302,0.0-43.0-5.0-0.0-1.0-4.0,,,,,,,,,,1.0,1.0,,,,5cb59c9e4c39f300173efd41,18:20:54,06/03/2024
,"<div style=""font-size: 10rem; color: #0000FF"">P</div>",,ospan,letter,vOqxsWpimTMgxZ500r3UAw6c39I2,html-keyboard-response,146,757315,0.0-43.0-5.0-0.0-1.0-5.0,,,,,,,,,,,,,,,5cb59c9e4c39f300173efd41,18:20:54,06/03/2024
1387.0,,,ospan,symmetry,vOqxsWpimTMgxZ500r3UAw6c39I2,symmetry-judgement-task,147,761387,0.0-43.0-5.0-0.0-1.0-6.0,,,,,,,,,,1.0,1.0,,,,5cb59c9e4c39f300173efd41,18:20:54,06/03/2024
,"<div style=""font-size: 10rem; color: #0000FF"">H</div>",,ospan,letter,vOqxsWpimTMgxZ500r3UAw6c39I2,html-keyboard-response,148,762393,0.0-43.0-5.0-0.0-1.0-7.0,,,,,,,,,,,,,,,5cb59c9e4c39f300173efd41,18:20:54,06/03/2024
1687.0,,,ospan,symmetry,vOqxsWpimTMgxZ500r3UAw6c39I2,symmetry-judgement-task,149,766673,0.0-43.0-5.0-0.0-1.0-8.0,,,,,,,,,,1.0,1.0,,,,5cb59c9e4c39f300173efd41,18:20:54,06/03/2024
,"<div style=""font-size: 10rem; color: #0000FF"">Y</div>",,ospan,letter,vOqxsWpimTMgxZ500r3UAw6c39I2,html-keyboard-response,150,767676,0.0-43.0-5.0-0.0-1.0-9.0,,,,,,,,,,,,,,,5cb59c9e4c39f300173efd41,18:20:54,06/03/2024
1905.0,,,ospan,symmetry,vOqxsWpimTMgxZ500r3UAw6c39I2,symmetry-judgement-task,151,772291,0.0-43.0-5.0-0.0-1.0-10.0,,,,,,,,,,1.0,1.0,,,,5cb59c9e4c39f300173efd41,18:20:54,06/03/2024
,"<div style=""font-size: 10rem; color: #0000FF"">G</div>",,ospan,letter,vOqxsWpimTMgxZ500r3UAw6c39I2,html-keyboard-response,152,773305,0.0-43.0-5.0-0.0-1.0-11.0,,,,,,,,,,,,,,,5cb59c9e4c39f300173efd41,18:20:54,06/03/2024
11060.5,"<div class = numbox><p style=""font-size: 2.4rem"">Please recall the letters you saw to the best of your ability. If you do not remember a particular letter, use the SKIP button.<br><b>(When you are ready to lock in your answer, press ENTER)</b></p><button id = button_1 class = ""square num-button"" onclick = ""recordClick(this)""><div class = content><div class = numbers>C</div></div></button><button id = button_2 class = ""square num-button"" onclick = ""recordClick(this)""><div class = content><div class = numbers>G</div></div></button><button id = button_3 class = ""square num-button"" onclick = ""recordClick(this)""><div class = content><div class = numbers>H</div></div></button><button id = button_4 class = ""square num-button"" onclick = ""recordClick(this)""><div class = content><div class = numbers>J</div></div></button><button id = button_5 class = ""square num-button"" onclick = ""recordClick(this)""><div class = content><div class = numbers>K</div></div></button><button id = button_6 class = ""square num-button"" onclick = ""recordClick(this)""><div class = content><div class = numbers>L</div></div></button><button id = button_7 class = ""square num-button"" onclick = ""recordClick(this)""><div class = content><div class = numbers>N</div></div></button><button id = button_8 class = ""square num-button"" onclick = ""recordClick(this)""><div class = content><div class = numbers>P</div></div></button><button id = button_9 class = ""square num-button"" onclick = ""recordClick(this)""><div class = content><div class = numbers>Q</div></div></button><button id = button_10 class = ""square num-button"" onclick = ""recordClick(this)""><div class = content><div class = numbers>R</div></div></button><button id = button_11 class = ""square num-button"" onclick = ""recordClick(this)""><div class = content><div class = numbers>S</div></div></button><button id = button_12 class = ""square num-button"" onclick = ""recordClick(this)""><div class = content><div class = numbers>Y</div></div></button><button class = clear_button id = ""ClearButton"" onclick = ""clearResponse()"">BACKSPACE</button><button class = blank_button id = ""BlankButton"" onclick = ""blankResponse()"">SKIP</button><p style=""font-size: 2.4rem""><u><b>Current Answer:</b></u></p><br><br><div id=echoed_txt style=""font-size: 5rem; color:blue;""><b></b></div></div>",enter,ospan,retrieval,vOqxsWpimTMgxZ500r3UAw6c39I2,html-keyboard-response,153,785133,0.0-43.0-5.0-0.0-2.0,21,21,21,6.0,"[""J"",""L"",""P"",""H"",""Y"",""G""]","[""J"",""L"",""P"",""H"",""Y"",""G""]",1.0,6.0,,,,,,,5cb59c9e4c39f300173efd41,18:20:54,06/03/2024
1605.4000000953674,[''],0,ospan,feedback,vOqxsWpimTMgxZ500r3UAw6c39I2,html-button-response,154,787252,0.0-43.0-5.0-0.0-3.0,,,,,,,,,,,,100.0,0.0,,5cb59c9e4c39f300173efd41,18:20:54,06/03/2024
,"<p style=""font-size:75px;"">...</p>",,ospan,iti,vOqxsWpimTMgxZ500r3UAw6c39I2,html-keyboard-response,155,788260,0.0-43.0-5.0-1.0-0.0,,,,,,,,,,,,,,,5cb59c9e4c39f300173efd41,18:20:54,06/03/2024
2001.0,,,ospan,symmetry,vOqxsWpimTMgxZ500r3UAw6c39I2,symmetry-judgement-task,156,792030,0.0-43.0-5.0-1.0-1.0-0.0,,,,,,,,,,1.0,1.0,,,,5cb59c9e4c39f300173efd41,18:20:54,06/03/2024
,"<div style=""font-size: 10rem; color: #0000FF"">Y</div>",,ospan,letter,vOqxsWpimTMgxZ500r3UAw6c39I2,html-keyboard-response,157,793061,0.0-43.0-5.0-1.0-1.0-1.0,,,,,,,,,,,,,,,5cb59c9e4c39f300173efd41,18:20:54,06/03/2024
1495.0,,,ospan,symmetry,vOqxsWpimTMgxZ500r3UAw6c39I2,symmetry-judgement-task,158,797245,0.0-43.0-5.0-1.0-1.0-2.0,,,,,,,,,,1.0,1.0,,,,5cb59c9e4c39f300173efd41,18:20:54,06/03/2024
,"<div style=""font-size: 10rem; color: #0000FF"">N</div>",,ospan,letter,vOqxsWpimTMgxZ500r3UAw6c39I2,html-keyboard-response,159,798253,0.0-43.0-5.0-1.0-1.0-3.0,,,,,,,,,,,,,,,5cb59c9e4c39f300173efd41,18:20:54,06/03/2024
1994.0,,,ospan,symmetry,vOqxsWpimTMgxZ500r3UAw6c39I2,symmetry-judgement-task,160,802793,0.0-43.0-5.0-1.0-1.0-4.0,,,,,,,,,,1.0,1.0,,,,5cb59c9e4c39f300173efd41,18:20:54,06/03/2024
,"<div style=""font-size: 10rem; color: #0000FF"">L</div>",,ospan,letter,vOqxsWpimTMgxZ500r3UAw6c39I2,html-keyboard-response,161,803797,0.0-43.0-5.0-1.0-1.0-5.0,,,,,,,,,,,,,,,5cb59c9e4c39f300173efd41,18:20:54,06/03/2024
2409.0,,,ospan,symmetry,vOqxsWpimTMgxZ500r3UAw6c39I2,symmetry-judgement-task,162,808431,0.0-43.0-5.0-1.0-1.0-6.0,,,,,,,,,,1.0,1.0,,,,5cb59c9e4c39f300173efd41,18:20:54,06/03/2024
,"<div style=""font-size: 10rem; color: #0000FF"">R</div>",,ospan,letter,vOqxsWpimTMgxZ500r3UAw6c39I2,html-keyboard-response,163,809434,0.0-43.0-5.0-1.0-1.0-7.0,,,,,,,,,,,,,,,5cb59c9e4c39f300173efd41,18:20:54,06/03/2024
3541.0,,,ospan,symmetry,vOqxsWpimTMgxZ500r3UAw6c39I2,symmetry-judgement-task,164,815516,0.0-43.0-5.0-1.0-1.0-8.0,,,,,,,,,,1.0,1.0,,,,5cb59c9e4c39f300173efd41,18:20:54,06/03/2024
,"<div style=""font-size: 10rem; color: #0000FF"">J</div>",,ospan,letter,vOqxsWpimTMgxZ500r3UAw6c39I2,html-keyboard-response,165,816532,0.0-43.0-5.0-1.0-1.0-9.0,,,,,,,,,,,,,,,5cb59c9e4c39f300173efd41,18:20:54,06/03/2024
2947.0,,,ospan,symmetry,vOqxsWpimTMgxZ500r3UAw6c39I2,symmetry-judgement-task,166,822052,0.0-43.0-5.0-1.0-1.0-10.0,,,,,,,,,,1.0,1.0,,,,5cb59c9e4c39f300173efd41,18:20:54,06/03/2024
,"<div style=""font-size: 10rem; color: #0000FF"">K</div>",,ospan,letter,vOqxsWpimTMgxZ500r3UAw6c39I2,html-keyboard-response,167,823055,0.0-43.0-5.0-1.0-1.0-11.0,,,,,,,,,,,,,,,5cb59c9e4c39f300173efd41,18:20:54,06/03/2024
1117.0,,,ospan,symmetry,vOqxsWpimTMgxZ500r3UAw6c39I2,symmetry-judgement-task,168,826721,0.0-43.0-5.0-1.0-1.0-12.0,,,,,,,,,,1.0,1.0,,,,5cb59c9e4c39f300173efd41,18:20:54,06/03/2024
,"<div style=""font-size: 10rem; color: #0000FF"">P</div>",,ospan,letter,vOqxsWpimTMgxZ500r3UAw6c39I2,html-keyboard-response,169,827733,0.0-43.0-5.0-1.0-1.0-13.0,,,,,,,,,,,,,,,5cb59c9e4c39f300173efd41,18:20:54,06/03/2024
12864.200000047684,"<div class = numbox><p style=""font-size: 2.4rem"">Please recall the letters you saw to the best of your ability. If you do not remember a particular letter, use the SKIP button.<br><b>(When you are ready to lock in your answer, press ENTER)</b></p><button id = button_1 class = ""square num-button"" onclick = ""recordClick(this)""><div class = content><div class = numbers>C</div></div></button><button id = button_2 class = ""square num-button"" onclick = ""recordClick(this)""><div class = content><div class = numbers>G</div></div></button><button id = button_3 class = ""square num-button"" onclick = ""recordClick(this)""><div class = content><div class = numbers>H</div></div></button><button id = button_4 class = ""square num-button"" onclick = ""recordClick(this)""><div class = content><div class = numbers>J</div></div></button><button id = button_5 class = ""square num-button"" onclick = ""recordClick(this)""><div class = content><div class = numbers>K</div></div></button><button id = button_6 class = ""square num-button"" onclick = ""recordClick(this)""><div class = content><div class = numbers>L</div></div></button><button id = button_7 class = ""square num-button"" onclick = ""recordClick(this)""><div class = content><div class = numbers>N</div></div></button><button id = button_8 class = ""square num-button"" onclick = ""recordClick(this)""><div class = content><div class = numbers>P</div></div></button><button id = button_9 class = ""square num-button"" onclick = ""recordClick(this)""><div class = content><div class = numbers>Q</div></div></button><button id = button_10 class = ""square num-button"" onclick = ""recordClick(this)""><div class = content><div class = numbers>R</div></div></button><button id = button_11 class = ""square num-button"" onclick = ""recordClick(this)""><div class = content><div class = numbers>S</div></div></button><button id = button_12 class = ""square num-button"" onclick = ""recordClick(this)""><div class = content><div class = numbers>Y</div></div></button><button class = clear_button id = ""ClearButton"" onclick = ""clearResponse()"">BACKSPACE</button><button class = blank_button id = ""BlankButton"" onclick = ""blankResponse()"">SKIP</button><p style=""font-size: 2.4rem""><u><b>Current Answer:</b></u></p><br><br><div id=echoed_txt style=""font-size: 5rem; color:blue;""><b></b></div></div>",enter,ospan,retrieval,vOqxsWpimTMgxZ500r3UAw6c39I2,html-keyboard-response,170,841375,0.0-43.0-5.0-1.0-2.0,28,28,28,7.0,"[""Y"",""N"",""L"",""R"",""J"",""K"",""P""]","[""Y"",""N"",""L"",""R"",""J"",""K"",""P""]",1.0,7.0,,,,,,,5cb59c9e4c39f300173efd41,18:20:54,06/03/2024
3261.600000023842,[''],0,ospan,feedback,vOqxsWpimTMgxZ500r3UAw6c39I2,html-button-response,171,845148,0.0-43.0-5.0-1.0-3.0,,,,,,,,,,,,100.0,0.0,,5cb59c9e4c39f300173efd41,18:20:54,06/03/2024
,"<p style=""font-size:75px;"">...</p>",,ospan,iti,vOqxsWpimTMgxZ500r3UAw6c39I2,html-keyboard-response,172,846162,0.0-43.0-6.0-0.0-0.0,,,,,,,,,,,,,,,5cb59c9e4c39f300173efd41,18:20:54,06/03/2024
2516.0,,,ospan,symmetry,vOqxsWpimTMgxZ500r3UAw6c39I2,symmetry-judgement-task,173,849857,0.0-43.0-6.0-0.0-1.0-0.0,,,,,,,,,,1.0,1.0,,,,5cb59c9e4c39f300173efd41,18:20:54,06/03/2024
,"<div style=""font-size: 10rem; color: #0000FF"">H</div>",,ospan,letter,vOqxsWpimTMgxZ500r3UAw6c39I2,html-keyboard-response,174,850865,0.0-43.0-6.0-0.0-1.0-1.0,,,,,,,,,,,,,,,5cb59c9e4c39f300173efd41,18:20:54,06/03/2024
2424.0,,,ospan,symmetry,vOqxsWpimTMgxZ500r3UAw6c39I2,symmetry-judgement-task,175,855881,0.0-43.0-6.0-0.0-1.0-2.0,,,,,,,,,,1.0,1.0,,,,5cb59c9e4c39f300173efd41,18:20:54,06/03/2024
,"<div style=""font-size: 10rem; color: #0000FF"">C</div>",,ospan,letter,vOqxsWpimTMgxZ500r3UAw6c39I2,html-keyboard-response,176,856885,0.0-43.0-6.0-0.0-1.0-3.0,,,,,,,,,,,,,,,5cb59c9e4c39f300173efd41,18:20:54,06/03/2024
2102.0,,,ospan,symmetry,vOqxsWpimTMgxZ500r3UAw6c39I2,symmetry-judgement-task,177,861676,0.0-43.0-6.0-0.0-1.0-4.0,,,,,,,,,,1.0,1.0,,,,5cb59c9e4c39f300173efd41,18:20:54,06/03/2024
,"<div style=""font-size: 10rem; color: #0000FF"">K</div>",,ospan,letter,vOqxsWpimTMgxZ500r3UAw6c39I2,html-keyboard-response,178,862690,0.0-43.0-6.0-0.0-1.0-5.0,,,,,,,,,,,,,,,5cb59c9e4c39f300173efd41,18:20:54,06/03/2024
1336.0,,,ospan,symmetry,vOqxsWpimTMgxZ500r3UAw6c39I2,symmetry-judgement-task,179,866515,0.0-43.0-6.0-0.0-1.0-6.0,,,,,,,,,,1.0,1.0,,,,5cb59c9e4c39f300173efd41,18:20:54,06/03/2024
,"<div style=""font-size: 10rem; color: #0000FF"">S</div>",,ospan,letter,vOqxsWpimTMgxZ500r3UAw6c39I2,html-keyboard-response,180,867548,0.0-43.0-6.0-0.0-1.0-7.0,,,,,,,,,,,,,,,5cb59c9e4c39f300173efd41,18:20:54,06/03/2024
1594.0,,,ospan,symmetry,vOqxsWpimTMgxZ500r3UAw6c39I2,symmetry-judgement-task,181,871890,0.0-43.0-6.0-0.0-1.0-8.0,,,,,,,,,,1.0,1.0,,,,5cb59c9e4c39f300173efd41,18:20:54,06/03/2024
,"<div style=""font-size: 10rem; color: #0000FF"">P</div>",,ospan,letter,vOqxsWpimTMgxZ500r3UAw6c39I2,html-keyboard-response,182,872896,0.0-43.0-6.0-0.0-1.0-9.0,,,,,,,,,,,,,,,5cb59c9e4c39f300173efd41,18:20:54,06/03/2024
9203.100000023842,"<div class = numbox><p style=""font-size: 2.4rem"">Please recall the letters you saw to the best of your ability. If you do not remember a particular letter, use the SKIP button.<br><b>(When you are ready to lock in your answer, press ENTER)</b></p><button id = button_1 class = ""square num-button"" onclick = ""recordClick(this)""><div class = content><div class = numbers>C</div></div></button><button id = button_2 class = ""square num-button"" onclick = ""recordClick(this)""><div class = content><div class = numbers>G</div></div></button><button id = button_3 class = ""square num-button"" onclick = ""recordClick(this)""><div class = content><div class = numbers>H</div></div></button><button id = button_4 class = ""square num-button"" onclick = ""recordClick(this)""><div class = content><div class = numbers>J</div></div></button><button id = button_5 class = ""square num-button"" onclick = ""recordClick(this)""><div class = content><div class = numbers>K</div></div></button><button id = button_6 class = ""square num-button"" onclick = ""recordClick(this)""><div class = content><div class = numbers>L</div></div></button><button id = button_7 class = ""square num-button"" onclick = ""recordClick(this)""><div class = content><div class = numbers>N</div></div></button><button id = button_8 class = ""square num-button"" onclick = ""recordClick(this)""><div class = content><div class = numbers>P</div></div></button><button id = button_9 class = ""square num-button"" onclick = ""recordClick(this)""><div class = content><div class = numbers>Q</div></div></button><button id = button_10 class = ""square num-button"" onclick = ""recordClick(this)""><div class = content><div class = numbers>R</div></div></button><button id = button_11 class = ""square num-button"" onclick = ""recordClick(this)""><div class = content><div class = numbers>S</div></div></button><button id = button_12 class = ""square num-button"" onclick = ""recordClick(this)""><div class = content><div class = numbers>Y</div></div></button><button class = clear_button id = ""ClearButton"" onclick = ""clearResponse()"">BACKSPACE</button><button class = blank_button id = ""BlankButton"" onclick = ""blankResponse()"">SKIP</button><p style=""font-size: 2.4rem""><u><b>Current Answer:</b></u></p><br><br><div id=echoed_txt style=""font-size: 5rem; color:blue;""><b></b></div></div>",enter,ospan,retrieval,vOqxsWpimTMgxZ500r3UAw6c39I2,html-keyboard-response,183,882865,0.0-43.0-6.0-0.0-2.0,33,33,33,5.0,"[""H"",""C"",""K"",""S"",""P""]","[""H"",""C"",""K"",""S"",""P""]",1.0,5.0,,,,,,,5cb59c9e4c39f300173efd41,18:20:54,06/03/2024
1226.6999999284744,[''],0,ospan,feedback,vOqxsWpimTMgxZ500r3UAw6c39I2,html-button-response,184,884602,0.0-43.0-6.0-0.0-3.0,,,,,,,,,,,,100.0,0.0,,5cb59c9e4c39f300173efd41,18:20:54,06/03/2024
,"<p style=""font-size:75px;"">...</p>",,ospan,iti,vOqxsWpimTMgxZ500r3UAw6c39I2,html-keyboard-response,185,885617,0.0-43.0-6.0-1.0-0.0,,,,,,,,,,,,,,,5cb59c9e4c39f300173efd41,18:20:54,06/03/2024
2403.0,,,ospan,symmetry,vOqxsWpimTMgxZ500r3UAw6c39I2,symmetry-judgement-task,186,889689,0.0-43.0-6.0-1.0-1.0-0.0,,,,,,,,,,1.0,1.0,,,,5cb59c9e4c39f300173efd41,18:20:54,06/03/2024
,"<div style=""font-size: 10rem; color: #0000FF"">Y</div>",,ospan,letter,vOqxsWpimTMgxZ500r3UAw6c39I2,html-keyboard-response,187,890698,0.0-43.0-6.0-1.0-1.0-1.0,,,,,,,,,,,,,,,5cb59c9e4c39f300173efd41,18:20:54,06/03/2024
1705.0,,,ospan,symmetry,vOqxsWpimTMgxZ500r3UAw6c39I2,symmetry-judgement-task,188,895030,0.0-43.0-6.0-1.0-1.0-2.0,,,,,,,,,,1.0,1.0,,,,5cb59c9e4c39f300173efd41,18:20:54,06/03/2024
,"<div style=""font-size: 10rem; color: #0000FF"">H</div>",,ospan,letter,vOqxsWpimTMgxZ500r3UAw6c39I2,html-keyboard-response,189,896047,0.0-43.0-6.0-1.0-1.0-3.0,,,,,,,,,,,,,,,5cb59c9e4c39f300173efd41,18:20:54,06/03/2024
2098.0,,,ospan,symmetry,vOqxsWpimTMgxZ500r3UAw6c39I2,symmetry-judgement-task,190,900651,0.0-43.0-6.0-1.0-1.0-4.0,,,,,,,,,,1.0,1.0,,,,5cb59c9e4c39f300173efd41,18:20:54,06/03/2024
,"<div style=""font-size: 10rem; color: #0000FF"">G</div>",,ospan,letter,vOqxsWpimTMgxZ500r3UAw6c39I2,html-keyboard-response,191,901664,0.0-43.0-6.0-1.0-1.0-5.0,,,,,,,,,,,,,,,5cb59c9e4c39f300173efd41,18:20:54,06/03/2024
1628.0,,,ospan,symmetry,vOqxsWpimTMgxZ500r3UAw6c39I2,symmetry-judgement-task,192,905721,0.0-43.0-6.0-1.0-1.0-6.0,,,,,,,,,,1.0,1.0,,,,5cb59c9e4c39f300173efd41,18:20:54,06/03/2024
,"<div style=""font-size: 10rem; color: #0000FF"">Q</div>",,ospan,letter,vOqxsWpimTMgxZ500r3UAw6c39I2,html-keyboard-response,193,906726,0.0-43.0-6.0-1.0-1.0-7.0,,,,,,,,,,,,,,,5cb59c9e4c39f300173efd41,18:20:54,06/03/2024
1536.0,,,ospan,symmetry,vOqxsWpimTMgxZ500r3UAw6c39I2,symmetry-judgement-task,194,910858,0.0-43.0-6.0-1.0-1.0-8.0,,,,,,,,,,1.0,1.0,,,,5cb59c9e4c39f300173efd41,18:20:54,06/03/2024
,"<div style=""font-size: 10rem; color: #0000FF"">P</div>",,ospan,letter,vOqxsWpimTMgxZ500r3UAw6c39I2,html-keyboard-response,195,911875,0.0-43.0-6.0-1.0-1.0-9.0,,,,,,,,,,,,,,,5cb59c9e4c39f300173efd41,18:20:54,06/03/2024
1750.0,,,ospan,symmetry,vOqxsWpimTMgxZ500r3UAw6c39I2,symmetry-judgement-task,196,916245,0.0-43.0-6.0-1.0-1.0-10.0,,,,,,,,,,1.0,1.0,,,,5cb59c9e4c39f300173efd41,18:20:54,06/03/2024
,"<div style=""font-size: 10rem; color: #0000FF"">K</div>",,ospan,letter,vOqxsWpimTMgxZ500r3UAw6c39I2,html-keyboard-response,197,917250,0.0-43.0-6.0-1.0-1.0-11.0,,,,,,,,,,,,,,,5cb59c9e4c39f300173efd41,18:20:54,06/03/2024
2398.0,,,ospan,symmetry,vOqxsWpimTMgxZ500r3UAw6c39I2,symmetry-judgement-task,198,922300,0.0-43.0-6.0-1.0-1.0-12.0,,,,,,,,,,1.0,1.0,,,,5cb59c9e4c39f300173efd41,18:20:54,06/03/2024
,"<div style=""font-size: 10rem; color: #0000FF"">C</div>",,ospan,letter,vOqxsWpimTMgxZ500r3UAw6c39I2,html-keyboard-response,199,923315,0.0-43.0-6.0-1.0-1.0-13.0,,,,,,,,,,,,,,,5cb59c9e4c39f300173efd41,18:20:54,06/03/2024
1545.0,,,ospan,symmetry,vOqxsWpimTMgxZ500r3UAw6c39I2,symmetry-judgement-task,200,927382,0.0-43.0-6.0-1.0-1.0-14.0,,,,,,,,,,1.0,1.0,,,,5cb59c9e4c39f300173efd41,18:20:54,06/03/2024
,"<div style=""font-size: 10rem; color: #0000FF"">S</div>",,ospan,letter,vOqxsWpimTMgxZ500r3UAw6c39I2,html-keyboard-response,201,928390,0.0-43.0-6.0-1.0-1.0-15.0,,,,,,,,,,,,,,,5cb59c9e4c39f300173efd41,18:20:54,06/03/2024
10710.5,"<div class = numbox><p style=""font-size: 2.4rem"">Please recall the letters you saw to the best of your ability. If you do not remember a particular letter, use the SKIP button.<br><b>(When you are ready to lock in your answer, press ENTER)</b></p><button id = button_1 class = ""square num-button"" onclick = ""recordClick(this)""><div class = content><div class = numbers>C</div></div></button><button id = button_2 class = ""square num-button"" onclick = ""recordClick(this)""><div class = content><div class = numbers>G</div></div></button><button id = button_3 class = ""square num-button"" onclick = ""recordClick(this)""><div class = content><div class = numbers>H</div></div></button><button id = button_4 class = ""square num-button"" onclick = ""recordClick(this)""><div class = content><div class = numbers>J</div></div></button><button id = button_5 class = ""square num-button"" onclick = ""recordClick(this)""><div class = content><div class = numbers>K</div></div></button><button id = button_6 class = ""square num-button"" onclick = ""recordClick(this)""><div class = content><div class = numbers>L</div></div></button><button id = button_7 class = ""square num-button"" onclick = ""recordClick(this)""><div class = content><div class = numbers>N</div></div></button><button id = button_8 class = ""square num-button"" onclick = ""recordClick(this)""><div class = content><div class = numbers>P</div></div></button><button id = button_9 class = ""square num-button"" onclick = ""recordClick(this)""><div class = content><div class = numbers>Q</div></div></button><button id = button_10 class = ""square num-button"" onclick = ""recordClick(this)""><div class = content><div class = numbers>R</div></div></button><button id = button_11 class = ""square num-button"" onclick = ""recordClick(this)""><div class = content><div class = numbers>S</div></div></button><button id = button_12 class = ""square num-button"" onclick = ""recordClick(this)""><div class = content><div class = numbers>Y</div></div></button><button class = clear_button id = ""ClearButton"" onclick = ""clearResponse()"">BACKSPACE</button><button class = blank_button id = ""BlankButton"" onclick = ""blankResponse()"">SKIP</button><p style=""font-size: 2.4rem""><u><b>Current Answer:</b></u></p><br><br><div id=echoed_txt style=""font-size: 5rem; color:blue;""><b></b></div></div>",enter,ospan,retrieval,vOqxsWpimTMgxZ500r3UAw6c39I2,html-keyboard-response,202,939866,0.0-43.0-6.0-1.0-2.0,41,38,33,8.0,"[""Y"",""H"",""G"",""Q"",""P"",""C""]","[""Y"",""H"",""G"",""Q"",""P"",""K"",""C"",""S""]",0.0,5.0,,,,,,,5cb59c9e4c39f300173efd41,18:20:54,06/03/2024
37662.89999997616,[''],0,ospan,feedback,vOqxsWpimTMgxZ500r3UAw6c39I2,html-button-response,203,978035,0.0-43.0-6.0-1.0-3.0,,,,,,,,,,,,100.0,0.0,,5cb59c9e4c39f300173efd41,18:20:54,06/03/2024
14866.200000047684,,"{'Q0': 'none, all very clear'}",ospan,survey_ospan,vOqxsWpimTMgxZ500r3UAw6c39I2,lmdlab-survey-text,204,993667,0.0-43.0-7.0,,,,,,,,,,,,,,vOqxsWpimTMgxZ500r3UAw6c39I2,5cb59c9e4c39f300173efd41,18:20:54,06/03/2024
2963.899999976158,<p><p style='font-size: 3rem'>Great work!<br><br>This completes the symmetry and memory task.</p><br><br><br>,0,ospan,finish,vOqxsWpimTMgxZ500r3UAw6c39I2,html-button-response,205,996639,0.0-43.0-8.0,41,38,33,,,,,,,,,100.0,,,5cb59c9e4c39f300173efd41,18:20:54,06/03/2024
