rt,stimulus,response,exp_name,exp_stage,subjectID,trial_type,trial_index,time_elapsed,internal_node_id,ospan_shown,ospan_total,ospan_abs,length,resp_actual,resp_correct,full_correct,num_correct,feedback,accuracy,correct,math_acc,math_warning,databaseID,prolificID,start_time,date
2516.2999999523163,<div class = 'left_align' style='font-size: 3.25rem; line-height: 1.3;'><p class = 'center_align'><b>Welcome to the Symmetry and Memory Task</b><br><br><br><br></p>Press 'continue' to show the instructions.<br><br><br><br></div>,0,ospan,instruct,oQ2osWh2eabR0eWAtPCuZNzv5aI2,html-button-response,54,1318623,0.0-46.0-0.0-0.0-0.0,,,,,,,,,,,,,,,5d53c991ab3b8500015b7026,08:49:58,03/04/2024
11871.5,"<div class = 'left_align' style='font-size: 3.25rem; line-height: 1.3;'><p class = 'center_align'><b>Symmetry and Memory Task</b><br><br></p>In this task, you will try to memorize letters you see on the screen<br>while you also view black and white grid pictures.<br><br>In the next few minutes, you will have some practice to get you familiar<br>with how the task works.<br><br>It may be difficult sometimes, but please do not worry about making mistakes!<br><br>We will begin by practicing the letter part of the task.<br><br><br><br></div>",0,ospan,instruct,oQ2osWh2eabR0eWAtPCuZNzv5aI2,html-button-response,55,1330751,0.0-46.0-0.0-0.0-1.0,,,,,,,,,,,,,,,5d53c991ab3b8500015b7026,08:49:58,03/04/2024
13333.399999976158,"<div class = 'left_align' style='font-size: 3.25rem; line-height: 1.3;'>For this practice part, letters will appear on the screen one at a time.<br><br>Try to remember each letter in the order presented.<br><br>After some letters have been shown, you will see a response screen. Your<br>goal is to report the letters you saw <b>in order</b>. If you do not remember<br>a particular letter, you will have the option to leave it blank.<br><br><br><br></div>",0,ospan,instruct,oQ2osWh2eabR0eWAtPCuZNzv5aI2,html-button-response,56,1344349,0.0-46.0-0.0-0.0-2.0,,,,,,,,,,,,,,,5d53c991ab3b8500015b7026,08:49:58,03/04/2024
4620.600000023842,"<div class = 'left_align' style='font-size: 3.25rem; line-height: 1.3;'>Remember, it is very important to get the letters in the same<br>order as you see them.<br><br>When you are ready, you may begin the letter practice.</div><br><br><br><br>",0,ospan,instruct,oQ2osWh2eabR0eWAtPCuZNzv5aI2,html-button-response,57,1349226,0.0-46.0-0.0-0.0-3.0,,,,,,,,,,,,,,,5d53c991ab3b8500015b7026,08:49:58,03/04/2024
,"<p style=""font-size:75px;"">...</p>",,ospan,iti,oQ2osWh2eabR0eWAtPCuZNzv5aI2,html-keyboard-response,58,1350487,0.0-46.0-0.0-1.0-0.0,,,,,,,,,,,,,,,5d53c991ab3b8500015b7026,08:49:58,03/04/2024
,"<div style=""font-size: 10rem; color: #0000FF"">Y</div>",,ospan,letter,oQ2osWh2eabR0eWAtPCuZNzv5aI2,html-keyboard-response,59,1351501,0.0-46.0-0.0-1.0-1.0,,,,,,,,,,,,,,,5d53c991ab3b8500015b7026,08:49:58,03/04/2024
,"<div style=""font-size: 10rem; color: #0000FF"">J</div>",,ospan,letter,oQ2osWh2eabR0eWAtPCuZNzv5aI2,html-keyboard-response,60,1353269,0.0-46.0-0.0-1.0-2.0,,,,,,,,,,,,,,,5d53c991ab3b8500015b7026,08:49:58,03/04/2024
5498.0,"<div class = numbox><p style=""font-size: 2.4rem"">Please recall the letters you saw to the best of your ability. If you do not remember a particular letter, use the SKIP button.<br><b>(When you are ready to lock in your answer, press ENTER)</b></p><button id = button_1 class = ""square num-button"" onclick = ""recordClick(this)""><div class = content><div class = numbers>C</div></div></button><button id = button_2 class = ""square num-button"" onclick = ""recordClick(this)""><div class = content><div class = numbers>G</div></div></button><button id = button_3 class = ""square num-button"" onclick = ""recordClick(this)""><div class = content><div class = numbers>H</div></div></button><button id = button_4 class = ""square num-button"" onclick = ""recordClick(this)""><div class = content><div class = numbers>J</div></div></button><button id = button_5 class = ""square num-button"" onclick = ""recordClick(this)""><div class = content><div class = numbers>K</div></div></button><button id = button_6 class = ""square num-button"" onclick = ""recordClick(this)""><div class = content><div class = numbers>L</div></div></button><button id = button_7 class = ""square num-button"" onclick = ""recordClick(this)""><div class = content><div class = numbers>N</div></div></button><button id = button_8 class = ""square num-button"" onclick = ""recordClick(this)""><div class = content><div class = numbers>P</div></div></button><button id = button_9 class = ""square num-button"" onclick = ""recordClick(this)""><div class = content><div class = numbers>Q</div></div></button><button id = button_10 class = ""square num-button"" onclick = ""recordClick(this)""><div class = content><div class = numbers>R</div></div></button><button id = button_11 class = ""square num-button"" onclick = ""recordClick(this)""><div class = content><div class = numbers>S</div></div></button><button id = button_12 class = ""square num-button"" onclick = ""recordClick(this)""><div class = content><div class = numbers>Y</div></div></button><button class = clear_button id = ""ClearButton"" onclick = ""clearResponse()"">BACKSPACE</button><button class = blank_button id = ""BlankButton"" onclick = ""blankResponse()"">SKIP</button><p style=""font-size: 2.4rem""><u><b>Current Answer:</b></u></p><br><br><div id=echoed_txt style=""font-size: 5rem; color:blue;""><b></b></div></div>",enter,ospan,retrieval,oQ2osWh2eabR0eWAtPCuZNzv5aI2,html-keyboard-response,61,1359530,0.0-46.0-0.0-1.0-3.0,NA,NA,NA,2.0,"[""Y"",""J""]","[""Y"",""J""]",1.0,2.0,"['<font color=""green"">Y</font>', '<font color=""green"">J</font>']",,,,,,5d53c991ab3b8500015b7026,08:49:58,03/04/2024
1529.1999999284744,"['<p style=""font-size:44px"">Letters:<br><br><br><font color=""green"">Y</font> <font color=""green"">J</font></p><br><br>']",0,ospan,practice_feedback,oQ2osWh2eabR0eWAtPCuZNzv5aI2,html-button-response,62,1361572,0.0-46.0-0.0-1.0-4.0,,,,,,,,,,,,,,,5d53c991ab3b8500015b7026,08:49:58,03/04/2024
,"<p style=""font-size:75px;"">...</p>",,ospan,iti,oQ2osWh2eabR0eWAtPCuZNzv5aI2,html-keyboard-response,63,1362589,0.0-46.0-0.0-2.0-0.0,,,,,,,,,,,,,,,5d53c991ab3b8500015b7026,08:49:58,03/04/2024
,"<div style=""font-size: 10rem; color: #0000FF"">G</div>",,ospan,letter,oQ2osWh2eabR0eWAtPCuZNzv5aI2,html-keyboard-response,64,1363592,0.0-46.0-0.0-2.0-1.0,,,,,,,,,,,,,,,5d53c991ab3b8500015b7026,08:49:58,03/04/2024
,"<div style=""font-size: 10rem; color: #0000FF"">R</div>",,ospan,letter,oQ2osWh2eabR0eWAtPCuZNzv5aI2,html-keyboard-response,65,1365372,0.0-46.0-0.0-2.0-2.0,,,,,,,,,,,,,,,5d53c991ab3b8500015b7026,08:49:58,03/04/2024
,"<div style=""font-size: 10rem; color: #0000FF"">C</div>",,ospan,letter,oQ2osWh2eabR0eWAtPCuZNzv5aI2,html-keyboard-response,66,1367138,0.0-46.0-0.0-2.0-3.0,,,,,,,,,,,,,,,5d53c991ab3b8500015b7026,08:49:58,03/04/2024
3613.100000023842,"<div class = numbox><p style=""font-size: 2.4rem"">Please recall the letters you saw to the best of your ability. If you do not remember a particular letter, use the SKIP button.<br><b>(When you are ready to lock in your answer, press ENTER)</b></p><button id = button_1 class = ""square num-button"" onclick = ""recordClick(this)""><div class = content><div class = numbers>C</div></div></button><button id = button_2 class = ""square num-button"" onclick = ""recordClick(this)""><div class = content><div class = numbers>G</div></div></button><button id = button_3 class = ""square num-button"" onclick = ""recordClick(this)""><div class = content><div class = numbers>H</div></div></button><button id = button_4 class = ""square num-button"" onclick = ""recordClick(this)""><div class = content><div class = numbers>J</div></div></button><button id = button_5 class = ""square num-button"" onclick = ""recordClick(this)""><div class = content><div class = numbers>K</div></div></button><button id = button_6 class = ""square num-button"" onclick = ""recordClick(this)""><div class = content><div class = numbers>L</div></div></button><button id = button_7 class = ""square num-button"" onclick = ""recordClick(this)""><div class = content><div class = numbers>N</div></div></button><button id = button_8 class = ""square num-button"" onclick = ""recordClick(this)""><div class = content><div class = numbers>P</div></div></button><button id = button_9 class = ""square num-button"" onclick = ""recordClick(this)""><div class = content><div class = numbers>Q</div></div></button><button id = button_10 class = ""square num-button"" onclick = ""recordClick(this)""><div class = content><div class = numbers>R</div></div></button><button id = button_11 class = ""square num-button"" onclick = ""recordClick(this)""><div class = content><div class = numbers>S</div></div></button><button id = button_12 class = ""square num-button"" onclick = ""recordClick(this)""><div class = content><div class = numbers>Y</div></div></button><button class = clear_button id = ""ClearButton"" onclick = ""clearResponse()"">BACKSPACE</button><button class = blank_button id = ""BlankButton"" onclick = ""blankResponse()"">SKIP</button><p style=""font-size: 2.4rem""><u><b>Current Answer:</b></u></p><br><br><div id=echoed_txt style=""font-size: 5rem; color:blue;""><b></b></div></div>",enter,ospan,retrieval,oQ2osWh2eabR0eWAtPCuZNzv5aI2,html-keyboard-response,67,1371514,0.0-46.0-0.0-2.0-4.0,NA,NA,NA,3.0,"[""G"",""R"",""C""]","[""G"",""R"",""C""]",1.0,3.0,"['<font color=""green"">G</font>', '<font color=""green"">R</font>', '<font color=""green"">C</font>']",,,,,,5d53c991ab3b8500015b7026,08:49:58,03/04/2024
905.1999999284744,"['<p style=""font-size:44px"">Letters:<br><br><br><font color=""green"">G</font> <font color=""green"">R</font> <font color=""green"">C</font></p><br><br>']",0,ospan,practice_feedback,oQ2osWh2eabR0eWAtPCuZNzv5aI2,html-button-response,68,1372923,0.0-46.0-0.0-2.0-5.0,,,,,,,,,,,,,,,5d53c991ab3b8500015b7026,08:49:58,03/04/2024
16260.700000047684,"<div class = 'left_align' style='font-size: 3.25rem; line-height: 1.3;'>Now you will practice doing the <b>symmetry judgment part</b> of the experiment.<br><br>A black and white grid picture will appear on the screen and you have to judge if it is <br>symmetrical or asymetrical.<br><br>A picture is 'mirror' symmetrical if its left half is identical to the right half when flipped.<br>Here are examples of a symmetrical and an asymetrical picture:<br><br><center><img src='Stimuli/img/symm_instructions_extra.png' style='height:420px; width:900'></img></center><br>To judge symmetry, imagine you were to fold each picture down the middle, like a book –<br>would the left half match the right half when folded onto each other?<br><br></div><br>",0,ospan,instruct,oQ2osWh2eabR0eWAtPCuZNzv5aI2,html-button-response,69,1389186,0.0-46.0-1.0-0.0-0.0,,,,,,,,,,,,,,,5d53c991ab3b8500015b7026,08:49:58,03/04/2024
7917.799999952316,"<div class = 'left_align' style='font-size: 3.25rem; line-height: 1.3;'>When you have viewed the picture and determined whether it is symmetrical or not,<br>you can <b>click the Yes or No button</b> below to answer.<br><br>If you take longer than 15 seconds, it will continue automatically<br>and record the answer as an error.</div><br>",0,ospan,instruct,oQ2osWh2eabR0eWAtPCuZNzv5aI2,html-button-response,70,1397365,0.0-46.0-1.0-0.0-1.0,,,,,,,,,,,,,,,5d53c991ab3b8500015b7026,08:49:58,03/04/2024
6345.200000047684,"<div class = 'left_align' style='font-size: 3.25rem; line-height: 1.3;'>It is <b>very</b> important that you make the symmetry judgment correctly.<br><br>It is also important that you try and judge the picture as quickly as you can.<br><br>When you are ready, click on the button below to try some practice problems.</div><br><br><br><br>",0,ospan,instruct,oQ2osWh2eabR0eWAtPCuZNzv5aI2,html-button-response,71,1403970,0.0-46.0-1.0-0.0-2.0,,,,,,,,,,,,,,,5d53c991ab3b8500015b7026,08:49:58,03/04/2024
1684.0,,,ospan,symmetry,oQ2osWh2eabR0eWAtPCuZNzv5aI2,symmetry-judgement-task,72,1406453,0.0-46.0-1.0-1.0-0.0,,,,,,,,,,1.0,1.0,,,,5d53c991ab3b8500015b7026,08:49:58,03/04/2024
,"<p style=""color:green; font-size: 35px"">Correct</p>",,ospan,feedback,oQ2osWh2eabR0eWAtPCuZNzv5aI2,html-keyboard-response,73,1407220,0.0-46.0-1.0-1.0-1.0,,,,,,,,,,,,,,,5d53c991ab3b8500015b7026,08:49:58,03/04/2024
1283.0,,,ospan,symmetry,oQ2osWh2eabR0eWAtPCuZNzv5aI2,symmetry-judgement-task,74,1411045,0.0-46.0-1.0-1.0-2.0,,,,,,,,,,1.0,1.0,,,,5d53c991ab3b8500015b7026,08:49:58,03/04/2024
,"<p style=""color:green; font-size: 35px"">Correct</p>",,ospan,feedback,oQ2osWh2eabR0eWAtPCuZNzv5aI2,html-keyboard-response,75,1411802,0.0-46.0-1.0-1.0-3.0,,,,,,,,,,,,,,,5d53c991ab3b8500015b7026,08:49:58,03/04/2024
1112.0,,,ospan,symmetry,oQ2osWh2eabR0eWAtPCuZNzv5aI2,symmetry-judgement-task,76,1415514,0.0-46.0-1.0-1.0-4.0,,,,,,,,,,1.0,1.0,,,,5d53c991ab3b8500015b7026,08:49:58,03/04/2024
,"<p style=""color:green; font-size: 35px"">Correct</p>",,ospan,feedback,oQ2osWh2eabR0eWAtPCuZNzv5aI2,html-keyboard-response,77,1416280,0.0-46.0-1.0-1.0-5.0,,,,,,,,,,,,,,,5d53c991ab3b8500015b7026,08:49:58,03/04/2024
2323.5,"<p style=""font-size: 3rem;"">You responded correctly on 3 of 3 symmetry judgments. Good job!</p><br><br>",0,ospan,practice,oQ2osWh2eabR0eWAtPCuZNzv5aI2,html-button-response,78,1420618,0.0-46.0-1.0-2.0,,,,,,,,,,,,,,,5d53c991ab3b8500015b7026,08:49:58,03/04/2024
4403.299999952316,"<div class = 'left_align' style='font-size: 3.25rem; line-height: 1.3;'>Now you will practice doing both parts of the experiment at the same time.<br><br>In the next practice set, you will be given one grid picture to judge.<br>Then letter will appear on the screen. Try to remember the letter.<br><br>It is <b>very important</b> to make the symmetry judgment as quickly and accurately as possible.<br><br>Just as before, once you have make the symmetry judgment, you can click Yes or No.<br><b>Note that you will no longer see Correct or Incorrect feedback.</div><br><br><br><br>",0,ospan,instruct,oQ2osWh2eabR0eWAtPCuZNzv5aI2,html-button-response,79,1425280,0.0-46.0-2.0-0.0-0.0,,,,,,,,,,,,,,,5d53c991ab3b8500015b7026,08:49:58,03/04/2024
1746.1000000238419,"<div class = 'left_align' style='font-size: 3.25rem; line-height: 1.3;'>After the letter goes away, another grid picture will appear, and then<br>another letter.<br><br>At the end of each set of letters and grids, you will recall the letters to the best<br>of your ability. Remember, try your best to get the letters in the correct order.<br><br>It is important to <b>quickly</b> and <b>accurately</b> make the symmetry judgments.</div><br><br><br><br>",0,ospan,instruct,oQ2osWh2eabR0eWAtPCuZNzv5aI2,html-button-response,80,1427285,0.0-46.0-2.0-0.0-1.0,,,,,,,,,,,,,,,5d53c991ab3b8500015b7026,08:49:58,03/04/2024
5527.200000047684,"<div class = 'left_align' style='font-size: 3.25rem; line-height: 1.3;'>On the feedback screen, if you are not doing well at the symmetry judgments,<br>you will also see a warning in the middle. This indicates your percent <br>correct for the grid pictures for the entire experiment.<br><br>It is <b>very</b> important for you to keep accuracy at least at 85%: <u>We can only use<br>data where the participant was at least 85% accurate on the judgments.</u> Therefore,<br> please try your best to perform well on the symmetry judgments, <b>at the same time</b><br>doing your best to recall as many letters as possible.<br><br>Click the button to try some practice problems.</div><br><br><br><br>",0,ospan,instruct,oQ2osWh2eabR0eWAtPCuZNzv5aI2,html-button-response,81,1433081,0.0-46.0-2.0-0.0-2.0,,,,,,,,,,,,,,,5d53c991ab3b8500015b7026,08:49:58,03/04/2024
,"<p style=""font-size:75px;"">...</p>",,ospan,iti,oQ2osWh2eabR0eWAtPCuZNzv5aI2,html-keyboard-response,82,1434357,0.0-46.0-2.0-1.0-0.0,,,,,,,,,,,,,,,5d53c991ab3b8500015b7026,08:49:58,03/04/2024
1230.0,,,ospan,symmetry,oQ2osWh2eabR0eWAtPCuZNzv5aI2,symmetry-judgement-task,83,1436683,0.0-46.0-2.0-1.0-1.0-0.0,,,,,,,,,,1.0,1.0,,,,5d53c991ab3b8500015b7026,08:49:58,03/04/2024
,"<div style=""font-size: 10rem; color: #0000FF"">R</div>",,ospan,letter,oQ2osWh2eabR0eWAtPCuZNzv5aI2,html-keyboard-response,84,1437699,0.0-46.0-2.0-1.0-1.0-1.0,,,,,,,,,,,,,,,5d53c991ab3b8500015b7026,08:49:58,03/04/2024
1671.0,,,ospan,symmetry,oQ2osWh2eabR0eWAtPCuZNzv5aI2,symmetry-judgement-task,85,1441232,0.0-46.0-2.0-1.0-1.0-2.0,,,,,,,,,,1.0,1.0,,,,5d53c991ab3b8500015b7026,08:49:58,03/04/2024
,"<div style=""font-size: 10rem; color: #0000FF"">J</div>",,ospan,letter,oQ2osWh2eabR0eWAtPCuZNzv5aI2,html-keyboard-response,86,1442244,0.0-46.0-2.0-1.0-1.0-3.0,,,,,,,,,,,,,,,5d53c991ab3b8500015b7026,08:49:58,03/04/2024
1005.0,,,ospan,symmetry,oQ2osWh2eabR0eWAtPCuZNzv5aI2,symmetry-judgement-task,87,1445111,0.0-46.0-2.0-1.0-1.0-4.0,,,,,,,,,,1.0,1.0,,,,5d53c991ab3b8500015b7026,08:49:58,03/04/2024
,"<div style=""font-size: 10rem; color: #0000FF"">S</div>",,ospan,letter,oQ2osWh2eabR0eWAtPCuZNzv5aI2,html-keyboard-response,88,1446125,0.0-46.0-2.0-1.0-1.0-5.0,,,,,,,,,,,,,,,5d53c991ab3b8500015b7026,08:49:58,03/04/2024
4533.899999976158,"<div class = numbox><p style=""font-size: 2.4rem"">Please recall the letters you saw to the best of your ability. If you do not remember a particular letter, use the SKIP button.<br><b>(When you are ready to lock in your answer, press ENTER)</b></p><button id = button_1 class = ""square num-button"" onclick = ""recordClick(this)""><div class = content><div class = numbers>C</div></div></button><button id = button_2 class = ""square num-button"" onclick = ""recordClick(this)""><div class = content><div class = numbers>G</div></div></button><button id = button_3 class = ""square num-button"" onclick = ""recordClick(this)""><div class = content><div class = numbers>H</div></div></button><button id = button_4 class = ""square num-button"" onclick = ""recordClick(this)""><div class = content><div class = numbers>J</div></div></button><button id = button_5 class = ""square num-button"" onclick = ""recordClick(this)""><div class = content><div class = numbers>K</div></div></button><button id = button_6 class = ""square num-button"" onclick = ""recordClick(this)""><div class = content><div class = numbers>L</div></div></button><button id = button_7 class = ""square num-button"" onclick = ""recordClick(this)""><div class = content><div class = numbers>N</div></div></button><button id = button_8 class = ""square num-button"" onclick = ""recordClick(this)""><div class = content><div class = numbers>P</div></div></button><button id = button_9 class = ""square num-button"" onclick = ""recordClick(this)""><div class = content><div class = numbers>Q</div></div></button><button id = button_10 class = ""square num-button"" onclick = ""recordClick(this)""><div class = content><div class = numbers>R</div></div></button><button id = button_11 class = ""square num-button"" onclick = ""recordClick(this)""><div class = content><div class = numbers>S</div></div></button><button id = button_12 class = ""square num-button"" onclick = ""recordClick(this)""><div class = content><div class = numbers>Y</div></div></button><button class = clear_button id = ""ClearButton"" onclick = ""clearResponse()"">BACKSPACE</button><button class = blank_button id = ""BlankButton"" onclick = ""blankResponse()"">SKIP</button><p style=""font-size: 2.4rem""><u><b>Current Answer:</b></u></p><br><br><div id=echoed_txt style=""font-size: 5rem; color:blue;""><b></b></div></div>",enter,ospan,retrieval,oQ2osWh2eabR0eWAtPCuZNzv5aI2,html-keyboard-response,89,1451422,0.0-46.0-2.0-1.0-2.0-0.0,NA,NA,NA,3.0,"[""R"",""J"",""S""]","[""R"",""J"",""S""]",1.0,3.0,"['<font color=""green"">R</font>', '<font color=""green"">J</font>', '<font color=""green"">S</font>']",,,,,,5d53c991ab3b8500015b7026,08:49:58,03/04/2024
1738.5999999046326,"['<p style=""font-size:44px"">Letters:<br><br><br><font color=""green"">R</font> <font color=""green"">J</font> <font color=""green"">S</font></p><br><br><p style=""font-size:30px"">Symmetry:<br><br><font color=""green"">100%</font></p><br><br>']",0,ospan,practice_feedback,oQ2osWh2eabR0eWAtPCuZNzv5aI2,html-button-response,90,1453677,0.0-46.0-2.0-1.0-2.0-1.0,,,,,,,,,,,,,,,5d53c991ab3b8500015b7026,08:49:58,03/04/2024
,"<p style=""font-size:75px;"">...</p>",,ospan,iti,oQ2osWh2eabR0eWAtPCuZNzv5aI2,html-keyboard-response,91,1454686,0.0-46.0-2.0-2.0-0.0,,,,,,,,,,,,,,,5d53c991ab3b8500015b7026,08:49:58,03/04/2024
1393.0,,,ospan,symmetry,oQ2osWh2eabR0eWAtPCuZNzv5aI2,symmetry-judgement-task,92,1457111,0.0-46.0-2.0-2.0-1.0-0.0,,,,,,,,,,1.0,1.0,,,,5d53c991ab3b8500015b7026,08:49:58,03/04/2024
,"<div style=""font-size: 10rem; color: #0000FF"">S</div>",,ospan,letter,oQ2osWh2eabR0eWAtPCuZNzv5aI2,html-keyboard-response,93,1458117,0.0-46.0-2.0-2.0-1.0-1.0,,,,,,,,,,,,,,,5d53c991ab3b8500015b7026,08:49:58,03/04/2024
1254.0,,,ospan,symmetry,oQ2osWh2eabR0eWAtPCuZNzv5aI2,symmetry-judgement-task,94,1461230,0.0-46.0-2.0-2.0-1.0-2.0,,,,,,,,,,1.0,1.0,,,,5d53c991ab3b8500015b7026,08:49:58,03/04/2024
,"<div style=""font-size: 10rem; color: #0000FF"">H</div>",,ospan,letter,oQ2osWh2eabR0eWAtPCuZNzv5aI2,html-keyboard-response,95,1462236,0.0-46.0-2.0-2.0-1.0-3.0,,,,,,,,,,,,,,,5d53c991ab3b8500015b7026,08:49:58,03/04/2024
1120.0,,,ospan,symmetry,oQ2osWh2eabR0eWAtPCuZNzv5aI2,symmetry-judgement-task,96,1465197,0.0-46.0-2.0-2.0-1.0-4.0,,,,,,,,,,1.0,1.0,,,,5d53c991ab3b8500015b7026,08:49:58,03/04/2024
,"<div style=""font-size: 10rem; color: #0000FF"">N</div>",,ospan,letter,oQ2osWh2eabR0eWAtPCuZNzv5aI2,html-keyboard-response,97,1466211,0.0-46.0-2.0-2.0-1.0-5.0,,,,,,,,,,,,,,,5d53c991ab3b8500015b7026,08:49:58,03/04/2024
3267.1999999284744,"<div class = numbox><p style=""font-size: 2.4rem"">Please recall the letters you saw to the best of your ability. If you do not remember a particular letter, use the SKIP button.<br><b>(When you are ready to lock in your answer, press ENTER)</b></p><button id = button_1 class = ""square num-button"" onclick = ""recordClick(this)""><div class = content><div class = numbers>C</div></div></button><button id = button_2 class = ""square num-button"" onclick = ""recordClick(this)""><div class = content><div class = numbers>G</div></div></button><button id = button_3 class = ""square num-button"" onclick = ""recordClick(this)""><div class = content><div class = numbers>H</div></div></button><button id = button_4 class = ""square num-button"" onclick = ""recordClick(this)""><div class = content><div class = numbers>J</div></div></button><button id = button_5 class = ""square num-button"" onclick = ""recordClick(this)""><div class = content><div class = numbers>K</div></div></button><button id = button_6 class = ""square num-button"" onclick = ""recordClick(this)""><div class = content><div class = numbers>L</div></div></button><button id = button_7 class = ""square num-button"" onclick = ""recordClick(this)""><div class = content><div class = numbers>N</div></div></button><button id = button_8 class = ""square num-button"" onclick = ""recordClick(this)""><div class = content><div class = numbers>P</div></div></button><button id = button_9 class = ""square num-button"" onclick = ""recordClick(this)""><div class = content><div class = numbers>Q</div></div></button><button id = button_10 class = ""square num-button"" onclick = ""recordClick(this)""><div class = content><div class = numbers>R</div></div></button><button id = button_11 class = ""square num-button"" onclick = ""recordClick(this)""><div class = content><div class = numbers>S</div></div></button><button id = button_12 class = ""square num-button"" onclick = ""recordClick(this)""><div class = content><div class = numbers>Y</div></div></button><button class = clear_button id = ""ClearButton"" onclick = ""clearResponse()"">BACKSPACE</button><button class = blank_button id = ""BlankButton"" onclick = ""blankResponse()"">SKIP</button><p style=""font-size: 2.4rem""><u><b>Current Answer:</b></u></p><br><br><div id=echoed_txt style=""font-size: 5rem; color:blue;""><b></b></div></div>",enter,ospan,retrieval,oQ2osWh2eabR0eWAtPCuZNzv5aI2,html-keyboard-response,98,1470244,0.0-46.0-2.0-2.0-2.0-0.0,NA,NA,NA,3.0,"[""S"",""H"",""N""]","[""S"",""H"",""N""]",1.0,3.0,"['<font color=""green"">S</font>', '<font color=""green"">H</font>', '<font color=""green"">N</font>']",,,,,,5d53c991ab3b8500015b7026,08:49:58,03/04/2024
1072.3999999761581,"['<p style=""font-size:44px"">Letters:<br><br><br><font color=""green"">S</font> <font color=""green"">H</font> <font color=""green"">N</font></p><br><br><p style=""font-size:30px"">Symmetry:<br><br><font color=""green"">100%</font></p><br><br>']",0,ospan,practice_feedback,oQ2osWh2eabR0eWAtPCuZNzv5aI2,html-button-response,99,1471823,0.0-46.0-2.0-2.0-2.0-1.0,,,,,,,,,,,,,,,5d53c991ab3b8500015b7026,08:49:58,03/04/2024
6137.5,"<div class = 'left_align' style='font-size: 3rem; line-height: 1.3;'><b>Great work! That is the end of practice.</b><br><br>The real trials will look just like the practice trials you just completed.<br><br><u>Here, you will not see feedback</u>. First, you will see an grid picture to judge,<br>then a letter to remember. When the recall screen appears, report the letters in the<br>order presented. If you forget a letter, remember to use the <b>blank</b> button to move to the<br>next letter. Some of the sets will have more symmetry grids and letters than others.<br><br>It is important that you do your best on both the symmetry judgments and the letter recall<br>parts of the experiment. For for the symmetry judgments, try to work as <b>quickly</b> and <br>as <b>accurately</b> as possible. Remember to keep your symmetry accuracy at 85% or above.<br><br><b>For the letters, do NOT use any external aid (e.g., writing on paper, electronic device).</b><br><br>It is <u>very important</u> to our experiment to have a <b>true</b> view of your real performance.<br><br>Do not worry if you miss some when it gets hard! This task is meant to be very challenging!<br><br>Click the button to begin.</div><br><br><br><br>",0,ospan,starting_real_here,oQ2osWh2eabR0eWAtPCuZNzv5aI2,html-button-response,100,1477962,0.0-46.0-2.0-3.0,,,,,,,,,,,,,,,5d53c991ab3b8500015b7026,08:49:58,03/04/2024
,"<p style=""font-size:75px;"">...</p>",,ospan,iti,oQ2osWh2eabR0eWAtPCuZNzv5aI2,html-keyboard-response,101,1479231,0.0-46.0-3.0-0.0-0.0,,,,,,,,,,,,,,,5d53c991ab3b8500015b7026,08:49:58,03/04/2024
1211.0,,,ospan,symmetry,oQ2osWh2eabR0eWAtPCuZNzv5aI2,symmetry-judgement-task,102,1481471,0.0-46.0-3.0-0.0-1.0-0.0,,,,,,,,,,1.0,1.0,,,,5d53c991ab3b8500015b7026,08:49:58,03/04/2024
,"<div style=""font-size: 10rem; color: #0000FF"">N</div>",,ospan,letter,oQ2osWh2eabR0eWAtPCuZNzv5aI2,html-keyboard-response,103,1482485,0.0-46.0-3.0-0.0-1.0-1.0,,,,,,,,,,,,,,,5d53c991ab3b8500015b7026,08:49:58,03/04/2024
1019.0,,,ospan,symmetry,oQ2osWh2eabR0eWAtPCuZNzv5aI2,symmetry-judgement-task,104,1485361,0.0-46.0-3.0-0.0-1.0-2.0,,,,,,,,,,1.0,1.0,,,,5d53c991ab3b8500015b7026,08:49:58,03/04/2024
,"<div style=""font-size: 10rem; color: #0000FF"">C</div>",,ospan,letter,oQ2osWh2eabR0eWAtPCuZNzv5aI2,html-keyboard-response,105,1486377,0.0-46.0-3.0-0.0-1.0-3.0,,,,,,,,,,,,,,,5d53c991ab3b8500015b7026,08:49:58,03/04/2024
1159.0,,,ospan,symmetry,oQ2osWh2eabR0eWAtPCuZNzv5aI2,symmetry-judgement-task,106,1489391,0.0-46.0-3.0-0.0-1.0-4.0,,,,,,,,,,1.0,1.0,,,,5d53c991ab3b8500015b7026,08:49:58,03/04/2024
,"<div style=""font-size: 10rem; color: #0000FF"">Y</div>",,ospan,letter,oQ2osWh2eabR0eWAtPCuZNzv5aI2,html-keyboard-response,107,1490410,0.0-46.0-3.0-0.0-1.0-5.0,,,,,,,,,,,,,,,5d53c991ab3b8500015b7026,08:49:58,03/04/2024
3279.600000023842,"<div class = numbox><p style=""font-size: 2.4rem"">Please recall the letters you saw to the best of your ability. If you do not remember a particular letter, use the SKIP button.<br><b>(When you are ready to lock in your answer, press ENTER)</b></p><button id = button_1 class = ""square num-button"" onclick = ""recordClick(this)""><div class = content><div class = numbers>C</div></div></button><button id = button_2 class = ""square num-button"" onclick = ""recordClick(this)""><div class = content><div class = numbers>G</div></div></button><button id = button_3 class = ""square num-button"" onclick = ""recordClick(this)""><div class = content><div class = numbers>H</div></div></button><button id = button_4 class = ""square num-button"" onclick = ""recordClick(this)""><div class = content><div class = numbers>J</div></div></button><button id = button_5 class = ""square num-button"" onclick = ""recordClick(this)""><div class = content><div class = numbers>K</div></div></button><button id = button_6 class = ""square num-button"" onclick = ""recordClick(this)""><div class = content><div class = numbers>L</div></div></button><button id = button_7 class = ""square num-button"" onclick = ""recordClick(this)""><div class = content><div class = numbers>N</div></div></button><button id = button_8 class = ""square num-button"" onclick = ""recordClick(this)""><div class = content><div class = numbers>P</div></div></button><button id = button_9 class = ""square num-button"" onclick = ""recordClick(this)""><div class = content><div class = numbers>Q</div></div></button><button id = button_10 class = ""square num-button"" onclick = ""recordClick(this)""><div class = content><div class = numbers>R</div></div></button><button id = button_11 class = ""square num-button"" onclick = ""recordClick(this)""><div class = content><div class = numbers>S</div></div></button><button id = button_12 class = ""square num-button"" onclick = ""recordClick(this)""><div class = content><div class = numbers>Y</div></div></button><button class = clear_button id = ""ClearButton"" onclick = ""clearResponse()"">BACKSPACE</button><button class = blank_button id = ""BlankButton"" onclick = ""blankResponse()"">SKIP</button><p style=""font-size: 2.4rem""><u><b>Current Answer:</b></u></p><br><br><div id=echoed_txt style=""font-size: 5rem; color:blue;""><b></b></div></div>",enter,ospan,retrieval,oQ2osWh2eabR0eWAtPCuZNzv5aI2,html-keyboard-response,108,1494453,0.0-46.0-3.0-0.0-2.0,3,3,3,3.0,"[""N"",""C"",""Y""]","[""N"",""C"",""Y""]",1.0,3.0,,,,,,,5d53c991ab3b8500015b7026,08:49:58,03/04/2024
1106.6000000238419,[''],0,ospan,feedback,oQ2osWh2eabR0eWAtPCuZNzv5aI2,html-button-response,109,1496073,0.0-46.0-3.0-0.0-3.0,,,,,,,,,,,,100.0,0.0,,5d53c991ab3b8500015b7026,08:49:58,03/04/2024
,"<p style=""font-size:75px;"">...</p>",,ospan,iti,oQ2osWh2eabR0eWAtPCuZNzv5aI2,html-keyboard-response,110,1497081,0.0-46.0-4.0-0.0-0.0,,,,,,,,,,,,,,,5d53c991ab3b8500015b7026,08:49:58,03/04/2024
1271.0,,,ospan,symmetry,oQ2osWh2eabR0eWAtPCuZNzv5aI2,symmetry-judgement-task,111,1499382,0.0-46.0-4.0-0.0-1.0-0.0,,,,,,,,,,1.0,1.0,,,,5d53c991ab3b8500015b7026,08:49:58,03/04/2024
,"<div style=""font-size: 10rem; color: #0000FF"">Q</div>",,ospan,letter,oQ2osWh2eabR0eWAtPCuZNzv5aI2,html-keyboard-response,112,1500393,0.0-46.0-4.0-0.0-1.0-1.0,,,,,,,,,,,,,,,5d53c991ab3b8500015b7026,08:49:58,03/04/2024
981.0,,,ospan,symmetry,oQ2osWh2eabR0eWAtPCuZNzv5aI2,symmetry-judgement-task,113,1503228,0.0-46.0-4.0-0.0-1.0-2.0,,,,,,,,,,1.0,1.0,,,,5d53c991ab3b8500015b7026,08:49:58,03/04/2024
,"<div style=""font-size: 10rem; color: #0000FF"">H</div>",,ospan,letter,oQ2osWh2eabR0eWAtPCuZNzv5aI2,html-keyboard-response,114,1504244,0.0-46.0-4.0-0.0-1.0-3.0,,,,,,,,,,,,,,,5d53c991ab3b8500015b7026,08:49:58,03/04/2024
1125.0,,,ospan,symmetry,oQ2osWh2eabR0eWAtPCuZNzv5aI2,symmetry-judgement-task,115,1507225,0.0-46.0-4.0-0.0-1.0-4.0,,,,,,,,,,1.0,1.0,,,,5d53c991ab3b8500015b7026,08:49:58,03/04/2024
,"<div style=""font-size: 10rem; color: #0000FF"">P</div>",,ospan,letter,oQ2osWh2eabR0eWAtPCuZNzv5aI2,html-keyboard-response,116,1508244,0.0-46.0-4.0-0.0-1.0-5.0,,,,,,,,,,,,,,,5d53c991ab3b8500015b7026,08:49:58,03/04/2024
1183.0,,,ospan,symmetry,oQ2osWh2eabR0eWAtPCuZNzv5aI2,symmetry-judgement-task,117,1511277,0.0-46.0-4.0-0.0-1.0-6.0,,,,,,,,,,1.0,1.0,,,,5d53c991ab3b8500015b7026,08:49:58,03/04/2024
,"<div style=""font-size: 10rem; color: #0000FF"">G</div>",,ospan,letter,oQ2osWh2eabR0eWAtPCuZNzv5aI2,html-keyboard-response,118,1512288,0.0-46.0-4.0-0.0-1.0-7.0,,,,,,,,,,,,,,,5d53c991ab3b8500015b7026,08:49:58,03/04/2024
4640.299999952316,"<div class = numbox><p style=""font-size: 2.4rem"">Please recall the letters you saw to the best of your ability. If you do not remember a particular letter, use the SKIP button.<br><b>(When you are ready to lock in your answer, press ENTER)</b></p><button id = button_1 class = ""square num-button"" onclick = ""recordClick(this)""><div class = content><div class = numbers>C</div></div></button><button id = button_2 class = ""square num-button"" onclick = ""recordClick(this)""><div class = content><div class = numbers>G</div></div></button><button id = button_3 class = ""square num-button"" onclick = ""recordClick(this)""><div class = content><div class = numbers>H</div></div></button><button id = button_4 class = ""square num-button"" onclick = ""recordClick(this)""><div class = content><div class = numbers>J</div></div></button><button id = button_5 class = ""square num-button"" onclick = ""recordClick(this)""><div class = content><div class = numbers>K</div></div></button><button id = button_6 class = ""square num-button"" onclick = ""recordClick(this)""><div class = content><div class = numbers>L</div></div></button><button id = button_7 class = ""square num-button"" onclick = ""recordClick(this)""><div class = content><div class = numbers>N</div></div></button><button id = button_8 class = ""square num-button"" onclick = ""recordClick(this)""><div class = content><div class = numbers>P</div></div></button><button id = button_9 class = ""square num-button"" onclick = ""recordClick(this)""><div class = content><div class = numbers>Q</div></div></button><button id = button_10 class = ""square num-button"" onclick = ""recordClick(this)""><div class = content><div class = numbers>R</div></div></button><button id = button_11 class = ""square num-button"" onclick = ""recordClick(this)""><div class = content><div class = numbers>S</div></div></button><button id = button_12 class = ""square num-button"" onclick = ""recordClick(this)""><div class = content><div class = numbers>Y</div></div></button><button class = clear_button id = ""ClearButton"" onclick = ""clearResponse()"">BACKSPACE</button><button class = blank_button id = ""BlankButton"" onclick = ""blankResponse()"">SKIP</button><p style=""font-size: 2.4rem""><u><b>Current Answer:</b></u></p><br><br><div id=echoed_txt style=""font-size: 5rem; color:blue;""><b></b></div></div>",enter,ospan,retrieval,oQ2osWh2eabR0eWAtPCuZNzv5aI2,html-keyboard-response,119,1517693,0.0-46.0-4.0-0.0-2.0,7,7,7,4.0,"[""Q"",""H"",""P"",""G""]","[""Q"",""H"",""P"",""G""]",1.0,4.0,,,,,,,5d53c991ab3b8500015b7026,08:49:58,03/04/2024
907.6000000238419,[''],0,ospan,feedback,oQ2osWh2eabR0eWAtPCuZNzv5aI2,html-button-response,120,1519103,0.0-46.0-4.0-0.0-3.0,,,,,,,,,,,,100.0,0.0,,5d53c991ab3b8500015b7026,08:49:58,03/04/2024
,"<p style=""font-size:75px;"">...</p>",,ospan,iti,oQ2osWh2eabR0eWAtPCuZNzv5aI2,html-keyboard-response,121,1520112,0.0-46.0-4.0-1.0-0.0,,,,,,,,,,,,,,,5d53c991ab3b8500015b7026,08:49:58,03/04/2024
1210.0,,,ospan,symmetry,oQ2osWh2eabR0eWAtPCuZNzv5aI2,symmetry-judgement-task,122,1522414,0.0-46.0-4.0-1.0-1.0-0.0,,,,,,,,,,1.0,1.0,,,,5d53c991ab3b8500015b7026,08:49:58,03/04/2024
,"<div style=""font-size: 10rem; color: #0000FF"">K</div>",,ospan,letter,oQ2osWh2eabR0eWAtPCuZNzv5aI2,html-keyboard-response,123,1523430,0.0-46.0-4.0-1.0-1.0-1.0,,,,,,,,,,,,,,,5d53c991ab3b8500015b7026,08:49:58,03/04/2024
896.0,,,ospan,symmetry,oQ2osWh2eabR0eWAtPCuZNzv5aI2,symmetry-judgement-task,124,1526193,0.0-46.0-4.0-1.0-1.0-2.0,,,,,,,,,,1.0,1.0,,,,5d53c991ab3b8500015b7026,08:49:58,03/04/2024
,"<div style=""font-size: 10rem; color: #0000FF"">R</div>",,ospan,letter,oQ2osWh2eabR0eWAtPCuZNzv5aI2,html-keyboard-response,125,1527198,0.0-46.0-4.0-1.0-1.0-3.0,,,,,,,,,,,,,,,5d53c991ab3b8500015b7026,08:49:58,03/04/2024
795.0,,,ospan,symmetry,oQ2osWh2eabR0eWAtPCuZNzv5aI2,symmetry-judgement-task,126,1529841,0.0-46.0-4.0-1.0-1.0-4.0,,,,,,,,,,1.0,1.0,,,,5d53c991ab3b8500015b7026,08:49:58,03/04/2024
,"<div style=""font-size: 10rem; color: #0000FF"">N</div>",,ospan,letter,oQ2osWh2eabR0eWAtPCuZNzv5aI2,html-keyboard-response,127,1530856,0.0-46.0-4.0-1.0-1.0-5.0,,,,,,,,,,,,,,,5d53c991ab3b8500015b7026,08:49:58,03/04/2024
1237.0,,,ospan,symmetry,oQ2osWh2eabR0eWAtPCuZNzv5aI2,symmetry-judgement-task,128,1533952,0.0-46.0-4.0-1.0-1.0-6.0,,,,,,,,,,1.0,1.0,,,,5d53c991ab3b8500015b7026,08:49:58,03/04/2024
,"<div style=""font-size: 10rem; color: #0000FF"">Q</div>",,ospan,letter,oQ2osWh2eabR0eWAtPCuZNzv5aI2,html-keyboard-response,129,1534955,0.0-46.0-4.0-1.0-1.0-7.0,,,,,,,,,,,,,,,5d53c991ab3b8500015b7026,08:49:58,03/04/2024
914.0,,,ospan,symmetry,oQ2osWh2eabR0eWAtPCuZNzv5aI2,symmetry-judgement-task,130,1537733,0.0-46.0-4.0-1.0-1.0-8.0,,,,,,,,,,1.0,1.0,,,,5d53c991ab3b8500015b7026,08:49:58,03/04/2024
,"<div style=""font-size: 10rem; color: #0000FF"">C</div>",,ospan,letter,oQ2osWh2eabR0eWAtPCuZNzv5aI2,html-keyboard-response,131,1538750,0.0-46.0-4.0-1.0-1.0-9.0,,,,,,,,,,,,,,,5d53c991ab3b8500015b7026,08:49:58,03/04/2024
5674.100000023842,"<div class = numbox><p style=""font-size: 2.4rem"">Please recall the letters you saw to the best of your ability. If you do not remember a particular letter, use the SKIP button.<br><b>(When you are ready to lock in your answer, press ENTER)</b></p><button id = button_1 class = ""square num-button"" onclick = ""recordClick(this)""><div class = content><div class = numbers>C</div></div></button><button id = button_2 class = ""square num-button"" onclick = ""recordClick(this)""><div class = content><div class = numbers>G</div></div></button><button id = button_3 class = ""square num-button"" onclick = ""recordClick(this)""><div class = content><div class = numbers>H</div></div></button><button id = button_4 class = ""square num-button"" onclick = ""recordClick(this)""><div class = content><div class = numbers>J</div></div></button><button id = button_5 class = ""square num-button"" onclick = ""recordClick(this)""><div class = content><div class = numbers>K</div></div></button><button id = button_6 class = ""square num-button"" onclick = ""recordClick(this)""><div class = content><div class = numbers>L</div></div></button><button id = button_7 class = ""square num-button"" onclick = ""recordClick(this)""><div class = content><div class = numbers>N</div></div></button><button id = button_8 class = ""square num-button"" onclick = ""recordClick(this)""><div class = content><div class = numbers>P</div></div></button><button id = button_9 class = ""square num-button"" onclick = ""recordClick(this)""><div class = content><div class = numbers>Q</div></div></button><button id = button_10 class = ""square num-button"" onclick = ""recordClick(this)""><div class = content><div class = numbers>R</div></div></button><button id = button_11 class = ""square num-button"" onclick = ""recordClick(this)""><div class = content><div class = numbers>S</div></div></button><button id = button_12 class = ""square num-button"" onclick = ""recordClick(this)""><div class = content><div class = numbers>Y</div></div></button><button class = clear_button id = ""ClearButton"" onclick = ""clearResponse()"">BACKSPACE</button><button class = blank_button id = ""BlankButton"" onclick = ""blankResponse()"">SKIP</button><p style=""font-size: 2.4rem""><u><b>Current Answer:</b></u></p><br><br><div id=echoed_txt style=""font-size: 5rem; color:blue;""><b></b></div></div>",enter,ospan,retrieval,oQ2osWh2eabR0eWAtPCuZNzv5aI2,html-keyboard-response,132,1545189,0.0-46.0-4.0-1.0-2.0,12,12,12,5.0,"[""K"",""R"",""N"",""Q"",""C""]","[""K"",""R"",""N"",""Q"",""C""]",1.0,5.0,,,,,,,5d53c991ab3b8500015b7026,08:49:58,03/04/2024
1109.1000000238419,[''],0,ospan,feedback,oQ2osWh2eabR0eWAtPCuZNzv5aI2,html-button-response,133,1546801,0.0-46.0-4.0-1.0-3.0,,,,,,,,,,,,100.0,0.0,,5d53c991ab3b8500015b7026,08:49:58,03/04/2024
,"<p style=""font-size:75px;"">...</p>",,ospan,iti,oQ2osWh2eabR0eWAtPCuZNzv5aI2,html-keyboard-response,134,1547809,0.0-46.0-4.0-2.0-0.0,,,,,,,,,,,,,,,5d53c991ab3b8500015b7026,08:49:58,03/04/2024
1185.0,,,ospan,symmetry,oQ2osWh2eabR0eWAtPCuZNzv5aI2,symmetry-judgement-task,135,1550089,0.0-46.0-4.0-2.0-1.0-0.0,,,,,,,,,,1.0,1.0,,,,5d53c991ab3b8500015b7026,08:49:58,03/04/2024
,"<div style=""font-size: 10rem; color: #0000FF"">J</div>",,ospan,letter,oQ2osWh2eabR0eWAtPCuZNzv5aI2,html-keyboard-response,136,1551106,0.0-46.0-4.0-2.0-1.0-1.0,,,,,,,,,,,,,,,5d53c991ab3b8500015b7026,08:49:58,03/04/2024
1140.0,,,ospan,symmetry,oQ2osWh2eabR0eWAtPCuZNzv5aI2,symmetry-judgement-task,137,1554101,0.0-46.0-4.0-2.0-1.0-2.0,,,,,,,,,,1.0,1.0,,,,5d53c991ab3b8500015b7026,08:49:58,03/04/2024
,"<div style=""font-size: 10rem; color: #0000FF"">Y</div>",,ospan,letter,oQ2osWh2eabR0eWAtPCuZNzv5aI2,html-keyboard-response,138,1555118,0.0-46.0-4.0-2.0-1.0-3.0,,,,,,,,,,,,,,,5d53c991ab3b8500015b7026,08:49:58,03/04/2024
1075.0,,,ospan,symmetry,oQ2osWh2eabR0eWAtPCuZNzv5aI2,symmetry-judgement-task,139,1558050,0.0-46.0-4.0-2.0-1.0-4.0,,,,,,,,,,1.0,1.0,,,,5d53c991ab3b8500015b7026,08:49:58,03/04/2024
,"<div style=""font-size: 10rem; color: #0000FF"">H</div>",,ospan,letter,oQ2osWh2eabR0eWAtPCuZNzv5aI2,html-keyboard-response,140,1559068,0.0-46.0-4.0-2.0-1.0-5.0,,,,,,,,,,,,,,,5d53c991ab3b8500015b7026,08:49:58,03/04/2024
3912.600000023842,"<div class = numbox><p style=""font-size: 2.4rem"">Please recall the letters you saw to the best of your ability. If you do not remember a particular letter, use the SKIP button.<br><b>(When you are ready to lock in your answer, press ENTER)</b></p><button id = button_1 class = ""square num-button"" onclick = ""recordClick(this)""><div class = content><div class = numbers>C</div></div></button><button id = button_2 class = ""square num-button"" onclick = ""recordClick(this)""><div class = content><div class = numbers>G</div></div></button><button id = button_3 class = ""square num-button"" onclick = ""recordClick(this)""><div class = content><div class = numbers>H</div></div></button><button id = button_4 class = ""square num-button"" onclick = ""recordClick(this)""><div class = content><div class = numbers>J</div></div></button><button id = button_5 class = ""square num-button"" onclick = ""recordClick(this)""><div class = content><div class = numbers>K</div></div></button><button id = button_6 class = ""square num-button"" onclick = ""recordClick(this)""><div class = content><div class = numbers>L</div></div></button><button id = button_7 class = ""square num-button"" onclick = ""recordClick(this)""><div class = content><div class = numbers>N</div></div></button><button id = button_8 class = ""square num-button"" onclick = ""recordClick(this)""><div class = content><div class = numbers>P</div></div></button><button id = button_9 class = ""square num-button"" onclick = ""recordClick(this)""><div class = content><div class = numbers>Q</div></div></button><button id = button_10 class = ""square num-button"" onclick = ""recordClick(this)""><div class = content><div class = numbers>R</div></div></button><button id = button_11 class = ""square num-button"" onclick = ""recordClick(this)""><div class = content><div class = numbers>S</div></div></button><button id = button_12 class = ""square num-button"" onclick = ""recordClick(this)""><div class = content><div class = numbers>Y</div></div></button><button class = clear_button id = ""ClearButton"" onclick = ""clearResponse()"">BACKSPACE</button><button class = blank_button id = ""BlankButton"" onclick = ""blankResponse()"">SKIP</button><p style=""font-size: 2.4rem""><u><b>Current Answer:</b></u></p><br><br><div id=echoed_txt style=""font-size: 5rem; color:blue;""><b></b></div></div>",enter,ospan,retrieval,oQ2osWh2eabR0eWAtPCuZNzv5aI2,html-keyboard-response,141,1563742,0.0-46.0-4.0-2.0-2.0,15,15,15,3.0,"[""J"",""Y"",""H""]","[""J"",""Y"",""H""]",1.0,3.0,,,,,,,5d53c991ab3b8500015b7026,08:49:58,03/04/2024
1207.3999999761581,[''],0,ospan,feedback,oQ2osWh2eabR0eWAtPCuZNzv5aI2,html-button-response,142,1565467,0.0-46.0-4.0-2.0-3.0,,,,,,,,,,,,100.0,0.0,,5d53c991ab3b8500015b7026,08:49:58,03/04/2024
,"<p style=""font-size:75px;"">...</p>",,ospan,iti,oQ2osWh2eabR0eWAtPCuZNzv5aI2,html-keyboard-response,143,1566470,0.0-46.0-5.0-0.0-0.0,,,,,,,,,,,,,,,5d53c991ab3b8500015b7026,08:49:58,03/04/2024
963.0,,,ospan,symmetry,oQ2osWh2eabR0eWAtPCuZNzv5aI2,symmetry-judgement-task,144,1568524,0.0-46.0-5.0-0.0-1.0-0.0,,,,,,,,,,1.0,1.0,,,,5d53c991ab3b8500015b7026,08:49:58,03/04/2024
,"<div style=""font-size: 10rem; color: #0000FF"">C</div>",,ospan,letter,oQ2osWh2eabR0eWAtPCuZNzv5aI2,html-keyboard-response,145,1569542,0.0-46.0-5.0-0.0-1.0-1.0,,,,,,,,,,,,,,,5d53c991ab3b8500015b7026,08:49:58,03/04/2024
914.0,,,ospan,symmetry,oQ2osWh2eabR0eWAtPCuZNzv5aI2,symmetry-judgement-task,146,1572319,0.0-46.0-5.0-0.0-1.0-2.0,,,,,,,,,,1.0,1.0,,,,5d53c991ab3b8500015b7026,08:49:58,03/04/2024
,"<div style=""font-size: 10rem; color: #0000FF"">N</div>",,ospan,letter,oQ2osWh2eabR0eWAtPCuZNzv5aI2,html-keyboard-response,147,1573326,0.0-46.0-5.0-0.0-1.0-3.0,,,,,,,,,,,,,,,5d53c991ab3b8500015b7026,08:49:58,03/04/2024
730.0,,,ospan,symmetry,oQ2osWh2eabR0eWAtPCuZNzv5aI2,symmetry-judgement-task,148,1575899,0.0-46.0-5.0-0.0-1.0-4.0,,,,,,,,,,1.0,1.0,,,,5d53c991ab3b8500015b7026,08:49:58,03/04/2024
,"<div style=""font-size: 10rem; color: #0000FF"">G</div>",,ospan,letter,oQ2osWh2eabR0eWAtPCuZNzv5aI2,html-keyboard-response,149,1576903,0.0-46.0-5.0-0.0-1.0-5.0,,,,,,,,,,,,,,,5d53c991ab3b8500015b7026,08:49:58,03/04/2024
719.0,,,ospan,symmetry,oQ2osWh2eabR0eWAtPCuZNzv5aI2,symmetry-judgement-task,150,1579480,0.0-46.0-5.0-0.0-1.0-6.0,,,,,,,,,,1.0,1.0,,,,5d53c991ab3b8500015b7026,08:49:58,03/04/2024
,"<div style=""font-size: 10rem; color: #0000FF"">J</div>",,ospan,letter,oQ2osWh2eabR0eWAtPCuZNzv5aI2,html-keyboard-response,151,1580483,0.0-46.0-5.0-0.0-1.0-7.0,,,,,,,,,,,,,,,5d53c991ab3b8500015b7026,08:49:58,03/04/2024
736.0,,,ospan,symmetry,oQ2osWh2eabR0eWAtPCuZNzv5aI2,symmetry-judgement-task,152,1583064,0.0-46.0-5.0-0.0-1.0-8.0,,,,,,,,,,1.0,1.0,,,,5d53c991ab3b8500015b7026,08:49:58,03/04/2024
,"<div style=""font-size: 10rem; color: #0000FF"">Y</div>",,ospan,letter,oQ2osWh2eabR0eWAtPCuZNzv5aI2,html-keyboard-response,153,1584077,0.0-46.0-5.0-0.0-1.0-9.0,,,,,,,,,,,,,,,5d53c991ab3b8500015b7026,08:49:58,03/04/2024
1135.0,,,ospan,symmetry,oQ2osWh2eabR0eWAtPCuZNzv5aI2,symmetry-judgement-task,154,1587075,0.0-46.0-5.0-0.0-1.0-10.0,,,,,,,,,,1.0,1.0,,,,5d53c991ab3b8500015b7026,08:49:58,03/04/2024
,"<div style=""font-size: 10rem; color: #0000FF"">L</div>",,ospan,letter,oQ2osWh2eabR0eWAtPCuZNzv5aI2,html-keyboard-response,155,1588092,0.0-46.0-5.0-0.0-1.0-11.0,,,,,,,,,,,,,,,5d53c991ab3b8500015b7026,08:49:58,03/04/2024
7483.399999976158,"<div class = numbox><p style=""font-size: 2.4rem"">Please recall the letters you saw to the best of your ability. If you do not remember a particular letter, use the SKIP button.<br><b>(When you are ready to lock in your answer, press ENTER)</b></p><button id = button_1 class = ""square num-button"" onclick = ""recordClick(this)""><div class = content><div class = numbers>C</div></div></button><button id = button_2 class = ""square num-button"" onclick = ""recordClick(this)""><div class = content><div class = numbers>G</div></div></button><button id = button_3 class = ""square num-button"" onclick = ""recordClick(this)""><div class = content><div class = numbers>H</div></div></button><button id = button_4 class = ""square num-button"" onclick = ""recordClick(this)""><div class = content><div class = numbers>J</div></div></button><button id = button_5 class = ""square num-button"" onclick = ""recordClick(this)""><div class = content><div class = numbers>K</div></div></button><button id = button_6 class = ""square num-button"" onclick = ""recordClick(this)""><div class = content><div class = numbers>L</div></div></button><button id = button_7 class = ""square num-button"" onclick = ""recordClick(this)""><div class = content><div class = numbers>N</div></div></button><button id = button_8 class = ""square num-button"" onclick = ""recordClick(this)""><div class = content><div class = numbers>P</div></div></button><button id = button_9 class = ""square num-button"" onclick = ""recordClick(this)""><div class = content><div class = numbers>Q</div></div></button><button id = button_10 class = ""square num-button"" onclick = ""recordClick(this)""><div class = content><div class = numbers>R</div></div></button><button id = button_11 class = ""square num-button"" onclick = ""recordClick(this)""><div class = content><div class = numbers>S</div></div></button><button id = button_12 class = ""square num-button"" onclick = ""recordClick(this)""><div class = content><div class = numbers>Y</div></div></button><button class = clear_button id = ""ClearButton"" onclick = ""clearResponse()"">BACKSPACE</button><button class = blank_button id = ""BlankButton"" onclick = ""blankResponse()"">SKIP</button><p style=""font-size: 2.4rem""><u><b>Current Answer:</b></u></p><br><br><div id=echoed_txt style=""font-size: 5rem; color:blue;""><b></b></div></div>",enter,ospan,retrieval,oQ2osWh2eabR0eWAtPCuZNzv5aI2,html-keyboard-response,156,1596342,0.0-46.0-5.0-0.0-2.0,21,21,21,6.0,"[""C"",""N"",""G"",""J"",""Y"",""L""]","[""C"",""N"",""G"",""J"",""Y"",""L""]",1.0,6.0,,,,,,,5d53c991ab3b8500015b7026,08:49:58,03/04/2024
1130.1000000238419,[''],0,ospan,feedback,oQ2osWh2eabR0eWAtPCuZNzv5aI2,html-button-response,157,1597980,0.0-46.0-5.0-0.0-3.0,,,,,,,,,,,,100.0,0.0,,5d53c991ab3b8500015b7026,08:49:58,03/04/2024
,"<p style=""font-size:75px;"">...</p>",,ospan,iti,oQ2osWh2eabR0eWAtPCuZNzv5aI2,html-keyboard-response,158,1598999,0.0-46.0-5.0-1.0-0.0,,,,,,,,,,,,,,,5d53c991ab3b8500015b7026,08:49:58,03/04/2024
1337.0,,,ospan,symmetry,oQ2osWh2eabR0eWAtPCuZNzv5aI2,symmetry-judgement-task,159,1601365,0.0-46.0-5.0-1.0-1.0-0.0,,,,,,,,,,1.0,1.0,,,,5d53c991ab3b8500015b7026,08:49:58,03/04/2024
,"<div style=""font-size: 10rem; color: #0000FF"">P</div>",,ospan,letter,oQ2osWh2eabR0eWAtPCuZNzv5aI2,html-keyboard-response,160,1602383,0.0-46.0-5.0-1.0-1.0-1.0,,,,,,,,,,,,,,,5d53c991ab3b8500015b7026,08:49:58,03/04/2024
912.0,,,ospan,symmetry,oQ2osWh2eabR0eWAtPCuZNzv5aI2,symmetry-judgement-task,161,1605147,0.0-46.0-5.0-1.0-1.0-2.0,,,,,,,,,,1.0,1.0,,,,5d53c991ab3b8500015b7026,08:49:58,03/04/2024
,"<div style=""font-size: 10rem; color: #0000FF"">K</div>",,ospan,letter,oQ2osWh2eabR0eWAtPCuZNzv5aI2,html-keyboard-response,162,1606160,0.0-46.0-5.0-1.0-1.0-3.0,,,,,,,,,,,,,,,5d53c991ab3b8500015b7026,08:49:58,03/04/2024
950.0,,,ospan,symmetry,oQ2osWh2eabR0eWAtPCuZNzv5aI2,symmetry-judgement-task,163,1608963,0.0-46.0-5.0-1.0-1.0-4.0,,,,,,,,,,1.0,1.0,,,,5d53c991ab3b8500015b7026,08:49:58,03/04/2024
,"<div style=""font-size: 10rem; color: #0000FF"">G</div>",,ospan,letter,oQ2osWh2eabR0eWAtPCuZNzv5aI2,html-keyboard-response,164,1609980,0.0-46.0-5.0-1.0-1.0-5.0,,,,,,,,,,,,,,,5d53c991ab3b8500015b7026,08:49:58,03/04/2024
938.0,,,ospan,symmetry,oQ2osWh2eabR0eWAtPCuZNzv5aI2,symmetry-judgement-task,165,1612773,0.0-46.0-5.0-1.0-1.0-6.0,,,,,,,,,,1.0,1.0,,,,5d53c991ab3b8500015b7026,08:49:58,03/04/2024
,"<div style=""font-size: 10rem; color: #0000FF"">S</div>",,ospan,letter,oQ2osWh2eabR0eWAtPCuZNzv5aI2,html-keyboard-response,166,1613776,0.0-46.0-5.0-1.0-1.0-7.0,,,,,,,,,,,,,,,5d53c991ab3b8500015b7026,08:49:58,03/04/2024
886.0,,,ospan,symmetry,oQ2osWh2eabR0eWAtPCuZNzv5aI2,symmetry-judgement-task,167,1616519,0.0-46.0-5.0-1.0-1.0-8.0,,,,,,,,,,1.0,1.0,,,,5d53c991ab3b8500015b7026,08:49:58,03/04/2024
,"<div style=""font-size: 10rem; color: #0000FF"">J</div>",,ospan,letter,oQ2osWh2eabR0eWAtPCuZNzv5aI2,html-keyboard-response,168,1617536,0.0-46.0-5.0-1.0-1.0-9.0,,,,,,,,,,,,,,,5d53c991ab3b8500015b7026,08:49:58,03/04/2024
1425.0,,,ospan,symmetry,oQ2osWh2eabR0eWAtPCuZNzv5aI2,symmetry-judgement-task,169,1620815,0.0-46.0-5.0-1.0-1.0-10.0,,,,,,,,,,1.0,1.0,,,,5d53c991ab3b8500015b7026,08:49:58,03/04/2024
,"<div style=""font-size: 10rem; color: #0000FF"">Y</div>",,ospan,letter,oQ2osWh2eabR0eWAtPCuZNzv5aI2,html-keyboard-response,170,1621818,0.0-46.0-5.0-1.0-1.0-11.0,,,,,,,,,,,,,,,5d53c991ab3b8500015b7026,08:49:58,03/04/2024
1168.0,,,ospan,symmetry,oQ2osWh2eabR0eWAtPCuZNzv5aI2,symmetry-judgement-task,171,1624842,0.0-46.0-5.0-1.0-1.0-12.0,,,,,,,,,,1.0,1.0,,,,5d53c991ab3b8500015b7026,08:49:58,03/04/2024
,"<div style=""font-size: 10rem; color: #0000FF"">Q</div>",,ospan,letter,oQ2osWh2eabR0eWAtPCuZNzv5aI2,html-keyboard-response,172,1625851,0.0-46.0-5.0-1.0-1.0-13.0,,,,,,,,,,,,,,,5d53c991ab3b8500015b7026,08:49:58,03/04/2024
9370.700000047684,"<div class = numbox><p style=""font-size: 2.4rem"">Please recall the letters you saw to the best of your ability. If you do not remember a particular letter, use the SKIP button.<br><b>(When you are ready to lock in your answer, press ENTER)</b></p><button id = button_1 class = ""square num-button"" onclick = ""recordClick(this)""><div class = content><div class = numbers>C</div></div></button><button id = button_2 class = ""square num-button"" onclick = ""recordClick(this)""><div class = content><div class = numbers>G</div></div></button><button id = button_3 class = ""square num-button"" onclick = ""recordClick(this)""><div class = content><div class = numbers>H</div></div></button><button id = button_4 class = ""square num-button"" onclick = ""recordClick(this)""><div class = content><div class = numbers>J</div></div></button><button id = button_5 class = ""square num-button"" onclick = ""recordClick(this)""><div class = content><div class = numbers>K</div></div></button><button id = button_6 class = ""square num-button"" onclick = ""recordClick(this)""><div class = content><div class = numbers>L</div></div></button><button id = button_7 class = ""square num-button"" onclick = ""recordClick(this)""><div class = content><div class = numbers>N</div></div></button><button id = button_8 class = ""square num-button"" onclick = ""recordClick(this)""><div class = content><div class = numbers>P</div></div></button><button id = button_9 class = ""square num-button"" onclick = ""recordClick(this)""><div class = content><div class = numbers>Q</div></div></button><button id = button_10 class = ""square num-button"" onclick = ""recordClick(this)""><div class = content><div class = numbers>R</div></div></button><button id = button_11 class = ""square num-button"" onclick = ""recordClick(this)""><div class = content><div class = numbers>S</div></div></button><button id = button_12 class = ""square num-button"" onclick = ""recordClick(this)""><div class = content><div class = numbers>Y</div></div></button><button class = clear_button id = ""ClearButton"" onclick = ""clearResponse()"">BACKSPACE</button><button class = blank_button id = ""BlankButton"" onclick = ""blankResponse()"">SKIP</button><p style=""font-size: 2.4rem""><u><b>Current Answer:</b></u></p><br><br><div id=echoed_txt style=""font-size: 5rem; color:blue;""><b></b></div></div>",enter,ospan,retrieval,oQ2osWh2eabR0eWAtPCuZNzv5aI2,html-keyboard-response,173,1635981,0.0-46.0-5.0-1.0-2.0,28,28,28,7.0,"[""P"",""K"",""G"",""S"",""J"",""Y"",""Q""]","[""P"",""K"",""G"",""S"",""J"",""Y"",""Q""]",1.0,7.0,,,,,,,5d53c991ab3b8500015b7026,08:49:58,03/04/2024
1048.2000000476837,[''],0,ospan,feedback,oQ2osWh2eabR0eWAtPCuZNzv5aI2,html-button-response,174,1637548,0.0-46.0-5.0-1.0-3.0,,,,,,,,,,,,100.0,0.0,,5d53c991ab3b8500015b7026,08:49:58,03/04/2024
,"<p style=""font-size:75px;"">...</p>",,ospan,iti,oQ2osWh2eabR0eWAtPCuZNzv5aI2,html-keyboard-response,175,1638553,0.0-46.0-6.0-0.0-0.0,,,,,,,,,,,,,,,5d53c991ab3b8500015b7026,08:49:58,03/04/2024
1234.0,,,ospan,symmetry,oQ2osWh2eabR0eWAtPCuZNzv5aI2,symmetry-judgement-task,176,1640866,0.0-46.0-6.0-0.0-1.0-0.0,,,,,,,,,,1.0,1.0,,,,5d53c991ab3b8500015b7026,08:49:58,03/04/2024
,"<div style=""font-size: 10rem; color: #0000FF"">N</div>",,ospan,letter,oQ2osWh2eabR0eWAtPCuZNzv5aI2,html-keyboard-response,177,1641882,0.0-46.0-6.0-0.0-1.0-1.0,,,,,,,,,,,,,,,5d53c991ab3b8500015b7026,08:49:58,03/04/2024
1161.0,,,ospan,symmetry,oQ2osWh2eabR0eWAtPCuZNzv5aI2,symmetry-judgement-task,178,1644902,0.0-46.0-6.0-0.0-1.0-2.0,,,,,,,,,,1.0,1.0,,,,5d53c991ab3b8500015b7026,08:49:58,03/04/2024
,"<div style=""font-size: 10rem; color: #0000FF"">G</div>",,ospan,letter,oQ2osWh2eabR0eWAtPCuZNzv5aI2,html-keyboard-response,179,1645918,0.0-46.0-6.0-0.0-1.0-3.0,,,,,,,,,,,,,,,5d53c991ab3b8500015b7026,08:49:58,03/04/2024
1032.0,,,ospan,symmetry,oQ2osWh2eabR0eWAtPCuZNzv5aI2,symmetry-judgement-task,180,1648793,0.0-46.0-6.0-0.0-1.0-4.0,,,,,,,,,,1.0,1.0,,,,5d53c991ab3b8500015b7026,08:49:58,03/04/2024
,"<div style=""font-size: 10rem; color: #0000FF"">J</div>",,ospan,letter,oQ2osWh2eabR0eWAtPCuZNzv5aI2,html-keyboard-response,181,1649809,0.0-46.0-6.0-0.0-1.0-5.0,,,,,,,,,,,,,,,5d53c991ab3b8500015b7026,08:49:58,03/04/2024
974.0,,,ospan,symmetry,oQ2osWh2eabR0eWAtPCuZNzv5aI2,symmetry-judgement-task,182,1652639,0.0-46.0-6.0-0.0-1.0-6.0,,,,,,,,,,1.0,1.0,,,,5d53c991ab3b8500015b7026,08:49:58,03/04/2024
,"<div style=""font-size: 10rem; color: #0000FF"">Y</div>",,ospan,letter,oQ2osWh2eabR0eWAtPCuZNzv5aI2,html-keyboard-response,183,1653653,0.0-46.0-6.0-0.0-1.0-7.0,,,,,,,,,,,,,,,5d53c991ab3b8500015b7026,08:49:58,03/04/2024
949.0,,,ospan,symmetry,oQ2osWh2eabR0eWAtPCuZNzv5aI2,symmetry-judgement-task,184,1656456,0.0-46.0-6.0-0.0-1.0-8.0,,,,,,,,,,1.0,1.0,,,,5d53c991ab3b8500015b7026,08:49:58,03/04/2024
,"<div style=""font-size: 10rem; color: #0000FF"">L</div>",,ospan,letter,oQ2osWh2eabR0eWAtPCuZNzv5aI2,html-keyboard-response,185,1657467,0.0-46.0-6.0-0.0-1.0-9.0,,,,,,,,,,,,,,,5d53c991ab3b8500015b7026,08:49:58,03/04/2024
4605.0,"<div class = numbox><p style=""font-size: 2.4rem"">Please recall the letters you saw to the best of your ability. If you do not remember a particular letter, use the SKIP button.<br><b>(When you are ready to lock in your answer, press ENTER)</b></p><button id = button_1 class = ""square num-button"" onclick = ""recordClick(this)""><div class = content><div class = numbers>C</div></div></button><button id = button_2 class = ""square num-button"" onclick = ""recordClick(this)""><div class = content><div class = numbers>G</div></div></button><button id = button_3 class = ""square num-button"" onclick = ""recordClick(this)""><div class = content><div class = numbers>H</div></div></button><button id = button_4 class = ""square num-button"" onclick = ""recordClick(this)""><div class = content><div class = numbers>J</div></div></button><button id = button_5 class = ""square num-button"" onclick = ""recordClick(this)""><div class = content><div class = numbers>K</div></div></button><button id = button_6 class = ""square num-button"" onclick = ""recordClick(this)""><div class = content><div class = numbers>L</div></div></button><button id = button_7 class = ""square num-button"" onclick = ""recordClick(this)""><div class = content><div class = numbers>N</div></div></button><button id = button_8 class = ""square num-button"" onclick = ""recordClick(this)""><div class = content><div class = numbers>P</div></div></button><button id = button_9 class = ""square num-button"" onclick = ""recordClick(this)""><div class = content><div class = numbers>Q</div></div></button><button id = button_10 class = ""square num-button"" onclick = ""recordClick(this)""><div class = content><div class = numbers>R</div></div></button><button id = button_11 class = ""square num-button"" onclick = ""recordClick(this)""><div class = content><div class = numbers>S</div></div></button><button id = button_12 class = ""square num-button"" onclick = ""recordClick(this)""><div class = content><div class = numbers>Y</div></div></button><button class = clear_button id = ""ClearButton"" onclick = ""clearResponse()"">BACKSPACE</button><button class = blank_button id = ""BlankButton"" onclick = ""blankResponse()"">SKIP</button><p style=""font-size: 2.4rem""><u><b>Current Answer:</b></u></p><br><br><div id=echoed_txt style=""font-size: 5rem; color:blue;""><b></b></div></div>",enter,ospan,retrieval,oQ2osWh2eabR0eWAtPCuZNzv5aI2,html-keyboard-response,186,1662836,0.0-46.0-6.0-0.0-2.0,33,33,33,5.0,"[""N"",""G"",""J"",""Y"",""L""]","[""N"",""G"",""J"",""Y"",""L""]",1.0,5.0,,,,,,,5d53c991ab3b8500015b7026,08:49:58,03/04/2024
916.6000000238419,[''],0,ospan,feedback,oQ2osWh2eabR0eWAtPCuZNzv5aI2,html-button-response,187,1664261,0.0-46.0-6.0-0.0-3.0,,,,,,,,,,,,100.0,0.0,,5d53c991ab3b8500015b7026,08:49:58,03/04/2024
,"<p style=""font-size:75px;"">...</p>",,ospan,iti,oQ2osWh2eabR0eWAtPCuZNzv5aI2,html-keyboard-response,188,1665267,0.0-46.0-6.0-1.0-0.0,,,,,,,,,,,,,,,5d53c991ab3b8500015b7026,08:49:58,03/04/2024
1061.0,,,ospan,symmetry,oQ2osWh2eabR0eWAtPCuZNzv5aI2,symmetry-judgement-task,189,1667434,0.0-46.0-6.0-1.0-1.0-0.0,,,,,,,,,,1.0,1.0,,,,5d53c991ab3b8500015b7026,08:49:58,03/04/2024
,"<div style=""font-size: 10rem; color: #0000FF"">K</div>",,ospan,letter,oQ2osWh2eabR0eWAtPCuZNzv5aI2,html-keyboard-response,190,1668440,0.0-46.0-6.0-1.0-1.0-1.0,,,,,,,,,,,,,,,5d53c991ab3b8500015b7026,08:49:58,03/04/2024
1041.0,,,ospan,symmetry,oQ2osWh2eabR0eWAtPCuZNzv5aI2,symmetry-judgement-task,191,1671321,0.0-46.0-6.0-1.0-1.0-2.0,,,,,,,,,,1.0,1.0,,,,5d53c991ab3b8500015b7026,08:49:58,03/04/2024
,"<div style=""font-size: 10rem; color: #0000FF"">H</div>",,ospan,letter,oQ2osWh2eabR0eWAtPCuZNzv5aI2,html-keyboard-response,192,1672327,0.0-46.0-6.0-1.0-1.0-3.0,,,,,,,,,,,,,,,5d53c991ab3b8500015b7026,08:49:58,03/04/2024
933.0,,,ospan,symmetry,oQ2osWh2eabR0eWAtPCuZNzv5aI2,symmetry-judgement-task,193,1675115,0.0-46.0-6.0-1.0-1.0-4.0,,,,,,,,,,1.0,1.0,,,,5d53c991ab3b8500015b7026,08:49:58,03/04/2024
,"<div style=""font-size: 10rem; color: #0000FF"">R</div>",,ospan,letter,oQ2osWh2eabR0eWAtPCuZNzv5aI2,html-keyboard-response,194,1676121,0.0-46.0-6.0-1.0-1.0-5.0,,,,,,,,,,,,,,,5d53c991ab3b8500015b7026,08:49:58,03/04/2024
885.0,,,ospan,symmetry,oQ2osWh2eabR0eWAtPCuZNzv5aI2,symmetry-judgement-task,195,1678849,0.0-46.0-6.0-1.0-1.0-6.0,,,,,,,,,,1.0,1.0,,,,5d53c991ab3b8500015b7026,08:49:58,03/04/2024
,"<div style=""font-size: 10rem; color: #0000FF"">G</div>",,ospan,letter,oQ2osWh2eabR0eWAtPCuZNzv5aI2,html-keyboard-response,196,1679864,0.0-46.0-6.0-1.0-1.0-7.0,,,,,,,,,,,,,,,5d53c991ab3b8500015b7026,08:49:58,03/04/2024
1345.0,,,ospan,symmetry,oQ2osWh2eabR0eWAtPCuZNzv5aI2,symmetry-judgement-task,197,1683064,0.0-46.0-6.0-1.0-1.0-8.0,,,,,,,,,,1.0,1.0,,,,5d53c991ab3b8500015b7026,08:49:58,03/04/2024
,"<div style=""font-size: 10rem; color: #0000FF"">J</div>",,ospan,letter,oQ2osWh2eabR0eWAtPCuZNzv5aI2,html-keyboard-response,198,1684079,0.0-46.0-6.0-1.0-1.0-9.0,,,,,,,,,,,,,,,5d53c991ab3b8500015b7026,08:49:58,03/04/2024
1228.0,,,ospan,symmetry,oQ2osWh2eabR0eWAtPCuZNzv5aI2,symmetry-judgement-task,199,1687158,0.0-46.0-6.0-1.0-1.0-10.0,,,,,,,,,,1.0,1.0,,,,5d53c991ab3b8500015b7026,08:49:58,03/04/2024
,"<div style=""font-size: 10rem; color: #0000FF"">L</div>",,ospan,letter,oQ2osWh2eabR0eWAtPCuZNzv5aI2,html-keyboard-response,200,1688165,0.0-46.0-6.0-1.0-1.0-11.0,,,,,,,,,,,,,,,5d53c991ab3b8500015b7026,08:49:58,03/04/2024
1025.0,,,ospan,symmetry,oQ2osWh2eabR0eWAtPCuZNzv5aI2,symmetry-judgement-task,201,1691038,0.0-46.0-6.0-1.0-1.0-12.0,,,,,,,,,,1.0,1.0,,,,5d53c991ab3b8500015b7026,08:49:58,03/04/2024
,"<div style=""font-size: 10rem; color: #0000FF"">Q</div>",,ospan,letter,oQ2osWh2eabR0eWAtPCuZNzv5aI2,html-keyboard-response,202,1692041,0.0-46.0-6.0-1.0-1.0-13.0,,,,,,,,,,,,,,,5d53c991ab3b8500015b7026,08:49:58,03/04/2024
975.0,,,ospan,symmetry,oQ2osWh2eabR0eWAtPCuZNzv5aI2,symmetry-judgement-task,203,1694856,0.0-46.0-6.0-1.0-1.0-14.0,,,,,,,,,,0.0,0.0,,,,5d53c991ab3b8500015b7026,08:49:58,03/04/2024
,"<div style=""font-size: 10rem; color: #0000FF"">C</div>",,ospan,letter,oQ2osWh2eabR0eWAtPCuZNzv5aI2,html-keyboard-response,204,1695875,0.0-46.0-6.0-1.0-1.0-15.0,,,,,,,,,,,,,,,5d53c991ab3b8500015b7026,08:49:58,03/04/2024
8490.800000071526,"<div class = numbox><p style=""font-size: 2.4rem"">Please recall the letters you saw to the best of your ability. If you do not remember a particular letter, use the SKIP button.<br><b>(When you are ready to lock in your answer, press ENTER)</b></p><button id = button_1 class = ""square num-button"" onclick = ""recordClick(this)""><div class = content><div class = numbers>C</div></div></button><button id = button_2 class = ""square num-button"" onclick = ""recordClick(this)""><div class = content><div class = numbers>G</div></div></button><button id = button_3 class = ""square num-button"" onclick = ""recordClick(this)""><div class = content><div class = numbers>H</div></div></button><button id = button_4 class = ""square num-button"" onclick = ""recordClick(this)""><div class = content><div class = numbers>J</div></div></button><button id = button_5 class = ""square num-button"" onclick = ""recordClick(this)""><div class = content><div class = numbers>K</div></div></button><button id = button_6 class = ""square num-button"" onclick = ""recordClick(this)""><div class = content><div class = numbers>L</div></div></button><button id = button_7 class = ""square num-button"" onclick = ""recordClick(this)""><div class = content><div class = numbers>N</div></div></button><button id = button_8 class = ""square num-button"" onclick = ""recordClick(this)""><div class = content><div class = numbers>P</div></div></button><button id = button_9 class = ""square num-button"" onclick = ""recordClick(this)""><div class = content><div class = numbers>Q</div></div></button><button id = button_10 class = ""square num-button"" onclick = ""recordClick(this)""><div class = content><div class = numbers>R</div></div></button><button id = button_11 class = ""square num-button"" onclick = ""recordClick(this)""><div class = content><div class = numbers>S</div></div></button><button id = button_12 class = ""square num-button"" onclick = ""recordClick(this)""><div class = content><div class = numbers>Y</div></div></button><button class = clear_button id = ""ClearButton"" onclick = ""clearResponse()"">BACKSPACE</button><button class = blank_button id = ""BlankButton"" onclick = ""blankResponse()"">SKIP</button><p style=""font-size: 2.4rem""><u><b>Current Answer:</b></u></p><br><br><div id=echoed_txt style=""font-size: 5rem; color:blue;""><b></b></div></div>",enter,ospan,retrieval,oQ2osWh2eabR0eWAtPCuZNzv5aI2,html-keyboard-response,205,1705125,0.0-46.0-6.0-1.0-2.0,41,38,33,8.0,"[""K"",""H"",""R"",""G"",""J"",""Q"",""L""]","[""K"",""H"",""R"",""G"",""J"",""L"",""Q"",""C""]",0.0,5.0,,,,,,,5d53c991ab3b8500015b7026,08:49:58,03/04/2024
911.7000000476837,[''],0,ospan,feedback,oQ2osWh2eabR0eWAtPCuZNzv5aI2,html-button-response,206,1706552,0.0-46.0-6.0-1.0-3.0,,,,,,,,,,,,98.0,0.0,,5d53c991ab3b8500015b7026,08:49:58,03/04/2024
12119.299999952316,,{'Q0': 'This was much more fun than the last one.'},ospan,survey_ospan,oQ2osWh2eabR0eWAtPCuZNzv5aI2,lmdlab-survey-text,207,1719433,0.0-46.0-7.0,,,,,,,,,,,,,,oQ2osWh2eabR0eWAtPCuZNzv5aI2,5d53c991ab3b8500015b7026,08:49:58,03/04/2024
1162.3999999761581,<p><p style='font-size: 3rem'>Great work!<br><br>This completes the symmetry and memory task.</p><br><br><br>,0,ospan,finish,oQ2osWh2eabR0eWAtPCuZNzv5aI2,html-button-response,208,1720599,0.0-46.0-8.0,41,38,33,,,,,,,,,98.0,,,5d53c991ab3b8500015b7026,08:49:58,03/04/2024
