rt,stimulus,response,exp_name,exp_stage,subjectID,trial_type,trial_index,time_elapsed,internal_node_id,ospan_shown,ospan_total,ospan_abs,length,resp_actual,resp_correct,full_correct,num_correct,feedback,accuracy,correct,math_acc,math_warning,databaseID,prolificID,start_time,date
1800.800000011921,<div class = 'left_align' style='font-size: 3.25rem; line-height: 1.3;'><p class = 'center_align'><b>Welcome to the Symmetry and Memory Task</b><br><br><br><br></p>Press 'continue' to show the instructions.<br><br><br><br></div>,0,ospan,instruct,IHUx8tdkpteY9HMrLXRB9YRZdz32,html-button-response,54,528985,0.0-46.0-0.0-0.0-0.0,,,,,,,,,,,,,,,63d9cfec2060a424e3495756,16:46:17,03/04/2024
4968.199999988079,"<div class = 'left_align' style='font-size: 3.25rem; line-height: 1.3;'><p class = 'center_align'><b>Symmetry and Memory Task</b><br><br></p>In this task, you will try to memorize letters you see on the screen<br>while you also view black and white grid pictures.<br><br>In the next few minutes, you will have some practice to get you familiar<br>with how the task works.<br><br>It may be difficult sometimes, but please do not worry about making mistakes!<br><br>We will begin by practicing the letter part of the task.<br><br><br><br></div>",0,ospan,instruct,IHUx8tdkpteY9HMrLXRB9YRZdz32,html-button-response,55,534208,0.0-46.0-0.0-0.0-1.0,,,,,,,,,,,,,,,63d9cfec2060a424e3495756,16:46:17,03/04/2024
4523.099999964237,"<div class = 'left_align' style='font-size: 3.25rem; line-height: 1.3;'>For this practice part, letters will appear on the screen one at a time.<br><br>Try to remember each letter in the order presented.<br><br>After some letters have been shown, you will see a response screen. Your<br>goal is to report the letters you saw <b>in order</b>. If you do not remember<br>a particular letter, you will have the option to leave it blank.<br><br><br><br></div>",0,ospan,instruct,IHUx8tdkpteY9HMrLXRB9YRZdz32,html-button-response,56,538986,0.0-46.0-0.0-0.0-2.0,,,,,,,,,,,,,,,63d9cfec2060a424e3495756,16:46:17,03/04/2024
2352.699999988079,"<div class = 'left_align' style='font-size: 3.25rem; line-height: 1.3;'>Remember, it is very important to get the letters in the same<br>order as you see them.<br><br>When you are ready, you may begin the letter practice.</div><br><br><br><br>",0,ospan,instruct,IHUx8tdkpteY9HMrLXRB9YRZdz32,html-button-response,57,541591,0.0-46.0-0.0-0.0-3.0,,,,,,,,,,,,,,,63d9cfec2060a424e3495756,16:46:17,03/04/2024
,"<p style=""font-size:75px;"">...</p>",,ospan,iti,IHUx8tdkpteY9HMrLXRB9YRZdz32,html-keyboard-response,58,542854,0.0-46.0-0.0-1.0-0.0,,,,,,,,,,,,,,,63d9cfec2060a424e3495756,16:46:17,03/04/2024
,"<div style=""font-size: 10rem; color: #0000FF"">R</div>",,ospan,letter,IHUx8tdkpteY9HMrLXRB9YRZdz32,html-keyboard-response,59,543864,0.0-46.0-0.0-1.0-1.0,,,,,,,,,,,,,,,63d9cfec2060a424e3495756,16:46:17,03/04/2024
,"<div style=""font-size: 10rem; color: #0000FF"">H</div>",,ospan,letter,IHUx8tdkpteY9HMrLXRB9YRZdz32,html-keyboard-response,60,545639,0.0-46.0-0.0-1.0-2.0,,,,,,,,,,,,,,,63d9cfec2060a424e3495756,16:46:17,03/04/2024
6597.099999964237,"<div class = numbox><p style=""font-size: 2.4rem"">Please recall the letters you saw to the best of your ability. If you do not remember a particular letter, use the SKIP button.<br><b>(When you are ready to lock in your answer, press ENTER)</b></p><button id = button_1 class = ""square num-button"" onclick = ""recordClick(this)""><div class = content><div class = numbers>C</div></div></button><button id = button_2 class = ""square num-button"" onclick = ""recordClick(this)""><div class = content><div class = numbers>G</div></div></button><button id = button_3 class = ""square num-button"" onclick = ""recordClick(this)""><div class = content><div class = numbers>H</div></div></button><button id = button_4 class = ""square num-button"" onclick = ""recordClick(this)""><div class = content><div class = numbers>J</div></div></button><button id = button_5 class = ""square num-button"" onclick = ""recordClick(this)""><div class = content><div class = numbers>K</div></div></button><button id = button_6 class = ""square num-button"" onclick = ""recordClick(this)""><div class = content><div class = numbers>L</div></div></button><button id = button_7 class = ""square num-button"" onclick = ""recordClick(this)""><div class = content><div class = numbers>N</div></div></button><button id = button_8 class = ""square num-button"" onclick = ""recordClick(this)""><div class = content><div class = numbers>P</div></div></button><button id = button_9 class = ""square num-button"" onclick = ""recordClick(this)""><div class = content><div class = numbers>Q</div></div></button><button id = button_10 class = ""square num-button"" onclick = ""recordClick(this)""><div class = content><div class = numbers>R</div></div></button><button id = button_11 class = ""square num-button"" onclick = ""recordClick(this)""><div class = content><div class = numbers>S</div></div></button><button id = button_12 class = ""square num-button"" onclick = ""recordClick(this)""><div class = content><div class = numbers>Y</div></div></button><button class = clear_button id = ""ClearButton"" onclick = ""clearResponse()"">BACKSPACE</button><button class = blank_button id = ""BlankButton"" onclick = ""blankResponse()"">SKIP</button><p style=""font-size: 2.4rem""><u><b>Current Answer:</b></u></p><br><br><div id=echoed_txt style=""font-size: 5rem; color:blue;""><b></b></div></div>",enter,ospan,retrieval,IHUx8tdkpteY9HMrLXRB9YRZdz32,html-keyboard-response,61,552997,0.0-46.0-0.0-1.0-3.0,NA,NA,NA,2.0,"[""R"",""H""]","[""R"",""H""]",1.0,2.0,"['<font color=""green"">R</font>', '<font color=""green"">H</font>']",,,,,,63d9cfec2060a424e3495756,16:46:17,03/04/2024
2198.5,"['<p style=""font-size:44px"">Letters:<br><br><br><font color=""green"">R</font> <font color=""green"">H</font></p><br><br>']",0,ospan,practice_feedback,IHUx8tdkpteY9HMrLXRB9YRZdz32,html-button-response,62,555706,0.0-46.0-0.0-1.0-4.0,,,,,,,,,,,,,,,63d9cfec2060a424e3495756,16:46:17,03/04/2024
,"<p style=""font-size:75px;"">...</p>",,ospan,iti,IHUx8tdkpteY9HMrLXRB9YRZdz32,html-keyboard-response,63,556711,0.0-46.0-0.0-2.0-0.0,,,,,,,,,,,,,,,63d9cfec2060a424e3495756,16:46:17,03/04/2024
,"<div style=""font-size: 10rem; color: #0000FF"">G</div>",,ospan,letter,IHUx8tdkpteY9HMrLXRB9YRZdz32,html-keyboard-response,64,557716,0.0-46.0-0.0-2.0-1.0,,,,,,,,,,,,,,,63d9cfec2060a424e3495756,16:46:17,03/04/2024
,"<div style=""font-size: 10rem; color: #0000FF"">P</div>",,ospan,letter,IHUx8tdkpteY9HMrLXRB9YRZdz32,html-keyboard-response,65,559487,0.0-46.0-0.0-2.0-2.0,,,,,,,,,,,,,,,63d9cfec2060a424e3495756,16:46:17,03/04/2024
,"<div style=""font-size: 10rem; color: #0000FF"">Q</div>",,ospan,letter,IHUx8tdkpteY9HMrLXRB9YRZdz32,html-keyboard-response,66,561257,0.0-46.0-0.0-2.0-3.0,,,,,,,,,,,,,,,63d9cfec2060a424e3495756,16:46:17,03/04/2024
6372.599999964237,"<div class = numbox><p style=""font-size: 2.4rem"">Please recall the letters you saw to the best of your ability. If you do not remember a particular letter, use the SKIP button.<br><b>(When you are ready to lock in your answer, press ENTER)</b></p><button id = button_1 class = ""square num-button"" onclick = ""recordClick(this)""><div class = content><div class = numbers>C</div></div></button><button id = button_2 class = ""square num-button"" onclick = ""recordClick(this)""><div class = content><div class = numbers>G</div></div></button><button id = button_3 class = ""square num-button"" onclick = ""recordClick(this)""><div class = content><div class = numbers>H</div></div></button><button id = button_4 class = ""square num-button"" onclick = ""recordClick(this)""><div class = content><div class = numbers>J</div></div></button><button id = button_5 class = ""square num-button"" onclick = ""recordClick(this)""><div class = content><div class = numbers>K</div></div></button><button id = button_6 class = ""square num-button"" onclick = ""recordClick(this)""><div class = content><div class = numbers>L</div></div></button><button id = button_7 class = ""square num-button"" onclick = ""recordClick(this)""><div class = content><div class = numbers>N</div></div></button><button id = button_8 class = ""square num-button"" onclick = ""recordClick(this)""><div class = content><div class = numbers>P</div></div></button><button id = button_9 class = ""square num-button"" onclick = ""recordClick(this)""><div class = content><div class = numbers>Q</div></div></button><button id = button_10 class = ""square num-button"" onclick = ""recordClick(this)""><div class = content><div class = numbers>R</div></div></button><button id = button_11 class = ""square num-button"" onclick = ""recordClick(this)""><div class = content><div class = numbers>S</div></div></button><button id = button_12 class = ""square num-button"" onclick = ""recordClick(this)""><div class = content><div class = numbers>Y</div></div></button><button class = clear_button id = ""ClearButton"" onclick = ""clearResponse()"">BACKSPACE</button><button class = blank_button id = ""BlankButton"" onclick = ""blankResponse()"">SKIP</button><p style=""font-size: 2.4rem""><u><b>Current Answer:</b></u></p><br><br><div id=echoed_txt style=""font-size: 5rem; color:blue;""><b></b></div></div>",enter,ospan,retrieval,IHUx8tdkpteY9HMrLXRB9YRZdz32,html-keyboard-response,67,568388,0.0-46.0-0.0-2.0-4.0,NA,NA,NA,3.0,"[""G"",""P"",""Q""]","[""G"",""P"",""Q""]",1.0,3.0,"['<font color=""green"">G</font>', '<font color=""green"">P</font>', '<font color=""green"">Q</font>']",,,,,,63d9cfec2060a424e3495756,16:46:17,03/04/2024
1162.5,"['<p style=""font-size:44px"">Letters:<br><br><br><font color=""green"">G</font> <font color=""green"">P</font> <font color=""green"">Q</font></p><br><br>']",0,ospan,practice_feedback,IHUx8tdkpteY9HMrLXRB9YRZdz32,html-button-response,68,570057,0.0-46.0-0.0-2.0-5.0,,,,,,,,,,,,,,,63d9cfec2060a424e3495756,16:46:17,03/04/2024
8357.5,"<div class = 'left_align' style='font-size: 3.25rem; line-height: 1.3;'>Now you will practice doing the <b>symmetry judgment part</b> of the experiment.<br><br>A black and white grid picture will appear on the screen and you have to judge if it is <br>symmetrical or asymetrical.<br><br>A picture is 'mirror' symmetrical if its left half is identical to the right half when flipped.<br>Here are examples of a symmetrical and an asymetrical picture:<br><br><center><img src='Stimuli/img/symm_instructions_extra.png' style='height:420px; width:900'></img></center><br>To judge symmetry, imagine you were to fold each picture down the middle, like a book –<br>would the left half match the right half when folded onto each other?<br><br></div><br>",0,ospan,instruct,IHUx8tdkpteY9HMrLXRB9YRZdz32,html-button-response,69,578416,0.0-46.0-1.0-0.0-0.0,,,,,,,,,,,,,,,63d9cfec2060a424e3495756,16:46:17,03/04/2024
4190.300000011921,"<div class = 'left_align' style='font-size: 3.25rem; line-height: 1.3;'>When you have viewed the picture and determined whether it is symmetrical or not,<br>you can <b>click the Yes or No button</b> below to answer.<br><br>If you take longer than 15 seconds, it will continue automatically<br>and record the answer as an error.</div><br>",0,ospan,instruct,IHUx8tdkpteY9HMrLXRB9YRZdz32,html-button-response,70,582870,0.0-46.0-1.0-0.0-1.0,,,,,,,,,,,,,,,63d9cfec2060a424e3495756,16:46:17,03/04/2024
2168.5,"<div class = 'left_align' style='font-size: 3.25rem; line-height: 1.3;'>It is <b>very</b> important that you make the symmetry judgment correctly.<br><br>It is also important that you try and judge the picture as quickly as you can.<br><br>When you are ready, click on the button below to try some practice problems.</div><br><br><br><br>",0,ospan,instruct,IHUx8tdkpteY9HMrLXRB9YRZdz32,html-button-response,71,585290,0.0-46.0-1.0-0.0-2.0,,,,,,,,,,,,,,,63d9cfec2060a424e3495756,16:46:17,03/04/2024
3159.0,,,ospan,symmetry,IHUx8tdkpteY9HMrLXRB9YRZdz32,symmetry-judgement-task,72,589238,0.0-46.0-1.0-1.0-0.0,,,,,,,,,,1.0,1.0,,,,63d9cfec2060a424e3495756,16:46:17,03/04/2024
,"<p style=""color:green; font-size: 35px"">Correct</p>",,ospan,feedback,IHUx8tdkpteY9HMrLXRB9YRZdz32,html-keyboard-response,73,589989,0.0-46.0-1.0-1.0-1.0,,,,,,,,,,,,,,,63d9cfec2060a424e3495756,16:46:17,03/04/2024
2373.0,,,ospan,symmetry,IHUx8tdkpteY9HMrLXRB9YRZdz32,symmetry-judgement-task,74,594964,0.0-46.0-1.0-1.0-2.0,,,,,,,,,,1.0,1.0,,,,63d9cfec2060a424e3495756,16:46:17,03/04/2024
,"<p style=""color:green; font-size: 35px"">Correct</p>",,ospan,feedback,IHUx8tdkpteY9HMrLXRB9YRZdz32,html-keyboard-response,75,595723,0.0-46.0-1.0-1.0-3.0,,,,,,,,,,,,,,,63d9cfec2060a424e3495756,16:46:17,03/04/2024
2703.0,,,ospan,symmetry,IHUx8tdkpteY9HMrLXRB9YRZdz32,symmetry-judgement-task,76,601027,0.0-46.0-1.0-1.0-4.0,,,,,,,,,,1.0,1.0,,,,63d9cfec2060a424e3495756,16:46:17,03/04/2024
,"<p style=""color:green; font-size: 35px"">Correct</p>",,ospan,feedback,IHUx8tdkpteY9HMrLXRB9YRZdz32,html-keyboard-response,77,601788,0.0-46.0-1.0-1.0-5.0,,,,,,,,,,,,,,,63d9cfec2060a424e3495756,16:46:17,03/04/2024
1115.8999999761581,"<p style=""font-size: 3rem;"">You responded correctly on 3 of 3 symmetry judgments. Good job!</p><br><br>",0,ospan,practice,IHUx8tdkpteY9HMrLXRB9YRZdz32,html-button-response,78,604919,0.0-46.0-1.0-2.0,,,,,,,,,,,,,,,63d9cfec2060a424e3495756,16:46:17,03/04/2024
2513.7000000476837,"<div class = 'left_align' style='font-size: 3.25rem; line-height: 1.3;'>Now you will practice doing both parts of the experiment at the same time.<br><br>In the next practice set, you will be given one grid picture to judge.<br>Then letter will appear on the screen. Try to remember the letter.<br><br>It is <b>very important</b> to make the symmetry judgment as quickly and accurately as possible.<br><br>Just as before, once you have make the symmetry judgment, you can click Yes or No.<br><b>Note that you will no longer see Correct or Incorrect feedback.</div><br><br><br><br>",0,ospan,instruct,IHUx8tdkpteY9HMrLXRB9YRZdz32,html-button-response,79,607684,0.0-46.0-2.0-0.0-0.0,,,,,,,,,,,,,,,63d9cfec2060a424e3495756,16:46:17,03/04/2024
1362.199999988079,"<div class = 'left_align' style='font-size: 3.25rem; line-height: 1.3;'>After the letter goes away, another grid picture will appear, and then<br>another letter.<br><br>At the end of each set of letters and grids, you will recall the letters to the best<br>of your ability. Remember, try your best to get the letters in the correct order.<br><br>It is important to <b>quickly</b> and <b>accurately</b> make the symmetry judgments.</div><br><br><br><br>",0,ospan,instruct,IHUx8tdkpteY9HMrLXRB9YRZdz32,html-button-response,80,609305,0.0-46.0-2.0-0.0-1.0,,,,,,,,,,,,,,,63d9cfec2060a424e3495756,16:46:17,03/04/2024
8384.699999988079,"<div class = 'left_align' style='font-size: 3.25rem; line-height: 1.3;'>On the feedback screen, if you are not doing well at the symmetry judgments,<br>you will also see a warning in the middle. This indicates your percent <br>correct for the grid pictures for the entire experiment.<br><br>It is <b>very</b> important for you to keep accuracy at least at 85%: <u>We can only use<br>data where the participant was at least 85% accurate on the judgments.</u> Therefore,<br> please try your best to perform well on the symmetry judgments, <b>at the same time</b><br>doing your best to recall as many letters as possible.<br><br>Click the button to try some practice problems.</div><br><br><br><br>",0,ospan,instruct,IHUx8tdkpteY9HMrLXRB9YRZdz32,html-button-response,81,617955,0.0-46.0-2.0-0.0-2.0,,,,,,,,,,,,,,,63d9cfec2060a424e3495756,16:46:17,03/04/2024
,"<p style=""font-size:75px;"">...</p>",,ospan,iti,IHUx8tdkpteY9HMrLXRB9YRZdz32,html-keyboard-response,82,619216,0.0-46.0-2.0-1.0-0.0,,,,,,,,,,,,,,,63d9cfec2060a424e3495756,16:46:17,03/04/2024
2573.0,,,ospan,symmetry,IHUx8tdkpteY9HMrLXRB9YRZdz32,symmetry-judgement-task,83,622879,0.0-46.0-2.0-1.0-1.0-0.0,,,,,,,,,,1.0,1.0,,,,63d9cfec2060a424e3495756,16:46:17,03/04/2024
,"<div style=""font-size: 10rem; color: #0000FF"">K</div>",,ospan,letter,IHUx8tdkpteY9HMrLXRB9YRZdz32,html-keyboard-response,84,623890,0.0-46.0-2.0-1.0-1.0-1.0,,,,,,,,,,,,,,,63d9cfec2060a424e3495756,16:46:17,03/04/2024
3928.0,,,ospan,symmetry,IHUx8tdkpteY9HMrLXRB9YRZdz32,symmetry-judgement-task,85,629680,0.0-46.0-2.0-1.0-1.0-2.0,,,,,,,,,,1.0,1.0,,,,63d9cfec2060a424e3495756,16:46:17,03/04/2024
,"<div style=""font-size: 10rem; color: #0000FF"">S</div>",,ospan,letter,IHUx8tdkpteY9HMrLXRB9YRZdz32,html-keyboard-response,86,630694,0.0-46.0-2.0-1.0-1.0-3.0,,,,,,,,,,,,,,,63d9cfec2060a424e3495756,16:46:17,03/04/2024
4075.0,,,ospan,symmetry,IHUx8tdkpteY9HMrLXRB9YRZdz32,symmetry-judgement-task,87,636627,0.0-46.0-2.0-1.0-1.0-4.0,,,,,,,,,,1.0,1.0,,,,63d9cfec2060a424e3495756,16:46:17,03/04/2024
,"<div style=""font-size: 10rem; color: #0000FF"">Q</div>",,ospan,letter,IHUx8tdkpteY9HMrLXRB9YRZdz32,html-keyboard-response,88,637630,0.0-46.0-2.0-1.0-1.0-5.0,,,,,,,,,,,,,,,63d9cfec2060a424e3495756,16:46:17,03/04/2024
4293.199999988079,"<div class = numbox><p style=""font-size: 2.4rem"">Please recall the letters you saw to the best of your ability. If you do not remember a particular letter, use the SKIP button.<br><b>(When you are ready to lock in your answer, press ENTER)</b></p><button id = button_1 class = ""square num-button"" onclick = ""recordClick(this)""><div class = content><div class = numbers>C</div></div></button><button id = button_2 class = ""square num-button"" onclick = ""recordClick(this)""><div class = content><div class = numbers>G</div></div></button><button id = button_3 class = ""square num-button"" onclick = ""recordClick(this)""><div class = content><div class = numbers>H</div></div></button><button id = button_4 class = ""square num-button"" onclick = ""recordClick(this)""><div class = content><div class = numbers>J</div></div></button><button id = button_5 class = ""square num-button"" onclick = ""recordClick(this)""><div class = content><div class = numbers>K</div></div></button><button id = button_6 class = ""square num-button"" onclick = ""recordClick(this)""><div class = content><div class = numbers>L</div></div></button><button id = button_7 class = ""square num-button"" onclick = ""recordClick(this)""><div class = content><div class = numbers>N</div></div></button><button id = button_8 class = ""square num-button"" onclick = ""recordClick(this)""><div class = content><div class = numbers>P</div></div></button><button id = button_9 class = ""square num-button"" onclick = ""recordClick(this)""><div class = content><div class = numbers>Q</div></div></button><button id = button_10 class = ""square num-button"" onclick = ""recordClick(this)""><div class = content><div class = numbers>R</div></div></button><button id = button_11 class = ""square num-button"" onclick = ""recordClick(this)""><div class = content><div class = numbers>S</div></div></button><button id = button_12 class = ""square num-button"" onclick = ""recordClick(this)""><div class = content><div class = numbers>Y</div></div></button><button class = clear_button id = ""ClearButton"" onclick = ""clearResponse()"">BACKSPACE</button><button class = blank_button id = ""BlankButton"" onclick = ""blankResponse()"">SKIP</button><p style=""font-size: 2.4rem""><u><b>Current Answer:</b></u></p><br><br><div id=echoed_txt style=""font-size: 5rem; color:blue;""><b></b></div></div>",enter,ospan,retrieval,IHUx8tdkpteY9HMrLXRB9YRZdz32,html-keyboard-response,89,642685,0.0-46.0-2.0-1.0-2.0-0.0,NA,NA,NA,3.0,"[""K"",""S"",""Q""]","[""K"",""S"",""Q""]",1.0,3.0,"['<font color=""green"">K</font>', '<font color=""green"">S</font>', '<font color=""green"">Q</font>']",,,,,,63d9cfec2060a424e3495756,16:46:17,03/04/2024
2082.800000011921,"['<p style=""font-size:44px"">Letters:<br><br><br><font color=""green"">K</font> <font color=""green"">S</font> <font color=""green"">Q</font></p><br><br><p style=""font-size:30px"">Symmetry:<br><br><font color=""green"">100%</font></p><br><br>']",0,ospan,practice_feedback,IHUx8tdkpteY9HMrLXRB9YRZdz32,html-button-response,90,645281,0.0-46.0-2.0-1.0-2.0-1.0,,,,,,,,,,,,,,,63d9cfec2060a424e3495756,16:46:17,03/04/2024
,"<p style=""font-size:75px;"">...</p>",,ospan,iti,IHUx8tdkpteY9HMrLXRB9YRZdz32,html-keyboard-response,91,646286,0.0-46.0-2.0-2.0-0.0,,,,,,,,,,,,,,,63d9cfec2060a424e3495756,16:46:17,03/04/2024
2911.0,,,ospan,symmetry,IHUx8tdkpteY9HMrLXRB9YRZdz32,symmetry-judgement-task,92,650296,0.0-46.0-2.0-2.0-1.0-0.0,,,,,,,,,,1.0,1.0,,,,63d9cfec2060a424e3495756,16:46:17,03/04/2024
,"<div style=""font-size: 10rem; color: #0000FF"">J</div>",,ospan,letter,IHUx8tdkpteY9HMrLXRB9YRZdz32,html-keyboard-response,93,651302,0.0-46.0-2.0-2.0-1.0-1.0,,,,,,,,,,,,,,,63d9cfec2060a424e3495756,16:46:17,03/04/2024
3840.0,,,ospan,symmetry,IHUx8tdkpteY9HMrLXRB9YRZdz32,symmetry-judgement-task,94,656989,0.0-46.0-2.0-2.0-1.0-2.0,,,,,,,,,,1.0,1.0,,,,63d9cfec2060a424e3495756,16:46:17,03/04/2024
,"<div style=""font-size: 10rem; color: #0000FF"">R</div>",,ospan,letter,IHUx8tdkpteY9HMrLXRB9YRZdz32,html-keyboard-response,95,657996,0.0-46.0-2.0-2.0-1.0-3.0,,,,,,,,,,,,,,,63d9cfec2060a424e3495756,16:46:17,03/04/2024
3272.0,,,ospan,symmetry,IHUx8tdkpteY9HMrLXRB9YRZdz32,symmetry-judgement-task,96,663126,0.0-46.0-2.0-2.0-1.0-4.0,,,,,,,,,,1.0,1.0,,,,63d9cfec2060a424e3495756,16:46:17,03/04/2024
,"<div style=""font-size: 10rem; color: #0000FF"">S</div>",,ospan,letter,IHUx8tdkpteY9HMrLXRB9YRZdz32,html-keyboard-response,97,664134,0.0-46.0-2.0-2.0-1.0-5.0,,,,,,,,,,,,,,,63d9cfec2060a424e3495756,16:46:17,03/04/2024
9810.600000023842,"<div class = numbox><p style=""font-size: 2.4rem"">Please recall the letters you saw to the best of your ability. If you do not remember a particular letter, use the SKIP button.<br><b>(When you are ready to lock in your answer, press ENTER)</b></p><button id = button_1 class = ""square num-button"" onclick = ""recordClick(this)""><div class = content><div class = numbers>C</div></div></button><button id = button_2 class = ""square num-button"" onclick = ""recordClick(this)""><div class = content><div class = numbers>G</div></div></button><button id = button_3 class = ""square num-button"" onclick = ""recordClick(this)""><div class = content><div class = numbers>H</div></div></button><button id = button_4 class = ""square num-button"" onclick = ""recordClick(this)""><div class = content><div class = numbers>J</div></div></button><button id = button_5 class = ""square num-button"" onclick = ""recordClick(this)""><div class = content><div class = numbers>K</div></div></button><button id = button_6 class = ""square num-button"" onclick = ""recordClick(this)""><div class = content><div class = numbers>L</div></div></button><button id = button_7 class = ""square num-button"" onclick = ""recordClick(this)""><div class = content><div class = numbers>N</div></div></button><button id = button_8 class = ""square num-button"" onclick = ""recordClick(this)""><div class = content><div class = numbers>P</div></div></button><button id = button_9 class = ""square num-button"" onclick = ""recordClick(this)""><div class = content><div class = numbers>Q</div></div></button><button id = button_10 class = ""square num-button"" onclick = ""recordClick(this)""><div class = content><div class = numbers>R</div></div></button><button id = button_11 class = ""square num-button"" onclick = ""recordClick(this)""><div class = content><div class = numbers>S</div></div></button><button id = button_12 class = ""square num-button"" onclick = ""recordClick(this)""><div class = content><div class = numbers>Y</div></div></button><button class = clear_button id = ""ClearButton"" onclick = ""clearResponse()"">BACKSPACE</button><button class = blank_button id = ""BlankButton"" onclick = ""blankResponse()"">SKIP</button><p style=""font-size: 2.4rem""><u><b>Current Answer:</b></u></p><br><br><div id=echoed_txt style=""font-size: 5rem; color:blue;""><b></b></div></div>",enter,ospan,retrieval,IHUx8tdkpteY9HMrLXRB9YRZdz32,html-keyboard-response,98,674695,0.0-46.0-2.0-2.0-2.0-0.0,NA,NA,NA,3.0,"[""J"",""R"",""S""]","[""J"",""R"",""S""]",1.0,3.0,"['<font color=""green"">J</font>', '<font color=""green"">R</font>', '<font color=""green"">S</font>']",,,,,,63d9cfec2060a424e3495756,16:46:17,03/04/2024
2094.800000011921,"['<p style=""font-size:44px"">Letters:<br><br><br><font color=""green"">J</font> <font color=""green"">R</font> <font color=""green"">S</font></p><br><br><p style=""font-size:30px"">Symmetry:<br><br><font color=""green"">100%</font></p><br><br>']",0,ospan,practice_feedback,IHUx8tdkpteY9HMrLXRB9YRZdz32,html-button-response,99,677308,0.0-46.0-2.0-2.0-2.0-1.0,,,,,,,,,,,,,,,63d9cfec2060a424e3495756,16:46:17,03/04/2024
9947.5,"<div class = 'left_align' style='font-size: 3rem; line-height: 1.3;'><b>Great work! That is the end of practice.</b><br><br>The real trials will look just like the practice trials you just completed.<br><br><u>Here, you will not see feedback</u>. First, you will see an grid picture to judge,<br>then a letter to remember. When the recall screen appears, report the letters in the<br>order presented. If you forget a letter, remember to use the <b>blank</b> button to move to the<br>next letter. Some of the sets will have more symmetry grids and letters than others.<br><br>It is important that you do your best on both the symmetry judgments and the letter recall<br>parts of the experiment. For for the symmetry judgments, try to work as <b>quickly</b> and <br>as <b>accurately</b> as possible. Remember to keep your symmetry accuracy at 85% or above.<br><br><b>For the letters, do NOT use any external aid (e.g., writing on paper, electronic device).</b><br><br>It is <u>very important</u> to our experiment to have a <b>true</b> view of your real performance.<br><br>Do not worry if you miss some when it gets hard! This task is meant to be very challenging!<br><br>Click the button to begin.</div><br><br><br><br>",0,ospan,starting_real_here,IHUx8tdkpteY9HMrLXRB9YRZdz32,html-button-response,100,687256,0.0-46.0-2.0-3.0,,,,,,,,,,,,,,,63d9cfec2060a424e3495756,16:46:17,03/04/2024
,"<p style=""font-size:75px;"">...</p>",,ospan,iti,IHUx8tdkpteY9HMrLXRB9YRZdz32,html-keyboard-response,101,688508,0.0-46.0-3.0-0.0-0.0,,,,,,,,,,,,,,,63d9cfec2060a424e3495756,16:46:17,03/04/2024
2376.0,,,ospan,symmetry,IHUx8tdkpteY9HMrLXRB9YRZdz32,symmetry-judgement-task,102,691910,0.0-46.0-3.0-0.0-1.0-0.0,,,,,,,,,,1.0,1.0,,,,63d9cfec2060a424e3495756,16:46:17,03/04/2024
,"<div style=""font-size: 10rem; color: #0000FF"">L</div>",,ospan,letter,IHUx8tdkpteY9HMrLXRB9YRZdz32,html-keyboard-response,103,692926,0.0-46.0-3.0-0.0-1.0-1.0,,,,,,,,,,,,,,,63d9cfec2060a424e3495756,16:46:17,03/04/2024
2141.0,,,ospan,symmetry,IHUx8tdkpteY9HMrLXRB9YRZdz32,symmetry-judgement-task,104,696910,0.0-46.0-3.0-0.0-1.0-2.0,,,,,,,,,,1.0,1.0,,,,63d9cfec2060a424e3495756,16:46:17,03/04/2024
,"<div style=""font-size: 10rem; color: #0000FF"">Y</div>",,ospan,letter,IHUx8tdkpteY9HMrLXRB9YRZdz32,html-keyboard-response,105,697918,0.0-46.0-3.0-0.0-1.0-3.0,,,,,,,,,,,,,,,63d9cfec2060a424e3495756,16:46:17,03/04/2024
3884.0,,,ospan,symmetry,IHUx8tdkpteY9HMrLXRB9YRZdz32,symmetry-judgement-task,106,703649,0.0-46.0-3.0-0.0-1.0-4.0,,,,,,,,,,1.0,1.0,,,,63d9cfec2060a424e3495756,16:46:17,03/04/2024
,"<div style=""font-size: 10rem; color: #0000FF"">S</div>",,ospan,letter,IHUx8tdkpteY9HMrLXRB9YRZdz32,html-keyboard-response,107,704656,0.0-46.0-3.0-0.0-1.0-5.0,,,,,,,,,,,,,,,63d9cfec2060a424e3495756,16:46:17,03/04/2024
3359.800000011921,"<div class = numbox><p style=""font-size: 2.4rem"">Please recall the letters you saw to the best of your ability. If you do not remember a particular letter, use the SKIP button.<br><b>(When you are ready to lock in your answer, press ENTER)</b></p><button id = button_1 class = ""square num-button"" onclick = ""recordClick(this)""><div class = content><div class = numbers>C</div></div></button><button id = button_2 class = ""square num-button"" onclick = ""recordClick(this)""><div class = content><div class = numbers>G</div></div></button><button id = button_3 class = ""square num-button"" onclick = ""recordClick(this)""><div class = content><div class = numbers>H</div></div></button><button id = button_4 class = ""square num-button"" onclick = ""recordClick(this)""><div class = content><div class = numbers>J</div></div></button><button id = button_5 class = ""square num-button"" onclick = ""recordClick(this)""><div class = content><div class = numbers>K</div></div></button><button id = button_6 class = ""square num-button"" onclick = ""recordClick(this)""><div class = content><div class = numbers>L</div></div></button><button id = button_7 class = ""square num-button"" onclick = ""recordClick(this)""><div class = content><div class = numbers>N</div></div></button><button id = button_8 class = ""square num-button"" onclick = ""recordClick(this)""><div class = content><div class = numbers>P</div></div></button><button id = button_9 class = ""square num-button"" onclick = ""recordClick(this)""><div class = content><div class = numbers>Q</div></div></button><button id = button_10 class = ""square num-button"" onclick = ""recordClick(this)""><div class = content><div class = numbers>R</div></div></button><button id = button_11 class = ""square num-button"" onclick = ""recordClick(this)""><div class = content><div class = numbers>S</div></div></button><button id = button_12 class = ""square num-button"" onclick = ""recordClick(this)""><div class = content><div class = numbers>Y</div></div></button><button class = clear_button id = ""ClearButton"" onclick = ""clearResponse()"">BACKSPACE</button><button class = blank_button id = ""BlankButton"" onclick = ""blankResponse()"">SKIP</button><p style=""font-size: 2.4rem""><u><b>Current Answer:</b></u></p><br><br><div id=echoed_txt style=""font-size: 5rem; color:blue;""><b></b></div></div>",enter,ospan,retrieval,IHUx8tdkpteY9HMrLXRB9YRZdz32,html-keyboard-response,108,708781,0.0-46.0-3.0-0.0-2.0,3,2,0,3.0,"[""L"",""R"",""S""]","[""L"",""Y"",""S""]",0.0,2.0,,,,,,,63d9cfec2060a424e3495756,16:46:17,03/04/2024
950.3999999761581,[''],0,ospan,feedback,IHUx8tdkpteY9HMrLXRB9YRZdz32,html-button-response,109,710246,0.0-46.0-3.0-0.0-3.0,,,,,,,,,,,,100.0,0.0,,63d9cfec2060a424e3495756,16:46:17,03/04/2024
,"<p style=""font-size:75px;"">...</p>",,ospan,iti,IHUx8tdkpteY9HMrLXRB9YRZdz32,html-keyboard-response,110,711250,0.0-46.0-4.0-0.0-0.0,,,,,,,,,,,,,,,63d9cfec2060a424e3495756,16:46:17,03/04/2024
3077.0,,,ospan,symmetry,IHUx8tdkpteY9HMrLXRB9YRZdz32,symmetry-judgement-task,111,715415,0.0-46.0-4.0-0.0-1.0-0.0,,,,,,,,,,1.0,1.0,,,,63d9cfec2060a424e3495756,16:46:17,03/04/2024
,"<div style=""font-size: 10rem; color: #0000FF"">L</div>",,ospan,letter,IHUx8tdkpteY9HMrLXRB9YRZdz32,html-keyboard-response,112,716422,0.0-46.0-4.0-0.0-1.0-1.0,,,,,,,,,,,,,,,63d9cfec2060a424e3495756,16:46:17,03/04/2024
3320.0,,,ospan,symmetry,IHUx8tdkpteY9HMrLXRB9YRZdz32,symmetry-judgement-task,113,721589,0.0-46.0-4.0-0.0-1.0-2.0,,,,,,,,,,1.0,1.0,,,,63d9cfec2060a424e3495756,16:46:17,03/04/2024
,"<div style=""font-size: 10rem; color: #0000FF"">H</div>",,ospan,letter,IHUx8tdkpteY9HMrLXRB9YRZdz32,html-keyboard-response,114,722592,0.0-46.0-4.0-0.0-1.0-3.0,,,,,,,,,,,,,,,63d9cfec2060a424e3495756,16:46:17,03/04/2024
2950.0,,,ospan,symmetry,IHUx8tdkpteY9HMrLXRB9YRZdz32,symmetry-judgement-task,115,727393,0.0-46.0-4.0-0.0-1.0-4.0,,,,,,,,,,1.0,1.0,,,,63d9cfec2060a424e3495756,16:46:17,03/04/2024
,"<div style=""font-size: 10rem; color: #0000FF"">N</div>",,ospan,letter,IHUx8tdkpteY9HMrLXRB9YRZdz32,html-keyboard-response,116,728403,0.0-46.0-4.0-0.0-1.0-5.0,,,,,,,,,,,,,,,63d9cfec2060a424e3495756,16:46:17,03/04/2024
2092.0,,,ospan,symmetry,IHUx8tdkpteY9HMrLXRB9YRZdz32,symmetry-judgement-task,117,732360,0.0-46.0-4.0-0.0-1.0-6.0,,,,,,,,,,1.0,1.0,,,,63d9cfec2060a424e3495756,16:46:17,03/04/2024
,"<div style=""font-size: 10rem; color: #0000FF"">Y</div>",,ospan,letter,IHUx8tdkpteY9HMrLXRB9YRZdz32,html-keyboard-response,118,733366,0.0-46.0-4.0-0.0-1.0-7.0,,,,,,,,,,,,,,,63d9cfec2060a424e3495756,16:46:17,03/04/2024
4115.100000023842,"<div class = numbox><p style=""font-size: 2.4rem"">Please recall the letters you saw to the best of your ability. If you do not remember a particular letter, use the SKIP button.<br><b>(When you are ready to lock in your answer, press ENTER)</b></p><button id = button_1 class = ""square num-button"" onclick = ""recordClick(this)""><div class = content><div class = numbers>C</div></div></button><button id = button_2 class = ""square num-button"" onclick = ""recordClick(this)""><div class = content><div class = numbers>G</div></div></button><button id = button_3 class = ""square num-button"" onclick = ""recordClick(this)""><div class = content><div class = numbers>H</div></div></button><button id = button_4 class = ""square num-button"" onclick = ""recordClick(this)""><div class = content><div class = numbers>J</div></div></button><button id = button_5 class = ""square num-button"" onclick = ""recordClick(this)""><div class = content><div class = numbers>K</div></div></button><button id = button_6 class = ""square num-button"" onclick = ""recordClick(this)""><div class = content><div class = numbers>L</div></div></button><button id = button_7 class = ""square num-button"" onclick = ""recordClick(this)""><div class = content><div class = numbers>N</div></div></button><button id = button_8 class = ""square num-button"" onclick = ""recordClick(this)""><div class = content><div class = numbers>P</div></div></button><button id = button_9 class = ""square num-button"" onclick = ""recordClick(this)""><div class = content><div class = numbers>Q</div></div></button><button id = button_10 class = ""square num-button"" onclick = ""recordClick(this)""><div class = content><div class = numbers>R</div></div></button><button id = button_11 class = ""square num-button"" onclick = ""recordClick(this)""><div class = content><div class = numbers>S</div></div></button><button id = button_12 class = ""square num-button"" onclick = ""recordClick(this)""><div class = content><div class = numbers>Y</div></div></button><button class = clear_button id = ""ClearButton"" onclick = ""clearResponse()"">BACKSPACE</button><button class = blank_button id = ""BlankButton"" onclick = ""blankResponse()"">SKIP</button><p style=""font-size: 2.4rem""><u><b>Current Answer:</b></u></p><br><br><div id=echoed_txt style=""font-size: 5rem; color:blue;""><b></b></div></div>",enter,ospan,retrieval,IHUx8tdkpteY9HMrLXRB9YRZdz32,html-keyboard-response,119,738240,0.0-46.0-4.0-0.0-2.0,7,6,4,4.0,"[""L"",""H"",""N"",""Y""]","[""L"",""H"",""N"",""Y""]",1.0,4.0,,,,,,,63d9cfec2060a424e3495756,16:46:17,03/04/2024
548.4000000357628,[''],0,ospan,feedback,IHUx8tdkpteY9HMrLXRB9YRZdz32,html-button-response,120,739292,0.0-46.0-4.0-0.0-3.0,,,,,,,,,,,,100.0,0.0,,63d9cfec2060a424e3495756,16:46:17,03/04/2024
,"<p style=""font-size:75px;"">...</p>",,ospan,iti,IHUx8tdkpteY9HMrLXRB9YRZdz32,html-keyboard-response,121,740302,0.0-46.0-4.0-1.0-0.0,,,,,,,,,,,,,,,63d9cfec2060a424e3495756,16:46:17,03/04/2024
1968.0,,,ospan,symmetry,IHUx8tdkpteY9HMrLXRB9YRZdz32,symmetry-judgement-task,122,743355,0.0-46.0-4.0-1.0-1.0-0.0,,,,,,,,,,1.0,1.0,,,,63d9cfec2060a424e3495756,16:46:17,03/04/2024
,"<div style=""font-size: 10rem; color: #0000FF"">G</div>",,ospan,letter,IHUx8tdkpteY9HMrLXRB9YRZdz32,html-keyboard-response,123,744364,0.0-46.0-4.0-1.0-1.0-1.0,,,,,,,,,,,,,,,63d9cfec2060a424e3495756,16:46:17,03/04/2024
3367.0,,,ospan,symmetry,IHUx8tdkpteY9HMrLXRB9YRZdz32,symmetry-judgement-task,124,749572,0.0-46.0-4.0-1.0-1.0-2.0,,,,,,,,,,1.0,1.0,,,,63d9cfec2060a424e3495756,16:46:17,03/04/2024
,"<div style=""font-size: 10rem; color: #0000FF"">Q</div>",,ospan,letter,IHUx8tdkpteY9HMrLXRB9YRZdz32,html-keyboard-response,125,750576,0.0-46.0-4.0-1.0-1.0-3.0,,,,,,,,,,,,,,,63d9cfec2060a424e3495756,16:46:17,03/04/2024
2676.0,,,ospan,symmetry,IHUx8tdkpteY9HMrLXRB9YRZdz32,symmetry-judgement-task,126,755101,0.0-46.0-4.0-1.0-1.0-4.0,,,,,,,,,,1.0,1.0,,,,63d9cfec2060a424e3495756,16:46:17,03/04/2024
,"<div style=""font-size: 10rem; color: #0000FF"">C</div>",,ospan,letter,IHUx8tdkpteY9HMrLXRB9YRZdz32,html-keyboard-response,127,756113,0.0-46.0-4.0-1.0-1.0-5.0,,,,,,,,,,,,,,,63d9cfec2060a424e3495756,16:46:17,03/04/2024
1517.0,,,ospan,symmetry,IHUx8tdkpteY9HMrLXRB9YRZdz32,symmetry-judgement-task,128,759479,0.0-46.0-4.0-1.0-1.0-6.0,,,,,,,,,,1.0,1.0,,,,63d9cfec2060a424e3495756,16:46:17,03/04/2024
,"<div style=""font-size: 10rem; color: #0000FF"">H</div>",,ospan,letter,IHUx8tdkpteY9HMrLXRB9YRZdz32,html-keyboard-response,129,760488,0.0-46.0-4.0-1.0-1.0-7.0,,,,,,,,,,,,,,,63d9cfec2060a424e3495756,16:46:17,03/04/2024
2882.0,,,ospan,symmetry,IHUx8tdkpteY9HMrLXRB9YRZdz32,symmetry-judgement-task,130,765216,0.0-46.0-4.0-1.0-1.0-8.0,,,,,,,,,,1.0,1.0,,,,63d9cfec2060a424e3495756,16:46:17,03/04/2024
,"<div style=""font-size: 10rem; color: #0000FF"">N</div>",,ospan,letter,IHUx8tdkpteY9HMrLXRB9YRZdz32,html-keyboard-response,131,766224,0.0-46.0-4.0-1.0-1.0-9.0,,,,,,,,,,,,,,,63d9cfec2060a424e3495756,16:46:17,03/04/2024
6479.399999976158,"<div class = numbox><p style=""font-size: 2.4rem"">Please recall the letters you saw to the best of your ability. If you do not remember a particular letter, use the SKIP button.<br><b>(When you are ready to lock in your answer, press ENTER)</b></p><button id = button_1 class = ""square num-button"" onclick = ""recordClick(this)""><div class = content><div class = numbers>C</div></div></button><button id = button_2 class = ""square num-button"" onclick = ""recordClick(this)""><div class = content><div class = numbers>G</div></div></button><button id = button_3 class = ""square num-button"" onclick = ""recordClick(this)""><div class = content><div class = numbers>H</div></div></button><button id = button_4 class = ""square num-button"" onclick = ""recordClick(this)""><div class = content><div class = numbers>J</div></div></button><button id = button_5 class = ""square num-button"" onclick = ""recordClick(this)""><div class = content><div class = numbers>K</div></div></button><button id = button_6 class = ""square num-button"" onclick = ""recordClick(this)""><div class = content><div class = numbers>L</div></div></button><button id = button_7 class = ""square num-button"" onclick = ""recordClick(this)""><div class = content><div class = numbers>N</div></div></button><button id = button_8 class = ""square num-button"" onclick = ""recordClick(this)""><div class = content><div class = numbers>P</div></div></button><button id = button_9 class = ""square num-button"" onclick = ""recordClick(this)""><div class = content><div class = numbers>Q</div></div></button><button id = button_10 class = ""square num-button"" onclick = ""recordClick(this)""><div class = content><div class = numbers>R</div></div></button><button id = button_11 class = ""square num-button"" onclick = ""recordClick(this)""><div class = content><div class = numbers>S</div></div></button><button id = button_12 class = ""square num-button"" onclick = ""recordClick(this)""><div class = content><div class = numbers>Y</div></div></button><button class = clear_button id = ""ClearButton"" onclick = ""clearResponse()"">BACKSPACE</button><button class = blank_button id = ""BlankButton"" onclick = ""blankResponse()"">SKIP</button><p style=""font-size: 2.4rem""><u><b>Current Answer:</b></u></p><br><br><div id=echoed_txt style=""font-size: 5rem; color:blue;""><b></b></div></div>",enter,ospan,retrieval,IHUx8tdkpteY9HMrLXRB9YRZdz32,html-keyboard-response,132,773464,0.0-46.0-4.0-1.0-2.0,12,11,9,5.0,"[""G"",""Q"",""C"",""H"",""N""]","[""G"",""Q"",""C"",""H"",""N""]",1.0,5.0,,,,,,,63d9cfec2060a424e3495756,16:46:17,03/04/2024
1062.800000011921,[''],0,ospan,feedback,IHUx8tdkpteY9HMrLXRB9YRZdz32,html-button-response,133,775036,0.0-46.0-4.0-1.0-3.0,,,,,,,,,,,,100.0,0.0,,63d9cfec2060a424e3495756,16:46:17,03/04/2024
,"<p style=""font-size:75px;"">...</p>",,ospan,iti,IHUx8tdkpteY9HMrLXRB9YRZdz32,html-keyboard-response,134,776039,0.0-46.0-4.0-2.0-0.0,,,,,,,,,,,,,,,63d9cfec2060a424e3495756,16:46:17,03/04/2024
1123.0,,,ospan,symmetry,IHUx8tdkpteY9HMrLXRB9YRZdz32,symmetry-judgement-task,135,778251,0.0-46.0-4.0-2.0-1.0-0.0,,,,,,,,,,1.0,1.0,,,,63d9cfec2060a424e3495756,16:46:17,03/04/2024
,"<div style=""font-size: 10rem; color: #0000FF"">Y</div>",,ospan,letter,IHUx8tdkpteY9HMrLXRB9YRZdz32,html-keyboard-response,136,779257,0.0-46.0-4.0-2.0-1.0-1.0,,,,,,,,,,,,,,,63d9cfec2060a424e3495756,16:46:17,03/04/2024
1838.0,,,ospan,symmetry,IHUx8tdkpteY9HMrLXRB9YRZdz32,symmetry-judgement-task,137,782939,0.0-46.0-4.0-2.0-1.0-2.0,,,,,,,,,,1.0,1.0,,,,63d9cfec2060a424e3495756,16:46:17,03/04/2024
,"<div style=""font-size: 10rem; color: #0000FF"">S</div>",,ospan,letter,IHUx8tdkpteY9HMrLXRB9YRZdz32,html-keyboard-response,138,783945,0.0-46.0-4.0-2.0-1.0-3.0,,,,,,,,,,,,,,,63d9cfec2060a424e3495756,16:46:17,03/04/2024
1188.0,,,ospan,symmetry,IHUx8tdkpteY9HMrLXRB9YRZdz32,symmetry-judgement-task,139,786987,0.0-46.0-4.0-2.0-1.0-4.0,,,,,,,,,,1.0,1.0,,,,63d9cfec2060a424e3495756,16:46:17,03/04/2024
,"<div style=""font-size: 10rem; color: #0000FF"">P</div>",,ospan,letter,IHUx8tdkpteY9HMrLXRB9YRZdz32,html-keyboard-response,140,787998,0.0-46.0-4.0-2.0-1.0-5.0,,,,,,,,,,,,,,,63d9cfec2060a424e3495756,16:46:17,03/04/2024
3811.100000023842,"<div class = numbox><p style=""font-size: 2.4rem"">Please recall the letters you saw to the best of your ability. If you do not remember a particular letter, use the SKIP button.<br><b>(When you are ready to lock in your answer, press ENTER)</b></p><button id = button_1 class = ""square num-button"" onclick = ""recordClick(this)""><div class = content><div class = numbers>C</div></div></button><button id = button_2 class = ""square num-button"" onclick = ""recordClick(this)""><div class = content><div class = numbers>G</div></div></button><button id = button_3 class = ""square num-button"" onclick = ""recordClick(this)""><div class = content><div class = numbers>H</div></div></button><button id = button_4 class = ""square num-button"" onclick = ""recordClick(this)""><div class = content><div class = numbers>J</div></div></button><button id = button_5 class = ""square num-button"" onclick = ""recordClick(this)""><div class = content><div class = numbers>K</div></div></button><button id = button_6 class = ""square num-button"" onclick = ""recordClick(this)""><div class = content><div class = numbers>L</div></div></button><button id = button_7 class = ""square num-button"" onclick = ""recordClick(this)""><div class = content><div class = numbers>N</div></div></button><button id = button_8 class = ""square num-button"" onclick = ""recordClick(this)""><div class = content><div class = numbers>P</div></div></button><button id = button_9 class = ""square num-button"" onclick = ""recordClick(this)""><div class = content><div class = numbers>Q</div></div></button><button id = button_10 class = ""square num-button"" onclick = ""recordClick(this)""><div class = content><div class = numbers>R</div></div></button><button id = button_11 class = ""square num-button"" onclick = ""recordClick(this)""><div class = content><div class = numbers>S</div></div></button><button id = button_12 class = ""square num-button"" onclick = ""recordClick(this)""><div class = content><div class = numbers>Y</div></div></button><button class = clear_button id = ""ClearButton"" onclick = ""clearResponse()"">BACKSPACE</button><button class = blank_button id = ""BlankButton"" onclick = ""blankResponse()"">SKIP</button><p style=""font-size: 2.4rem""><u><b>Current Answer:</b></u></p><br><br><div id=echoed_txt style=""font-size: 5rem; color:blue;""><b></b></div></div>",enter,ospan,retrieval,IHUx8tdkpteY9HMrLXRB9YRZdz32,html-keyboard-response,141,792569,0.0-46.0-4.0-2.0-2.0,15,14,12,3.0,"[""Y"",""S"",""P""]","[""Y"",""S"",""P""]",1.0,3.0,,,,,,,63d9cfec2060a424e3495756,16:46:17,03/04/2024
828.5999999642372,[''],0,ospan,feedback,IHUx8tdkpteY9HMrLXRB9YRZdz32,html-button-response,142,793907,0.0-46.0-4.0-2.0-3.0,,,,,,,,,,,,100.0,0.0,,63d9cfec2060a424e3495756,16:46:17,03/04/2024
,"<p style=""font-size:75px;"">...</p>",,ospan,iti,IHUx8tdkpteY9HMrLXRB9YRZdz32,html-keyboard-response,143,794917,0.0-46.0-5.0-0.0-0.0,,,,,,,,,,,,,,,63d9cfec2060a424e3495756,16:46:17,03/04/2024
2771.0,,,ospan,symmetry,IHUx8tdkpteY9HMrLXRB9YRZdz32,symmetry-judgement-task,144,798724,0.0-46.0-5.0-0.0-1.0-0.0,,,,,,,,,,1.0,1.0,,,,63d9cfec2060a424e3495756,16:46:17,03/04/2024
,"<div style=""font-size: 10rem; color: #0000FF"">J</div>",,ospan,letter,IHUx8tdkpteY9HMrLXRB9YRZdz32,html-keyboard-response,145,799737,0.0-46.0-5.0-0.0-1.0-1.0,,,,,,,,,,,,,,,63d9cfec2060a424e3495756,16:46:17,03/04/2024
1131.0,,,ospan,symmetry,IHUx8tdkpteY9HMrLXRB9YRZdz32,symmetry-judgement-task,146,802723,0.0-46.0-5.0-0.0-1.0-2.0,,,,,,,,,,1.0,1.0,,,,63d9cfec2060a424e3495756,16:46:17,03/04/2024
,"<div style=""font-size: 10rem; color: #0000FF"">P</div>",,ospan,letter,IHUx8tdkpteY9HMrLXRB9YRZdz32,html-keyboard-response,147,803726,0.0-46.0-5.0-0.0-1.0-3.0,,,,,,,,,,,,,,,63d9cfec2060a424e3495756,16:46:17,03/04/2024
1878.0,,,ospan,symmetry,IHUx8tdkpteY9HMrLXRB9YRZdz32,symmetry-judgement-task,148,807443,0.0-46.0-5.0-0.0-1.0-4.0,,,,,,,,,,1.0,1.0,,,,63d9cfec2060a424e3495756,16:46:17,03/04/2024
,"<div style=""font-size: 10rem; color: #0000FF"">Y</div>",,ospan,letter,IHUx8tdkpteY9HMrLXRB9YRZdz32,html-keyboard-response,149,808454,0.0-46.0-5.0-0.0-1.0-5.0,,,,,,,,,,,,,,,63d9cfec2060a424e3495756,16:46:17,03/04/2024
1560.0,,,ospan,symmetry,IHUx8tdkpteY9HMrLXRB9YRZdz32,symmetry-judgement-task,150,811869,0.0-46.0-5.0-0.0-1.0-6.0,,,,,,,,,,1.0,1.0,,,,63d9cfec2060a424e3495756,16:46:17,03/04/2024
,"<div style=""font-size: 10rem; color: #0000FF"">G</div>",,ospan,letter,IHUx8tdkpteY9HMrLXRB9YRZdz32,html-keyboard-response,151,812879,0.0-46.0-5.0-0.0-1.0-7.0,,,,,,,,,,,,,,,63d9cfec2060a424e3495756,16:46:17,03/04/2024
2531.0,,,ospan,symmetry,IHUx8tdkpteY9HMrLXRB9YRZdz32,symmetry-judgement-task,152,817262,0.0-46.0-5.0-0.0-1.0-8.0,,,,,,,,,,1.0,1.0,,,,63d9cfec2060a424e3495756,16:46:17,03/04/2024
,"<div style=""font-size: 10rem; color: #0000FF"">H</div>",,ospan,letter,IHUx8tdkpteY9HMrLXRB9YRZdz32,html-keyboard-response,153,818271,0.0-46.0-5.0-0.0-1.0-9.0,,,,,,,,,,,,,,,63d9cfec2060a424e3495756,16:46:17,03/04/2024
1853.0,,,ospan,symmetry,IHUx8tdkpteY9HMrLXRB9YRZdz32,symmetry-judgement-task,154,821987,0.0-46.0-5.0-0.0-1.0-10.0,,,,,,,,,,1.0,1.0,,,,63d9cfec2060a424e3495756,16:46:17,03/04/2024
,"<div style=""font-size: 10rem; color: #0000FF"">K</div>",,ospan,letter,IHUx8tdkpteY9HMrLXRB9YRZdz32,html-keyboard-response,155,822993,0.0-46.0-5.0-0.0-1.0-11.0,,,,,,,,,,,,,,,63d9cfec2060a424e3495756,16:46:17,03/04/2024
6885.5,"<div class = numbox><p style=""font-size: 2.4rem"">Please recall the letters you saw to the best of your ability. If you do not remember a particular letter, use the SKIP button.<br><b>(When you are ready to lock in your answer, press ENTER)</b></p><button id = button_1 class = ""square num-button"" onclick = ""recordClick(this)""><div class = content><div class = numbers>C</div></div></button><button id = button_2 class = ""square num-button"" onclick = ""recordClick(this)""><div class = content><div class = numbers>G</div></div></button><button id = button_3 class = ""square num-button"" onclick = ""recordClick(this)""><div class = content><div class = numbers>H</div></div></button><button id = button_4 class = ""square num-button"" onclick = ""recordClick(this)""><div class = content><div class = numbers>J</div></div></button><button id = button_5 class = ""square num-button"" onclick = ""recordClick(this)""><div class = content><div class = numbers>K</div></div></button><button id = button_6 class = ""square num-button"" onclick = ""recordClick(this)""><div class = content><div class = numbers>L</div></div></button><button id = button_7 class = ""square num-button"" onclick = ""recordClick(this)""><div class = content><div class = numbers>N</div></div></button><button id = button_8 class = ""square num-button"" onclick = ""recordClick(this)""><div class = content><div class = numbers>P</div></div></button><button id = button_9 class = ""square num-button"" onclick = ""recordClick(this)""><div class = content><div class = numbers>Q</div></div></button><button id = button_10 class = ""square num-button"" onclick = ""recordClick(this)""><div class = content><div class = numbers>R</div></div></button><button id = button_11 class = ""square num-button"" onclick = ""recordClick(this)""><div class = content><div class = numbers>S</div></div></button><button id = button_12 class = ""square num-button"" onclick = ""recordClick(this)""><div class = content><div class = numbers>Y</div></div></button><button class = clear_button id = ""ClearButton"" onclick = ""clearResponse()"">BACKSPACE</button><button class = blank_button id = ""BlankButton"" onclick = ""blankResponse()"">SKIP</button><p style=""font-size: 2.4rem""><u><b>Current Answer:</b></u></p><br><br><div id=echoed_txt style=""font-size: 5rem; color:blue;""><b></b></div></div>",enter,ospan,retrieval,IHUx8tdkpteY9HMrLXRB9YRZdz32,html-keyboard-response,156,830642,0.0-46.0-5.0-0.0-2.0,21,17,12,6.0,"[""J"",""P"",""Y"",""H"",""K""]","[""J"",""P"",""Y"",""G"",""H"",""K""]",0.0,3.0,,,,,,,63d9cfec2060a424e3495756,16:46:17,03/04/2024
805.2999999523163,[''],0,ospan,feedback,IHUx8tdkpteY9HMrLXRB9YRZdz32,html-button-response,157,831950,0.0-46.0-5.0-0.0-3.0,,,,,,,,,,,,100.0,0.0,,63d9cfec2060a424e3495756,16:46:17,03/04/2024
,"<p style=""font-size:75px;"">...</p>",,ospan,iti,IHUx8tdkpteY9HMrLXRB9YRZdz32,html-keyboard-response,158,832966,0.0-46.0-5.0-1.0-0.0,,,,,,,,,,,,,,,63d9cfec2060a424e3495756,16:46:17,03/04/2024
1780.0,,,ospan,symmetry,IHUx8tdkpteY9HMrLXRB9YRZdz32,symmetry-judgement-task,159,835870,0.0-46.0-5.0-1.0-1.0-0.0,,,,,,,,,,1.0,1.0,,,,63d9cfec2060a424e3495756,16:46:17,03/04/2024
,"<div style=""font-size: 10rem; color: #0000FF"">Q</div>",,ospan,letter,IHUx8tdkpteY9HMrLXRB9YRZdz32,html-keyboard-response,160,836873,0.0-46.0-5.0-1.0-1.0-1.0,,,,,,,,,,,,,,,63d9cfec2060a424e3495756,16:46:17,03/04/2024
2818.0,,,ospan,symmetry,IHUx8tdkpteY9HMrLXRB9YRZdz32,symmetry-judgement-task,161,841540,0.0-46.0-5.0-1.0-1.0-2.0,,,,,,,,,,1.0,1.0,,,,63d9cfec2060a424e3495756,16:46:17,03/04/2024
,"<div style=""font-size: 10rem; color: #0000FF"">K</div>",,ospan,letter,IHUx8tdkpteY9HMrLXRB9YRZdz32,html-keyboard-response,162,842543,0.0-46.0-5.0-1.0-1.0-3.0,,,,,,,,,,,,,,,63d9cfec2060a424e3495756,16:46:17,03/04/2024
2347.0,,,ospan,symmetry,IHUx8tdkpteY9HMrLXRB9YRZdz32,symmetry-judgement-task,163,846733,0.0-46.0-5.0-1.0-1.0-4.0,,,,,,,,,,1.0,1.0,,,,63d9cfec2060a424e3495756,16:46:17,03/04/2024
,"<div style=""font-size: 10rem; color: #0000FF"">J</div>",,ospan,letter,IHUx8tdkpteY9HMrLXRB9YRZdz32,html-keyboard-response,164,847738,0.0-46.0-5.0-1.0-1.0-5.0,,,,,,,,,,,,,,,63d9cfec2060a424e3495756,16:46:17,03/04/2024
2102.0,,,ospan,symmetry,IHUx8tdkpteY9HMrLXRB9YRZdz32,symmetry-judgement-task,165,851683,0.0-46.0-5.0-1.0-1.0-6.0,,,,,,,,,,1.0,1.0,,,,63d9cfec2060a424e3495756,16:46:17,03/04/2024
,"<div style=""font-size: 10rem; color: #0000FF"">P</div>",,ospan,letter,IHUx8tdkpteY9HMrLXRB9YRZdz32,html-keyboard-response,166,852684,0.0-46.0-5.0-1.0-1.0-7.0,,,,,,,,,,,,,,,63d9cfec2060a424e3495756,16:46:17,03/04/2024
1423.0,,,ospan,symmetry,IHUx8tdkpteY9HMrLXRB9YRZdz32,symmetry-judgement-task,167,855947,0.0-46.0-5.0-1.0-1.0-8.0,,,,,,,,,,1.0,1.0,,,,63d9cfec2060a424e3495756,16:46:17,03/04/2024
,"<div style=""font-size: 10rem; color: #0000FF"">N</div>",,ospan,letter,IHUx8tdkpteY9HMrLXRB9YRZdz32,html-keyboard-response,168,856955,0.0-46.0-5.0-1.0-1.0-9.0,,,,,,,,,,,,,,,63d9cfec2060a424e3495756,16:46:17,03/04/2024
4050.0,,,ospan,symmetry,IHUx8tdkpteY9HMrLXRB9YRZdz32,symmetry-judgement-task,169,862847,0.0-46.0-5.0-1.0-1.0-10.0,,,,,,,,,,1.0,1.0,,,,63d9cfec2060a424e3495756,16:46:17,03/04/2024
,"<div style=""font-size: 10rem; color: #0000FF"">R</div>",,ospan,letter,IHUx8tdkpteY9HMrLXRB9YRZdz32,html-keyboard-response,170,863852,0.0-46.0-5.0-1.0-1.0-11.0,,,,,,,,,,,,,,,63d9cfec2060a424e3495756,16:46:17,03/04/2024
6912.0,,,ospan,symmetry,IHUx8tdkpteY9HMrLXRB9YRZdz32,symmetry-judgement-task,171,872622,0.0-46.0-5.0-1.0-1.0-12.0,,,,,,,,,,1.0,1.0,,,,63d9cfec2060a424e3495756,16:46:17,03/04/2024
,"<div style=""font-size: 10rem; color: #0000FF"">Y</div>",,ospan,letter,IHUx8tdkpteY9HMrLXRB9YRZdz32,html-keyboard-response,172,873628,0.0-46.0-5.0-1.0-1.0-13.0,,,,,,,,,,,,,,,63d9cfec2060a424e3495756,16:46:17,03/04/2024
9466.699999988079,"<div class = numbox><p style=""font-size: 2.4rem"">Please recall the letters you saw to the best of your ability. If you do not remember a particular letter, use the SKIP button.<br><b>(When you are ready to lock in your answer, press ENTER)</b></p><button id = button_1 class = ""square num-button"" onclick = ""recordClick(this)""><div class = content><div class = numbers>C</div></div></button><button id = button_2 class = ""square num-button"" onclick = ""recordClick(this)""><div class = content><div class = numbers>G</div></div></button><button id = button_3 class = ""square num-button"" onclick = ""recordClick(this)""><div class = content><div class = numbers>H</div></div></button><button id = button_4 class = ""square num-button"" onclick = ""recordClick(this)""><div class = content><div class = numbers>J</div></div></button><button id = button_5 class = ""square num-button"" onclick = ""recordClick(this)""><div class = content><div class = numbers>K</div></div></button><button id = button_6 class = ""square num-button"" onclick = ""recordClick(this)""><div class = content><div class = numbers>L</div></div></button><button id = button_7 class = ""square num-button"" onclick = ""recordClick(this)""><div class = content><div class = numbers>N</div></div></button><button id = button_8 class = ""square num-button"" onclick = ""recordClick(this)""><div class = content><div class = numbers>P</div></div></button><button id = button_9 class = ""square num-button"" onclick = ""recordClick(this)""><div class = content><div class = numbers>Q</div></div></button><button id = button_10 class = ""square num-button"" onclick = ""recordClick(this)""><div class = content><div class = numbers>R</div></div></button><button id = button_11 class = ""square num-button"" onclick = ""recordClick(this)""><div class = content><div class = numbers>S</div></div></button><button id = button_12 class = ""square num-button"" onclick = ""recordClick(this)""><div class = content><div class = numbers>Y</div></div></button><button class = clear_button id = ""ClearButton"" onclick = ""clearResponse()"">BACKSPACE</button><button class = blank_button id = ""BlankButton"" onclick = ""blankResponse()"">SKIP</button><p style=""font-size: 2.4rem""><u><b>Current Answer:</b></u></p><br><br><div id=echoed_txt style=""font-size: 5rem; color:blue;""><b></b></div></div>",enter,ospan,retrieval,IHUx8tdkpteY9HMrLXRB9YRZdz32,html-keyboard-response,173,883855,0.0-46.0-5.0-1.0-2.0,28,20,12,7.0,"[""Q"",""P"",""G"",""J"",""N"",""R"",""P""]","[""Q"",""K"",""J"",""P"",""N"",""R"",""Y""]",0.0,3.0,,,,,,,63d9cfec2060a424e3495756,16:46:17,03/04/2024
1895.5,[''],0,ospan,feedback,IHUx8tdkpteY9HMrLXRB9YRZdz32,html-button-response,174,886255,0.0-46.0-5.0-1.0-3.0,,,,,,,,,,,,100.0,0.0,,63d9cfec2060a424e3495756,16:46:17,03/04/2024
,"<p style=""font-size:75px;"">...</p>",,ospan,iti,IHUx8tdkpteY9HMrLXRB9YRZdz32,html-keyboard-response,175,887260,0.0-46.0-6.0-0.0-0.0,,,,,,,,,,,,,,,63d9cfec2060a424e3495756,16:46:17,03/04/2024
2115.0,,,ospan,symmetry,IHUx8tdkpteY9HMrLXRB9YRZdz32,symmetry-judgement-task,176,890466,0.0-46.0-6.0-0.0-1.0-0.0,,,,,,,,,,1.0,1.0,,,,63d9cfec2060a424e3495756,16:46:17,03/04/2024
,"<div style=""font-size: 10rem; color: #0000FF"">H</div>",,ospan,letter,IHUx8tdkpteY9HMrLXRB9YRZdz32,html-keyboard-response,177,891472,0.0-46.0-6.0-0.0-1.0-1.0,,,,,,,,,,,,,,,63d9cfec2060a424e3495756,16:46:17,03/04/2024
1178.0,,,ospan,symmetry,IHUx8tdkpteY9HMrLXRB9YRZdz32,symmetry-judgement-task,178,894495,0.0-46.0-6.0-0.0-1.0-2.0,,,,,,,,,,1.0,1.0,,,,63d9cfec2060a424e3495756,16:46:17,03/04/2024
,"<div style=""font-size: 10rem; color: #0000FF"">P</div>",,ospan,letter,IHUx8tdkpteY9HMrLXRB9YRZdz32,html-keyboard-response,179,895506,0.0-46.0-6.0-0.0-1.0-3.0,,,,,,,,,,,,,,,63d9cfec2060a424e3495756,16:46:17,03/04/2024
2147.0,,,ospan,symmetry,IHUx8tdkpteY9HMrLXRB9YRZdz32,symmetry-judgement-task,180,899504,0.0-46.0-6.0-0.0-1.0-4.0,,,,,,,,,,1.0,1.0,,,,63d9cfec2060a424e3495756,16:46:17,03/04/2024
,"<div style=""font-size: 10rem; color: #0000FF"">K</div>",,ospan,letter,IHUx8tdkpteY9HMrLXRB9YRZdz32,html-keyboard-response,181,900516,0.0-46.0-6.0-0.0-1.0-5.0,,,,,,,,,,,,,,,63d9cfec2060a424e3495756,16:46:17,03/04/2024
2789.0,,,ospan,symmetry,IHUx8tdkpteY9HMrLXRB9YRZdz32,symmetry-judgement-task,182,905164,0.0-46.0-6.0-0.0-1.0-6.0,,,,,,,,,,1.0,1.0,,,,63d9cfec2060a424e3495756,16:46:17,03/04/2024
,"<div style=""font-size: 10rem; color: #0000FF"">N</div>",,ospan,letter,IHUx8tdkpteY9HMrLXRB9YRZdz32,html-keyboard-response,183,906169,0.0-46.0-6.0-0.0-1.0-7.0,,,,,,,,,,,,,,,63d9cfec2060a424e3495756,16:46:17,03/04/2024
2288.0,,,ospan,symmetry,IHUx8tdkpteY9HMrLXRB9YRZdz32,symmetry-judgement-task,184,910310,0.0-46.0-6.0-0.0-1.0-8.0,,,,,,,,,,1.0,1.0,,,,63d9cfec2060a424e3495756,16:46:17,03/04/2024
,"<div style=""font-size: 10rem; color: #0000FF"">G</div>",,ospan,letter,IHUx8tdkpteY9HMrLXRB9YRZdz32,html-keyboard-response,185,911313,0.0-46.0-6.0-0.0-1.0-9.0,,,,,,,,,,,,,,,63d9cfec2060a424e3495756,16:46:17,03/04/2024
7313.600000023842,"<div class = numbox><p style=""font-size: 2.4rem"">Please recall the letters you saw to the best of your ability. If you do not remember a particular letter, use the SKIP button.<br><b>(When you are ready to lock in your answer, press ENTER)</b></p><button id = button_1 class = ""square num-button"" onclick = ""recordClick(this)""><div class = content><div class = numbers>C</div></div></button><button id = button_2 class = ""square num-button"" onclick = ""recordClick(this)""><div class = content><div class = numbers>G</div></div></button><button id = button_3 class = ""square num-button"" onclick = ""recordClick(this)""><div class = content><div class = numbers>H</div></div></button><button id = button_4 class = ""square num-button"" onclick = ""recordClick(this)""><div class = content><div class = numbers>J</div></div></button><button id = button_5 class = ""square num-button"" onclick = ""recordClick(this)""><div class = content><div class = numbers>K</div></div></button><button id = button_6 class = ""square num-button"" onclick = ""recordClick(this)""><div class = content><div class = numbers>L</div></div></button><button id = button_7 class = ""square num-button"" onclick = ""recordClick(this)""><div class = content><div class = numbers>N</div></div></button><button id = button_8 class = ""square num-button"" onclick = ""recordClick(this)""><div class = content><div class = numbers>P</div></div></button><button id = button_9 class = ""square num-button"" onclick = ""recordClick(this)""><div class = content><div class = numbers>Q</div></div></button><button id = button_10 class = ""square num-button"" onclick = ""recordClick(this)""><div class = content><div class = numbers>R</div></div></button><button id = button_11 class = ""square num-button"" onclick = ""recordClick(this)""><div class = content><div class = numbers>S</div></div></button><button id = button_12 class = ""square num-button"" onclick = ""recordClick(this)""><div class = content><div class = numbers>Y</div></div></button><button class = clear_button id = ""ClearButton"" onclick = ""clearResponse()"">BACKSPACE</button><button class = blank_button id = ""BlankButton"" onclick = ""blankResponse()"">SKIP</button><p style=""font-size: 2.4rem""><u><b>Current Answer:</b></u></p><br><br><div id=echoed_txt style=""font-size: 5rem; color:blue;""><b></b></div></div>",enter,ospan,retrieval,IHUx8tdkpteY9HMrLXRB9YRZdz32,html-keyboard-response,186,919387,0.0-46.0-6.0-0.0-2.0,33,25,17,5.0,"[""H"",""P"",""K"",""N"",""G""]","[""H"",""P"",""K"",""N"",""G""]",1.0,5.0,,,,,,,63d9cfec2060a424e3495756,16:46:17,03/04/2024
1260.1000000238419,[''],0,ospan,feedback,IHUx8tdkpteY9HMrLXRB9YRZdz32,html-button-response,187,921158,0.0-46.0-6.0-0.0-3.0,,,,,,,,,,,,100.0,0.0,,63d9cfec2060a424e3495756,16:46:17,03/04/2024
,"<p style=""font-size:75px;"">...</p>",,ospan,iti,IHUx8tdkpteY9HMrLXRB9YRZdz32,html-keyboard-response,188,922170,0.0-46.0-6.0-1.0-0.0,,,,,,,,,,,,,,,63d9cfec2060a424e3495756,16:46:17,03/04/2024
1445.0,,,ospan,symmetry,IHUx8tdkpteY9HMrLXRB9YRZdz32,symmetry-judgement-task,189,924709,0.0-46.0-6.0-1.0-1.0-0.0,,,,,,,,,,1.0,1.0,,,,63d9cfec2060a424e3495756,16:46:17,03/04/2024
,"<div style=""font-size: 10rem; color: #0000FF"">C</div>",,ospan,letter,IHUx8tdkpteY9HMrLXRB9YRZdz32,html-keyboard-response,190,925720,0.0-46.0-6.0-1.0-1.0-1.0,,,,,,,,,,,,,,,63d9cfec2060a424e3495756,16:46:17,03/04/2024
916.0,,,ospan,symmetry,IHUx8tdkpteY9HMrLXRB9YRZdz32,symmetry-judgement-task,191,928494,0.0-46.0-6.0-1.0-1.0-2.0,,,,,,,,,,1.0,1.0,,,,63d9cfec2060a424e3495756,16:46:17,03/04/2024
,"<div style=""font-size: 10rem; color: #0000FF"">G</div>",,ospan,letter,IHUx8tdkpteY9HMrLXRB9YRZdz32,html-keyboard-response,192,929504,0.0-46.0-6.0-1.0-1.0-3.0,,,,,,,,,,,,,,,63d9cfec2060a424e3495756,16:46:17,03/04/2024
1339.0,,,ospan,symmetry,IHUx8tdkpteY9HMrLXRB9YRZdz32,symmetry-judgement-task,193,932691,0.0-46.0-6.0-1.0-1.0-4.0,,,,,,,,,,1.0,1.0,,,,63d9cfec2060a424e3495756,16:46:17,03/04/2024
,"<div style=""font-size: 10rem; color: #0000FF"">N</div>",,ospan,letter,IHUx8tdkpteY9HMrLXRB9YRZdz32,html-keyboard-response,194,933704,0.0-46.0-6.0-1.0-1.0-5.0,,,,,,,,,,,,,,,63d9cfec2060a424e3495756,16:46:17,03/04/2024
1659.0,,,ospan,symmetry,IHUx8tdkpteY9HMrLXRB9YRZdz32,symmetry-judgement-task,195,937161,0.0-46.0-6.0-1.0-1.0-6.0,,,,,,,,,,1.0,1.0,,,,63d9cfec2060a424e3495756,16:46:17,03/04/2024
,"<div style=""font-size: 10rem; color: #0000FF"">Y</div>",,ospan,letter,IHUx8tdkpteY9HMrLXRB9YRZdz32,html-keyboard-response,196,938170,0.0-46.0-6.0-1.0-1.0-7.0,,,,,,,,,,,,,,,63d9cfec2060a424e3495756,16:46:17,03/04/2024
1701.0,,,ospan,symmetry,IHUx8tdkpteY9HMrLXRB9YRZdz32,symmetry-judgement-task,197,941732,0.0-46.0-6.0-1.0-1.0-8.0,,,,,,,,,,1.0,1.0,,,,63d9cfec2060a424e3495756,16:46:17,03/04/2024
,"<div style=""font-size: 10rem; color: #0000FF"">Q</div>",,ospan,letter,IHUx8tdkpteY9HMrLXRB9YRZdz32,html-keyboard-response,198,942742,0.0-46.0-6.0-1.0-1.0-9.0,,,,,,,,,,,,,,,63d9cfec2060a424e3495756,16:46:17,03/04/2024
1422.0,,,ospan,symmetry,IHUx8tdkpteY9HMrLXRB9YRZdz32,symmetry-judgement-task,199,946022,0.0-46.0-6.0-1.0-1.0-10.0,,,,,,,,,,1.0,1.0,,,,63d9cfec2060a424e3495756,16:46:17,03/04/2024
,"<div style=""font-size: 10rem; color: #0000FF"">R</div>",,ospan,letter,IHUx8tdkpteY9HMrLXRB9YRZdz32,html-keyboard-response,200,947031,0.0-46.0-6.0-1.0-1.0-11.0,,,,,,,,,,,,,,,63d9cfec2060a424e3495756,16:46:17,03/04/2024
1841.0,,,ospan,symmetry,IHUx8tdkpteY9HMrLXRB9YRZdz32,symmetry-judgement-task,201,950737,0.0-46.0-6.0-1.0-1.0-12.0,,,,,,,,,,1.0,1.0,,,,63d9cfec2060a424e3495756,16:46:17,03/04/2024
,"<div style=""font-size: 10rem; color: #0000FF"">K</div>",,ospan,letter,IHUx8tdkpteY9HMrLXRB9YRZdz32,html-keyboard-response,202,951749,0.0-46.0-6.0-1.0-1.0-13.0,,,,,,,,,,,,,,,63d9cfec2060a424e3495756,16:46:17,03/04/2024
1596.0,,,ospan,symmetry,IHUx8tdkpteY9HMrLXRB9YRZdz32,symmetry-judgement-task,203,955141,0.0-46.0-6.0-1.0-1.0-14.0,,,,,,,,,,1.0,1.0,,,,63d9cfec2060a424e3495756,16:46:17,03/04/2024
,"<div style=""font-size: 10rem; color: #0000FF"">H</div>",,ospan,letter,IHUx8tdkpteY9HMrLXRB9YRZdz32,html-keyboard-response,204,956151,0.0-46.0-6.0-1.0-1.0-15.0,,,,,,,,,,,,,,,63d9cfec2060a424e3495756,16:46:17,03/04/2024
7848.599999964237,"<div class = numbox><p style=""font-size: 2.4rem"">Please recall the letters you saw to the best of your ability. If you do not remember a particular letter, use the SKIP button.<br><b>(When you are ready to lock in your answer, press ENTER)</b></p><button id = button_1 class = ""square num-button"" onclick = ""recordClick(this)""><div class = content><div class = numbers>C</div></div></button><button id = button_2 class = ""square num-button"" onclick = ""recordClick(this)""><div class = content><div class = numbers>G</div></div></button><button id = button_3 class = ""square num-button"" onclick = ""recordClick(this)""><div class = content><div class = numbers>H</div></div></button><button id = button_4 class = ""square num-button"" onclick = ""recordClick(this)""><div class = content><div class = numbers>J</div></div></button><button id = button_5 class = ""square num-button"" onclick = ""recordClick(this)""><div class = content><div class = numbers>K</div></div></button><button id = button_6 class = ""square num-button"" onclick = ""recordClick(this)""><div class = content><div class = numbers>L</div></div></button><button id = button_7 class = ""square num-button"" onclick = ""recordClick(this)""><div class = content><div class = numbers>N</div></div></button><button id = button_8 class = ""square num-button"" onclick = ""recordClick(this)""><div class = content><div class = numbers>P</div></div></button><button id = button_9 class = ""square num-button"" onclick = ""recordClick(this)""><div class = content><div class = numbers>Q</div></div></button><button id = button_10 class = ""square num-button"" onclick = ""recordClick(this)""><div class = content><div class = numbers>R</div></div></button><button id = button_11 class = ""square num-button"" onclick = ""recordClick(this)""><div class = content><div class = numbers>S</div></div></button><button id = button_12 class = ""square num-button"" onclick = ""recordClick(this)""><div class = content><div class = numbers>Y</div></div></button><button class = clear_button id = ""ClearButton"" onclick = ""clearResponse()"">BACKSPACE</button><button class = blank_button id = ""BlankButton"" onclick = ""blankResponse()"">SKIP</button><p style=""font-size: 2.4rem""><u><b>Current Answer:</b></u></p><br><br><div id=echoed_txt style=""font-size: 5rem; color:blue;""><b></b></div></div>",enter,ospan,retrieval,IHUx8tdkpteY9HMrLXRB9YRZdz32,html-keyboard-response,205,964758,0.0-46.0-6.0-1.0-2.0,41,31,17,8.0,"[""C"",""G"",""N"",""Y"",""Q"",""R"",""H""]","[""C"",""G"",""N"",""Y"",""Q"",""R"",""K"",""H""]",0.0,6.0,,,,,,,63d9cfec2060a424e3495756,16:46:17,03/04/2024
1208.0,[''],0,ospan,feedback,IHUx8tdkpteY9HMrLXRB9YRZdz32,html-button-response,206,966471,0.0-46.0-6.0-1.0-3.0,,,,,,,,,,,,100.0,0.0,,63d9cfec2060a424e3495756,16:46:17,03/04/2024
10747.300000011921,,{'Q0': 'I enjoyed the symmetry and letters task.'},ospan,survey_ospan,IHUx8tdkpteY9HMrLXRB9YRZdz32,lmdlab-survey-text,207,977981,0.0-46.0-7.0,,,,,,,,,,,,,,IHUx8tdkpteY9HMrLXRB9YRZdz32,63d9cfec2060a424e3495756,16:46:17,03/04/2024
796.6999999880791,<p><p style='font-size: 3rem'>Great work!<br><br>This completes the symmetry and memory task.</p><br><br><br>,0,ospan,finish,IHUx8tdkpteY9HMrLXRB9YRZdz32,html-button-response,208,978779,0.0-46.0-8.0,41,31,17,,,,,,,,,100.0,,,63d9cfec2060a424e3495756,16:46:17,03/04/2024
