rt,stimulus,response,exp_name,exp_stage,subjectID,trial_type,trial_index,time_elapsed,internal_node_id,ospan_shown,ospan_total,ospan_abs,length,resp_actual,resp_correct,full_correct,num_correct,feedback,accuracy,correct,math_acc,math_warning,databaseID,prolificID,start_time,date
2598.399999976158,<div class = 'left_align' style='font-size: 3.25rem; line-height: 1.3;'><p class = 'center_align'><b>Welcome to the Symmetry and Memory Task</b><br><br><br><br></p>Press 'continue' to show the instructions.<br><br><br><br></div>,0,ospan,instruct,Tvc14wSGOJWiE66kfAv48nj82aP2,html-button-response,54,721169,0.0-46.0-0.0-0.0-0.0,,,,,,,,,,,,,,,57732cfcda75d30001487571,21:27:56,03/04/2024
6765.299999952316,"<div class = 'left_align' style='font-size: 3.25rem; line-height: 1.3;'><p class = 'center_align'><b>Symmetry and Memory Task</b><br><br></p>In this task, you will try to memorize letters you see on the screen<br>while you also view black and white grid pictures.<br><br>In the next few minutes, you will have some practice to get you familiar<br>with how the task works.<br><br>It may be difficult sometimes, but please do not worry about making mistakes!<br><br>We will begin by practicing the letter part of the task.<br><br><br><br></div>",0,ospan,instruct,Tvc14wSGOJWiE66kfAv48nj82aP2,html-button-response,55,728188,0.0-46.0-0.0-0.0-1.0,,,,,,,,,,,,,,,57732cfcda75d30001487571,21:27:56,03/04/2024
12077.200000047684,"<div class = 'left_align' style='font-size: 3.25rem; line-height: 1.3;'>For this practice part, letters will appear on the screen one at a time.<br><br>Try to remember each letter in the order presented.<br><br>After some letters have been shown, you will see a response screen. Your<br>goal is to report the letters you saw <b>in order</b>. If you do not remember<br>a particular letter, you will have the option to leave it blank.<br><br><br><br></div>",0,ospan,instruct,Tvc14wSGOJWiE66kfAv48nj82aP2,html-button-response,56,740520,0.0-46.0-0.0-0.0-2.0,,,,,,,,,,,,,,,57732cfcda75d30001487571,21:27:56,03/04/2024
3319.899999976158,"<div class = 'left_align' style='font-size: 3.25rem; line-height: 1.3;'>Remember, it is very important to get the letters in the same<br>order as you see them.<br><br>When you are ready, you may begin the letter practice.</div><br><br><br><br>",0,ospan,instruct,Tvc14wSGOJWiE66kfAv48nj82aP2,html-button-response,57,744100,0.0-46.0-0.0-0.0-3.0,,,,,,,,,,,,,,,57732cfcda75d30001487571,21:27:56,03/04/2024
,"<p style=""font-size:75px;"">...</p>",,ospan,iti,Tvc14wSGOJWiE66kfAv48nj82aP2,html-keyboard-response,58,745363,0.0-46.0-0.0-1.0-0.0,,,,,,,,,,,,,,,57732cfcda75d30001487571,21:27:56,03/04/2024
,"<div style=""font-size: 10rem; color: #0000FF"">Q</div>",,ospan,letter,Tvc14wSGOJWiE66kfAv48nj82aP2,html-keyboard-response,59,746378,0.0-46.0-0.0-1.0-1.0,,,,,,,,,,,,,,,57732cfcda75d30001487571,21:27:56,03/04/2024
,"<div style=""font-size: 10rem; color: #0000FF"">N</div>",,ospan,letter,Tvc14wSGOJWiE66kfAv48nj82aP2,html-keyboard-response,60,748146,0.0-46.0-0.0-1.0-2.0,,,,,,,,,,,,,,,57732cfcda75d30001487571,21:27:56,03/04/2024
6152.600000023842,"<div class = numbox><p style=""font-size: 2.4rem"">Please recall the letters you saw to the best of your ability. If you do not remember a particular letter, use the SKIP button.<br><b>(When you are ready to lock in your answer, press ENTER)</b></p><button id = button_1 class = ""square num-button"" onclick = ""recordClick(this)""><div class = content><div class = numbers>C</div></div></button><button id = button_2 class = ""square num-button"" onclick = ""recordClick(this)""><div class = content><div class = numbers>G</div></div></button><button id = button_3 class = ""square num-button"" onclick = ""recordClick(this)""><div class = content><div class = numbers>H</div></div></button><button id = button_4 class = ""square num-button"" onclick = ""recordClick(this)""><div class = content><div class = numbers>J</div></div></button><button id = button_5 class = ""square num-button"" onclick = ""recordClick(this)""><div class = content><div class = numbers>K</div></div></button><button id = button_6 class = ""square num-button"" onclick = ""recordClick(this)""><div class = content><div class = numbers>L</div></div></button><button id = button_7 class = ""square num-button"" onclick = ""recordClick(this)""><div class = content><div class = numbers>N</div></div></button><button id = button_8 class = ""square num-button"" onclick = ""recordClick(this)""><div class = content><div class = numbers>P</div></div></button><button id = button_9 class = ""square num-button"" onclick = ""recordClick(this)""><div class = content><div class = numbers>Q</div></div></button><button id = button_10 class = ""square num-button"" onclick = ""recordClick(this)""><div class = content><div class = numbers>R</div></div></button><button id = button_11 class = ""square num-button"" onclick = ""recordClick(this)""><div class = content><div class = numbers>S</div></div></button><button id = button_12 class = ""square num-button"" onclick = ""recordClick(this)""><div class = content><div class = numbers>Y</div></div></button><button class = clear_button id = ""ClearButton"" onclick = ""clearResponse()"">BACKSPACE</button><button class = blank_button id = ""BlankButton"" onclick = ""blankResponse()"">SKIP</button><p style=""font-size: 2.4rem""><u><b>Current Answer:</b></u></p><br><br><div id=echoed_txt style=""font-size: 5rem; color:blue;""><b></b></div></div>",enter,ospan,retrieval,Tvc14wSGOJWiE66kfAv48nj82aP2,html-keyboard-response,61,755059,0.0-46.0-0.0-1.0-3.0,NA,NA,NA,2.0,"[""Q"",""N""]","[""Q"",""N""]",1.0,2.0,"['<font color=""green"">Q</font>', '<font color=""green"">N</font>']",,,,,,57732cfcda75d30001487571,21:27:56,03/04/2024
1527.3999999761581,"['<p style=""font-size:44px"">Letters:<br><br><br><font color=""green"">Q</font> <font color=""green"">N</font></p><br><br>']",0,ospan,practice_feedback,Tvc14wSGOJWiE66kfAv48nj82aP2,html-button-response,62,757095,0.0-46.0-0.0-1.0-4.0,,,,,,,,,,,,,,,57732cfcda75d30001487571,21:27:56,03/04/2024
,"<p style=""font-size:75px;"">...</p>",,ospan,iti,Tvc14wSGOJWiE66kfAv48nj82aP2,html-keyboard-response,63,758101,0.0-46.0-0.0-2.0-0.0,,,,,,,,,,,,,,,57732cfcda75d30001487571,21:27:56,03/04/2024
,"<div style=""font-size: 10rem; color: #0000FF"">S</div>",,ospan,letter,Tvc14wSGOJWiE66kfAv48nj82aP2,html-keyboard-response,64,759113,0.0-46.0-0.0-2.0-1.0,,,,,,,,,,,,,,,57732cfcda75d30001487571,21:27:56,03/04/2024
,"<div style=""font-size: 10rem; color: #0000FF"">J</div>",,ospan,letter,Tvc14wSGOJWiE66kfAv48nj82aP2,html-keyboard-response,65,760880,0.0-46.0-0.0-2.0-2.0,,,,,,,,,,,,,,,57732cfcda75d30001487571,21:27:56,03/04/2024
,"<div style=""font-size: 10rem; color: #0000FF"">P</div>",,ospan,letter,Tvc14wSGOJWiE66kfAv48nj82aP2,html-keyboard-response,66,762646,0.0-46.0-0.0-2.0-3.0,,,,,,,,,,,,,,,57732cfcda75d30001487571,21:27:56,03/04/2024
5302.100000023842,"<div class = numbox><p style=""font-size: 2.4rem"">Please recall the letters you saw to the best of your ability. If you do not remember a particular letter, use the SKIP button.<br><b>(When you are ready to lock in your answer, press ENTER)</b></p><button id = button_1 class = ""square num-button"" onclick = ""recordClick(this)""><div class = content><div class = numbers>C</div></div></button><button id = button_2 class = ""square num-button"" onclick = ""recordClick(this)""><div class = content><div class = numbers>G</div></div></button><button id = button_3 class = ""square num-button"" onclick = ""recordClick(this)""><div class = content><div class = numbers>H</div></div></button><button id = button_4 class = ""square num-button"" onclick = ""recordClick(this)""><div class = content><div class = numbers>J</div></div></button><button id = button_5 class = ""square num-button"" onclick = ""recordClick(this)""><div class = content><div class = numbers>K</div></div></button><button id = button_6 class = ""square num-button"" onclick = ""recordClick(this)""><div class = content><div class = numbers>L</div></div></button><button id = button_7 class = ""square num-button"" onclick = ""recordClick(this)""><div class = content><div class = numbers>N</div></div></button><button id = button_8 class = ""square num-button"" onclick = ""recordClick(this)""><div class = content><div class = numbers>P</div></div></button><button id = button_9 class = ""square num-button"" onclick = ""recordClick(this)""><div class = content><div class = numbers>Q</div></div></button><button id = button_10 class = ""square num-button"" onclick = ""recordClick(this)""><div class = content><div class = numbers>R</div></div></button><button id = button_11 class = ""square num-button"" onclick = ""recordClick(this)""><div class = content><div class = numbers>S</div></div></button><button id = button_12 class = ""square num-button"" onclick = ""recordClick(this)""><div class = content><div class = numbers>Y</div></div></button><button class = clear_button id = ""ClearButton"" onclick = ""clearResponse()"">BACKSPACE</button><button class = blank_button id = ""BlankButton"" onclick = ""blankResponse()"">SKIP</button><p style=""font-size: 2.4rem""><u><b>Current Answer:</b></u></p><br><br><div id=echoed_txt style=""font-size: 5rem; color:blue;""><b></b></div></div>",enter,ospan,retrieval,Tvc14wSGOJWiE66kfAv48nj82aP2,html-keyboard-response,67,768709,0.0-46.0-0.0-2.0-4.0,NA,NA,NA,3.0,"[""S"",""J"",""P""]","[""S"",""J"",""P""]",1.0,3.0,"['<font color=""green"">S</font>', '<font color=""green"">J</font>', '<font color=""green"">P</font>']",,,,,,57732cfcda75d30001487571,21:27:56,03/04/2024
1387.0999999046326,"['<p style=""font-size:44px"">Letters:<br><br><br><font color=""green"">S</font> <font color=""green"">J</font> <font color=""green"">P</font></p><br><br>']",0,ospan,practice_feedback,Tvc14wSGOJWiE66kfAv48nj82aP2,html-button-response,68,770604,0.0-46.0-0.0-2.0-5.0,,,,,,,,,,,,,,,57732cfcda75d30001487571,21:27:56,03/04/2024
20558.399999976158,"<div class = 'left_align' style='font-size: 3.25rem; line-height: 1.3;'>Now you will practice doing the <b>symmetry judgment part</b> of the experiment.<br><br>A black and white grid picture will appear on the screen and you have to judge if it is <br>symmetrical or asymetrical.<br><br>A picture is 'mirror' symmetrical if its left half is identical to the right half when flipped.<br>Here are examples of a symmetrical and an asymetrical picture:<br><br><center><img src='Stimuli/img/symm_instructions_extra.png' style='height:420px; width:900'></img></center><br>To judge symmetry, imagine you were to fold each picture down the middle, like a book –<br>would the left half match the right half when folded onto each other?<br><br></div><br>",0,ospan,instruct,Tvc14wSGOJWiE66kfAv48nj82aP2,html-button-response,69,791164,0.0-46.0-1.0-0.0-0.0,,,,,,,,,,,,,,,57732cfcda75d30001487571,21:27:56,03/04/2024
8538.100000023842,"<div class = 'left_align' style='font-size: 3.25rem; line-height: 1.3;'>When you have viewed the picture and determined whether it is symmetrical or not,<br>you can <b>click the Yes or No button</b> below to answer.<br><br>If you take longer than 15 seconds, it will continue automatically<br>and record the answer as an error.</div><br>",0,ospan,instruct,Tvc14wSGOJWiE66kfAv48nj82aP2,html-button-response,70,799957,0.0-46.0-1.0-0.0-1.0,,,,,,,,,,,,,,,57732cfcda75d30001487571,21:27:56,03/04/2024
4077.0,"<div class = 'left_align' style='font-size: 3.25rem; line-height: 1.3;'>It is <b>very</b> important that you make the symmetry judgment correctly.<br><br>It is also important that you try and judge the picture as quickly as you can.<br><br>When you are ready, click on the button below to try some practice problems.</div><br><br><br><br>",0,ospan,instruct,Tvc14wSGOJWiE66kfAv48nj82aP2,html-button-response,71,804288,0.0-46.0-1.0-0.0-2.0,,,,,,,,,,,,,,,57732cfcda75d30001487571,21:27:56,03/04/2024
1822.0,,,ospan,symmetry,Tvc14wSGOJWiE66kfAv48nj82aP2,symmetry-judgement-task,72,806975,0.0-46.0-1.0-1.0-0.0,,,,,,,,,,1.0,1.0,,,,57732cfcda75d30001487571,21:27:56,03/04/2024
,"<p style=""color:green; font-size: 35px"">Correct</p>",,ospan,feedback,Tvc14wSGOJWiE66kfAv48nj82aP2,html-keyboard-response,73,807742,0.0-46.0-1.0-1.0-1.0,,,,,,,,,,,,,,,57732cfcda75d30001487571,21:27:56,03/04/2024
1346.0,,,ospan,symmetry,Tvc14wSGOJWiE66kfAv48nj82aP2,symmetry-judgement-task,74,811866,0.0-46.0-1.0-1.0-2.0,,,,,,,,,,1.0,1.0,,,,57732cfcda75d30001487571,21:27:56,03/04/2024
,"<p style=""color:green; font-size: 35px"">Correct</p>",,ospan,feedback,Tvc14wSGOJWiE66kfAv48nj82aP2,html-keyboard-response,75,812628,0.0-46.0-1.0-1.0-3.0,,,,,,,,,,,,,,,57732cfcda75d30001487571,21:27:56,03/04/2024
1179.0,,,ospan,symmetry,Tvc14wSGOJWiE66kfAv48nj82aP2,symmetry-judgement-task,76,816619,0.0-46.0-1.0-1.0-4.0,,,,,,,,,,1.0,1.0,,,,57732cfcda75d30001487571,21:27:56,03/04/2024
,"<p style=""color:green; font-size: 35px"">Correct</p>",,ospan,feedback,Tvc14wSGOJWiE66kfAv48nj82aP2,html-keyboard-response,77,817387,0.0-46.0-1.0-1.0-5.0,,,,,,,,,,,,,,,57732cfcda75d30001487571,21:27:56,03/04/2024
1041.8000000715256,"<p style=""font-size: 3rem;"">You responded correctly on 3 of 3 symmetry judgments. Good job!</p><br><br>",0,ospan,practice,Tvc14wSGOJWiE66kfAv48nj82aP2,html-button-response,78,820445,0.0-46.0-1.0-2.0,,,,,,,,,,,,,,,57732cfcda75d30001487571,21:27:56,03/04/2024
17619.100000023842,"<div class = 'left_align' style='font-size: 3.25rem; line-height: 1.3;'>Now you will practice doing both parts of the experiment at the same time.<br><br>In the next practice set, you will be given one grid picture to judge.<br>Then letter will appear on the screen. Try to remember the letter.<br><br>It is <b>very important</b> to make the symmetry judgment as quickly and accurately as possible.<br><br>Just as before, once you have make the symmetry judgment, you can click Yes or No.<br><b>Note that you will no longer see Correct or Incorrect feedback.</div><br><br><br><br>",0,ospan,instruct,Tvc14wSGOJWiE66kfAv48nj82aP2,html-button-response,79,838319,0.0-46.0-2.0-0.0-0.0,,,,,,,,,,,,,,,57732cfcda75d30001487571,21:27:56,03/04/2024
8946.0,"<div class = 'left_align' style='font-size: 3.25rem; line-height: 1.3;'>After the letter goes away, another grid picture will appear, and then<br>another letter.<br><br>At the end of each set of letters and grids, you will recall the letters to the best<br>of your ability. Remember, try your best to get the letters in the correct order.<br><br>It is important to <b>quickly</b> and <b>accurately</b> make the symmetry judgments.</div><br><br><br><br>",0,ospan,instruct,Tvc14wSGOJWiE66kfAv48nj82aP2,html-button-response,80,847529,0.0-46.0-2.0-0.0-1.0,,,,,,,,,,,,,,,57732cfcda75d30001487571,21:27:56,03/04/2024
11036.100000023842,"<div class = 'left_align' style='font-size: 3.25rem; line-height: 1.3;'>On the feedback screen, if you are not doing well at the symmetry judgments,<br>you will also see a warning in the middle. This indicates your percent <br>correct for the grid pictures for the entire experiment.<br><br>It is <b>very</b> important for you to keep accuracy at least at 85%: <u>We can only use<br>data where the participant was at least 85% accurate on the judgments.</u> Therefore,<br> please try your best to perform well on the symmetry judgments, <b>at the same time</b><br>doing your best to recall as many letters as possible.<br><br>Click the button to try some practice problems.</div><br><br><br><br>",0,ospan,instruct,Tvc14wSGOJWiE66kfAv48nj82aP2,html-button-response,81,858827,0.0-46.0-2.0-0.0-2.0,,,,,,,,,,,,,,,57732cfcda75d30001487571,21:27:56,03/04/2024
,"<p style=""font-size:75px;"">...</p>",,ospan,iti,Tvc14wSGOJWiE66kfAv48nj82aP2,html-keyboard-response,82,860083,0.0-46.0-2.0-1.0-0.0,,,,,,,,,,,,,,,57732cfcda75d30001487571,21:27:56,03/04/2024
1231.0,,,ospan,symmetry,Tvc14wSGOJWiE66kfAv48nj82aP2,symmetry-judgement-task,83,862657,0.0-46.0-2.0-1.0-1.0-0.0,,,,,,,,,,1.0,1.0,,,,57732cfcda75d30001487571,21:27:56,03/04/2024
,"<div style=""font-size: 10rem; color: #0000FF"">N</div>",,ospan,letter,Tvc14wSGOJWiE66kfAv48nj82aP2,html-keyboard-response,84,863667,0.0-46.0-2.0-1.0-1.0-1.0,,,,,,,,,,,,,,,57732cfcda75d30001487571,21:27:56,03/04/2024
2076.0,,,ospan,symmetry,Tvc14wSGOJWiE66kfAv48nj82aP2,symmetry-judgement-task,85,867771,0.0-46.0-2.0-1.0-1.0-2.0,,,,,,,,,,1.0,1.0,,,,57732cfcda75d30001487571,21:27:56,03/04/2024
,"<div style=""font-size: 10rem; color: #0000FF"">C</div>",,ospan,letter,Tvc14wSGOJWiE66kfAv48nj82aP2,html-keyboard-response,86,868777,0.0-46.0-2.0-1.0-1.0-3.0,,,,,,,,,,,,,,,57732cfcda75d30001487571,21:27:56,03/04/2024
923.0,,,ospan,symmetry,Tvc14wSGOJWiE66kfAv48nj82aP2,symmetry-judgement-task,87,871768,0.0-46.0-2.0-1.0-1.0-4.0,,,,,,,,,,1.0,1.0,,,,57732cfcda75d30001487571,21:27:56,03/04/2024
,"<div style=""font-size: 10rem; color: #0000FF"">Y</div>",,ospan,letter,Tvc14wSGOJWiE66kfAv48nj82aP2,html-keyboard-response,88,872784,0.0-46.0-2.0-1.0-1.0-5.0,,,,,,,,,,,,,,,57732cfcda75d30001487571,21:27:56,03/04/2024
4606.799999952316,"<div class = numbox><p style=""font-size: 2.4rem"">Please recall the letters you saw to the best of your ability. If you do not remember a particular letter, use the SKIP button.<br><b>(When you are ready to lock in your answer, press ENTER)</b></p><button id = button_1 class = ""square num-button"" onclick = ""recordClick(this)""><div class = content><div class = numbers>C</div></div></button><button id = button_2 class = ""square num-button"" onclick = ""recordClick(this)""><div class = content><div class = numbers>G</div></div></button><button id = button_3 class = ""square num-button"" onclick = ""recordClick(this)""><div class = content><div class = numbers>H</div></div></button><button id = button_4 class = ""square num-button"" onclick = ""recordClick(this)""><div class = content><div class = numbers>J</div></div></button><button id = button_5 class = ""square num-button"" onclick = ""recordClick(this)""><div class = content><div class = numbers>K</div></div></button><button id = button_6 class = ""square num-button"" onclick = ""recordClick(this)""><div class = content><div class = numbers>L</div></div></button><button id = button_7 class = ""square num-button"" onclick = ""recordClick(this)""><div class = content><div class = numbers>N</div></div></button><button id = button_8 class = ""square num-button"" onclick = ""recordClick(this)""><div class = content><div class = numbers>P</div></div></button><button id = button_9 class = ""square num-button"" onclick = ""recordClick(this)""><div class = content><div class = numbers>Q</div></div></button><button id = button_10 class = ""square num-button"" onclick = ""recordClick(this)""><div class = content><div class = numbers>R</div></div></button><button id = button_11 class = ""square num-button"" onclick = ""recordClick(this)""><div class = content><div class = numbers>S</div></div></button><button id = button_12 class = ""square num-button"" onclick = ""recordClick(this)""><div class = content><div class = numbers>Y</div></div></button><button class = clear_button id = ""ClearButton"" onclick = ""clearResponse()"">BACKSPACE</button><button class = blank_button id = ""BlankButton"" onclick = ""blankResponse()"">SKIP</button><p style=""font-size: 2.4rem""><u><b>Current Answer:</b></u></p><br><br><div id=echoed_txt style=""font-size: 5rem; color:blue;""><b></b></div></div>",enter,ospan,retrieval,Tvc14wSGOJWiE66kfAv48nj82aP2,html-keyboard-response,89,878157,0.0-46.0-2.0-1.0-2.0-0.0,NA,NA,NA,3.0,"[""N"",""C"",""Y""]","[""N"",""C"",""Y""]",1.0,3.0,"['<font color=""green"">N</font>', '<font color=""green"">C</font>', '<font color=""green"">Y</font>']",,,,,,57732cfcda75d30001487571,21:27:56,03/04/2024
1169.8000000715256,"['<p style=""font-size:44px"">Letters:<br><br><br><font color=""green"">N</font> <font color=""green"">C</font> <font color=""green"">Y</font></p><br><br><p style=""font-size:30px"">Symmetry:<br><br><font color=""green"">100%</font></p><br><br>']",0,ospan,practice_feedback,Tvc14wSGOJWiE66kfAv48nj82aP2,html-button-response,90,879831,0.0-46.0-2.0-1.0-2.0-1.0,,,,,,,,,,,,,,,57732cfcda75d30001487571,21:27:56,03/04/2024
,"<p style=""font-size:75px;"">...</p>",,ospan,iti,Tvc14wSGOJWiE66kfAv48nj82aP2,html-keyboard-response,91,880845,0.0-46.0-2.0-2.0-0.0,,,,,,,,,,,,,,,57732cfcda75d30001487571,21:27:56,03/04/2024
1501.0,,,ospan,symmetry,Tvc14wSGOJWiE66kfAv48nj82aP2,symmetry-judgement-task,92,883603,0.0-46.0-2.0-2.0-1.0-0.0,,,,,,,,,,1.0,1.0,,,,57732cfcda75d30001487571,21:27:56,03/04/2024
,"<div style=""font-size: 10rem; color: #0000FF"">Y</div>",,ospan,letter,Tvc14wSGOJWiE66kfAv48nj82aP2,html-keyboard-response,93,884608,0.0-46.0-2.0-2.0-1.0-1.0,,,,,,,,,,,,,,,57732cfcda75d30001487571,21:27:56,03/04/2024
3022.0,,,ospan,symmetry,Tvc14wSGOJWiE66kfAv48nj82aP2,symmetry-judgement-task,94,889705,0.0-46.0-2.0-2.0-1.0-2.0,,,,,,,,,,1.0,1.0,,,,57732cfcda75d30001487571,21:27:56,03/04/2024
,"<div style=""font-size: 10rem; color: #0000FF"">H</div>",,ospan,letter,Tvc14wSGOJWiE66kfAv48nj82aP2,html-keyboard-response,95,890712,0.0-46.0-2.0-2.0-1.0-3.0,,,,,,,,,,,,,,,57732cfcda75d30001487571,21:27:56,03/04/2024
1408.0,,,ospan,symmetry,Tvc14wSGOJWiE66kfAv48nj82aP2,symmetry-judgement-task,96,894190,0.0-46.0-2.0-2.0-1.0-4.0,,,,,,,,,,1.0,1.0,,,,57732cfcda75d30001487571,21:27:56,03/04/2024
,"<div style=""font-size: 10rem; color: #0000FF"">G</div>",,ospan,letter,Tvc14wSGOJWiE66kfAv48nj82aP2,html-keyboard-response,97,895202,0.0-46.0-2.0-2.0-1.0-5.0,,,,,,,,,,,,,,,57732cfcda75d30001487571,21:27:56,03/04/2024
4201.0,"<div class = numbox><p style=""font-size: 2.4rem"">Please recall the letters you saw to the best of your ability. If you do not remember a particular letter, use the SKIP button.<br><b>(When you are ready to lock in your answer, press ENTER)</b></p><button id = button_1 class = ""square num-button"" onclick = ""recordClick(this)""><div class = content><div class = numbers>C</div></div></button><button id = button_2 class = ""square num-button"" onclick = ""recordClick(this)""><div class = content><div class = numbers>G</div></div></button><button id = button_3 class = ""square num-button"" onclick = ""recordClick(this)""><div class = content><div class = numbers>H</div></div></button><button id = button_4 class = ""square num-button"" onclick = ""recordClick(this)""><div class = content><div class = numbers>J</div></div></button><button id = button_5 class = ""square num-button"" onclick = ""recordClick(this)""><div class = content><div class = numbers>K</div></div></button><button id = button_6 class = ""square num-button"" onclick = ""recordClick(this)""><div class = content><div class = numbers>L</div></div></button><button id = button_7 class = ""square num-button"" onclick = ""recordClick(this)""><div class = content><div class = numbers>N</div></div></button><button id = button_8 class = ""square num-button"" onclick = ""recordClick(this)""><div class = content><div class = numbers>P</div></div></button><button id = button_9 class = ""square num-button"" onclick = ""recordClick(this)""><div class = content><div class = numbers>Q</div></div></button><button id = button_10 class = ""square num-button"" onclick = ""recordClick(this)""><div class = content><div class = numbers>R</div></div></button><button id = button_11 class = ""square num-button"" onclick = ""recordClick(this)""><div class = content><div class = numbers>S</div></div></button><button id = button_12 class = ""square num-button"" onclick = ""recordClick(this)""><div class = content><div class = numbers>Y</div></div></button><button class = clear_button id = ""ClearButton"" onclick = ""clearResponse()"">BACKSPACE</button><button class = blank_button id = ""BlankButton"" onclick = ""blankResponse()"">SKIP</button><p style=""font-size: 2.4rem""><u><b>Current Answer:</b></u></p><br><br><div id=echoed_txt style=""font-size: 5rem; color:blue;""><b></b></div></div>",enter,ospan,retrieval,Tvc14wSGOJWiE66kfAv48nj82aP2,html-keyboard-response,98,900170,0.0-46.0-2.0-2.0-2.0-0.0,NA,NA,NA,3.0,"[""Y"",""H"",""G""]","[""Y"",""H"",""G""]",1.0,3.0,"['<font color=""green"">Y</font>', '<font color=""green"">H</font>', '<font color=""green"">G</font>']",,,,,,57732cfcda75d30001487571,21:27:56,03/04/2024
813.8000000715256,"['<p style=""font-size:44px"">Letters:<br><br><br><font color=""green"">Y</font> <font color=""green"">H</font> <font color=""green"">G</font></p><br><br><p style=""font-size:30px"">Symmetry:<br><br><font color=""green"">100%</font></p><br><br>']",0,ospan,practice_feedback,Tvc14wSGOJWiE66kfAv48nj82aP2,html-button-response,99,901494,0.0-46.0-2.0-2.0-2.0-1.0,,,,,,,,,,,,,,,57732cfcda75d30001487571,21:27:56,03/04/2024
32037.399999976158,"<div class = 'left_align' style='font-size: 3rem; line-height: 1.3;'><b>Great work! That is the end of practice.</b><br><br>The real trials will look just like the practice trials you just completed.<br><br><u>Here, you will not see feedback</u>. First, you will see an grid picture to judge,<br>then a letter to remember. When the recall screen appears, report the letters in the<br>order presented. If you forget a letter, remember to use the <b>blank</b> button to move to the<br>next letter. Some of the sets will have more symmetry grids and letters than others.<br><br>It is important that you do your best on both the symmetry judgments and the letter recall<br>parts of the experiment. For for the symmetry judgments, try to work as <b>quickly</b> and <br>as <b>accurately</b> as possible. Remember to keep your symmetry accuracy at 85% or above.<br><br><b>For the letters, do NOT use any external aid (e.g., writing on paper, electronic device).</b><br><br>It is <u>very important</u> to our experiment to have a <b>true</b> view of your real performance.<br><br>Do not worry if you miss some when it gets hard! This task is meant to be very challenging!<br><br>Click the button to begin.</div><br><br><br><br>",0,ospan,starting_real_here,Tvc14wSGOJWiE66kfAv48nj82aP2,html-button-response,100,933534,0.0-46.0-2.0-3.0,,,,,,,,,,,,,,,57732cfcda75d30001487571,21:27:56,03/04/2024
,"<p style=""font-size:75px;"">...</p>",,ospan,iti,Tvc14wSGOJWiE66kfAv48nj82aP2,html-keyboard-response,101,934802,0.0-46.0-3.0-0.0-0.0,,,,,,,,,,,,,,,57732cfcda75d30001487571,21:27:56,03/04/2024
1679.0,,,ospan,symmetry,Tvc14wSGOJWiE66kfAv48nj82aP2,symmetry-judgement-task,102,937763,0.0-46.0-3.0-0.0-1.0-0.0,,,,,,,,,,1.0,1.0,,,,57732cfcda75d30001487571,21:27:56,03/04/2024
,"<div style=""font-size: 10rem; color: #0000FF"">G</div>",,ospan,letter,Tvc14wSGOJWiE66kfAv48nj82aP2,html-keyboard-response,103,938765,0.0-46.0-3.0-0.0-1.0-1.0,,,,,,,,,,,,,,,57732cfcda75d30001487571,21:27:56,03/04/2024
1404.0,,,ospan,symmetry,Tvc14wSGOJWiE66kfAv48nj82aP2,symmetry-judgement-task,104,942242,0.0-46.0-3.0-0.0-1.0-2.0,,,,,,,,,,1.0,1.0,,,,57732cfcda75d30001487571,21:27:56,03/04/2024
,"<div style=""font-size: 10rem; color: #0000FF"">Q</div>",,ospan,letter,Tvc14wSGOJWiE66kfAv48nj82aP2,html-keyboard-response,105,943257,0.0-46.0-3.0-0.0-1.0-3.0,,,,,,,,,,,,,,,57732cfcda75d30001487571,21:27:56,03/04/2024
1453.0,,,ospan,symmetry,Tvc14wSGOJWiE66kfAv48nj82aP2,symmetry-judgement-task,106,946756,0.0-46.0-3.0-0.0-1.0-4.0,,,,,,,,,,1.0,1.0,,,,57732cfcda75d30001487571,21:27:56,03/04/2024
,"<div style=""font-size: 10rem; color: #0000FF"">K</div>",,ospan,letter,Tvc14wSGOJWiE66kfAv48nj82aP2,html-keyboard-response,107,947764,0.0-46.0-3.0-0.0-1.0-5.0,,,,,,,,,,,,,,,57732cfcda75d30001487571,21:27:56,03/04/2024
10085.400000095367,"<div class = numbox><p style=""font-size: 2.4rem"">Please recall the letters you saw to the best of your ability. If you do not remember a particular letter, use the SKIP button.<br><b>(When you are ready to lock in your answer, press ENTER)</b></p><button id = button_1 class = ""square num-button"" onclick = ""recordClick(this)""><div class = content><div class = numbers>C</div></div></button><button id = button_2 class = ""square num-button"" onclick = ""recordClick(this)""><div class = content><div class = numbers>G</div></div></button><button id = button_3 class = ""square num-button"" onclick = ""recordClick(this)""><div class = content><div class = numbers>H</div></div></button><button id = button_4 class = ""square num-button"" onclick = ""recordClick(this)""><div class = content><div class = numbers>J</div></div></button><button id = button_5 class = ""square num-button"" onclick = ""recordClick(this)""><div class = content><div class = numbers>K</div></div></button><button id = button_6 class = ""square num-button"" onclick = ""recordClick(this)""><div class = content><div class = numbers>L</div></div></button><button id = button_7 class = ""square num-button"" onclick = ""recordClick(this)""><div class = content><div class = numbers>N</div></div></button><button id = button_8 class = ""square num-button"" onclick = ""recordClick(this)""><div class = content><div class = numbers>P</div></div></button><button id = button_9 class = ""square num-button"" onclick = ""recordClick(this)""><div class = content><div class = numbers>Q</div></div></button><button id = button_10 class = ""square num-button"" onclick = ""recordClick(this)""><div class = content><div class = numbers>R</div></div></button><button id = button_11 class = ""square num-button"" onclick = ""recordClick(this)""><div class = content><div class = numbers>S</div></div></button><button id = button_12 class = ""square num-button"" onclick = ""recordClick(this)""><div class = content><div class = numbers>Y</div></div></button><button class = clear_button id = ""ClearButton"" onclick = ""clearResponse()"">BACKSPACE</button><button class = blank_button id = ""BlankButton"" onclick = ""blankResponse()"">SKIP</button><p style=""font-size: 2.4rem""><u><b>Current Answer:</b></u></p><br><br><div id=echoed_txt style=""font-size: 5rem; color:blue;""><b></b></div></div>",enter,ospan,retrieval,Tvc14wSGOJWiE66kfAv48nj82aP2,html-keyboard-response,108,958611,0.0-46.0-3.0-0.0-2.0,3,3,3,3.0,"[""G"",""Q"",""K""]","[""G"",""Q"",""K""]",1.0,3.0,,,,,,,57732cfcda75d30001487571,21:27:56,03/04/2024
2395.0,[''],0,ospan,feedback,Tvc14wSGOJWiE66kfAv48nj82aP2,html-button-response,109,961515,0.0-46.0-3.0-0.0-3.0,,,,,,,,,,,,100.0,0.0,,57732cfcda75d30001487571,21:27:56,03/04/2024
,"<p style=""font-size:75px;"">...</p>",,ospan,iti,Tvc14wSGOJWiE66kfAv48nj82aP2,html-keyboard-response,110,962521,0.0-46.0-4.0-0.0-0.0,,,,,,,,,,,,,,,57732cfcda75d30001487571,21:27:56,03/04/2024
1593.0,,,ospan,symmetry,Tvc14wSGOJWiE66kfAv48nj82aP2,symmetry-judgement-task,111,965388,0.0-46.0-4.0-0.0-1.0-0.0,,,,,,,,,,1.0,1.0,,,,57732cfcda75d30001487571,21:27:56,03/04/2024
,"<div style=""font-size: 10rem; color: #0000FF"">H</div>",,ospan,letter,Tvc14wSGOJWiE66kfAv48nj82aP2,html-keyboard-response,112,966400,0.0-46.0-4.0-0.0-1.0-1.0,,,,,,,,,,,,,,,57732cfcda75d30001487571,21:27:56,03/04/2024
832.0,,,ospan,symmetry,Tvc14wSGOJWiE66kfAv48nj82aP2,symmetry-judgement-task,113,969244,0.0-46.0-4.0-0.0-1.0-2.0,,,,,,,,,,1.0,1.0,,,,57732cfcda75d30001487571,21:27:56,03/04/2024
,"<div style=""font-size: 10rem; color: #0000FF"">N</div>",,ospan,letter,Tvc14wSGOJWiE66kfAv48nj82aP2,html-keyboard-response,114,970259,0.0-46.0-4.0-0.0-1.0-3.0,,,,,,,,,,,,,,,57732cfcda75d30001487571,21:27:56,03/04/2024
886.0,,,ospan,symmetry,Tvc14wSGOJWiE66kfAv48nj82aP2,symmetry-judgement-task,115,973210,0.0-46.0-4.0-0.0-1.0-4.0,,,,,,,,,,1.0,1.0,,,,57732cfcda75d30001487571,21:27:56,03/04/2024
,"<div style=""font-size: 10rem; color: #0000FF"">P</div>",,ospan,letter,Tvc14wSGOJWiE66kfAv48nj82aP2,html-keyboard-response,116,974215,0.0-46.0-4.0-0.0-1.0-5.0,,,,,,,,,,,,,,,57732cfcda75d30001487571,21:27:56,03/04/2024
1300.0,,,ospan,symmetry,Tvc14wSGOJWiE66kfAv48nj82aP2,symmetry-judgement-task,117,977528,0.0-46.0-4.0-0.0-1.0-6.0,,,,,,,,,,1.0,1.0,,,,57732cfcda75d30001487571,21:27:56,03/04/2024
,"<div style=""font-size: 10rem; color: #0000FF"">K</div>",,ospan,letter,Tvc14wSGOJWiE66kfAv48nj82aP2,html-keyboard-response,118,978544,0.0-46.0-4.0-0.0-1.0-7.0,,,,,,,,,,,,,,,57732cfcda75d30001487571,21:27:56,03/04/2024
5904.099999904633,"<div class = numbox><p style=""font-size: 2.4rem"">Please recall the letters you saw to the best of your ability. If you do not remember a particular letter, use the SKIP button.<br><b>(When you are ready to lock in your answer, press ENTER)</b></p><button id = button_1 class = ""square num-button"" onclick = ""recordClick(this)""><div class = content><div class = numbers>C</div></div></button><button id = button_2 class = ""square num-button"" onclick = ""recordClick(this)""><div class = content><div class = numbers>G</div></div></button><button id = button_3 class = ""square num-button"" onclick = ""recordClick(this)""><div class = content><div class = numbers>H</div></div></button><button id = button_4 class = ""square num-button"" onclick = ""recordClick(this)""><div class = content><div class = numbers>J</div></div></button><button id = button_5 class = ""square num-button"" onclick = ""recordClick(this)""><div class = content><div class = numbers>K</div></div></button><button id = button_6 class = ""square num-button"" onclick = ""recordClick(this)""><div class = content><div class = numbers>L</div></div></button><button id = button_7 class = ""square num-button"" onclick = ""recordClick(this)""><div class = content><div class = numbers>N</div></div></button><button id = button_8 class = ""square num-button"" onclick = ""recordClick(this)""><div class = content><div class = numbers>P</div></div></button><button id = button_9 class = ""square num-button"" onclick = ""recordClick(this)""><div class = content><div class = numbers>Q</div></div></button><button id = button_10 class = ""square num-button"" onclick = ""recordClick(this)""><div class = content><div class = numbers>R</div></div></button><button id = button_11 class = ""square num-button"" onclick = ""recordClick(this)""><div class = content><div class = numbers>S</div></div></button><button id = button_12 class = ""square num-button"" onclick = ""recordClick(this)""><div class = content><div class = numbers>Y</div></div></button><button class = clear_button id = ""ClearButton"" onclick = ""clearResponse()"">BACKSPACE</button><button class = blank_button id = ""BlankButton"" onclick = ""blankResponse()"">SKIP</button><p style=""font-size: 2.4rem""><u><b>Current Answer:</b></u></p><br><br><div id=echoed_txt style=""font-size: 5rem; color:blue;""><b></b></div></div>",enter,ospan,retrieval,Tvc14wSGOJWiE66kfAv48nj82aP2,html-keyboard-response,119,985208,0.0-46.0-4.0-0.0-2.0,7,7,7,4.0,"[""H"",""N"",""P"",""K""]","[""H"",""N"",""P"",""K""]",1.0,4.0,,,,,,,57732cfcda75d30001487571,21:27:56,03/04/2024
825.1000000238419,[''],0,ospan,feedback,Tvc14wSGOJWiE66kfAv48nj82aP2,html-button-response,120,986540,0.0-46.0-4.0-0.0-3.0,,,,,,,,,,,,100.0,0.0,,57732cfcda75d30001487571,21:27:56,03/04/2024
,"<p style=""font-size:75px;"">...</p>",,ospan,iti,Tvc14wSGOJWiE66kfAv48nj82aP2,html-keyboard-response,121,987544,0.0-46.0-4.0-1.0-0.0,,,,,,,,,,,,,,,57732cfcda75d30001487571,21:27:56,03/04/2024
1129.0,,,ospan,symmetry,Tvc14wSGOJWiE66kfAv48nj82aP2,symmetry-judgement-task,122,989983,0.0-46.0-4.0-1.0-1.0-0.0,,,,,,,,,,1.0,1.0,,,,57732cfcda75d30001487571,21:27:56,03/04/2024
,"<div style=""font-size: 10rem; color: #0000FF"">R</div>",,ospan,letter,Tvc14wSGOJWiE66kfAv48nj82aP2,html-keyboard-response,123,990987,0.0-46.0-4.0-1.0-1.0-1.0,,,,,,,,,,,,,,,57732cfcda75d30001487571,21:27:56,03/04/2024
1498.0,,,ospan,symmetry,Tvc14wSGOJWiE66kfAv48nj82aP2,symmetry-judgement-task,124,994600,0.0-46.0-4.0-1.0-1.0-2.0,,,,,,,,,,1.0,1.0,,,,57732cfcda75d30001487571,21:27:56,03/04/2024
,"<div style=""font-size: 10rem; color: #0000FF"">K</div>",,ospan,letter,Tvc14wSGOJWiE66kfAv48nj82aP2,html-keyboard-response,125,995612,0.0-46.0-4.0-1.0-1.0-3.0,,,,,,,,,,,,,,,57732cfcda75d30001487571,21:27:56,03/04/2024
970.0,,,ospan,symmetry,Tvc14wSGOJWiE66kfAv48nj82aP2,symmetry-judgement-task,126,998596,0.0-46.0-4.0-1.0-1.0-4.0,,,,,,,,,,1.0,1.0,,,,57732cfcda75d30001487571,21:27:56,03/04/2024
,"<div style=""font-size: 10rem; color: #0000FF"">J</div>",,ospan,letter,Tvc14wSGOJWiE66kfAv48nj82aP2,html-keyboard-response,127,999603,0.0-46.0-4.0-1.0-1.0-5.0,,,,,,,,,,,,,,,57732cfcda75d30001487571,21:27:56,03/04/2024
1426.0,,,ospan,symmetry,Tvc14wSGOJWiE66kfAv48nj82aP2,symmetry-judgement-task,128,1003054,0.0-46.0-4.0-1.0-1.0-6.0,,,,,,,,,,1.0,1.0,,,,57732cfcda75d30001487571,21:27:56,03/04/2024
,"<div style=""font-size: 10rem; color: #0000FF"">P</div>",,ospan,letter,Tvc14wSGOJWiE66kfAv48nj82aP2,html-keyboard-response,129,1004071,0.0-46.0-4.0-1.0-1.0-7.0,,,,,,,,,,,,,,,57732cfcda75d30001487571,21:27:56,03/04/2024
1120.0,,,ospan,symmetry,Tvc14wSGOJWiE66kfAv48nj82aP2,symmetry-judgement-task,130,1007215,0.0-46.0-4.0-1.0-1.0-8.0,,,,,,,,,,1.0,1.0,,,,57732cfcda75d30001487571,21:27:56,03/04/2024
,"<div style=""font-size: 10rem; color: #0000FF"">Y</div>",,ospan,letter,Tvc14wSGOJWiE66kfAv48nj82aP2,html-keyboard-response,131,1008222,0.0-46.0-4.0-1.0-1.0-9.0,,,,,,,,,,,,,,,57732cfcda75d30001487571,21:27:56,03/04/2024
4116.299999952316,"<div class = numbox><p style=""font-size: 2.4rem"">Please recall the letters you saw to the best of your ability. If you do not remember a particular letter, use the SKIP button.<br><b>(When you are ready to lock in your answer, press ENTER)</b></p><button id = button_1 class = ""square num-button"" onclick = ""recordClick(this)""><div class = content><div class = numbers>C</div></div></button><button id = button_2 class = ""square num-button"" onclick = ""recordClick(this)""><div class = content><div class = numbers>G</div></div></button><button id = button_3 class = ""square num-button"" onclick = ""recordClick(this)""><div class = content><div class = numbers>H</div></div></button><button id = button_4 class = ""square num-button"" onclick = ""recordClick(this)""><div class = content><div class = numbers>J</div></div></button><button id = button_5 class = ""square num-button"" onclick = ""recordClick(this)""><div class = content><div class = numbers>K</div></div></button><button id = button_6 class = ""square num-button"" onclick = ""recordClick(this)""><div class = content><div class = numbers>L</div></div></button><button id = button_7 class = ""square num-button"" onclick = ""recordClick(this)""><div class = content><div class = numbers>N</div></div></button><button id = button_8 class = ""square num-button"" onclick = ""recordClick(this)""><div class = content><div class = numbers>P</div></div></button><button id = button_9 class = ""square num-button"" onclick = ""recordClick(this)""><div class = content><div class = numbers>Q</div></div></button><button id = button_10 class = ""square num-button"" onclick = ""recordClick(this)""><div class = content><div class = numbers>R</div></div></button><button id = button_11 class = ""square num-button"" onclick = ""recordClick(this)""><div class = content><div class = numbers>S</div></div></button><button id = button_12 class = ""square num-button"" onclick = ""recordClick(this)""><div class = content><div class = numbers>Y</div></div></button><button class = clear_button id = ""ClearButton"" onclick = ""clearResponse()"">BACKSPACE</button><button class = blank_button id = ""BlankButton"" onclick = ""blankResponse()"">SKIP</button><p style=""font-size: 2.4rem""><u><b>Current Answer:</b></u></p><br><br><div id=echoed_txt style=""font-size: 5rem; color:blue;""><b></b></div></div>",enter,ospan,retrieval,Tvc14wSGOJWiE66kfAv48nj82aP2,html-keyboard-response,132,1013106,0.0-46.0-4.0-1.0-2.0,12,12,12,5.0,"[""R"",""K"",""J"",""P"",""Y""]","[""R"",""K"",""J"",""P"",""Y""]",1.0,5.0,,,,,,,57732cfcda75d30001487571,21:27:56,03/04/2024
787.5999999046326,[''],0,ospan,feedback,Tvc14wSGOJWiE66kfAv48nj82aP2,html-button-response,133,1014411,0.0-46.0-4.0-1.0-3.0,,,,,,,,,,,,100.0,0.0,,57732cfcda75d30001487571,21:27:56,03/04/2024
,"<p style=""font-size:75px;"">...</p>",,ospan,iti,Tvc14wSGOJWiE66kfAv48nj82aP2,html-keyboard-response,134,1015428,0.0-46.0-4.0-2.0-0.0,,,,,,,,,,,,,,,57732cfcda75d30001487571,21:27:56,03/04/2024
1193.0,,,ospan,symmetry,Tvc14wSGOJWiE66kfAv48nj82aP2,symmetry-judgement-task,135,1017897,0.0-46.0-4.0-2.0-1.0-0.0,,,,,,,,,,1.0,1.0,,,,57732cfcda75d30001487571,21:27:56,03/04/2024
,"<div style=""font-size: 10rem; color: #0000FF"">N</div>",,ospan,letter,Tvc14wSGOJWiE66kfAv48nj82aP2,html-keyboard-response,136,1018908,0.0-46.0-4.0-2.0-1.0-1.0,,,,,,,,,,,,,,,57732cfcda75d30001487571,21:27:56,03/04/2024
957.0,,,ospan,symmetry,Tvc14wSGOJWiE66kfAv48nj82aP2,symmetry-judgement-task,137,1021987,0.0-46.0-4.0-2.0-1.0-2.0,,,,,,,,,,1.0,1.0,,,,57732cfcda75d30001487571,21:27:56,03/04/2024
,"<div style=""font-size: 10rem; color: #0000FF"">S</div>",,ospan,letter,Tvc14wSGOJWiE66kfAv48nj82aP2,html-keyboard-response,138,1022998,0.0-46.0-4.0-2.0-1.0-3.0,,,,,,,,,,,,,,,57732cfcda75d30001487571,21:27:56,03/04/2024
892.0,,,ospan,symmetry,Tvc14wSGOJWiE66kfAv48nj82aP2,symmetry-judgement-task,139,1025933,0.0-46.0-4.0-2.0-1.0-4.0,,,,,,,,,,1.0,1.0,,,,57732cfcda75d30001487571,21:27:56,03/04/2024
,"<div style=""font-size: 10rem; color: #0000FF"">H</div>",,ospan,letter,Tvc14wSGOJWiE66kfAv48nj82aP2,html-keyboard-response,140,1026939,0.0-46.0-4.0-2.0-1.0-5.0,,,,,,,,,,,,,,,57732cfcda75d30001487571,21:27:56,03/04/2024
3963.0,"<div class = numbox><p style=""font-size: 2.4rem"">Please recall the letters you saw to the best of your ability. If you do not remember a particular letter, use the SKIP button.<br><b>(When you are ready to lock in your answer, press ENTER)</b></p><button id = button_1 class = ""square num-button"" onclick = ""recordClick(this)""><div class = content><div class = numbers>C</div></div></button><button id = button_2 class = ""square num-button"" onclick = ""recordClick(this)""><div class = content><div class = numbers>G</div></div></button><button id = button_3 class = ""square num-button"" onclick = ""recordClick(this)""><div class = content><div class = numbers>H</div></div></button><button id = button_4 class = ""square num-button"" onclick = ""recordClick(this)""><div class = content><div class = numbers>J</div></div></button><button id = button_5 class = ""square num-button"" onclick = ""recordClick(this)""><div class = content><div class = numbers>K</div></div></button><button id = button_6 class = ""square num-button"" onclick = ""recordClick(this)""><div class = content><div class = numbers>L</div></div></button><button id = button_7 class = ""square num-button"" onclick = ""recordClick(this)""><div class = content><div class = numbers>N</div></div></button><button id = button_8 class = ""square num-button"" onclick = ""recordClick(this)""><div class = content><div class = numbers>P</div></div></button><button id = button_9 class = ""square num-button"" onclick = ""recordClick(this)""><div class = content><div class = numbers>Q</div></div></button><button id = button_10 class = ""square num-button"" onclick = ""recordClick(this)""><div class = content><div class = numbers>R</div></div></button><button id = button_11 class = ""square num-button"" onclick = ""recordClick(this)""><div class = content><div class = numbers>S</div></div></button><button id = button_12 class = ""square num-button"" onclick = ""recordClick(this)""><div class = content><div class = numbers>Y</div></div></button><button class = clear_button id = ""ClearButton"" onclick = ""clearResponse()"">BACKSPACE</button><button class = blank_button id = ""BlankButton"" onclick = ""blankResponse()"">SKIP</button><p style=""font-size: 2.4rem""><u><b>Current Answer:</b></u></p><br><br><div id=echoed_txt style=""font-size: 5rem; color:blue;""><b></b></div></div>",enter,ospan,retrieval,Tvc14wSGOJWiE66kfAv48nj82aP2,html-keyboard-response,141,1031663,0.0-46.0-4.0-2.0-2.0,15,15,15,3.0,"[""N"",""S"",""H""]","[""N"",""S"",""H""]",1.0,3.0,,,,,,,57732cfcda75d30001487571,21:27:56,03/04/2024
897.5,[''],0,ospan,feedback,Tvc14wSGOJWiE66kfAv48nj82aP2,html-button-response,142,1033073,0.0-46.0-4.0-2.0-3.0,,,,,,,,,,,,100.0,0.0,,57732cfcda75d30001487571,21:27:56,03/04/2024
,"<p style=""font-size:75px;"">...</p>",,ospan,iti,Tvc14wSGOJWiE66kfAv48nj82aP2,html-keyboard-response,143,1034081,0.0-46.0-5.0-0.0-0.0,,,,,,,,,,,,,,,57732cfcda75d30001487571,21:27:56,03/04/2024
1366.0,,,ospan,symmetry,Tvc14wSGOJWiE66kfAv48nj82aP2,symmetry-judgement-task,144,1036765,0.0-46.0-5.0-0.0-1.0-0.0,,,,,,,,,,1.0,1.0,,,,57732cfcda75d30001487571,21:27:56,03/04/2024
,"<div style=""font-size: 10rem; color: #0000FF"">P</div>",,ospan,letter,Tvc14wSGOJWiE66kfAv48nj82aP2,html-keyboard-response,145,1037774,0.0-46.0-5.0-0.0-1.0-1.0,,,,,,,,,,,,,,,57732cfcda75d30001487571,21:27:56,03/04/2024
1116.0,,,ospan,symmetry,Tvc14wSGOJWiE66kfAv48nj82aP2,symmetry-judgement-task,146,1040905,0.0-46.0-5.0-0.0-1.0-2.0,,,,,,,,,,1.0,1.0,,,,57732cfcda75d30001487571,21:27:56,03/04/2024
,"<div style=""font-size: 10rem; color: #0000FF"">H</div>",,ospan,letter,Tvc14wSGOJWiE66kfAv48nj82aP2,html-keyboard-response,147,1041916,0.0-46.0-5.0-0.0-1.0-3.0,,,,,,,,,,,,,,,57732cfcda75d30001487571,21:27:56,03/04/2024
906.0,,,ospan,symmetry,Tvc14wSGOJWiE66kfAv48nj82aP2,symmetry-judgement-task,148,1044981,0.0-46.0-5.0-0.0-1.0-4.0,,,,,,,,,,1.0,1.0,,,,57732cfcda75d30001487571,21:27:56,03/04/2024
,"<div style=""font-size: 10rem; color: #0000FF"">N</div>",,ospan,letter,Tvc14wSGOJWiE66kfAv48nj82aP2,html-keyboard-response,149,1045983,0.0-46.0-5.0-0.0-1.0-5.0,,,,,,,,,,,,,,,57732cfcda75d30001487571,21:27:56,03/04/2024
1101.0,,,ospan,symmetry,Tvc14wSGOJWiE66kfAv48nj82aP2,symmetry-judgement-task,150,1049136,0.0-46.0-5.0-0.0-1.0-6.0,,,,,,,,,,1.0,1.0,,,,57732cfcda75d30001487571,21:27:56,03/04/2024
,"<div style=""font-size: 10rem; color: #0000FF"">J</div>",,ospan,letter,Tvc14wSGOJWiE66kfAv48nj82aP2,html-keyboard-response,151,1050151,0.0-46.0-5.0-0.0-1.0-7.0,,,,,,,,,,,,,,,57732cfcda75d30001487571,21:27:56,03/04/2024
1008.0,,,ospan,symmetry,Tvc14wSGOJWiE66kfAv48nj82aP2,symmetry-judgement-task,152,1053189,0.0-46.0-5.0-0.0-1.0-8.0,,,,,,,,,,1.0,1.0,,,,57732cfcda75d30001487571,21:27:56,03/04/2024
,"<div style=""font-size: 10rem; color: #0000FF"">Q</div>",,ospan,letter,Tvc14wSGOJWiE66kfAv48nj82aP2,html-keyboard-response,153,1054201,0.0-46.0-5.0-0.0-1.0-9.0,,,,,,,,,,,,,,,57732cfcda75d30001487571,21:27:56,03/04/2024
1266.0,,,ospan,symmetry,Tvc14wSGOJWiE66kfAv48nj82aP2,symmetry-judgement-task,154,1057553,0.0-46.0-5.0-0.0-1.0-10.0,,,,,,,,,,1.0,1.0,,,,57732cfcda75d30001487571,21:27:56,03/04/2024
,"<div style=""font-size: 10rem; color: #0000FF"">G</div>",,ospan,letter,Tvc14wSGOJWiE66kfAv48nj82aP2,html-keyboard-response,155,1058568,0.0-46.0-5.0-0.0-1.0-11.0,,,,,,,,,,,,,,,57732cfcda75d30001487571,21:27:56,03/04/2024
11412.100000023842,"<div class = numbox><p style=""font-size: 2.4rem"">Please recall the letters you saw to the best of your ability. If you do not remember a particular letter, use the SKIP button.<br><b>(When you are ready to lock in your answer, press ENTER)</b></p><button id = button_1 class = ""square num-button"" onclick = ""recordClick(this)""><div class = content><div class = numbers>C</div></div></button><button id = button_2 class = ""square num-button"" onclick = ""recordClick(this)""><div class = content><div class = numbers>G</div></div></button><button id = button_3 class = ""square num-button"" onclick = ""recordClick(this)""><div class = content><div class = numbers>H</div></div></button><button id = button_4 class = ""square num-button"" onclick = ""recordClick(this)""><div class = content><div class = numbers>J</div></div></button><button id = button_5 class = ""square num-button"" onclick = ""recordClick(this)""><div class = content><div class = numbers>K</div></div></button><button id = button_6 class = ""square num-button"" onclick = ""recordClick(this)""><div class = content><div class = numbers>L</div></div></button><button id = button_7 class = ""square num-button"" onclick = ""recordClick(this)""><div class = content><div class = numbers>N</div></div></button><button id = button_8 class = ""square num-button"" onclick = ""recordClick(this)""><div class = content><div class = numbers>P</div></div></button><button id = button_9 class = ""square num-button"" onclick = ""recordClick(this)""><div class = content><div class = numbers>Q</div></div></button><button id = button_10 class = ""square num-button"" onclick = ""recordClick(this)""><div class = content><div class = numbers>R</div></div></button><button id = button_11 class = ""square num-button"" onclick = ""recordClick(this)""><div class = content><div class = numbers>S</div></div></button><button id = button_12 class = ""square num-button"" onclick = ""recordClick(this)""><div class = content><div class = numbers>Y</div></div></button><button class = clear_button id = ""ClearButton"" onclick = ""clearResponse()"">BACKSPACE</button><button class = blank_button id = ""BlankButton"" onclick = ""blankResponse()"">SKIP</button><p style=""font-size: 2.4rem""><u><b>Current Answer:</b></u></p><br><br><div id=echoed_txt style=""font-size: 5rem; color:blue;""><b></b></div></div>",enter,ospan,retrieval,Tvc14wSGOJWiE66kfAv48nj82aP2,html-keyboard-response,156,1070741,0.0-46.0-5.0-0.0-2.0,21,21,21,6.0,"[""P"",""H"",""N"",""J"",""Q"",""G""]","[""P"",""H"",""N"",""J"",""Q"",""G""]",1.0,6.0,,,,,,,57732cfcda75d30001487571,21:27:56,03/04/2024
1037.7999999523163,[''],0,ospan,feedback,Tvc14wSGOJWiE66kfAv48nj82aP2,html-button-response,157,1072293,0.0-46.0-5.0-0.0-3.0,,,,,,,,,,,,100.0,0.0,,57732cfcda75d30001487571,21:27:56,03/04/2024
,"<p style=""font-size:75px;"">...</p>",,ospan,iti,Tvc14wSGOJWiE66kfAv48nj82aP2,html-keyboard-response,158,1073298,0.0-46.0-5.0-1.0-0.0,,,,,,,,,,,,,,,57732cfcda75d30001487571,21:27:56,03/04/2024
1566.0,,,ospan,symmetry,Tvc14wSGOJWiE66kfAv48nj82aP2,symmetry-judgement-task,159,1075929,0.0-46.0-5.0-1.0-1.0-0.0,,,,,,,,,,1.0,1.0,,,,57732cfcda75d30001487571,21:27:56,03/04/2024
,"<div style=""font-size: 10rem; color: #0000FF"">S</div>",,ospan,letter,Tvc14wSGOJWiE66kfAv48nj82aP2,html-keyboard-response,160,1076944,0.0-46.0-5.0-1.0-1.0-1.0,,,,,,,,,,,,,,,57732cfcda75d30001487571,21:27:56,03/04/2024
1545.0,,,ospan,symmetry,Tvc14wSGOJWiE66kfAv48nj82aP2,symmetry-judgement-task,161,1080541,0.0-46.0-5.0-1.0-1.0-2.0,,,,,,,,,,1.0,1.0,,,,57732cfcda75d30001487571,21:27:56,03/04/2024
,"<div style=""font-size: 10rem; color: #0000FF"">R</div>",,ospan,letter,Tvc14wSGOJWiE66kfAv48nj82aP2,html-keyboard-response,162,1081543,0.0-46.0-5.0-1.0-1.0-3.0,,,,,,,,,,,,,,,57732cfcda75d30001487571,21:27:56,03/04/2024
945.0,,,ospan,symmetry,Tvc14wSGOJWiE66kfAv48nj82aP2,symmetry-judgement-task,163,1084496,0.0-46.0-5.0-1.0-1.0-4.0,,,,,,,,,,1.0,1.0,,,,57732cfcda75d30001487571,21:27:56,03/04/2024
,"<div style=""font-size: 10rem; color: #0000FF"">G</div>",,ospan,letter,Tvc14wSGOJWiE66kfAv48nj82aP2,html-keyboard-response,164,1085506,0.0-46.0-5.0-1.0-1.0-5.0,,,,,,,,,,,,,,,57732cfcda75d30001487571,21:27:56,03/04/2024
917.0,,,ospan,symmetry,Tvc14wSGOJWiE66kfAv48nj82aP2,symmetry-judgement-task,165,1088490,0.0-46.0-5.0-1.0-1.0-6.0,,,,,,,,,,1.0,1.0,,,,57732cfcda75d30001487571,21:27:56,03/04/2024
,"<div style=""font-size: 10rem; color: #0000FF"">J</div>",,ospan,letter,Tvc14wSGOJWiE66kfAv48nj82aP2,html-keyboard-response,166,1089497,0.0-46.0-5.0-1.0-1.0-7.0,,,,,,,,,,,,,,,57732cfcda75d30001487571,21:27:56,03/04/2024
836.0,,,ospan,symmetry,Tvc14wSGOJWiE66kfAv48nj82aP2,symmetry-judgement-task,167,1092356,0.0-46.0-5.0-1.0-1.0-8.0,,,,,,,,,,1.0,1.0,,,,57732cfcda75d30001487571,21:27:56,03/04/2024
,"<div style=""font-size: 10rem; color: #0000FF"">P</div>",,ospan,letter,Tvc14wSGOJWiE66kfAv48nj82aP2,html-keyboard-response,168,1093362,0.0-46.0-5.0-1.0-1.0-9.0,,,,,,,,,,,,,,,57732cfcda75d30001487571,21:27:56,03/04/2024
1191.0,,,ospan,symmetry,Tvc14wSGOJWiE66kfAv48nj82aP2,symmetry-judgement-task,169,1096590,0.0-46.0-5.0-1.0-1.0-10.0,,,,,,,,,,1.0,1.0,,,,57732cfcda75d30001487571,21:27:56,03/04/2024
,"<div style=""font-size: 10rem; color: #0000FF"">Y</div>",,ospan,letter,Tvc14wSGOJWiE66kfAv48nj82aP2,html-keyboard-response,170,1097606,0.0-46.0-5.0-1.0-1.0-11.0,,,,,,,,,,,,,,,57732cfcda75d30001487571,21:27:56,03/04/2024
1367.0,,,ospan,symmetry,Tvc14wSGOJWiE66kfAv48nj82aP2,symmetry-judgement-task,171,1101023,0.0-46.0-5.0-1.0-1.0-12.0,,,,,,,,,,1.0,1.0,,,,57732cfcda75d30001487571,21:27:56,03/04/2024
,"<div style=""font-size: 10rem; color: #0000FF"">C</div>",,ospan,letter,Tvc14wSGOJWiE66kfAv48nj82aP2,html-keyboard-response,172,1102030,0.0-46.0-5.0-1.0-1.0-13.0,,,,,,,,,,,,,,,57732cfcda75d30001487571,21:27:56,03/04/2024
13551.299999952316,"<div class = numbox><p style=""font-size: 2.4rem"">Please recall the letters you saw to the best of your ability. If you do not remember a particular letter, use the SKIP button.<br><b>(When you are ready to lock in your answer, press ENTER)</b></p><button id = button_1 class = ""square num-button"" onclick = ""recordClick(this)""><div class = content><div class = numbers>C</div></div></button><button id = button_2 class = ""square num-button"" onclick = ""recordClick(this)""><div class = content><div class = numbers>G</div></div></button><button id = button_3 class = ""square num-button"" onclick = ""recordClick(this)""><div class = content><div class = numbers>H</div></div></button><button id = button_4 class = ""square num-button"" onclick = ""recordClick(this)""><div class = content><div class = numbers>J</div></div></button><button id = button_5 class = ""square num-button"" onclick = ""recordClick(this)""><div class = content><div class = numbers>K</div></div></button><button id = button_6 class = ""square num-button"" onclick = ""recordClick(this)""><div class = content><div class = numbers>L</div></div></button><button id = button_7 class = ""square num-button"" onclick = ""recordClick(this)""><div class = content><div class = numbers>N</div></div></button><button id = button_8 class = ""square num-button"" onclick = ""recordClick(this)""><div class = content><div class = numbers>P</div></div></button><button id = button_9 class = ""square num-button"" onclick = ""recordClick(this)""><div class = content><div class = numbers>Q</div></div></button><button id = button_10 class = ""square num-button"" onclick = ""recordClick(this)""><div class = content><div class = numbers>R</div></div></button><button id = button_11 class = ""square num-button"" onclick = ""recordClick(this)""><div class = content><div class = numbers>S</div></div></button><button id = button_12 class = ""square num-button"" onclick = ""recordClick(this)""><div class = content><div class = numbers>Y</div></div></button><button class = clear_button id = ""ClearButton"" onclick = ""clearResponse()"">BACKSPACE</button><button class = blank_button id = ""BlankButton"" onclick = ""blankResponse()"">SKIP</button><p style=""font-size: 2.4rem""><u><b>Current Answer:</b></u></p><br><br><div id=echoed_txt style=""font-size: 5rem; color:blue;""><b></b></div></div>",enter,ospan,retrieval,Tvc14wSGOJWiE66kfAv48nj82aP2,html-keyboard-response,173,1116335,0.0-46.0-5.0-1.0-2.0,28,28,28,7.0,"[""S"",""R"",""G"",""J"",""P"",""Y"",""C""]","[""S"",""R"",""G"",""J"",""P"",""Y"",""C""]",1.0,7.0,,,,,,,57732cfcda75d30001487571,21:27:56,03/04/2024
962.6000000238419,[''],0,ospan,feedback,Tvc14wSGOJWiE66kfAv48nj82aP2,html-button-response,174,1117813,0.0-46.0-5.0-1.0-3.0,,,,,,,,,,,,100.0,0.0,,57732cfcda75d30001487571,21:27:56,03/04/2024
,"<p style=""font-size:75px;"">...</p>",,ospan,iti,Tvc14wSGOJWiE66kfAv48nj82aP2,html-keyboard-response,175,1118818,0.0-46.0-6.0-0.0-0.0,,,,,,,,,,,,,,,57732cfcda75d30001487571,21:27:56,03/04/2024
1457.0,,,ospan,symmetry,Tvc14wSGOJWiE66kfAv48nj82aP2,symmetry-judgement-task,176,1121361,0.0-46.0-6.0-0.0-1.0-0.0,,,,,,,,,,1.0,1.0,,,,57732cfcda75d30001487571,21:27:56,03/04/2024
,"<div style=""font-size: 10rem; color: #0000FF"">C</div>",,ospan,letter,Tvc14wSGOJWiE66kfAv48nj82aP2,html-keyboard-response,177,1122369,0.0-46.0-6.0-0.0-1.0-1.0,,,,,,,,,,,,,,,57732cfcda75d30001487571,21:27:56,03/04/2024
850.0,,,ospan,symmetry,Tvc14wSGOJWiE66kfAv48nj82aP2,symmetry-judgement-task,178,1125378,0.0-46.0-6.0-0.0-1.0-2.0,,,,,,,,,,1.0,1.0,,,,57732cfcda75d30001487571,21:27:56,03/04/2024
,"<div style=""font-size: 10rem; color: #0000FF"">L</div>",,ospan,letter,Tvc14wSGOJWiE66kfAv48nj82aP2,html-keyboard-response,179,1126381,0.0-46.0-6.0-0.0-1.0-3.0,,,,,,,,,,,,,,,57732cfcda75d30001487571,21:27:56,03/04/2024
836.0,,,ospan,symmetry,Tvc14wSGOJWiE66kfAv48nj82aP2,symmetry-judgement-task,180,1129245,0.0-46.0-6.0-0.0-1.0-4.0,,,,,,,,,,1.0,1.0,,,,57732cfcda75d30001487571,21:27:56,03/04/2024
,"<div style=""font-size: 10rem; color: #0000FF"">Q</div>",,ospan,letter,Tvc14wSGOJWiE66kfAv48nj82aP2,html-keyboard-response,181,1130252,0.0-46.0-6.0-0.0-1.0-5.0,,,,,,,,,,,,,,,57732cfcda75d30001487571,21:27:56,03/04/2024
1005.0,,,ospan,symmetry,Tvc14wSGOJWiE66kfAv48nj82aP2,symmetry-judgement-task,182,1133279,0.0-46.0-6.0-0.0-1.0-6.0,,,,,,,,,,1.0,1.0,,,,57732cfcda75d30001487571,21:27:56,03/04/2024
,"<div style=""font-size: 10rem; color: #0000FF"">N</div>",,ospan,letter,Tvc14wSGOJWiE66kfAv48nj82aP2,html-keyboard-response,183,1134285,0.0-46.0-6.0-0.0-1.0-7.0,,,,,,,,,,,,,,,57732cfcda75d30001487571,21:27:56,03/04/2024
1021.0,,,ospan,symmetry,Tvc14wSGOJWiE66kfAv48nj82aP2,symmetry-judgement-task,184,1137329,0.0-46.0-6.0-0.0-1.0-8.0,,,,,,,,,,1.0,1.0,,,,57732cfcda75d30001487571,21:27:56,03/04/2024
,"<div style=""font-size: 10rem; color: #0000FF"">K</div>",,ospan,letter,Tvc14wSGOJWiE66kfAv48nj82aP2,html-keyboard-response,185,1138343,0.0-46.0-6.0-0.0-1.0-9.0,,,,,,,,,,,,,,,57732cfcda75d30001487571,21:27:56,03/04/2024
4676.399999976158,"<div class = numbox><p style=""font-size: 2.4rem"">Please recall the letters you saw to the best of your ability. If you do not remember a particular letter, use the SKIP button.<br><b>(When you are ready to lock in your answer, press ENTER)</b></p><button id = button_1 class = ""square num-button"" onclick = ""recordClick(this)""><div class = content><div class = numbers>C</div></div></button><button id = button_2 class = ""square num-button"" onclick = ""recordClick(this)""><div class = content><div class = numbers>G</div></div></button><button id = button_3 class = ""square num-button"" onclick = ""recordClick(this)""><div class = content><div class = numbers>H</div></div></button><button id = button_4 class = ""square num-button"" onclick = ""recordClick(this)""><div class = content><div class = numbers>J</div></div></button><button id = button_5 class = ""square num-button"" onclick = ""recordClick(this)""><div class = content><div class = numbers>K</div></div></button><button id = button_6 class = ""square num-button"" onclick = ""recordClick(this)""><div class = content><div class = numbers>L</div></div></button><button id = button_7 class = ""square num-button"" onclick = ""recordClick(this)""><div class = content><div class = numbers>N</div></div></button><button id = button_8 class = ""square num-button"" onclick = ""recordClick(this)""><div class = content><div class = numbers>P</div></div></button><button id = button_9 class = ""square num-button"" onclick = ""recordClick(this)""><div class = content><div class = numbers>Q</div></div></button><button id = button_10 class = ""square num-button"" onclick = ""recordClick(this)""><div class = content><div class = numbers>R</div></div></button><button id = button_11 class = ""square num-button"" onclick = ""recordClick(this)""><div class = content><div class = numbers>S</div></div></button><button id = button_12 class = ""square num-button"" onclick = ""recordClick(this)""><div class = content><div class = numbers>Y</div></div></button><button class = clear_button id = ""ClearButton"" onclick = ""clearResponse()"">BACKSPACE</button><button class = blank_button id = ""BlankButton"" onclick = ""blankResponse()"">SKIP</button><p style=""font-size: 2.4rem""><u><b>Current Answer:</b></u></p><br><br><div id=echoed_txt style=""font-size: 5rem; color:blue;""><b></b></div></div>",enter,ospan,retrieval,Tvc14wSGOJWiE66kfAv48nj82aP2,html-keyboard-response,186,1143778,0.0-46.0-6.0-0.0-2.0,33,33,33,5.0,"[""C"",""L"",""Q"",""N"",""K""]","[""C"",""L"",""Q"",""N"",""K""]",1.0,5.0,,,,,,,57732cfcda75d30001487571,21:27:56,03/04/2024
1008.4000000953674,[''],0,ospan,feedback,Tvc14wSGOJWiE66kfAv48nj82aP2,html-button-response,187,1145295,0.0-46.0-6.0-0.0-3.0,,,,,,,,,,,,100.0,0.0,,57732cfcda75d30001487571,21:27:56,03/04/2024
,"<p style=""font-size:75px;"">...</p>",,ospan,iti,Tvc14wSGOJWiE66kfAv48nj82aP2,html-keyboard-response,188,1146310,0.0-46.0-6.0-1.0-0.0,,,,,,,,,,,,,,,57732cfcda75d30001487571,21:27:56,03/04/2024
1375.0,,,ospan,symmetry,Tvc14wSGOJWiE66kfAv48nj82aP2,symmetry-judgement-task,189,1149005,0.0-46.0-6.0-1.0-1.0-0.0,,,,,,,,,,1.0,1.0,,,,57732cfcda75d30001487571,21:27:56,03/04/2024
,"<div style=""font-size: 10rem; color: #0000FF"">S</div>",,ospan,letter,Tvc14wSGOJWiE66kfAv48nj82aP2,html-keyboard-response,190,1150014,0.0-46.0-6.0-1.0-1.0-1.0,,,,,,,,,,,,,,,57732cfcda75d30001487571,21:27:56,03/04/2024
938.0,,,ospan,symmetry,Tvc14wSGOJWiE66kfAv48nj82aP2,symmetry-judgement-task,191,1152981,0.0-46.0-6.0-1.0-1.0-2.0,,,,,,,,,,1.0,1.0,,,,57732cfcda75d30001487571,21:27:56,03/04/2024
,"<div style=""font-size: 10rem; color: #0000FF"">L</div>",,ospan,letter,Tvc14wSGOJWiE66kfAv48nj82aP2,html-keyboard-response,192,1153995,0.0-46.0-6.0-1.0-1.0-3.0,,,,,,,,,,,,,,,57732cfcda75d30001487571,21:27:56,03/04/2024
788.0,,,ospan,symmetry,Tvc14wSGOJWiE66kfAv48nj82aP2,symmetry-judgement-task,193,1156845,0.0-46.0-6.0-1.0-1.0-4.0,,,,,,,,,,1.0,1.0,,,,57732cfcda75d30001487571,21:27:56,03/04/2024
,"<div style=""font-size: 10rem; color: #0000FF"">P</div>",,ospan,letter,Tvc14wSGOJWiE66kfAv48nj82aP2,html-keyboard-response,194,1157852,0.0-46.0-6.0-1.0-1.0-5.0,,,,,,,,,,,,,,,57732cfcda75d30001487571,21:27:56,03/04/2024
923.0,,,ospan,symmetry,Tvc14wSGOJWiE66kfAv48nj82aP2,symmetry-judgement-task,195,1160810,0.0-46.0-6.0-1.0-1.0-6.0,,,,,,,,,,1.0,1.0,,,,57732cfcda75d30001487571,21:27:56,03/04/2024
,"<div style=""font-size: 10rem; color: #0000FF"">G</div>",,ospan,letter,Tvc14wSGOJWiE66kfAv48nj82aP2,html-keyboard-response,196,1161819,0.0-46.0-6.0-1.0-1.0-7.0,,,,,,,,,,,,,,,57732cfcda75d30001487571,21:27:56,03/04/2024
1035.0,,,ospan,symmetry,Tvc14wSGOJWiE66kfAv48nj82aP2,symmetry-judgement-task,197,1164887,0.0-46.0-6.0-1.0-1.0-8.0,,,,,,,,,,1.0,1.0,,,,57732cfcda75d30001487571,21:27:56,03/04/2024
,"<div style=""font-size: 10rem; color: #0000FF"">H</div>",,ospan,letter,Tvc14wSGOJWiE66kfAv48nj82aP2,html-keyboard-response,198,1165902,0.0-46.0-6.0-1.0-1.0-9.0,,,,,,,,,,,,,,,57732cfcda75d30001487571,21:27:56,03/04/2024
965.0,,,ospan,symmetry,Tvc14wSGOJWiE66kfAv48nj82aP2,symmetry-judgement-task,199,1168913,0.0-46.0-6.0-1.0-1.0-10.0,,,,,,,,,,1.0,1.0,,,,57732cfcda75d30001487571,21:27:56,03/04/2024
,"<div style=""font-size: 10rem; color: #0000FF"">N</div>",,ospan,letter,Tvc14wSGOJWiE66kfAv48nj82aP2,html-keyboard-response,200,1169920,0.0-46.0-6.0-1.0-1.0-11.0,,,,,,,,,,,,,,,57732cfcda75d30001487571,21:27:56,03/04/2024
1056.0,,,ospan,symmetry,Tvc14wSGOJWiE66kfAv48nj82aP2,symmetry-judgement-task,201,1173021,0.0-46.0-6.0-1.0-1.0-12.0,,,,,,,,,,1.0,1.0,,,,57732cfcda75d30001487571,21:27:56,03/04/2024
,"<div style=""font-size: 10rem; color: #0000FF"">J</div>",,ospan,letter,Tvc14wSGOJWiE66kfAv48nj82aP2,html-keyboard-response,202,1174029,0.0-46.0-6.0-1.0-1.0-13.0,,,,,,,,,,,,,,,57732cfcda75d30001487571,21:27:56,03/04/2024
1706.0,,,ospan,symmetry,Tvc14wSGOJWiE66kfAv48nj82aP2,symmetry-judgement-task,203,1177765,0.0-46.0-6.0-1.0-1.0-14.0,,,,,,,,,,1.0,1.0,,,,57732cfcda75d30001487571,21:27:56,03/04/2024
,"<div style=""font-size: 10rem; color: #0000FF"">K</div>",,ospan,letter,Tvc14wSGOJWiE66kfAv48nj82aP2,html-keyboard-response,204,1178773,0.0-46.0-6.0-1.0-1.0-15.0,,,,,,,,,,,,,,,57732cfcda75d30001487571,21:27:56,03/04/2024
15646.299999952316,"<div class = numbox><p style=""font-size: 2.4rem"">Please recall the letters you saw to the best of your ability. If you do not remember a particular letter, use the SKIP button.<br><b>(When you are ready to lock in your answer, press ENTER)</b></p><button id = button_1 class = ""square num-button"" onclick = ""recordClick(this)""><div class = content><div class = numbers>C</div></div></button><button id = button_2 class = ""square num-button"" onclick = ""recordClick(this)""><div class = content><div class = numbers>G</div></div></button><button id = button_3 class = ""square num-button"" onclick = ""recordClick(this)""><div class = content><div class = numbers>H</div></div></button><button id = button_4 class = ""square num-button"" onclick = ""recordClick(this)""><div class = content><div class = numbers>J</div></div></button><button id = button_5 class = ""square num-button"" onclick = ""recordClick(this)""><div class = content><div class = numbers>K</div></div></button><button id = button_6 class = ""square num-button"" onclick = ""recordClick(this)""><div class = content><div class = numbers>L</div></div></button><button id = button_7 class = ""square num-button"" onclick = ""recordClick(this)""><div class = content><div class = numbers>N</div></div></button><button id = button_8 class = ""square num-button"" onclick = ""recordClick(this)""><div class = content><div class = numbers>P</div></div></button><button id = button_9 class = ""square num-button"" onclick = ""recordClick(this)""><div class = content><div class = numbers>Q</div></div></button><button id = button_10 class = ""square num-button"" onclick = ""recordClick(this)""><div class = content><div class = numbers>R</div></div></button><button id = button_11 class = ""square num-button"" onclick = ""recordClick(this)""><div class = content><div class = numbers>S</div></div></button><button id = button_12 class = ""square num-button"" onclick = ""recordClick(this)""><div class = content><div class = numbers>Y</div></div></button><button class = clear_button id = ""ClearButton"" onclick = ""clearResponse()"">BACKSPACE</button><button class = blank_button id = ""BlankButton"" onclick = ""blankResponse()"">SKIP</button><p style=""font-size: 2.4rem""><u><b>Current Answer:</b></u></p><br><br><div id=echoed_txt style=""font-size: 5rem; color:blue;""><b></b></div></div>",enter,ospan,retrieval,Tvc14wSGOJWiE66kfAv48nj82aP2,html-keyboard-response,205,1195177,0.0-46.0-6.0-1.0-2.0,41,39,33,8.0,"[""S"",""L"",""P"",""G"",""H"",""N"",""K""]","[""S"",""L"",""P"",""G"",""H"",""N"",""J"",""K""]",0.0,6.0,,,,,,,57732cfcda75d30001487571,21:27:56,03/04/2024
711.8000000715256,[''],0,ospan,feedback,Tvc14wSGOJWiE66kfAv48nj82aP2,html-button-response,206,1196403,0.0-46.0-6.0-1.0-3.0,,,,,,,,,,,,100.0,0.0,,57732cfcda75d30001487571,21:27:56,03/04/2024
43960.299999952316,,{'Q0': 'It was clear. I enjoyed the task. There was nothing that I did not enjoy.'},ospan,survey_ospan,Tvc14wSGOJWiE66kfAv48nj82aP2,lmdlab-survey-text,207,1241126,0.0-46.0-7.0,,,,,,,,,,,,,,Tvc14wSGOJWiE66kfAv48nj82aP2,57732cfcda75d30001487571,21:27:56,03/04/2024
827.6999999284744,<p><p style='font-size: 3rem'>Great work!<br><br>This completes the symmetry and memory task.</p><br><br><br>,0,ospan,finish,Tvc14wSGOJWiE66kfAv48nj82aP2,html-button-response,208,1241960,0.0-46.0-8.0,41,39,33,,,,,,,,,100.0,,,57732cfcda75d30001487571,21:27:56,03/04/2024
