rt,stimulus,response,exp_name,exp_stage,subjectID,trial_type,trial_index,time_elapsed,internal_node_id,ospan_shown,ospan_total,ospan_abs,length,resp_actual,resp_correct,full_correct,num_correct,feedback,accuracy,correct,math_acc,math_warning,databaseID,prolificID,start_time,date
2298.7999999523163,<div class = 'left_align' style='font-size: 3.25rem; line-height: 1.3;'><p class = 'center_align'><b>Welcome to the Symmetry and Memory Task</b><br><br><br><br></p>Press 'continue' to show the instructions.<br><br><br><br></div>,0,ospan,instruct,hVfdsaCXpEU0HKlbgWY9zUQJRYk2,html-button-response,54,542122,0.0-46.0-0.0-0.0-0.0,,,,,,,,,,,,,,,5fe247ccdfcbb9dda902109d,19:05:44,03/04/2024
11303.599999904633,"<div class = 'left_align' style='font-size: 3.25rem; line-height: 1.3;'><p class = 'center_align'><b>Symmetry and Memory Task</b><br><br></p>In this task, you will try to memorize letters you see on the screen<br>while you also view black and white grid pictures.<br><br>In the next few minutes, you will have some practice to get you familiar<br>with how the task works.<br><br>It may be difficult sometimes, but please do not worry about making mistakes!<br><br>We will begin by practicing the letter part of the task.<br><br><br><br></div>",0,ospan,instruct,hVfdsaCXpEU0HKlbgWY9zUQJRYk2,html-button-response,55,553691,0.0-46.0-0.0-0.0-1.0,,,,,,,,,,,,,,,5fe247ccdfcbb9dda902109d,19:05:44,03/04/2024
11153.5,"<div class = 'left_align' style='font-size: 3.25rem; line-height: 1.3;'>For this practice part, letters will appear on the screen one at a time.<br><br>Try to remember each letter in the order presented.<br><br>After some letters have been shown, you will see a response screen. Your<br>goal is to report the letters you saw <b>in order</b>. If you do not remember<br>a particular letter, you will have the option to leave it blank.<br><br><br><br></div>",0,ospan,instruct,hVfdsaCXpEU0HKlbgWY9zUQJRYk2,html-button-response,56,565101,0.0-46.0-0.0-0.0-2.0,,,,,,,,,,,,,,,5fe247ccdfcbb9dda902109d,19:05:44,03/04/2024
3819.399999856949,"<div class = 'left_align' style='font-size: 3.25rem; line-height: 1.3;'>Remember, it is very important to get the letters in the same<br>order as you see them.<br><br>When you are ready, you may begin the letter practice.</div><br><br><br><br>",0,ospan,instruct,hVfdsaCXpEU0HKlbgWY9zUQJRYk2,html-button-response,57,569189,0.0-46.0-0.0-0.0-3.0,,,,,,,,,,,,,,,5fe247ccdfcbb9dda902109d,19:05:44,03/04/2024
,"<p style=""font-size:75px;"">...</p>",,ospan,iti,hVfdsaCXpEU0HKlbgWY9zUQJRYk2,html-keyboard-response,58,570454,0.0-46.0-0.0-1.0-0.0,,,,,,,,,,,,,,,5fe247ccdfcbb9dda902109d,19:05:44,03/04/2024
,"<div style=""font-size: 10rem; color: #0000FF"">S</div>",,ospan,letter,hVfdsaCXpEU0HKlbgWY9zUQJRYk2,html-keyboard-response,59,571462,0.0-46.0-0.0-1.0-1.0,,,,,,,,,,,,,,,5fe247ccdfcbb9dda902109d,19:05:44,03/04/2024
,"<div style=""font-size: 10rem; color: #0000FF"">J</div>",,ospan,letter,hVfdsaCXpEU0HKlbgWY9zUQJRYk2,html-keyboard-response,60,573231,0.0-46.0-0.0-1.0-2.0,,,,,,,,,,,,,,,5fe247ccdfcbb9dda902109d,19:05:44,03/04/2024
10911.599999904633,"<div class = numbox><p style=""font-size: 2.4rem"">Please recall the letters you saw to the best of your ability. If you do not remember a particular letter, use the SKIP button.<br><b>(When you are ready to lock in your answer, press ENTER)</b></p><button id = button_1 class = ""square num-button"" onclick = ""recordClick(this)""><div class = content><div class = numbers>C</div></div></button><button id = button_2 class = ""square num-button"" onclick = ""recordClick(this)""><div class = content><div class = numbers>G</div></div></button><button id = button_3 class = ""square num-button"" onclick = ""recordClick(this)""><div class = content><div class = numbers>H</div></div></button><button id = button_4 class = ""square num-button"" onclick = ""recordClick(this)""><div class = content><div class = numbers>J</div></div></button><button id = button_5 class = ""square num-button"" onclick = ""recordClick(this)""><div class = content><div class = numbers>K</div></div></button><button id = button_6 class = ""square num-button"" onclick = ""recordClick(this)""><div class = content><div class = numbers>L</div></div></button><button id = button_7 class = ""square num-button"" onclick = ""recordClick(this)""><div class = content><div class = numbers>N</div></div></button><button id = button_8 class = ""square num-button"" onclick = ""recordClick(this)""><div class = content><div class = numbers>P</div></div></button><button id = button_9 class = ""square num-button"" onclick = ""recordClick(this)""><div class = content><div class = numbers>Q</div></div></button><button id = button_10 class = ""square num-button"" onclick = ""recordClick(this)""><div class = content><div class = numbers>R</div></div></button><button id = button_11 class = ""square num-button"" onclick = ""recordClick(this)""><div class = content><div class = numbers>S</div></div></button><button id = button_12 class = ""square num-button"" onclick = ""recordClick(this)""><div class = content><div class = numbers>Y</div></div></button><button class = clear_button id = ""ClearButton"" onclick = ""clearResponse()"">BACKSPACE</button><button class = blank_button id = ""BlankButton"" onclick = ""blankResponse()"">SKIP</button><p style=""font-size: 2.4rem""><u><b>Current Answer:</b></u></p><br><br><div id=echoed_txt style=""font-size: 5rem; color:blue;""><b></b></div></div>",enter,ospan,retrieval,hVfdsaCXpEU0HKlbgWY9zUQJRYk2,html-keyboard-response,61,584897,0.0-46.0-0.0-1.0-3.0,NA,NA,NA,2.0,"[""S"",""J""]","[""S"",""J""]",1.0,2.0,"['<font color=""green"">S</font>', '<font color=""green"">J</font>']",,,,,,5fe247ccdfcbb9dda902109d,19:05:44,03/04/2024
2086.5,"['<p style=""font-size:44px"">Letters:<br><br><br><font color=""green"">S</font> <font color=""green"">J</font></p><br><br>']",0,ospan,practice_feedback,hVfdsaCXpEU0HKlbgWY9zUQJRYk2,html-button-response,62,587491,0.0-46.0-0.0-1.0-4.0,,,,,,,,,,,,,,,5fe247ccdfcbb9dda902109d,19:05:44,03/04/2024
,"<p style=""font-size:75px;"">...</p>",,ospan,iti,hVfdsaCXpEU0HKlbgWY9zUQJRYk2,html-keyboard-response,63,588506,0.0-46.0-0.0-2.0-0.0,,,,,,,,,,,,,,,5fe247ccdfcbb9dda902109d,19:05:44,03/04/2024
,"<div style=""font-size: 10rem; color: #0000FF"">Y</div>",,ospan,letter,hVfdsaCXpEU0HKlbgWY9zUQJRYk2,html-keyboard-response,64,589514,0.0-46.0-0.0-2.0-1.0,,,,,,,,,,,,,,,5fe247ccdfcbb9dda902109d,19:05:44,03/04/2024
,"<div style=""font-size: 10rem; color: #0000FF"">L</div>",,ospan,letter,hVfdsaCXpEU0HKlbgWY9zUQJRYk2,html-keyboard-response,65,591279,0.0-46.0-0.0-2.0-2.0,,,,,,,,,,,,,,,5fe247ccdfcbb9dda902109d,19:05:44,03/04/2024
,"<div style=""font-size: 10rem; color: #0000FF"">K</div>",,ospan,letter,hVfdsaCXpEU0HKlbgWY9zUQJRYk2,html-keyboard-response,66,593060,0.0-46.0-0.0-2.0-3.0,,,,,,,,,,,,,,,5fe247ccdfcbb9dda902109d,19:05:44,03/04/2024
5914.799999952316,"<div class = numbox><p style=""font-size: 2.4rem"">Please recall the letters you saw to the best of your ability. If you do not remember a particular letter, use the SKIP button.<br><b>(When you are ready to lock in your answer, press ENTER)</b></p><button id = button_1 class = ""square num-button"" onclick = ""recordClick(this)""><div class = content><div class = numbers>C</div></div></button><button id = button_2 class = ""square num-button"" onclick = ""recordClick(this)""><div class = content><div class = numbers>G</div></div></button><button id = button_3 class = ""square num-button"" onclick = ""recordClick(this)""><div class = content><div class = numbers>H</div></div></button><button id = button_4 class = ""square num-button"" onclick = ""recordClick(this)""><div class = content><div class = numbers>J</div></div></button><button id = button_5 class = ""square num-button"" onclick = ""recordClick(this)""><div class = content><div class = numbers>K</div></div></button><button id = button_6 class = ""square num-button"" onclick = ""recordClick(this)""><div class = content><div class = numbers>L</div></div></button><button id = button_7 class = ""square num-button"" onclick = ""recordClick(this)""><div class = content><div class = numbers>N</div></div></button><button id = button_8 class = ""square num-button"" onclick = ""recordClick(this)""><div class = content><div class = numbers>P</div></div></button><button id = button_9 class = ""square num-button"" onclick = ""recordClick(this)""><div class = content><div class = numbers>Q</div></div></button><button id = button_10 class = ""square num-button"" onclick = ""recordClick(this)""><div class = content><div class = numbers>R</div></div></button><button id = button_11 class = ""square num-button"" onclick = ""recordClick(this)""><div class = content><div class = numbers>S</div></div></button><button id = button_12 class = ""square num-button"" onclick = ""recordClick(this)""><div class = content><div class = numbers>Y</div></div></button><button class = clear_button id = ""ClearButton"" onclick = ""clearResponse()"">BACKSPACE</button><button class = blank_button id = ""BlankButton"" onclick = ""blankResponse()"">SKIP</button><p style=""font-size: 2.4rem""><u><b>Current Answer:</b></u></p><br><br><div id=echoed_txt style=""font-size: 5rem; color:blue;""><b></b></div></div>",enter,ospan,retrieval,hVfdsaCXpEU0HKlbgWY9zUQJRYk2,html-keyboard-response,67,599740,0.0-46.0-0.0-2.0-4.0,NA,NA,NA,3.0,"[""Y"",""L"",""K""]","[""Y"",""L"",""K""]",1.0,3.0,"['<font color=""green"">Y</font>', '<font color=""green"">L</font>', '<font color=""green"">K</font>']",,,,,,5fe247ccdfcbb9dda902109d,19:05:44,03/04/2024
2970.2999999523163,"['<p style=""font-size:44px"">Letters:<br><br><br><font color=""green"">Y</font> <font color=""green"">L</font> <font color=""green"">K</font></p><br><br>']",0,ospan,practice_feedback,hVfdsaCXpEU0HKlbgWY9zUQJRYk2,html-button-response,68,603222,0.0-46.0-0.0-2.0-5.0,,,,,,,,,,,,,,,5fe247ccdfcbb9dda902109d,19:05:44,03/04/2024
7030.799999952316,"<div class = 'left_align' style='font-size: 3.25rem; line-height: 1.3;'>Now you will practice doing the <b>symmetry judgment part</b> of the experiment.<br><br>A black and white grid picture will appear on the screen and you have to judge if it is <br>symmetrical or asymetrical.<br><br>A picture is 'mirror' symmetrical if its left half is identical to the right half when flipped.<br>Here are examples of a symmetrical and an asymetrical picture:<br><br><center><img src='Stimuli/img/symm_instructions_extra.png' style='height:420px; width:900'></img></center><br>To judge symmetry, imagine you were to fold each picture down the middle, like a book –<br>would the left half match the right half when folded onto each other?<br><br></div><br>",0,ospan,instruct,hVfdsaCXpEU0HKlbgWY9zUQJRYk2,html-button-response,69,610255,0.0-46.0-1.0-0.0-0.0,,,,,,,,,,,,,,,5fe247ccdfcbb9dda902109d,19:05:44,03/04/2024
10311.900000095367,"<div class = 'left_align' style='font-size: 3.25rem; line-height: 1.3;'>When you have viewed the picture and determined whether it is symmetrical or not,<br>you can <b>click the Yes or No button</b> below to answer.<br><br>If you take longer than 15 seconds, it will continue automatically<br>and record the answer as an error.</div><br>",0,ospan,instruct,hVfdsaCXpEU0HKlbgWY9zUQJRYk2,html-button-response,70,620827,0.0-46.0-1.0-0.0-1.0,,,,,,,,,,,,,,,5fe247ccdfcbb9dda902109d,19:05:44,03/04/2024
5876.900000095367,"<div class = 'left_align' style='font-size: 3.25rem; line-height: 1.3;'>It is <b>very</b> important that you make the symmetry judgment correctly.<br><br>It is also important that you try and judge the picture as quickly as you can.<br><br>When you are ready, click on the button below to try some practice problems.</div><br><br><br><br>",0,ospan,instruct,hVfdsaCXpEU0HKlbgWY9zUQJRYk2,html-button-response,71,626958,0.0-46.0-1.0-0.0-2.0,,,,,,,,,,,,,,,5fe247ccdfcbb9dda902109d,19:05:44,03/04/2024
4768.0,,,ospan,symmetry,hVfdsaCXpEU0HKlbgWY9zUQJRYk2,symmetry-judgement-task,72,632538,0.0-46.0-1.0-1.0-0.0,,,,,,,,,,1.0,1.0,,,,5fe247ccdfcbb9dda902109d,19:05:44,03/04/2024
,"<p style=""color:green; font-size: 35px"">Correct</p>",,ospan,feedback,hVfdsaCXpEU0HKlbgWY9zUQJRYk2,html-keyboard-response,73,633292,0.0-46.0-1.0-1.0-1.0,,,,,,,,,,,,,,,5fe247ccdfcbb9dda902109d,19:05:44,03/04/2024
2167.0,,,ospan,symmetry,hVfdsaCXpEU0HKlbgWY9zUQJRYk2,symmetry-judgement-task,74,638125,0.0-46.0-1.0-1.0-2.0,,,,,,,,,,1.0,1.0,,,,5fe247ccdfcbb9dda902109d,19:05:44,03/04/2024
,"<p style=""color:green; font-size: 35px"">Correct</p>",,ospan,feedback,hVfdsaCXpEU0HKlbgWY9zUQJRYk2,html-keyboard-response,75,638889,0.0-46.0-1.0-1.0-3.0,,,,,,,,,,,,,,,5fe247ccdfcbb9dda902109d,19:05:44,03/04/2024
1782.0,,,ospan,symmetry,hVfdsaCXpEU0HKlbgWY9zUQJRYk2,symmetry-judgement-task,76,643320,0.0-46.0-1.0-1.0-4.0,,,,,,,,,,1.0,1.0,,,,5fe247ccdfcbb9dda902109d,19:05:44,03/04/2024
,"<p style=""color:green; font-size: 35px"">Correct</p>",,ospan,feedback,hVfdsaCXpEU0HKlbgWY9zUQJRYk2,html-keyboard-response,77,644080,0.0-46.0-1.0-1.0-5.0,,,,,,,,,,,,,,,5fe247ccdfcbb9dda902109d,19:05:44,03/04/2024
1974.0,"<p style=""font-size: 3rem;"">You responded correctly on 3 of 3 symmetry judgments. Good job!</p><br><br>",0,ospan,practice,hVfdsaCXpEU0HKlbgWY9zUQJRYk2,html-button-response,78,648063,0.0-46.0-1.0-2.0,,,,,,,,,,,,,,,5fe247ccdfcbb9dda902109d,19:05:44,03/04/2024
19873.700000047684,"<div class = 'left_align' style='font-size: 3.25rem; line-height: 1.3;'>Now you will practice doing both parts of the experiment at the same time.<br><br>In the next practice set, you will be given one grid picture to judge.<br>Then letter will appear on the screen. Try to remember the letter.<br><br>It is <b>very important</b> to make the symmetry judgment as quickly and accurately as possible.<br><br>Just as before, once you have make the symmetry judgment, you can click Yes or No.<br><b>Note that you will no longer see Correct or Incorrect feedback.</div><br><br><br><br>",0,ospan,instruct,hVfdsaCXpEU0HKlbgWY9zUQJRYk2,html-button-response,79,668197,0.0-46.0-2.0-0.0-0.0,,,,,,,,,,,,,,,5fe247ccdfcbb9dda902109d,19:05:44,03/04/2024
12266.800000190735,"<div class = 'left_align' style='font-size: 3.25rem; line-height: 1.3;'>After the letter goes away, another grid picture will appear, and then<br>another letter.<br><br>At the end of each set of letters and grids, you will recall the letters to the best<br>of your ability. Remember, try your best to get the letters in the correct order.<br><br>It is important to <b>quickly</b> and <b>accurately</b> make the symmetry judgments.</div><br><br><br><br>",0,ospan,instruct,hVfdsaCXpEU0HKlbgWY9zUQJRYk2,html-button-response,80,680724,0.0-46.0-2.0-0.0-1.0,,,,,,,,,,,,,,,5fe247ccdfcbb9dda902109d,19:05:44,03/04/2024
19655.5,"<div class = 'left_align' style='font-size: 3.25rem; line-height: 1.3;'>On the feedback screen, if you are not doing well at the symmetry judgments,<br>you will also see a warning in the middle. This indicates your percent <br>correct for the grid pictures for the entire experiment.<br><br>It is <b>very</b> important for you to keep accuracy at least at 85%: <u>We can only use<br>data where the participant was at least 85% accurate on the judgments.</u> Therefore,<br> please try your best to perform well on the symmetry judgments, <b>at the same time</b><br>doing your best to recall as many letters as possible.<br><br>Click the button to try some practice problems.</div><br><br><br><br>",0,ospan,instruct,hVfdsaCXpEU0HKlbgWY9zUQJRYk2,html-button-response,81,700634,0.0-46.0-2.0-0.0-2.0,,,,,,,,,,,,,,,5fe247ccdfcbb9dda902109d,19:05:44,03/04/2024
,"<p style=""font-size:75px;"">...</p>",,ospan,iti,hVfdsaCXpEU0HKlbgWY9zUQJRYk2,html-keyboard-response,82,701899,0.0-46.0-2.0-1.0-0.0,,,,,,,,,,,,,,,5fe247ccdfcbb9dda902109d,19:05:44,03/04/2024
2390.0,,,ospan,symmetry,hVfdsaCXpEU0HKlbgWY9zUQJRYk2,symmetry-judgement-task,83,705468,0.0-46.0-2.0-1.0-1.0-0.0,,,,,,,,,,1.0,1.0,,,,5fe247ccdfcbb9dda902109d,19:05:44,03/04/2024
,"<div style=""font-size: 10rem; color: #0000FF"">K</div>",,ospan,letter,hVfdsaCXpEU0HKlbgWY9zUQJRYk2,html-keyboard-response,84,706485,0.0-46.0-2.0-1.0-1.0-1.0,,,,,,,,,,,,,,,5fe247ccdfcbb9dda902109d,19:05:44,03/04/2024
3147.0,,,ospan,symmetry,hVfdsaCXpEU0HKlbgWY9zUQJRYk2,symmetry-judgement-task,85,711510,0.0-46.0-2.0-1.0-1.0-2.0,,,,,,,,,,1.0,1.0,,,,5fe247ccdfcbb9dda902109d,19:05:44,03/04/2024
,"<div style=""font-size: 10rem; color: #0000FF"">R</div>",,ospan,letter,hVfdsaCXpEU0HKlbgWY9zUQJRYk2,html-keyboard-response,86,712521,0.0-46.0-2.0-1.0-1.0-3.0,,,,,,,,,,,,,,,5fe247ccdfcbb9dda902109d,19:05:44,03/04/2024
5542.0,,,ospan,symmetry,hVfdsaCXpEU0HKlbgWY9zUQJRYk2,symmetry-judgement-task,87,719958,0.0-46.0-2.0-1.0-1.0-4.0,,,,,,,,,,1.0,1.0,,,,5fe247ccdfcbb9dda902109d,19:05:44,03/04/2024
,"<div style=""font-size: 10rem; color: #0000FF"">L</div>",,ospan,letter,hVfdsaCXpEU0HKlbgWY9zUQJRYk2,html-keyboard-response,88,720961,0.0-46.0-2.0-1.0-1.0-5.0,,,,,,,,,,,,,,,5fe247ccdfcbb9dda902109d,19:05:44,03/04/2024
5079.199999809265,"<div class = numbox><p style=""font-size: 2.4rem"">Please recall the letters you saw to the best of your ability. If you do not remember a particular letter, use the SKIP button.<br><b>(When you are ready to lock in your answer, press ENTER)</b></p><button id = button_1 class = ""square num-button"" onclick = ""recordClick(this)""><div class = content><div class = numbers>C</div></div></button><button id = button_2 class = ""square num-button"" onclick = ""recordClick(this)""><div class = content><div class = numbers>G</div></div></button><button id = button_3 class = ""square num-button"" onclick = ""recordClick(this)""><div class = content><div class = numbers>H</div></div></button><button id = button_4 class = ""square num-button"" onclick = ""recordClick(this)""><div class = content><div class = numbers>J</div></div></button><button id = button_5 class = ""square num-button"" onclick = ""recordClick(this)""><div class = content><div class = numbers>K</div></div></button><button id = button_6 class = ""square num-button"" onclick = ""recordClick(this)""><div class = content><div class = numbers>L</div></div></button><button id = button_7 class = ""square num-button"" onclick = ""recordClick(this)""><div class = content><div class = numbers>N</div></div></button><button id = button_8 class = ""square num-button"" onclick = ""recordClick(this)""><div class = content><div class = numbers>P</div></div></button><button id = button_9 class = ""square num-button"" onclick = ""recordClick(this)""><div class = content><div class = numbers>Q</div></div></button><button id = button_10 class = ""square num-button"" onclick = ""recordClick(this)""><div class = content><div class = numbers>R</div></div></button><button id = button_11 class = ""square num-button"" onclick = ""recordClick(this)""><div class = content><div class = numbers>S</div></div></button><button id = button_12 class = ""square num-button"" onclick = ""recordClick(this)""><div class = content><div class = numbers>Y</div></div></button><button class = clear_button id = ""ClearButton"" onclick = ""clearResponse()"">BACKSPACE</button><button class = blank_button id = ""BlankButton"" onclick = ""blankResponse()"">SKIP</button><p style=""font-size: 2.4rem""><u><b>Current Answer:</b></u></p><br><br><div id=echoed_txt style=""font-size: 5rem; color:blue;""><b></b></div></div>",enter,ospan,retrieval,hVfdsaCXpEU0HKlbgWY9zUQJRYk2,html-keyboard-response,89,726800,0.0-46.0-2.0-1.0-2.0-0.0,NA,NA,NA,3.0,"[""K"",""R"",""L""]","[""K"",""R"",""L""]",1.0,3.0,"['<font color=""green"">K</font>', '<font color=""green"">R</font>', '<font color=""green"">L</font>']",,,,,,5fe247ccdfcbb9dda902109d,19:05:44,03/04/2024
1979.5999999046326,"['<p style=""font-size:44px"">Letters:<br><br><br><font color=""green"">K</font> <font color=""green"">R</font> <font color=""green"">L</font></p><br><br><p style=""font-size:30px"">Symmetry:<br><br><font color=""green"">100%</font></p><br><br>']",0,ospan,practice_feedback,hVfdsaCXpEU0HKlbgWY9zUQJRYk2,html-button-response,90,729288,0.0-46.0-2.0-1.0-2.0-1.0,,,,,,,,,,,,,,,5fe247ccdfcbb9dda902109d,19:05:44,03/04/2024
,"<p style=""font-size:75px;"">...</p>",,ospan,iti,hVfdsaCXpEU0HKlbgWY9zUQJRYk2,html-keyboard-response,91,730291,0.0-46.0-2.0-2.0-0.0,,,,,,,,,,,,,,,5fe247ccdfcbb9dda902109d,19:05:44,03/04/2024
4005.0,,,ospan,symmetry,hVfdsaCXpEU0HKlbgWY9zUQJRYk2,symmetry-judgement-task,92,735429,0.0-46.0-2.0-2.0-1.0-0.0,,,,,,,,,,1.0,1.0,,,,5fe247ccdfcbb9dda902109d,19:05:44,03/04/2024
,"<div style=""font-size: 10rem; color: #0000FF"">P</div>",,ospan,letter,hVfdsaCXpEU0HKlbgWY9zUQJRYk2,html-keyboard-response,93,736433,0.0-46.0-2.0-2.0-1.0-1.0,,,,,,,,,,,,,,,5fe247ccdfcbb9dda902109d,19:05:44,03/04/2024
2837.0,,,ospan,symmetry,hVfdsaCXpEU0HKlbgWY9zUQJRYk2,symmetry-judgement-task,94,741177,0.0-46.0-2.0-2.0-1.0-2.0,,,,,,,,,,1.0,1.0,,,,5fe247ccdfcbb9dda902109d,19:05:44,03/04/2024
,"<div style=""font-size: 10rem; color: #0000FF"">S</div>",,ospan,letter,hVfdsaCXpEU0HKlbgWY9zUQJRYk2,html-keyboard-response,95,742192,0.0-46.0-2.0-2.0-1.0-3.0,,,,,,,,,,,,,,,5fe247ccdfcbb9dda902109d,19:05:44,03/04/2024
2489.0,,,ospan,symmetry,hVfdsaCXpEU0HKlbgWY9zUQJRYk2,symmetry-judgement-task,96,746576,0.0-46.0-2.0-2.0-1.0-4.0,,,,,,,,,,1.0,1.0,,,,5fe247ccdfcbb9dda902109d,19:05:44,03/04/2024
,"<div style=""font-size: 10rem; color: #0000FF"">L</div>",,ospan,letter,hVfdsaCXpEU0HKlbgWY9zUQJRYk2,html-keyboard-response,97,747590,0.0-46.0-2.0-2.0-1.0-5.0,,,,,,,,,,,,,,,5fe247ccdfcbb9dda902109d,19:05:44,03/04/2024
3780.5,"<div class = numbox><p style=""font-size: 2.4rem"">Please recall the letters you saw to the best of your ability. If you do not remember a particular letter, use the SKIP button.<br><b>(When you are ready to lock in your answer, press ENTER)</b></p><button id = button_1 class = ""square num-button"" onclick = ""recordClick(this)""><div class = content><div class = numbers>C</div></div></button><button id = button_2 class = ""square num-button"" onclick = ""recordClick(this)""><div class = content><div class = numbers>G</div></div></button><button id = button_3 class = ""square num-button"" onclick = ""recordClick(this)""><div class = content><div class = numbers>H</div></div></button><button id = button_4 class = ""square num-button"" onclick = ""recordClick(this)""><div class = content><div class = numbers>J</div></div></button><button id = button_5 class = ""square num-button"" onclick = ""recordClick(this)""><div class = content><div class = numbers>K</div></div></button><button id = button_6 class = ""square num-button"" onclick = ""recordClick(this)""><div class = content><div class = numbers>L</div></div></button><button id = button_7 class = ""square num-button"" onclick = ""recordClick(this)""><div class = content><div class = numbers>N</div></div></button><button id = button_8 class = ""square num-button"" onclick = ""recordClick(this)""><div class = content><div class = numbers>P</div></div></button><button id = button_9 class = ""square num-button"" onclick = ""recordClick(this)""><div class = content><div class = numbers>Q</div></div></button><button id = button_10 class = ""square num-button"" onclick = ""recordClick(this)""><div class = content><div class = numbers>R</div></div></button><button id = button_11 class = ""square num-button"" onclick = ""recordClick(this)""><div class = content><div class = numbers>S</div></div></button><button id = button_12 class = ""square num-button"" onclick = ""recordClick(this)""><div class = content><div class = numbers>Y</div></div></button><button class = clear_button id = ""ClearButton"" onclick = ""clearResponse()"">BACKSPACE</button><button class = blank_button id = ""BlankButton"" onclick = ""blankResponse()"">SKIP</button><p style=""font-size: 2.4rem""><u><b>Current Answer:</b></u></p><br><br><div id=echoed_txt style=""font-size: 5rem; color:blue;""><b></b></div></div>",enter,ospan,retrieval,hVfdsaCXpEU0HKlbgWY9zUQJRYk2,html-keyboard-response,98,752135,0.0-46.0-2.0-2.0-2.0-0.0,NA,NA,NA,3.0,"[""P"",""S"",""L""]","[""P"",""S"",""L""]",1.0,3.0,"['<font color=""green"">P</font>', '<font color=""green"">S</font>', '<font color=""green"">L</font>']",,,,,,5fe247ccdfcbb9dda902109d,19:05:44,03/04/2024
1429.7999999523163,"['<p style=""font-size:44px"">Letters:<br><br><br><font color=""green"">P</font> <font color=""green"">S</font> <font color=""green"">L</font></p><br><br><p style=""font-size:30px"">Symmetry:<br><br><font color=""green"">100%</font></p><br><br>']",0,ospan,practice_feedback,hVfdsaCXpEU0HKlbgWY9zUQJRYk2,html-button-response,99,754071,0.0-46.0-2.0-2.0-2.0-1.0,,,,,,,,,,,,,,,5fe247ccdfcbb9dda902109d,19:05:44,03/04/2024
33003.59999990463,"<div class = 'left_align' style='font-size: 3rem; line-height: 1.3;'><b>Great work! That is the end of practice.</b><br><br>The real trials will look just like the practice trials you just completed.<br><br><u>Here, you will not see feedback</u>. First, you will see an grid picture to judge,<br>then a letter to remember. When the recall screen appears, report the letters in the<br>order presented. If you forget a letter, remember to use the <b>blank</b> button to move to the<br>next letter. Some of the sets will have more symmetry grids and letters than others.<br><br>It is important that you do your best on both the symmetry judgments and the letter recall<br>parts of the experiment. For for the symmetry judgments, try to work as <b>quickly</b> and <br>as <b>accurately</b> as possible. Remember to keep your symmetry accuracy at 85% or above.<br><br><b>For the letters, do NOT use any external aid (e.g., writing on paper, electronic device).</b><br><br>It is <u>very important</u> to our experiment to have a <b>true</b> view of your real performance.<br><br>Do not worry if you miss some when it gets hard! This task is meant to be very challenging!<br><br>Click the button to begin.</div><br><br><br><br>",0,ospan,starting_real_here,hVfdsaCXpEU0HKlbgWY9zUQJRYk2,html-button-response,100,787078,0.0-46.0-2.0-3.0,,,,,,,,,,,,,,,5fe247ccdfcbb9dda902109d,19:05:44,03/04/2024
,"<p style=""font-size:75px;"">...</p>",,ospan,iti,hVfdsaCXpEU0HKlbgWY9zUQJRYk2,html-keyboard-response,101,788354,0.0-46.0-3.0-0.0-0.0,,,,,,,,,,,,,,,5fe247ccdfcbb9dda902109d,19:05:44,03/04/2024
2605.0,,,ospan,symmetry,hVfdsaCXpEU0HKlbgWY9zUQJRYk2,symmetry-judgement-task,102,792125,0.0-46.0-3.0-0.0-1.0-0.0,,,,,,,,,,1.0,1.0,,,,5fe247ccdfcbb9dda902109d,19:05:44,03/04/2024
,"<div style=""font-size: 10rem; color: #0000FF"">Q</div>",,ospan,letter,hVfdsaCXpEU0HKlbgWY9zUQJRYk2,html-keyboard-response,103,793128,0.0-46.0-3.0-0.0-1.0-1.0,,,,,,,,,,,,,,,5fe247ccdfcbb9dda902109d,19:05:44,03/04/2024
4320.0,,,ospan,symmetry,hVfdsaCXpEU0HKlbgWY9zUQJRYk2,symmetry-judgement-task,104,799339,0.0-46.0-3.0-0.0-1.0-2.0,,,,,,,,,,1.0,1.0,,,,5fe247ccdfcbb9dda902109d,19:05:44,03/04/2024
,"<div style=""font-size: 10rem; color: #0000FF"">Y</div>",,ospan,letter,hVfdsaCXpEU0HKlbgWY9zUQJRYk2,html-keyboard-response,105,800352,0.0-46.0-3.0-0.0-1.0-3.0,,,,,,,,,,,,,,,5fe247ccdfcbb9dda902109d,19:05:44,03/04/2024
3439.0,,,ospan,symmetry,hVfdsaCXpEU0HKlbgWY9zUQJRYk2,symmetry-judgement-task,106,805683,0.0-46.0-3.0-0.0-1.0-4.0,,,,,,,,,,1.0,1.0,,,,5fe247ccdfcbb9dda902109d,19:05:44,03/04/2024
,"<div style=""font-size: 10rem; color: #0000FF"">G</div>",,ospan,letter,hVfdsaCXpEU0HKlbgWY9zUQJRYk2,html-keyboard-response,107,806695,0.0-46.0-3.0-0.0-1.0-5.0,,,,,,,,,,,,,,,5fe247ccdfcbb9dda902109d,19:05:44,03/04/2024
6945.0,"<div class = numbox><p style=""font-size: 2.4rem"">Please recall the letters you saw to the best of your ability. If you do not remember a particular letter, use the SKIP button.<br><b>(When you are ready to lock in your answer, press ENTER)</b></p><button id = button_1 class = ""square num-button"" onclick = ""recordClick(this)""><div class = content><div class = numbers>C</div></div></button><button id = button_2 class = ""square num-button"" onclick = ""recordClick(this)""><div class = content><div class = numbers>G</div></div></button><button id = button_3 class = ""square num-button"" onclick = ""recordClick(this)""><div class = content><div class = numbers>H</div></div></button><button id = button_4 class = ""square num-button"" onclick = ""recordClick(this)""><div class = content><div class = numbers>J</div></div></button><button id = button_5 class = ""square num-button"" onclick = ""recordClick(this)""><div class = content><div class = numbers>K</div></div></button><button id = button_6 class = ""square num-button"" onclick = ""recordClick(this)""><div class = content><div class = numbers>L</div></div></button><button id = button_7 class = ""square num-button"" onclick = ""recordClick(this)""><div class = content><div class = numbers>N</div></div></button><button id = button_8 class = ""square num-button"" onclick = ""recordClick(this)""><div class = content><div class = numbers>P</div></div></button><button id = button_9 class = ""square num-button"" onclick = ""recordClick(this)""><div class = content><div class = numbers>Q</div></div></button><button id = button_10 class = ""square num-button"" onclick = ""recordClick(this)""><div class = content><div class = numbers>R</div></div></button><button id = button_11 class = ""square num-button"" onclick = ""recordClick(this)""><div class = content><div class = numbers>S</div></div></button><button id = button_12 class = ""square num-button"" onclick = ""recordClick(this)""><div class = content><div class = numbers>Y</div></div></button><button class = clear_button id = ""ClearButton"" onclick = ""clearResponse()"">BACKSPACE</button><button class = blank_button id = ""BlankButton"" onclick = ""blankResponse()"">SKIP</button><p style=""font-size: 2.4rem""><u><b>Current Answer:</b></u></p><br><br><div id=echoed_txt style=""font-size: 5rem; color:blue;""><b></b></div></div>",enter,ospan,retrieval,hVfdsaCXpEU0HKlbgWY9zUQJRYk2,html-keyboard-response,108,814408,0.0-46.0-3.0-0.0-2.0,3,3,3,3.0,"[""Q"",""Y"",""G""]","[""Q"",""Y"",""G""]",1.0,3.0,,,,,,,5fe247ccdfcbb9dda902109d,19:05:44,03/04/2024
1296.5,[''],0,ospan,feedback,hVfdsaCXpEU0HKlbgWY9zUQJRYk2,html-button-response,109,816212,0.0-46.0-3.0-0.0-3.0,,,,,,,,,,,,100.0,0.0,,5fe247ccdfcbb9dda902109d,19:05:44,03/04/2024
,"<p style=""font-size:75px;"">...</p>",,ospan,iti,hVfdsaCXpEU0HKlbgWY9zUQJRYk2,html-keyboard-response,110,817222,0.0-46.0-4.0-0.0-0.0,,,,,,,,,,,,,,,5fe247ccdfcbb9dda902109d,19:05:44,03/04/2024
2634.0,,,ospan,symmetry,hVfdsaCXpEU0HKlbgWY9zUQJRYk2,symmetry-judgement-task,111,821007,0.0-46.0-4.0-0.0-1.0-0.0,,,,,,,,,,1.0,1.0,,,,5fe247ccdfcbb9dda902109d,19:05:44,03/04/2024
,"<div style=""font-size: 10rem; color: #0000FF"">S</div>",,ospan,letter,hVfdsaCXpEU0HKlbgWY9zUQJRYk2,html-keyboard-response,112,822017,0.0-46.0-4.0-0.0-1.0-1.0,,,,,,,,,,,,,,,5fe247ccdfcbb9dda902109d,19:05:44,03/04/2024
1837.0,,,ospan,symmetry,hVfdsaCXpEU0HKlbgWY9zUQJRYk2,symmetry-judgement-task,113,825747,0.0-46.0-4.0-0.0-1.0-2.0,,,,,,,,,,1.0,1.0,,,,5fe247ccdfcbb9dda902109d,19:05:44,03/04/2024
,"<div style=""font-size: 10rem; color: #0000FF"">Q</div>",,ospan,letter,hVfdsaCXpEU0HKlbgWY9zUQJRYk2,html-keyboard-response,114,826757,0.0-46.0-4.0-0.0-1.0-3.0,,,,,,,,,,,,,,,5fe247ccdfcbb9dda902109d,19:05:44,03/04/2024
2097.0,,,ospan,symmetry,hVfdsaCXpEU0HKlbgWY9zUQJRYk2,symmetry-judgement-task,115,830771,0.0-46.0-4.0-0.0-1.0-4.0,,,,,,,,,,1.0,1.0,,,,5fe247ccdfcbb9dda902109d,19:05:44,03/04/2024
,"<div style=""font-size: 10rem; color: #0000FF"">H</div>",,ospan,letter,hVfdsaCXpEU0HKlbgWY9zUQJRYk2,html-keyboard-response,116,831788,0.0-46.0-4.0-0.0-1.0-5.0,,,,,,,,,,,,,,,5fe247ccdfcbb9dda902109d,19:05:44,03/04/2024
4495.0,,,ospan,symmetry,hVfdsaCXpEU0HKlbgWY9zUQJRYk2,symmetry-judgement-task,117,838170,0.0-46.0-4.0-0.0-1.0-6.0,,,,,,,,,,1.0,1.0,,,,5fe247ccdfcbb9dda902109d,19:05:44,03/04/2024
,"<div style=""font-size: 10rem; color: #0000FF"">Y</div>",,ospan,letter,hVfdsaCXpEU0HKlbgWY9zUQJRYk2,html-keyboard-response,118,839181,0.0-46.0-4.0-0.0-1.0-7.0,,,,,,,,,,,,,,,5fe247ccdfcbb9dda902109d,19:05:44,03/04/2024
6601.0,"<div class = numbox><p style=""font-size: 2.4rem"">Please recall the letters you saw to the best of your ability. If you do not remember a particular letter, use the SKIP button.<br><b>(When you are ready to lock in your answer, press ENTER)</b></p><button id = button_1 class = ""square num-button"" onclick = ""recordClick(this)""><div class = content><div class = numbers>C</div></div></button><button id = button_2 class = ""square num-button"" onclick = ""recordClick(this)""><div class = content><div class = numbers>G</div></div></button><button id = button_3 class = ""square num-button"" onclick = ""recordClick(this)""><div class = content><div class = numbers>H</div></div></button><button id = button_4 class = ""square num-button"" onclick = ""recordClick(this)""><div class = content><div class = numbers>J</div></div></button><button id = button_5 class = ""square num-button"" onclick = ""recordClick(this)""><div class = content><div class = numbers>K</div></div></button><button id = button_6 class = ""square num-button"" onclick = ""recordClick(this)""><div class = content><div class = numbers>L</div></div></button><button id = button_7 class = ""square num-button"" onclick = ""recordClick(this)""><div class = content><div class = numbers>N</div></div></button><button id = button_8 class = ""square num-button"" onclick = ""recordClick(this)""><div class = content><div class = numbers>P</div></div></button><button id = button_9 class = ""square num-button"" onclick = ""recordClick(this)""><div class = content><div class = numbers>Q</div></div></button><button id = button_10 class = ""square num-button"" onclick = ""recordClick(this)""><div class = content><div class = numbers>R</div></div></button><button id = button_11 class = ""square num-button"" onclick = ""recordClick(this)""><div class = content><div class = numbers>S</div></div></button><button id = button_12 class = ""square num-button"" onclick = ""recordClick(this)""><div class = content><div class = numbers>Y</div></div></button><button class = clear_button id = ""ClearButton"" onclick = ""clearResponse()"">BACKSPACE</button><button class = blank_button id = ""BlankButton"" onclick = ""blankResponse()"">SKIP</button><p style=""font-size: 2.4rem""><u><b>Current Answer:</b></u></p><br><br><div id=echoed_txt style=""font-size: 5rem; color:blue;""><b></b></div></div>",enter,ospan,retrieval,hVfdsaCXpEU0HKlbgWY9zUQJRYk2,html-keyboard-response,119,846539,0.0-46.0-4.0-0.0-2.0,7,7,7,4.0,"[""S"",""Q"",""H"",""Y""]","[""S"",""Q"",""H"",""Y""]",1.0,4.0,,,,,,,5fe247ccdfcbb9dda902109d,19:05:44,03/04/2024
1125.5,[''],0,ospan,feedback,hVfdsaCXpEU0HKlbgWY9zUQJRYk2,html-button-response,120,848169,0.0-46.0-4.0-0.0-3.0,,,,,,,,,,,,100.0,0.0,,5fe247ccdfcbb9dda902109d,19:05:44,03/04/2024
,"<p style=""font-size:75px;"">...</p>",,ospan,iti,hVfdsaCXpEU0HKlbgWY9zUQJRYk2,html-keyboard-response,121,849182,0.0-46.0-4.0-1.0-0.0,,,,,,,,,,,,,,,5fe247ccdfcbb9dda902109d,19:05:44,03/04/2024
4053.0,,,ospan,symmetry,hVfdsaCXpEU0HKlbgWY9zUQJRYk2,symmetry-judgement-task,122,854374,0.0-46.0-4.0-1.0-1.0-0.0,,,,,,,,,,1.0,1.0,,,,5fe247ccdfcbb9dda902109d,19:05:44,03/04/2024
,"<div style=""font-size: 10rem; color: #0000FF"">R</div>",,ospan,letter,hVfdsaCXpEU0HKlbgWY9zUQJRYk2,html-keyboard-response,123,855380,0.0-46.0-4.0-1.0-1.0-1.0,,,,,,,,,,,,,,,5fe247ccdfcbb9dda902109d,19:05:44,03/04/2024
2145.0,,,ospan,symmetry,hVfdsaCXpEU0HKlbgWY9zUQJRYk2,symmetry-judgement-task,124,859437,0.0-46.0-4.0-1.0-1.0-2.0,,,,,,,,,,1.0,1.0,,,,5fe247ccdfcbb9dda902109d,19:05:44,03/04/2024
,"<div style=""font-size: 10rem; color: #0000FF"">L</div>",,ospan,letter,hVfdsaCXpEU0HKlbgWY9zUQJRYk2,html-keyboard-response,125,860444,0.0-46.0-4.0-1.0-1.0-3.0,,,,,,,,,,,,,,,5fe247ccdfcbb9dda902109d,19:05:44,03/04/2024
3517.0,,,ospan,symmetry,hVfdsaCXpEU0HKlbgWY9zUQJRYk2,symmetry-judgement-task,126,865859,0.0-46.0-4.0-1.0-1.0-4.0,,,,,,,,,,1.0,1.0,,,,5fe247ccdfcbb9dda902109d,19:05:44,03/04/2024
,"<div style=""font-size: 10rem; color: #0000FF"">C</div>",,ospan,letter,hVfdsaCXpEU0HKlbgWY9zUQJRYk2,html-keyboard-response,127,866872,0.0-46.0-4.0-1.0-1.0-5.0,,,,,,,,,,,,,,,5fe247ccdfcbb9dda902109d,19:05:44,03/04/2024
7380.0,,,ospan,symmetry,hVfdsaCXpEU0HKlbgWY9zUQJRYk2,symmetry-judgement-task,128,876168,0.0-46.0-4.0-1.0-1.0-6.0,,,,,,,,,,1.0,1.0,,,,5fe247ccdfcbb9dda902109d,19:05:44,03/04/2024
,"<div style=""font-size: 10rem; color: #0000FF"">J</div>",,ospan,letter,hVfdsaCXpEU0HKlbgWY9zUQJRYk2,html-keyboard-response,129,877173,0.0-46.0-4.0-1.0-1.0-7.0,,,,,,,,,,,,,,,5fe247ccdfcbb9dda902109d,19:05:44,03/04/2024
2335.0,,,ospan,symmetry,hVfdsaCXpEU0HKlbgWY9zUQJRYk2,symmetry-judgement-task,130,881405,0.0-46.0-4.0-1.0-1.0-8.0,,,,,,,,,,1.0,1.0,,,,5fe247ccdfcbb9dda902109d,19:05:44,03/04/2024
,"<div style=""font-size: 10rem; color: #0000FF"">N</div>",,ospan,letter,hVfdsaCXpEU0HKlbgWY9zUQJRYk2,html-keyboard-response,131,882417,0.0-46.0-4.0-1.0-1.0-9.0,,,,,,,,,,,,,,,5fe247ccdfcbb9dda902109d,19:05:44,03/04/2024
8860.200000047684,"<div class = numbox><p style=""font-size: 2.4rem"">Please recall the letters you saw to the best of your ability. If you do not remember a particular letter, use the SKIP button.<br><b>(When you are ready to lock in your answer, press ENTER)</b></p><button id = button_1 class = ""square num-button"" onclick = ""recordClick(this)""><div class = content><div class = numbers>C</div></div></button><button id = button_2 class = ""square num-button"" onclick = ""recordClick(this)""><div class = content><div class = numbers>G</div></div></button><button id = button_3 class = ""square num-button"" onclick = ""recordClick(this)""><div class = content><div class = numbers>H</div></div></button><button id = button_4 class = ""square num-button"" onclick = ""recordClick(this)""><div class = content><div class = numbers>J</div></div></button><button id = button_5 class = ""square num-button"" onclick = ""recordClick(this)""><div class = content><div class = numbers>K</div></div></button><button id = button_6 class = ""square num-button"" onclick = ""recordClick(this)""><div class = content><div class = numbers>L</div></div></button><button id = button_7 class = ""square num-button"" onclick = ""recordClick(this)""><div class = content><div class = numbers>N</div></div></button><button id = button_8 class = ""square num-button"" onclick = ""recordClick(this)""><div class = content><div class = numbers>P</div></div></button><button id = button_9 class = ""square num-button"" onclick = ""recordClick(this)""><div class = content><div class = numbers>Q</div></div></button><button id = button_10 class = ""square num-button"" onclick = ""recordClick(this)""><div class = content><div class = numbers>R</div></div></button><button id = button_11 class = ""square num-button"" onclick = ""recordClick(this)""><div class = content><div class = numbers>S</div></div></button><button id = button_12 class = ""square num-button"" onclick = ""recordClick(this)""><div class = content><div class = numbers>Y</div></div></button><button class = clear_button id = ""ClearButton"" onclick = ""clearResponse()"">BACKSPACE</button><button class = blank_button id = ""BlankButton"" onclick = ""blankResponse()"">SKIP</button><p style=""font-size: 2.4rem""><u><b>Current Answer:</b></u></p><br><br><div id=echoed_txt style=""font-size: 5rem; color:blue;""><b></b></div></div>",enter,ospan,retrieval,hVfdsaCXpEU0HKlbgWY9zUQJRYk2,html-keyboard-response,132,892029,0.0-46.0-4.0-1.0-2.0,12,12,12,5.0,"[""R"",""L"",""C"",""J"",""N""]","[""R"",""L"",""C"",""J"",""N""]",1.0,5.0,,,,,,,5fe247ccdfcbb9dda902109d,19:05:44,03/04/2024
1536.0999999046326,[''],0,ospan,feedback,hVfdsaCXpEU0HKlbgWY9zUQJRYk2,html-button-response,133,894070,0.0-46.0-4.0-1.0-3.0,,,,,,,,,,,,100.0,0.0,,5fe247ccdfcbb9dda902109d,19:05:44,03/04/2024
,"<p style=""font-size:75px;"">...</p>",,ospan,iti,hVfdsaCXpEU0HKlbgWY9zUQJRYk2,html-keyboard-response,134,895078,0.0-46.0-4.0-2.0-0.0,,,,,,,,,,,,,,,5fe247ccdfcbb9dda902109d,19:05:44,03/04/2024
2349.0,,,ospan,symmetry,hVfdsaCXpEU0HKlbgWY9zUQJRYk2,symmetry-judgement-task,135,898588,0.0-46.0-4.0-2.0-1.0-0.0,,,,,,,,,,1.0,1.0,,,,5fe247ccdfcbb9dda902109d,19:05:44,03/04/2024
,"<div style=""font-size: 10rem; color: #0000FF"">Q</div>",,ospan,letter,hVfdsaCXpEU0HKlbgWY9zUQJRYk2,html-keyboard-response,136,899594,0.0-46.0-4.0-2.0-1.0-1.0,,,,,,,,,,,,,,,5fe247ccdfcbb9dda902109d,19:05:44,03/04/2024
3398.0,,,ospan,symmetry,hVfdsaCXpEU0HKlbgWY9zUQJRYk2,symmetry-judgement-task,137,904901,0.0-46.0-4.0-2.0-1.0-2.0,,,,,,,,,,1.0,1.0,,,,5fe247ccdfcbb9dda902109d,19:05:44,03/04/2024
,"<div style=""font-size: 10rem; color: #0000FF"">K</div>",,ospan,letter,hVfdsaCXpEU0HKlbgWY9zUQJRYk2,html-keyboard-response,138,905915,0.0-46.0-4.0-2.0-1.0-3.0,,,,,,,,,,,,,,,5fe247ccdfcbb9dda902109d,19:05:44,03/04/2024
3620.0,,,ospan,symmetry,hVfdsaCXpEU0HKlbgWY9zUQJRYk2,symmetry-judgement-task,139,911446,0.0-46.0-4.0-2.0-1.0-4.0,,,,,,,,,,1.0,1.0,,,,5fe247ccdfcbb9dda902109d,19:05:44,03/04/2024
,"<div style=""font-size: 10rem; color: #0000FF"">R</div>",,ospan,letter,hVfdsaCXpEU0HKlbgWY9zUQJRYk2,html-keyboard-response,140,912455,0.0-46.0-4.0-2.0-1.0-5.0,,,,,,,,,,,,,,,5fe247ccdfcbb9dda902109d,19:05:44,03/04/2024
5108.0,"<div class = numbox><p style=""font-size: 2.4rem"">Please recall the letters you saw to the best of your ability. If you do not remember a particular letter, use the SKIP button.<br><b>(When you are ready to lock in your answer, press ENTER)</b></p><button id = button_1 class = ""square num-button"" onclick = ""recordClick(this)""><div class = content><div class = numbers>C</div></div></button><button id = button_2 class = ""square num-button"" onclick = ""recordClick(this)""><div class = content><div class = numbers>G</div></div></button><button id = button_3 class = ""square num-button"" onclick = ""recordClick(this)""><div class = content><div class = numbers>H</div></div></button><button id = button_4 class = ""square num-button"" onclick = ""recordClick(this)""><div class = content><div class = numbers>J</div></div></button><button id = button_5 class = ""square num-button"" onclick = ""recordClick(this)""><div class = content><div class = numbers>K</div></div></button><button id = button_6 class = ""square num-button"" onclick = ""recordClick(this)""><div class = content><div class = numbers>L</div></div></button><button id = button_7 class = ""square num-button"" onclick = ""recordClick(this)""><div class = content><div class = numbers>N</div></div></button><button id = button_8 class = ""square num-button"" onclick = ""recordClick(this)""><div class = content><div class = numbers>P</div></div></button><button id = button_9 class = ""square num-button"" onclick = ""recordClick(this)""><div class = content><div class = numbers>Q</div></div></button><button id = button_10 class = ""square num-button"" onclick = ""recordClick(this)""><div class = content><div class = numbers>R</div></div></button><button id = button_11 class = ""square num-button"" onclick = ""recordClick(this)""><div class = content><div class = numbers>S</div></div></button><button id = button_12 class = ""square num-button"" onclick = ""recordClick(this)""><div class = content><div class = numbers>Y</div></div></button><button class = clear_button id = ""ClearButton"" onclick = ""clearResponse()"">BACKSPACE</button><button class = blank_button id = ""BlankButton"" onclick = ""blankResponse()"">SKIP</button><p style=""font-size: 2.4rem""><u><b>Current Answer:</b></u></p><br><br><div id=echoed_txt style=""font-size: 5rem; color:blue;""><b></b></div></div>",enter,ospan,retrieval,hVfdsaCXpEU0HKlbgWY9zUQJRYk2,html-keyboard-response,141,918331,0.0-46.0-4.0-2.0-2.0,15,15,15,3.0,"[""Q"",""K"",""R""]","[""Q"",""K"",""R""]",1.0,3.0,,,,,,,5fe247ccdfcbb9dda902109d,19:05:44,03/04/2024
27014.0,[''],0,ospan,feedback,hVfdsaCXpEU0HKlbgWY9zUQJRYk2,html-button-response,142,945854,0.0-46.0-4.0-2.0-3.0,,,,,,,,,,,,100.0,0.0,,5fe247ccdfcbb9dda902109d,19:05:44,03/04/2024
,"<p style=""font-size:75px;"">...</p>",,ospan,iti,hVfdsaCXpEU0HKlbgWY9zUQJRYk2,html-keyboard-response,143,946873,0.0-46.0-5.0-0.0-0.0,,,,,,,,,,,,,,,5fe247ccdfcbb9dda902109d,19:05:44,03/04/2024
2012.0,,,ospan,symmetry,hVfdsaCXpEU0HKlbgWY9zUQJRYk2,symmetry-judgement-task,144,950051,0.0-46.0-5.0-0.0-1.0-0.0,,,,,,,,,,1.0,1.0,,,,5fe247ccdfcbb9dda902109d,19:05:44,03/04/2024
,"<div style=""font-size: 10rem; color: #0000FF"">N</div>",,ospan,letter,hVfdsaCXpEU0HKlbgWY9zUQJRYk2,html-keyboard-response,145,951067,0.0-46.0-5.0-0.0-1.0-1.0,,,,,,,,,,,,,,,5fe247ccdfcbb9dda902109d,19:05:44,03/04/2024
3960.0,,,ospan,symmetry,hVfdsaCXpEU0HKlbgWY9zUQJRYk2,symmetry-judgement-task,146,956944,0.0-46.0-5.0-0.0-1.0-2.0,,,,,,,,,,1.0,1.0,,,,5fe247ccdfcbb9dda902109d,19:05:44,03/04/2024
,"<div style=""font-size: 10rem; color: #0000FF"">Y</div>",,ospan,letter,hVfdsaCXpEU0HKlbgWY9zUQJRYk2,html-keyboard-response,147,957959,0.0-46.0-5.0-0.0-1.0-3.0,,,,,,,,,,,,,,,5fe247ccdfcbb9dda902109d,19:05:44,03/04/2024
3545.0,,,ospan,symmetry,hVfdsaCXpEU0HKlbgWY9zUQJRYk2,symmetry-judgement-task,148,963402,0.0-46.0-5.0-0.0-1.0-4.0,,,,,,,,,,1.0,1.0,,,,5fe247ccdfcbb9dda902109d,19:05:44,03/04/2024
,"<div style=""font-size: 10rem; color: #0000FF"">G</div>",,ospan,letter,hVfdsaCXpEU0HKlbgWY9zUQJRYk2,html-keyboard-response,149,964411,0.0-46.0-5.0-0.0-1.0-5.0,,,,,,,,,,,,,,,5fe247ccdfcbb9dda902109d,19:05:44,03/04/2024
2290.0,,,ospan,symmetry,hVfdsaCXpEU0HKlbgWY9zUQJRYk2,symmetry-judgement-task,150,968613,0.0-46.0-5.0-0.0-1.0-6.0,,,,,,,,,,1.0,1.0,,,,5fe247ccdfcbb9dda902109d,19:05:44,03/04/2024
,"<div style=""font-size: 10rem; color: #0000FF"">J</div>",,ospan,letter,hVfdsaCXpEU0HKlbgWY9zUQJRYk2,html-keyboard-response,151,969630,0.0-46.0-5.0-0.0-1.0-7.0,,,,,,,,,,,,,,,5fe247ccdfcbb9dda902109d,19:05:44,03/04/2024
2663.0,,,ospan,symmetry,hVfdsaCXpEU0HKlbgWY9zUQJRYk2,symmetry-judgement-task,152,974189,0.0-46.0-5.0-0.0-1.0-8.0,,,,,,,,,,1.0,1.0,,,,5fe247ccdfcbb9dda902109d,19:05:44,03/04/2024
,"<div style=""font-size: 10rem; color: #0000FF"">K</div>",,ospan,letter,hVfdsaCXpEU0HKlbgWY9zUQJRYk2,html-keyboard-response,153,975202,0.0-46.0-5.0-0.0-1.0-9.0,,,,,,,,,,,,,,,5fe247ccdfcbb9dda902109d,19:05:44,03/04/2024
3197.0,,,ospan,symmetry,hVfdsaCXpEU0HKlbgWY9zUQJRYk2,symmetry-judgement-task,154,980314,0.0-46.0-5.0-0.0-1.0-10.0,,,,,,,,,,1.0,1.0,,,,5fe247ccdfcbb9dda902109d,19:05:44,03/04/2024
,"<div style=""font-size: 10rem; color: #0000FF"">P</div>",,ospan,letter,hVfdsaCXpEU0HKlbgWY9zUQJRYk2,html-keyboard-response,155,981328,0.0-46.0-5.0-0.0-1.0-11.0,,,,,,,,,,,,,,,5fe247ccdfcbb9dda902109d,19:05:44,03/04/2024
13124.5,"<div class = numbox><p style=""font-size: 2.4rem"">Please recall the letters you saw to the best of your ability. If you do not remember a particular letter, use the SKIP button.<br><b>(When you are ready to lock in your answer, press ENTER)</b></p><button id = button_1 class = ""square num-button"" onclick = ""recordClick(this)""><div class = content><div class = numbers>C</div></div></button><button id = button_2 class = ""square num-button"" onclick = ""recordClick(this)""><div class = content><div class = numbers>G</div></div></button><button id = button_3 class = ""square num-button"" onclick = ""recordClick(this)""><div class = content><div class = numbers>H</div></div></button><button id = button_4 class = ""square num-button"" onclick = ""recordClick(this)""><div class = content><div class = numbers>J</div></div></button><button id = button_5 class = ""square num-button"" onclick = ""recordClick(this)""><div class = content><div class = numbers>K</div></div></button><button id = button_6 class = ""square num-button"" onclick = ""recordClick(this)""><div class = content><div class = numbers>L</div></div></button><button id = button_7 class = ""square num-button"" onclick = ""recordClick(this)""><div class = content><div class = numbers>N</div></div></button><button id = button_8 class = ""square num-button"" onclick = ""recordClick(this)""><div class = content><div class = numbers>P</div></div></button><button id = button_9 class = ""square num-button"" onclick = ""recordClick(this)""><div class = content><div class = numbers>Q</div></div></button><button id = button_10 class = ""square num-button"" onclick = ""recordClick(this)""><div class = content><div class = numbers>R</div></div></button><button id = button_11 class = ""square num-button"" onclick = ""recordClick(this)""><div class = content><div class = numbers>S</div></div></button><button id = button_12 class = ""square num-button"" onclick = ""recordClick(this)""><div class = content><div class = numbers>Y</div></div></button><button class = clear_button id = ""ClearButton"" onclick = ""clearResponse()"">BACKSPACE</button><button class = blank_button id = ""BlankButton"" onclick = ""blankResponse()"">SKIP</button><p style=""font-size: 2.4rem""><u><b>Current Answer:</b></u></p><br><br><div id=echoed_txt style=""font-size: 5rem; color:blue;""><b></b></div></div>",enter,ospan,retrieval,hVfdsaCXpEU0HKlbgWY9zUQJRYk2,html-keyboard-response,156,995218,0.0-46.0-5.0-0.0-2.0,21,21,21,6.0,"[""N"",""Y"",""G"",""J"",""K"",""P""]","[""N"",""Y"",""G"",""J"",""K"",""P""]",1.0,6.0,,,,,,,5fe247ccdfcbb9dda902109d,19:05:44,03/04/2024
1253.1000001430511,[''],0,ospan,feedback,hVfdsaCXpEU0HKlbgWY9zUQJRYk2,html-button-response,157,996990,0.0-46.0-5.0-0.0-3.0,,,,,,,,,,,,100.0,0.0,,5fe247ccdfcbb9dda902109d,19:05:44,03/04/2024
,"<p style=""font-size:75px;"">...</p>",,ospan,iti,hVfdsaCXpEU0HKlbgWY9zUQJRYk2,html-keyboard-response,158,998009,0.0-46.0-5.0-1.0-0.0,,,,,,,,,,,,,,,5fe247ccdfcbb9dda902109d,19:05:44,03/04/2024
2554.0,,,ospan,symmetry,hVfdsaCXpEU0HKlbgWY9zUQJRYk2,symmetry-judgement-task,159,1001728,0.0-46.0-5.0-1.0-1.0-0.0,,,,,,,,,,1.0,1.0,,,,5fe247ccdfcbb9dda902109d,19:05:44,03/04/2024
,"<div style=""font-size: 10rem; color: #0000FF"">H</div>",,ospan,letter,hVfdsaCXpEU0HKlbgWY9zUQJRYk2,html-keyboard-response,160,1002745,0.0-46.0-5.0-1.0-1.0-1.0,,,,,,,,,,,,,,,5fe247ccdfcbb9dda902109d,19:05:44,03/04/2024
3883.0,,,ospan,symmetry,hVfdsaCXpEU0HKlbgWY9zUQJRYk2,symmetry-judgement-task,161,1008525,0.0-46.0-5.0-1.0-1.0-2.0,,,,,,,,,,1.0,1.0,,,,5fe247ccdfcbb9dda902109d,19:05:44,03/04/2024
,"<div style=""font-size: 10rem; color: #0000FF"">R</div>",,ospan,letter,hVfdsaCXpEU0HKlbgWY9zUQJRYk2,html-keyboard-response,162,1009541,0.0-46.0-5.0-1.0-1.0-3.0,,,,,,,,,,,,,,,5fe247ccdfcbb9dda902109d,19:05:44,03/04/2024
3111.0,,,ospan,symmetry,hVfdsaCXpEU0HKlbgWY9zUQJRYk2,symmetry-judgement-task,163,1014536,0.0-46.0-5.0-1.0-1.0-4.0,,,,,,,,,,1.0,1.0,,,,5fe247ccdfcbb9dda902109d,19:05:44,03/04/2024
,"<div style=""font-size: 10rem; color: #0000FF"">N</div>",,ospan,letter,hVfdsaCXpEU0HKlbgWY9zUQJRYk2,html-keyboard-response,164,1015549,0.0-46.0-5.0-1.0-1.0-5.0,,,,,,,,,,,,,,,5fe247ccdfcbb9dda902109d,19:05:44,03/04/2024
1878.0,,,ospan,symmetry,hVfdsaCXpEU0HKlbgWY9zUQJRYk2,symmetry-judgement-task,165,1019315,0.0-46.0-5.0-1.0-1.0-6.0,,,,,,,,,,1.0,1.0,,,,5fe247ccdfcbb9dda902109d,19:05:44,03/04/2024
,"<div style=""font-size: 10rem; color: #0000FF"">G</div>",,ospan,letter,hVfdsaCXpEU0HKlbgWY9zUQJRYk2,html-keyboard-response,166,1020321,0.0-46.0-5.0-1.0-1.0-7.0,,,,,,,,,,,,,,,5fe247ccdfcbb9dda902109d,19:05:44,03/04/2024
1809.0,,,ospan,symmetry,hVfdsaCXpEU0HKlbgWY9zUQJRYk2,symmetry-judgement-task,167,1023924,0.0-46.0-5.0-1.0-1.0-8.0,,,,,,,,,,1.0,1.0,,,,5fe247ccdfcbb9dda902109d,19:05:44,03/04/2024
,"<div style=""font-size: 10rem; color: #0000FF"">P</div>",,ospan,letter,hVfdsaCXpEU0HKlbgWY9zUQJRYk2,html-keyboard-response,168,1024937,0.0-46.0-5.0-1.0-1.0-9.0,,,,,,,,,,,,,,,5fe247ccdfcbb9dda902109d,19:05:44,03/04/2024
1690.0,,,ospan,symmetry,hVfdsaCXpEU0HKlbgWY9zUQJRYk2,symmetry-judgement-task,169,1028514,0.0-46.0-5.0-1.0-1.0-10.0,,,,,,,,,,1.0,1.0,,,,5fe247ccdfcbb9dda902109d,19:05:44,03/04/2024
,"<div style=""font-size: 10rem; color: #0000FF"">L</div>",,ospan,letter,hVfdsaCXpEU0HKlbgWY9zUQJRYk2,html-keyboard-response,170,1029531,0.0-46.0-5.0-1.0-1.0-11.0,,,,,,,,,,,,,,,5fe247ccdfcbb9dda902109d,19:05:44,03/04/2024
2866.0,,,ospan,symmetry,hVfdsaCXpEU0HKlbgWY9zUQJRYk2,symmetry-judgement-task,171,1034303,0.0-46.0-5.0-1.0-1.0-12.0,,,,,,,,,,1.0,1.0,,,,5fe247ccdfcbb9dda902109d,19:05:44,03/04/2024
,"<div style=""font-size: 10rem; color: #0000FF"">K</div>",,ospan,letter,hVfdsaCXpEU0HKlbgWY9zUQJRYk2,html-keyboard-response,172,1035320,0.0-46.0-5.0-1.0-1.0-13.0,,,,,,,,,,,,,,,5fe247ccdfcbb9dda902109d,19:05:44,03/04/2024
12234.5,"<div class = numbox><p style=""font-size: 2.4rem"">Please recall the letters you saw to the best of your ability. If you do not remember a particular letter, use the SKIP button.<br><b>(When you are ready to lock in your answer, press ENTER)</b></p><button id = button_1 class = ""square num-button"" onclick = ""recordClick(this)""><div class = content><div class = numbers>C</div></div></button><button id = button_2 class = ""square num-button"" onclick = ""recordClick(this)""><div class = content><div class = numbers>G</div></div></button><button id = button_3 class = ""square num-button"" onclick = ""recordClick(this)""><div class = content><div class = numbers>H</div></div></button><button id = button_4 class = ""square num-button"" onclick = ""recordClick(this)""><div class = content><div class = numbers>J</div></div></button><button id = button_5 class = ""square num-button"" onclick = ""recordClick(this)""><div class = content><div class = numbers>K</div></div></button><button id = button_6 class = ""square num-button"" onclick = ""recordClick(this)""><div class = content><div class = numbers>L</div></div></button><button id = button_7 class = ""square num-button"" onclick = ""recordClick(this)""><div class = content><div class = numbers>N</div></div></button><button id = button_8 class = ""square num-button"" onclick = ""recordClick(this)""><div class = content><div class = numbers>P</div></div></button><button id = button_9 class = ""square num-button"" onclick = ""recordClick(this)""><div class = content><div class = numbers>Q</div></div></button><button id = button_10 class = ""square num-button"" onclick = ""recordClick(this)""><div class = content><div class = numbers>R</div></div></button><button id = button_11 class = ""square num-button"" onclick = ""recordClick(this)""><div class = content><div class = numbers>S</div></div></button><button id = button_12 class = ""square num-button"" onclick = ""recordClick(this)""><div class = content><div class = numbers>Y</div></div></button><button class = clear_button id = ""ClearButton"" onclick = ""clearResponse()"">BACKSPACE</button><button class = blank_button id = ""BlankButton"" onclick = ""blankResponse()"">SKIP</button><p style=""font-size: 2.4rem""><u><b>Current Answer:</b></u></p><br><br><div id=echoed_txt style=""font-size: 5rem; color:blue;""><b></b></div></div>",enter,ospan,retrieval,hVfdsaCXpEU0HKlbgWY9zUQJRYk2,html-keyboard-response,173,1048309,0.0-46.0-5.0-1.0-2.0,28,28,28,7.0,"[""H"",""R"",""N"",""G"",""P"",""L"",""K""]","[""H"",""R"",""N"",""G"",""P"",""L"",""K""]",1.0,7.0,,,,,,,5fe247ccdfcbb9dda902109d,19:05:44,03/04/2024
1047.0,[''],0,ospan,feedback,hVfdsaCXpEU0HKlbgWY9zUQJRYk2,html-button-response,174,1049866,0.0-46.0-5.0-1.0-3.0,,,,,,,,,,,,100.0,0.0,,5fe247ccdfcbb9dda902109d,19:05:44,03/04/2024
,"<p style=""font-size:75px;"">...</p>",,ospan,iti,hVfdsaCXpEU0HKlbgWY9zUQJRYk2,html-keyboard-response,175,1050877,0.0-46.0-6.0-0.0-0.0,,,,,,,,,,,,,,,5fe247ccdfcbb9dda902109d,19:05:44,03/04/2024
1743.0,,,ospan,symmetry,hVfdsaCXpEU0HKlbgWY9zUQJRYk2,symmetry-judgement-task,176,1053777,0.0-46.0-6.0-0.0-1.0-0.0,,,,,,,,,,1.0,1.0,,,,5fe247ccdfcbb9dda902109d,19:05:44,03/04/2024
,"<div style=""font-size: 10rem; color: #0000FF"">G</div>",,ospan,letter,hVfdsaCXpEU0HKlbgWY9zUQJRYk2,html-keyboard-response,177,1054784,0.0-46.0-6.0-0.0-1.0-1.0,,,,,,,,,,,,,,,5fe247ccdfcbb9dda902109d,19:05:44,03/04/2024
3082.0,,,ospan,symmetry,hVfdsaCXpEU0HKlbgWY9zUQJRYk2,symmetry-judgement-task,178,1059740,0.0-46.0-6.0-0.0-1.0-2.0,,,,,,,,,,1.0,1.0,,,,5fe247ccdfcbb9dda902109d,19:05:44,03/04/2024
,"<div style=""font-size: 10rem; color: #0000FF"">L</div>",,ospan,letter,hVfdsaCXpEU0HKlbgWY9zUQJRYk2,html-keyboard-response,179,1060753,0.0-46.0-6.0-0.0-1.0-3.0,,,,,,,,,,,,,,,5fe247ccdfcbb9dda902109d,19:05:44,03/04/2024
4229.0,,,ospan,symmetry,hVfdsaCXpEU0HKlbgWY9zUQJRYk2,symmetry-judgement-task,180,1066883,0.0-46.0-6.0-0.0-1.0-4.0,,,,,,,,,,1.0,1.0,,,,5fe247ccdfcbb9dda902109d,19:05:44,03/04/2024
,"<div style=""font-size: 10rem; color: #0000FF"">N</div>",,ospan,letter,hVfdsaCXpEU0HKlbgWY9zUQJRYk2,html-keyboard-response,181,1067902,0.0-46.0-6.0-0.0-1.0-5.0,,,,,,,,,,,,,,,5fe247ccdfcbb9dda902109d,19:05:44,03/04/2024
1970.0,,,ospan,symmetry,hVfdsaCXpEU0HKlbgWY9zUQJRYk2,symmetry-judgement-task,182,1071795,0.0-46.0-6.0-0.0-1.0-6.0,,,,,,,,,,1.0,1.0,,,,5fe247ccdfcbb9dda902109d,19:05:44,03/04/2024
,"<div style=""font-size: 10rem; color: #0000FF"">J</div>",,ospan,letter,hVfdsaCXpEU0HKlbgWY9zUQJRYk2,html-keyboard-response,183,1072805,0.0-46.0-6.0-0.0-1.0-7.0,,,,,,,,,,,,,,,5fe247ccdfcbb9dda902109d,19:05:44,03/04/2024
2956.0,,,ospan,symmetry,hVfdsaCXpEU0HKlbgWY9zUQJRYk2,symmetry-judgement-task,184,1077660,0.0-46.0-6.0-0.0-1.0-8.0,,,,,,,,,,1.0,1.0,,,,5fe247ccdfcbb9dda902109d,19:05:44,03/04/2024
,"<div style=""font-size: 10rem; color: #0000FF"">C</div>",,ospan,letter,hVfdsaCXpEU0HKlbgWY9zUQJRYk2,html-keyboard-response,185,1078667,0.0-46.0-6.0-0.0-1.0-9.0,,,,,,,,,,,,,,,5fe247ccdfcbb9dda902109d,19:05:44,03/04/2024
10061.099999904633,"<div class = numbox><p style=""font-size: 2.4rem"">Please recall the letters you saw to the best of your ability. If you do not remember a particular letter, use the SKIP button.<br><b>(When you are ready to lock in your answer, press ENTER)</b></p><button id = button_1 class = ""square num-button"" onclick = ""recordClick(this)""><div class = content><div class = numbers>C</div></div></button><button id = button_2 class = ""square num-button"" onclick = ""recordClick(this)""><div class = content><div class = numbers>G</div></div></button><button id = button_3 class = ""square num-button"" onclick = ""recordClick(this)""><div class = content><div class = numbers>H</div></div></button><button id = button_4 class = ""square num-button"" onclick = ""recordClick(this)""><div class = content><div class = numbers>J</div></div></button><button id = button_5 class = ""square num-button"" onclick = ""recordClick(this)""><div class = content><div class = numbers>K</div></div></button><button id = button_6 class = ""square num-button"" onclick = ""recordClick(this)""><div class = content><div class = numbers>L</div></div></button><button id = button_7 class = ""square num-button"" onclick = ""recordClick(this)""><div class = content><div class = numbers>N</div></div></button><button id = button_8 class = ""square num-button"" onclick = ""recordClick(this)""><div class = content><div class = numbers>P</div></div></button><button id = button_9 class = ""square num-button"" onclick = ""recordClick(this)""><div class = content><div class = numbers>Q</div></div></button><button id = button_10 class = ""square num-button"" onclick = ""recordClick(this)""><div class = content><div class = numbers>R</div></div></button><button id = button_11 class = ""square num-button"" onclick = ""recordClick(this)""><div class = content><div class = numbers>S</div></div></button><button id = button_12 class = ""square num-button"" onclick = ""recordClick(this)""><div class = content><div class = numbers>Y</div></div></button><button class = clear_button id = ""ClearButton"" onclick = ""clearResponse()"">BACKSPACE</button><button class = blank_button id = ""BlankButton"" onclick = ""blankResponse()"">SKIP</button><p style=""font-size: 2.4rem""><u><b>Current Answer:</b></u></p><br><br><div id=echoed_txt style=""font-size: 5rem; color:blue;""><b></b></div></div>",enter,ospan,retrieval,hVfdsaCXpEU0HKlbgWY9zUQJRYk2,html-keyboard-response,186,1089481,0.0-46.0-6.0-0.0-2.0,33,33,33,5.0,"[""G"",""L"",""N"",""J"",""C""]","[""G"",""L"",""N"",""J"",""C""]",1.0,5.0,,,,,,,5fe247ccdfcbb9dda902109d,19:05:44,03/04/2024
1121.4000000953674,[''],0,ospan,feedback,hVfdsaCXpEU0HKlbgWY9zUQJRYk2,html-button-response,187,1091117,0.0-46.0-6.0-0.0-3.0,,,,,,,,,,,,100.0,0.0,,5fe247ccdfcbb9dda902109d,19:05:44,03/04/2024
,"<p style=""font-size:75px;"">...</p>",,ospan,iti,hVfdsaCXpEU0HKlbgWY9zUQJRYk2,html-keyboard-response,188,1092138,0.0-46.0-6.0-1.0-0.0,,,,,,,,,,,,,,,5fe247ccdfcbb9dda902109d,19:05:44,03/04/2024
2827.0,,,ospan,symmetry,hVfdsaCXpEU0HKlbgWY9zUQJRYk2,symmetry-judgement-task,189,1096121,0.0-46.0-6.0-1.0-1.0-0.0,,,,,,,,,,1.0,1.0,,,,5fe247ccdfcbb9dda902109d,19:05:44,03/04/2024
,"<div style=""font-size: 10rem; color: #0000FF"">Y</div>",,ospan,letter,hVfdsaCXpEU0HKlbgWY9zUQJRYk2,html-keyboard-response,190,1097135,0.0-46.0-6.0-1.0-1.0-1.0,,,,,,,,,,,,,,,5fe247ccdfcbb9dda902109d,19:05:44,03/04/2024
1992.0,,,ospan,symmetry,hVfdsaCXpEU0HKlbgWY9zUQJRYk2,symmetry-judgement-task,191,1101022,0.0-46.0-6.0-1.0-1.0-2.0,,,,,,,,,,1.0,1.0,,,,5fe247ccdfcbb9dda902109d,19:05:44,03/04/2024
,"<div style=""font-size: 10rem; color: #0000FF"">C</div>",,ospan,letter,hVfdsaCXpEU0HKlbgWY9zUQJRYk2,html-keyboard-response,192,1102039,0.0-46.0-6.0-1.0-1.0-3.0,,,,,,,,,,,,,,,5fe247ccdfcbb9dda902109d,19:05:44,03/04/2024
2644.0,,,ospan,symmetry,hVfdsaCXpEU0HKlbgWY9zUQJRYk2,symmetry-judgement-task,193,1106582,0.0-46.0-6.0-1.0-1.0-4.0,,,,,,,,,,1.0,1.0,,,,5fe247ccdfcbb9dda902109d,19:05:44,03/04/2024
,"<div style=""font-size: 10rem; color: #0000FF"">K</div>",,ospan,letter,hVfdsaCXpEU0HKlbgWY9zUQJRYk2,html-keyboard-response,194,1107594,0.0-46.0-6.0-1.0-1.0-5.0,,,,,,,,,,,,,,,5fe247ccdfcbb9dda902109d,19:05:44,03/04/2024
3098.0,,,ospan,symmetry,hVfdsaCXpEU0HKlbgWY9zUQJRYk2,symmetry-judgement-task,195,1112586,0.0-46.0-6.0-1.0-1.0-6.0,,,,,,,,,,1.0,1.0,,,,5fe247ccdfcbb9dda902109d,19:05:44,03/04/2024
,"<div style=""font-size: 10rem; color: #0000FF"">P</div>",,ospan,letter,hVfdsaCXpEU0HKlbgWY9zUQJRYk2,html-keyboard-response,196,1113593,0.0-46.0-6.0-1.0-1.0-7.0,,,,,,,,,,,,,,,5fe247ccdfcbb9dda902109d,19:05:44,03/04/2024
4985.0,,,ospan,symmetry,hVfdsaCXpEU0HKlbgWY9zUQJRYk2,symmetry-judgement-task,197,1120484,0.0-46.0-6.0-1.0-1.0-8.0,,,,,,,,,,1.0,1.0,,,,5fe247ccdfcbb9dda902109d,19:05:44,03/04/2024
,"<div style=""font-size: 10rem; color: #0000FF"">S</div>",,ospan,letter,hVfdsaCXpEU0HKlbgWY9zUQJRYk2,html-keyboard-response,198,1121493,0.0-46.0-6.0-1.0-1.0-9.0,,,,,,,,,,,,,,,5fe247ccdfcbb9dda902109d,19:05:44,03/04/2024
2426.0,,,ospan,symmetry,hVfdsaCXpEU0HKlbgWY9zUQJRYk2,symmetry-judgement-task,199,1125812,0.0-46.0-6.0-1.0-1.0-10.0,,,,,,,,,,1.0,1.0,,,,5fe247ccdfcbb9dda902109d,19:05:44,03/04/2024
,"<div style=""font-size: 10rem; color: #0000FF"">G</div>",,ospan,letter,hVfdsaCXpEU0HKlbgWY9zUQJRYk2,html-keyboard-response,200,1126817,0.0-46.0-6.0-1.0-1.0-11.0,,,,,,,,,,,,,,,5fe247ccdfcbb9dda902109d,19:05:44,03/04/2024
6658.0,,,ospan,symmetry,hVfdsaCXpEU0HKlbgWY9zUQJRYk2,symmetry-judgement-task,201,1135381,0.0-46.0-6.0-1.0-1.0-12.0,,,,,,,,,,1.0,1.0,,,,5fe247ccdfcbb9dda902109d,19:05:44,03/04/2024
,"<div style=""font-size: 10rem; color: #0000FF"">J</div>",,ospan,letter,hVfdsaCXpEU0HKlbgWY9zUQJRYk2,html-keyboard-response,202,1136398,0.0-46.0-6.0-1.0-1.0-13.0,,,,,,,,,,,,,,,5fe247ccdfcbb9dda902109d,19:05:44,03/04/2024
3791.0,,,ospan,symmetry,hVfdsaCXpEU0HKlbgWY9zUQJRYk2,symmetry-judgement-task,203,1142062,0.0-46.0-6.0-1.0-1.0-14.0,,,,,,,,,,1.0,1.0,,,,5fe247ccdfcbb9dda902109d,19:05:44,03/04/2024
,"<div style=""font-size: 10rem; color: #0000FF"">H</div>",,ospan,letter,hVfdsaCXpEU0HKlbgWY9zUQJRYk2,html-keyboard-response,204,1143079,0.0-46.0-6.0-1.0-1.0-15.0,,,,,,,,,,,,,,,5fe247ccdfcbb9dda902109d,19:05:44,03/04/2024
30499.200000047684,"<div class = numbox><p style=""font-size: 2.4rem"">Please recall the letters you saw to the best of your ability. If you do not remember a particular letter, use the SKIP button.<br><b>(When you are ready to lock in your answer, press ENTER)</b></p><button id = button_1 class = ""square num-button"" onclick = ""recordClick(this)""><div class = content><div class = numbers>C</div></div></button><button id = button_2 class = ""square num-button"" onclick = ""recordClick(this)""><div class = content><div class = numbers>G</div></div></button><button id = button_3 class = ""square num-button"" onclick = ""recordClick(this)""><div class = content><div class = numbers>H</div></div></button><button id = button_4 class = ""square num-button"" onclick = ""recordClick(this)""><div class = content><div class = numbers>J</div></div></button><button id = button_5 class = ""square num-button"" onclick = ""recordClick(this)""><div class = content><div class = numbers>K</div></div></button><button id = button_6 class = ""square num-button"" onclick = ""recordClick(this)""><div class = content><div class = numbers>L</div></div></button><button id = button_7 class = ""square num-button"" onclick = ""recordClick(this)""><div class = content><div class = numbers>N</div></div></button><button id = button_8 class = ""square num-button"" onclick = ""recordClick(this)""><div class = content><div class = numbers>P</div></div></button><button id = button_9 class = ""square num-button"" onclick = ""recordClick(this)""><div class = content><div class = numbers>Q</div></div></button><button id = button_10 class = ""square num-button"" onclick = ""recordClick(this)""><div class = content><div class = numbers>R</div></div></button><button id = button_11 class = ""square num-button"" onclick = ""recordClick(this)""><div class = content><div class = numbers>S</div></div></button><button id = button_12 class = ""square num-button"" onclick = ""recordClick(this)""><div class = content><div class = numbers>Y</div></div></button><button class = clear_button id = ""ClearButton"" onclick = ""clearResponse()"">BACKSPACE</button><button class = blank_button id = ""BlankButton"" onclick = ""blankResponse()"">SKIP</button><p style=""font-size: 2.4rem""><u><b>Current Answer:</b></u></p><br><br><div id=echoed_txt style=""font-size: 5rem; color:blue;""><b></b></div></div>",enter,ospan,retrieval,hVfdsaCXpEU0HKlbgWY9zUQJRYk2,html-keyboard-response,205,1174332,0.0-46.0-6.0-1.0-2.0,41,34,33,8.0,"[""Y"",""J"",""S"",""K"",""P"",""J""]","[""Y"",""C"",""K"",""P"",""S"",""G"",""J"",""H""]",0.0,1.0,,,,,,,5fe247ccdfcbb9dda902109d,19:05:44,03/04/2024
1321.5,[''],0,ospan,feedback,hVfdsaCXpEU0HKlbgWY9zUQJRYk2,html-button-response,206,1176167,0.0-46.0-6.0-1.0-3.0,,,,,,,,,,,,100.0,0.0,,5fe247ccdfcbb9dda902109d,19:05:44,03/04/2024
18116.5,,{'Q0': 'I found it very difficult but i did my best.'},ospan,survey_ospan,hVfdsaCXpEU0HKlbgWY9zUQJRYk2,lmdlab-survey-text,207,1195045,0.0-46.0-7.0,,,,,,,,,,,,,,hVfdsaCXpEU0HKlbgWY9zUQJRYk2,5fe247ccdfcbb9dda902109d,19:05:44,03/04/2024
1629.7000000476837,<p><p style='font-size: 3rem'>Great work!<br><br>This completes the symmetry and memory task.</p><br><br><br>,0,ospan,finish,hVfdsaCXpEU0HKlbgWY9zUQJRYk2,html-button-response,208,1196679,0.0-46.0-8.0,41,34,33,,,,,,,,,100.0,,,5fe247ccdfcbb9dda902109d,19:05:44,03/04/2024
