rt,stimulus,response,exp_name,exp_stage,subjectID,trial_type,trial_index,time_elapsed,internal_node_id,ospan_shown,ospan_total,ospan_abs,length,resp_actual,resp_correct,full_correct,num_correct,feedback,accuracy,correct,math_acc,math_warning,databaseID,prolificID,start_time,date
2006.3999999994412,<div class = 'left_align' style='font-size: 3.25rem; line-height: 1.3;'><p class = 'center_align'><b>Welcome to the Symmetry and Memory Task</b><br><br><br><br></p>Press 'continue' to show the instructions.<br><br><br><br></div>,0,ospan,instruct,P8WuwouaqBcD1K3QJNHFiLdGIN93,html-button-response,51,1000092,0.0-43.0-0.0-0.0-0.0,,,,,,,,,,,,,,,65be5c84defe30b60960f46f,14:36:50,06/03/2024
9936.200000000186,"<div class = 'left_align' style='font-size: 3.25rem; line-height: 1.3;'><p class = 'center_align'><b>Symmetry and Memory Task</b><br><br></p>In this task, you will try to memorize letters you see on the screen<br>while you also view black and white grid pictures.<br><br>In the next few minutes, you will have some practice to get you familiar<br>with how the task works.<br><br>It may be difficult sometimes, but please do not worry about making mistakes!<br><br>We will begin by practicing the letter part of the task.<br><br><br><br></div>",0,ospan,instruct,P8WuwouaqBcD1K3QJNHFiLdGIN93,html-button-response,52,1010284,0.0-43.0-0.0-0.0-1.0,,,,,,,,,,,,,,,65be5c84defe30b60960f46f,14:36:50,06/03/2024
7841.0,"<div class = 'left_align' style='font-size: 3.25rem; line-height: 1.3;'>For this practice part, letters will appear on the screen one at a time.<br><br>Try to remember each letter in the order presented.<br><br>After some letters have been shown, you will see a response screen. Your<br>goal is to report the letters you saw <b>in order</b>. If you do not remember<br>a particular letter, you will have the option to leave it blank.<br><br><br><br></div>",0,ospan,instruct,P8WuwouaqBcD1K3QJNHFiLdGIN93,html-button-response,53,1018384,0.0-43.0-0.0-0.0-2.0,,,,,,,,,,,,,,,65be5c84defe30b60960f46f,14:36:50,06/03/2024
3137.5999999996275,"<div class = 'left_align' style='font-size: 3.25rem; line-height: 1.3;'>Remember, it is very important to get the letters in the same<br>order as you see them.<br><br>When you are ready, you may begin the letter practice.</div><br><br><br><br>",0,ospan,instruct,P8WuwouaqBcD1K3QJNHFiLdGIN93,html-button-response,54,1021783,0.0-43.0-0.0-0.0-3.0,,,,,,,,,,,,,,,65be5c84defe30b60960f46f,14:36:50,06/03/2024
,"<p style=""font-size:75px;"">...</p>",,ospan,iti,P8WuwouaqBcD1K3QJNHFiLdGIN93,html-keyboard-response,55,1023060,0.0-43.0-0.0-1.0-0.0,,,,,,,,,,,,,,,65be5c84defe30b60960f46f,14:36:50,06/03/2024
,"<div style=""font-size: 10rem; color: #0000FF"">N</div>",,ospan,letter,P8WuwouaqBcD1K3QJNHFiLdGIN93,html-keyboard-response,56,1024067,0.0-43.0-0.0-1.0-1.0,,,,,,,,,,,,,,,65be5c84defe30b60960f46f,14:36:50,06/03/2024
,"<div style=""font-size: 10rem; color: #0000FF"">H</div>",,ospan,letter,P8WuwouaqBcD1K3QJNHFiLdGIN93,html-keyboard-response,57,1025846,0.0-43.0-0.0-1.0-2.0,,,,,,,,,,,,,,,65be5c84defe30b60960f46f,14:36:50,06/03/2024
9671.600000000559,"<div class = numbox><p style=""font-size: 2.4rem"">Please recall the letters you saw to the best of your ability. If you do not remember a particular letter, use the SKIP button.<br><b>(When you are ready to lock in your answer, press ENTER)</b></p><button id = button_1 class = ""square num-button"" onclick = ""recordClick(this)""><div class = content><div class = numbers>C</div></div></button><button id = button_2 class = ""square num-button"" onclick = ""recordClick(this)""><div class = content><div class = numbers>G</div></div></button><button id = button_3 class = ""square num-button"" onclick = ""recordClick(this)""><div class = content><div class = numbers>H</div></div></button><button id = button_4 class = ""square num-button"" onclick = ""recordClick(this)""><div class = content><div class = numbers>J</div></div></button><button id = button_5 class = ""square num-button"" onclick = ""recordClick(this)""><div class = content><div class = numbers>K</div></div></button><button id = button_6 class = ""square num-button"" onclick = ""recordClick(this)""><div class = content><div class = numbers>L</div></div></button><button id = button_7 class = ""square num-button"" onclick = ""recordClick(this)""><div class = content><div class = numbers>N</div></div></button><button id = button_8 class = ""square num-button"" onclick = ""recordClick(this)""><div class = content><div class = numbers>P</div></div></button><button id = button_9 class = ""square num-button"" onclick = ""recordClick(this)""><div class = content><div class = numbers>Q</div></div></button><button id = button_10 class = ""square num-button"" onclick = ""recordClick(this)""><div class = content><div class = numbers>R</div></div></button><button id = button_11 class = ""square num-button"" onclick = ""recordClick(this)""><div class = content><div class = numbers>S</div></div></button><button id = button_12 class = ""square num-button"" onclick = ""recordClick(this)""><div class = content><div class = numbers>Y</div></div></button><button class = clear_button id = ""ClearButton"" onclick = ""clearResponse()"">BACKSPACE</button><button class = blank_button id = ""BlankButton"" onclick = ""blankResponse()"">SKIP</button><p style=""font-size: 2.4rem""><u><b>Current Answer:</b></u></p><br><br><div id=echoed_txt style=""font-size: 5rem; color:blue;""><b></b></div></div>",enter,ospan,retrieval,P8WuwouaqBcD1K3QJNHFiLdGIN93,html-keyboard-response,58,1036285,0.0-43.0-0.0-1.0-3.0,NA,NA,NA,2.0,"[""N"",""H""]","[""N"",""H""]",1.0,2.0,"['<font color=""green"">N</font>', '<font color=""green"">H</font>']",,,,,,65be5c84defe30b60960f46f,14:36:50,06/03/2024
3084.2999999998137,"['<p style=""font-size:44px"">Letters:<br><br><br><font color=""green"">N</font> <font color=""green"">H</font></p><br><br>']",0,ospan,practice_feedback,P8WuwouaqBcD1K3QJNHFiLdGIN93,html-button-response,59,1039887,0.0-43.0-0.0-1.0-4.0,,,,,,,,,,,,,,,65be5c84defe30b60960f46f,14:36:50,06/03/2024
,"<p style=""font-size:75px;"">...</p>",,ospan,iti,P8WuwouaqBcD1K3QJNHFiLdGIN93,html-keyboard-response,60,1040894,0.0-43.0-0.0-2.0-0.0,,,,,,,,,,,,,,,65be5c84defe30b60960f46f,14:36:50,06/03/2024
,"<div style=""font-size: 10rem; color: #0000FF"">C</div>",,ospan,letter,P8WuwouaqBcD1K3QJNHFiLdGIN93,html-keyboard-response,61,1041910,0.0-43.0-0.0-2.0-1.0,,,,,,,,,,,,,,,65be5c84defe30b60960f46f,14:36:50,06/03/2024
,"<div style=""font-size: 10rem; color: #0000FF"">G</div>",,ospan,letter,P8WuwouaqBcD1K3QJNHFiLdGIN93,html-keyboard-response,62,1043690,0.0-43.0-0.0-2.0-2.0,,,,,,,,,,,,,,,65be5c84defe30b60960f46f,14:36:50,06/03/2024
,"<div style=""font-size: 10rem; color: #0000FF"">H</div>",,ospan,letter,P8WuwouaqBcD1K3QJNHFiLdGIN93,html-keyboard-response,63,1045457,0.0-43.0-0.0-2.0-3.0,,,,,,,,,,,,,,,65be5c84defe30b60960f46f,14:36:50,06/03/2024
9975.0,"<div class = numbox><p style=""font-size: 2.4rem"">Please recall the letters you saw to the best of your ability. If you do not remember a particular letter, use the SKIP button.<br><b>(When you are ready to lock in your answer, press ENTER)</b></p><button id = button_1 class = ""square num-button"" onclick = ""recordClick(this)""><div class = content><div class = numbers>C</div></div></button><button id = button_2 class = ""square num-button"" onclick = ""recordClick(this)""><div class = content><div class = numbers>G</div></div></button><button id = button_3 class = ""square num-button"" onclick = ""recordClick(this)""><div class = content><div class = numbers>H</div></div></button><button id = button_4 class = ""square num-button"" onclick = ""recordClick(this)""><div class = content><div class = numbers>J</div></div></button><button id = button_5 class = ""square num-button"" onclick = ""recordClick(this)""><div class = content><div class = numbers>K</div></div></button><button id = button_6 class = ""square num-button"" onclick = ""recordClick(this)""><div class = content><div class = numbers>L</div></div></button><button id = button_7 class = ""square num-button"" onclick = ""recordClick(this)""><div class = content><div class = numbers>N</div></div></button><button id = button_8 class = ""square num-button"" onclick = ""recordClick(this)""><div class = content><div class = numbers>P</div></div></button><button id = button_9 class = ""square num-button"" onclick = ""recordClick(this)""><div class = content><div class = numbers>Q</div></div></button><button id = button_10 class = ""square num-button"" onclick = ""recordClick(this)""><div class = content><div class = numbers>R</div></div></button><button id = button_11 class = ""square num-button"" onclick = ""recordClick(this)""><div class = content><div class = numbers>S</div></div></button><button id = button_12 class = ""square num-button"" onclick = ""recordClick(this)""><div class = content><div class = numbers>Y</div></div></button><button class = clear_button id = ""ClearButton"" onclick = ""clearResponse()"">BACKSPACE</button><button class = blank_button id = ""BlankButton"" onclick = ""blankResponse()"">SKIP</button><p style=""font-size: 2.4rem""><u><b>Current Answer:</b></u></p><br><br><div id=echoed_txt style=""font-size: 5rem; color:blue;""><b></b></div></div>",enter,ospan,retrieval,P8WuwouaqBcD1K3QJNHFiLdGIN93,html-keyboard-response,64,1056199,0.0-43.0-0.0-2.0-4.0,NA,NA,NA,3.0,"[""C"",""G"",""H""]","[""C"",""G"",""H""]",1.0,3.0,"['<font color=""green"">C</font>', '<font color=""green"">G</font>', '<font color=""green"">H</font>']",,,,,,65be5c84defe30b60960f46f,14:36:50,06/03/2024
1840.9000000003725,"['<p style=""font-size:44px"">Letters:<br><br><br><font color=""green"">C</font> <font color=""green"">G</font> <font color=""green"">H</font></p><br><br>']",0,ospan,practice_feedback,P8WuwouaqBcD1K3QJNHFiLdGIN93,html-button-response,65,1058551,0.0-43.0-0.0-2.0-5.0,,,,,,,,,,,,,,,65be5c84defe30b60960f46f,14:36:50,06/03/2024
9690.0,"<div class = 'left_align' style='font-size: 3.25rem; line-height: 1.3;'>Now you will practice doing the <b>symmetry judgment part</b> of the experiment.<br><br>A black and white grid picture will appear on the screen and you have to judge if it is <br>symmetrical or asymetrical.<br><br>A picture is 'mirror' symmetrical if its left half is identical to the right half when flipped.<br>Here are examples of a symmetrical and an asymetrical picture:<br><br><center><img src='Stimuli/img/symm_instructions_extra.png' style='height:420px; width:900'></img></center><br>To judge symmetry, imagine you were to fold each picture down the middle, like a book –<br>would the left half match the right half when folded onto each other?<br><br></div><br>",0,ospan,instruct,P8WuwouaqBcD1K3QJNHFiLdGIN93,html-button-response,66,1068242,0.0-43.0-1.0-0.0-0.0,,,,,,,,,,,,,,,65be5c84defe30b60960f46f,14:36:50,06/03/2024
5811.200000000186,"<div class = 'left_align' style='font-size: 3.25rem; line-height: 1.3;'>When you have viewed the picture and determined whether it is symmetrical or not,<br>you can <b>click the Yes or No button</b> below to answer.<br><br>If you take longer than 15 seconds, it will continue automatically<br>and record the answer as an error.</div><br>",0,ospan,instruct,P8WuwouaqBcD1K3QJNHFiLdGIN93,html-button-response,67,1074315,0.0-43.0-1.0-0.0-1.0,,,,,,,,,,,,,,,65be5c84defe30b60960f46f,14:36:50,06/03/2024
4360.799999999814,"<div class = 'left_align' style='font-size: 3.25rem; line-height: 1.3;'>It is <b>very</b> important that you make the symmetry judgment correctly.<br><br>It is also important that you try and judge the picture as quickly as you can.<br><br>When you are ready, click on the button below to try some practice problems.</div><br><br><br><br>",0,ospan,instruct,P8WuwouaqBcD1K3QJNHFiLdGIN93,html-button-response,68,1078943,0.0-43.0-1.0-0.0-2.0,,,,,,,,,,,,,,,65be5c84defe30b60960f46f,14:36:50,06/03/2024
1973.0,,,ospan,symmetry,P8WuwouaqBcD1K3QJNHFiLdGIN93,symmetry-judgement-task,69,1081752,0.0-43.0-1.0-1.0-0.0,,,,,,,,,,1.0,1.0,,,,65be5c84defe30b60960f46f,14:36:50,06/03/2024
,"<p style=""color:green; font-size: 35px"">Correct</p>",,ospan,feedback,P8WuwouaqBcD1K3QJNHFiLdGIN93,html-keyboard-response,70,1082534,0.0-43.0-1.0-1.0-1.0,,,,,,,,,,,,,,,65be5c84defe30b60960f46f,14:36:50,06/03/2024
1343.0,,,ospan,symmetry,P8WuwouaqBcD1K3QJNHFiLdGIN93,symmetry-judgement-task,71,1086611,0.0-43.0-1.0-1.0-2.0,,,,,,,,,,1.0,1.0,,,,65be5c84defe30b60960f46f,14:36:50,06/03/2024
,"<p style=""color:green; font-size: 35px"">Correct</p>",,ospan,feedback,P8WuwouaqBcD1K3QJNHFiLdGIN93,html-keyboard-response,72,1087378,0.0-43.0-1.0-1.0-3.0,,,,,,,,,,,,,,,65be5c84defe30b60960f46f,14:36:50,06/03/2024
1075.0,,,ospan,symmetry,P8WuwouaqBcD1K3QJNHFiLdGIN93,symmetry-judgement-task,73,1091175,0.0-43.0-1.0-1.0-4.0,,,,,,,,,,1.0,1.0,,,,65be5c84defe30b60960f46f,14:36:50,06/03/2024
,"<p style=""color:green; font-size: 35px"">Correct</p>",,ospan,feedback,P8WuwouaqBcD1K3QJNHFiLdGIN93,html-keyboard-response,74,1091940,0.0-43.0-1.0-1.0-5.0,,,,,,,,,,,,,,,65be5c84defe30b60960f46f,14:36:50,06/03/2024
1584.1000000005588,"<p style=""font-size: 3rem;"">You responded correctly on 3 of 3 symmetry judgments. Good job!</p><br><br>",0,ospan,practice,P8WuwouaqBcD1K3QJNHFiLdGIN93,html-button-response,75,1095542,0.0-43.0-1.0-2.0,,,,,,,,,,,,,,,65be5c84defe30b60960f46f,14:36:50,06/03/2024
3020.7999999998137,"<div class = 'left_align' style='font-size: 3.25rem; line-height: 1.3;'>Now you will practice doing both parts of the experiment at the same time.<br><br>In the next practice set, you will be given one grid picture to judge.<br>Then letter will appear on the screen. Try to remember the letter.<br><br>It is <b>very important</b> to make the symmetry judgment as quickly and accurately as possible.<br><br>Just as before, once you have make the symmetry judgment, you can click Yes or No.<br><b>Note that you will no longer see Correct or Incorrect feedback.</div><br><br><br><br>",0,ospan,instruct,P8WuwouaqBcD1K3QJNHFiLdGIN93,html-button-response,76,1098823,0.0-43.0-2.0-0.0-0.0,,,,,,,,,,,,,,,65be5c84defe30b60960f46f,14:36:50,06/03/2024
1770.8999999994412,"<div class = 'left_align' style='font-size: 3.25rem; line-height: 1.3;'>After the letter goes away, another grid picture will appear, and then<br>another letter.<br><br>At the end of each set of letters and grids, you will recall the letters to the best<br>of your ability. Remember, try your best to get the letters in the correct order.<br><br>It is important to <b>quickly</b> and <b>accurately</b> make the symmetry judgments.</div><br><br><br><br>",0,ospan,instruct,P8WuwouaqBcD1K3QJNHFiLdGIN93,html-button-response,77,1100855,0.0-43.0-2.0-0.0-1.0,,,,,,,,,,,,,,,65be5c84defe30b60960f46f,14:36:50,06/03/2024
6900.700000000186,"<div class = 'left_align' style='font-size: 3.25rem; line-height: 1.3;'>On the feedback screen, if you are not doing well at the symmetry judgments,<br>you will also see a warning in the middle. This indicates your percent <br>correct for the grid pictures for the entire experiment.<br><br>It is <b>very</b> important for you to keep accuracy at least at 85%: <u>We can only use<br>data where the participant was at least 85% accurate on the judgments.</u> Therefore,<br> please try your best to perform well on the symmetry judgments, <b>at the same time</b><br>doing your best to recall as many letters as possible.<br><br>Click the button to try some practice problems.</div><br><br><br><br>",0,ospan,instruct,P8WuwouaqBcD1K3QJNHFiLdGIN93,html-button-response,78,1108014,0.0-43.0-2.0-0.0-2.0,,,,,,,,,,,,,,,65be5c84defe30b60960f46f,14:36:50,06/03/2024
,"<p style=""font-size:75px;"">...</p>",,ospan,iti,P8WuwouaqBcD1K3QJNHFiLdGIN93,html-keyboard-response,79,1109284,0.0-43.0-2.0-1.0-0.0,,,,,,,,,,,,,,,65be5c84defe30b60960f46f,14:36:50,06/03/2024
1660.0,,,ospan,symmetry,P8WuwouaqBcD1K3QJNHFiLdGIN93,symmetry-judgement-task,80,1112160,0.0-43.0-2.0-1.0-1.0-0.0,,,,,,,,,,1.0,1.0,,,,65be5c84defe30b60960f46f,14:36:50,06/03/2024
,"<div style=""font-size: 10rem; color: #0000FF"">K</div>",,ospan,letter,P8WuwouaqBcD1K3QJNHFiLdGIN93,html-keyboard-response,81,1113172,0.0-43.0-2.0-1.0-1.0-1.0,,,,,,,,,,,,,,,65be5c84defe30b60960f46f,14:36:50,06/03/2024
2205.0,,,ospan,symmetry,P8WuwouaqBcD1K3QJNHFiLdGIN93,symmetry-judgement-task,82,1117362,0.0-43.0-2.0-1.0-1.0-2.0,,,,,,,,,,1.0,1.0,,,,65be5c84defe30b60960f46f,14:36:50,06/03/2024
,"<div style=""font-size: 10rem; color: #0000FF"">Y</div>",,ospan,letter,P8WuwouaqBcD1K3QJNHFiLdGIN93,html-keyboard-response,83,1118377,0.0-43.0-2.0-1.0-1.0-3.0,,,,,,,,,,,,,,,65be5c84defe30b60960f46f,14:36:50,06/03/2024
1958.0,,,ospan,symmetry,P8WuwouaqBcD1K3QJNHFiLdGIN93,symmetry-judgement-task,84,1122290,0.0-43.0-2.0-1.0-1.0-4.0,,,,,,,,,,1.0,1.0,,,,65be5c84defe30b60960f46f,14:36:50,06/03/2024
,"<div style=""font-size: 10rem; color: #0000FF"">P</div>",,ospan,letter,P8WuwouaqBcD1K3QJNHFiLdGIN93,html-keyboard-response,85,1123299,0.0-43.0-2.0-1.0-1.0-5.0,,,,,,,,,,,,,,,65be5c84defe30b60960f46f,14:36:50,06/03/2024
5817.300000000745,"<div class = numbox><p style=""font-size: 2.4rem"">Please recall the letters you saw to the best of your ability. If you do not remember a particular letter, use the SKIP button.<br><b>(When you are ready to lock in your answer, press ENTER)</b></p><button id = button_1 class = ""square num-button"" onclick = ""recordClick(this)""><div class = content><div class = numbers>C</div></div></button><button id = button_2 class = ""square num-button"" onclick = ""recordClick(this)""><div class = content><div class = numbers>G</div></div></button><button id = button_3 class = ""square num-button"" onclick = ""recordClick(this)""><div class = content><div class = numbers>H</div></div></button><button id = button_4 class = ""square num-button"" onclick = ""recordClick(this)""><div class = content><div class = numbers>J</div></div></button><button id = button_5 class = ""square num-button"" onclick = ""recordClick(this)""><div class = content><div class = numbers>K</div></div></button><button id = button_6 class = ""square num-button"" onclick = ""recordClick(this)""><div class = content><div class = numbers>L</div></div></button><button id = button_7 class = ""square num-button"" onclick = ""recordClick(this)""><div class = content><div class = numbers>N</div></div></button><button id = button_8 class = ""square num-button"" onclick = ""recordClick(this)""><div class = content><div class = numbers>P</div></div></button><button id = button_9 class = ""square num-button"" onclick = ""recordClick(this)""><div class = content><div class = numbers>Q</div></div></button><button id = button_10 class = ""square num-button"" onclick = ""recordClick(this)""><div class = content><div class = numbers>R</div></div></button><button id = button_11 class = ""square num-button"" onclick = ""recordClick(this)""><div class = content><div class = numbers>S</div></div></button><button id = button_12 class = ""square num-button"" onclick = ""recordClick(this)""><div class = content><div class = numbers>Y</div></div></button><button class = clear_button id = ""ClearButton"" onclick = ""clearResponse()"">BACKSPACE</button><button class = blank_button id = ""BlankButton"" onclick = ""blankResponse()"">SKIP</button><p style=""font-size: 2.4rem""><u><b>Current Answer:</b></u></p><br><br><div id=echoed_txt style=""font-size: 5rem; color:blue;""><b></b></div></div>",enter,ospan,retrieval,P8WuwouaqBcD1K3QJNHFiLdGIN93,html-keyboard-response,86,1129882,0.0-43.0-2.0-1.0-2.0-0.0,NA,NA,NA,3.0,"[""K"",""Y"",""P""]","[""K"",""Y"",""P""]",1.0,3.0,"['<font color=""green"">K</font>', '<font color=""green"">Y</font>', '<font color=""green"">P</font>']",,,,,,65be5c84defe30b60960f46f,14:36:50,06/03/2024
1561.0,"['<p style=""font-size:44px"">Letters:<br><br><br><font color=""green"">K</font> <font color=""green"">Y</font> <font color=""green"">P</font></p><br><br><p style=""font-size:30px"">Symmetry:<br><br><font color=""green"">100%</font></p><br><br>']",0,ospan,practice_feedback,P8WuwouaqBcD1K3QJNHFiLdGIN93,html-button-response,87,1131958,0.0-43.0-2.0-1.0-2.0-1.0,,,,,,,,,,,,,,,65be5c84defe30b60960f46f,14:36:50,06/03/2024
,"<p style=""font-size:75px;"">...</p>",,ospan,iti,P8WuwouaqBcD1K3QJNHFiLdGIN93,html-keyboard-response,88,1132971,0.0-43.0-2.0-2.0-0.0,,,,,,,,,,,,,,,65be5c84defe30b60960f46f,14:36:50,06/03/2024
1581.0,,,ospan,symmetry,P8WuwouaqBcD1K3QJNHFiLdGIN93,symmetry-judgement-task,89,1135752,0.0-43.0-2.0-2.0-1.0-0.0,,,,,,,,,,1.0,1.0,,,,65be5c84defe30b60960f46f,14:36:50,06/03/2024
,"<div style=""font-size: 10rem; color: #0000FF"">Y</div>",,ospan,letter,P8WuwouaqBcD1K3QJNHFiLdGIN93,html-keyboard-response,90,1136768,0.0-43.0-2.0-2.0-1.0-1.0,,,,,,,,,,,,,,,65be5c84defe30b60960f46f,14:36:50,06/03/2024
1764.0,,,ospan,symmetry,P8WuwouaqBcD1K3QJNHFiLdGIN93,symmetry-judgement-task,91,1140347,0.0-43.0-2.0-2.0-1.0-2.0,,,,,,,,,,1.0,1.0,,,,65be5c84defe30b60960f46f,14:36:50,06/03/2024
,"<div style=""font-size: 10rem; color: #0000FF"">P</div>",,ospan,letter,P8WuwouaqBcD1K3QJNHFiLdGIN93,html-keyboard-response,92,1141363,0.0-43.0-2.0-2.0-1.0-3.0,,,,,,,,,,,,,,,65be5c84defe30b60960f46f,14:36:50,06/03/2024
1677.0,,,ospan,symmetry,P8WuwouaqBcD1K3QJNHFiLdGIN93,symmetry-judgement-task,93,1145004,0.0-43.0-2.0-2.0-1.0-4.0,,,,,,,,,,1.0,1.0,,,,65be5c84defe30b60960f46f,14:36:50,06/03/2024
,"<div style=""font-size: 10rem; color: #0000FF"">L</div>",,ospan,letter,P8WuwouaqBcD1K3QJNHFiLdGIN93,html-keyboard-response,94,1146018,0.0-43.0-2.0-2.0-1.0-5.0,,,,,,,,,,,,,,,65be5c84defe30b60960f46f,14:36:50,06/03/2024
8949.5,"<div class = numbox><p style=""font-size: 2.4rem"">Please recall the letters you saw to the best of your ability. If you do not remember a particular letter, use the SKIP button.<br><b>(When you are ready to lock in your answer, press ENTER)</b></p><button id = button_1 class = ""square num-button"" onclick = ""recordClick(this)""><div class = content><div class = numbers>C</div></div></button><button id = button_2 class = ""square num-button"" onclick = ""recordClick(this)""><div class = content><div class = numbers>G</div></div></button><button id = button_3 class = ""square num-button"" onclick = ""recordClick(this)""><div class = content><div class = numbers>H</div></div></button><button id = button_4 class = ""square num-button"" onclick = ""recordClick(this)""><div class = content><div class = numbers>J</div></div></button><button id = button_5 class = ""square num-button"" onclick = ""recordClick(this)""><div class = content><div class = numbers>K</div></div></button><button id = button_6 class = ""square num-button"" onclick = ""recordClick(this)""><div class = content><div class = numbers>L</div></div></button><button id = button_7 class = ""square num-button"" onclick = ""recordClick(this)""><div class = content><div class = numbers>N</div></div></button><button id = button_8 class = ""square num-button"" onclick = ""recordClick(this)""><div class = content><div class = numbers>P</div></div></button><button id = button_9 class = ""square num-button"" onclick = ""recordClick(this)""><div class = content><div class = numbers>Q</div></div></button><button id = button_10 class = ""square num-button"" onclick = ""recordClick(this)""><div class = content><div class = numbers>R</div></div></button><button id = button_11 class = ""square num-button"" onclick = ""recordClick(this)""><div class = content><div class = numbers>S</div></div></button><button id = button_12 class = ""square num-button"" onclick = ""recordClick(this)""><div class = content><div class = numbers>Y</div></div></button><button class = clear_button id = ""ClearButton"" onclick = ""clearResponse()"">BACKSPACE</button><button class = blank_button id = ""BlankButton"" onclick = ""blankResponse()"">SKIP</button><p style=""font-size: 2.4rem""><u><b>Current Answer:</b></u></p><br><br><div id=echoed_txt style=""font-size: 5rem; color:blue;""><b></b></div></div>",enter,ospan,retrieval,P8WuwouaqBcD1K3QJNHFiLdGIN93,html-keyboard-response,95,1155720,0.0-43.0-2.0-2.0-2.0-0.0,NA,NA,NA,3.0,"[""Y"",""P"",""L""]","[""Y"",""P"",""L""]",1.0,3.0,"['<font color=""green"">Y</font>', '<font color=""green"">P</font>', '<font color=""green"">L</font>']",,,,,,65be5c84defe30b60960f46f,14:36:50,06/03/2024
1116.7999999998137,"['<p style=""font-size:44px"">Letters:<br><br><br><font color=""green"">Y</font> <font color=""green"">P</font> <font color=""green"">L</font></p><br><br><p style=""font-size:30px"">Symmetry:<br><br><font color=""green"">100%</font></p><br><br>']",0,ospan,practice_feedback,P8WuwouaqBcD1K3QJNHFiLdGIN93,html-button-response,96,1157344,0.0-43.0-2.0-2.0-2.0-1.0,,,,,,,,,,,,,,,65be5c84defe30b60960f46f,14:36:50,06/03/2024
7136.5,"<div class = 'left_align' style='font-size: 3rem; line-height: 1.3;'><b>Great work! That is the end of practice.</b><br><br>The real trials will look just like the practice trials you just completed.<br><br><u>Here, you will not see feedback</u>. First, you will see an grid picture to judge,<br>then a letter to remember. When the recall screen appears, report the letters in the<br>order presented. If you forget a letter, remember to use the <b>blank</b> button to move to the<br>next letter. Some of the sets will have more symmetry grids and letters than others.<br><br>It is important that you do your best on both the symmetry judgments and the letter recall<br>parts of the experiment. For for the symmetry judgments, try to work as <b>quickly</b> and <br>as <b>accurately</b> as possible. Remember to keep your symmetry accuracy at 85% or above.<br><br><b>For the letters, do NOT use any external aid (e.g., writing on paper, electronic device).</b><br><br>It is <u>very important</u> to our experiment to have a <b>true</b> view of your real performance.<br><br>Do not worry if you miss some when it gets hard! This task is meant to be very challenging!<br><br>Click the button to begin.</div><br><br><br><br>",0,ospan,starting_real_here,P8WuwouaqBcD1K3QJNHFiLdGIN93,html-button-response,97,1164482,0.0-43.0-2.0-3.0,,,,,,,,,,,,,,,65be5c84defe30b60960f46f,14:36:50,06/03/2024
,"<p style=""font-size:75px;"">...</p>",,ospan,iti,P8WuwouaqBcD1K3QJNHFiLdGIN93,html-keyboard-response,98,1165752,0.0-43.0-3.0-0.0-0.0,,,,,,,,,,,,,,,65be5c84defe30b60960f46f,14:36:50,06/03/2024
2077.0,,,ospan,symmetry,P8WuwouaqBcD1K3QJNHFiLdGIN93,symmetry-judgement-task,99,1169034,0.0-43.0-3.0-0.0-1.0-0.0,,,,,,,,,,1.0,1.0,,,,65be5c84defe30b60960f46f,14:36:50,06/03/2024
,"<div style=""font-size: 10rem; color: #0000FF"">G</div>",,ospan,letter,P8WuwouaqBcD1K3QJNHFiLdGIN93,html-keyboard-response,100,1170046,0.0-43.0-3.0-0.0-1.0-1.0,,,,,,,,,,,,,,,65be5c84defe30b60960f46f,14:36:50,06/03/2024
1254.0,,,ospan,symmetry,P8WuwouaqBcD1K3QJNHFiLdGIN93,symmetry-judgement-task,101,1173267,0.0-43.0-3.0-0.0-1.0-2.0,,,,,,,,,,1.0,1.0,,,,65be5c84defe30b60960f46f,14:36:50,06/03/2024
,"<div style=""font-size: 10rem; color: #0000FF"">Y</div>",,ospan,letter,P8WuwouaqBcD1K3QJNHFiLdGIN93,html-keyboard-response,102,1174284,0.0-43.0-3.0-0.0-1.0-3.0,,,,,,,,,,,,,,,65be5c84defe30b60960f46f,14:36:50,06/03/2024
1284.0,,,ospan,symmetry,P8WuwouaqBcD1K3QJNHFiLdGIN93,symmetry-judgement-task,103,1177518,0.0-43.0-3.0-0.0-1.0-4.0,,,,,,,,,,1.0,1.0,,,,65be5c84defe30b60960f46f,14:36:50,06/03/2024
,"<div style=""font-size: 10rem; color: #0000FF"">N</div>",,ospan,letter,P8WuwouaqBcD1K3QJNHFiLdGIN93,html-keyboard-response,104,1178534,0.0-43.0-3.0-0.0-1.0-5.0,,,,,,,,,,,,,,,65be5c84defe30b60960f46f,14:36:50,06/03/2024
5489.299999999814,"<div class = numbox><p style=""font-size: 2.4rem"">Please recall the letters you saw to the best of your ability. If you do not remember a particular letter, use the SKIP button.<br><b>(When you are ready to lock in your answer, press ENTER)</b></p><button id = button_1 class = ""square num-button"" onclick = ""recordClick(this)""><div class = content><div class = numbers>C</div></div></button><button id = button_2 class = ""square num-button"" onclick = ""recordClick(this)""><div class = content><div class = numbers>G</div></div></button><button id = button_3 class = ""square num-button"" onclick = ""recordClick(this)""><div class = content><div class = numbers>H</div></div></button><button id = button_4 class = ""square num-button"" onclick = ""recordClick(this)""><div class = content><div class = numbers>J</div></div></button><button id = button_5 class = ""square num-button"" onclick = ""recordClick(this)""><div class = content><div class = numbers>K</div></div></button><button id = button_6 class = ""square num-button"" onclick = ""recordClick(this)""><div class = content><div class = numbers>L</div></div></button><button id = button_7 class = ""square num-button"" onclick = ""recordClick(this)""><div class = content><div class = numbers>N</div></div></button><button id = button_8 class = ""square num-button"" onclick = ""recordClick(this)""><div class = content><div class = numbers>P</div></div></button><button id = button_9 class = ""square num-button"" onclick = ""recordClick(this)""><div class = content><div class = numbers>Q</div></div></button><button id = button_10 class = ""square num-button"" onclick = ""recordClick(this)""><div class = content><div class = numbers>R</div></div></button><button id = button_11 class = ""square num-button"" onclick = ""recordClick(this)""><div class = content><div class = numbers>S</div></div></button><button id = button_12 class = ""square num-button"" onclick = ""recordClick(this)""><div class = content><div class = numbers>Y</div></div></button><button class = clear_button id = ""ClearButton"" onclick = ""clearResponse()"">BACKSPACE</button><button class = blank_button id = ""BlankButton"" onclick = ""blankResponse()"">SKIP</button><p style=""font-size: 2.4rem""><u><b>Current Answer:</b></u></p><br><br><div id=echoed_txt style=""font-size: 5rem; color:blue;""><b></b></div></div>",enter,ospan,retrieval,P8WuwouaqBcD1K3QJNHFiLdGIN93,html-keyboard-response,105,1184790,0.0-43.0-3.0-0.0-2.0,3,3,3,3.0,"[""G"",""Y"",""N""]","[""G"",""Y"",""N""]",1.0,3.0,,,,,,,65be5c84defe30b60960f46f,14:36:50,06/03/2024
1398.2000000001863,[''],0,ospan,feedback,P8WuwouaqBcD1K3QJNHFiLdGIN93,html-button-response,106,1186700,0.0-43.0-3.0-0.0-3.0,,,,,,,,,,,,100.0,0.0,,65be5c84defe30b60960f46f,14:36:50,06/03/2024
,"<p style=""font-size:75px;"">...</p>",,ospan,iti,P8WuwouaqBcD1K3QJNHFiLdGIN93,html-keyboard-response,107,1187706,0.0-43.0-4.0-0.0-0.0,,,,,,,,,,,,,,,65be5c84defe30b60960f46f,14:36:50,06/03/2024
2204.0,,,ospan,symmetry,P8WuwouaqBcD1K3QJNHFiLdGIN93,symmetry-judgement-task,108,1191159,0.0-43.0-4.0-0.0-1.0-0.0,,,,,,,,,,1.0,1.0,,,,65be5c84defe30b60960f46f,14:36:50,06/03/2024
,"<div style=""font-size: 10rem; color: #0000FF"">N</div>",,ospan,letter,P8WuwouaqBcD1K3QJNHFiLdGIN93,html-keyboard-response,109,1192173,0.0-43.0-4.0-0.0-1.0-1.0,,,,,,,,,,,,,,,65be5c84defe30b60960f46f,14:36:50,06/03/2024
2393.0,,,ospan,symmetry,P8WuwouaqBcD1K3QJNHFiLdGIN93,symmetry-judgement-task,110,1196518,0.0-43.0-4.0-0.0-1.0-2.0,,,,,,,,,,1.0,1.0,,,,65be5c84defe30b60960f46f,14:36:50,06/03/2024
,"<div style=""font-size: 10rem; color: #0000FF"">H</div>",,ospan,letter,P8WuwouaqBcD1K3QJNHFiLdGIN93,html-keyboard-response,111,1197534,0.0-43.0-4.0-0.0-1.0-3.0,,,,,,,,,,,,,,,65be5c84defe30b60960f46f,14:36:50,06/03/2024
1378.0,,,ospan,symmetry,P8WuwouaqBcD1K3QJNHFiLdGIN93,symmetry-judgement-task,112,1200878,0.0-43.0-4.0-0.0-1.0-4.0,,,,,,,,,,1.0,1.0,,,,65be5c84defe30b60960f46f,14:36:50,06/03/2024
,"<div style=""font-size: 10rem; color: #0000FF"">S</div>",,ospan,letter,P8WuwouaqBcD1K3QJNHFiLdGIN93,html-keyboard-response,113,1201893,0.0-43.0-4.0-0.0-1.0-5.0,,,,,,,,,,,,,,,65be5c84defe30b60960f46f,14:36:50,06/03/2024
1444.0,,,ospan,symmetry,P8WuwouaqBcD1K3QJNHFiLdGIN93,symmetry-judgement-task,114,1205291,0.0-43.0-4.0-0.0-1.0-6.0,,,,,,,,,,1.0,1.0,,,,65be5c84defe30b60960f46f,14:36:50,06/03/2024
,"<div style=""font-size: 10rem; color: #0000FF"">K</div>",,ospan,letter,P8WuwouaqBcD1K3QJNHFiLdGIN93,html-keyboard-response,115,1206315,0.0-43.0-4.0-0.0-1.0-7.0,,,,,,,,,,,,,,,65be5c84defe30b60960f46f,14:36:50,06/03/2024
5570.0999999996275,"<div class = numbox><p style=""font-size: 2.4rem"">Please recall the letters you saw to the best of your ability. If you do not remember a particular letter, use the SKIP button.<br><b>(When you are ready to lock in your answer, press ENTER)</b></p><button id = button_1 class = ""square num-button"" onclick = ""recordClick(this)""><div class = content><div class = numbers>C</div></div></button><button id = button_2 class = ""square num-button"" onclick = ""recordClick(this)""><div class = content><div class = numbers>G</div></div></button><button id = button_3 class = ""square num-button"" onclick = ""recordClick(this)""><div class = content><div class = numbers>H</div></div></button><button id = button_4 class = ""square num-button"" onclick = ""recordClick(this)""><div class = content><div class = numbers>J</div></div></button><button id = button_5 class = ""square num-button"" onclick = ""recordClick(this)""><div class = content><div class = numbers>K</div></div></button><button id = button_6 class = ""square num-button"" onclick = ""recordClick(this)""><div class = content><div class = numbers>L</div></div></button><button id = button_7 class = ""square num-button"" onclick = ""recordClick(this)""><div class = content><div class = numbers>N</div></div></button><button id = button_8 class = ""square num-button"" onclick = ""recordClick(this)""><div class = content><div class = numbers>P</div></div></button><button id = button_9 class = ""square num-button"" onclick = ""recordClick(this)""><div class = content><div class = numbers>Q</div></div></button><button id = button_10 class = ""square num-button"" onclick = ""recordClick(this)""><div class = content><div class = numbers>R</div></div></button><button id = button_11 class = ""square num-button"" onclick = ""recordClick(this)""><div class = content><div class = numbers>S</div></div></button><button id = button_12 class = ""square num-button"" onclick = ""recordClick(this)""><div class = content><div class = numbers>Y</div></div></button><button class = clear_button id = ""ClearButton"" onclick = ""clearResponse()"">BACKSPACE</button><button class = blank_button id = ""BlankButton"" onclick = ""blankResponse()"">SKIP</button><p style=""font-size: 2.4rem""><u><b>Current Answer:</b></u></p><br><br><div id=echoed_txt style=""font-size: 5rem; color:blue;""><b></b></div></div>",enter,ospan,retrieval,P8WuwouaqBcD1K3QJNHFiLdGIN93,html-keyboard-response,116,1212647,0.0-43.0-4.0-0.0-2.0,7,7,7,4.0,"[""N"",""H"",""S"",""K""]","[""N"",""H"",""S"",""K""]",1.0,4.0,,,,,,,65be5c84defe30b60960f46f,14:36:50,06/03/2024
779.7000000001863,[''],0,ospan,feedback,P8WuwouaqBcD1K3QJNHFiLdGIN93,html-button-response,117,1213939,0.0-43.0-4.0-0.0-3.0,,,,,,,,,,,,100.0,0.0,,65be5c84defe30b60960f46f,14:36:50,06/03/2024
,"<p style=""font-size:75px;"">...</p>",,ospan,iti,P8WuwouaqBcD1K3QJNHFiLdGIN93,html-keyboard-response,118,1214956,0.0-43.0-4.0-1.0-0.0,,,,,,,,,,,,,,,65be5c84defe30b60960f46f,14:36:50,06/03/2024
1364.0,,,ospan,symmetry,P8WuwouaqBcD1K3QJNHFiLdGIN93,symmetry-judgement-task,119,1217518,0.0-43.0-4.0-1.0-1.0-0.0,,,,,,,,,,1.0,1.0,,,,65be5c84defe30b60960f46f,14:36:50,06/03/2024
,"<div style=""font-size: 10rem; color: #0000FF"">S</div>",,ospan,letter,P8WuwouaqBcD1K3QJNHFiLdGIN93,html-keyboard-response,120,1218533,0.0-43.0-4.0-1.0-1.0-1.0,,,,,,,,,,,,,,,65be5c84defe30b60960f46f,14:36:50,06/03/2024
1598.0,,,ospan,symmetry,P8WuwouaqBcD1K3QJNHFiLdGIN93,symmetry-judgement-task,121,1222096,0.0-43.0-4.0-1.0-1.0-2.0,,,,,,,,,,1.0,1.0,,,,65be5c84defe30b60960f46f,14:36:50,06/03/2024
,"<div style=""font-size: 10rem; color: #0000FF"">C</div>",,ospan,letter,P8WuwouaqBcD1K3QJNHFiLdGIN93,html-keyboard-response,122,1223112,0.0-43.0-4.0-1.0-1.0-3.0,,,,,,,,,,,,,,,65be5c84defe30b60960f46f,14:36:50,06/03/2024
1422.0,,,ospan,symmetry,P8WuwouaqBcD1K3QJNHFiLdGIN93,symmetry-judgement-task,123,1226486,0.0-43.0-4.0-1.0-1.0-4.0,,,,,,,,,,1.0,1.0,,,,65be5c84defe30b60960f46f,14:36:50,06/03/2024
,"<div style=""font-size: 10rem; color: #0000FF"">Q</div>",,ospan,letter,P8WuwouaqBcD1K3QJNHFiLdGIN93,html-keyboard-response,124,1227502,0.0-43.0-4.0-1.0-1.0-5.0,,,,,,,,,,,,,,,65be5c84defe30b60960f46f,14:36:50,06/03/2024
1469.0,,,ospan,symmetry,P8WuwouaqBcD1K3QJNHFiLdGIN93,symmetry-judgement-task,125,1230956,0.0-43.0-4.0-1.0-1.0-6.0,,,,,,,,,,1.0,1.0,,,,65be5c84defe30b60960f46f,14:36:50,06/03/2024
,"<div style=""font-size: 10rem; color: #0000FF"">P</div>",,ospan,letter,P8WuwouaqBcD1K3QJNHFiLdGIN93,html-keyboard-response,126,1231972,0.0-43.0-4.0-1.0-1.0-7.0,,,,,,,,,,,,,,,65be5c84defe30b60960f46f,14:36:50,06/03/2024
1463.0,,,ospan,symmetry,P8WuwouaqBcD1K3QJNHFiLdGIN93,symmetry-judgement-task,127,1235424,0.0-43.0-4.0-1.0-1.0-8.0,,,,,,,,,,1.0,1.0,,,,65be5c84defe30b60960f46f,14:36:50,06/03/2024
,"<div style=""font-size: 10rem; color: #0000FF"">Y</div>",,ospan,letter,P8WuwouaqBcD1K3QJNHFiLdGIN93,html-keyboard-response,128,1236428,0.0-43.0-4.0-1.0-1.0-9.0,,,,,,,,,,,,,,,65be5c84defe30b60960f46f,14:36:50,06/03/2024
8118.899999999441,"<div class = numbox><p style=""font-size: 2.4rem"">Please recall the letters you saw to the best of your ability. If you do not remember a particular letter, use the SKIP button.<br><b>(When you are ready to lock in your answer, press ENTER)</b></p><button id = button_1 class = ""square num-button"" onclick = ""recordClick(this)""><div class = content><div class = numbers>C</div></div></button><button id = button_2 class = ""square num-button"" onclick = ""recordClick(this)""><div class = content><div class = numbers>G</div></div></button><button id = button_3 class = ""square num-button"" onclick = ""recordClick(this)""><div class = content><div class = numbers>H</div></div></button><button id = button_4 class = ""square num-button"" onclick = ""recordClick(this)""><div class = content><div class = numbers>J</div></div></button><button id = button_5 class = ""square num-button"" onclick = ""recordClick(this)""><div class = content><div class = numbers>K</div></div></button><button id = button_6 class = ""square num-button"" onclick = ""recordClick(this)""><div class = content><div class = numbers>L</div></div></button><button id = button_7 class = ""square num-button"" onclick = ""recordClick(this)""><div class = content><div class = numbers>N</div></div></button><button id = button_8 class = ""square num-button"" onclick = ""recordClick(this)""><div class = content><div class = numbers>P</div></div></button><button id = button_9 class = ""square num-button"" onclick = ""recordClick(this)""><div class = content><div class = numbers>Q</div></div></button><button id = button_10 class = ""square num-button"" onclick = ""recordClick(this)""><div class = content><div class = numbers>R</div></div></button><button id = button_11 class = ""square num-button"" onclick = ""recordClick(this)""><div class = content><div class = numbers>S</div></div></button><button id = button_12 class = ""square num-button"" onclick = ""recordClick(this)""><div class = content><div class = numbers>Y</div></div></button><button class = clear_button id = ""ClearButton"" onclick = ""clearResponse()"">BACKSPACE</button><button class = blank_button id = ""BlankButton"" onclick = ""blankResponse()"">SKIP</button><p style=""font-size: 2.4rem""><u><b>Current Answer:</b></u></p><br><br><div id=echoed_txt style=""font-size: 5rem; color:blue;""><b></b></div></div>",enter,ospan,retrieval,P8WuwouaqBcD1K3QJNHFiLdGIN93,html-keyboard-response,129,1245312,0.0-43.0-4.0-1.0-2.0,12,12,12,5.0,"[""S"",""C"",""Q"",""P"",""Y""]","[""S"",""C"",""Q"",""P"",""Y""]",1.0,5.0,,,,,,,65be5c84defe30b60960f46f,14:36:50,06/03/2024
1261.5,[''],0,ospan,feedback,P8WuwouaqBcD1K3QJNHFiLdGIN93,html-button-response,130,1247080,0.0-43.0-4.0-1.0-3.0,,,,,,,,,,,,100.0,0.0,,65be5c84defe30b60960f46f,14:36:50,06/03/2024
,"<p style=""font-size:75px;"">...</p>",,ospan,iti,P8WuwouaqBcD1K3QJNHFiLdGIN93,html-keyboard-response,131,1248097,0.0-43.0-4.0-2.0-0.0,,,,,,,,,,,,,,,65be5c84defe30b60960f46f,14:36:50,06/03/2024
3624.0,,,ospan,symmetry,P8WuwouaqBcD1K3QJNHFiLdGIN93,symmetry-judgement-task,132,1252768,0.0-43.0-4.0-2.0-1.0-0.0,,,,,,,,,,1.0,1.0,,,,65be5c84defe30b60960f46f,14:36:50,06/03/2024
,"<div style=""font-size: 10rem; color: #0000FF"">K</div>",,ospan,letter,P8WuwouaqBcD1K3QJNHFiLdGIN93,html-keyboard-response,133,1253780,0.0-43.0-4.0-2.0-1.0-1.0,,,,,,,,,,,,,,,65be5c84defe30b60960f46f,14:36:50,06/03/2024
1957.0,,,ospan,symmetry,P8WuwouaqBcD1K3QJNHFiLdGIN93,symmetry-judgement-task,134,1257707,0.0-43.0-4.0-2.0-1.0-2.0,,,,,,,,,,1.0,1.0,,,,65be5c84defe30b60960f46f,14:36:50,06/03/2024
,"<div style=""font-size: 10rem; color: #0000FF"">Y</div>",,ospan,letter,P8WuwouaqBcD1K3QJNHFiLdGIN93,html-keyboard-response,135,1258722,0.0-43.0-4.0-2.0-1.0-3.0,,,,,,,,,,,,,,,65be5c84defe30b60960f46f,14:36:50,06/03/2024
1701.0,,,ospan,symmetry,P8WuwouaqBcD1K3QJNHFiLdGIN93,symmetry-judgement-task,136,1262394,0.0-43.0-4.0-2.0-1.0-4.0,,,,,,,,,,1.0,1.0,,,,65be5c84defe30b60960f46f,14:36:50,06/03/2024
,"<div style=""font-size: 10rem; color: #0000FF"">R</div>",,ospan,letter,P8WuwouaqBcD1K3QJNHFiLdGIN93,html-keyboard-response,137,1263425,0.0-43.0-4.0-2.0-1.0-5.0,,,,,,,,,,,,,,,65be5c84defe30b60960f46f,14:36:50,06/03/2024
4747.899999999441,"<div class = numbox><p style=""font-size: 2.4rem"">Please recall the letters you saw to the best of your ability. If you do not remember a particular letter, use the SKIP button.<br><b>(When you are ready to lock in your answer, press ENTER)</b></p><button id = button_1 class = ""square num-button"" onclick = ""recordClick(this)""><div class = content><div class = numbers>C</div></div></button><button id = button_2 class = ""square num-button"" onclick = ""recordClick(this)""><div class = content><div class = numbers>G</div></div></button><button id = button_3 class = ""square num-button"" onclick = ""recordClick(this)""><div class = content><div class = numbers>H</div></div></button><button id = button_4 class = ""square num-button"" onclick = ""recordClick(this)""><div class = content><div class = numbers>J</div></div></button><button id = button_5 class = ""square num-button"" onclick = ""recordClick(this)""><div class = content><div class = numbers>K</div></div></button><button id = button_6 class = ""square num-button"" onclick = ""recordClick(this)""><div class = content><div class = numbers>L</div></div></button><button id = button_7 class = ""square num-button"" onclick = ""recordClick(this)""><div class = content><div class = numbers>N</div></div></button><button id = button_8 class = ""square num-button"" onclick = ""recordClick(this)""><div class = content><div class = numbers>P</div></div></button><button id = button_9 class = ""square num-button"" onclick = ""recordClick(this)""><div class = content><div class = numbers>Q</div></div></button><button id = button_10 class = ""square num-button"" onclick = ""recordClick(this)""><div class = content><div class = numbers>R</div></div></button><button id = button_11 class = ""square num-button"" onclick = ""recordClick(this)""><div class = content><div class = numbers>S</div></div></button><button id = button_12 class = ""square num-button"" onclick = ""recordClick(this)""><div class = content><div class = numbers>Y</div></div></button><button class = clear_button id = ""ClearButton"" onclick = ""clearResponse()"">BACKSPACE</button><button class = blank_button id = ""BlankButton"" onclick = ""blankResponse()"">SKIP</button><p style=""font-size: 2.4rem""><u><b>Current Answer:</b></u></p><br><br><div id=echoed_txt style=""font-size: 5rem; color:blue;""><b></b></div></div>",enter,ospan,retrieval,P8WuwouaqBcD1K3QJNHFiLdGIN93,html-keyboard-response,138,1268942,0.0-43.0-4.0-2.0-2.0,15,15,15,3.0,"[""K"",""Y"",""R""]","[""K"",""Y"",""R""]",1.0,3.0,,,,,,,65be5c84defe30b60960f46f,14:36:50,06/03/2024
1605.3999999994412,[''],0,ospan,feedback,P8WuwouaqBcD1K3QJNHFiLdGIN93,html-button-response,139,1271063,0.0-43.0-4.0-2.0-3.0,,,,,,,,,,,,100.0,0.0,,65be5c84defe30b60960f46f,14:36:50,06/03/2024
,"<p style=""font-size:75px;"">...</p>",,ospan,iti,P8WuwouaqBcD1K3QJNHFiLdGIN93,html-keyboard-response,140,1272066,0.0-43.0-5.0-0.0-0.0,,,,,,,,,,,,,,,65be5c84defe30b60960f46f,14:36:50,06/03/2024
1885.0,,,ospan,symmetry,P8WuwouaqBcD1K3QJNHFiLdGIN93,symmetry-judgement-task,141,1275167,0.0-43.0-5.0-0.0-1.0-0.0,,,,,,,,,,1.0,1.0,,,,65be5c84defe30b60960f46f,14:36:50,06/03/2024
,"<div style=""font-size: 10rem; color: #0000FF"">G</div>",,ospan,letter,P8WuwouaqBcD1K3QJNHFiLdGIN93,html-keyboard-response,142,1276174,0.0-43.0-5.0-0.0-1.0-1.0,,,,,,,,,,,,,,,65be5c84defe30b60960f46f,14:36:50,06/03/2024
2659.0,,,ospan,symmetry,P8WuwouaqBcD1K3QJNHFiLdGIN93,symmetry-judgement-task,143,1280800,0.0-43.0-5.0-0.0-1.0-2.0,,,,,,,,,,1.0,1.0,,,,65be5c84defe30b60960f46f,14:36:50,06/03/2024
,"<div style=""font-size: 10rem; color: #0000FF"">L</div>",,ospan,letter,P8WuwouaqBcD1K3QJNHFiLdGIN93,html-keyboard-response,144,1281816,0.0-43.0-5.0-0.0-1.0-3.0,,,,,,,,,,,,,,,65be5c84defe30b60960f46f,14:36:50,06/03/2024
2709.0,,,ospan,symmetry,P8WuwouaqBcD1K3QJNHFiLdGIN93,symmetry-judgement-task,145,1286516,0.0-43.0-5.0-0.0-1.0-4.0,,,,,,,,,,1.0,1.0,,,,65be5c84defe30b60960f46f,14:36:50,06/03/2024
,"<div style=""font-size: 10rem; color: #0000FF"">J</div>",,ospan,letter,P8WuwouaqBcD1K3QJNHFiLdGIN93,html-keyboard-response,146,1287519,0.0-43.0-5.0-0.0-1.0-5.0,,,,,,,,,,,,,,,65be5c84defe30b60960f46f,14:36:50,06/03/2024
1377.0,,,ospan,symmetry,P8WuwouaqBcD1K3QJNHFiLdGIN93,symmetry-judgement-task,147,1290894,0.0-43.0-5.0-0.0-1.0-6.0,,,,,,,,,,1.0,1.0,,,,65be5c84defe30b60960f46f,14:36:50,06/03/2024
,"<div style=""font-size: 10rem; color: #0000FF"">H</div>",,ospan,letter,P8WuwouaqBcD1K3QJNHFiLdGIN93,html-keyboard-response,148,1291909,0.0-43.0-5.0-0.0-1.0-7.0,,,,,,,,,,,,,,,65be5c84defe30b60960f46f,14:36:50,06/03/2024
1410.0,,,ospan,symmetry,P8WuwouaqBcD1K3QJNHFiLdGIN93,symmetry-judgement-task,149,1295268,0.0-43.0-5.0-0.0-1.0-8.0,,,,,,,,,,1.0,1.0,,,,65be5c84defe30b60960f46f,14:36:50,06/03/2024
,"<div style=""font-size: 10rem; color: #0000FF"">N</div>",,ospan,letter,P8WuwouaqBcD1K3QJNHFiLdGIN93,html-keyboard-response,150,1296270,0.0-43.0-5.0-0.0-1.0-9.0,,,,,,,,,,,,,,,65be5c84defe30b60960f46f,14:36:50,06/03/2024
2030.0,,,ospan,symmetry,P8WuwouaqBcD1K3QJNHFiLdGIN93,symmetry-judgement-task,151,1300284,0.0-43.0-5.0-0.0-1.0-10.0,,,,,,,,,,1.0,1.0,,,,65be5c84defe30b60960f46f,14:36:50,06/03/2024
,"<div style=""font-size: 10rem; color: #0000FF"">C</div>",,ospan,letter,P8WuwouaqBcD1K3QJNHFiLdGIN93,html-keyboard-response,152,1301296,0.0-43.0-5.0-0.0-1.0-11.0,,,,,,,,,,,,,,,65be5c84defe30b60960f46f,14:36:50,06/03/2024
10637.400000000373,"<div class = numbox><p style=""font-size: 2.4rem"">Please recall the letters you saw to the best of your ability. If you do not remember a particular letter, use the SKIP button.<br><b>(When you are ready to lock in your answer, press ENTER)</b></p><button id = button_1 class = ""square num-button"" onclick = ""recordClick(this)""><div class = content><div class = numbers>C</div></div></button><button id = button_2 class = ""square num-button"" onclick = ""recordClick(this)""><div class = content><div class = numbers>G</div></div></button><button id = button_3 class = ""square num-button"" onclick = ""recordClick(this)""><div class = content><div class = numbers>H</div></div></button><button id = button_4 class = ""square num-button"" onclick = ""recordClick(this)""><div class = content><div class = numbers>J</div></div></button><button id = button_5 class = ""square num-button"" onclick = ""recordClick(this)""><div class = content><div class = numbers>K</div></div></button><button id = button_6 class = ""square num-button"" onclick = ""recordClick(this)""><div class = content><div class = numbers>L</div></div></button><button id = button_7 class = ""square num-button"" onclick = ""recordClick(this)""><div class = content><div class = numbers>N</div></div></button><button id = button_8 class = ""square num-button"" onclick = ""recordClick(this)""><div class = content><div class = numbers>P</div></div></button><button id = button_9 class = ""square num-button"" onclick = ""recordClick(this)""><div class = content><div class = numbers>Q</div></div></button><button id = button_10 class = ""square num-button"" onclick = ""recordClick(this)""><div class = content><div class = numbers>R</div></div></button><button id = button_11 class = ""square num-button"" onclick = ""recordClick(this)""><div class = content><div class = numbers>S</div></div></button><button id = button_12 class = ""square num-button"" onclick = ""recordClick(this)""><div class = content><div class = numbers>Y</div></div></button><button class = clear_button id = ""ClearButton"" onclick = ""clearResponse()"">BACKSPACE</button><button class = blank_button id = ""BlankButton"" onclick = ""blankResponse()"">SKIP</button><p style=""font-size: 2.4rem""><u><b>Current Answer:</b></u></p><br><br><div id=echoed_txt style=""font-size: 5rem; color:blue;""><b></b></div></div>",enter,ospan,retrieval,P8WuwouaqBcD1K3QJNHFiLdGIN93,html-keyboard-response,153,1312688,0.0-43.0-5.0-0.0-2.0,21,19,15,6.0,"[""J"",""L"",""G"",""H"",""N"",""C""]","[""G"",""L"",""J"",""H"",""N"",""C""]",0.0,4.0,,,,,,,65be5c84defe30b60960f46f,14:36:50,06/03/2024
890.7999999998137,[''],0,ospan,feedback,P8WuwouaqBcD1K3QJNHFiLdGIN93,html-button-response,154,1314080,0.0-43.0-5.0-0.0-3.0,,,,,,,,,,,,100.0,0.0,,65be5c84defe30b60960f46f,14:36:50,06/03/2024
,"<p style=""font-size:75px;"">...</p>",,ospan,iti,P8WuwouaqBcD1K3QJNHFiLdGIN93,html-keyboard-response,155,1315096,0.0-43.0-5.0-1.0-0.0,,,,,,,,,,,,,,,65be5c84defe30b60960f46f,14:36:50,06/03/2024
1429.0,,,ospan,symmetry,P8WuwouaqBcD1K3QJNHFiLdGIN93,symmetry-judgement-task,156,1317721,0.0-43.0-5.0-1.0-1.0-0.0,,,,,,,,,,1.0,1.0,,,,65be5c84defe30b60960f46f,14:36:50,06/03/2024
,"<div style=""font-size: 10rem; color: #0000FF"">N</div>",,ospan,letter,P8WuwouaqBcD1K3QJNHFiLdGIN93,html-keyboard-response,157,1318737,0.0-43.0-5.0-1.0-1.0-1.0,,,,,,,,,,,,,,,65be5c84defe30b60960f46f,14:36:50,06/03/2024
2028.0,,,ospan,symmetry,P8WuwouaqBcD1K3QJNHFiLdGIN93,symmetry-judgement-task,158,1322743,0.0-43.0-5.0-1.0-1.0-2.0,,,,,,,,,,1.0,1.0,,,,65be5c84defe30b60960f46f,14:36:50,06/03/2024
,"<div style=""font-size: 10rem; color: #0000FF"">R</div>",,ospan,letter,P8WuwouaqBcD1K3QJNHFiLdGIN93,html-keyboard-response,159,1323754,0.0-43.0-5.0-1.0-1.0-3.0,,,,,,,,,,,,,,,65be5c84defe30b60960f46f,14:36:50,06/03/2024
2977.0,,,ospan,symmetry,P8WuwouaqBcD1K3QJNHFiLdGIN93,symmetry-judgement-task,160,1328721,0.0-43.0-5.0-1.0-1.0-4.0,,,,,,,,,,1.0,1.0,,,,65be5c84defe30b60960f46f,14:36:50,06/03/2024
,"<div style=""font-size: 10rem; color: #0000FF"">G</div>",,ospan,letter,P8WuwouaqBcD1K3QJNHFiLdGIN93,html-keyboard-response,161,1329737,0.0-43.0-5.0-1.0-1.0-5.0,,,,,,,,,,,,,,,65be5c84defe30b60960f46f,14:36:50,06/03/2024
1315.0,,,ospan,symmetry,P8WuwouaqBcD1K3QJNHFiLdGIN93,symmetry-judgement-task,162,1333034,0.0-43.0-5.0-1.0-1.0-6.0,,,,,,,,,,1.0,1.0,,,,65be5c84defe30b60960f46f,14:36:50,06/03/2024
,"<div style=""font-size: 10rem; color: #0000FF"">C</div>",,ospan,letter,P8WuwouaqBcD1K3QJNHFiLdGIN93,html-keyboard-response,163,1334039,0.0-43.0-5.0-1.0-1.0-7.0,,,,,,,,,,,,,,,65be5c84defe30b60960f46f,14:36:50,06/03/2024
1341.0,,,ospan,symmetry,P8WuwouaqBcD1K3QJNHFiLdGIN93,symmetry-judgement-task,164,1337340,0.0-43.0-5.0-1.0-1.0-8.0,,,,,,,,,,1.0,1.0,,,,65be5c84defe30b60960f46f,14:36:50,06/03/2024
,"<div style=""font-size: 10rem; color: #0000FF"">H</div>",,ospan,letter,P8WuwouaqBcD1K3QJNHFiLdGIN93,html-keyboard-response,165,1338346,0.0-43.0-5.0-1.0-1.0-9.0,,,,,,,,,,,,,,,65be5c84defe30b60960f46f,14:36:50,06/03/2024
1746.0,,,ospan,symmetry,P8WuwouaqBcD1K3QJNHFiLdGIN93,symmetry-judgement-task,166,1342065,0.0-43.0-5.0-1.0-1.0-10.0,,,,,,,,,,1.0,1.0,,,,65be5c84defe30b60960f46f,14:36:50,06/03/2024
,"<div style=""font-size: 10rem; color: #0000FF"">L</div>",,ospan,letter,P8WuwouaqBcD1K3QJNHFiLdGIN93,html-keyboard-response,167,1343081,0.0-43.0-5.0-1.0-1.0-11.0,,,,,,,,,,,,,,,65be5c84defe30b60960f46f,14:36:50,06/03/2024
6794.0,,,ospan,symmetry,P8WuwouaqBcD1K3QJNHFiLdGIN93,symmetry-judgement-task,168,1351847,0.0-43.0-5.0-1.0-1.0-12.0,,,,,,,,,,1.0,1.0,,,,65be5c84defe30b60960f46f,14:36:50,06/03/2024
,"<div style=""font-size: 10rem; color: #0000FF"">Y</div>",,ospan,letter,P8WuwouaqBcD1K3QJNHFiLdGIN93,html-keyboard-response,169,1352863,0.0-43.0-5.0-1.0-1.0-13.0,,,,,,,,,,,,,,,65be5c84defe30b60960f46f,14:36:50,06/03/2024
13332.0,"<div class = numbox><p style=""font-size: 2.4rem"">Please recall the letters you saw to the best of your ability. If you do not remember a particular letter, use the SKIP button.<br><b>(When you are ready to lock in your answer, press ENTER)</b></p><button id = button_1 class = ""square num-button"" onclick = ""recordClick(this)""><div class = content><div class = numbers>C</div></div></button><button id = button_2 class = ""square num-button"" onclick = ""recordClick(this)""><div class = content><div class = numbers>G</div></div></button><button id = button_3 class = ""square num-button"" onclick = ""recordClick(this)""><div class = content><div class = numbers>H</div></div></button><button id = button_4 class = ""square num-button"" onclick = ""recordClick(this)""><div class = content><div class = numbers>J</div></div></button><button id = button_5 class = ""square num-button"" onclick = ""recordClick(this)""><div class = content><div class = numbers>K</div></div></button><button id = button_6 class = ""square num-button"" onclick = ""recordClick(this)""><div class = content><div class = numbers>L</div></div></button><button id = button_7 class = ""square num-button"" onclick = ""recordClick(this)""><div class = content><div class = numbers>N</div></div></button><button id = button_8 class = ""square num-button"" onclick = ""recordClick(this)""><div class = content><div class = numbers>P</div></div></button><button id = button_9 class = ""square num-button"" onclick = ""recordClick(this)""><div class = content><div class = numbers>Q</div></div></button><button id = button_10 class = ""square num-button"" onclick = ""recordClick(this)""><div class = content><div class = numbers>R</div></div></button><button id = button_11 class = ""square num-button"" onclick = ""recordClick(this)""><div class = content><div class = numbers>S</div></div></button><button id = button_12 class = ""square num-button"" onclick = ""recordClick(this)""><div class = content><div class = numbers>Y</div></div></button><button class = clear_button id = ""ClearButton"" onclick = ""clearResponse()"">BACKSPACE</button><button class = blank_button id = ""BlankButton"" onclick = ""blankResponse()"">SKIP</button><p style=""font-size: 2.4rem""><u><b>Current Answer:</b></u></p><br><br><div id=echoed_txt style=""font-size: 5rem; color:blue;""><b></b></div></div>",enter,ospan,retrieval,P8WuwouaqBcD1K3QJNHFiLdGIN93,html-keyboard-response,170,1366950,0.0-43.0-5.0-1.0-2.0,28,25,15,7.0,"[""N"",""R"",""G"",""C"",""H"",""L""]","[""N"",""R"",""G"",""C"",""H"",""L"",""Y""]",0.0,6.0,,,,,,,65be5c84defe30b60960f46f,14:36:50,06/03/2024
1281.7000000001863,[''],0,ospan,feedback,P8WuwouaqBcD1K3QJNHFiLdGIN93,html-button-response,171,1368755,0.0-43.0-5.0-1.0-3.0,,,,,,,,,,,,100.0,0.0,,65be5c84defe30b60960f46f,14:36:50,06/03/2024
,"<p style=""font-size:75px;"">...</p>",,ospan,iti,P8WuwouaqBcD1K3QJNHFiLdGIN93,html-keyboard-response,172,1369769,0.0-43.0-6.0-0.0-0.0,,,,,,,,,,,,,,,65be5c84defe30b60960f46f,14:36:50,06/03/2024
1867.0,,,ospan,symmetry,P8WuwouaqBcD1K3QJNHFiLdGIN93,symmetry-judgement-task,173,1372825,0.0-43.0-6.0-0.0-1.0-0.0,,,,,,,,,,0.0,0.0,,,,65be5c84defe30b60960f46f,14:36:50,06/03/2024
,"<div style=""font-size: 10rem; color: #0000FF"">K</div>",,ospan,letter,P8WuwouaqBcD1K3QJNHFiLdGIN93,html-keyboard-response,174,1373847,0.0-43.0-6.0-0.0-1.0-1.0,,,,,,,,,,,,,,,65be5c84defe30b60960f46f,14:36:50,06/03/2024
3360.0,,,ospan,symmetry,P8WuwouaqBcD1K3QJNHFiLdGIN93,symmetry-judgement-task,175,1379207,0.0-43.0-6.0-0.0-1.0-2.0,,,,,,,,,,1.0,1.0,,,,65be5c84defe30b60960f46f,14:36:50,06/03/2024
,"<div style=""font-size: 10rem; color: #0000FF"">Q</div>",,ospan,letter,P8WuwouaqBcD1K3QJNHFiLdGIN93,html-keyboard-response,176,1380223,0.0-43.0-6.0-0.0-1.0-3.0,,,,,,,,,,,,,,,65be5c84defe30b60960f46f,14:36:50,06/03/2024
2063.0,,,ospan,symmetry,P8WuwouaqBcD1K3QJNHFiLdGIN93,symmetry-judgement-task,177,1384236,0.0-43.0-6.0-0.0-1.0-4.0,,,,,,,,,,1.0,1.0,,,,65be5c84defe30b60960f46f,14:36:50,06/03/2024
,"<div style=""font-size: 10rem; color: #0000FF"">R</div>",,ospan,letter,P8WuwouaqBcD1K3QJNHFiLdGIN93,html-keyboard-response,178,1385240,0.0-43.0-6.0-0.0-1.0-5.0,,,,,,,,,,,,,,,65be5c84defe30b60960f46f,14:36:50,06/03/2024
2743.0,,,ospan,symmetry,P8WuwouaqBcD1K3QJNHFiLdGIN93,symmetry-judgement-task,179,1389971,0.0-43.0-6.0-0.0-1.0-6.0,,,,,,,,,,1.0,1.0,,,,65be5c84defe30b60960f46f,14:36:50,06/03/2024
,"<div style=""font-size: 10rem; color: #0000FF"">H</div>",,ospan,letter,P8WuwouaqBcD1K3QJNHFiLdGIN93,html-keyboard-response,180,1390987,0.0-43.0-6.0-0.0-1.0-7.0,,,,,,,,,,,,,,,65be5c84defe30b60960f46f,14:36:50,06/03/2024
4139.0,,,ospan,symmetry,P8WuwouaqBcD1K3QJNHFiLdGIN93,symmetry-judgement-task,181,1397114,0.0-43.0-6.0-0.0-1.0-8.0,,,,,,,,,,1.0,1.0,,,,65be5c84defe30b60960f46f,14:36:50,06/03/2024
,"<div style=""font-size: 10rem; color: #0000FF"">S</div>",,ospan,letter,P8WuwouaqBcD1K3QJNHFiLdGIN93,html-keyboard-response,182,1398128,0.0-43.0-6.0-0.0-1.0-9.0,,,,,,,,,,,,,,,65be5c84defe30b60960f46f,14:36:50,06/03/2024
5786.699999999255,"<div class = numbox><p style=""font-size: 2.4rem"">Please recall the letters you saw to the best of your ability. If you do not remember a particular letter, use the SKIP button.<br><b>(When you are ready to lock in your answer, press ENTER)</b></p><button id = button_1 class = ""square num-button"" onclick = ""recordClick(this)""><div class = content><div class = numbers>C</div></div></button><button id = button_2 class = ""square num-button"" onclick = ""recordClick(this)""><div class = content><div class = numbers>G</div></div></button><button id = button_3 class = ""square num-button"" onclick = ""recordClick(this)""><div class = content><div class = numbers>H</div></div></button><button id = button_4 class = ""square num-button"" onclick = ""recordClick(this)""><div class = content><div class = numbers>J</div></div></button><button id = button_5 class = ""square num-button"" onclick = ""recordClick(this)""><div class = content><div class = numbers>K</div></div></button><button id = button_6 class = ""square num-button"" onclick = ""recordClick(this)""><div class = content><div class = numbers>L</div></div></button><button id = button_7 class = ""square num-button"" onclick = ""recordClick(this)""><div class = content><div class = numbers>N</div></div></button><button id = button_8 class = ""square num-button"" onclick = ""recordClick(this)""><div class = content><div class = numbers>P</div></div></button><button id = button_9 class = ""square num-button"" onclick = ""recordClick(this)""><div class = content><div class = numbers>Q</div></div></button><button id = button_10 class = ""square num-button"" onclick = ""recordClick(this)""><div class = content><div class = numbers>R</div></div></button><button id = button_11 class = ""square num-button"" onclick = ""recordClick(this)""><div class = content><div class = numbers>S</div></div></button><button id = button_12 class = ""square num-button"" onclick = ""recordClick(this)""><div class = content><div class = numbers>Y</div></div></button><button class = clear_button id = ""ClearButton"" onclick = ""clearResponse()"">BACKSPACE</button><button class = blank_button id = ""BlankButton"" onclick = ""blankResponse()"">SKIP</button><p style=""font-size: 2.4rem""><u><b>Current Answer:</b></u></p><br><br><div id=echoed_txt style=""font-size: 5rem; color:blue;""><b></b></div></div>",enter,ospan,retrieval,P8WuwouaqBcD1K3QJNHFiLdGIN93,html-keyboard-response,183,1404668,0.0-43.0-6.0-0.0-2.0,33,27,15,5.0,"[""K"",""Q"",""L""]","[""K"",""Q"",""R"",""H"",""S""]",0.0,2.0,,,,,,,65be5c84defe30b60960f46f,14:36:50,06/03/2024
1138.0,[''],0,ospan,feedback,P8WuwouaqBcD1K3QJNHFiLdGIN93,html-button-response,184,1406316,0.0-43.0-6.0-0.0-3.0,,,,,,,,,,,,97.0,0.0,,65be5c84defe30b60960f46f,14:36:50,06/03/2024
,"<p style=""font-size:75px;"">...</p>",,ospan,iti,P8WuwouaqBcD1K3QJNHFiLdGIN93,html-keyboard-response,185,1407332,0.0-43.0-6.0-1.0-0.0,,,,,,,,,,,,,,,65be5c84defe30b60960f46f,14:36:50,06/03/2024
2198.0,,,ospan,symmetry,P8WuwouaqBcD1K3QJNHFiLdGIN93,symmetry-judgement-task,186,1410722,0.0-43.0-6.0-1.0-1.0-0.0,,,,,,,,,,1.0,1.0,,,,65be5c84defe30b60960f46f,14:36:50,06/03/2024
,"<div style=""font-size: 10rem; color: #0000FF"">R</div>",,ospan,letter,P8WuwouaqBcD1K3QJNHFiLdGIN93,html-keyboard-response,187,1411754,0.0-43.0-6.0-1.0-1.0-1.0,,,,,,,,,,,,,,,65be5c84defe30b60960f46f,14:36:50,06/03/2024
2675.0,,,ospan,symmetry,P8WuwouaqBcD1K3QJNHFiLdGIN93,symmetry-judgement-task,188,1416426,0.0-43.0-6.0-1.0-1.0-2.0,,,,,,,,,,1.0,1.0,,,,65be5c84defe30b60960f46f,14:36:50,06/03/2024
,"<div style=""font-size: 10rem; color: #0000FF"">Q</div>",,ospan,letter,P8WuwouaqBcD1K3QJNHFiLdGIN93,html-keyboard-response,189,1417436,0.0-43.0-6.0-1.0-1.0-3.0,,,,,,,,,,,,,,,65be5c84defe30b60960f46f,14:36:50,06/03/2024
2424.0,,,ospan,symmetry,P8WuwouaqBcD1K3QJNHFiLdGIN93,symmetry-judgement-task,190,1421821,0.0-43.0-6.0-1.0-1.0-4.0,,,,,,,,,,1.0,1.0,,,,65be5c84defe30b60960f46f,14:36:50,06/03/2024
,"<div style=""font-size: 10rem; color: #0000FF"">K</div>",,ospan,letter,P8WuwouaqBcD1K3QJNHFiLdGIN93,html-keyboard-response,191,1422829,0.0-43.0-6.0-1.0-1.0-5.0,,,,,,,,,,,,,,,65be5c84defe30b60960f46f,14:36:50,06/03/2024
1656.0,,,ospan,symmetry,P8WuwouaqBcD1K3QJNHFiLdGIN93,symmetry-judgement-task,192,1426483,0.0-43.0-6.0-1.0-1.0-6.0,,,,,,,,,,1.0,1.0,,,,65be5c84defe30b60960f46f,14:36:50,06/03/2024
,"<div style=""font-size: 10rem; color: #0000FF"">Y</div>",,ospan,letter,P8WuwouaqBcD1K3QJNHFiLdGIN93,html-keyboard-response,193,1427486,0.0-43.0-6.0-1.0-1.0-7.0,,,,,,,,,,,,,,,65be5c84defe30b60960f46f,14:36:50,06/03/2024
2352.0,,,ospan,symmetry,P8WuwouaqBcD1K3QJNHFiLdGIN93,symmetry-judgement-task,194,1431815,0.0-43.0-6.0-1.0-1.0-8.0,,,,,,,,,,1.0,1.0,,,,65be5c84defe30b60960f46f,14:36:50,06/03/2024
,"<div style=""font-size: 10rem; color: #0000FF"">N</div>",,ospan,letter,P8WuwouaqBcD1K3QJNHFiLdGIN93,html-keyboard-response,195,1432822,0.0-43.0-6.0-1.0-1.0-9.0,,,,,,,,,,,,,,,65be5c84defe30b60960f46f,14:36:50,06/03/2024
1599.0,,,ospan,symmetry,P8WuwouaqBcD1K3QJNHFiLdGIN93,symmetry-judgement-task,196,1436393,0.0-43.0-6.0-1.0-1.0-10.0,,,,,,,,,,1.0,1.0,,,,65be5c84defe30b60960f46f,14:36:50,06/03/2024
,"<div style=""font-size: 10rem; color: #0000FF"">H</div>",,ospan,letter,P8WuwouaqBcD1K3QJNHFiLdGIN93,html-keyboard-response,197,1437412,0.0-43.0-6.0-1.0-1.0-11.0,,,,,,,,,,,,,,,65be5c84defe30b60960f46f,14:36:50,06/03/2024
1478.0,,,ospan,symmetry,P8WuwouaqBcD1K3QJNHFiLdGIN93,symmetry-judgement-task,198,1440877,0.0-43.0-6.0-1.0-1.0-12.0,,,,,,,,,,1.0,1.0,,,,65be5c84defe30b60960f46f,14:36:50,06/03/2024
,"<div style=""font-size: 10rem; color: #0000FF"">L</div>",,ospan,letter,P8WuwouaqBcD1K3QJNHFiLdGIN93,html-keyboard-response,199,1441894,0.0-43.0-6.0-1.0-1.0-13.0,,,,,,,,,,,,,,,65be5c84defe30b60960f46f,14:36:50,06/03/2024
1611.0,,,ospan,symmetry,P8WuwouaqBcD1K3QJNHFiLdGIN93,symmetry-judgement-task,200,1445487,0.0-43.0-6.0-1.0-1.0-14.0,,,,,,,,,,1.0,1.0,,,,65be5c84defe30b60960f46f,14:36:50,06/03/2024
,"<div style=""font-size: 10rem; color: #0000FF"">C</div>",,ospan,letter,P8WuwouaqBcD1K3QJNHFiLdGIN93,html-keyboard-response,201,1446490,0.0-43.0-6.0-1.0-1.0-15.0,,,,,,,,,,,,,,,65be5c84defe30b60960f46f,14:36:50,06/03/2024
8547.400000000373,"<div class = numbox><p style=""font-size: 2.4rem"">Please recall the letters you saw to the best of your ability. If you do not remember a particular letter, use the SKIP button.<br><b>(When you are ready to lock in your answer, press ENTER)</b></p><button id = button_1 class = ""square num-button"" onclick = ""recordClick(this)""><div class = content><div class = numbers>C</div></div></button><button id = button_2 class = ""square num-button"" onclick = ""recordClick(this)""><div class = content><div class = numbers>G</div></div></button><button id = button_3 class = ""square num-button"" onclick = ""recordClick(this)""><div class = content><div class = numbers>H</div></div></button><button id = button_4 class = ""square num-button"" onclick = ""recordClick(this)""><div class = content><div class = numbers>J</div></div></button><button id = button_5 class = ""square num-button"" onclick = ""recordClick(this)""><div class = content><div class = numbers>K</div></div></button><button id = button_6 class = ""square num-button"" onclick = ""recordClick(this)""><div class = content><div class = numbers>L</div></div></button><button id = button_7 class = ""square num-button"" onclick = ""recordClick(this)""><div class = content><div class = numbers>N</div></div></button><button id = button_8 class = ""square num-button"" onclick = ""recordClick(this)""><div class = content><div class = numbers>P</div></div></button><button id = button_9 class = ""square num-button"" onclick = ""recordClick(this)""><div class = content><div class = numbers>Q</div></div></button><button id = button_10 class = ""square num-button"" onclick = ""recordClick(this)""><div class = content><div class = numbers>R</div></div></button><button id = button_11 class = ""square num-button"" onclick = ""recordClick(this)""><div class = content><div class = numbers>S</div></div></button><button id = button_12 class = ""square num-button"" onclick = ""recordClick(this)""><div class = content><div class = numbers>Y</div></div></button><button class = clear_button id = ""ClearButton"" onclick = ""clearResponse()"">BACKSPACE</button><button class = blank_button id = ""BlankButton"" onclick = ""blankResponse()"">SKIP</button><p style=""font-size: 2.4rem""><u><b>Current Answer:</b></u></p><br><br><div id=echoed_txt style=""font-size: 5rem; color:blue;""><b></b></div></div>",enter,ospan,retrieval,P8WuwouaqBcD1K3QJNHFiLdGIN93,html-keyboard-response,202,1455820,0.0-43.0-6.0-1.0-2.0,41,34,15,8.0,"[""R"",""Q"",""K"",""Y"",""N"",""H"",""L""]","[""R"",""Q"",""K"",""Y"",""N"",""H"",""L"",""C""]",0.0,7.0,,,,,,,65be5c84defe30b60960f46f,14:36:50,06/03/2024
938.9000000003725,[''],0,ospan,feedback,P8WuwouaqBcD1K3QJNHFiLdGIN93,html-button-response,203,1457271,0.0-43.0-6.0-1.0-3.0,,,,,,,,,,,,98.0,0.0,,65be5c84defe30b60960f46f,14:36:50,06/03/2024
15613.399999999441,,{'Q0': 'Everything was smooth'},ospan,survey_ospan,P8WuwouaqBcD1K3QJNHFiLdGIN93,lmdlab-survey-text,204,1473644,0.0-43.0-7.0,,,,,,,,,,,,,,P8WuwouaqBcD1K3QJNHFiLdGIN93,65be5c84defe30b60960f46f,14:36:50,06/03/2024
1505.0999999996275,<p><p style='font-size: 3rem'>Great work!<br><br>This completes the symmetry and memory task.</p><br><br><br>,0,ospan,finish,P8WuwouaqBcD1K3QJNHFiLdGIN93,html-button-response,205,1475151,0.0-43.0-8.0,41,34,15,,,,,,,,,98.0,,,65be5c84defe30b60960f46f,14:36:50,06/03/2024
