rt,stimulus,response,exp_name,exp_stage,subjectID,trial_type,trial_index,time_elapsed,internal_node_id,ospan_shown,ospan_total,ospan_abs,length,resp_actual,resp_correct,full_correct,num_correct,feedback,accuracy,correct,math_acc,math_warning,prolificID,start_time,date
2874.2999999998137,<div class = 'left_align' style='font-size: 3.25rem; line-height: 1.3;'><p class = 'center_align'><b>Welcome to the Symmetry and Memory Task</b><br><br><br><br></p>Press 'continue' to show the instructions.<br><br><br><br></div>,0,ospan,instruct,rnRIr4p5h0VjZiHGRo0hFlSMeay1,html-button-response,54,597839,0.0-46.0-0.0-0.0-0.0,,,,,,,,,,,,,,593f105f02d1cc0001071a72,15:10:47,03/04/2024
46663.700000000186,"<div class = 'left_align' style='font-size: 3.25rem; line-height: 1.3;'><p class = 'center_align'><b>Symmetry and Memory Task</b><br><br></p>In this task, you will try to memorize letters you see on the screen<br>while you also view black and white grid pictures.<br><br>In the next few minutes, you will have some practice to get you familiar<br>with how the task works.<br><br>It may be difficult sometimes, but please do not worry about making mistakes!<br><br>We will begin by practicing the letter part of the task.<br><br><br><br></div>",0,ospan,instruct,rnRIr4p5h0VjZiHGRo0hFlSMeay1,html-button-response,55,644766,0.0-46.0-0.0-0.0-1.0,,,,,,,,,,,,,,593f105f02d1cc0001071a72,15:10:47,03/04/2024
11648.700000000186,"<div class = 'left_align' style='font-size: 3.25rem; line-height: 1.3;'>For this practice part, letters will appear on the screen one at a time.<br><br>Try to remember each letter in the order presented.<br><br>After some letters have been shown, you will see a response screen. Your<br>goal is to report the letters you saw <b>in order</b>. If you do not remember<br>a particular letter, you will have the option to leave it blank.<br><br><br><br></div>",0,ospan,instruct,rnRIr4p5h0VjZiHGRo0hFlSMeay1,html-button-response,56,656676,0.0-46.0-0.0-0.0-2.0,,,,,,,,,,,,,,593f105f02d1cc0001071a72,15:10:47,03/04/2024
1942.1000000005588,"<div class = 'left_align' style='font-size: 3.25rem; line-height: 1.3;'>Remember, it is very important to get the letters in the same<br>order as you see them.<br><br>When you are ready, you may begin the letter practice.</div><br><br><br><br>",0,ospan,instruct,rnRIr4p5h0VjZiHGRo0hFlSMeay1,html-button-response,57,658879,0.0-46.0-0.0-0.0-3.0,,,,,,,,,,,,,,593f105f02d1cc0001071a72,15:10:47,03/04/2024
,"<p style=""font-size:75px;"">...</p>",,ospan,iti,rnRIr4p5h0VjZiHGRo0hFlSMeay1,html-keyboard-response,58,660136,0.0-46.0-0.0-1.0-0.0,,,,,,,,,,,,,,593f105f02d1cc0001071a72,15:10:47,03/04/2024
,"<div style=""font-size: 10rem; color: #0000FF"">P</div>",,ospan,letter,rnRIr4p5h0VjZiHGRo0hFlSMeay1,html-keyboard-response,59,661146,0.0-46.0-0.0-1.0-1.0,,,,,,,,,,,,,,593f105f02d1cc0001071a72,15:10:47,03/04/2024
,"<div style=""font-size: 10rem; color: #0000FF"">N</div>",,ospan,letter,rnRIr4p5h0VjZiHGRo0hFlSMeay1,html-keyboard-response,60,662902,0.0-46.0-0.0-1.0-2.0,,,,,,,,,,,,,,593f105f02d1cc0001071a72,15:10:47,03/04/2024
8534.700000000186,"<div class = numbox><p style=""font-size: 2.4rem"">Please recall the letters you saw to the best of your ability. If you do not remember a particular letter, use the SKIP button.<br><b>(When you are ready to lock in your answer, press ENTER)</b></p><button id = button_1 class = ""square num-button"" onclick = ""recordClick(this)""><div class = content><div class = numbers>C</div></div></button><button id = button_2 class = ""square num-button"" onclick = ""recordClick(this)""><div class = content><div class = numbers>G</div></div></button><button id = button_3 class = ""square num-button"" onclick = ""recordClick(this)""><div class = content><div class = numbers>H</div></div></button><button id = button_4 class = ""square num-button"" onclick = ""recordClick(this)""><div class = content><div class = numbers>J</div></div></button><button id = button_5 class = ""square num-button"" onclick = ""recordClick(this)""><div class = content><div class = numbers>K</div></div></button><button id = button_6 class = ""square num-button"" onclick = ""recordClick(this)""><div class = content><div class = numbers>L</div></div></button><button id = button_7 class = ""square num-button"" onclick = ""recordClick(this)""><div class = content><div class = numbers>N</div></div></button><button id = button_8 class = ""square num-button"" onclick = ""recordClick(this)""><div class = content><div class = numbers>P</div></div></button><button id = button_9 class = ""square num-button"" onclick = ""recordClick(this)""><div class = content><div class = numbers>Q</div></div></button><button id = button_10 class = ""square num-button"" onclick = ""recordClick(this)""><div class = content><div class = numbers>R</div></div></button><button id = button_11 class = ""square num-button"" onclick = ""recordClick(this)""><div class = content><div class = numbers>S</div></div></button><button id = button_12 class = ""square num-button"" onclick = ""recordClick(this)""><div class = content><div class = numbers>Y</div></div></button><button class = clear_button id = ""ClearButton"" onclick = ""clearResponse()"">BACKSPACE</button><button class = blank_button id = ""BlankButton"" onclick = ""blankResponse()"">SKIP</button><p style=""font-size: 2.4rem""><u><b>Current Answer:</b></u></p><br><br><div id=echoed_txt style=""font-size: 5rem; color:blue;""><b></b></div></div>",enter,ospan,retrieval,rnRIr4p5h0VjZiHGRo0hFlSMeay1,html-keyboard-response,61,672206,0.0-46.0-0.0-1.0-3.0,NA,NA,NA,2.0,"[""P"",""N""]","[""P"",""N""]",1.0,2.0,"['<font color=""green"">P</font>', '<font color=""green"">N</font>']",,,,,593f105f02d1cc0001071a72,15:10:47,03/04/2024
1888.5,"['<p style=""font-size:44px"">Letters:<br><br><br><font color=""green"">P</font> <font color=""green"">N</font></p><br><br>']",0,ospan,practice_feedback,rnRIr4p5h0VjZiHGRo0hFlSMeay1,html-button-response,62,674619,0.0-46.0-0.0-1.0-4.0,,,,,,,,,,,,,,593f105f02d1cc0001071a72,15:10:47,03/04/2024
,"<p style=""font-size:75px;"">...</p>",,ospan,iti,rnRIr4p5h0VjZiHGRo0hFlSMeay1,html-keyboard-response,63,675629,0.0-46.0-0.0-2.0-0.0,,,,,,,,,,,,,,593f105f02d1cc0001071a72,15:10:47,03/04/2024
,"<div style=""font-size: 10rem; color: #0000FF"">R</div>",,ospan,letter,rnRIr4p5h0VjZiHGRo0hFlSMeay1,html-keyboard-response,64,676642,0.0-46.0-0.0-2.0-1.0,,,,,,,,,,,,,,593f105f02d1cc0001071a72,15:10:47,03/04/2024
,"<div style=""font-size: 10rem; color: #0000FF"">C</div>",,ospan,letter,rnRIr4p5h0VjZiHGRo0hFlSMeay1,html-keyboard-response,65,678396,0.0-46.0-0.0-2.0-2.0,,,,,,,,,,,,,,593f105f02d1cc0001071a72,15:10:47,03/04/2024
,"<div style=""font-size: 10rem; color: #0000FF"">Q</div>",,ospan,letter,rnRIr4p5h0VjZiHGRo0hFlSMeay1,html-keyboard-response,66,680150,0.0-46.0-0.0-2.0-3.0,,,,,,,,,,,,,,593f105f02d1cc0001071a72,15:10:47,03/04/2024
6156.799999999814,"<div class = numbox><p style=""font-size: 2.4rem"">Please recall the letters you saw to the best of your ability. If you do not remember a particular letter, use the SKIP button.<br><b>(When you are ready to lock in your answer, press ENTER)</b></p><button id = button_1 class = ""square num-button"" onclick = ""recordClick(this)""><div class = content><div class = numbers>C</div></div></button><button id = button_2 class = ""square num-button"" onclick = ""recordClick(this)""><div class = content><div class = numbers>G</div></div></button><button id = button_3 class = ""square num-button"" onclick = ""recordClick(this)""><div class = content><div class = numbers>H</div></div></button><button id = button_4 class = ""square num-button"" onclick = ""recordClick(this)""><div class = content><div class = numbers>J</div></div></button><button id = button_5 class = ""square num-button"" onclick = ""recordClick(this)""><div class = content><div class = numbers>K</div></div></button><button id = button_6 class = ""square num-button"" onclick = ""recordClick(this)""><div class = content><div class = numbers>L</div></div></button><button id = button_7 class = ""square num-button"" onclick = ""recordClick(this)""><div class = content><div class = numbers>N</div></div></button><button id = button_8 class = ""square num-button"" onclick = ""recordClick(this)""><div class = content><div class = numbers>P</div></div></button><button id = button_9 class = ""square num-button"" onclick = ""recordClick(this)""><div class = content><div class = numbers>Q</div></div></button><button id = button_10 class = ""square num-button"" onclick = ""recordClick(this)""><div class = content><div class = numbers>R</div></div></button><button id = button_11 class = ""square num-button"" onclick = ""recordClick(this)""><div class = content><div class = numbers>S</div></div></button><button id = button_12 class = ""square num-button"" onclick = ""recordClick(this)""><div class = content><div class = numbers>Y</div></div></button><button class = clear_button id = ""ClearButton"" onclick = ""clearResponse()"">BACKSPACE</button><button class = blank_button id = ""BlankButton"" onclick = ""blankResponse()"">SKIP</button><p style=""font-size: 2.4rem""><u><b>Current Answer:</b></u></p><br><br><div id=echoed_txt style=""font-size: 5rem; color:blue;""><b></b></div></div>",enter,ospan,retrieval,rnRIr4p5h0VjZiHGRo0hFlSMeay1,html-keyboard-response,67,687071,0.0-46.0-0.0-2.0-4.0,NA,NA,NA,3.0,"[""R"",""C"",""Q""]","[""R"",""C"",""Q""]",1.0,3.0,"['<font color=""green"">R</font>', '<font color=""green"">C</font>', '<font color=""green"">Q</font>']",,,,,593f105f02d1cc0001071a72,15:10:47,03/04/2024
2436.4000000003725,"['<p style=""font-size:44px"">Letters:<br><br><br><font color=""green"">R</font> <font color=""green"">C</font> <font color=""green"">Q</font></p><br><br>']",0,ospan,practice_feedback,rnRIr4p5h0VjZiHGRo0hFlSMeay1,html-button-response,68,690018,0.0-46.0-0.0-2.0-5.0,,,,,,,,,,,,,,593f105f02d1cc0001071a72,15:10:47,03/04/2024
17368.799999999814,"<div class = 'left_align' style='font-size: 3.25rem; line-height: 1.3;'>Now you will practice doing the <b>symmetry judgment part</b> of the experiment.<br><br>A black and white grid picture will appear on the screen and you have to judge if it is <br>symmetrical or asymetrical.<br><br>A picture is 'mirror' symmetrical if its left half is identical to the right half when flipped.<br>Here are examples of a symmetrical and an asymetrical picture:<br><br><center><img src='Stimuli/img/symm_instructions_extra.png' style='height:420px; width:900'></img></center><br>To judge symmetry, imagine you were to fold each picture down the middle, like a book –<br>would the left half match the right half when folded onto each other?<br><br></div><br>",0,ospan,instruct,rnRIr4p5h0VjZiHGRo0hFlSMeay1,html-button-response,69,707401,0.0-46.0-1.0-0.0-0.0,,,,,,,,,,,,,,593f105f02d1cc0001071a72,15:10:47,03/04/2024
3234.7000000001863,"<div class = 'left_align' style='font-size: 3.25rem; line-height: 1.3;'>When you have viewed the picture and determined whether it is symmetrical or not,<br>you can <b>click the Yes or No button</b> below to answer.<br><br>If you take longer than 15 seconds, it will continue automatically<br>and record the answer as an error.</div><br>",0,ospan,instruct,rnRIr4p5h0VjZiHGRo0hFlSMeay1,html-button-response,70,710896,0.0-46.0-1.0-0.0-1.0,,,,,,,,,,,,,,593f105f02d1cc0001071a72,15:10:47,03/04/2024
1430.4000000003725,"<div class = 'left_align' style='font-size: 3.25rem; line-height: 1.3;'>It is <b>very</b> important that you make the symmetry judgment correctly.<br><br>It is also important that you try and judge the picture as quickly as you can.<br><br>When you are ready, click on the button below to try some practice problems.</div><br><br><br><br>",0,ospan,instruct,rnRIr4p5h0VjZiHGRo0hFlSMeay1,html-button-response,71,712586,0.0-46.0-1.0-0.0-2.0,,,,,,,,,,,,,,593f105f02d1cc0001071a72,15:10:47,03/04/2024
3610.0,,,ospan,symmetry,rnRIr4p5h0VjZiHGRo0hFlSMeay1,symmetry-judgement-task,72,717546,0.0-46.0-1.0-1.0-0.0,,,,,,,,,,1.0,1.0,,,593f105f02d1cc0001071a72,15:10:47,03/04/2024
,"<p style=""color:green; font-size: 35px"">Correct</p>",,ospan,feedback,rnRIr4p5h0VjZiHGRo0hFlSMeay1,html-keyboard-response,73,718306,0.0-46.0-1.0-1.0-1.0,,,,,,,,,,,,,,593f105f02d1cc0001071a72,15:10:47,03/04/2024
2358.0,,,ospan,symmetry,rnRIr4p5h0VjZiHGRo0hFlSMeay1,symmetry-judgement-task,74,725611,0.0-46.0-1.0-1.0-2.0,,,,,,,,,,1.0,1.0,,,593f105f02d1cc0001071a72,15:10:47,03/04/2024
,"<p style=""color:green; font-size: 35px"">Correct</p>",,ospan,feedback,rnRIr4p5h0VjZiHGRo0hFlSMeay1,html-keyboard-response,75,726370,0.0-46.0-1.0-1.0-3.0,,,,,,,,,,,,,,593f105f02d1cc0001071a72,15:10:47,03/04/2024
2232.0,,,ospan,symmetry,rnRIr4p5h0VjZiHGRo0hFlSMeay1,symmetry-judgement-task,76,733740,0.0-46.0-1.0-1.0-4.0,,,,,,,,,,1.0,1.0,,,593f105f02d1cc0001071a72,15:10:47,03/04/2024
,"<p style=""color:green; font-size: 35px"">Correct</p>",,ospan,feedback,rnRIr4p5h0VjZiHGRo0hFlSMeay1,html-keyboard-response,77,734499,0.0-46.0-1.0-1.0-5.0,,,,,,,,,,,,,,593f105f02d1cc0001071a72,15:10:47,03/04/2024
1922.7000000001863,"<p style=""font-size: 3rem;"">You responded correctly on 3 of 3 symmetry judgments. Good job!</p><br><br>",0,ospan,practice,rnRIr4p5h0VjZiHGRo0hFlSMeay1,html-button-response,78,738436,0.0-46.0-1.0-2.0,,,,,,,,,,,,,,593f105f02d1cc0001071a72,15:10:47,03/04/2024
7968.0,"<div class = 'left_align' style='font-size: 3.25rem; line-height: 1.3;'>Now you will practice doing both parts of the experiment at the same time.<br><br>In the next practice set, you will be given one grid picture to judge.<br>Then letter will appear on the screen. Try to remember the letter.<br><br>It is <b>very important</b> to make the symmetry judgment as quickly and accurately as possible.<br><br>Just as before, once you have make the symmetry judgment, you can click Yes or No.<br><b>Note that you will no longer see Correct or Incorrect feedback.</div><br><br><br><br>",0,ospan,instruct,rnRIr4p5h0VjZiHGRo0hFlSMeay1,html-button-response,79,746665,0.0-46.0-2.0-0.0-0.0,,,,,,,,,,,,,,593f105f02d1cc0001071a72,15:10:47,03/04/2024
1395.800000000745,"<div class = 'left_align' style='font-size: 3.25rem; line-height: 1.3;'>After the letter goes away, another grid picture will appear, and then<br>another letter.<br><br>At the end of each set of letters and grids, you will recall the letters to the best<br>of your ability. Remember, try your best to get the letters in the correct order.<br><br>It is important to <b>quickly</b> and <b>accurately</b> make the symmetry judgments.</div><br><br><br><br>",0,ospan,instruct,rnRIr4p5h0VjZiHGRo0hFlSMeay1,html-button-response,80,748323,0.0-46.0-2.0-0.0-1.0,,,,,,,,,,,,,,593f105f02d1cc0001071a72,15:10:47,03/04/2024
8081.299999999814,"<div class = 'left_align' style='font-size: 3.25rem; line-height: 1.3;'>On the feedback screen, if you are not doing well at the symmetry judgments,<br>you will also see a warning in the middle. This indicates your percent <br>correct for the grid pictures for the entire experiment.<br><br>It is <b>very</b> important for you to keep accuracy at least at 85%: <u>We can only use<br>data where the participant was at least 85% accurate on the judgments.</u> Therefore,<br> please try your best to perform well on the symmetry judgments, <b>at the same time</b><br>doing your best to recall as many letters as possible.<br><br>Click the button to try some practice problems.</div><br><br><br><br>",0,ospan,instruct,rnRIr4p5h0VjZiHGRo0hFlSMeay1,html-button-response,81,756668,0.0-46.0-2.0-0.0-2.0,,,,,,,,,,,,,,593f105f02d1cc0001071a72,15:10:47,03/04/2024
,"<p style=""font-size:75px;"">...</p>",,ospan,iti,rnRIr4p5h0VjZiHGRo0hFlSMeay1,html-keyboard-response,82,757927,0.0-46.0-2.0-1.0-0.0,,,,,,,,,,,,,,593f105f02d1cc0001071a72,15:10:47,03/04/2024
1591.0,,,ospan,symmetry,rnRIr4p5h0VjZiHGRo0hFlSMeay1,symmetry-judgement-task,83,763274,0.0-46.0-2.0-1.0-1.0-0.0,,,,,,,,,,1.0,1.0,,,593f105f02d1cc0001071a72,15:10:47,03/04/2024
,"<div style=""font-size: 10rem; color: #0000FF"">C</div>",,ospan,letter,rnRIr4p5h0VjZiHGRo0hFlSMeay1,html-keyboard-response,84,764284,0.0-46.0-2.0-1.0-1.0-1.0,,,,,,,,,,,,,,593f105f02d1cc0001071a72,15:10:47,03/04/2024
1733.0,,,ospan,symmetry,rnRIr4p5h0VjZiHGRo0hFlSMeay1,symmetry-judgement-task,85,770052,0.0-46.0-2.0-1.0-1.0-2.0,,,,,,,,,,1.0,1.0,,,593f105f02d1cc0001071a72,15:10:47,03/04/2024
,"<div style=""font-size: 10rem; color: #0000FF"">S</div>",,ospan,letter,rnRIr4p5h0VjZiHGRo0hFlSMeay1,html-keyboard-response,86,771061,0.0-46.0-2.0-1.0-1.0-3.0,,,,,,,,,,,,,,593f105f02d1cc0001071a72,15:10:47,03/04/2024
1433.0,,,ospan,symmetry,rnRIr4p5h0VjZiHGRo0hFlSMeay1,symmetry-judgement-task,87,776811,0.0-46.0-2.0-1.0-1.0-4.0,,,,,,,,,,1.0,1.0,,,593f105f02d1cc0001071a72,15:10:47,03/04/2024
,"<div style=""font-size: 10rem; color: #0000FF"">H</div>",,ospan,letter,rnRIr4p5h0VjZiHGRo0hFlSMeay1,html-keyboard-response,88,777818,0.0-46.0-2.0-1.0-1.0-5.0,,,,,,,,,,,,,,593f105f02d1cc0001071a72,15:10:47,03/04/2024
5926.700000000186,"<div class = numbox><p style=""font-size: 2.4rem"">Please recall the letters you saw to the best of your ability. If you do not remember a particular letter, use the SKIP button.<br><b>(When you are ready to lock in your answer, press ENTER)</b></p><button id = button_1 class = ""square num-button"" onclick = ""recordClick(this)""><div class = content><div class = numbers>C</div></div></button><button id = button_2 class = ""square num-button"" onclick = ""recordClick(this)""><div class = content><div class = numbers>G</div></div></button><button id = button_3 class = ""square num-button"" onclick = ""recordClick(this)""><div class = content><div class = numbers>H</div></div></button><button id = button_4 class = ""square num-button"" onclick = ""recordClick(this)""><div class = content><div class = numbers>J</div></div></button><button id = button_5 class = ""square num-button"" onclick = ""recordClick(this)""><div class = content><div class = numbers>K</div></div></button><button id = button_6 class = ""square num-button"" onclick = ""recordClick(this)""><div class = content><div class = numbers>L</div></div></button><button id = button_7 class = ""square num-button"" onclick = ""recordClick(this)""><div class = content><div class = numbers>N</div></div></button><button id = button_8 class = ""square num-button"" onclick = ""recordClick(this)""><div class = content><div class = numbers>P</div></div></button><button id = button_9 class = ""square num-button"" onclick = ""recordClick(this)""><div class = content><div class = numbers>Q</div></div></button><button id = button_10 class = ""square num-button"" onclick = ""recordClick(this)""><div class = content><div class = numbers>R</div></div></button><button id = button_11 class = ""square num-button"" onclick = ""recordClick(this)""><div class = content><div class = numbers>S</div></div></button><button id = button_12 class = ""square num-button"" onclick = ""recordClick(this)""><div class = content><div class = numbers>Y</div></div></button><button class = clear_button id = ""ClearButton"" onclick = ""clearResponse()"">BACKSPACE</button><button class = blank_button id = ""BlankButton"" onclick = ""blankResponse()"">SKIP</button><p style=""font-size: 2.4rem""><u><b>Current Answer:</b></u></p><br><br><div id=echoed_txt style=""font-size: 5rem; color:blue;""><b></b></div></div>",enter,ospan,retrieval,rnRIr4p5h0VjZiHGRo0hFlSMeay1,html-keyboard-response,89,784510,0.0-46.0-2.0-1.0-2.0-0.0,NA,NA,NA,3.0,"[""C"",""S"",""H""]","[""C"",""S"",""H""]",1.0,3.0,"['<font color=""green"">C</font>', '<font color=""green"">S</font>', '<font color=""green"">H</font>']",,,,,593f105f02d1cc0001071a72,15:10:47,03/04/2024
3022.2000000001863,"['<p style=""font-size:44px"">Letters:<br><br><br><font color=""green"">C</font> <font color=""green"">S</font> <font color=""green"">H</font></p><br><br><p style=""font-size:30px"">Symmetry:<br><br><font color=""green"">100%</font></p><br><br>']",0,ospan,practice_feedback,rnRIr4p5h0VjZiHGRo0hFlSMeay1,html-button-response,90,788051,0.0-46.0-2.0-1.0-2.0-1.0,,,,,,,,,,,,,,593f105f02d1cc0001071a72,15:10:47,03/04/2024
,"<p style=""font-size:75px;"">...</p>",,ospan,iti,rnRIr4p5h0VjZiHGRo0hFlSMeay1,html-keyboard-response,91,789063,0.0-46.0-2.0-2.0-0.0,,,,,,,,,,,,,,593f105f02d1cc0001071a72,15:10:47,03/04/2024
2444.0,,,ospan,symmetry,rnRIr4p5h0VjZiHGRo0hFlSMeay1,symmetry-judgement-task,92,795233,0.0-46.0-2.0-2.0-1.0-0.0,,,,,,,,,,1.0,1.0,,,593f105f02d1cc0001071a72,15:10:47,03/04/2024
,"<div style=""font-size: 10rem; color: #0000FF"">S</div>",,ospan,letter,rnRIr4p5h0VjZiHGRo0hFlSMeay1,html-keyboard-response,93,796240,0.0-46.0-2.0-2.0-1.0-1.0,,,,,,,,,,,,,,593f105f02d1cc0001071a72,15:10:47,03/04/2024
1575.0,,,ospan,symmetry,rnRIr4p5h0VjZiHGRo0hFlSMeay1,symmetry-judgement-task,94,801939,0.0-46.0-2.0-2.0-1.0-2.0,,,,,,,,,,1.0,1.0,,,593f105f02d1cc0001071a72,15:10:47,03/04/2024
,"<div style=""font-size: 10rem; color: #0000FF"">L</div>",,ospan,letter,rnRIr4p5h0VjZiHGRo0hFlSMeay1,html-keyboard-response,95,802953,0.0-46.0-2.0-2.0-1.0-3.0,,,,,,,,,,,,,,593f105f02d1cc0001071a72,15:10:47,03/04/2024
1851.0,,,ospan,symmetry,rnRIr4p5h0VjZiHGRo0hFlSMeay1,symmetry-judgement-task,96,809037,0.0-46.0-2.0-2.0-1.0-4.0,,,,,,,,,,1.0,1.0,,,593f105f02d1cc0001071a72,15:10:47,03/04/2024
,"<div style=""font-size: 10rem; color: #0000FF"">J</div>",,ospan,letter,rnRIr4p5h0VjZiHGRo0hFlSMeay1,html-keyboard-response,97,810045,0.0-46.0-2.0-2.0-1.0-5.0,,,,,,,,,,,,,,593f105f02d1cc0001071a72,15:10:47,03/04/2024
4838.0,"<div class = numbox><p style=""font-size: 2.4rem"">Please recall the letters you saw to the best of your ability. If you do not remember a particular letter, use the SKIP button.<br><b>(When you are ready to lock in your answer, press ENTER)</b></p><button id = button_1 class = ""square num-button"" onclick = ""recordClick(this)""><div class = content><div class = numbers>C</div></div></button><button id = button_2 class = ""square num-button"" onclick = ""recordClick(this)""><div class = content><div class = numbers>G</div></div></button><button id = button_3 class = ""square num-button"" onclick = ""recordClick(this)""><div class = content><div class = numbers>H</div></div></button><button id = button_4 class = ""square num-button"" onclick = ""recordClick(this)""><div class = content><div class = numbers>J</div></div></button><button id = button_5 class = ""square num-button"" onclick = ""recordClick(this)""><div class = content><div class = numbers>K</div></div></button><button id = button_6 class = ""square num-button"" onclick = ""recordClick(this)""><div class = content><div class = numbers>L</div></div></button><button id = button_7 class = ""square num-button"" onclick = ""recordClick(this)""><div class = content><div class = numbers>N</div></div></button><button id = button_8 class = ""square num-button"" onclick = ""recordClick(this)""><div class = content><div class = numbers>P</div></div></button><button id = button_9 class = ""square num-button"" onclick = ""recordClick(this)""><div class = content><div class = numbers>Q</div></div></button><button id = button_10 class = ""square num-button"" onclick = ""recordClick(this)""><div class = content><div class = numbers>R</div></div></button><button id = button_11 class = ""square num-button"" onclick = ""recordClick(this)""><div class = content><div class = numbers>S</div></div></button><button id = button_12 class = ""square num-button"" onclick = ""recordClick(this)""><div class = content><div class = numbers>Y</div></div></button><button class = clear_button id = ""ClearButton"" onclick = ""clearResponse()"">BACKSPACE</button><button class = blank_button id = ""BlankButton"" onclick = ""blankResponse()"">SKIP</button><p style=""font-size: 2.4rem""><u><b>Current Answer:</b></u></p><br><br><div id=echoed_txt style=""font-size: 5rem; color:blue;""><b></b></div></div>",enter,ospan,retrieval,rnRIr4p5h0VjZiHGRo0hFlSMeay1,html-keyboard-response,98,815647,0.0-46.0-2.0-2.0-2.0-0.0,NA,NA,NA,3.0,"[""S"",""L"",""J""]","[""S"",""L"",""J""]",1.0,3.0,"['<font color=""green"">S</font>', '<font color=""green"">L</font>', '<font color=""green"">J</font>']",,,,,593f105f02d1cc0001071a72,15:10:47,03/04/2024
2098.7000000001863,"['<p style=""font-size:44px"">Letters:<br><br><br><font color=""green"">S</font> <font color=""green"">L</font> <font color=""green"">J</font></p><br><br><p style=""font-size:30px"">Symmetry:<br><br><font color=""green"">100%</font></p><br><br>']",0,ospan,practice_feedback,rnRIr4p5h0VjZiHGRo0hFlSMeay1,html-button-response,99,818262,0.0-46.0-2.0-2.0-2.0-1.0,,,,,,,,,,,,,,593f105f02d1cc0001071a72,15:10:47,03/04/2024
6397.899999999441,"<div class = 'left_align' style='font-size: 3rem; line-height: 1.3;'><b>Great work! That is the end of practice.</b><br><br>The real trials will look just like the practice trials you just completed.<br><br><u>Here, you will not see feedback</u>. First, you will see an grid picture to judge,<br>then a letter to remember. When the recall screen appears, report the letters in the<br>order presented. If you forget a letter, remember to use the <b>blank</b> button to move to the<br>next letter. Some of the sets will have more symmetry grids and letters than others.<br><br>It is important that you do your best on both the symmetry judgments and the letter recall<br>parts of the experiment. For for the symmetry judgments, try to work as <b>quickly</b> and <br>as <b>accurately</b> as possible. Remember to keep your symmetry accuracy at 85% or above.<br><br><b>For the letters, do NOT use any external aid (e.g., writing on paper, electronic device).</b><br><br>It is <u>very important</u> to our experiment to have a <b>true</b> view of your real performance.<br><br>Do not worry if you miss some when it gets hard! This task is meant to be very challenging!<br><br>Click the button to begin.</div><br><br><br><br>",0,ospan,starting_real_here,rnRIr4p5h0VjZiHGRo0hFlSMeay1,html-button-response,100,824678,0.0-46.0-2.0-3.0,,,,,,,,,,,,,,593f105f02d1cc0001071a72,15:10:47,03/04/2024
,"<p style=""font-size:75px;"">...</p>",,ospan,iti,rnRIr4p5h0VjZiHGRo0hFlSMeay1,html-keyboard-response,101,825939,0.0-46.0-3.0-0.0-0.0,,,,,,,,,,,,,,593f105f02d1cc0001071a72,15:10:47,03/04/2024
3452.0,,,ospan,symmetry,rnRIr4p5h0VjZiHGRo0hFlSMeay1,symmetry-judgement-task,102,830857,0.0-46.0-3.0-0.0-1.0-0.0,,,,,,,,,,1.0,1.0,,,593f105f02d1cc0001071a72,15:10:47,03/04/2024
,"<div style=""font-size: 10rem; color: #0000FF"">L</div>",,ospan,letter,rnRIr4p5h0VjZiHGRo0hFlSMeay1,html-keyboard-response,103,831868,0.0-46.0-3.0-0.0-1.0-1.0,,,,,,,,,,,,,,593f105f02d1cc0001071a72,15:10:47,03/04/2024
1304.0,,,ospan,symmetry,rnRIr4p5h0VjZiHGRo0hFlSMeay1,symmetry-judgement-task,104,837510,0.0-46.0-3.0-0.0-1.0-2.0,,,,,,,,,,1.0,1.0,,,593f105f02d1cc0001071a72,15:10:47,03/04/2024
,"<div style=""font-size: 10rem; color: #0000FF"">N</div>",,ospan,letter,rnRIr4p5h0VjZiHGRo0hFlSMeay1,html-keyboard-response,105,838516,0.0-46.0-3.0-0.0-1.0-3.0,,,,,,,,,,,,,,593f105f02d1cc0001071a72,15:10:47,03/04/2024
1402.0,,,ospan,symmetry,rnRIr4p5h0VjZiHGRo0hFlSMeay1,symmetry-judgement-task,106,843999,0.0-46.0-3.0-0.0-1.0-4.0,,,,,,,,,,1.0,1.0,,,593f105f02d1cc0001071a72,15:10:47,03/04/2024
,"<div style=""font-size: 10rem; color: #0000FF"">S</div>",,ospan,letter,rnRIr4p5h0VjZiHGRo0hFlSMeay1,html-keyboard-response,107,845015,0.0-46.0-3.0-0.0-1.0-5.0,,,,,,,,,,,,,,593f105f02d1cc0001071a72,15:10:47,03/04/2024
3997.4000000003725,"<div class = numbox><p style=""font-size: 2.4rem"">Please recall the letters you saw to the best of your ability. If you do not remember a particular letter, use the SKIP button.<br><b>(When you are ready to lock in your answer, press ENTER)</b></p><button id = button_1 class = ""square num-button"" onclick = ""recordClick(this)""><div class = content><div class = numbers>C</div></div></button><button id = button_2 class = ""square num-button"" onclick = ""recordClick(this)""><div class = content><div class = numbers>G</div></div></button><button id = button_3 class = ""square num-button"" onclick = ""recordClick(this)""><div class = content><div class = numbers>H</div></div></button><button id = button_4 class = ""square num-button"" onclick = ""recordClick(this)""><div class = content><div class = numbers>J</div></div></button><button id = button_5 class = ""square num-button"" onclick = ""recordClick(this)""><div class = content><div class = numbers>K</div></div></button><button id = button_6 class = ""square num-button"" onclick = ""recordClick(this)""><div class = content><div class = numbers>L</div></div></button><button id = button_7 class = ""square num-button"" onclick = ""recordClick(this)""><div class = content><div class = numbers>N</div></div></button><button id = button_8 class = ""square num-button"" onclick = ""recordClick(this)""><div class = content><div class = numbers>P</div></div></button><button id = button_9 class = ""square num-button"" onclick = ""recordClick(this)""><div class = content><div class = numbers>Q</div></div></button><button id = button_10 class = ""square num-button"" onclick = ""recordClick(this)""><div class = content><div class = numbers>R</div></div></button><button id = button_11 class = ""square num-button"" onclick = ""recordClick(this)""><div class = content><div class = numbers>S</div></div></button><button id = button_12 class = ""square num-button"" onclick = ""recordClick(this)""><div class = content><div class = numbers>Y</div></div></button><button class = clear_button id = ""ClearButton"" onclick = ""clearResponse()"">BACKSPACE</button><button class = blank_button id = ""BlankButton"" onclick = ""blankResponse()"">SKIP</button><p style=""font-size: 2.4rem""><u><b>Current Answer:</b></u></p><br><br><div id=echoed_txt style=""font-size: 5rem; color:blue;""><b></b></div></div>",enter,ospan,retrieval,rnRIr4p5h0VjZiHGRo0hFlSMeay1,html-keyboard-response,108,849778,0.0-46.0-3.0-0.0-2.0,3,3,3,3.0,"[""L"",""N"",""S""]","[""L"",""N"",""S""]",1.0,3.0,,,,,,593f105f02d1cc0001071a72,15:10:47,03/04/2024
2212.699999999255,[''],0,ospan,feedback,rnRIr4p5h0VjZiHGRo0hFlSMeay1,html-button-response,109,852503,0.0-46.0-3.0-0.0-3.0,,,,,,,,,,,,100.0,0.0,593f105f02d1cc0001071a72,15:10:47,03/04/2024
,"<p style=""font-size:75px;"">...</p>",,ospan,iti,rnRIr4p5h0VjZiHGRo0hFlSMeay1,html-keyboard-response,110,853516,0.0-46.0-4.0-0.0-0.0,,,,,,,,,,,,,,593f105f02d1cc0001071a72,15:10:47,03/04/2024
1645.0,,,ospan,symmetry,rnRIr4p5h0VjZiHGRo0hFlSMeay1,symmetry-judgement-task,111,858610,0.0-46.0-4.0-0.0-1.0-0.0,,,,,,,,,,1.0,1.0,,,593f105f02d1cc0001071a72,15:10:47,03/04/2024
,"<div style=""font-size: 10rem; color: #0000FF"">P</div>",,ospan,letter,rnRIr4p5h0VjZiHGRo0hFlSMeay1,html-keyboard-response,112,859621,0.0-46.0-4.0-0.0-1.0-1.0,,,,,,,,,,,,,,593f105f02d1cc0001071a72,15:10:47,03/04/2024
1828.0,,,ospan,symmetry,rnRIr4p5h0VjZiHGRo0hFlSMeay1,symmetry-judgement-task,113,865654,0.0-46.0-4.0-0.0-1.0-2.0,,,,,,,,,,1.0,1.0,,,593f105f02d1cc0001071a72,15:10:47,03/04/2024
,"<div style=""font-size: 10rem; color: #0000FF"">H</div>",,ospan,letter,rnRIr4p5h0VjZiHGRo0hFlSMeay1,html-keyboard-response,114,866663,0.0-46.0-4.0-0.0-1.0-3.0,,,,,,,,,,,,,,593f105f02d1cc0001071a72,15:10:47,03/04/2024
1814.0,,,ospan,symmetry,rnRIr4p5h0VjZiHGRo0hFlSMeay1,symmetry-judgement-task,115,872946,0.0-46.0-4.0-0.0-1.0-4.0,,,,,,,,,,1.0,1.0,,,593f105f02d1cc0001071a72,15:10:47,03/04/2024
,"<div style=""font-size: 10rem; color: #0000FF"">G</div>",,ospan,letter,rnRIr4p5h0VjZiHGRo0hFlSMeay1,html-keyboard-response,116,873958,0.0-46.0-4.0-0.0-1.0-5.0,,,,,,,,,,,,,,593f105f02d1cc0001071a72,15:10:47,03/04/2024
2230.0,,,ospan,symmetry,rnRIr4p5h0VjZiHGRo0hFlSMeay1,symmetry-judgement-task,117,880421,0.0-46.0-4.0-0.0-1.0-6.0,,,,,,,,,,1.0,1.0,,,593f105f02d1cc0001071a72,15:10:47,03/04/2024
,"<div style=""font-size: 10rem; color: #0000FF"">J</div>",,ospan,letter,rnRIr4p5h0VjZiHGRo0hFlSMeay1,html-keyboard-response,118,881432,0.0-46.0-4.0-0.0-1.0-7.0,,,,,,,,,,,,,,593f105f02d1cc0001071a72,15:10:47,03/04/2024
18460.599999999627,"<div class = numbox><p style=""font-size: 2.4rem"">Please recall the letters you saw to the best of your ability. If you do not remember a particular letter, use the SKIP button.<br><b>(When you are ready to lock in your answer, press ENTER)</b></p><button id = button_1 class = ""square num-button"" onclick = ""recordClick(this)""><div class = content><div class = numbers>C</div></div></button><button id = button_2 class = ""square num-button"" onclick = ""recordClick(this)""><div class = content><div class = numbers>G</div></div></button><button id = button_3 class = ""square num-button"" onclick = ""recordClick(this)""><div class = content><div class = numbers>H</div></div></button><button id = button_4 class = ""square num-button"" onclick = ""recordClick(this)""><div class = content><div class = numbers>J</div></div></button><button id = button_5 class = ""square num-button"" onclick = ""recordClick(this)""><div class = content><div class = numbers>K</div></div></button><button id = button_6 class = ""square num-button"" onclick = ""recordClick(this)""><div class = content><div class = numbers>L</div></div></button><button id = button_7 class = ""square num-button"" onclick = ""recordClick(this)""><div class = content><div class = numbers>N</div></div></button><button id = button_8 class = ""square num-button"" onclick = ""recordClick(this)""><div class = content><div class = numbers>P</div></div></button><button id = button_9 class = ""square num-button"" onclick = ""recordClick(this)""><div class = content><div class = numbers>Q</div></div></button><button id = button_10 class = ""square num-button"" onclick = ""recordClick(this)""><div class = content><div class = numbers>R</div></div></button><button id = button_11 class = ""square num-button"" onclick = ""recordClick(this)""><div class = content><div class = numbers>S</div></div></button><button id = button_12 class = ""square num-button"" onclick = ""recordClick(this)""><div class = content><div class = numbers>Y</div></div></button><button class = clear_button id = ""ClearButton"" onclick = ""clearResponse()"">BACKSPACE</button><button class = blank_button id = ""BlankButton"" onclick = ""blankResponse()"">SKIP</button><p style=""font-size: 2.4rem""><u><b>Current Answer:</b></u></p><br><br><div id=echoed_txt style=""font-size: 5rem; color:blue;""><b></b></div></div>",enter,ospan,retrieval,rnRIr4p5h0VjZiHGRo0hFlSMeay1,html-keyboard-response,119,900663,0.0-46.0-4.0-0.0-2.0,7,7,7,4.0,"[""P"",""H"",""G"",""J""]","[""P"",""H"",""G"",""J""]",1.0,4.0,,,,,,593f105f02d1cc0001071a72,15:10:47,03/04/2024
1871.0,[''],0,ospan,feedback,rnRIr4p5h0VjZiHGRo0hFlSMeay1,html-button-response,120,903047,0.0-46.0-4.0-0.0-3.0,,,,,,,,,,,,100.0,0.0,593f105f02d1cc0001071a72,15:10:47,03/04/2024
