rt,stimulus,response,exp_name,exp_stage,subjectID,trial_type,trial_index,time_elapsed,internal_node_id,ospan_shown,ospan_total,ospan_abs,length,resp_actual,resp_correct,full_correct,num_correct,feedback,accuracy,correct,math_acc,math_warning,databaseID,prolificID,start_time,date
1476.8999999761581,<div class = 'left_align' style='font-size: 3.25rem; line-height: 1.3;'><p class = 'center_align'><b>Welcome to the Symmetry and Memory Task</b><br><br><br><br></p>Press 'continue' to show the instructions.<br><br><br><br></div>,0,ospan,instruct,Xp76wd83DzLGEQcDtbios6YFz4Q2,html-button-response,54,394542,0.0-46.0-0.0-0.0-0.0,,,,,,,,,,,,,,,5f467b8d74eeef0365ffb26e,15:52:17,04/04/2024
4690.300000071526,"<div class = 'left_align' style='font-size: 3.25rem; line-height: 1.3;'><p class = 'center_align'><b>Symmetry and Memory Task</b><br><br></p>In this task, you will try to memorize letters you see on the screen<br>while you also view black and white grid pictures.<br><br>In the next few minutes, you will have some practice to get you familiar<br>with how the task works.<br><br>It may be difficult sometimes, but please do not worry about making mistakes!<br><br>We will begin by practicing the letter part of the task.<br><br><br><br></div>",0,ospan,instruct,Xp76wd83DzLGEQcDtbios6YFz4Q2,html-button-response,55,399485,0.0-46.0-0.0-0.0-1.0,,,,,,,,,,,,,,,5f467b8d74eeef0365ffb26e,15:52:17,04/04/2024
4227.399999976158,"<div class = 'left_align' style='font-size: 3.25rem; line-height: 1.3;'>For this practice part, letters will appear on the screen one at a time.<br><br>Try to remember each letter in the order presented.<br><br>After some letters have been shown, you will see a response screen. Your<br>goal is to report the letters you saw <b>in order</b>. If you do not remember<br>a particular letter, you will have the option to leave it blank.<br><br><br><br></div>",0,ospan,instruct,Xp76wd83DzLGEQcDtbios6YFz4Q2,html-button-response,56,403966,0.0-46.0-0.0-0.0-2.0,,,,,,,,,,,,,,,5f467b8d74eeef0365ffb26e,15:52:17,04/04/2024
2215.0,"<div class = 'left_align' style='font-size: 3.25rem; line-height: 1.3;'>Remember, it is very important to get the letters in the same<br>order as you see them.<br><br>When you are ready, you may begin the letter practice.</div><br><br><br><br>",0,ospan,instruct,Xp76wd83DzLGEQcDtbios6YFz4Q2,html-button-response,57,406434,0.0-46.0-0.0-0.0-3.0,,,,,,,,,,,,,,,5f467b8d74eeef0365ffb26e,15:52:17,04/04/2024
,"<p style=""font-size:75px;"">...</p>",,ospan,iti,Xp76wd83DzLGEQcDtbios6YFz4Q2,html-keyboard-response,58,407688,0.0-46.0-0.0-1.0-0.0,,,,,,,,,,,,,,,5f467b8d74eeef0365ffb26e,15:52:17,04/04/2024
,"<div style=""font-size: 10rem; color: #0000FF"">J</div>",,ospan,letter,Xp76wd83DzLGEQcDtbios6YFz4Q2,html-keyboard-response,59,408692,0.0-46.0-0.0-1.0-1.0,,,,,,,,,,,,,,,5f467b8d74eeef0365ffb26e,15:52:17,04/04/2024
,"<div style=""font-size: 10rem; color: #0000FF"">N</div>",,ospan,letter,Xp76wd83DzLGEQcDtbios6YFz4Q2,html-keyboard-response,60,410447,0.0-46.0-0.0-1.0-2.0,,,,,,,,,,,,,,,5f467b8d74eeef0365ffb26e,15:52:17,04/04/2024
9680.0,"<div class = numbox><p style=""font-size: 2.4rem"">Please recall the letters you saw to the best of your ability. If you do not remember a particular letter, use the SKIP button.<br><b>(When you are ready to lock in your answer, press ENTER)</b></p><button id = button_1 class = ""square num-button"" onclick = ""recordClick(this)""><div class = content><div class = numbers>C</div></div></button><button id = button_2 class = ""square num-button"" onclick = ""recordClick(this)""><div class = content><div class = numbers>G</div></div></button><button id = button_3 class = ""square num-button"" onclick = ""recordClick(this)""><div class = content><div class = numbers>H</div></div></button><button id = button_4 class = ""square num-button"" onclick = ""recordClick(this)""><div class = content><div class = numbers>J</div></div></button><button id = button_5 class = ""square num-button"" onclick = ""recordClick(this)""><div class = content><div class = numbers>K</div></div></button><button id = button_6 class = ""square num-button"" onclick = ""recordClick(this)""><div class = content><div class = numbers>L</div></div></button><button id = button_7 class = ""square num-button"" onclick = ""recordClick(this)""><div class = content><div class = numbers>N</div></div></button><button id = button_8 class = ""square num-button"" onclick = ""recordClick(this)""><div class = content><div class = numbers>P</div></div></button><button id = button_9 class = ""square num-button"" onclick = ""recordClick(this)""><div class = content><div class = numbers>Q</div></div></button><button id = button_10 class = ""square num-button"" onclick = ""recordClick(this)""><div class = content><div class = numbers>R</div></div></button><button id = button_11 class = ""square num-button"" onclick = ""recordClick(this)""><div class = content><div class = numbers>S</div></div></button><button id = button_12 class = ""square num-button"" onclick = ""recordClick(this)""><div class = content><div class = numbers>Y</div></div></button><button class = clear_button id = ""ClearButton"" onclick = ""clearResponse()"">BACKSPACE</button><button class = blank_button id = ""BlankButton"" onclick = ""blankResponse()"">SKIP</button><p style=""font-size: 2.4rem""><u><b>Current Answer:</b></u></p><br><br><div id=echoed_txt style=""font-size: 5rem; color:blue;""><b></b></div></div>",enter,ospan,retrieval,Xp76wd83DzLGEQcDtbios6YFz4Q2,html-keyboard-response,61,420881,0.0-46.0-0.0-1.0-3.0,NA,NA,NA,2.0,"[""J"",""N""]","[""J"",""N""]",1.0,2.0,"['<font color=""green"">J</font>', '<font color=""green"">N</font>']",,,,,,5f467b8d74eeef0365ffb26e,15:52:17,04/04/2024
912.8999999761581,"['<p style=""font-size:44px"">Letters:<br><br><br><font color=""green"">J</font> <font color=""green"">N</font></p><br><br>']",0,ospan,practice_feedback,Xp76wd83DzLGEQcDtbios6YFz4Q2,html-button-response,62,422297,0.0-46.0-0.0-1.0-4.0,,,,,,,,,,,,,,,5f467b8d74eeef0365ffb26e,15:52:17,04/04/2024
,"<p style=""font-size:75px;"">...</p>",,ospan,iti,Xp76wd83DzLGEQcDtbios6YFz4Q2,html-keyboard-response,63,423300,0.0-46.0-0.0-2.0-0.0,,,,,,,,,,,,,,,5f467b8d74eeef0365ffb26e,15:52:17,04/04/2024
,"<div style=""font-size: 10rem; color: #0000FF"">R</div>",,ospan,letter,Xp76wd83DzLGEQcDtbios6YFz4Q2,html-keyboard-response,64,424302,0.0-46.0-0.0-2.0-1.0,,,,,,,,,,,,,,,5f467b8d74eeef0365ffb26e,15:52:17,04/04/2024
,"<div style=""font-size: 10rem; color: #0000FF"">Y</div>",,ospan,letter,Xp76wd83DzLGEQcDtbios6YFz4Q2,html-keyboard-response,65,426056,0.0-46.0-0.0-2.0-2.0,,,,,,,,,,,,,,,5f467b8d74eeef0365ffb26e,15:52:17,04/04/2024
,"<div style=""font-size: 10rem; color: #0000FF"">C</div>",,ospan,letter,Xp76wd83DzLGEQcDtbios6YFz4Q2,html-keyboard-response,66,427809,0.0-46.0-0.0-2.0-3.0,,,,,,,,,,,,,,,5f467b8d74eeef0365ffb26e,15:52:17,04/04/2024
6027.5,"<div class = numbox><p style=""font-size: 2.4rem"">Please recall the letters you saw to the best of your ability. If you do not remember a particular letter, use the SKIP button.<br><b>(When you are ready to lock in your answer, press ENTER)</b></p><button id = button_1 class = ""square num-button"" onclick = ""recordClick(this)""><div class = content><div class = numbers>C</div></div></button><button id = button_2 class = ""square num-button"" onclick = ""recordClick(this)""><div class = content><div class = numbers>G</div></div></button><button id = button_3 class = ""square num-button"" onclick = ""recordClick(this)""><div class = content><div class = numbers>H</div></div></button><button id = button_4 class = ""square num-button"" onclick = ""recordClick(this)""><div class = content><div class = numbers>J</div></div></button><button id = button_5 class = ""square num-button"" onclick = ""recordClick(this)""><div class = content><div class = numbers>K</div></div></button><button id = button_6 class = ""square num-button"" onclick = ""recordClick(this)""><div class = content><div class = numbers>L</div></div></button><button id = button_7 class = ""square num-button"" onclick = ""recordClick(this)""><div class = content><div class = numbers>N</div></div></button><button id = button_8 class = ""square num-button"" onclick = ""recordClick(this)""><div class = content><div class = numbers>P</div></div></button><button id = button_9 class = ""square num-button"" onclick = ""recordClick(this)""><div class = content><div class = numbers>Q</div></div></button><button id = button_10 class = ""square num-button"" onclick = ""recordClick(this)""><div class = content><div class = numbers>R</div></div></button><button id = button_11 class = ""square num-button"" onclick = ""recordClick(this)""><div class = content><div class = numbers>S</div></div></button><button id = button_12 class = ""square num-button"" onclick = ""recordClick(this)""><div class = content><div class = numbers>Y</div></div></button><button class = clear_button id = ""ClearButton"" onclick = ""clearResponse()"">BACKSPACE</button><button class = blank_button id = ""BlankButton"" onclick = ""blankResponse()"">SKIP</button><p style=""font-size: 2.4rem""><u><b>Current Answer:</b></u></p><br><br><div id=echoed_txt style=""font-size: 5rem; color:blue;""><b></b></div></div>",enter,ospan,retrieval,Xp76wd83DzLGEQcDtbios6YFz4Q2,html-keyboard-response,67,434588,0.0-46.0-0.0-2.0-4.0,NA,NA,NA,3.0,"[""R"",""N"",""Y"",""C""]","[""R"",""Y"",""C""]",0.0,1.0,"['<font color=""green"">R</font>', '<font color=""red"">Y</font>', '<font color=""red"">C</font>']",,,,,,5f467b8d74eeef0365ffb26e,15:52:17,04/04/2024
1991.7000000476837,"['<p style=""font-size:44px"">Letters:<br><br><br><font color=""green"">R</font> <font color=""red"">Y</font> <font color=""red"">C</font></p><br><br>']",0,ospan,practice_feedback,Xp76wd83DzLGEQcDtbios6YFz4Q2,html-button-response,68,437085,0.0-46.0-0.0-2.0-5.0,,,,,,,,,,,,,,,5f467b8d74eeef0365ffb26e,15:52:17,04/04/2024
9481.5,"<div class = 'left_align' style='font-size: 3.25rem; line-height: 1.3;'>Now you will practice doing the <b>symmetry judgment part</b> of the experiment.<br><br>A black and white grid picture will appear on the screen and you have to judge if it is <br>symmetrical or asymetrical.<br><br>A picture is 'mirror' symmetrical if its left half is identical to the right half when flipped.<br>Here are examples of a symmetrical and an asymetrical picture:<br><br><center><img src='Stimuli/img/symm_instructions_extra.png' style='height:420px; width:900'></img></center><br>To judge symmetry, imagine you were to fold each picture down the middle, like a book –<br>would the left half match the right half when folded onto each other?<br><br></div><br>",0,ospan,instruct,Xp76wd83DzLGEQcDtbios6YFz4Q2,html-button-response,69,446568,0.0-46.0-1.0-0.0-0.0,,,,,,,,,,,,,,,5f467b8d74eeef0365ffb26e,15:52:17,04/04/2024
3651.0,"<div class = 'left_align' style='font-size: 3.25rem; line-height: 1.3;'>When you have viewed the picture and determined whether it is symmetrical or not,<br>you can <b>click the Yes or No button</b> below to answer.<br><br>If you take longer than 15 seconds, it will continue automatically<br>and record the answer as an error.</div><br>",0,ospan,instruct,Xp76wd83DzLGEQcDtbios6YFz4Q2,html-button-response,70,450471,0.0-46.0-1.0-0.0-1.0,,,,,,,,,,,,,,,5f467b8d74eeef0365ffb26e,15:52:17,04/04/2024
3254.5,"<div class = 'left_align' style='font-size: 3.25rem; line-height: 1.3;'>It is <b>very</b> important that you make the symmetry judgment correctly.<br><br>It is also important that you try and judge the picture as quickly as you can.<br><br>When you are ready, click on the button below to try some practice problems.</div><br><br><br><br>",0,ospan,instruct,Xp76wd83DzLGEQcDtbios6YFz4Q2,html-button-response,71,453978,0.0-46.0-1.0-0.0-2.0,,,,,,,,,,,,,,,5f467b8d74eeef0365ffb26e,15:52:17,04/04/2024
2396.0,,,ospan,symmetry,Xp76wd83DzLGEQcDtbios6YFz4Q2,symmetry-judgement-task,72,457211,0.0-46.0-1.0-1.0-0.0,,,,,,,,,,1.0,1.0,,,,5f467b8d74eeef0365ffb26e,15:52:17,04/04/2024
,"<p style=""color:green; font-size: 35px"">Correct</p>",,ospan,feedback,Xp76wd83DzLGEQcDtbios6YFz4Q2,html-keyboard-response,73,457963,0.0-46.0-1.0-1.0-1.0,,,,,,,,,,,,,,,5f467b8d74eeef0365ffb26e,15:52:17,04/04/2024
2744.0,,,ospan,symmetry,Xp76wd83DzLGEQcDtbios6YFz4Q2,symmetry-judgement-task,74,463519,0.0-46.0-1.0-1.0-2.0,,,,,,,,,,1.0,1.0,,,,5f467b8d74eeef0365ffb26e,15:52:17,04/04/2024
,"<p style=""color:green; font-size: 35px"">Correct</p>",,ospan,feedback,Xp76wd83DzLGEQcDtbios6YFz4Q2,html-keyboard-response,75,464271,0.0-46.0-1.0-1.0-3.0,,,,,,,,,,,,,,,5f467b8d74eeef0365ffb26e,15:52:17,04/04/2024
2371.0,,,ospan,symmetry,Xp76wd83DzLGEQcDtbios6YFz4Q2,symmetry-judgement-task,76,469444,0.0-46.0-1.0-1.0-4.0,,,,,,,,,,1.0,1.0,,,,5f467b8d74eeef0365ffb26e,15:52:17,04/04/2024
,"<p style=""color:green; font-size: 35px"">Correct</p>",,ospan,feedback,Xp76wd83DzLGEQcDtbios6YFz4Q2,html-keyboard-response,77,470195,0.0-46.0-1.0-1.0-5.0,,,,,,,,,,,,,,,5f467b8d74eeef0365ffb26e,15:52:17,04/04/2024
1082.1000000238419,"<p style=""font-size: 3rem;"">You responded correctly on 3 of 3 symmetry judgments. Good job!</p><br><br>",0,ospan,practice,Xp76wd83DzLGEQcDtbios6YFz4Q2,html-button-response,78,473281,0.0-46.0-1.0-2.0,,,,,,,,,,,,,,,5f467b8d74eeef0365ffb26e,15:52:17,04/04/2024
5445.600000023842,"<div class = 'left_align' style='font-size: 3.25rem; line-height: 1.3;'>Now you will practice doing both parts of the experiment at the same time.<br><br>In the next practice set, you will be given one grid picture to judge.<br>Then letter will appear on the screen. Try to remember the letter.<br><br>It is <b>very important</b> to make the symmetry judgment as quickly and accurately as possible.<br><br>Just as before, once you have make the symmetry judgment, you can click Yes or No.<br><b>Note that you will no longer see Correct or Incorrect feedback.</div><br><br><br><br>",0,ospan,instruct,Xp76wd83DzLGEQcDtbios6YFz4Q2,html-button-response,79,478979,0.0-46.0-2.0-0.0-0.0,,,,,,,,,,,,,,,5f467b8d74eeef0365ffb26e,15:52:17,04/04/2024
4603.600000023842,"<div class = 'left_align' style='font-size: 3.25rem; line-height: 1.3;'>After the letter goes away, another grid picture will appear, and then<br>another letter.<br><br>At the end of each set of letters and grids, you will recall the letters to the best<br>of your ability. Remember, try your best to get the letters in the correct order.<br><br>It is important to <b>quickly</b> and <b>accurately</b> make the symmetry judgments.</div><br><br><br><br>",0,ospan,instruct,Xp76wd83DzLGEQcDtbios6YFz4Q2,html-button-response,80,483836,0.0-46.0-2.0-0.0-1.0,,,,,,,,,,,,,,,5f467b8d74eeef0365ffb26e,15:52:17,04/04/2024
5707.399999976158,"<div class = 'left_align' style='font-size: 3.25rem; line-height: 1.3;'>On the feedback screen, if you are not doing well at the symmetry judgments,<br>you will also see a warning in the middle. This indicates your percent <br>correct for the grid pictures for the entire experiment.<br><br>It is <b>very</b> important for you to keep accuracy at least at 85%: <u>We can only use<br>data where the participant was at least 85% accurate on the judgments.</u> Therefore,<br> please try your best to perform well on the symmetry judgments, <b>at the same time</b><br>doing your best to recall as many letters as possible.<br><br>Click the button to try some practice problems.</div><br><br><br><br>",0,ospan,instruct,Xp76wd83DzLGEQcDtbios6YFz4Q2,html-button-response,81,489798,0.0-46.0-2.0-0.0-2.0,,,,,,,,,,,,,,,5f467b8d74eeef0365ffb26e,15:52:17,04/04/2024
,"<p style=""font-size:75px;"">...</p>",,ospan,iti,Xp76wd83DzLGEQcDtbios6YFz4Q2,html-keyboard-response,82,491053,0.0-46.0-2.0-1.0-0.0,,,,,,,,,,,,,,,5f467b8d74eeef0365ffb26e,15:52:17,04/04/2024
1732.0,,,ospan,symmetry,Xp76wd83DzLGEQcDtbios6YFz4Q2,symmetry-judgement-task,83,494081,0.0-46.0-2.0-1.0-1.0-0.0,,,,,,,,,,1.0,1.0,,,,5f467b8d74eeef0365ffb26e,15:52:17,04/04/2024
,"<div style=""font-size: 10rem; color: #0000FF"">S</div>",,ospan,letter,Xp76wd83DzLGEQcDtbios6YFz4Q2,html-keyboard-response,84,495083,0.0-46.0-2.0-1.0-1.0-1.0,,,,,,,,,,,,,,,5f467b8d74eeef0365ffb26e,15:52:17,04/04/2024
1802.0,,,ospan,symmetry,Xp76wd83DzLGEQcDtbios6YFz4Q2,symmetry-judgement-task,85,498986,0.0-46.0-2.0-1.0-1.0-2.0,,,,,,,,,,1.0,1.0,,,,5f467b8d74eeef0365ffb26e,15:52:17,04/04/2024
,"<div style=""font-size: 10rem; color: #0000FF"">J</div>",,ospan,letter,Xp76wd83DzLGEQcDtbios6YFz4Q2,html-keyboard-response,86,499987,0.0-46.0-2.0-1.0-1.0-3.0,,,,,,,,,,,,,,,5f467b8d74eeef0365ffb26e,15:52:17,04/04/2024
1300.0,,,ospan,symmetry,Xp76wd83DzLGEQcDtbios6YFz4Q2,symmetry-judgement-task,87,503362,0.0-46.0-2.0-1.0-1.0-4.0,,,,,,,,,,1.0,1.0,,,,5f467b8d74eeef0365ffb26e,15:52:17,04/04/2024
,"<div style=""font-size: 10rem; color: #0000FF"">G</div>",,ospan,letter,Xp76wd83DzLGEQcDtbios6YFz4Q2,html-keyboard-response,88,504365,0.0-46.0-2.0-1.0-1.0-5.0,,,,,,,,,,,,,,,5f467b8d74eeef0365ffb26e,15:52:17,04/04/2024
3722.399999976158,"<div class = numbox><p style=""font-size: 2.4rem"">Please recall the letters you saw to the best of your ability. If you do not remember a particular letter, use the SKIP button.<br><b>(When you are ready to lock in your answer, press ENTER)</b></p><button id = button_1 class = ""square num-button"" onclick = ""recordClick(this)""><div class = content><div class = numbers>C</div></div></button><button id = button_2 class = ""square num-button"" onclick = ""recordClick(this)""><div class = content><div class = numbers>G</div></div></button><button id = button_3 class = ""square num-button"" onclick = ""recordClick(this)""><div class = content><div class = numbers>H</div></div></button><button id = button_4 class = ""square num-button"" onclick = ""recordClick(this)""><div class = content><div class = numbers>J</div></div></button><button id = button_5 class = ""square num-button"" onclick = ""recordClick(this)""><div class = content><div class = numbers>K</div></div></button><button id = button_6 class = ""square num-button"" onclick = ""recordClick(this)""><div class = content><div class = numbers>L</div></div></button><button id = button_7 class = ""square num-button"" onclick = ""recordClick(this)""><div class = content><div class = numbers>N</div></div></button><button id = button_8 class = ""square num-button"" onclick = ""recordClick(this)""><div class = content><div class = numbers>P</div></div></button><button id = button_9 class = ""square num-button"" onclick = ""recordClick(this)""><div class = content><div class = numbers>Q</div></div></button><button id = button_10 class = ""square num-button"" onclick = ""recordClick(this)""><div class = content><div class = numbers>R</div></div></button><button id = button_11 class = ""square num-button"" onclick = ""recordClick(this)""><div class = content><div class = numbers>S</div></div></button><button id = button_12 class = ""square num-button"" onclick = ""recordClick(this)""><div class = content><div class = numbers>Y</div></div></button><button class = clear_button id = ""ClearButton"" onclick = ""clearResponse()"">BACKSPACE</button><button class = blank_button id = ""BlankButton"" onclick = ""blankResponse()"">SKIP</button><p style=""font-size: 2.4rem""><u><b>Current Answer:</b></u></p><br><br><div id=echoed_txt style=""font-size: 5rem; color:blue;""><b></b></div></div>",enter,ospan,retrieval,Xp76wd83DzLGEQcDtbios6YFz4Q2,html-keyboard-response,89,508840,0.0-46.0-2.0-1.0-2.0-0.0,NA,NA,NA,3.0,"[""S"",""J"",""G""]","[""S"",""J"",""G""]",1.0,3.0,"['<font color=""green"">S</font>', '<font color=""green"">J</font>', '<font color=""green"">G</font>']",,,,,,5f467b8d74eeef0365ffb26e,15:52:17,04/04/2024
2497.0,"['<p style=""font-size:44px"">Letters:<br><br><br><font color=""green"">S</font> <font color=""green"">J</font> <font color=""green"">G</font></p><br><br><p style=""font-size:30px"">Symmetry:<br><br><font color=""green"">100%</font></p><br><br>']",0,ospan,practice_feedback,Xp76wd83DzLGEQcDtbios6YFz4Q2,html-button-response,90,511840,0.0-46.0-2.0-1.0-2.0-1.0,,,,,,,,,,,,,,,5f467b8d74eeef0365ffb26e,15:52:17,04/04/2024
,"<p style=""font-size:75px;"">...</p>",,ospan,iti,Xp76wd83DzLGEQcDtbios6YFz4Q2,html-keyboard-response,91,512843,0.0-46.0-2.0-2.0-0.0,,,,,,,,,,,,,,,5f467b8d74eeef0365ffb26e,15:52:17,04/04/2024
1869.0,,,ospan,symmetry,Xp76wd83DzLGEQcDtbios6YFz4Q2,symmetry-judgement-task,92,516056,0.0-46.0-2.0-2.0-1.0-0.0,,,,,,,,,,1.0,1.0,,,,5f467b8d74eeef0365ffb26e,15:52:17,04/04/2024
,"<div style=""font-size: 10rem; color: #0000FF"">L</div>",,ospan,letter,Xp76wd83DzLGEQcDtbios6YFz4Q2,html-keyboard-response,93,517058,0.0-46.0-2.0-2.0-1.0-1.0,,,,,,,,,,,,,,,5f467b8d74eeef0365ffb26e,15:52:17,04/04/2024
1168.0,,,ospan,symmetry,Xp76wd83DzLGEQcDtbios6YFz4Q2,symmetry-judgement-task,94,520272,0.0-46.0-2.0-2.0-1.0-2.0,,,,,,,,,,1.0,1.0,,,,5f467b8d74eeef0365ffb26e,15:52:17,04/04/2024
,"<div style=""font-size: 10rem; color: #0000FF"">K</div>",,ospan,letter,Xp76wd83DzLGEQcDtbios6YFz4Q2,html-keyboard-response,95,521275,0.0-46.0-2.0-2.0-1.0-3.0,,,,,,,,,,,,,,,5f467b8d74eeef0365ffb26e,15:52:17,04/04/2024
1383.0,,,ospan,symmetry,Xp76wd83DzLGEQcDtbios6YFz4Q2,symmetry-judgement-task,96,524721,0.0-46.0-2.0-2.0-1.0-4.0,,,,,,,,,,1.0,1.0,,,,5f467b8d74eeef0365ffb26e,15:52:17,04/04/2024
,"<div style=""font-size: 10rem; color: #0000FF"">G</div>",,ospan,letter,Xp76wd83DzLGEQcDtbios6YFz4Q2,html-keyboard-response,97,525724,0.0-46.0-2.0-2.0-1.0-5.0,,,,,,,,,,,,,,,5f467b8d74eeef0365ffb26e,15:52:17,04/04/2024
4031.600000023842,"<div class = numbox><p style=""font-size: 2.4rem"">Please recall the letters you saw to the best of your ability. If you do not remember a particular letter, use the SKIP button.<br><b>(When you are ready to lock in your answer, press ENTER)</b></p><button id = button_1 class = ""square num-button"" onclick = ""recordClick(this)""><div class = content><div class = numbers>C</div></div></button><button id = button_2 class = ""square num-button"" onclick = ""recordClick(this)""><div class = content><div class = numbers>G</div></div></button><button id = button_3 class = ""square num-button"" onclick = ""recordClick(this)""><div class = content><div class = numbers>H</div></div></button><button id = button_4 class = ""square num-button"" onclick = ""recordClick(this)""><div class = content><div class = numbers>J</div></div></button><button id = button_5 class = ""square num-button"" onclick = ""recordClick(this)""><div class = content><div class = numbers>K</div></div></button><button id = button_6 class = ""square num-button"" onclick = ""recordClick(this)""><div class = content><div class = numbers>L</div></div></button><button id = button_7 class = ""square num-button"" onclick = ""recordClick(this)""><div class = content><div class = numbers>N</div></div></button><button id = button_8 class = ""square num-button"" onclick = ""recordClick(this)""><div class = content><div class = numbers>P</div></div></button><button id = button_9 class = ""square num-button"" onclick = ""recordClick(this)""><div class = content><div class = numbers>Q</div></div></button><button id = button_10 class = ""square num-button"" onclick = ""recordClick(this)""><div class = content><div class = numbers>R</div></div></button><button id = button_11 class = ""square num-button"" onclick = ""recordClick(this)""><div class = content><div class = numbers>S</div></div></button><button id = button_12 class = ""square num-button"" onclick = ""recordClick(this)""><div class = content><div class = numbers>Y</div></div></button><button class = clear_button id = ""ClearButton"" onclick = ""clearResponse()"">BACKSPACE</button><button class = blank_button id = ""BlankButton"" onclick = ""blankResponse()"">SKIP</button><p style=""font-size: 2.4rem""><u><b>Current Answer:</b></u></p><br><br><div id=echoed_txt style=""font-size: 5rem; color:blue;""><b></b></div></div>",enter,ospan,retrieval,Xp76wd83DzLGEQcDtbios6YFz4Q2,html-keyboard-response,98,530509,0.0-46.0-2.0-2.0-2.0-0.0,NA,NA,NA,3.0,"[""L"",""K"",""G""]","[""L"",""K"",""G""]",1.0,3.0,"['<font color=""green"">L</font>', '<font color=""green"">K</font>', '<font color=""green"">G</font>']",,,,,,5f467b8d74eeef0365ffb26e,15:52:17,04/04/2024
1704.5,"['<p style=""font-size:44px"">Letters:<br><br><br><font color=""green"">L</font> <font color=""green"">K</font> <font color=""green"">G</font></p><br><br><p style=""font-size:30px"">Symmetry:<br><br><font color=""green"">100%</font></p><br><br>']",0,ospan,practice_feedback,Xp76wd83DzLGEQcDtbios6YFz4Q2,html-button-response,99,532717,0.0-46.0-2.0-2.0-2.0-1.0,,,,,,,,,,,,,,,5f467b8d74eeef0365ffb26e,15:52:17,04/04/2024
4264.399999976158,"<div class = 'left_align' style='font-size: 3rem; line-height: 1.3;'><b>Great work! That is the end of practice.</b><br><br>The real trials will look just like the practice trials you just completed.<br><br><u>Here, you will not see feedback</u>. First, you will see an grid picture to judge,<br>then a letter to remember. When the recall screen appears, report the letters in the<br>order presented. If you forget a letter, remember to use the <b>blank</b> button to move to the<br>next letter. Some of the sets will have more symmetry grids and letters than others.<br><br>It is important that you do your best on both the symmetry judgments and the letter recall<br>parts of the experiment. For for the symmetry judgments, try to work as <b>quickly</b> and <br>as <b>accurately</b> as possible. Remember to keep your symmetry accuracy at 85% or above.<br><br><b>For the letters, do NOT use any external aid (e.g., writing on paper, electronic device).</b><br><br>It is <u>very important</u> to our experiment to have a <b>true</b> view of your real performance.<br><br>Do not worry if you miss some when it gets hard! This task is meant to be very challenging!<br><br>Click the button to begin.</div><br><br><br><br>",0,ospan,starting_real_here,Xp76wd83DzLGEQcDtbios6YFz4Q2,html-button-response,100,536983,0.0-46.0-2.0-3.0,,,,,,,,,,,,,,,5f467b8d74eeef0365ffb26e,15:52:17,04/04/2024
,"<p style=""font-size:75px;"">...</p>",,ospan,iti,Xp76wd83DzLGEQcDtbios6YFz4Q2,html-keyboard-response,101,538238,0.0-46.0-3.0-0.0-0.0,,,,,,,,,,,,,,,5f467b8d74eeef0365ffb26e,15:52:17,04/04/2024
1824.0,,,ospan,symmetry,Xp76wd83DzLGEQcDtbios6YFz4Q2,symmetry-judgement-task,102,541130,0.0-46.0-3.0-0.0-1.0-0.0,,,,,,,,,,1.0,1.0,,,,5f467b8d74eeef0365ffb26e,15:52:17,04/04/2024
,"<div style=""font-size: 10rem; color: #0000FF"">Y</div>",,ospan,letter,Xp76wd83DzLGEQcDtbios6YFz4Q2,html-keyboard-response,103,542133,0.0-46.0-3.0-0.0-1.0-1.0,,,,,,,,,,,,,,,5f467b8d74eeef0365ffb26e,15:52:17,04/04/2024
1033.0,,,ospan,symmetry,Xp76wd83DzLGEQcDtbios6YFz4Q2,symmetry-judgement-task,104,545212,0.0-46.0-3.0-0.0-1.0-2.0,,,,,,,,,,1.0,1.0,,,,5f467b8d74eeef0365ffb26e,15:52:17,04/04/2024
,"<div style=""font-size: 10rem; color: #0000FF"">C</div>",,ospan,letter,Xp76wd83DzLGEQcDtbios6YFz4Q2,html-keyboard-response,105,546213,0.0-46.0-3.0-0.0-1.0-3.0,,,,,,,,,,,,,,,5f467b8d74eeef0365ffb26e,15:52:17,04/04/2024
2468.0,,,ospan,symmetry,Xp76wd83DzLGEQcDtbios6YFz4Q2,symmetry-judgement-task,106,550746,0.0-46.0-3.0-0.0-1.0-4.0,,,,,,,,,,1.0,1.0,,,,5f467b8d74eeef0365ffb26e,15:52:17,04/04/2024
,"<div style=""font-size: 10rem; color: #0000FF"">H</div>",,ospan,letter,Xp76wd83DzLGEQcDtbios6YFz4Q2,html-keyboard-response,107,551747,0.0-46.0-3.0-0.0-1.0-5.0,,,,,,,,,,,,,,,5f467b8d74eeef0365ffb26e,15:52:17,04/04/2024
3067.7999999523163,"<div class = numbox><p style=""font-size: 2.4rem"">Please recall the letters you saw to the best of your ability. If you do not remember a particular letter, use the SKIP button.<br><b>(When you are ready to lock in your answer, press ENTER)</b></p><button id = button_1 class = ""square num-button"" onclick = ""recordClick(this)""><div class = content><div class = numbers>C</div></div></button><button id = button_2 class = ""square num-button"" onclick = ""recordClick(this)""><div class = content><div class = numbers>G</div></div></button><button id = button_3 class = ""square num-button"" onclick = ""recordClick(this)""><div class = content><div class = numbers>H</div></div></button><button id = button_4 class = ""square num-button"" onclick = ""recordClick(this)""><div class = content><div class = numbers>J</div></div></button><button id = button_5 class = ""square num-button"" onclick = ""recordClick(this)""><div class = content><div class = numbers>K</div></div></button><button id = button_6 class = ""square num-button"" onclick = ""recordClick(this)""><div class = content><div class = numbers>L</div></div></button><button id = button_7 class = ""square num-button"" onclick = ""recordClick(this)""><div class = content><div class = numbers>N</div></div></button><button id = button_8 class = ""square num-button"" onclick = ""recordClick(this)""><div class = content><div class = numbers>P</div></div></button><button id = button_9 class = ""square num-button"" onclick = ""recordClick(this)""><div class = content><div class = numbers>Q</div></div></button><button id = button_10 class = ""square num-button"" onclick = ""recordClick(this)""><div class = content><div class = numbers>R</div></div></button><button id = button_11 class = ""square num-button"" onclick = ""recordClick(this)""><div class = content><div class = numbers>S</div></div></button><button id = button_12 class = ""square num-button"" onclick = ""recordClick(this)""><div class = content><div class = numbers>Y</div></div></button><button class = clear_button id = ""ClearButton"" onclick = ""clearResponse()"">BACKSPACE</button><button class = blank_button id = ""BlankButton"" onclick = ""blankResponse()"">SKIP</button><p style=""font-size: 2.4rem""><u><b>Current Answer:</b></u></p><br><br><div id=echoed_txt style=""font-size: 5rem; color:blue;""><b></b></div></div>",enter,ospan,retrieval,Xp76wd83DzLGEQcDtbios6YFz4Q2,html-keyboard-response,108,555567,0.0-46.0-3.0-0.0-2.0,3,3,3,3.0,"[""Y"",""C"",""H""]","[""Y"",""C"",""H""]",1.0,3.0,,,,,,,5f467b8d74eeef0365ffb26e,15:52:17,04/04/2024
606.3999999761581,[''],0,ospan,feedback,Xp76wd83DzLGEQcDtbios6YFz4Q2,html-button-response,109,556677,0.0-46.0-3.0-0.0-3.0,,,,,,,,,,,,100.0,0.0,,5f467b8d74eeef0365ffb26e,15:52:17,04/04/2024
,"<p style=""font-size:75px;"">...</p>",,ospan,iti,Xp76wd83DzLGEQcDtbios6YFz4Q2,html-keyboard-response,110,557678,0.0-46.0-4.0-0.0-0.0,,,,,,,,,,,,,,,5f467b8d74eeef0365ffb26e,15:52:17,04/04/2024
1694.0,,,ospan,symmetry,Xp76wd83DzLGEQcDtbios6YFz4Q2,symmetry-judgement-task,111,560710,0.0-46.0-4.0-0.0-1.0-0.0,,,,,,,,,,1.0,1.0,,,,5f467b8d74eeef0365ffb26e,15:52:17,04/04/2024
,"<div style=""font-size: 10rem; color: #0000FF"">H</div>",,ospan,letter,Xp76wd83DzLGEQcDtbios6YFz4Q2,html-keyboard-response,112,561713,0.0-46.0-4.0-0.0-1.0-1.0,,,,,,,,,,,,,,,5f467b8d74eeef0365ffb26e,15:52:17,04/04/2024
1487.0,,,ospan,symmetry,Xp76wd83DzLGEQcDtbios6YFz4Q2,symmetry-judgement-task,113,565286,0.0-46.0-4.0-0.0-1.0-2.0,,,,,,,,,,1.0,1.0,,,,5f467b8d74eeef0365ffb26e,15:52:17,04/04/2024
,"<div style=""font-size: 10rem; color: #0000FF"">C</div>",,ospan,letter,Xp76wd83DzLGEQcDtbios6YFz4Q2,html-keyboard-response,114,566289,0.0-46.0-4.0-0.0-1.0-3.0,,,,,,,,,,,,,,,5f467b8d74eeef0365ffb26e,15:52:17,04/04/2024
1399.0,,,ospan,symmetry,Xp76wd83DzLGEQcDtbios6YFz4Q2,symmetry-judgement-task,115,569784,0.0-46.0-4.0-0.0-1.0-4.0,,,,,,,,,,1.0,1.0,,,,5f467b8d74eeef0365ffb26e,15:52:17,04/04/2024
,"<div style=""font-size: 10rem; color: #0000FF"">N</div>",,ospan,letter,Xp76wd83DzLGEQcDtbios6YFz4Q2,html-keyboard-response,116,570786,0.0-46.0-4.0-0.0-1.0-5.0,,,,,,,,,,,,,,,5f467b8d74eeef0365ffb26e,15:52:17,04/04/2024
2095.0,,,ospan,symmetry,Xp76wd83DzLGEQcDtbios6YFz4Q2,symmetry-judgement-task,117,574980,0.0-46.0-4.0-0.0-1.0-6.0,,,,,,,,,,1.0,1.0,,,,5f467b8d74eeef0365ffb26e,15:52:17,04/04/2024
,"<div style=""font-size: 10rem; color: #0000FF"">Y</div>",,ospan,letter,Xp76wd83DzLGEQcDtbios6YFz4Q2,html-keyboard-response,118,575982,0.0-46.0-4.0-0.0-1.0-7.0,,,,,,,,,,,,,,,5f467b8d74eeef0365ffb26e,15:52:17,04/04/2024
4134.299999952316,"<div class = numbox><p style=""font-size: 2.4rem"">Please recall the letters you saw to the best of your ability. If you do not remember a particular letter, use the SKIP button.<br><b>(When you are ready to lock in your answer, press ENTER)</b></p><button id = button_1 class = ""square num-button"" onclick = ""recordClick(this)""><div class = content><div class = numbers>C</div></div></button><button id = button_2 class = ""square num-button"" onclick = ""recordClick(this)""><div class = content><div class = numbers>G</div></div></button><button id = button_3 class = ""square num-button"" onclick = ""recordClick(this)""><div class = content><div class = numbers>H</div></div></button><button id = button_4 class = ""square num-button"" onclick = ""recordClick(this)""><div class = content><div class = numbers>J</div></div></button><button id = button_5 class = ""square num-button"" onclick = ""recordClick(this)""><div class = content><div class = numbers>K</div></div></button><button id = button_6 class = ""square num-button"" onclick = ""recordClick(this)""><div class = content><div class = numbers>L</div></div></button><button id = button_7 class = ""square num-button"" onclick = ""recordClick(this)""><div class = content><div class = numbers>N</div></div></button><button id = button_8 class = ""square num-button"" onclick = ""recordClick(this)""><div class = content><div class = numbers>P</div></div></button><button id = button_9 class = ""square num-button"" onclick = ""recordClick(this)""><div class = content><div class = numbers>Q</div></div></button><button id = button_10 class = ""square num-button"" onclick = ""recordClick(this)""><div class = content><div class = numbers>R</div></div></button><button id = button_11 class = ""square num-button"" onclick = ""recordClick(this)""><div class = content><div class = numbers>S</div></div></button><button id = button_12 class = ""square num-button"" onclick = ""recordClick(this)""><div class = content><div class = numbers>Y</div></div></button><button class = clear_button id = ""ClearButton"" onclick = ""clearResponse()"">BACKSPACE</button><button class = blank_button id = ""BlankButton"" onclick = ""blankResponse()"">SKIP</button><p style=""font-size: 2.4rem""><u><b>Current Answer:</b></u></p><br><br><div id=echoed_txt style=""font-size: 5rem; color:blue;""><b></b></div></div>",enter,ospan,retrieval,Xp76wd83DzLGEQcDtbios6YFz4Q2,html-keyboard-response,119,580869,0.0-46.0-4.0-0.0-2.0,7,7,7,4.0,"[""H"",""C"",""N"",""Y""]","[""H"",""C"",""N"",""Y""]",1.0,4.0,,,,,,,5f467b8d74eeef0365ffb26e,15:52:17,04/04/2024
3221.3000000715256,[''],0,ospan,feedback,Xp76wd83DzLGEQcDtbios6YFz4Q2,html-button-response,120,584594,0.0-46.0-4.0-0.0-3.0,,,,,,,,,,,,100.0,0.0,,5f467b8d74eeef0365ffb26e,15:52:17,04/04/2024
,"<p style=""font-size:75px;"">...</p>",,ospan,iti,Xp76wd83DzLGEQcDtbios6YFz4Q2,html-keyboard-response,121,585597,0.0-46.0-4.0-1.0-0.0,,,,,,,,,,,,,,,5f467b8d74eeef0365ffb26e,15:52:17,04/04/2024
1197.0,,,ospan,symmetry,Xp76wd83DzLGEQcDtbios6YFz4Q2,symmetry-judgement-task,122,588128,0.0-46.0-4.0-1.0-1.0-0.0,,,,,,,,,,1.0,1.0,,,,5f467b8d74eeef0365ffb26e,15:52:17,04/04/2024
,"<div style=""font-size: 10rem; color: #0000FF"">R</div>",,ospan,letter,Xp76wd83DzLGEQcDtbios6YFz4Q2,html-keyboard-response,123,589130,0.0-46.0-4.0-1.0-1.0-1.0,,,,,,,,,,,,,,,5f467b8d74eeef0365ffb26e,15:52:17,04/04/2024
1171.0,,,ospan,symmetry,Xp76wd83DzLGEQcDtbios6YFz4Q2,symmetry-judgement-task,124,592377,0.0-46.0-4.0-1.0-1.0-2.0,,,,,,,,,,1.0,1.0,,,,5f467b8d74eeef0365ffb26e,15:52:17,04/04/2024
,"<div style=""font-size: 10rem; color: #0000FF"">P</div>",,ospan,letter,Xp76wd83DzLGEQcDtbios6YFz4Q2,html-keyboard-response,125,593380,0.0-46.0-4.0-1.0-1.0-3.0,,,,,,,,,,,,,,,5f467b8d74eeef0365ffb26e,15:52:17,04/04/2024
1021.0,,,ospan,symmetry,Xp76wd83DzLGEQcDtbios6YFz4Q2,symmetry-judgement-task,126,596456,0.0-46.0-4.0-1.0-1.0-4.0,,,,,,,,,,1.0,1.0,,,,5f467b8d74eeef0365ffb26e,15:52:17,04/04/2024
,"<div style=""font-size: 10rem; color: #0000FF"">Q</div>",,ospan,letter,Xp76wd83DzLGEQcDtbios6YFz4Q2,html-keyboard-response,127,597458,0.0-46.0-4.0-1.0-1.0-5.0,,,,,,,,,,,,,,,5f467b8d74eeef0365ffb26e,15:52:17,04/04/2024
1173.0,,,ospan,symmetry,Xp76wd83DzLGEQcDtbios6YFz4Q2,symmetry-judgement-task,128,601040,0.0-46.0-4.0-1.0-1.0-6.0,,,,,,,,,,1.0,1.0,,,,5f467b8d74eeef0365ffb26e,15:52:17,04/04/2024
,"<div style=""font-size: 10rem; color: #0000FF"">J</div>",,ospan,letter,Xp76wd83DzLGEQcDtbios6YFz4Q2,html-keyboard-response,129,602043,0.0-46.0-4.0-1.0-1.0-7.0,,,,,,,,,,,,,,,5f467b8d74eeef0365ffb26e,15:52:17,04/04/2024
1808.0,,,ospan,symmetry,Xp76wd83DzLGEQcDtbios6YFz4Q2,symmetry-judgement-task,130,605922,0.0-46.0-4.0-1.0-1.0-8.0,,,,,,,,,,1.0,1.0,,,,5f467b8d74eeef0365ffb26e,15:52:17,04/04/2024
,"<div style=""font-size: 10rem; color: #0000FF"">K</div>",,ospan,letter,Xp76wd83DzLGEQcDtbios6YFz4Q2,html-keyboard-response,131,606925,0.0-46.0-4.0-1.0-1.0-9.0,,,,,,,,,,,,,,,5f467b8d74eeef0365ffb26e,15:52:17,04/04/2024
9363.899999976158,"<div class = numbox><p style=""font-size: 2.4rem"">Please recall the letters you saw to the best of your ability. If you do not remember a particular letter, use the SKIP button.<br><b>(When you are ready to lock in your answer, press ENTER)</b></p><button id = button_1 class = ""square num-button"" onclick = ""recordClick(this)""><div class = content><div class = numbers>C</div></div></button><button id = button_2 class = ""square num-button"" onclick = ""recordClick(this)""><div class = content><div class = numbers>G</div></div></button><button id = button_3 class = ""square num-button"" onclick = ""recordClick(this)""><div class = content><div class = numbers>H</div></div></button><button id = button_4 class = ""square num-button"" onclick = ""recordClick(this)""><div class = content><div class = numbers>J</div></div></button><button id = button_5 class = ""square num-button"" onclick = ""recordClick(this)""><div class = content><div class = numbers>K</div></div></button><button id = button_6 class = ""square num-button"" onclick = ""recordClick(this)""><div class = content><div class = numbers>L</div></div></button><button id = button_7 class = ""square num-button"" onclick = ""recordClick(this)""><div class = content><div class = numbers>N</div></div></button><button id = button_8 class = ""square num-button"" onclick = ""recordClick(this)""><div class = content><div class = numbers>P</div></div></button><button id = button_9 class = ""square num-button"" onclick = ""recordClick(this)""><div class = content><div class = numbers>Q</div></div></button><button id = button_10 class = ""square num-button"" onclick = ""recordClick(this)""><div class = content><div class = numbers>R</div></div></button><button id = button_11 class = ""square num-button"" onclick = ""recordClick(this)""><div class = content><div class = numbers>S</div></div></button><button id = button_12 class = ""square num-button"" onclick = ""recordClick(this)""><div class = content><div class = numbers>Y</div></div></button><button class = clear_button id = ""ClearButton"" onclick = ""clearResponse()"">BACKSPACE</button><button class = blank_button id = ""BlankButton"" onclick = ""blankResponse()"">SKIP</button><p style=""font-size: 2.4rem""><u><b>Current Answer:</b></u></p><br><br><div id=echoed_txt style=""font-size: 5rem; color:blue;""><b></b></div></div>",enter,ospan,retrieval,Xp76wd83DzLGEQcDtbios6YFz4Q2,html-keyboard-response,132,617042,0.0-46.0-4.0-1.0-2.0,12,12,12,5.0,"[""R"",""P"",""Q"",""J"",""K""]","[""R"",""P"",""Q"",""J"",""K""]",1.0,5.0,,,,,,,5f467b8d74eeef0365ffb26e,15:52:17,04/04/2024
1448.6999999284744,[''],0,ospan,feedback,Xp76wd83DzLGEQcDtbios6YFz4Q2,html-button-response,133,618993,0.0-46.0-4.0-1.0-3.0,,,,,,,,,,,,100.0,0.0,,5f467b8d74eeef0365ffb26e,15:52:17,04/04/2024
,"<p style=""font-size:75px;"">...</p>",,ospan,iti,Xp76wd83DzLGEQcDtbios6YFz4Q2,html-keyboard-response,134,619995,0.0-46.0-4.0-2.0-0.0,,,,,,,,,,,,,,,5f467b8d74eeef0365ffb26e,15:52:17,04/04/2024
1032.0,,,ospan,symmetry,Xp76wd83DzLGEQcDtbios6YFz4Q2,symmetry-judgement-task,135,622370,0.0-46.0-4.0-2.0-1.0-0.0,,,,,,,,,,1.0,1.0,,,,5f467b8d74eeef0365ffb26e,15:52:17,04/04/2024
,"<div style=""font-size: 10rem; color: #0000FF"">Y</div>",,ospan,letter,Xp76wd83DzLGEQcDtbios6YFz4Q2,html-keyboard-response,136,623373,0.0-46.0-4.0-2.0-1.0-1.0,,,,,,,,,,,,,,,5f467b8d74eeef0365ffb26e,15:52:17,04/04/2024
1466.0,,,ospan,symmetry,Xp76wd83DzLGEQcDtbios6YFz4Q2,symmetry-judgement-task,137,626876,0.0-46.0-4.0-2.0-1.0-2.0,,,,,,,,,,1.0,1.0,,,,5f467b8d74eeef0365ffb26e,15:52:17,04/04/2024
,"<div style=""font-size: 10rem; color: #0000FF"">L</div>",,ospan,letter,Xp76wd83DzLGEQcDtbios6YFz4Q2,html-keyboard-response,138,627878,0.0-46.0-4.0-2.0-1.0-3.0,,,,,,,,,,,,,,,5f467b8d74eeef0365ffb26e,15:52:17,04/04/2024
6.0,,,ospan,symmetry,Xp76wd83DzLGEQcDtbios6YFz4Q2,symmetry-judgement-task,139,629998,0.0-46.0-4.0-2.0-1.0-4.0,,,,,,,,,,0.0,0.0,,,,5f467b8d74eeef0365ffb26e,15:52:17,04/04/2024
,"<div style=""font-size: 10rem; color: #0000FF"">C</div>",,ospan,letter,Xp76wd83DzLGEQcDtbios6YFz4Q2,html-keyboard-response,140,631000,0.0-46.0-4.0-2.0-1.0-5.0,,,,,,,,,,,,,,,5f467b8d74eeef0365ffb26e,15:52:17,04/04/2024
3239.3000000715256,"<div class = numbox><p style=""font-size: 2.4rem"">Please recall the letters you saw to the best of your ability. If you do not remember a particular letter, use the SKIP button.<br><b>(When you are ready to lock in your answer, press ENTER)</b></p><button id = button_1 class = ""square num-button"" onclick = ""recordClick(this)""><div class = content><div class = numbers>C</div></div></button><button id = button_2 class = ""square num-button"" onclick = ""recordClick(this)""><div class = content><div class = numbers>G</div></div></button><button id = button_3 class = ""square num-button"" onclick = ""recordClick(this)""><div class = content><div class = numbers>H</div></div></button><button id = button_4 class = ""square num-button"" onclick = ""recordClick(this)""><div class = content><div class = numbers>J</div></div></button><button id = button_5 class = ""square num-button"" onclick = ""recordClick(this)""><div class = content><div class = numbers>K</div></div></button><button id = button_6 class = ""square num-button"" onclick = ""recordClick(this)""><div class = content><div class = numbers>L</div></div></button><button id = button_7 class = ""square num-button"" onclick = ""recordClick(this)""><div class = content><div class = numbers>N</div></div></button><button id = button_8 class = ""square num-button"" onclick = ""recordClick(this)""><div class = content><div class = numbers>P</div></div></button><button id = button_9 class = ""square num-button"" onclick = ""recordClick(this)""><div class = content><div class = numbers>Q</div></div></button><button id = button_10 class = ""square num-button"" onclick = ""recordClick(this)""><div class = content><div class = numbers>R</div></div></button><button id = button_11 class = ""square num-button"" onclick = ""recordClick(this)""><div class = content><div class = numbers>S</div></div></button><button id = button_12 class = ""square num-button"" onclick = ""recordClick(this)""><div class = content><div class = numbers>Y</div></div></button><button class = clear_button id = ""ClearButton"" onclick = ""clearResponse()"">BACKSPACE</button><button class = blank_button id = ""BlankButton"" onclick = ""blankResponse()"">SKIP</button><p style=""font-size: 2.4rem""><u><b>Current Answer:</b></u></p><br><br><div id=echoed_txt style=""font-size: 5rem; color:blue;""><b></b></div></div>",enter,ospan,retrieval,Xp76wd83DzLGEQcDtbios6YFz4Q2,html-keyboard-response,141,634994,0.0-46.0-4.0-2.0-2.0,15,15,15,3.0,"[""Y"",""L"",""C""]","[""Y"",""L"",""C""]",1.0,3.0,,,,,,,5f467b8d74eeef0365ffb26e,15:52:17,04/04/2024
610.3000000715256,[''],0,ospan,feedback,Xp76wd83DzLGEQcDtbios6YFz4Q2,html-button-response,142,636106,0.0-46.0-4.0-2.0-3.0,,,,,,,,,,,,93.0,0.0,,5f467b8d74eeef0365ffb26e,15:52:17,04/04/2024
,"<p style=""font-size:75px;"">...</p>",,ospan,iti,Xp76wd83DzLGEQcDtbios6YFz4Q2,html-keyboard-response,143,637109,0.0-46.0-5.0-0.0-0.0,,,,,,,,,,,,,,,5f467b8d74eeef0365ffb26e,15:52:17,04/04/2024
1105.0,,,ospan,symmetry,Xp76wd83DzLGEQcDtbios6YFz4Q2,symmetry-judgement-task,144,639563,0.0-46.0-5.0-0.0-1.0-0.0,,,,,,,,,,1.0,1.0,,,,5f467b8d74eeef0365ffb26e,15:52:17,04/04/2024
,"<div style=""font-size: 10rem; color: #0000FF"">L</div>",,ospan,letter,Xp76wd83DzLGEQcDtbios6YFz4Q2,html-keyboard-response,145,640565,0.0-46.0-5.0-0.0-1.0-1.0,,,,,,,,,,,,,,,5f467b8d74eeef0365ffb26e,15:52:17,04/04/2024
1165.0,,,ospan,symmetry,Xp76wd83DzLGEQcDtbios6YFz4Q2,symmetry-judgement-task,146,643798,0.0-46.0-5.0-0.0-1.0-2.0,,,,,,,,,,1.0,1.0,,,,5f467b8d74eeef0365ffb26e,15:52:17,04/04/2024
,"<div style=""font-size: 10rem; color: #0000FF"">R</div>",,ospan,letter,Xp76wd83DzLGEQcDtbios6YFz4Q2,html-keyboard-response,147,644801,0.0-46.0-5.0-0.0-1.0-3.0,,,,,,,,,,,,,,,5f467b8d74eeef0365ffb26e,15:52:17,04/04/2024
869.0,,,ospan,symmetry,Xp76wd83DzLGEQcDtbios6YFz4Q2,symmetry-judgement-task,148,647748,0.0-46.0-5.0-0.0-1.0-4.0,,,,,,,,,,1.0,1.0,,,,5f467b8d74eeef0365ffb26e,15:52:17,04/04/2024
,"<div style=""font-size: 10rem; color: #0000FF"">Q</div>",,ospan,letter,Xp76wd83DzLGEQcDtbios6YFz4Q2,html-keyboard-response,149,648750,0.0-46.0-5.0-0.0-1.0-5.0,,,,,,,,,,,,,,,5f467b8d74eeef0365ffb26e,15:52:17,04/04/2024
1789.0,,,ospan,symmetry,Xp76wd83DzLGEQcDtbios6YFz4Q2,symmetry-judgement-task,150,652622,0.0-46.0-5.0-0.0-1.0-6.0,,,,,,,,,,1.0,1.0,,,,5f467b8d74eeef0365ffb26e,15:52:17,04/04/2024
,"<div style=""font-size: 10rem; color: #0000FF"">K</div>",,ospan,letter,Xp76wd83DzLGEQcDtbios6YFz4Q2,html-keyboard-response,151,653625,0.0-46.0-5.0-0.0-1.0-7.0,,,,,,,,,,,,,,,5f467b8d74eeef0365ffb26e,15:52:17,04/04/2024
1227.0,,,ospan,symmetry,Xp76wd83DzLGEQcDtbios6YFz4Q2,symmetry-judgement-task,152,656942,0.0-46.0-5.0-0.0-1.0-8.0,,,,,,,,,,1.0,1.0,,,,5f467b8d74eeef0365ffb26e,15:52:17,04/04/2024
,"<div style=""font-size: 10rem; color: #0000FF"">C</div>",,ospan,letter,Xp76wd83DzLGEQcDtbios6YFz4Q2,html-keyboard-response,153,657945,0.0-46.0-5.0-0.0-1.0-9.0,,,,,,,,,,,,,,,5f467b8d74eeef0365ffb26e,15:52:17,04/04/2024
1499.0,,,ospan,symmetry,Xp76wd83DzLGEQcDtbios6YFz4Q2,symmetry-judgement-task,154,661510,0.0-46.0-5.0-0.0-1.0-10.0,,,,,,,,,,1.0,1.0,,,,5f467b8d74eeef0365ffb26e,15:52:17,04/04/2024
,"<div style=""font-size: 10rem; color: #0000FF"">S</div>",,ospan,letter,Xp76wd83DzLGEQcDtbios6YFz4Q2,html-keyboard-response,155,662512,0.0-46.0-5.0-0.0-1.0-11.0,,,,,,,,,,,,,,,5f467b8d74eeef0365ffb26e,15:52:17,04/04/2024
26130.100000023842,"<div class = numbox><p style=""font-size: 2.4rem"">Please recall the letters you saw to the best of your ability. If you do not remember a particular letter, use the SKIP button.<br><b>(When you are ready to lock in your answer, press ENTER)</b></p><button id = button_1 class = ""square num-button"" onclick = ""recordClick(this)""><div class = content><div class = numbers>C</div></div></button><button id = button_2 class = ""square num-button"" onclick = ""recordClick(this)""><div class = content><div class = numbers>G</div></div></button><button id = button_3 class = ""square num-button"" onclick = ""recordClick(this)""><div class = content><div class = numbers>H</div></div></button><button id = button_4 class = ""square num-button"" onclick = ""recordClick(this)""><div class = content><div class = numbers>J</div></div></button><button id = button_5 class = ""square num-button"" onclick = ""recordClick(this)""><div class = content><div class = numbers>K</div></div></button><button id = button_6 class = ""square num-button"" onclick = ""recordClick(this)""><div class = content><div class = numbers>L</div></div></button><button id = button_7 class = ""square num-button"" onclick = ""recordClick(this)""><div class = content><div class = numbers>N</div></div></button><button id = button_8 class = ""square num-button"" onclick = ""recordClick(this)""><div class = content><div class = numbers>P</div></div></button><button id = button_9 class = ""square num-button"" onclick = ""recordClick(this)""><div class = content><div class = numbers>Q</div></div></button><button id = button_10 class = ""square num-button"" onclick = ""recordClick(this)""><div class = content><div class = numbers>R</div></div></button><button id = button_11 class = ""square num-button"" onclick = ""recordClick(this)""><div class = content><div class = numbers>S</div></div></button><button id = button_12 class = ""square num-button"" onclick = ""recordClick(this)""><div class = content><div class = numbers>Y</div></div></button><button class = clear_button id = ""ClearButton"" onclick = ""clearResponse()"">BACKSPACE</button><button class = blank_button id = ""BlankButton"" onclick = ""blankResponse()"">SKIP</button><p style=""font-size: 2.4rem""><u><b>Current Answer:</b></u></p><br><br><div id=echoed_txt style=""font-size: 5rem; color:blue;""><b></b></div></div>",enter,ospan,retrieval,Xp76wd83DzLGEQcDtbios6YFz4Q2,html-keyboard-response,156,689395,0.0-46.0-5.0-0.0-2.0,21,20,15,6.0,"[""L"",""R"",""Q"",""J"",""C"",""S""]","[""L"",""R"",""Q"",""K"",""C"",""S""]",0.0,5.0,,,,,,,5f467b8d74eeef0365ffb26e,15:52:17,04/04/2024
1200.1000000238419,[''],0,ospan,feedback,Xp76wd83DzLGEQcDtbios6YFz4Q2,html-button-response,157,691098,0.0-46.0-5.0-0.0-3.0,,,,,,,,,,,,95.0,0.0,,5f467b8d74eeef0365ffb26e,15:52:17,04/04/2024
,"<p style=""font-size:75px;"">...</p>",,ospan,iti,Xp76wd83DzLGEQcDtbios6YFz4Q2,html-keyboard-response,158,692100,0.0-46.0-5.0-1.0-0.0,,,,,,,,,,,,,,,5f467b8d74eeef0365ffb26e,15:52:17,04/04/2024
960.0,,,ospan,symmetry,Xp76wd83DzLGEQcDtbios6YFz4Q2,symmetry-judgement-task,159,694381,0.0-46.0-5.0-1.0-1.0-0.0,,,,,,,,,,1.0,1.0,,,,5f467b8d74eeef0365ffb26e,15:52:17,04/04/2024
,"<div style=""font-size: 10rem; color: #0000FF"">R</div>",,ospan,letter,Xp76wd83DzLGEQcDtbios6YFz4Q2,html-keyboard-response,160,695383,0.0-46.0-5.0-1.0-1.0-1.0,,,,,,,,,,,,,,,5f467b8d74eeef0365ffb26e,15:52:17,04/04/2024
1034.0,,,ospan,symmetry,Xp76wd83DzLGEQcDtbios6YFz4Q2,symmetry-judgement-task,161,698494,0.0-46.0-5.0-1.0-1.0-2.0,,,,,,,,,,1.0,1.0,,,,5f467b8d74eeef0365ffb26e,15:52:17,04/04/2024
,"<div style=""font-size: 10rem; color: #0000FF"">Q</div>",,ospan,letter,Xp76wd83DzLGEQcDtbios6YFz4Q2,html-keyboard-response,162,699497,0.0-46.0-5.0-1.0-1.0-3.0,,,,,,,,,,,,,,,5f467b8d74eeef0365ffb26e,15:52:17,04/04/2024
1007.0,,,ospan,symmetry,Xp76wd83DzLGEQcDtbios6YFz4Q2,symmetry-judgement-task,163,702592,0.0-46.0-5.0-1.0-1.0-4.0,,,,,,,,,,1.0,1.0,,,,5f467b8d74eeef0365ffb26e,15:52:17,04/04/2024
,"<div style=""font-size: 10rem; color: #0000FF"">N</div>",,ospan,letter,Xp76wd83DzLGEQcDtbios6YFz4Q2,html-keyboard-response,164,703594,0.0-46.0-5.0-1.0-1.0-5.0,,,,,,,,,,,,,,,5f467b8d74eeef0365ffb26e,15:52:17,04/04/2024
1669.0,,,ospan,symmetry,Xp76wd83DzLGEQcDtbios6YFz4Q2,symmetry-judgement-task,165,707392,0.0-46.0-5.0-1.0-1.0-6.0,,,,,,,,,,1.0,1.0,,,,5f467b8d74eeef0365ffb26e,15:52:17,04/04/2024
,"<div style=""font-size: 10rem; color: #0000FF"">H</div>",,ospan,letter,Xp76wd83DzLGEQcDtbios6YFz4Q2,html-keyboard-response,166,708394,0.0-46.0-5.0-1.0-1.0-7.0,,,,,,,,,,,,,,,5f467b8d74eeef0365ffb26e,15:52:17,04/04/2024
1001.0,,,ospan,symmetry,Xp76wd83DzLGEQcDtbios6YFz4Q2,symmetry-judgement-task,167,711477,0.0-46.0-5.0-1.0-1.0-8.0,,,,,,,,,,1.0,1.0,,,,5f467b8d74eeef0365ffb26e,15:52:17,04/04/2024
,"<div style=""font-size: 10rem; color: #0000FF"">G</div>",,ospan,letter,Xp76wd83DzLGEQcDtbios6YFz4Q2,html-keyboard-response,168,712480,0.0-46.0-5.0-1.0-1.0-9.0,,,,,,,,,,,,,,,5f467b8d74eeef0365ffb26e,15:52:17,04/04/2024
1117.0,,,ospan,symmetry,Xp76wd83DzLGEQcDtbios6YFz4Q2,symmetry-judgement-task,169,715630,0.0-46.0-5.0-1.0-1.0-10.0,,,,,,,,,,1.0,1.0,,,,5f467b8d74eeef0365ffb26e,15:52:17,04/04/2024
,"<div style=""font-size: 10rem; color: #0000FF"">P</div>",,ospan,letter,Xp76wd83DzLGEQcDtbios6YFz4Q2,html-keyboard-response,170,716632,0.0-46.0-5.0-1.0-1.0-11.0,,,,,,,,,,,,,,,5f467b8d74eeef0365ffb26e,15:52:17,04/04/2024
1405.0,,,ospan,symmetry,Xp76wd83DzLGEQcDtbios6YFz4Q2,symmetry-judgement-task,171,720117,0.0-46.0-5.0-1.0-1.0-12.0,,,,,,,,,,1.0,1.0,,,,5f467b8d74eeef0365ffb26e,15:52:17,04/04/2024
,"<div style=""font-size: 10rem; color: #0000FF"">L</div>",,ospan,letter,Xp76wd83DzLGEQcDtbios6YFz4Q2,html-keyboard-response,172,721120,0.0-46.0-5.0-1.0-1.0-13.0,,,,,,,,,,,,,,,5f467b8d74eeef0365ffb26e,15:52:17,04/04/2024
9657.700000047684,"<div class = numbox><p style=""font-size: 2.4rem"">Please recall the letters you saw to the best of your ability. If you do not remember a particular letter, use the SKIP button.<br><b>(When you are ready to lock in your answer, press ENTER)</b></p><button id = button_1 class = ""square num-button"" onclick = ""recordClick(this)""><div class = content><div class = numbers>C</div></div></button><button id = button_2 class = ""square num-button"" onclick = ""recordClick(this)""><div class = content><div class = numbers>G</div></div></button><button id = button_3 class = ""square num-button"" onclick = ""recordClick(this)""><div class = content><div class = numbers>H</div></div></button><button id = button_4 class = ""square num-button"" onclick = ""recordClick(this)""><div class = content><div class = numbers>J</div></div></button><button id = button_5 class = ""square num-button"" onclick = ""recordClick(this)""><div class = content><div class = numbers>K</div></div></button><button id = button_6 class = ""square num-button"" onclick = ""recordClick(this)""><div class = content><div class = numbers>L</div></div></button><button id = button_7 class = ""square num-button"" onclick = ""recordClick(this)""><div class = content><div class = numbers>N</div></div></button><button id = button_8 class = ""square num-button"" onclick = ""recordClick(this)""><div class = content><div class = numbers>P</div></div></button><button id = button_9 class = ""square num-button"" onclick = ""recordClick(this)""><div class = content><div class = numbers>Q</div></div></button><button id = button_10 class = ""square num-button"" onclick = ""recordClick(this)""><div class = content><div class = numbers>R</div></div></button><button id = button_11 class = ""square num-button"" onclick = ""recordClick(this)""><div class = content><div class = numbers>S</div></div></button><button id = button_12 class = ""square num-button"" onclick = ""recordClick(this)""><div class = content><div class = numbers>Y</div></div></button><button class = clear_button id = ""ClearButton"" onclick = ""clearResponse()"">BACKSPACE</button><button class = blank_button id = ""BlankButton"" onclick = ""blankResponse()"">SKIP</button><p style=""font-size: 2.4rem""><u><b>Current Answer:</b></u></p><br><br><div id=echoed_txt style=""font-size: 5rem; color:blue;""><b></b></div></div>",enter,ospan,retrieval,Xp76wd83DzLGEQcDtbios6YFz4Q2,html-keyboard-response,173,731531,0.0-46.0-5.0-1.0-2.0,28,27,22,7.0,"[""R"",""Q"",""N"",""H"",""G"",""P"",""L""]","[""R"",""Q"",""N"",""H"",""G"",""P"",""L""]",1.0,7.0,,,,,,,5f467b8d74eeef0365ffb26e,15:52:17,04/04/2024
765.1999999284744,[''],0,ospan,feedback,Xp76wd83DzLGEQcDtbios6YFz4Q2,html-button-response,174,732799,0.0-46.0-5.0-1.0-3.0,,,,,,,,,,,,96.0,0.0,,5f467b8d74eeef0365ffb26e,15:52:17,04/04/2024
,"<p style=""font-size:75px;"">...</p>",,ospan,iti,Xp76wd83DzLGEQcDtbios6YFz4Q2,html-keyboard-response,175,733803,0.0-46.0-6.0-0.0-0.0,,,,,,,,,,,,,,,5f467b8d74eeef0365ffb26e,15:52:17,04/04/2024
1120.0,,,ospan,symmetry,Xp76wd83DzLGEQcDtbios6YFz4Q2,symmetry-judgement-task,176,736249,0.0-46.0-6.0-0.0-1.0-0.0,,,,,,,,,,1.0,1.0,,,,5f467b8d74eeef0365ffb26e,15:52:17,04/04/2024
,"<div style=""font-size: 10rem; color: #0000FF"">K</div>",,ospan,letter,Xp76wd83DzLGEQcDtbios6YFz4Q2,html-keyboard-response,177,737251,0.0-46.0-6.0-0.0-1.0-1.0,,,,,,,,,,,,,,,5f467b8d74eeef0365ffb26e,15:52:17,04/04/2024
890.0,,,ospan,symmetry,Xp76wd83DzLGEQcDtbios6YFz4Q2,symmetry-judgement-task,178,740219,0.0-46.0-6.0-0.0-1.0-2.0,,,,,,,,,,1.0,1.0,,,,5f467b8d74eeef0365ffb26e,15:52:17,04/04/2024
,"<div style=""font-size: 10rem; color: #0000FF"">Y</div>",,ospan,letter,Xp76wd83DzLGEQcDtbios6YFz4Q2,html-keyboard-response,179,741222,0.0-46.0-6.0-0.0-1.0-3.0,,,,,,,,,,,,,,,5f467b8d74eeef0365ffb26e,15:52:17,04/04/2024
940.0,,,ospan,symmetry,Xp76wd83DzLGEQcDtbios6YFz4Q2,symmetry-judgement-task,180,744250,0.0-46.0-6.0-0.0-1.0-4.0,,,,,,,,,,1.0,1.0,,,,5f467b8d74eeef0365ffb26e,15:52:17,04/04/2024
,"<div style=""font-size: 10rem; color: #0000FF"">R</div>",,ospan,letter,Xp76wd83DzLGEQcDtbios6YFz4Q2,html-keyboard-response,181,745253,0.0-46.0-6.0-0.0-1.0-5.0,,,,,,,,,,,,,,,5f467b8d74eeef0365ffb26e,15:52:17,04/04/2024
1143.0,,,ospan,symmetry,Xp76wd83DzLGEQcDtbios6YFz4Q2,symmetry-judgement-task,182,748471,0.0-46.0-6.0-0.0-1.0-6.0,,,,,,,,,,1.0,1.0,,,,5f467b8d74eeef0365ffb26e,15:52:17,04/04/2024
,"<div style=""font-size: 10rem; color: #0000FF"">P</div>",,ospan,letter,Xp76wd83DzLGEQcDtbios6YFz4Q2,html-keyboard-response,183,749473,0.0-46.0-6.0-0.0-1.0-7.0,,,,,,,,,,,,,,,5f467b8d74eeef0365ffb26e,15:52:17,04/04/2024
968.0,,,ospan,symmetry,Xp76wd83DzLGEQcDtbios6YFz4Q2,symmetry-judgement-task,184,752504,0.0-46.0-6.0-0.0-1.0-8.0,,,,,,,,,,1.0,1.0,,,,5f467b8d74eeef0365ffb26e,15:52:17,04/04/2024
,"<div style=""font-size: 10rem; color: #0000FF"">G</div>",,ospan,letter,Xp76wd83DzLGEQcDtbios6YFz4Q2,html-keyboard-response,185,753507,0.0-46.0-6.0-0.0-1.0-9.0,,,,,,,,,,,,,,,5f467b8d74eeef0365ffb26e,15:52:17,04/04/2024
4909.400000095367,"<div class = numbox><p style=""font-size: 2.4rem"">Please recall the letters you saw to the best of your ability. If you do not remember a particular letter, use the SKIP button.<br><b>(When you are ready to lock in your answer, press ENTER)</b></p><button id = button_1 class = ""square num-button"" onclick = ""recordClick(this)""><div class = content><div class = numbers>C</div></div></button><button id = button_2 class = ""square num-button"" onclick = ""recordClick(this)""><div class = content><div class = numbers>G</div></div></button><button id = button_3 class = ""square num-button"" onclick = ""recordClick(this)""><div class = content><div class = numbers>H</div></div></button><button id = button_4 class = ""square num-button"" onclick = ""recordClick(this)""><div class = content><div class = numbers>J</div></div></button><button id = button_5 class = ""square num-button"" onclick = ""recordClick(this)""><div class = content><div class = numbers>K</div></div></button><button id = button_6 class = ""square num-button"" onclick = ""recordClick(this)""><div class = content><div class = numbers>L</div></div></button><button id = button_7 class = ""square num-button"" onclick = ""recordClick(this)""><div class = content><div class = numbers>N</div></div></button><button id = button_8 class = ""square num-button"" onclick = ""recordClick(this)""><div class = content><div class = numbers>P</div></div></button><button id = button_9 class = ""square num-button"" onclick = ""recordClick(this)""><div class = content><div class = numbers>Q</div></div></button><button id = button_10 class = ""square num-button"" onclick = ""recordClick(this)""><div class = content><div class = numbers>R</div></div></button><button id = button_11 class = ""square num-button"" onclick = ""recordClick(this)""><div class = content><div class = numbers>S</div></div></button><button id = button_12 class = ""square num-button"" onclick = ""recordClick(this)""><div class = content><div class = numbers>Y</div></div></button><button class = clear_button id = ""ClearButton"" onclick = ""clearResponse()"">BACKSPACE</button><button class = blank_button id = ""BlankButton"" onclick = ""blankResponse()"">SKIP</button><p style=""font-size: 2.4rem""><u><b>Current Answer:</b></u></p><br><br><div id=echoed_txt style=""font-size: 5rem; color:blue;""><b></b></div></div>",enter,ospan,retrieval,Xp76wd83DzLGEQcDtbios6YFz4Q2,html-keyboard-response,186,759169,0.0-46.0-6.0-0.0-2.0,33,32,27,5.0,"[""K"",""Y"",""R"",""P"",""G""]","[""K"",""Y"",""R"",""P"",""G""]",1.0,5.0,,,,,,,5f467b8d74eeef0365ffb26e,15:52:17,04/04/2024
503.10000002384186,[''],0,ospan,feedback,Xp76wd83DzLGEQcDtbios6YFz4Q2,html-button-response,187,760175,0.0-46.0-6.0-0.0-3.0,,,,,,,,,,,,97.0,0.0,,5f467b8d74eeef0365ffb26e,15:52:17,04/04/2024
,"<p style=""font-size:75px;"">...</p>",,ospan,iti,Xp76wd83DzLGEQcDtbios6YFz4Q2,html-keyboard-response,188,761179,0.0-46.0-6.0-1.0-0.0,,,,,,,,,,,,,,,5f467b8d74eeef0365ffb26e,15:52:17,04/04/2024
1533.0,,,ospan,symmetry,Xp76wd83DzLGEQcDtbios6YFz4Q2,symmetry-judgement-task,189,764021,0.0-46.0-6.0-1.0-1.0-0.0,,,,,,,,,,1.0,1.0,,,,5f467b8d74eeef0365ffb26e,15:52:17,04/04/2024
,"<div style=""font-size: 10rem; color: #0000FF"">J</div>",,ospan,letter,Xp76wd83DzLGEQcDtbios6YFz4Q2,html-keyboard-response,190,765024,0.0-46.0-6.0-1.0-1.0-1.0,,,,,,,,,,,,,,,5f467b8d74eeef0365ffb26e,15:52:17,04/04/2024
846.0,,,ospan,symmetry,Xp76wd83DzLGEQcDtbios6YFz4Q2,symmetry-judgement-task,191,767931,0.0-46.0-6.0-1.0-1.0-2.0,,,,,,,,,,1.0,1.0,,,,5f467b8d74eeef0365ffb26e,15:52:17,04/04/2024
,"<div style=""font-size: 10rem; color: #0000FF"">G</div>",,ospan,letter,Xp76wd83DzLGEQcDtbios6YFz4Q2,html-keyboard-response,192,768934,0.0-46.0-6.0-1.0-1.0-3.0,,,,,,,,,,,,,,,5f467b8d74eeef0365ffb26e,15:52:17,04/04/2024
866.0,,,ospan,symmetry,Xp76wd83DzLGEQcDtbios6YFz4Q2,symmetry-judgement-task,193,771886,0.0-46.0-6.0-1.0-1.0-4.0,,,,,,,,,,1.0,1.0,,,,5f467b8d74eeef0365ffb26e,15:52:17,04/04/2024
,"<div style=""font-size: 10rem; color: #0000FF"">R</div>",,ospan,letter,Xp76wd83DzLGEQcDtbios6YFz4Q2,html-keyboard-response,194,772888,0.0-46.0-6.0-1.0-1.0-5.0,,,,,,,,,,,,,,,5f467b8d74eeef0365ffb26e,15:52:17,04/04/2024
929.0,,,ospan,symmetry,Xp76wd83DzLGEQcDtbios6YFz4Q2,symmetry-judgement-task,195,775904,0.0-46.0-6.0-1.0-1.0-6.0,,,,,,,,,,1.0,1.0,,,,5f467b8d74eeef0365ffb26e,15:52:17,04/04/2024
,"<div style=""font-size: 10rem; color: #0000FF"">H</div>",,ospan,letter,Xp76wd83DzLGEQcDtbios6YFz4Q2,html-keyboard-response,196,776906,0.0-46.0-6.0-1.0-1.0-7.0,,,,,,,,,,,,,,,5f467b8d74eeef0365ffb26e,15:52:17,04/04/2024
952.0,,,ospan,symmetry,Xp76wd83DzLGEQcDtbios6YFz4Q2,symmetry-judgement-task,197,779931,0.0-46.0-6.0-1.0-1.0-8.0,,,,,,,,,,1.0,1.0,,,,5f467b8d74eeef0365ffb26e,15:52:17,04/04/2024
,"<div style=""font-size: 10rem; color: #0000FF"">S</div>",,ospan,letter,Xp76wd83DzLGEQcDtbios6YFz4Q2,html-keyboard-response,198,780934,0.0-46.0-6.0-1.0-1.0-9.0,,,,,,,,,,,,,,,5f467b8d74eeef0365ffb26e,15:52:17,04/04/2024
1239.0,,,ospan,symmetry,Xp76wd83DzLGEQcDtbios6YFz4Q2,symmetry-judgement-task,199,784216,0.0-46.0-6.0-1.0-1.0-10.0,,,,,,,,,,1.0,1.0,,,,5f467b8d74eeef0365ffb26e,15:52:17,04/04/2024
,"<div style=""font-size: 10rem; color: #0000FF"">Y</div>",,ospan,letter,Xp76wd83DzLGEQcDtbios6YFz4Q2,html-keyboard-response,200,785219,0.0-46.0-6.0-1.0-1.0-11.0,,,,,,,,,,,,,,,5f467b8d74eeef0365ffb26e,15:52:17,04/04/2024
929.0,,,ospan,symmetry,Xp76wd83DzLGEQcDtbios6YFz4Q2,symmetry-judgement-task,201,788195,0.0-46.0-6.0-1.0-1.0-12.0,,,,,,,,,,1.0,1.0,,,,5f467b8d74eeef0365ffb26e,15:52:17,04/04/2024
,"<div style=""font-size: 10rem; color: #0000FF"">N</div>",,ospan,letter,Xp76wd83DzLGEQcDtbios6YFz4Q2,html-keyboard-response,202,789198,0.0-46.0-6.0-1.0-1.0-13.0,,,,,,,,,,,,,,,5f467b8d74eeef0365ffb26e,15:52:17,04/04/2024
1173.0,,,ospan,symmetry,Xp76wd83DzLGEQcDtbios6YFz4Q2,symmetry-judgement-task,203,792429,0.0-46.0-6.0-1.0-1.0-14.0,,,,,,,,,,1.0,1.0,,,,5f467b8d74eeef0365ffb26e,15:52:17,04/04/2024
,"<div style=""font-size: 10rem; color: #0000FF"">Q</div>",,ospan,letter,Xp76wd83DzLGEQcDtbios6YFz4Q2,html-keyboard-response,204,793431,0.0-46.0-6.0-1.0-1.0-15.0,,,,,,,,,,,,,,,5f467b8d74eeef0365ffb26e,15:52:17,04/04/2024
12571.800000071526,"<div class = numbox><p style=""font-size: 2.4rem"">Please recall the letters you saw to the best of your ability. If you do not remember a particular letter, use the SKIP button.<br><b>(When you are ready to lock in your answer, press ENTER)</b></p><button id = button_1 class = ""square num-button"" onclick = ""recordClick(this)""><div class = content><div class = numbers>C</div></div></button><button id = button_2 class = ""square num-button"" onclick = ""recordClick(this)""><div class = content><div class = numbers>G</div></div></button><button id = button_3 class = ""square num-button"" onclick = ""recordClick(this)""><div class = content><div class = numbers>H</div></div></button><button id = button_4 class = ""square num-button"" onclick = ""recordClick(this)""><div class = content><div class = numbers>J</div></div></button><button id = button_5 class = ""square num-button"" onclick = ""recordClick(this)""><div class = content><div class = numbers>K</div></div></button><button id = button_6 class = ""square num-button"" onclick = ""recordClick(this)""><div class = content><div class = numbers>L</div></div></button><button id = button_7 class = ""square num-button"" onclick = ""recordClick(this)""><div class = content><div class = numbers>N</div></div></button><button id = button_8 class = ""square num-button"" onclick = ""recordClick(this)""><div class = content><div class = numbers>P</div></div></button><button id = button_9 class = ""square num-button"" onclick = ""recordClick(this)""><div class = content><div class = numbers>Q</div></div></button><button id = button_10 class = ""square num-button"" onclick = ""recordClick(this)""><div class = content><div class = numbers>R</div></div></button><button id = button_11 class = ""square num-button"" onclick = ""recordClick(this)""><div class = content><div class = numbers>S</div></div></button><button id = button_12 class = ""square num-button"" onclick = ""recordClick(this)""><div class = content><div class = numbers>Y</div></div></button><button class = clear_button id = ""ClearButton"" onclick = ""clearResponse()"">BACKSPACE</button><button class = blank_button id = ""BlankButton"" onclick = ""blankResponse()"">SKIP</button><p style=""font-size: 2.4rem""><u><b>Current Answer:</b></u></p><br><br><div id=echoed_txt style=""font-size: 5rem; color:blue;""><b></b></div></div>",enter,ospan,retrieval,Xp76wd83DzLGEQcDtbios6YFz4Q2,html-keyboard-response,205,806755,0.0-46.0-6.0-1.0-2.0,41,36,27,8.0,"[""J"",""G"",""R"",""H"",""N"",""S"",""P""]","[""J"",""G"",""R"",""H"",""S"",""Y"",""N"",""Q""]",0.0,4.0,,,,,,,5f467b8d74eeef0365ffb26e,15:52:17,04/04/2024
967.1000000238419,[''],0,ospan,feedback,Xp76wd83DzLGEQcDtbios6YFz4Q2,html-button-response,206,808226,0.0-46.0-6.0-1.0-3.0,,,,,,,,,,,,98.0,0.0,,5f467b8d74eeef0365ffb26e,15:52:17,04/04/2024
14489.100000023842,,{'Q0': 'All was made clear'},ospan,survey_ospan,Xp76wd83DzLGEQcDtbios6YFz4Q2,lmdlab-survey-text,207,823470,0.0-46.0-7.0,,,,,,,,,,,,,,Xp76wd83DzLGEQcDtbios6YFz4Q2,5f467b8d74eeef0365ffb26e,15:52:17,04/04/2024
1095.6999999284744,<p><p style='font-size: 3rem'>Great work!<br><br>This completes the symmetry and memory task.</p><br><br><br>,0,ospan,finish,Xp76wd83DzLGEQcDtbios6YFz4Q2,html-button-response,208,824568,0.0-46.0-8.0,41,36,27,,,,,,,,,98.0,,,5f467b8d74eeef0365ffb26e,15:52:17,04/04/2024
