rt,stimulus,response,exp_name,exp_stage,subjectID,trial_type,trial_index,time_elapsed,internal_node_id,ospan_shown,ospan_total,ospan_abs,length,resp_actual,resp_correct,full_correct,num_correct,feedback,accuracy,correct,math_acc,math_warning,databaseID,prolificID,start_time,date
2423.599999964237,<div class = 'left_align' style='font-size: 3.25rem; line-height: 1.3;'><p class = 'center_align'><b>Welcome to the Symmetry and Memory Task</b><br><br><br><br></p>Press 'continue' to show the instructions.<br><br><br><br></div>,0,ospan,instruct,fnCacLD0zsVfWLPq9BYLRSmCbSq1,html-button-response,54,578271,0.0-46.0-0.0-0.0-0.0,,,,,,,,,,,,,,,62b6ded74322ef992b784ce0,10:18:22,03/04/2024
10950.399999976158,"<div class = 'left_align' style='font-size: 3.25rem; line-height: 1.3;'><p class = 'center_align'><b>Symmetry and Memory Task</b><br><br></p>In this task, you will try to memorize letters you see on the screen<br>while you also view black and white grid pictures.<br><br>In the next few minutes, you will have some practice to get you familiar<br>with how the task works.<br><br>It may be difficult sometimes, but please do not worry about making mistakes!<br><br>We will begin by practicing the letter part of the task.<br><br><br><br></div>",0,ospan,instruct,fnCacLD0zsVfWLPq9BYLRSmCbSq1,html-button-response,55,589481,0.0-46.0-0.0-0.0-1.0,,,,,,,,,,,,,,,62b6ded74322ef992b784ce0,10:18:22,03/04/2024
5701.899999976158,"<div class = 'left_align' style='font-size: 3.25rem; line-height: 1.3;'>For this practice part, letters will appear on the screen one at a time.<br><br>Try to remember each letter in the order presented.<br><br>After some letters have been shown, you will see a response screen. Your<br>goal is to report the letters you saw <b>in order</b>. If you do not remember<br>a particular letter, you will have the option to leave it blank.<br><br><br><br></div>",0,ospan,instruct,fnCacLD0zsVfWLPq9BYLRSmCbSq1,html-button-response,56,595447,0.0-46.0-0.0-0.0-2.0,,,,,,,,,,,,,,,62b6ded74322ef992b784ce0,10:18:22,03/04/2024
3441.100000023842,"<div class = 'left_align' style='font-size: 3.25rem; line-height: 1.3;'>Remember, it is very important to get the letters in the same<br>order as you see them.<br><br>When you are ready, you may begin the letter practice.</div><br><br><br><br>",0,ospan,instruct,fnCacLD0zsVfWLPq9BYLRSmCbSq1,html-button-response,57,599152,0.0-46.0-0.0-0.0-3.0,,,,,,,,,,,,,,,62b6ded74322ef992b784ce0,10:18:22,03/04/2024
,"<p style=""font-size:75px;"">...</p>",,ospan,iti,fnCacLD0zsVfWLPq9BYLRSmCbSq1,html-keyboard-response,58,600415,0.0-46.0-0.0-1.0-0.0,,,,,,,,,,,,,,,62b6ded74322ef992b784ce0,10:18:22,03/04/2024
,"<div style=""font-size: 10rem; color: #0000FF"">R</div>",,ospan,letter,fnCacLD0zsVfWLPq9BYLRSmCbSq1,html-keyboard-response,59,601433,0.0-46.0-0.0-1.0-1.0,,,,,,,,,,,,,,,62b6ded74322ef992b784ce0,10:18:22,03/04/2024
,"<div style=""font-size: 10rem; color: #0000FF"">Q</div>",,ospan,letter,fnCacLD0zsVfWLPq9BYLRSmCbSq1,html-keyboard-response,60,603199,0.0-46.0-0.0-1.0-2.0,,,,,,,,,,,,,,,62b6ded74322ef992b784ce0,10:18:22,03/04/2024
5015.100000023842,"<div class = numbox><p style=""font-size: 2.4rem"">Please recall the letters you saw to the best of your ability. If you do not remember a particular letter, use the SKIP button.<br><b>(When you are ready to lock in your answer, press ENTER)</b></p><button id = button_1 class = ""square num-button"" onclick = ""recordClick(this)""><div class = content><div class = numbers>C</div></div></button><button id = button_2 class = ""square num-button"" onclick = ""recordClick(this)""><div class = content><div class = numbers>G</div></div></button><button id = button_3 class = ""square num-button"" onclick = ""recordClick(this)""><div class = content><div class = numbers>H</div></div></button><button id = button_4 class = ""square num-button"" onclick = ""recordClick(this)""><div class = content><div class = numbers>J</div></div></button><button id = button_5 class = ""square num-button"" onclick = ""recordClick(this)""><div class = content><div class = numbers>K</div></div></button><button id = button_6 class = ""square num-button"" onclick = ""recordClick(this)""><div class = content><div class = numbers>L</div></div></button><button id = button_7 class = ""square num-button"" onclick = ""recordClick(this)""><div class = content><div class = numbers>N</div></div></button><button id = button_8 class = ""square num-button"" onclick = ""recordClick(this)""><div class = content><div class = numbers>P</div></div></button><button id = button_9 class = ""square num-button"" onclick = ""recordClick(this)""><div class = content><div class = numbers>Q</div></div></button><button id = button_10 class = ""square num-button"" onclick = ""recordClick(this)""><div class = content><div class = numbers>R</div></div></button><button id = button_11 class = ""square num-button"" onclick = ""recordClick(this)""><div class = content><div class = numbers>S</div></div></button><button id = button_12 class = ""square num-button"" onclick = ""recordClick(this)""><div class = content><div class = numbers>Y</div></div></button><button class = clear_button id = ""ClearButton"" onclick = ""clearResponse()"">BACKSPACE</button><button class = blank_button id = ""BlankButton"" onclick = ""blankResponse()"">SKIP</button><p style=""font-size: 2.4rem""><u><b>Current Answer:</b></u></p><br><br><div id=echoed_txt style=""font-size: 5rem; color:blue;""><b></b></div></div>",enter,ospan,retrieval,fnCacLD0zsVfWLPq9BYLRSmCbSq1,html-keyboard-response,61,608979,0.0-46.0-0.0-1.0-3.0,NA,NA,NA,2.0,"[""R"",""Q""]","[""R"",""Q""]",1.0,2.0,"['<font color=""green"">R</font>', '<font color=""green"">Q</font>']",,,,,,62b6ded74322ef992b784ce0,10:18:22,03/04/2024
1336.5,"['<p style=""font-size:44px"">Letters:<br><br><br><font color=""green"">R</font> <font color=""green"">Q</font></p><br><br>']",0,ospan,practice_feedback,fnCacLD0zsVfWLPq9BYLRSmCbSq1,html-button-response,62,610830,0.0-46.0-0.0-1.0-4.0,,,,,,,,,,,,,,,62b6ded74322ef992b784ce0,10:18:22,03/04/2024
,"<p style=""font-size:75px;"">...</p>",,ospan,iti,fnCacLD0zsVfWLPq9BYLRSmCbSq1,html-keyboard-response,63,611836,0.0-46.0-0.0-2.0-0.0,,,,,,,,,,,,,,,62b6ded74322ef992b784ce0,10:18:22,03/04/2024
,"<div style=""font-size: 10rem; color: #0000FF"">Y</div>",,ospan,letter,fnCacLD0zsVfWLPq9BYLRSmCbSq1,html-keyboard-response,64,612848,0.0-46.0-0.0-2.0-1.0,,,,,,,,,,,,,,,62b6ded74322ef992b784ce0,10:18:22,03/04/2024
,"<div style=""font-size: 10rem; color: #0000FF"">G</div>",,ospan,letter,fnCacLD0zsVfWLPq9BYLRSmCbSq1,html-keyboard-response,65,614620,0.0-46.0-0.0-2.0-2.0,,,,,,,,,,,,,,,62b6ded74322ef992b784ce0,10:18:22,03/04/2024
,"<div style=""font-size: 10rem; color: #0000FF"">J</div>",,ospan,letter,fnCacLD0zsVfWLPq9BYLRSmCbSq1,html-keyboard-response,66,616379,0.0-46.0-0.0-2.0-3.0,,,,,,,,,,,,,,,62b6ded74322ef992b784ce0,10:18:22,03/04/2024
4756.199999988079,"<div class = numbox><p style=""font-size: 2.4rem"">Please recall the letters you saw to the best of your ability. If you do not remember a particular letter, use the SKIP button.<br><b>(When you are ready to lock in your answer, press ENTER)</b></p><button id = button_1 class = ""square num-button"" onclick = ""recordClick(this)""><div class = content><div class = numbers>C</div></div></button><button id = button_2 class = ""square num-button"" onclick = ""recordClick(this)""><div class = content><div class = numbers>G</div></div></button><button id = button_3 class = ""square num-button"" onclick = ""recordClick(this)""><div class = content><div class = numbers>H</div></div></button><button id = button_4 class = ""square num-button"" onclick = ""recordClick(this)""><div class = content><div class = numbers>J</div></div></button><button id = button_5 class = ""square num-button"" onclick = ""recordClick(this)""><div class = content><div class = numbers>K</div></div></button><button id = button_6 class = ""square num-button"" onclick = ""recordClick(this)""><div class = content><div class = numbers>L</div></div></button><button id = button_7 class = ""square num-button"" onclick = ""recordClick(this)""><div class = content><div class = numbers>N</div></div></button><button id = button_8 class = ""square num-button"" onclick = ""recordClick(this)""><div class = content><div class = numbers>P</div></div></button><button id = button_9 class = ""square num-button"" onclick = ""recordClick(this)""><div class = content><div class = numbers>Q</div></div></button><button id = button_10 class = ""square num-button"" onclick = ""recordClick(this)""><div class = content><div class = numbers>R</div></div></button><button id = button_11 class = ""square num-button"" onclick = ""recordClick(this)""><div class = content><div class = numbers>S</div></div></button><button id = button_12 class = ""square num-button"" onclick = ""recordClick(this)""><div class = content><div class = numbers>Y</div></div></button><button class = clear_button id = ""ClearButton"" onclick = ""clearResponse()"">BACKSPACE</button><button class = blank_button id = ""BlankButton"" onclick = ""blankResponse()"">SKIP</button><p style=""font-size: 2.4rem""><u><b>Current Answer:</b></u></p><br><br><div id=echoed_txt style=""font-size: 5rem; color:blue;""><b></b></div></div>",enter,ospan,retrieval,fnCacLD0zsVfWLPq9BYLRSmCbSq1,html-keyboard-response,67,621901,0.0-46.0-0.0-2.0-4.0,NA,NA,NA,3.0,"[""Y"",""G"",""J""]","[""Y"",""G"",""J""]",1.0,3.0,"['<font color=""green"">Y</font>', '<font color=""green"">G</font>', '<font color=""green"">J</font>']",,,,,,62b6ded74322ef992b784ce0,10:18:22,03/04/2024
2927.300000011921,"['<p style=""font-size:44px"">Letters:<br><br><br><font color=""green"">Y</font> <font color=""green"">G</font> <font color=""green"">J</font></p><br><br>']",0,ospan,practice_feedback,fnCacLD0zsVfWLPq9BYLRSmCbSq1,html-button-response,68,625343,0.0-46.0-0.0-2.0-5.0,,,,,,,,,,,,,,,62b6ded74322ef992b784ce0,10:18:22,03/04/2024
19757.5,"<div class = 'left_align' style='font-size: 3.25rem; line-height: 1.3;'>Now you will practice doing the <b>symmetry judgment part</b> of the experiment.<br><br>A black and white grid picture will appear on the screen and you have to judge if it is <br>symmetrical or asymetrical.<br><br>A picture is 'mirror' symmetrical if its left half is identical to the right half when flipped.<br>Here are examples of a symmetrical and an asymetrical picture:<br><br><center><img src='Stimuli/img/symm_instructions_extra.png' style='height:420px; width:900'></img></center><br>To judge symmetry, imagine you were to fold each picture down the middle, like a book –<br>would the left half match the right half when folded onto each other?<br><br></div><br>",0,ospan,instruct,fnCacLD0zsVfWLPq9BYLRSmCbSq1,html-button-response,69,645103,0.0-46.0-1.0-0.0-0.0,,,,,,,,,,,,,,,62b6ded74322ef992b784ce0,10:18:22,03/04/2024
4496.0,"<div class = 'left_align' style='font-size: 3.25rem; line-height: 1.3;'>When you have viewed the picture and determined whether it is symmetrical or not,<br>you can <b>click the Yes or No button</b> below to answer.<br><br>If you take longer than 15 seconds, it will continue automatically<br>and record the answer as an error.</div><br>",0,ospan,instruct,fnCacLD0zsVfWLPq9BYLRSmCbSq1,html-button-response,70,649862,0.0-46.0-1.0-0.0-1.0,,,,,,,,,,,,,,,62b6ded74322ef992b784ce0,10:18:22,03/04/2024
1065.300000011921,"<div class = 'left_align' style='font-size: 3.25rem; line-height: 1.3;'>It is <b>very</b> important that you make the symmetry judgment correctly.<br><br>It is also important that you try and judge the picture as quickly as you can.<br><br>When you are ready, click on the button below to try some practice problems.</div><br><br><br><br>",0,ospan,instruct,fnCacLD0zsVfWLPq9BYLRSmCbSq1,html-button-response,71,651185,0.0-46.0-1.0-0.0-2.0,,,,,,,,,,,,,,,62b6ded74322ef992b784ce0,10:18:22,03/04/2024
2265.0,,,ospan,symmetry,fnCacLD0zsVfWLPq9BYLRSmCbSq1,symmetry-judgement-task,72,654299,0.0-46.0-1.0-1.0-0.0,,,,,,,,,,1.0,1.0,,,,62b6ded74322ef992b784ce0,10:18:22,03/04/2024
,"<p style=""color:green; font-size: 35px"">Correct</p>",,ospan,feedback,fnCacLD0zsVfWLPq9BYLRSmCbSq1,html-keyboard-response,73,655064,0.0-46.0-1.0-1.0-1.0,,,,,,,,,,,,,,,62b6ded74322ef992b784ce0,10:18:22,03/04/2024
1551.0,,,ospan,symmetry,fnCacLD0zsVfWLPq9BYLRSmCbSq1,symmetry-judgement-task,74,659328,0.0-46.0-1.0-1.0-2.0,,,,,,,,,,1.0,1.0,,,,62b6ded74322ef992b784ce0,10:18:22,03/04/2024
,"<p style=""color:green; font-size: 35px"">Correct</p>",,ospan,feedback,fnCacLD0zsVfWLPq9BYLRSmCbSq1,html-keyboard-response,75,660079,0.0-46.0-1.0-1.0-3.0,,,,,,,,,,,,,,,62b6ded74322ef992b784ce0,10:18:22,03/04/2024
1127.0,,,ospan,symmetry,fnCacLD0zsVfWLPq9BYLRSmCbSq1,symmetry-judgement-task,76,663937,0.0-46.0-1.0-1.0-4.0,,,,,,,,,,1.0,1.0,,,,62b6ded74322ef992b784ce0,10:18:22,03/04/2024
,"<p style=""color:green; font-size: 35px"">Correct</p>",,ospan,feedback,fnCacLD0zsVfWLPq9BYLRSmCbSq1,html-keyboard-response,77,664698,0.0-46.0-1.0-1.0-5.0,,,,,,,,,,,,,,,62b6ded74322ef992b784ce0,10:18:22,03/04/2024
1062.300000011921,"<p style=""font-size: 3rem;"">You responded correctly on 3 of 3 symmetry judgments. Good job!</p><br><br>",0,ospan,practice,fnCacLD0zsVfWLPq9BYLRSmCbSq1,html-button-response,78,667765,0.0-46.0-1.0-2.0,,,,,,,,,,,,,,,62b6ded74322ef992b784ce0,10:18:22,03/04/2024
1659.0,"<div class = 'left_align' style='font-size: 3.25rem; line-height: 1.3;'>Now you will practice doing both parts of the experiment at the same time.<br><br>In the next practice set, you will be given one grid picture to judge.<br>Then letter will appear on the screen. Try to remember the letter.<br><br>It is <b>very important</b> to make the symmetry judgment as quickly and accurately as possible.<br><br>Just as before, once you have make the symmetry judgment, you can click Yes or No.<br><b>Note that you will no longer see Correct or Incorrect feedback.</div><br><br><br><br>",0,ospan,instruct,fnCacLD0zsVfWLPq9BYLRSmCbSq1,html-button-response,79,669683,0.0-46.0-2.0-0.0-0.0,,,,,,,,,,,,,,,62b6ded74322ef992b784ce0,10:18:22,03/04/2024
1495.9000000357628,"<div class = 'left_align' style='font-size: 3.25rem; line-height: 1.3;'>After the letter goes away, another grid picture will appear, and then<br>another letter.<br><br>At the end of each set of letters and grids, you will recall the letters to the best<br>of your ability. Remember, try your best to get the letters in the correct order.<br><br>It is important to <b>quickly</b> and <b>accurately</b> make the symmetry judgments.</div><br><br><br><br>",0,ospan,instruct,fnCacLD0zsVfWLPq9BYLRSmCbSq1,html-button-response,80,671433,0.0-46.0-2.0-0.0-1.0,,,,,,,,,,,,,,,62b6ded74322ef992b784ce0,10:18:22,03/04/2024
1442.199999988079,"<div class = 'left_align' style='font-size: 3.25rem; line-height: 1.3;'>On the feedback screen, if you are not doing well at the symmetry judgments,<br>you will also see a warning in the middle. This indicates your percent <br>correct for the grid pictures for the entire experiment.<br><br>It is <b>very</b> important for you to keep accuracy at least at 85%: <u>We can only use<br>data where the participant was at least 85% accurate on the judgments.</u> Therefore,<br> please try your best to perform well on the symmetry judgments, <b>at the same time</b><br>doing your best to recall as many letters as possible.<br><br>Click the button to try some practice problems.</div><br><br><br><br>",0,ospan,instruct,fnCacLD0zsVfWLPq9BYLRSmCbSq1,html-button-response,81,673142,0.0-46.0-2.0-0.0-2.0,,,,,,,,,,,,,,,62b6ded74322ef992b784ce0,10:18:22,03/04/2024
,"<p style=""font-size:75px;"">...</p>",,ospan,iti,fnCacLD0zsVfWLPq9BYLRSmCbSq1,html-keyboard-response,82,674406,0.0-46.0-2.0-1.0-0.0,,,,,,,,,,,,,,,62b6ded74322ef992b784ce0,10:18:22,03/04/2024
1893.0,,,ospan,symmetry,fnCacLD0zsVfWLPq9BYLRSmCbSq1,symmetry-judgement-task,83,677478,0.0-46.0-2.0-1.0-1.0-0.0,,,,,,,,,,1.0,1.0,,,,62b6ded74322ef992b784ce0,10:18:22,03/04/2024
,"<div style=""font-size: 10rem; color: #0000FF"">Q</div>",,ospan,letter,fnCacLD0zsVfWLPq9BYLRSmCbSq1,html-keyboard-response,84,678484,0.0-46.0-2.0-1.0-1.0-1.0,,,,,,,,,,,,,,,62b6ded74322ef992b784ce0,10:18:22,03/04/2024
2117.0,,,ospan,symmetry,fnCacLD0zsVfWLPq9BYLRSmCbSq1,symmetry-judgement-task,85,682595,0.0-46.0-2.0-1.0-1.0-2.0,,,,,,,,,,1.0,1.0,,,,62b6ded74322ef992b784ce0,10:18:22,03/04/2024
,"<div style=""font-size: 10rem; color: #0000FF"">L</div>",,ospan,letter,fnCacLD0zsVfWLPq9BYLRSmCbSq1,html-keyboard-response,86,683599,0.0-46.0-2.0-1.0-1.0-3.0,,,,,,,,,,,,,,,62b6ded74322ef992b784ce0,10:18:22,03/04/2024
1500.0,,,ospan,symmetry,fnCacLD0zsVfWLPq9BYLRSmCbSq1,symmetry-judgement-task,87,687056,0.0-46.0-2.0-1.0-1.0-4.0,,,,,,,,,,1.0,1.0,,,,62b6ded74322ef992b784ce0,10:18:22,03/04/2024
,"<div style=""font-size: 10rem; color: #0000FF"">S</div>",,ospan,letter,fnCacLD0zsVfWLPq9BYLRSmCbSq1,html-keyboard-response,88,688072,0.0-46.0-2.0-1.0-1.0-5.0,,,,,,,,,,,,,,,62b6ded74322ef992b784ce0,10:18:22,03/04/2024
3978.199999988079,"<div class = numbox><p style=""font-size: 2.4rem"">Please recall the letters you saw to the best of your ability. If you do not remember a particular letter, use the SKIP button.<br><b>(When you are ready to lock in your answer, press ENTER)</b></p><button id = button_1 class = ""square num-button"" onclick = ""recordClick(this)""><div class = content><div class = numbers>C</div></div></button><button id = button_2 class = ""square num-button"" onclick = ""recordClick(this)""><div class = content><div class = numbers>G</div></div></button><button id = button_3 class = ""square num-button"" onclick = ""recordClick(this)""><div class = content><div class = numbers>H</div></div></button><button id = button_4 class = ""square num-button"" onclick = ""recordClick(this)""><div class = content><div class = numbers>J</div></div></button><button id = button_5 class = ""square num-button"" onclick = ""recordClick(this)""><div class = content><div class = numbers>K</div></div></button><button id = button_6 class = ""square num-button"" onclick = ""recordClick(this)""><div class = content><div class = numbers>L</div></div></button><button id = button_7 class = ""square num-button"" onclick = ""recordClick(this)""><div class = content><div class = numbers>N</div></div></button><button id = button_8 class = ""square num-button"" onclick = ""recordClick(this)""><div class = content><div class = numbers>P</div></div></button><button id = button_9 class = ""square num-button"" onclick = ""recordClick(this)""><div class = content><div class = numbers>Q</div></div></button><button id = button_10 class = ""square num-button"" onclick = ""recordClick(this)""><div class = content><div class = numbers>R</div></div></button><button id = button_11 class = ""square num-button"" onclick = ""recordClick(this)""><div class = content><div class = numbers>S</div></div></button><button id = button_12 class = ""square num-button"" onclick = ""recordClick(this)""><div class = content><div class = numbers>Y</div></div></button><button class = clear_button id = ""ClearButton"" onclick = ""clearResponse()"">BACKSPACE</button><button class = blank_button id = ""BlankButton"" onclick = ""blankResponse()"">SKIP</button><p style=""font-size: 2.4rem""><u><b>Current Answer:</b></u></p><br><br><div id=echoed_txt style=""font-size: 5rem; color:blue;""><b></b></div></div>",enter,ospan,retrieval,fnCacLD0zsVfWLPq9BYLRSmCbSq1,html-keyboard-response,89,692809,0.0-46.0-2.0-1.0-2.0-0.0,NA,NA,NA,3.0,"[""Q"",""L"",""S""]","[""Q"",""L"",""S""]",1.0,3.0,"['<font color=""green"">Q</font>', '<font color=""green"">L</font>', '<font color=""green"">S</font>']",,,,,,62b6ded74322ef992b784ce0,10:18:22,03/04/2024
1843.800000011921,"['<p style=""font-size:44px"">Letters:<br><br><br><font color=""green"">Q</font> <font color=""green"">L</font> <font color=""green"">S</font></p><br><br><p style=""font-size:30px"">Symmetry:<br><br><font color=""green"">100%</font></p><br><br>']",0,ospan,practice_feedback,fnCacLD0zsVfWLPq9BYLRSmCbSq1,html-button-response,90,695162,0.0-46.0-2.0-1.0-2.0-1.0,,,,,,,,,,,,,,,62b6ded74322ef992b784ce0,10:18:22,03/04/2024
,"<p style=""font-size:75px;"">...</p>",,ospan,iti,fnCacLD0zsVfWLPq9BYLRSmCbSq1,html-keyboard-response,91,696177,0.0-46.0-2.0-2.0-0.0,,,,,,,,,,,,,,,62b6ded74322ef992b784ce0,10:18:22,03/04/2024
1546.0,,,ospan,symmetry,fnCacLD0zsVfWLPq9BYLRSmCbSq1,symmetry-judgement-task,92,698957,0.0-46.0-2.0-2.0-1.0-0.0,,,,,,,,,,1.0,1.0,,,,62b6ded74322ef992b784ce0,10:18:22,03/04/2024
,"<div style=""font-size: 10rem; color: #0000FF"">Y</div>",,ospan,letter,fnCacLD0zsVfWLPq9BYLRSmCbSq1,html-keyboard-response,93,699960,0.0-46.0-2.0-2.0-1.0-1.0,,,,,,,,,,,,,,,62b6ded74322ef992b784ce0,10:18:22,03/04/2024
1258.0,,,ospan,symmetry,fnCacLD0zsVfWLPq9BYLRSmCbSq1,symmetry-judgement-task,94,703183,0.0-46.0-2.0-2.0-1.0-2.0,,,,,,,,,,1.0,1.0,,,,62b6ded74322ef992b784ce0,10:18:22,03/04/2024
,"<div style=""font-size: 10rem; color: #0000FF"">K</div>",,ospan,letter,fnCacLD0zsVfWLPq9BYLRSmCbSq1,html-keyboard-response,95,704187,0.0-46.0-2.0-2.0-1.0-3.0,,,,,,,,,,,,,,,62b6ded74322ef992b784ce0,10:18:22,03/04/2024
1498.0,,,ospan,symmetry,fnCacLD0zsVfWLPq9BYLRSmCbSq1,symmetry-judgement-task,96,707605,0.0-46.0-2.0-2.0-1.0-4.0,,,,,,,,,,1.0,1.0,,,,62b6ded74322ef992b784ce0,10:18:22,03/04/2024
,"<div style=""font-size: 10rem; color: #0000FF"">S</div>",,ospan,letter,fnCacLD0zsVfWLPq9BYLRSmCbSq1,html-keyboard-response,97,708620,0.0-46.0-2.0-2.0-1.0-5.0,,,,,,,,,,,,,,,62b6ded74322ef992b784ce0,10:18:22,03/04/2024
2929.5,"<div class = numbox><p style=""font-size: 2.4rem"">Please recall the letters you saw to the best of your ability. If you do not remember a particular letter, use the SKIP button.<br><b>(When you are ready to lock in your answer, press ENTER)</b></p><button id = button_1 class = ""square num-button"" onclick = ""recordClick(this)""><div class = content><div class = numbers>C</div></div></button><button id = button_2 class = ""square num-button"" onclick = ""recordClick(this)""><div class = content><div class = numbers>G</div></div></button><button id = button_3 class = ""square num-button"" onclick = ""recordClick(this)""><div class = content><div class = numbers>H</div></div></button><button id = button_4 class = ""square num-button"" onclick = ""recordClick(this)""><div class = content><div class = numbers>J</div></div></button><button id = button_5 class = ""square num-button"" onclick = ""recordClick(this)""><div class = content><div class = numbers>K</div></div></button><button id = button_6 class = ""square num-button"" onclick = ""recordClick(this)""><div class = content><div class = numbers>L</div></div></button><button id = button_7 class = ""square num-button"" onclick = ""recordClick(this)""><div class = content><div class = numbers>N</div></div></button><button id = button_8 class = ""square num-button"" onclick = ""recordClick(this)""><div class = content><div class = numbers>P</div></div></button><button id = button_9 class = ""square num-button"" onclick = ""recordClick(this)""><div class = content><div class = numbers>Q</div></div></button><button id = button_10 class = ""square num-button"" onclick = ""recordClick(this)""><div class = content><div class = numbers>R</div></div></button><button id = button_11 class = ""square num-button"" onclick = ""recordClick(this)""><div class = content><div class = numbers>S</div></div></button><button id = button_12 class = ""square num-button"" onclick = ""recordClick(this)""><div class = content><div class = numbers>Y</div></div></button><button class = clear_button id = ""ClearButton"" onclick = ""clearResponse()"">BACKSPACE</button><button class = blank_button id = ""BlankButton"" onclick = ""blankResponse()"">SKIP</button><p style=""font-size: 2.4rem""><u><b>Current Answer:</b></u></p><br><br><div id=echoed_txt style=""font-size: 5rem; color:blue;""><b></b></div></div>",enter,ospan,retrieval,fnCacLD0zsVfWLPq9BYLRSmCbSq1,html-keyboard-response,98,712314,0.0-46.0-2.0-2.0-2.0-0.0,NA,NA,NA,3.0,"[""Y"",""K"",""S""]","[""Y"",""K"",""S""]",1.0,3.0,"['<font color=""green"">Y</font>', '<font color=""green"">K</font>', '<font color=""green"">S</font>']",,,,,,62b6ded74322ef992b784ce0,10:18:22,03/04/2024
2655.100000023842,"['<p style=""font-size:44px"">Letters:<br><br><br><font color=""green"">Y</font> <font color=""green"">K</font> <font color=""green"">S</font></p><br><br><p style=""font-size:30px"">Symmetry:<br><br><font color=""green"">100%</font></p><br><br>']",0,ospan,practice_feedback,fnCacLD0zsVfWLPq9BYLRSmCbSq1,html-button-response,99,715485,0.0-46.0-2.0-2.0-2.0-1.0,,,,,,,,,,,,,,,62b6ded74322ef992b784ce0,10:18:22,03/04/2024
2868.5,"<div class = 'left_align' style='font-size: 3rem; line-height: 1.3;'><b>Great work! That is the end of practice.</b><br><br>The real trials will look just like the practice trials you just completed.<br><br><u>Here, you will not see feedback</u>. First, you will see an grid picture to judge,<br>then a letter to remember. When the recall screen appears, report the letters in the<br>order presented. If you forget a letter, remember to use the <b>blank</b> button to move to the<br>next letter. Some of the sets will have more symmetry grids and letters than others.<br><br>It is important that you do your best on both the symmetry judgments and the letter recall<br>parts of the experiment. For for the symmetry judgments, try to work as <b>quickly</b> and <br>as <b>accurately</b> as possible. Remember to keep your symmetry accuracy at 85% or above.<br><br><b>For the letters, do NOT use any external aid (e.g., writing on paper, electronic device).</b><br><br>It is <u>very important</u> to our experiment to have a <b>true</b> view of your real performance.<br><br>Do not worry if you miss some when it gets hard! This task is meant to be very challenging!<br><br>Click the button to begin.</div><br><br><br><br>",0,ospan,starting_real_here,fnCacLD0zsVfWLPq9BYLRSmCbSq1,html-button-response,100,718357,0.0-46.0-2.0-3.0,,,,,,,,,,,,,,,62b6ded74322ef992b784ce0,10:18:22,03/04/2024
,"<p style=""font-size:75px;"">...</p>",,ospan,iti,fnCacLD0zsVfWLPq9BYLRSmCbSq1,html-keyboard-response,101,719619,0.0-46.0-3.0-0.0-0.0,,,,,,,,,,,,,,,62b6ded74322ef992b784ce0,10:18:22,03/04/2024
1578.0,,,ospan,symmetry,fnCacLD0zsVfWLPq9BYLRSmCbSq1,symmetry-judgement-task,102,722418,0.0-46.0-3.0-0.0-1.0-0.0,,,,,,,,,,1.0,1.0,,,,62b6ded74322ef992b784ce0,10:18:22,03/04/2024
,"<div style=""font-size: 10rem; color: #0000FF"">G</div>",,ospan,letter,fnCacLD0zsVfWLPq9BYLRSmCbSq1,html-keyboard-response,103,723424,0.0-46.0-3.0-0.0-1.0-1.0,,,,,,,,,,,,,,,62b6ded74322ef992b784ce0,10:18:22,03/04/2024
1277.0,,,ospan,symmetry,fnCacLD0zsVfWLPq9BYLRSmCbSq1,symmetry-judgement-task,104,726668,0.0-46.0-3.0-0.0-1.0-2.0,,,,,,,,,,1.0,1.0,,,,62b6ded74322ef992b784ce0,10:18:22,03/04/2024
,"<div style=""font-size: 10rem; color: #0000FF"">Q</div>",,ospan,letter,fnCacLD0zsVfWLPq9BYLRSmCbSq1,html-keyboard-response,105,727686,0.0-46.0-3.0-0.0-1.0-3.0,,,,,,,,,,,,,,,62b6ded74322ef992b784ce0,10:18:22,03/04/2024
1211.0,,,ospan,symmetry,fnCacLD0zsVfWLPq9BYLRSmCbSq1,symmetry-judgement-task,106,730851,0.0-46.0-3.0-0.0-1.0-4.0,,,,,,,,,,1.0,1.0,,,,62b6ded74322ef992b784ce0,10:18:22,03/04/2024
,"<div style=""font-size: 10rem; color: #0000FF"">K</div>",,ospan,letter,fnCacLD0zsVfWLPq9BYLRSmCbSq1,html-keyboard-response,107,731858,0.0-46.0-3.0-0.0-1.0-5.0,,,,,,,,,,,,,,,62b6ded74322ef992b784ce0,10:18:22,03/04/2024
4137.899999976158,"<div class = numbox><p style=""font-size: 2.4rem"">Please recall the letters you saw to the best of your ability. If you do not remember a particular letter, use the SKIP button.<br><b>(When you are ready to lock in your answer, press ENTER)</b></p><button id = button_1 class = ""square num-button"" onclick = ""recordClick(this)""><div class = content><div class = numbers>C</div></div></button><button id = button_2 class = ""square num-button"" onclick = ""recordClick(this)""><div class = content><div class = numbers>G</div></div></button><button id = button_3 class = ""square num-button"" onclick = ""recordClick(this)""><div class = content><div class = numbers>H</div></div></button><button id = button_4 class = ""square num-button"" onclick = ""recordClick(this)""><div class = content><div class = numbers>J</div></div></button><button id = button_5 class = ""square num-button"" onclick = ""recordClick(this)""><div class = content><div class = numbers>K</div></div></button><button id = button_6 class = ""square num-button"" onclick = ""recordClick(this)""><div class = content><div class = numbers>L</div></div></button><button id = button_7 class = ""square num-button"" onclick = ""recordClick(this)""><div class = content><div class = numbers>N</div></div></button><button id = button_8 class = ""square num-button"" onclick = ""recordClick(this)""><div class = content><div class = numbers>P</div></div></button><button id = button_9 class = ""square num-button"" onclick = ""recordClick(this)""><div class = content><div class = numbers>Q</div></div></button><button id = button_10 class = ""square num-button"" onclick = ""recordClick(this)""><div class = content><div class = numbers>R</div></div></button><button id = button_11 class = ""square num-button"" onclick = ""recordClick(this)""><div class = content><div class = numbers>S</div></div></button><button id = button_12 class = ""square num-button"" onclick = ""recordClick(this)""><div class = content><div class = numbers>Y</div></div></button><button class = clear_button id = ""ClearButton"" onclick = ""clearResponse()"">BACKSPACE</button><button class = blank_button id = ""BlankButton"" onclick = ""blankResponse()"">SKIP</button><p style=""font-size: 2.4rem""><u><b>Current Answer:</b></u></p><br><br><div id=echoed_txt style=""font-size: 5rem; color:blue;""><b></b></div></div>",enter,ospan,retrieval,fnCacLD0zsVfWLPq9BYLRSmCbSq1,html-keyboard-response,108,736763,0.0-46.0-3.0-0.0-2.0,3,3,3,3.0,"[""G"",""Q"",""K""]","[""G"",""Q"",""K""]",1.0,3.0,,,,,,,62b6ded74322ef992b784ce0,10:18:22,03/04/2024
1267.699999988079,[''],0,ospan,feedback,fnCacLD0zsVfWLPq9BYLRSmCbSq1,html-button-response,109,738546,0.0-46.0-3.0-0.0-3.0,,,,,,,,,,,,100.0,0.0,,62b6ded74322ef992b784ce0,10:18:22,03/04/2024
,"<p style=""font-size:75px;"">...</p>",,ospan,iti,fnCacLD0zsVfWLPq9BYLRSmCbSq1,html-keyboard-response,110,739552,0.0-46.0-4.0-0.0-0.0,,,,,,,,,,,,,,,62b6ded74322ef992b784ce0,10:18:22,03/04/2024
1195.0,,,ospan,symmetry,fnCacLD0zsVfWLPq9BYLRSmCbSq1,symmetry-judgement-task,111,741957,0.0-46.0-4.0-0.0-1.0-0.0,,,,,,,,,,1.0,1.0,,,,62b6ded74322ef992b784ce0,10:18:22,03/04/2024
,"<div style=""font-size: 10rem; color: #0000FF"">K</div>",,ospan,letter,fnCacLD0zsVfWLPq9BYLRSmCbSq1,html-keyboard-response,112,742971,0.0-46.0-4.0-0.0-1.0-1.0,,,,,,,,,,,,,,,62b6ded74322ef992b784ce0,10:18:22,03/04/2024
1746.0,,,ospan,symmetry,fnCacLD0zsVfWLPq9BYLRSmCbSq1,symmetry-judgement-task,113,746681,0.0-46.0-4.0-0.0-1.0-2.0,,,,,,,,,,1.0,1.0,,,,62b6ded74322ef992b784ce0,10:18:22,03/04/2024
,"<div style=""font-size: 10rem; color: #0000FF"">P</div>",,ospan,letter,fnCacLD0zsVfWLPq9BYLRSmCbSq1,html-keyboard-response,114,747688,0.0-46.0-4.0-0.0-1.0-3.0,,,,,,,,,,,,,,,62b6ded74322ef992b784ce0,10:18:22,03/04/2024
1098.0,,,ospan,symmetry,fnCacLD0zsVfWLPq9BYLRSmCbSq1,symmetry-judgement-task,115,750758,0.0-46.0-4.0-0.0-1.0-4.0,,,,,,,,,,1.0,1.0,,,,62b6ded74322ef992b784ce0,10:18:22,03/04/2024
,"<div style=""font-size: 10rem; color: #0000FF"">Y</div>",,ospan,letter,fnCacLD0zsVfWLPq9BYLRSmCbSq1,html-keyboard-response,116,751760,0.0-46.0-4.0-0.0-1.0-5.0,,,,,,,,,,,,,,,62b6ded74322ef992b784ce0,10:18:22,03/04/2024
1305.0,,,ospan,symmetry,fnCacLD0zsVfWLPq9BYLRSmCbSq1,symmetry-judgement-task,117,754995,0.0-46.0-4.0-0.0-1.0-6.0,,,,,,,,,,1.0,1.0,,,,62b6ded74322ef992b784ce0,10:18:22,03/04/2024
,"<div style=""font-size: 10rem; color: #0000FF"">G</div>",,ospan,letter,fnCacLD0zsVfWLPq9BYLRSmCbSq1,html-keyboard-response,118,756014,0.0-46.0-4.0-0.0-1.0-7.0,,,,,,,,,,,,,,,62b6ded74322ef992b784ce0,10:18:22,03/04/2024
4848.5,"<div class = numbox><p style=""font-size: 2.4rem"">Please recall the letters you saw to the best of your ability. If you do not remember a particular letter, use the SKIP button.<br><b>(When you are ready to lock in your answer, press ENTER)</b></p><button id = button_1 class = ""square num-button"" onclick = ""recordClick(this)""><div class = content><div class = numbers>C</div></div></button><button id = button_2 class = ""square num-button"" onclick = ""recordClick(this)""><div class = content><div class = numbers>G</div></div></button><button id = button_3 class = ""square num-button"" onclick = ""recordClick(this)""><div class = content><div class = numbers>H</div></div></button><button id = button_4 class = ""square num-button"" onclick = ""recordClick(this)""><div class = content><div class = numbers>J</div></div></button><button id = button_5 class = ""square num-button"" onclick = ""recordClick(this)""><div class = content><div class = numbers>K</div></div></button><button id = button_6 class = ""square num-button"" onclick = ""recordClick(this)""><div class = content><div class = numbers>L</div></div></button><button id = button_7 class = ""square num-button"" onclick = ""recordClick(this)""><div class = content><div class = numbers>N</div></div></button><button id = button_8 class = ""square num-button"" onclick = ""recordClick(this)""><div class = content><div class = numbers>P</div></div></button><button id = button_9 class = ""square num-button"" onclick = ""recordClick(this)""><div class = content><div class = numbers>Q</div></div></button><button id = button_10 class = ""square num-button"" onclick = ""recordClick(this)""><div class = content><div class = numbers>R</div></div></button><button id = button_11 class = ""square num-button"" onclick = ""recordClick(this)""><div class = content><div class = numbers>S</div></div></button><button id = button_12 class = ""square num-button"" onclick = ""recordClick(this)""><div class = content><div class = numbers>Y</div></div></button><button class = clear_button id = ""ClearButton"" onclick = ""clearResponse()"">BACKSPACE</button><button class = blank_button id = ""BlankButton"" onclick = ""blankResponse()"">SKIP</button><p style=""font-size: 2.4rem""><u><b>Current Answer:</b></u></p><br><br><div id=echoed_txt style=""font-size: 5rem; color:blue;""><b></b></div></div>",enter,ospan,retrieval,fnCacLD0zsVfWLPq9BYLRSmCbSq1,html-keyboard-response,119,761628,0.0-46.0-4.0-0.0-2.0,7,5,3,4.0,"[""K"",""P"",""G""]","[""K"",""P"",""Y"",""G""]",0.0,2.0,,,,,,,62b6ded74322ef992b784ce0,10:18:22,03/04/2024
4713.100000023842,[''],0,ospan,feedback,fnCacLD0zsVfWLPq9BYLRSmCbSq1,html-button-response,120,766857,0.0-46.0-4.0-0.0-3.0,,,,,,,,,,,,100.0,0.0,,62b6ded74322ef992b784ce0,10:18:22,03/04/2024
,"<p style=""font-size:75px;"">...</p>",,ospan,iti,fnCacLD0zsVfWLPq9BYLRSmCbSq1,html-keyboard-response,121,767863,0.0-46.0-4.0-1.0-0.0,,,,,,,,,,,,,,,62b6ded74322ef992b784ce0,10:18:22,03/04/2024
4307.0,,,ospan,symmetry,fnCacLD0zsVfWLPq9BYLRSmCbSq1,symmetry-judgement-task,122,773371,0.0-46.0-4.0-1.0-1.0-0.0,,,,,,,,,,1.0,1.0,,,,62b6ded74322ef992b784ce0,10:18:22,03/04/2024
,"<div style=""font-size: 10rem; color: #0000FF"">N</div>",,ospan,letter,fnCacLD0zsVfWLPq9BYLRSmCbSq1,html-keyboard-response,123,774374,0.0-46.0-4.0-1.0-1.0-1.0,,,,,,,,,,,,,,,62b6ded74322ef992b784ce0,10:18:22,03/04/2024
1403.0,,,ospan,symmetry,fnCacLD0zsVfWLPq9BYLRSmCbSq1,symmetry-judgement-task,124,777756,0.0-46.0-4.0-1.0-1.0-2.0,,,,,,,,,,1.0,1.0,,,,62b6ded74322ef992b784ce0,10:18:22,03/04/2024
,"<div style=""font-size: 10rem; color: #0000FF"">Y</div>",,ospan,letter,fnCacLD0zsVfWLPq9BYLRSmCbSq1,html-keyboard-response,125,778764,0.0-46.0-4.0-1.0-1.0-3.0,,,,,,,,,,,,,,,62b6ded74322ef992b784ce0,10:18:22,03/04/2024
2062.0,,,ospan,symmetry,fnCacLD0zsVfWLPq9BYLRSmCbSq1,symmetry-judgement-task,126,782801,0.0-46.0-4.0-1.0-1.0-4.0,,,,,,,,,,1.0,1.0,,,,62b6ded74322ef992b784ce0,10:18:22,03/04/2024
,"<div style=""font-size: 10rem; color: #0000FF"">P</div>",,ospan,letter,fnCacLD0zsVfWLPq9BYLRSmCbSq1,html-keyboard-response,127,783802,0.0-46.0-4.0-1.0-1.0-5.0,,,,,,,,,,,,,,,62b6ded74322ef992b784ce0,10:18:22,03/04/2024
1223.0,,,ospan,symmetry,fnCacLD0zsVfWLPq9BYLRSmCbSq1,symmetry-judgement-task,128,787028,0.0-46.0-4.0-1.0-1.0-6.0,,,,,,,,,,1.0,1.0,,,,62b6ded74322ef992b784ce0,10:18:22,03/04/2024
,"<div style=""font-size: 10rem; color: #0000FF"">K</div>",,ospan,letter,fnCacLD0zsVfWLPq9BYLRSmCbSq1,html-keyboard-response,129,788032,0.0-46.0-4.0-1.0-1.0-7.0,,,,,,,,,,,,,,,62b6ded74322ef992b784ce0,10:18:22,03/04/2024
1264.0,,,ospan,symmetry,fnCacLD0zsVfWLPq9BYLRSmCbSq1,symmetry-judgement-task,130,791277,0.0-46.0-4.0-1.0-1.0-8.0,,,,,,,,,,1.0,1.0,,,,62b6ded74322ef992b784ce0,10:18:22,03/04/2024
,"<div style=""font-size: 10rem; color: #0000FF"">S</div>",,ospan,letter,fnCacLD0zsVfWLPq9BYLRSmCbSq1,html-keyboard-response,131,792287,0.0-46.0-4.0-1.0-1.0-9.0,,,,,,,,,,,,,,,62b6ded74322ef992b784ce0,10:18:22,03/04/2024
5061.100000023842,"<div class = numbox><p style=""font-size: 2.4rem"">Please recall the letters you saw to the best of your ability. If you do not remember a particular letter, use the SKIP button.<br><b>(When you are ready to lock in your answer, press ENTER)</b></p><button id = button_1 class = ""square num-button"" onclick = ""recordClick(this)""><div class = content><div class = numbers>C</div></div></button><button id = button_2 class = ""square num-button"" onclick = ""recordClick(this)""><div class = content><div class = numbers>G</div></div></button><button id = button_3 class = ""square num-button"" onclick = ""recordClick(this)""><div class = content><div class = numbers>H</div></div></button><button id = button_4 class = ""square num-button"" onclick = ""recordClick(this)""><div class = content><div class = numbers>J</div></div></button><button id = button_5 class = ""square num-button"" onclick = ""recordClick(this)""><div class = content><div class = numbers>K</div></div></button><button id = button_6 class = ""square num-button"" onclick = ""recordClick(this)""><div class = content><div class = numbers>L</div></div></button><button id = button_7 class = ""square num-button"" onclick = ""recordClick(this)""><div class = content><div class = numbers>N</div></div></button><button id = button_8 class = ""square num-button"" onclick = ""recordClick(this)""><div class = content><div class = numbers>P</div></div></button><button id = button_9 class = ""square num-button"" onclick = ""recordClick(this)""><div class = content><div class = numbers>Q</div></div></button><button id = button_10 class = ""square num-button"" onclick = ""recordClick(this)""><div class = content><div class = numbers>R</div></div></button><button id = button_11 class = ""square num-button"" onclick = ""recordClick(this)""><div class = content><div class = numbers>S</div></div></button><button id = button_12 class = ""square num-button"" onclick = ""recordClick(this)""><div class = content><div class = numbers>Y</div></div></button><button class = clear_button id = ""ClearButton"" onclick = ""clearResponse()"">BACKSPACE</button><button class = blank_button id = ""BlankButton"" onclick = ""blankResponse()"">SKIP</button><p style=""font-size: 2.4rem""><u><b>Current Answer:</b></u></p><br><br><div id=echoed_txt style=""font-size: 5rem; color:blue;""><b></b></div></div>",enter,ospan,retrieval,fnCacLD0zsVfWLPq9BYLRSmCbSq1,html-keyboard-response,132,798101,0.0-46.0-4.0-1.0-2.0,12,10,8,5.0,"[""N"",""Y"",""P"",""K"",""S""]","[""N"",""Y"",""P"",""K"",""S""]",1.0,5.0,,,,,,,62b6ded74322ef992b784ce0,10:18:22,03/04/2024
980.5999999642372,[''],0,ospan,feedback,fnCacLD0zsVfWLPq9BYLRSmCbSq1,html-button-response,133,799597,0.0-46.0-4.0-1.0-3.0,,,,,,,,,,,,100.0,0.0,,62b6ded74322ef992b784ce0,10:18:22,03/04/2024
,"<p style=""font-size:75px;"">...</p>",,ospan,iti,fnCacLD0zsVfWLPq9BYLRSmCbSq1,html-keyboard-response,134,800606,0.0-46.0-4.0-2.0-0.0,,,,,,,,,,,,,,,62b6ded74322ef992b784ce0,10:18:22,03/04/2024
1409.0,,,ospan,symmetry,fnCacLD0zsVfWLPq9BYLRSmCbSq1,symmetry-judgement-task,135,803213,0.0-46.0-4.0-2.0-1.0-0.0,,,,,,,,,,1.0,1.0,,,,62b6ded74322ef992b784ce0,10:18:22,03/04/2024
,"<div style=""font-size: 10rem; color: #0000FF"">J</div>",,ospan,letter,fnCacLD0zsVfWLPq9BYLRSmCbSq1,html-keyboard-response,136,804223,0.0-46.0-4.0-2.0-1.0-1.0,,,,,,,,,,,,,,,62b6ded74322ef992b784ce0,10:18:22,03/04/2024
852.0,,,ospan,symmetry,fnCacLD0zsVfWLPq9BYLRSmCbSq1,symmetry-judgement-task,137,807008,0.0-46.0-4.0-2.0-1.0-2.0,,,,,,,,,,1.0,1.0,,,,62b6ded74322ef992b784ce0,10:18:22,03/04/2024
,"<div style=""font-size: 10rem; color: #0000FF"">Q</div>",,ospan,letter,fnCacLD0zsVfWLPq9BYLRSmCbSq1,html-keyboard-response,138,808016,0.0-46.0-4.0-2.0-1.0-3.0,,,,,,,,,,,,,,,62b6ded74322ef992b784ce0,10:18:22,03/04/2024
798.0,,,ospan,symmetry,fnCacLD0zsVfWLPq9BYLRSmCbSq1,symmetry-judgement-task,139,810791,0.0-46.0-4.0-2.0-1.0-4.0,,,,,,,,,,1.0,1.0,,,,62b6ded74322ef992b784ce0,10:18:22,03/04/2024
,"<div style=""font-size: 10rem; color: #0000FF"">P</div>",,ospan,letter,fnCacLD0zsVfWLPq9BYLRSmCbSq1,html-keyboard-response,140,811794,0.0-46.0-4.0-2.0-1.0-5.0,,,,,,,,,,,,,,,62b6ded74322ef992b784ce0,10:18:22,03/04/2024
5360.599999964237,"<div class = numbox><p style=""font-size: 2.4rem"">Please recall the letters you saw to the best of your ability. If you do not remember a particular letter, use the SKIP button.<br><b>(When you are ready to lock in your answer, press ENTER)</b></p><button id = button_1 class = ""square num-button"" onclick = ""recordClick(this)""><div class = content><div class = numbers>C</div></div></button><button id = button_2 class = ""square num-button"" onclick = ""recordClick(this)""><div class = content><div class = numbers>G</div></div></button><button id = button_3 class = ""square num-button"" onclick = ""recordClick(this)""><div class = content><div class = numbers>H</div></div></button><button id = button_4 class = ""square num-button"" onclick = ""recordClick(this)""><div class = content><div class = numbers>J</div></div></button><button id = button_5 class = ""square num-button"" onclick = ""recordClick(this)""><div class = content><div class = numbers>K</div></div></button><button id = button_6 class = ""square num-button"" onclick = ""recordClick(this)""><div class = content><div class = numbers>L</div></div></button><button id = button_7 class = ""square num-button"" onclick = ""recordClick(this)""><div class = content><div class = numbers>N</div></div></button><button id = button_8 class = ""square num-button"" onclick = ""recordClick(this)""><div class = content><div class = numbers>P</div></div></button><button id = button_9 class = ""square num-button"" onclick = ""recordClick(this)""><div class = content><div class = numbers>Q</div></div></button><button id = button_10 class = ""square num-button"" onclick = ""recordClick(this)""><div class = content><div class = numbers>R</div></div></button><button id = button_11 class = ""square num-button"" onclick = ""recordClick(this)""><div class = content><div class = numbers>S</div></div></button><button id = button_12 class = ""square num-button"" onclick = ""recordClick(this)""><div class = content><div class = numbers>Y</div></div></button><button class = clear_button id = ""ClearButton"" onclick = ""clearResponse()"">BACKSPACE</button><button class = blank_button id = ""BlankButton"" onclick = ""blankResponse()"">SKIP</button><p style=""font-size: 2.4rem""><u><b>Current Answer:</b></u></p><br><br><div id=echoed_txt style=""font-size: 5rem; color:blue;""><b></b></div></div>",enter,ospan,retrieval,fnCacLD0zsVfWLPq9BYLRSmCbSq1,html-keyboard-response,141,817918,0.0-46.0-4.0-2.0-2.0,15,13,11,3.0,"[""J"",""Q"",""P""]","[""J"",""Q"",""P""]",1.0,3.0,,,,,,,62b6ded74322ef992b784ce0,10:18:22,03/04/2024
792.3999999761581,[''],0,ospan,feedback,fnCacLD0zsVfWLPq9BYLRSmCbSq1,html-button-response,142,819222,0.0-46.0-4.0-2.0-3.0,,,,,,,,,,,,100.0,0.0,,62b6ded74322ef992b784ce0,10:18:22,03/04/2024
,"<p style=""font-size:75px;"">...</p>",,ospan,iti,fnCacLD0zsVfWLPq9BYLRSmCbSq1,html-keyboard-response,143,820230,0.0-46.0-5.0-0.0-0.0,,,,,,,,,,,,,,,62b6ded74322ef992b784ce0,10:18:22,03/04/2024
1806.0,,,ospan,symmetry,fnCacLD0zsVfWLPq9BYLRSmCbSq1,symmetry-judgement-task,144,823237,0.0-46.0-5.0-0.0-1.0-0.0,,,,,,,,,,1.0,1.0,,,,62b6ded74322ef992b784ce0,10:18:22,03/04/2024
,"<div style=""font-size: 10rem; color: #0000FF"">R</div>",,ospan,letter,fnCacLD0zsVfWLPq9BYLRSmCbSq1,html-keyboard-response,145,824245,0.0-46.0-5.0-0.0-1.0-1.0,,,,,,,,,,,,,,,62b6ded74322ef992b784ce0,10:18:22,03/04/2024
1170.0,,,ospan,symmetry,fnCacLD0zsVfWLPq9BYLRSmCbSq1,symmetry-judgement-task,146,827395,0.0-46.0-5.0-0.0-1.0-2.0,,,,,,,,,,1.0,1.0,,,,62b6ded74322ef992b784ce0,10:18:22,03/04/2024
,"<div style=""font-size: 10rem; color: #0000FF"">K</div>",,ospan,letter,fnCacLD0zsVfWLPq9BYLRSmCbSq1,html-keyboard-response,147,828397,0.0-46.0-5.0-0.0-1.0-3.0,,,,,,,,,,,,,,,62b6ded74322ef992b784ce0,10:18:22,03/04/2024
1009.0,,,ospan,symmetry,fnCacLD0zsVfWLPq9BYLRSmCbSq1,symmetry-judgement-task,148,831373,0.0-46.0-5.0-0.0-1.0-4.0,,,,,,,,,,1.0,1.0,,,,62b6ded74322ef992b784ce0,10:18:22,03/04/2024
,"<div style=""font-size: 10rem; color: #0000FF"">H</div>",,ospan,letter,fnCacLD0zsVfWLPq9BYLRSmCbSq1,html-keyboard-response,149,832382,0.0-46.0-5.0-0.0-1.0-5.0,,,,,,,,,,,,,,,62b6ded74322ef992b784ce0,10:18:22,03/04/2024
1139.0,,,ospan,symmetry,fnCacLD0zsVfWLPq9BYLRSmCbSq1,symmetry-judgement-task,150,835523,0.0-46.0-5.0-0.0-1.0-6.0,,,,,,,,,,1.0,1.0,,,,62b6ded74322ef992b784ce0,10:18:22,03/04/2024
,"<div style=""font-size: 10rem; color: #0000FF"">Q</div>",,ospan,letter,fnCacLD0zsVfWLPq9BYLRSmCbSq1,html-keyboard-response,151,836541,0.0-46.0-5.0-0.0-1.0-7.0,,,,,,,,,,,,,,,62b6ded74322ef992b784ce0,10:18:22,03/04/2024
1110.0,,,ospan,symmetry,fnCacLD0zsVfWLPq9BYLRSmCbSq1,symmetry-judgement-task,152,839624,0.0-46.0-5.0-0.0-1.0-8.0,,,,,,,,,,1.0,1.0,,,,62b6ded74322ef992b784ce0,10:18:22,03/04/2024
,"<div style=""font-size: 10rem; color: #0000FF"">G</div>",,ospan,letter,fnCacLD0zsVfWLPq9BYLRSmCbSq1,html-keyboard-response,153,840641,0.0-46.0-5.0-0.0-1.0-9.0,,,,,,,,,,,,,,,62b6ded74322ef992b784ce0,10:18:22,03/04/2024
1372.0,,,ospan,symmetry,fnCacLD0zsVfWLPq9BYLRSmCbSq1,symmetry-judgement-task,154,843996,0.0-46.0-5.0-0.0-1.0-10.0,,,,,,,,,,1.0,1.0,,,,62b6ded74322ef992b784ce0,10:18:22,03/04/2024
,"<div style=""font-size: 10rem; color: #0000FF"">Y</div>",,ospan,letter,fnCacLD0zsVfWLPq9BYLRSmCbSq1,html-keyboard-response,155,845002,0.0-46.0-5.0-0.0-1.0-11.0,,,,,,,,,,,,,,,62b6ded74322ef992b784ce0,10:18:22,03/04/2024
9781.600000023842,"<div class = numbox><p style=""font-size: 2.4rem"">Please recall the letters you saw to the best of your ability. If you do not remember a particular letter, use the SKIP button.<br><b>(When you are ready to lock in your answer, press ENTER)</b></p><button id = button_1 class = ""square num-button"" onclick = ""recordClick(this)""><div class = content><div class = numbers>C</div></div></button><button id = button_2 class = ""square num-button"" onclick = ""recordClick(this)""><div class = content><div class = numbers>G</div></div></button><button id = button_3 class = ""square num-button"" onclick = ""recordClick(this)""><div class = content><div class = numbers>H</div></div></button><button id = button_4 class = ""square num-button"" onclick = ""recordClick(this)""><div class = content><div class = numbers>J</div></div></button><button id = button_5 class = ""square num-button"" onclick = ""recordClick(this)""><div class = content><div class = numbers>K</div></div></button><button id = button_6 class = ""square num-button"" onclick = ""recordClick(this)""><div class = content><div class = numbers>L</div></div></button><button id = button_7 class = ""square num-button"" onclick = ""recordClick(this)""><div class = content><div class = numbers>N</div></div></button><button id = button_8 class = ""square num-button"" onclick = ""recordClick(this)""><div class = content><div class = numbers>P</div></div></button><button id = button_9 class = ""square num-button"" onclick = ""recordClick(this)""><div class = content><div class = numbers>Q</div></div></button><button id = button_10 class = ""square num-button"" onclick = ""recordClick(this)""><div class = content><div class = numbers>R</div></div></button><button id = button_11 class = ""square num-button"" onclick = ""recordClick(this)""><div class = content><div class = numbers>S</div></div></button><button id = button_12 class = ""square num-button"" onclick = ""recordClick(this)""><div class = content><div class = numbers>Y</div></div></button><button class = clear_button id = ""ClearButton"" onclick = ""clearResponse()"">BACKSPACE</button><button class = blank_button id = ""BlankButton"" onclick = ""blankResponse()"">SKIP</button><p style=""font-size: 2.4rem""><u><b>Current Answer:</b></u></p><br><br><div id=echoed_txt style=""font-size: 5rem; color:blue;""><b></b></div></div>",enter,ospan,retrieval,fnCacLD0zsVfWLPq9BYLRSmCbSq1,html-keyboard-response,156,855550,0.0-46.0-5.0-0.0-2.0,21,14,11,6.0,"[""R"",""Q"",""K"",""H"",""J"",""G""]","[""R"",""K"",""H"",""Q"",""G"",""Y""]",0.0,1.0,,,,,,,62b6ded74322ef992b784ce0,10:18:22,03/04/2024
1680.0999999642372,[''],0,ospan,feedback,fnCacLD0zsVfWLPq9BYLRSmCbSq1,html-button-response,157,857741,0.0-46.0-5.0-0.0-3.0,,,,,,,,,,,,100.0,0.0,,62b6ded74322ef992b784ce0,10:18:22,03/04/2024
,"<p style=""font-size:75px;"">...</p>",,ospan,iti,fnCacLD0zsVfWLPq9BYLRSmCbSq1,html-keyboard-response,158,858749,0.0-46.0-5.0-1.0-0.0,,,,,,,,,,,,,,,62b6ded74322ef992b784ce0,10:18:22,03/04/2024
2051.0,,,ospan,symmetry,fnCacLD0zsVfWLPq9BYLRSmCbSq1,symmetry-judgement-task,159,861877,0.0-46.0-5.0-1.0-1.0-0.0,,,,,,,,,,1.0,1.0,,,,62b6ded74322ef992b784ce0,10:18:22,03/04/2024
,"<div style=""font-size: 10rem; color: #0000FF"">G</div>",,ospan,letter,fnCacLD0zsVfWLPq9BYLRSmCbSq1,html-keyboard-response,160,862892,0.0-46.0-5.0-1.0-1.0-1.0,,,,,,,,,,,,,,,62b6ded74322ef992b784ce0,10:18:22,03/04/2024
870.0,,,ospan,symmetry,fnCacLD0zsVfWLPq9BYLRSmCbSq1,symmetry-judgement-task,161,865705,0.0-46.0-5.0-1.0-1.0-2.0,,,,,,,,,,1.0,1.0,,,,62b6ded74322ef992b784ce0,10:18:22,03/04/2024
,"<div style=""font-size: 10rem; color: #0000FF"">C</div>",,ospan,letter,fnCacLD0zsVfWLPq9BYLRSmCbSq1,html-keyboard-response,162,866721,0.0-46.0-5.0-1.0-1.0-3.0,,,,,,,,,,,,,,,62b6ded74322ef992b784ce0,10:18:22,03/04/2024
827.0,,,ospan,symmetry,fnCacLD0zsVfWLPq9BYLRSmCbSq1,symmetry-judgement-task,163,869498,0.0-46.0-5.0-1.0-1.0-4.0,,,,,,,,,,1.0,1.0,,,,62b6ded74322ef992b784ce0,10:18:22,03/04/2024
,"<div style=""font-size: 10rem; color: #0000FF"">Y</div>",,ospan,letter,fnCacLD0zsVfWLPq9BYLRSmCbSq1,html-keyboard-response,164,870501,0.0-46.0-5.0-1.0-1.0-5.0,,,,,,,,,,,,,,,62b6ded74322ef992b784ce0,10:18:22,03/04/2024
1409.0,,,ospan,symmetry,fnCacLD0zsVfWLPq9BYLRSmCbSq1,symmetry-judgement-task,165,873874,0.0-46.0-5.0-1.0-1.0-6.0,,,,,,,,,,1.0,1.0,,,,62b6ded74322ef992b784ce0,10:18:22,03/04/2024
,"<div style=""font-size: 10rem; color: #0000FF"">K</div>",,ospan,letter,fnCacLD0zsVfWLPq9BYLRSmCbSq1,html-keyboard-response,166,874890,0.0-46.0-5.0-1.0-1.0-7.0,,,,,,,,,,,,,,,62b6ded74322ef992b784ce0,10:18:22,03/04/2024
1389.0,,,ospan,symmetry,fnCacLD0zsVfWLPq9BYLRSmCbSq1,symmetry-judgement-task,167,878222,0.0-46.0-5.0-1.0-1.0-8.0,,,,,,,,,,1.0,1.0,,,,62b6ded74322ef992b784ce0,10:18:22,03/04/2024
,"<div style=""font-size: 10rem; color: #0000FF"">R</div>",,ospan,letter,fnCacLD0zsVfWLPq9BYLRSmCbSq1,html-keyboard-response,168,879232,0.0-46.0-5.0-1.0-1.0-9.0,,,,,,,,,,,,,,,62b6ded74322ef992b784ce0,10:18:22,03/04/2024
633.0,,,ospan,symmetry,fnCacLD0zsVfWLPq9BYLRSmCbSq1,symmetry-judgement-task,169,881822,0.0-46.0-5.0-1.0-1.0-10.0,,,,,,,,,,1.0,1.0,,,,62b6ded74322ef992b784ce0,10:18:22,03/04/2024
,"<div style=""font-size: 10rem; color: #0000FF"">Q</div>",,ospan,letter,fnCacLD0zsVfWLPq9BYLRSmCbSq1,html-keyboard-response,170,882838,0.0-46.0-5.0-1.0-1.0-11.0,,,,,,,,,,,,,,,62b6ded74322ef992b784ce0,10:18:22,03/04/2024
886.0,,,ospan,symmetry,fnCacLD0zsVfWLPq9BYLRSmCbSq1,symmetry-judgement-task,171,885675,0.0-46.0-5.0-1.0-1.0-12.0,,,,,,,,,,1.0,1.0,,,,62b6ded74322ef992b784ce0,10:18:22,03/04/2024
,"<div style=""font-size: 10rem; color: #0000FF"">P</div>",,ospan,letter,fnCacLD0zsVfWLPq9BYLRSmCbSq1,html-keyboard-response,172,886678,0.0-46.0-5.0-1.0-1.0-13.0,,,,,,,,,,,,,,,62b6ded74322ef992b784ce0,10:18:22,03/04/2024
5746.199999988079,"<div class = numbox><p style=""font-size: 2.4rem"">Please recall the letters you saw to the best of your ability. If you do not remember a particular letter, use the SKIP button.<br><b>(When you are ready to lock in your answer, press ENTER)</b></p><button id = button_1 class = ""square num-button"" onclick = ""recordClick(this)""><div class = content><div class = numbers>C</div></div></button><button id = button_2 class = ""square num-button"" onclick = ""recordClick(this)""><div class = content><div class = numbers>G</div></div></button><button id = button_3 class = ""square num-button"" onclick = ""recordClick(this)""><div class = content><div class = numbers>H</div></div></button><button id = button_4 class = ""square num-button"" onclick = ""recordClick(this)""><div class = content><div class = numbers>J</div></div></button><button id = button_5 class = ""square num-button"" onclick = ""recordClick(this)""><div class = content><div class = numbers>K</div></div></button><button id = button_6 class = ""square num-button"" onclick = ""recordClick(this)""><div class = content><div class = numbers>L</div></div></button><button id = button_7 class = ""square num-button"" onclick = ""recordClick(this)""><div class = content><div class = numbers>N</div></div></button><button id = button_8 class = ""square num-button"" onclick = ""recordClick(this)""><div class = content><div class = numbers>P</div></div></button><button id = button_9 class = ""square num-button"" onclick = ""recordClick(this)""><div class = content><div class = numbers>Q</div></div></button><button id = button_10 class = ""square num-button"" onclick = ""recordClick(this)""><div class = content><div class = numbers>R</div></div></button><button id = button_11 class = ""square num-button"" onclick = ""recordClick(this)""><div class = content><div class = numbers>S</div></div></button><button id = button_12 class = ""square num-button"" onclick = ""recordClick(this)""><div class = content><div class = numbers>Y</div></div></button><button class = clear_button id = ""ClearButton"" onclick = ""clearResponse()"">BACKSPACE</button><button class = blank_button id = ""BlankButton"" onclick = ""blankResponse()"">SKIP</button><p style=""font-size: 2.4rem""><u><b>Current Answer:</b></u></p><br><br><div id=echoed_txt style=""font-size: 5rem; color:blue;""><b></b></div></div>",enter,ospan,retrieval,fnCacLD0zsVfWLPq9BYLRSmCbSq1,html-keyboard-response,173,893178,0.0-46.0-5.0-1.0-2.0,28,16,11,7.0,"[""G"",""C"",""R"",""Y"",""Q"",""P""]","[""G"",""C"",""Y"",""K"",""R"",""Q"",""P""]",0.0,2.0,,,,,,,62b6ded74322ef992b784ce0,10:18:22,03/04/2024
1169.300000011921,[''],0,ospan,feedback,fnCacLD0zsVfWLPq9BYLRSmCbSq1,html-button-response,174,894858,0.0-46.0-5.0-1.0-3.0,,,,,,,,,,,,100.0,0.0,,62b6ded74322ef992b784ce0,10:18:22,03/04/2024
,"<p style=""font-size:75px;"">...</p>",,ospan,iti,fnCacLD0zsVfWLPq9BYLRSmCbSq1,html-keyboard-response,175,895874,0.0-46.0-6.0-0.0-0.0,,,,,,,,,,,,,,,62b6ded74322ef992b784ce0,10:18:22,03/04/2024
1615.0,,,ospan,symmetry,fnCacLD0zsVfWLPq9BYLRSmCbSq1,symmetry-judgement-task,176,898569,0.0-46.0-6.0-0.0-1.0-0.0,,,,,,,,,,1.0,1.0,,,,62b6ded74322ef992b784ce0,10:18:22,03/04/2024
,"<div style=""font-size: 10rem; color: #0000FF"">N</div>",,ospan,letter,fnCacLD0zsVfWLPq9BYLRSmCbSq1,html-keyboard-response,177,899581,0.0-46.0-6.0-0.0-1.0-1.0,,,,,,,,,,,,,,,62b6ded74322ef992b784ce0,10:18:22,03/04/2024
1115.0,,,ospan,symmetry,fnCacLD0zsVfWLPq9BYLRSmCbSq1,symmetry-judgement-task,178,902652,0.0-46.0-6.0-0.0-1.0-2.0,,,,,,,,,,1.0,1.0,,,,62b6ded74322ef992b784ce0,10:18:22,03/04/2024
,"<div style=""font-size: 10rem; color: #0000FF"">S</div>",,ospan,letter,fnCacLD0zsVfWLPq9BYLRSmCbSq1,html-keyboard-response,179,903661,0.0-46.0-6.0-0.0-1.0-3.0,,,,,,,,,,,,,,,62b6ded74322ef992b784ce0,10:18:22,03/04/2024
969.0,,,ospan,symmetry,fnCacLD0zsVfWLPq9BYLRSmCbSq1,symmetry-judgement-task,180,906588,0.0-46.0-6.0-0.0-1.0-4.0,,,,,,,,,,1.0,1.0,,,,62b6ded74322ef992b784ce0,10:18:22,03/04/2024
,"<div style=""font-size: 10rem; color: #0000FF"">P</div>",,ospan,letter,fnCacLD0zsVfWLPq9BYLRSmCbSq1,html-keyboard-response,181,907604,0.0-46.0-6.0-0.0-1.0-5.0,,,,,,,,,,,,,,,62b6ded74322ef992b784ce0,10:18:22,03/04/2024
921.0,,,ospan,symmetry,fnCacLD0zsVfWLPq9BYLRSmCbSq1,symmetry-judgement-task,182,910490,0.0-46.0-6.0-0.0-1.0-6.0,,,,,,,,,,1.0,1.0,,,,62b6ded74322ef992b784ce0,10:18:22,03/04/2024
,"<div style=""font-size: 10rem; color: #0000FF"">Q</div>",,ospan,letter,fnCacLD0zsVfWLPq9BYLRSmCbSq1,html-keyboard-response,183,911499,0.0-46.0-6.0-0.0-1.0-7.0,,,,,,,,,,,,,,,62b6ded74322ef992b784ce0,10:18:22,03/04/2024
1266.0,,,ospan,symmetry,fnCacLD0zsVfWLPq9BYLRSmCbSq1,symmetry-judgement-task,184,914740,0.0-46.0-6.0-0.0-1.0-8.0,,,,,,,,,,1.0,1.0,,,,62b6ded74322ef992b784ce0,10:18:22,03/04/2024
,"<div style=""font-size: 10rem; color: #0000FF"">C</div>",,ospan,letter,fnCacLD0zsVfWLPq9BYLRSmCbSq1,html-keyboard-response,185,915756,0.0-46.0-6.0-0.0-1.0-9.0,,,,,,,,,,,,,,,62b6ded74322ef992b784ce0,10:18:22,03/04/2024
5122.299999952316,"<div class = numbox><p style=""font-size: 2.4rem"">Please recall the letters you saw to the best of your ability. If you do not remember a particular letter, use the SKIP button.<br><b>(When you are ready to lock in your answer, press ENTER)</b></p><button id = button_1 class = ""square num-button"" onclick = ""recordClick(this)""><div class = content><div class = numbers>C</div></div></button><button id = button_2 class = ""square num-button"" onclick = ""recordClick(this)""><div class = content><div class = numbers>G</div></div></button><button id = button_3 class = ""square num-button"" onclick = ""recordClick(this)""><div class = content><div class = numbers>H</div></div></button><button id = button_4 class = ""square num-button"" onclick = ""recordClick(this)""><div class = content><div class = numbers>J</div></div></button><button id = button_5 class = ""square num-button"" onclick = ""recordClick(this)""><div class = content><div class = numbers>K</div></div></button><button id = button_6 class = ""square num-button"" onclick = ""recordClick(this)""><div class = content><div class = numbers>L</div></div></button><button id = button_7 class = ""square num-button"" onclick = ""recordClick(this)""><div class = content><div class = numbers>N</div></div></button><button id = button_8 class = ""square num-button"" onclick = ""recordClick(this)""><div class = content><div class = numbers>P</div></div></button><button id = button_9 class = ""square num-button"" onclick = ""recordClick(this)""><div class = content><div class = numbers>Q</div></div></button><button id = button_10 class = ""square num-button"" onclick = ""recordClick(this)""><div class = content><div class = numbers>R</div></div></button><button id = button_11 class = ""square num-button"" onclick = ""recordClick(this)""><div class = content><div class = numbers>S</div></div></button><button id = button_12 class = ""square num-button"" onclick = ""recordClick(this)""><div class = content><div class = numbers>Y</div></div></button><button class = clear_button id = ""ClearButton"" onclick = ""clearResponse()"">BACKSPACE</button><button class = blank_button id = ""BlankButton"" onclick = ""blankResponse()"">SKIP</button><p style=""font-size: 2.4rem""><u><b>Current Answer:</b></u></p><br><br><div id=echoed_txt style=""font-size: 5rem; color:blue;""><b></b></div></div>",enter,ospan,retrieval,fnCacLD0zsVfWLPq9BYLRSmCbSq1,html-keyboard-response,186,921634,0.0-46.0-6.0-0.0-2.0,33,21,16,5.0,"[""N"",""S"",""P"",""Q"",""C""]","[""N"",""S"",""P"",""Q"",""C""]",1.0,5.0,,,,,,,62b6ded74322ef992b784ce0,10:18:22,03/04/2024
988.0,[''],0,ospan,feedback,fnCacLD0zsVfWLPq9BYLRSmCbSq1,html-button-response,187,923139,0.0-46.0-6.0-0.0-3.0,,,,,,,,,,,,100.0,0.0,,62b6ded74322ef992b784ce0,10:18:22,03/04/2024
,"<p style=""font-size:75px;"">...</p>",,ospan,iti,fnCacLD0zsVfWLPq9BYLRSmCbSq1,html-keyboard-response,188,924148,0.0-46.0-6.0-1.0-0.0,,,,,,,,,,,,,,,62b6ded74322ef992b784ce0,10:18:22,03/04/2024
2522.0,,,ospan,symmetry,fnCacLD0zsVfWLPq9BYLRSmCbSq1,symmetry-judgement-task,189,927735,0.0-46.0-6.0-1.0-1.0-0.0,,,,,,,,,,1.0,1.0,,,,62b6ded74322ef992b784ce0,10:18:22,03/04/2024
,"<div style=""font-size: 10rem; color: #0000FF"">S</div>",,ospan,letter,fnCacLD0zsVfWLPq9BYLRSmCbSq1,html-keyboard-response,190,928747,0.0-46.0-6.0-1.0-1.0-1.0,,,,,,,,,,,,,,,62b6ded74322ef992b784ce0,10:18:22,03/04/2024
1539.0,,,ospan,symmetry,fnCacLD0zsVfWLPq9BYLRSmCbSq1,symmetry-judgement-task,191,932234,0.0-46.0-6.0-1.0-1.0-2.0,,,,,,,,,,1.0,1.0,,,,62b6ded74322ef992b784ce0,10:18:22,03/04/2024
,"<div style=""font-size: 10rem; color: #0000FF"">L</div>",,ospan,letter,fnCacLD0zsVfWLPq9BYLRSmCbSq1,html-keyboard-response,192,933237,0.0-46.0-6.0-1.0-1.0-3.0,,,,,,,,,,,,,,,62b6ded74322ef992b784ce0,10:18:22,03/04/2024
1306.0,,,ospan,symmetry,fnCacLD0zsVfWLPq9BYLRSmCbSq1,symmetry-judgement-task,193,936510,0.0-46.0-6.0-1.0-1.0-4.0,,,,,,,,,,1.0,1.0,,,,62b6ded74322ef992b784ce0,10:18:22,03/04/2024
,"<div style=""font-size: 10rem; color: #0000FF"">Y</div>",,ospan,letter,fnCacLD0zsVfWLPq9BYLRSmCbSq1,html-keyboard-response,194,937513,0.0-46.0-6.0-1.0-1.0-5.0,,,,,,,,,,,,,,,62b6ded74322ef992b784ce0,10:18:22,03/04/2024
1110.0,,,ospan,symmetry,fnCacLD0zsVfWLPq9BYLRSmCbSq1,symmetry-judgement-task,195,940603,0.0-46.0-6.0-1.0-1.0-6.0,,,,,,,,,,1.0,1.0,,,,62b6ded74322ef992b784ce0,10:18:22,03/04/2024
,"<div style=""font-size: 10rem; color: #0000FF"">N</div>",,ospan,letter,fnCacLD0zsVfWLPq9BYLRSmCbSq1,html-keyboard-response,196,941604,0.0-46.0-6.0-1.0-1.0-7.0,,,,,,,,,,,,,,,62b6ded74322ef992b784ce0,10:18:22,03/04/2024
1354.0,,,ospan,symmetry,fnCacLD0zsVfWLPq9BYLRSmCbSq1,symmetry-judgement-task,197,944906,0.0-46.0-6.0-1.0-1.0-8.0,,,,,,,,,,1.0,1.0,,,,62b6ded74322ef992b784ce0,10:18:22,03/04/2024
,"<div style=""font-size: 10rem; color: #0000FF"">K</div>",,ospan,letter,fnCacLD0zsVfWLPq9BYLRSmCbSq1,html-keyboard-response,198,945914,0.0-46.0-6.0-1.0-1.0-9.0,,,,,,,,,,,,,,,62b6ded74322ef992b784ce0,10:18:22,03/04/2024
1233.0,,,ospan,symmetry,fnCacLD0zsVfWLPq9BYLRSmCbSq1,symmetry-judgement-task,199,949115,0.0-46.0-6.0-1.0-1.0-10.0,,,,,,,,,,1.0,1.0,,,,62b6ded74322ef992b784ce0,10:18:22,03/04/2024
,"<div style=""font-size: 10rem; color: #0000FF"">R</div>",,ospan,letter,fnCacLD0zsVfWLPq9BYLRSmCbSq1,html-keyboard-response,200,950132,0.0-46.0-6.0-1.0-1.0-11.0,,,,,,,,,,,,,,,62b6ded74322ef992b784ce0,10:18:22,03/04/2024
1721.0,,,ospan,symmetry,fnCacLD0zsVfWLPq9BYLRSmCbSq1,symmetry-judgement-task,201,953796,0.0-46.0-6.0-1.0-1.0-12.0,,,,,,,,,,1.0,1.0,,,,62b6ded74322ef992b784ce0,10:18:22,03/04/2024
,"<div style=""font-size: 10rem; color: #0000FF"">Q</div>",,ospan,letter,fnCacLD0zsVfWLPq9BYLRSmCbSq1,html-keyboard-response,202,954801,0.0-46.0-6.0-1.0-1.0-13.0,,,,,,,,,,,,,,,62b6ded74322ef992b784ce0,10:18:22,03/04/2024
1333.0,,,ospan,symmetry,fnCacLD0zsVfWLPq9BYLRSmCbSq1,symmetry-judgement-task,203,958097,0.0-46.0-6.0-1.0-1.0-14.0,,,,,,,,,,1.0,1.0,,,,62b6ded74322ef992b784ce0,10:18:22,03/04/2024
,"<div style=""font-size: 10rem; color: #0000FF"">H</div>",,ospan,letter,fnCacLD0zsVfWLPq9BYLRSmCbSq1,html-keyboard-response,204,959099,0.0-46.0-6.0-1.0-1.0-15.0,,,,,,,,,,,,,,,62b6ded74322ef992b784ce0,10:18:22,03/04/2024
6703.600000023842,"<div class = numbox><p style=""font-size: 2.4rem"">Please recall the letters you saw to the best of your ability. If you do not remember a particular letter, use the SKIP button.<br><b>(When you are ready to lock in your answer, press ENTER)</b></p><button id = button_1 class = ""square num-button"" onclick = ""recordClick(this)""><div class = content><div class = numbers>C</div></div></button><button id = button_2 class = ""square num-button"" onclick = ""recordClick(this)""><div class = content><div class = numbers>G</div></div></button><button id = button_3 class = ""square num-button"" onclick = ""recordClick(this)""><div class = content><div class = numbers>H</div></div></button><button id = button_4 class = ""square num-button"" onclick = ""recordClick(this)""><div class = content><div class = numbers>J</div></div></button><button id = button_5 class = ""square num-button"" onclick = ""recordClick(this)""><div class = content><div class = numbers>K</div></div></button><button id = button_6 class = ""square num-button"" onclick = ""recordClick(this)""><div class = content><div class = numbers>L</div></div></button><button id = button_7 class = ""square num-button"" onclick = ""recordClick(this)""><div class = content><div class = numbers>N</div></div></button><button id = button_8 class = ""square num-button"" onclick = ""recordClick(this)""><div class = content><div class = numbers>P</div></div></button><button id = button_9 class = ""square num-button"" onclick = ""recordClick(this)""><div class = content><div class = numbers>Q</div></div></button><button id = button_10 class = ""square num-button"" onclick = ""recordClick(this)""><div class = content><div class = numbers>R</div></div></button><button id = button_11 class = ""square num-button"" onclick = ""recordClick(this)""><div class = content><div class = numbers>S</div></div></button><button id = button_12 class = ""square num-button"" onclick = ""recordClick(this)""><div class = content><div class = numbers>Y</div></div></button><button class = clear_button id = ""ClearButton"" onclick = ""clearResponse()"">BACKSPACE</button><button class = blank_button id = ""BlankButton"" onclick = ""blankResponse()"">SKIP</button><p style=""font-size: 2.4rem""><u><b>Current Answer:</b></u></p><br><br><div id=echoed_txt style=""font-size: 5rem; color:blue;""><b></b></div></div>",enter,ospan,retrieval,fnCacLD0zsVfWLPq9BYLRSmCbSq1,html-keyboard-response,205,966566,0.0-46.0-6.0-1.0-2.0,41,21,16,8.0,"[""N"",""Q"",""K"",""R"",""Y"",""P""]","[""S"",""L"",""Y"",""N"",""K"",""R"",""Q"",""H""]",0.0,0.0,,,,,,,62b6ded74322ef992b784ce0,10:18:22,03/04/2024
1597.800000011921,[''],0,ospan,feedback,fnCacLD0zsVfWLPq9BYLRSmCbSq1,html-button-response,206,968674,0.0-46.0-6.0-1.0-3.0,,,,,,,,,,,,100.0,0.0,,62b6ded74322ef992b784ce0,10:18:22,03/04/2024
7659.699999988079,,{'Q0': 'Everything went well'},ospan,survey_ospan,fnCacLD0zsVfWLPq9BYLRSmCbSq1,lmdlab-survey-text,207,977098,0.0-46.0-7.0,,,,,,,,,,,,,,fnCacLD0zsVfWLPq9BYLRSmCbSq1,62b6ded74322ef992b784ce0,10:18:22,03/04/2024
5750.800000011921,<p><p style='font-size: 3rem'>Great work!<br><br>This completes the symmetry and memory task.</p><br><br><br>,0,ospan,finish,fnCacLD0zsVfWLPq9BYLRSmCbSq1,html-button-response,208,982853,0.0-46.0-8.0,41,21,16,,,,,,,,,100.0,,,62b6ded74322ef992b784ce0,10:18:22,03/04/2024
