rt,stimulus,response,exp_name,exp_stage,subjectID,trial_type,trial_index,time_elapsed,internal_node_id,ospan_shown,ospan_total,ospan_abs,length,resp_actual,resp_correct,full_correct,num_correct,feedback,accuracy,correct,math_acc,math_warning,databaseID,prolificID,start_time,date
3004.0,<div class = 'left_align' style='font-size: 3.25rem; line-height: 1.3;'><p class = 'center_align'><b>Welcome to the Symmetry and Memory Task</b><br><br><br><br></p>Press 'continue' to show the instructions.<br><br><br><br></div>,0,ospan,instruct,xFZpjzr3SEMZfhFMn4wOva7CB1k1,html-button-response,54,1199103,0.0-46.0-0.0-0.0-0.0,,,,,,,,,,,,,,,5f19a735255c76000b023d92,10:31:08,03/04/2024
20421.0,"<div class = 'left_align' style='font-size: 3.25rem; line-height: 1.3;'><p class = 'center_align'><b>Symmetry and Memory Task</b><br><br></p>In this task, you will try to memorize letters you see on the screen<br>while you also view black and white grid pictures.<br><br>In the next few minutes, you will have some practice to get you familiar<br>with how the task works.<br><br>It may be difficult sometimes, but please do not worry about making mistakes!<br><br>We will begin by practicing the letter part of the task.<br><br><br><br></div>",0,ospan,instruct,xFZpjzr3SEMZfhFMn4wOva7CB1k1,html-button-response,55,1219791,0.0-46.0-0.0-0.0-1.0,,,,,,,,,,,,,,,5f19a735255c76000b023d92,10:31:08,03/04/2024
19209.0,"<div class = 'left_align' style='font-size: 3.25rem; line-height: 1.3;'>For this practice part, letters will appear on the screen one at a time.<br><br>Try to remember each letter in the order presented.<br><br>After some letters have been shown, you will see a response screen. Your<br>goal is to report the letters you saw <b>in order</b>. If you do not remember<br>a particular letter, you will have the option to leave it blank.<br><br><br><br></div>",0,ospan,instruct,xFZpjzr3SEMZfhFMn4wOva7CB1k1,html-button-response,56,1239260,0.0-46.0-0.0-0.0-2.0,,,,,,,,,,,,,,,5f19a735255c76000b023d92,10:31:08,03/04/2024
4629.0,"<div class = 'left_align' style='font-size: 3.25rem; line-height: 1.3;'>Remember, it is very important to get the letters in the same<br>order as you see them.<br><br>When you are ready, you may begin the letter practice.</div><br><br><br><br>",0,ospan,instruct,xFZpjzr3SEMZfhFMn4wOva7CB1k1,html-button-response,57,1244150,0.0-46.0-0.0-0.0-3.0,,,,,,,,,,,,,,,5f19a735255c76000b023d92,10:31:08,03/04/2024
,"<p style=""font-size:75px;"">...</p>",,ospan,iti,xFZpjzr3SEMZfhFMn4wOva7CB1k1,html-keyboard-response,58,1245416,0.0-46.0-0.0-1.0-0.0,,,,,,,,,,,,,,,5f19a735255c76000b023d92,10:31:08,03/04/2024
,"<div style=""font-size: 10rem; color: #0000FF"">Y</div>",,ospan,letter,xFZpjzr3SEMZfhFMn4wOva7CB1k1,html-keyboard-response,59,1246425,0.0-46.0-0.0-1.0-1.0,,,,,,,,,,,,,,,5f19a735255c76000b023d92,10:31:08,03/04/2024
,"<div style=""font-size: 10rem; color: #0000FF"">G</div>",,ospan,letter,xFZpjzr3SEMZfhFMn4wOva7CB1k1,html-keyboard-response,60,1248192,0.0-46.0-0.0-1.0-2.0,,,,,,,,,,,,,,,5f19a735255c76000b023d92,10:31:08,03/04/2024
39127.0,"<div class = numbox><p style=""font-size: 2.4rem"">Please recall the letters you saw to the best of your ability. If you do not remember a particular letter, use the SKIP button.<br><b>(When you are ready to lock in your answer, press ENTER)</b></p><button id = button_1 class = ""square num-button"" onclick = ""recordClick(this)""><div class = content><div class = numbers>C</div></div></button><button id = button_2 class = ""square num-button"" onclick = ""recordClick(this)""><div class = content><div class = numbers>G</div></div></button><button id = button_3 class = ""square num-button"" onclick = ""recordClick(this)""><div class = content><div class = numbers>H</div></div></button><button id = button_4 class = ""square num-button"" onclick = ""recordClick(this)""><div class = content><div class = numbers>J</div></div></button><button id = button_5 class = ""square num-button"" onclick = ""recordClick(this)""><div class = content><div class = numbers>K</div></div></button><button id = button_6 class = ""square num-button"" onclick = ""recordClick(this)""><div class = content><div class = numbers>L</div></div></button><button id = button_7 class = ""square num-button"" onclick = ""recordClick(this)""><div class = content><div class = numbers>N</div></div></button><button id = button_8 class = ""square num-button"" onclick = ""recordClick(this)""><div class = content><div class = numbers>P</div></div></button><button id = button_9 class = ""square num-button"" onclick = ""recordClick(this)""><div class = content><div class = numbers>Q</div></div></button><button id = button_10 class = ""square num-button"" onclick = ""recordClick(this)""><div class = content><div class = numbers>R</div></div></button><button id = button_11 class = ""square num-button"" onclick = ""recordClick(this)""><div class = content><div class = numbers>S</div></div></button><button id = button_12 class = ""square num-button"" onclick = ""recordClick(this)""><div class = content><div class = numbers>Y</div></div></button><button class = clear_button id = ""ClearButton"" onclick = ""clearResponse()"">BACKSPACE</button><button class = blank_button id = ""BlankButton"" onclick = ""blankResponse()"">SKIP</button><p style=""font-size: 2.4rem""><u><b>Current Answer:</b></u></p><br><br><div id=echoed_txt style=""font-size: 5rem; color:blue;""><b></b></div></div>",enter,ospan,retrieval,xFZpjzr3SEMZfhFMn4wOva7CB1k1,html-keyboard-response,61,1288077,0.0-46.0-0.0-1.0-3.0,NA,NA,NA,2.0,"[""Y"",""G""]","[""Y"",""G""]",1.0,2.0,"['<font color=""green"">Y</font>', '<font color=""green"">G</font>']",,,,,,5f19a735255c76000b023d92,10:31:08,03/04/2024
2438.0,"['<p style=""font-size:44px"">Letters:<br><br><br><font color=""green"">Y</font> <font color=""green"">G</font></p><br><br>']",0,ospan,practice_feedback,xFZpjzr3SEMZfhFMn4wOva7CB1k1,html-button-response,62,1291049,0.0-46.0-0.0-1.0-4.0,,,,,,,,,,,,,,,5f19a735255c76000b023d92,10:31:08,03/04/2024
,"<p style=""font-size:75px;"">...</p>",,ospan,iti,xFZpjzr3SEMZfhFMn4wOva7CB1k1,html-keyboard-response,63,1292056,0.0-46.0-0.0-2.0-0.0,,,,,,,,,,,,,,,5f19a735255c76000b023d92,10:31:08,03/04/2024
,"<div style=""font-size: 10rem; color: #0000FF"">K</div>",,ospan,letter,xFZpjzr3SEMZfhFMn4wOva7CB1k1,html-keyboard-response,64,1293068,0.0-46.0-0.0-2.0-1.0,,,,,,,,,,,,,,,5f19a735255c76000b023d92,10:31:08,03/04/2024
,"<div style=""font-size: 10rem; color: #0000FF"">Y</div>",,ospan,letter,xFZpjzr3SEMZfhFMn4wOva7CB1k1,html-keyboard-response,65,1294820,0.0-46.0-0.0-2.0-2.0,,,,,,,,,,,,,,,5f19a735255c76000b023d92,10:31:08,03/04/2024
,"<div style=""font-size: 10rem; color: #0000FF"">N</div>",,ospan,letter,xFZpjzr3SEMZfhFMn4wOva7CB1k1,html-keyboard-response,66,1296601,0.0-46.0-0.0-2.0-3.0,,,,,,,,,,,,,,,5f19a735255c76000b023d92,10:31:08,03/04/2024
11945.0,"<div class = numbox><p style=""font-size: 2.4rem"">Please recall the letters you saw to the best of your ability. If you do not remember a particular letter, use the SKIP button.<br><b>(When you are ready to lock in your answer, press ENTER)</b></p><button id = button_1 class = ""square num-button"" onclick = ""recordClick(this)""><div class = content><div class = numbers>C</div></div></button><button id = button_2 class = ""square num-button"" onclick = ""recordClick(this)""><div class = content><div class = numbers>G</div></div></button><button id = button_3 class = ""square num-button"" onclick = ""recordClick(this)""><div class = content><div class = numbers>H</div></div></button><button id = button_4 class = ""square num-button"" onclick = ""recordClick(this)""><div class = content><div class = numbers>J</div></div></button><button id = button_5 class = ""square num-button"" onclick = ""recordClick(this)""><div class = content><div class = numbers>K</div></div></button><button id = button_6 class = ""square num-button"" onclick = ""recordClick(this)""><div class = content><div class = numbers>L</div></div></button><button id = button_7 class = ""square num-button"" onclick = ""recordClick(this)""><div class = content><div class = numbers>N</div></div></button><button id = button_8 class = ""square num-button"" onclick = ""recordClick(this)""><div class = content><div class = numbers>P</div></div></button><button id = button_9 class = ""square num-button"" onclick = ""recordClick(this)""><div class = content><div class = numbers>Q</div></div></button><button id = button_10 class = ""square num-button"" onclick = ""recordClick(this)""><div class = content><div class = numbers>R</div></div></button><button id = button_11 class = ""square num-button"" onclick = ""recordClick(this)""><div class = content><div class = numbers>S</div></div></button><button id = button_12 class = ""square num-button"" onclick = ""recordClick(this)""><div class = content><div class = numbers>Y</div></div></button><button class = clear_button id = ""ClearButton"" onclick = ""clearResponse()"">BACKSPACE</button><button class = blank_button id = ""BlankButton"" onclick = ""blankResponse()"">SKIP</button><p style=""font-size: 2.4rem""><u><b>Current Answer:</b></u></p><br><br><div id=echoed_txt style=""font-size: 5rem; color:blue;""><b></b></div></div>",enter,ospan,retrieval,xFZpjzr3SEMZfhFMn4wOva7CB1k1,html-keyboard-response,67,1309301,0.0-46.0-0.0-2.0-4.0,NA,NA,NA,3.0,"[""K"",""Y"",""N""]","[""K"",""Y"",""N""]",1.0,3.0,"['<font color=""green"">K</font>', '<font color=""green"">Y</font>', '<font color=""green"">N</font>']",,,,,,5f19a735255c76000b023d92,10:31:08,03/04/2024
1933.0,"['<p style=""font-size:44px"">Letters:<br><br><br><font color=""green"">K</font> <font color=""green"">Y</font> <font color=""green"">N</font></p><br><br>']",0,ospan,practice_feedback,xFZpjzr3SEMZfhFMn4wOva7CB1k1,html-button-response,68,1311744,0.0-46.0-0.0-2.0-5.0,,,,,,,,,,,,,,,5f19a735255c76000b023d92,10:31:08,03/04/2024
25130.0,"<div class = 'left_align' style='font-size: 3.25rem; line-height: 1.3;'>Now you will practice doing the <b>symmetry judgment part</b> of the experiment.<br><br>A black and white grid picture will appear on the screen and you have to judge if it is <br>symmetrical or asymetrical.<br><br>A picture is 'mirror' symmetrical if its left half is identical to the right half when flipped.<br>Here are examples of a symmetrical and an asymetrical picture:<br><br><center><img src='Stimuli/img/symm_instructions_extra.png' style='height:420px; width:900'></img></center><br>To judge symmetry, imagine you were to fold each picture down the middle, like a book –<br>would the left half match the right half when folded onto each other?<br><br></div><br>",0,ospan,instruct,xFZpjzr3SEMZfhFMn4wOva7CB1k1,html-button-response,69,1336877,0.0-46.0-1.0-0.0-0.0,,,,,,,,,,,,,,,5f19a735255c76000b023d92,10:31:08,03/04/2024
9769.0,"<div class = 'left_align' style='font-size: 3.25rem; line-height: 1.3;'>When you have viewed the picture and determined whether it is symmetrical or not,<br>you can <b>click the Yes or No button</b> below to answer.<br><br>If you take longer than 15 seconds, it will continue automatically<br>and record the answer as an error.</div><br>",0,ospan,instruct,xFZpjzr3SEMZfhFMn4wOva7CB1k1,html-button-response,70,1346904,0.0-46.0-1.0-0.0-1.0,,,,,,,,,,,,,,,5f19a735255c76000b023d92,10:31:08,03/04/2024
6336.0,"<div class = 'left_align' style='font-size: 3.25rem; line-height: 1.3;'>It is <b>very</b> important that you make the symmetry judgment correctly.<br><br>It is also important that you try and judge the picture as quickly as you can.<br><br>When you are ready, click on the button below to try some practice problems.</div><br><br><br><br>",0,ospan,instruct,xFZpjzr3SEMZfhFMn4wOva7CB1k1,html-button-response,71,1353501,0.0-46.0-1.0-0.0-2.0,,,,,,,,,,,,,,,5f19a735255c76000b023d92,10:31:08,03/04/2024
3125.0,,,ospan,symmetry,xFZpjzr3SEMZfhFMn4wOva7CB1k1,symmetry-judgement-task,72,1357496,0.0-46.0-1.0-1.0-0.0,,,,,,,,,,1.0,1.0,,,,5f19a735255c76000b023d92,10:31:08,03/04/2024
,"<p style=""color:green; font-size: 35px"">Correct</p>",,ospan,feedback,xFZpjzr3SEMZfhFMn4wOva7CB1k1,html-keyboard-response,73,1358258,0.0-46.0-1.0-1.0-1.0,,,,,,,,,,,,,,,5f19a735255c76000b023d92,10:31:08,03/04/2024
2111.0,,,ospan,symmetry,xFZpjzr3SEMZfhFMn4wOva7CB1k1,symmetry-judgement-task,74,1362977,0.0-46.0-1.0-1.0-2.0,,,,,,,,,,1.0,1.0,,,,5f19a735255c76000b023d92,10:31:08,03/04/2024
,"<p style=""color:green; font-size: 35px"">Correct</p>",,ospan,feedback,xFZpjzr3SEMZfhFMn4wOva7CB1k1,html-keyboard-response,75,1363778,0.0-46.0-1.0-1.0-3.0,,,,,,,,,,,,,,,5f19a735255c76000b023d92,10:31:08,03/04/2024
1671.0,,,ospan,symmetry,xFZpjzr3SEMZfhFMn4wOva7CB1k1,symmetry-judgement-task,76,1368133,0.0-46.0-1.0-1.0-4.0,,,,,,,,,,1.0,1.0,,,,5f19a735255c76000b023d92,10:31:08,03/04/2024
,"<p style=""color:green; font-size: 35px"">Correct</p>",,ospan,feedback,xFZpjzr3SEMZfhFMn4wOva7CB1k1,html-keyboard-response,77,1368898,0.0-46.0-1.0-1.0-5.0,,,,,,,,,,,,,,,5f19a735255c76000b023d92,10:31:08,03/04/2024
2286.0,"<p style=""font-size: 3rem;"">You responded correctly on 3 of 3 symmetry judgments. Good job!</p><br><br>",0,ospan,practice,xFZpjzr3SEMZfhFMn4wOva7CB1k1,html-button-response,78,1373248,0.0-46.0-1.0-2.0,,,,,,,,,,,,,,,5f19a735255c76000b023d92,10:31:08,03/04/2024
15120.0,"<div class = 'left_align' style='font-size: 3.25rem; line-height: 1.3;'>Now you will practice doing both parts of the experiment at the same time.<br><br>In the next practice set, you will be given one grid picture to judge.<br>Then letter will appear on the screen. Try to remember the letter.<br><br>It is <b>very important</b> to make the symmetry judgment as quickly and accurately as possible.<br><br>Just as before, once you have make the symmetry judgment, you can click Yes or No.<br><b>Note that you will no longer see Correct or Incorrect feedback.</div><br><br><br><br>",0,ospan,instruct,xFZpjzr3SEMZfhFMn4wOva7CB1k1,html-button-response,79,1388629,0.0-46.0-2.0-0.0-0.0,,,,,,,,,,,,,,,5f19a735255c76000b023d92,10:31:08,03/04/2024
8336.0,"<div class = 'left_align' style='font-size: 3.25rem; line-height: 1.3;'>After the letter goes away, another grid picture will appear, and then<br>another letter.<br><br>At the end of each set of letters and grids, you will recall the letters to the best<br>of your ability. Remember, try your best to get the letters in the correct order.<br><br>It is important to <b>quickly</b> and <b>accurately</b> make the symmetry judgments.</div><br><br><br><br>",0,ospan,instruct,xFZpjzr3SEMZfhFMn4wOva7CB1k1,html-button-response,80,1397222,0.0-46.0-2.0-0.0-1.0,,,,,,,,,,,,,,,5f19a735255c76000b023d92,10:31:08,03/04/2024
16440.0,"<div class = 'left_align' style='font-size: 3.25rem; line-height: 1.3;'>On the feedback screen, if you are not doing well at the symmetry judgments,<br>you will also see a warning in the middle. This indicates your percent <br>correct for the grid pictures for the entire experiment.<br><br>It is <b>very</b> important for you to keep accuracy at least at 85%: <u>We can only use<br>data where the participant was at least 85% accurate on the judgments.</u> Therefore,<br> please try your best to perform well on the symmetry judgments, <b>at the same time</b><br>doing your best to recall as many letters as possible.<br><br>Click the button to try some practice problems.</div><br><br><br><br>",0,ospan,instruct,xFZpjzr3SEMZfhFMn4wOva7CB1k1,html-button-response,81,1413916,0.0-46.0-2.0-0.0-2.0,,,,,,,,,,,,,,,5f19a735255c76000b023d92,10:31:08,03/04/2024
,"<p style=""font-size:75px;"">...</p>",,ospan,iti,xFZpjzr3SEMZfhFMn4wOva7CB1k1,html-keyboard-response,82,1415184,0.0-46.0-2.0-1.0-0.0,,,,,,,,,,,,,,,5f19a735255c76000b023d92,10:31:08,03/04/2024
1465.0,,,ospan,symmetry,xFZpjzr3SEMZfhFMn4wOva7CB1k1,symmetry-judgement-task,83,1417751,0.0-46.0-2.0-1.0-1.0-0.0,,,,,,,,,,1.0,1.0,,,,5f19a735255c76000b023d92,10:31:08,03/04/2024
,"<div style=""font-size: 10rem; color: #0000FF"">K</div>",,ospan,letter,xFZpjzr3SEMZfhFMn4wOva7CB1k1,html-keyboard-response,84,1418769,0.0-46.0-2.0-1.0-1.0-1.0,,,,,,,,,,,,,,,5f19a735255c76000b023d92,10:31:08,03/04/2024
1602.0,,,ospan,symmetry,xFZpjzr3SEMZfhFMn4wOva7CB1k1,symmetry-judgement-task,85,1422214,0.0-46.0-2.0-1.0-1.0-2.0,,,,,,,,,,1.0,1.0,,,,5f19a735255c76000b023d92,10:31:08,03/04/2024
,"<div style=""font-size: 10rem; color: #0000FF"">L</div>",,ospan,letter,xFZpjzr3SEMZfhFMn4wOva7CB1k1,html-keyboard-response,86,1423227,0.0-46.0-2.0-1.0-1.0-3.0,,,,,,,,,,,,,,,5f19a735255c76000b023d92,10:31:08,03/04/2024
1571.0,,,ospan,symmetry,xFZpjzr3SEMZfhFMn4wOva7CB1k1,symmetry-judgement-task,87,1426649,0.0-46.0-2.0-1.0-1.0-4.0,,,,,,,,,,1.0,1.0,,,,5f19a735255c76000b023d92,10:31:08,03/04/2024
,"<div style=""font-size: 10rem; color: #0000FF"">J</div>",,ospan,letter,xFZpjzr3SEMZfhFMn4wOva7CB1k1,html-keyboard-response,88,1427667,0.0-46.0-2.0-1.0-1.0-5.0,,,,,,,,,,,,,,,5f19a735255c76000b023d92,10:31:08,03/04/2024
8781.0,"<div class = numbox><p style=""font-size: 2.4rem"">Please recall the letters you saw to the best of your ability. If you do not remember a particular letter, use the SKIP button.<br><b>(When you are ready to lock in your answer, press ENTER)</b></p><button id = button_1 class = ""square num-button"" onclick = ""recordClick(this)""><div class = content><div class = numbers>C</div></div></button><button id = button_2 class = ""square num-button"" onclick = ""recordClick(this)""><div class = content><div class = numbers>G</div></div></button><button id = button_3 class = ""square num-button"" onclick = ""recordClick(this)""><div class = content><div class = numbers>H</div></div></button><button id = button_4 class = ""square num-button"" onclick = ""recordClick(this)""><div class = content><div class = numbers>J</div></div></button><button id = button_5 class = ""square num-button"" onclick = ""recordClick(this)""><div class = content><div class = numbers>K</div></div></button><button id = button_6 class = ""square num-button"" onclick = ""recordClick(this)""><div class = content><div class = numbers>L</div></div></button><button id = button_7 class = ""square num-button"" onclick = ""recordClick(this)""><div class = content><div class = numbers>N</div></div></button><button id = button_8 class = ""square num-button"" onclick = ""recordClick(this)""><div class = content><div class = numbers>P</div></div></button><button id = button_9 class = ""square num-button"" onclick = ""recordClick(this)""><div class = content><div class = numbers>Q</div></div></button><button id = button_10 class = ""square num-button"" onclick = ""recordClick(this)""><div class = content><div class = numbers>R</div></div></button><button id = button_11 class = ""square num-button"" onclick = ""recordClick(this)""><div class = content><div class = numbers>S</div></div></button><button id = button_12 class = ""square num-button"" onclick = ""recordClick(this)""><div class = content><div class = numbers>Y</div></div></button><button class = clear_button id = ""ClearButton"" onclick = ""clearResponse()"">BACKSPACE</button><button class = blank_button id = ""BlankButton"" onclick = ""blankResponse()"">SKIP</button><p style=""font-size: 2.4rem""><u><b>Current Answer:</b></u></p><br><br><div id=echoed_txt style=""font-size: 5rem; color:blue;""><b></b></div></div>",enter,ospan,retrieval,xFZpjzr3SEMZfhFMn4wOva7CB1k1,html-keyboard-response,89,1437206,0.0-46.0-2.0-1.0-2.0-0.0,NA,NA,NA,3.0,"[""K"",""L"",""J""]","[""K"",""L"",""J""]",1.0,3.0,"['<font color=""green"">K</font>', '<font color=""green"">L</font>', '<font color=""green"">J</font>']",,,,,,5f19a735255c76000b023d92,10:31:08,03/04/2024
3313.0,"['<p style=""font-size:44px"">Letters:<br><br><br><font color=""green"">K</font> <font color=""green"">L</font> <font color=""green"">J</font></p><br><br><p style=""font-size:30px"">Symmetry:<br><br><font color=""green"">100%</font></p><br><br>']",0,ospan,practice_feedback,xFZpjzr3SEMZfhFMn4wOva7CB1k1,html-button-response,90,1441037,0.0-46.0-2.0-1.0-2.0-1.0,,,,,,,,,,,,,,,5f19a735255c76000b023d92,10:31:08,03/04/2024
,"<p style=""font-size:75px;"">...</p>",,ospan,iti,xFZpjzr3SEMZfhFMn4wOva7CB1k1,html-keyboard-response,91,1442049,0.0-46.0-2.0-2.0-0.0,,,,,,,,,,,,,,,5f19a735255c76000b023d92,10:31:08,03/04/2024
1920.0,,,ospan,symmetry,xFZpjzr3SEMZfhFMn4wOva7CB1k1,symmetry-judgement-task,92,1445074,0.0-46.0-2.0-2.0-1.0-0.0,,,,,,,,,,1.0,1.0,,,,5f19a735255c76000b023d92,10:31:08,03/04/2024
,"<div style=""font-size: 10rem; color: #0000FF"">Y</div>",,ospan,letter,xFZpjzr3SEMZfhFMn4wOva7CB1k1,html-keyboard-response,93,1446079,0.0-46.0-2.0-2.0-1.0-1.0,,,,,,,,,,,,,,,5f19a735255c76000b023d92,10:31:08,03/04/2024
1397.0,,,ospan,symmetry,xFZpjzr3SEMZfhFMn4wOva7CB1k1,symmetry-judgement-task,94,1449332,0.0-46.0-2.0-2.0-1.0-2.0,,,,,,,,,,1.0,1.0,,,,5f19a735255c76000b023d92,10:31:08,03/04/2024
,"<div style=""font-size: 10rem; color: #0000FF"">J</div>",,ospan,letter,xFZpjzr3SEMZfhFMn4wOva7CB1k1,html-keyboard-response,95,1450334,0.0-46.0-2.0-2.0-1.0-3.0,,,,,,,,,,,,,,,5f19a735255c76000b023d92,10:31:08,03/04/2024
1391.0,,,ospan,symmetry,xFZpjzr3SEMZfhFMn4wOva7CB1k1,symmetry-judgement-task,96,1453564,0.0-46.0-2.0-2.0-1.0-4.0,,,,,,,,,,1.0,1.0,,,,5f19a735255c76000b023d92,10:31:08,03/04/2024
,"<div style=""font-size: 10rem; color: #0000FF"">P</div>",,ospan,letter,xFZpjzr3SEMZfhFMn4wOva7CB1k1,html-keyboard-response,97,1454570,0.0-46.0-2.0-2.0-1.0-5.0,,,,,,,,,,,,,,,5f19a735255c76000b023d92,10:31:08,03/04/2024
6219.0,"<div class = numbox><p style=""font-size: 2.4rem"">Please recall the letters you saw to the best of your ability. If you do not remember a particular letter, use the SKIP button.<br><b>(When you are ready to lock in your answer, press ENTER)</b></p><button id = button_1 class = ""square num-button"" onclick = ""recordClick(this)""><div class = content><div class = numbers>C</div></div></button><button id = button_2 class = ""square num-button"" onclick = ""recordClick(this)""><div class = content><div class = numbers>G</div></div></button><button id = button_3 class = ""square num-button"" onclick = ""recordClick(this)""><div class = content><div class = numbers>H</div></div></button><button id = button_4 class = ""square num-button"" onclick = ""recordClick(this)""><div class = content><div class = numbers>J</div></div></button><button id = button_5 class = ""square num-button"" onclick = ""recordClick(this)""><div class = content><div class = numbers>K</div></div></button><button id = button_6 class = ""square num-button"" onclick = ""recordClick(this)""><div class = content><div class = numbers>L</div></div></button><button id = button_7 class = ""square num-button"" onclick = ""recordClick(this)""><div class = content><div class = numbers>N</div></div></button><button id = button_8 class = ""square num-button"" onclick = ""recordClick(this)""><div class = content><div class = numbers>P</div></div></button><button id = button_9 class = ""square num-button"" onclick = ""recordClick(this)""><div class = content><div class = numbers>Q</div></div></button><button id = button_10 class = ""square num-button"" onclick = ""recordClick(this)""><div class = content><div class = numbers>R</div></div></button><button id = button_11 class = ""square num-button"" onclick = ""recordClick(this)""><div class = content><div class = numbers>S</div></div></button><button id = button_12 class = ""square num-button"" onclick = ""recordClick(this)""><div class = content><div class = numbers>Y</div></div></button><button class = clear_button id = ""ClearButton"" onclick = ""clearResponse()"">BACKSPACE</button><button class = blank_button id = ""BlankButton"" onclick = ""blankResponse()"">SKIP</button><p style=""font-size: 2.4rem""><u><b>Current Answer:</b></u></p><br><br><div id=echoed_txt style=""font-size: 5rem; color:blue;""><b></b></div></div>",enter,ospan,retrieval,xFZpjzr3SEMZfhFMn4wOva7CB1k1,html-keyboard-response,98,1461553,0.0-46.0-2.0-2.0-2.0-0.0,NA,NA,NA,3.0,"[""Y"",""J"",""P""]","[""Y"",""J"",""P""]",1.0,3.0,"['<font color=""green"">Y</font>', '<font color=""green"">J</font>', '<font color=""green"">P</font>']",,,,,,5f19a735255c76000b023d92,10:31:08,03/04/2024
2163.0,"['<p style=""font-size:44px"">Letters:<br><br><br><font color=""green"">Y</font> <font color=""green"">J</font> <font color=""green"">P</font></p><br><br><p style=""font-size:30px"">Symmetry:<br><br><font color=""green"">100%</font></p><br><br>']",0,ospan,practice_feedback,xFZpjzr3SEMZfhFMn4wOva7CB1k1,html-button-response,99,1464231,0.0-46.0-2.0-2.0-2.0-1.0,,,,,,,,,,,,,,,5f19a735255c76000b023d92,10:31:08,03/04/2024
24663.0,"<div class = 'left_align' style='font-size: 3rem; line-height: 1.3;'><b>Great work! That is the end of practice.</b><br><br>The real trials will look just like the practice trials you just completed.<br><br><u>Here, you will not see feedback</u>. First, you will see an grid picture to judge,<br>then a letter to remember. When the recall screen appears, report the letters in the<br>order presented. If you forget a letter, remember to use the <b>blank</b> button to move to the<br>next letter. Some of the sets will have more symmetry grids and letters than others.<br><br>It is important that you do your best on both the symmetry judgments and the letter recall<br>parts of the experiment. For for the symmetry judgments, try to work as <b>quickly</b> and <br>as <b>accurately</b> as possible. Remember to keep your symmetry accuracy at 85% or above.<br><br><b>For the letters, do NOT use any external aid (e.g., writing on paper, electronic device).</b><br><br>It is <u>very important</u> to our experiment to have a <b>true</b> view of your real performance.<br><br>Do not worry if you miss some when it gets hard! This task is meant to be very challenging!<br><br>Click the button to begin.</div><br><br><br><br>",0,ospan,starting_real_here,xFZpjzr3SEMZfhFMn4wOva7CB1k1,html-button-response,100,1488896,0.0-46.0-2.0-3.0,,,,,,,,,,,,,,,5f19a735255c76000b023d92,10:31:08,03/04/2024
,"<p style=""font-size:75px;"">...</p>",,ospan,iti,xFZpjzr3SEMZfhFMn4wOva7CB1k1,html-keyboard-response,101,1490160,0.0-46.0-3.0-0.0-0.0,,,,,,,,,,,,,,,5f19a735255c76000b023d92,10:31:08,03/04/2024
1628.0,,,ospan,symmetry,xFZpjzr3SEMZfhFMn4wOva7CB1k1,symmetry-judgement-task,102,1492883,0.0-46.0-3.0-0.0-1.0-0.0,,,,,,,,,,1.0,1.0,,,,5f19a735255c76000b023d92,10:31:08,03/04/2024
,"<div style=""font-size: 10rem; color: #0000FF"">R</div>",,ospan,letter,xFZpjzr3SEMZfhFMn4wOva7CB1k1,html-keyboard-response,103,1493893,0.0-46.0-3.0-0.0-1.0-1.0,,,,,,,,,,,,,,,5f19a735255c76000b023d92,10:31:08,03/04/2024
1395.0,,,ospan,symmetry,xFZpjzr3SEMZfhFMn4wOva7CB1k1,symmetry-judgement-task,104,1497133,0.0-46.0-3.0-0.0-1.0-2.0,,,,,,,,,,1.0,1.0,,,,5f19a735255c76000b023d92,10:31:08,03/04/2024
,"<div style=""font-size: 10rem; color: #0000FF"">K</div>",,ospan,letter,xFZpjzr3SEMZfhFMn4wOva7CB1k1,html-keyboard-response,105,1498145,0.0-46.0-3.0-0.0-1.0-3.0,,,,,,,,,,,,,,,5f19a735255c76000b023d92,10:31:08,03/04/2024
1607.0,,,ospan,symmetry,xFZpjzr3SEMZfhFMn4wOva7CB1k1,symmetry-judgement-task,106,1501598,0.0-46.0-3.0-0.0-1.0-4.0,,,,,,,,,,1.0,1.0,,,,5f19a735255c76000b023d92,10:31:08,03/04/2024
,"<div style=""font-size: 10rem; color: #0000FF"">L</div>",,ospan,letter,xFZpjzr3SEMZfhFMn4wOva7CB1k1,html-keyboard-response,107,1502602,0.0-46.0-3.0-0.0-1.0-5.0,,,,,,,,,,,,,,,5f19a735255c76000b023d92,10:31:08,03/04/2024
7824.0,"<div class = numbox><p style=""font-size: 2.4rem"">Please recall the letters you saw to the best of your ability. If you do not remember a particular letter, use the SKIP button.<br><b>(When you are ready to lock in your answer, press ENTER)</b></p><button id = button_1 class = ""square num-button"" onclick = ""recordClick(this)""><div class = content><div class = numbers>C</div></div></button><button id = button_2 class = ""square num-button"" onclick = ""recordClick(this)""><div class = content><div class = numbers>G</div></div></button><button id = button_3 class = ""square num-button"" onclick = ""recordClick(this)""><div class = content><div class = numbers>H</div></div></button><button id = button_4 class = ""square num-button"" onclick = ""recordClick(this)""><div class = content><div class = numbers>J</div></div></button><button id = button_5 class = ""square num-button"" onclick = ""recordClick(this)""><div class = content><div class = numbers>K</div></div></button><button id = button_6 class = ""square num-button"" onclick = ""recordClick(this)""><div class = content><div class = numbers>L</div></div></button><button id = button_7 class = ""square num-button"" onclick = ""recordClick(this)""><div class = content><div class = numbers>N</div></div></button><button id = button_8 class = ""square num-button"" onclick = ""recordClick(this)""><div class = content><div class = numbers>P</div></div></button><button id = button_9 class = ""square num-button"" onclick = ""recordClick(this)""><div class = content><div class = numbers>Q</div></div></button><button id = button_10 class = ""square num-button"" onclick = ""recordClick(this)""><div class = content><div class = numbers>R</div></div></button><button id = button_11 class = ""square num-button"" onclick = ""recordClick(this)""><div class = content><div class = numbers>S</div></div></button><button id = button_12 class = ""square num-button"" onclick = ""recordClick(this)""><div class = content><div class = numbers>Y</div></div></button><button class = clear_button id = ""ClearButton"" onclick = ""clearResponse()"">BACKSPACE</button><button class = blank_button id = ""BlankButton"" onclick = ""blankResponse()"">SKIP</button><p style=""font-size: 2.4rem""><u><b>Current Answer:</b></u></p><br><br><div id=echoed_txt style=""font-size: 5rem; color:blue;""><b></b></div></div>",enter,ospan,retrieval,xFZpjzr3SEMZfhFMn4wOva7CB1k1,html-keyboard-response,108,1511185,0.0-46.0-3.0-0.0-2.0,3,3,3,3.0,"[""R"",""K"",""L""]","[""R"",""K"",""L""]",1.0,3.0,,,,,,,5f19a735255c76000b023d92,10:31:08,03/04/2024
1941.0,[''],0,ospan,feedback,xFZpjzr3SEMZfhFMn4wOva7CB1k1,html-button-response,109,1513634,0.0-46.0-3.0-0.0-3.0,,,,,,,,,,,,100.0,0.0,,5f19a735255c76000b023d92,10:31:08,03/04/2024
,"<p style=""font-size:75px;"">...</p>",,ospan,iti,xFZpjzr3SEMZfhFMn4wOva7CB1k1,html-keyboard-response,110,1514651,0.0-46.0-4.0-0.0-0.0,,,,,,,,,,,,,,,5f19a735255c76000b023d92,10:31:08,03/04/2024
1817.0,,,ospan,symmetry,xFZpjzr3SEMZfhFMn4wOva7CB1k1,symmetry-judgement-task,111,1517564,0.0-46.0-4.0-0.0-1.0-0.0,,,,,,,,,,1.0,1.0,,,,5f19a735255c76000b023d92,10:31:08,03/04/2024
,"<div style=""font-size: 10rem; color: #0000FF"">K</div>",,ospan,letter,xFZpjzr3SEMZfhFMn4wOva7CB1k1,html-keyboard-response,112,1518578,0.0-46.0-4.0-0.0-1.0-1.0,,,,,,,,,,,,,,,5f19a735255c76000b023d92,10:31:08,03/04/2024
1250.0,,,ospan,symmetry,xFZpjzr3SEMZfhFMn4wOva7CB1k1,symmetry-judgement-task,113,1521674,0.0-46.0-4.0-0.0-1.0-2.0,,,,,,,,,,1.0,1.0,,,,5f19a735255c76000b023d92,10:31:08,03/04/2024
,"<div style=""font-size: 10rem; color: #0000FF"">N</div>",,ospan,letter,xFZpjzr3SEMZfhFMn4wOva7CB1k1,html-keyboard-response,114,1522677,0.0-46.0-4.0-0.0-1.0-3.0,,,,,,,,,,,,,,,5f19a735255c76000b023d92,10:31:08,03/04/2024
1212.0,,,ospan,symmetry,xFZpjzr3SEMZfhFMn4wOva7CB1k1,symmetry-judgement-task,115,1525732,0.0-46.0-4.0-0.0-1.0-4.0,,,,,,,,,,1.0,1.0,,,,5f19a735255c76000b023d92,10:31:08,03/04/2024
,"<div style=""font-size: 10rem; color: #0000FF"">G</div>",,ospan,letter,xFZpjzr3SEMZfhFMn4wOva7CB1k1,html-keyboard-response,116,1526736,0.0-46.0-4.0-0.0-1.0-5.0,,,,,,,,,,,,,,,5f19a735255c76000b023d92,10:31:08,03/04/2024
1706.0,,,ospan,symmetry,xFZpjzr3SEMZfhFMn4wOva7CB1k1,symmetry-judgement-task,117,1530294,0.0-46.0-4.0-0.0-1.0-6.0,,,,,,,,,,1.0,1.0,,,,5f19a735255c76000b023d92,10:31:08,03/04/2024
,"<div style=""font-size: 10rem; color: #0000FF"">C</div>",,ospan,letter,xFZpjzr3SEMZfhFMn4wOva7CB1k1,html-keyboard-response,118,1531303,0.0-46.0-4.0-0.0-1.0-7.0,,,,,,,,,,,,,,,5f19a735255c76000b023d92,10:31:08,03/04/2024
7584.0,"<div class = numbox><p style=""font-size: 2.4rem"">Please recall the letters you saw to the best of your ability. If you do not remember a particular letter, use the SKIP button.<br><b>(When you are ready to lock in your answer, press ENTER)</b></p><button id = button_1 class = ""square num-button"" onclick = ""recordClick(this)""><div class = content><div class = numbers>C</div></div></button><button id = button_2 class = ""square num-button"" onclick = ""recordClick(this)""><div class = content><div class = numbers>G</div></div></button><button id = button_3 class = ""square num-button"" onclick = ""recordClick(this)""><div class = content><div class = numbers>H</div></div></button><button id = button_4 class = ""square num-button"" onclick = ""recordClick(this)""><div class = content><div class = numbers>J</div></div></button><button id = button_5 class = ""square num-button"" onclick = ""recordClick(this)""><div class = content><div class = numbers>K</div></div></button><button id = button_6 class = ""square num-button"" onclick = ""recordClick(this)""><div class = content><div class = numbers>L</div></div></button><button id = button_7 class = ""square num-button"" onclick = ""recordClick(this)""><div class = content><div class = numbers>N</div></div></button><button id = button_8 class = ""square num-button"" onclick = ""recordClick(this)""><div class = content><div class = numbers>P</div></div></button><button id = button_9 class = ""square num-button"" onclick = ""recordClick(this)""><div class = content><div class = numbers>Q</div></div></button><button id = button_10 class = ""square num-button"" onclick = ""recordClick(this)""><div class = content><div class = numbers>R</div></div></button><button id = button_11 class = ""square num-button"" onclick = ""recordClick(this)""><div class = content><div class = numbers>S</div></div></button><button id = button_12 class = ""square num-button"" onclick = ""recordClick(this)""><div class = content><div class = numbers>Y</div></div></button><button class = clear_button id = ""ClearButton"" onclick = ""clearResponse()"">BACKSPACE</button><button class = blank_button id = ""BlankButton"" onclick = ""blankResponse()"">SKIP</button><p style=""font-size: 2.4rem""><u><b>Current Answer:</b></u></p><br><br><div id=echoed_txt style=""font-size: 5rem; color:blue;""><b></b></div></div>",enter,ospan,retrieval,xFZpjzr3SEMZfhFMn4wOva7CB1k1,html-keyboard-response,119,1539647,0.0-46.0-4.0-0.0-2.0,7,7,7,4.0,"[""K"",""N"",""G"",""C""]","[""K"",""N"",""G"",""C""]",1.0,4.0,,,,,,,5f19a735255c76000b023d92,10:31:08,03/04/2024
3069.0,[''],0,ospan,feedback,xFZpjzr3SEMZfhFMn4wOva7CB1k1,html-button-response,120,1543219,0.0-46.0-4.0-0.0-3.0,,,,,,,,,,,,100.0,0.0,,5f19a735255c76000b023d92,10:31:08,03/04/2024
,"<p style=""font-size:75px;"">...</p>",,ospan,iti,xFZpjzr3SEMZfhFMn4wOva7CB1k1,html-keyboard-response,121,1544233,0.0-46.0-4.0-1.0-0.0,,,,,,,,,,,,,,,5f19a735255c76000b023d92,10:31:08,03/04/2024
1346.0,,,ospan,symmetry,xFZpjzr3SEMZfhFMn4wOva7CB1k1,symmetry-judgement-task,122,1546702,0.0-46.0-4.0-1.0-1.0-0.0,,,,,,,,,,1.0,1.0,,,,5f19a735255c76000b023d92,10:31:08,03/04/2024
,"<div style=""font-size: 10rem; color: #0000FF"">N</div>",,ospan,letter,xFZpjzr3SEMZfhFMn4wOva7CB1k1,html-keyboard-response,123,1547709,0.0-46.0-4.0-1.0-1.0-1.0,,,,,,,,,,,,,,,5f19a735255c76000b023d92,10:31:08,03/04/2024
1471.0,,,ospan,symmetry,xFZpjzr3SEMZfhFMn4wOva7CB1k1,symmetry-judgement-task,124,1551023,0.0-46.0-4.0-1.0-1.0-2.0,,,,,,,,,,1.0,1.0,,,,5f19a735255c76000b023d92,10:31:08,03/04/2024
,"<div style=""font-size: 10rem; color: #0000FF"">J</div>",,ospan,letter,xFZpjzr3SEMZfhFMn4wOva7CB1k1,html-keyboard-response,125,1552026,0.0-46.0-4.0-1.0-1.0-3.0,,,,,,,,,,,,,,,5f19a735255c76000b023d92,10:31:08,03/04/2024
1631.0,,,ospan,symmetry,xFZpjzr3SEMZfhFMn4wOva7CB1k1,symmetry-judgement-task,126,1555520,0.0-46.0-4.0-1.0-1.0-4.0,,,,,,,,,,1.0,1.0,,,,5f19a735255c76000b023d92,10:31:08,03/04/2024
,"<div style=""font-size: 10rem; color: #0000FF"">R</div>",,ospan,letter,xFZpjzr3SEMZfhFMn4wOva7CB1k1,html-keyboard-response,127,1556537,0.0-46.0-4.0-1.0-1.0-5.0,,,,,,,,,,,,,,,5f19a735255c76000b023d92,10:31:08,03/04/2024
1453.0,,,ospan,symmetry,xFZpjzr3SEMZfhFMn4wOva7CB1k1,symmetry-judgement-task,128,1559843,0.0-46.0-4.0-1.0-1.0-6.0,,,,,,,,,,1.0,1.0,,,,5f19a735255c76000b023d92,10:31:08,03/04/2024
,"<div style=""font-size: 10rem; color: #0000FF"">P</div>",,ospan,letter,xFZpjzr3SEMZfhFMn4wOva7CB1k1,html-keyboard-response,129,1560859,0.0-46.0-4.0-1.0-1.0-7.0,,,,,,,,,,,,,,,5f19a735255c76000b023d92,10:31:08,03/04/2024
1196.0,,,ospan,symmetry,xFZpjzr3SEMZfhFMn4wOva7CB1k1,symmetry-judgement-task,130,1563904,0.0-46.0-4.0-1.0-1.0-8.0,,,,,,,,,,1.0,1.0,,,,5f19a735255c76000b023d92,10:31:08,03/04/2024
,"<div style=""font-size: 10rem; color: #0000FF"">S</div>",,ospan,letter,xFZpjzr3SEMZfhFMn4wOva7CB1k1,html-keyboard-response,131,1564912,0.0-46.0-4.0-1.0-1.0-9.0,,,,,,,,,,,,,,,5f19a735255c76000b023d92,10:31:08,03/04/2024
10493.0,"<div class = numbox><p style=""font-size: 2.4rem"">Please recall the letters you saw to the best of your ability. If you do not remember a particular letter, use the SKIP button.<br><b>(When you are ready to lock in your answer, press ENTER)</b></p><button id = button_1 class = ""square num-button"" onclick = ""recordClick(this)""><div class = content><div class = numbers>C</div></div></button><button id = button_2 class = ""square num-button"" onclick = ""recordClick(this)""><div class = content><div class = numbers>G</div></div></button><button id = button_3 class = ""square num-button"" onclick = ""recordClick(this)""><div class = content><div class = numbers>H</div></div></button><button id = button_4 class = ""square num-button"" onclick = ""recordClick(this)""><div class = content><div class = numbers>J</div></div></button><button id = button_5 class = ""square num-button"" onclick = ""recordClick(this)""><div class = content><div class = numbers>K</div></div></button><button id = button_6 class = ""square num-button"" onclick = ""recordClick(this)""><div class = content><div class = numbers>L</div></div></button><button id = button_7 class = ""square num-button"" onclick = ""recordClick(this)""><div class = content><div class = numbers>N</div></div></button><button id = button_8 class = ""square num-button"" onclick = ""recordClick(this)""><div class = content><div class = numbers>P</div></div></button><button id = button_9 class = ""square num-button"" onclick = ""recordClick(this)""><div class = content><div class = numbers>Q</div></div></button><button id = button_10 class = ""square num-button"" onclick = ""recordClick(this)""><div class = content><div class = numbers>R</div></div></button><button id = button_11 class = ""square num-button"" onclick = ""recordClick(this)""><div class = content><div class = numbers>S</div></div></button><button id = button_12 class = ""square num-button"" onclick = ""recordClick(this)""><div class = content><div class = numbers>Y</div></div></button><button class = clear_button id = ""ClearButton"" onclick = ""clearResponse()"">BACKSPACE</button><button class = blank_button id = ""BlankButton"" onclick = ""blankResponse()"">SKIP</button><p style=""font-size: 2.4rem""><u><b>Current Answer:</b></u></p><br><br><div id=echoed_txt style=""font-size: 5rem; color:blue;""><b></b></div></div>",enter,ospan,retrieval,xFZpjzr3SEMZfhFMn4wOva7CB1k1,html-keyboard-response,132,1576169,0.0-46.0-4.0-1.0-2.0,12,12,12,5.0,"[""N"",""J"",""R"",""P"",""S""]","[""N"",""J"",""R"",""P"",""S""]",1.0,5.0,,,,,,,5f19a735255c76000b023d92,10:31:08,03/04/2024
1150.0,[''],0,ospan,feedback,xFZpjzr3SEMZfhFMn4wOva7CB1k1,html-button-response,133,1577834,0.0-46.0-4.0-1.0-3.0,,,,,,,,,,,,100.0,0.0,,5f19a735255c76000b023d92,10:31:08,03/04/2024
,"<p style=""font-size:75px;"">...</p>",,ospan,iti,xFZpjzr3SEMZfhFMn4wOva7CB1k1,html-keyboard-response,134,1578837,0.0-46.0-4.0-2.0-0.0,,,,,,,,,,,,,,,5f19a735255c76000b023d92,10:31:08,03/04/2024
1917.0,,,ospan,symmetry,xFZpjzr3SEMZfhFMn4wOva7CB1k1,symmetry-judgement-task,135,1581853,0.0-46.0-4.0-2.0-1.0-0.0,,,,,,,,,,1.0,1.0,,,,5f19a735255c76000b023d92,10:31:08,03/04/2024
,"<div style=""font-size: 10rem; color: #0000FF"">Y</div>",,ospan,letter,xFZpjzr3SEMZfhFMn4wOva7CB1k1,html-keyboard-response,136,1582870,0.0-46.0-4.0-2.0-1.0-1.0,,,,,,,,,,,,,,,5f19a735255c76000b023d92,10:31:08,03/04/2024
1184.0,,,ospan,symmetry,xFZpjzr3SEMZfhFMn4wOva7CB1k1,symmetry-judgement-task,137,1585889,0.0-46.0-4.0-2.0-1.0-2.0,,,,,,,,,,1.0,1.0,,,,5f19a735255c76000b023d92,10:31:08,03/04/2024
,"<div style=""font-size: 10rem; color: #0000FF"">G</div>",,ospan,letter,xFZpjzr3SEMZfhFMn4wOva7CB1k1,html-keyboard-response,138,1586903,0.0-46.0-4.0-2.0-1.0-3.0,,,,,,,,,,,,,,,5f19a735255c76000b023d92,10:31:08,03/04/2024
1156.0,,,ospan,symmetry,xFZpjzr3SEMZfhFMn4wOva7CB1k1,symmetry-judgement-task,139,1589902,0.0-46.0-4.0-2.0-1.0-4.0,,,,,,,,,,1.0,1.0,,,,5f19a735255c76000b023d92,10:31:08,03/04/2024
,"<div style=""font-size: 10rem; color: #0000FF"">P</div>",,ospan,letter,xFZpjzr3SEMZfhFMn4wOva7CB1k1,html-keyboard-response,140,1590911,0.0-46.0-4.0-2.0-1.0-5.0,,,,,,,,,,,,,,,5f19a735255c76000b023d92,10:31:08,03/04/2024
6780.0,"<div class = numbox><p style=""font-size: 2.4rem"">Please recall the letters you saw to the best of your ability. If you do not remember a particular letter, use the SKIP button.<br><b>(When you are ready to lock in your answer, press ENTER)</b></p><button id = button_1 class = ""square num-button"" onclick = ""recordClick(this)""><div class = content><div class = numbers>C</div></div></button><button id = button_2 class = ""square num-button"" onclick = ""recordClick(this)""><div class = content><div class = numbers>G</div></div></button><button id = button_3 class = ""square num-button"" onclick = ""recordClick(this)""><div class = content><div class = numbers>H</div></div></button><button id = button_4 class = ""square num-button"" onclick = ""recordClick(this)""><div class = content><div class = numbers>J</div></div></button><button id = button_5 class = ""square num-button"" onclick = ""recordClick(this)""><div class = content><div class = numbers>K</div></div></button><button id = button_6 class = ""square num-button"" onclick = ""recordClick(this)""><div class = content><div class = numbers>L</div></div></button><button id = button_7 class = ""square num-button"" onclick = ""recordClick(this)""><div class = content><div class = numbers>N</div></div></button><button id = button_8 class = ""square num-button"" onclick = ""recordClick(this)""><div class = content><div class = numbers>P</div></div></button><button id = button_9 class = ""square num-button"" onclick = ""recordClick(this)""><div class = content><div class = numbers>Q</div></div></button><button id = button_10 class = ""square num-button"" onclick = ""recordClick(this)""><div class = content><div class = numbers>R</div></div></button><button id = button_11 class = ""square num-button"" onclick = ""recordClick(this)""><div class = content><div class = numbers>S</div></div></button><button id = button_12 class = ""square num-button"" onclick = ""recordClick(this)""><div class = content><div class = numbers>Y</div></div></button><button class = clear_button id = ""ClearButton"" onclick = ""clearResponse()"">BACKSPACE</button><button class = blank_button id = ""BlankButton"" onclick = ""blankResponse()"">SKIP</button><p style=""font-size: 2.4rem""><u><b>Current Answer:</b></u></p><br><br><div id=echoed_txt style=""font-size: 5rem; color:blue;""><b></b></div></div>",enter,ospan,retrieval,xFZpjzr3SEMZfhFMn4wOva7CB1k1,html-keyboard-response,141,1598448,0.0-46.0-4.0-2.0-2.0,15,15,15,3.0,"[""Y"",""G"",""P""]","[""Y"",""G"",""P""]",1.0,3.0,,,,,,,5f19a735255c76000b023d92,10:31:08,03/04/2024
1345.0,[''],0,ospan,feedback,xFZpjzr3SEMZfhFMn4wOva7CB1k1,html-button-response,142,1600295,0.0-46.0-4.0-2.0-3.0,,,,,,,,,,,,100.0,0.0,,5f19a735255c76000b023d92,10:31:08,03/04/2024
,"<p style=""font-size:75px;"">...</p>",,ospan,iti,xFZpjzr3SEMZfhFMn4wOva7CB1k1,html-keyboard-response,143,1601331,0.0-46.0-5.0-0.0-0.0,,,,,,,,,,,,,,,5f19a735255c76000b023d92,10:31:08,03/04/2024
1700.0,,,ospan,symmetry,xFZpjzr3SEMZfhFMn4wOva7CB1k1,symmetry-judgement-task,144,1604131,0.0-46.0-5.0-0.0-1.0-0.0,,,,,,,,,,1.0,1.0,,,,5f19a735255c76000b023d92,10:31:08,03/04/2024
,"<div style=""font-size: 10rem; color: #0000FF"">Q</div>",,ospan,letter,xFZpjzr3SEMZfhFMn4wOva7CB1k1,html-keyboard-response,145,1605142,0.0-46.0-5.0-0.0-1.0-1.0,,,,,,,,,,,,,,,5f19a735255c76000b023d92,10:31:08,03/04/2024
1175.0,,,ospan,symmetry,xFZpjzr3SEMZfhFMn4wOva7CB1k1,symmetry-judgement-task,146,1608169,0.0-46.0-5.0-0.0-1.0-2.0,,,,,,,,,,1.0,1.0,,,,5f19a735255c76000b023d92,10:31:08,03/04/2024
,"<div style=""font-size: 10rem; color: #0000FF"">S</div>",,ospan,letter,xFZpjzr3SEMZfhFMn4wOva7CB1k1,html-keyboard-response,147,1609174,0.0-46.0-5.0-0.0-1.0-3.0,,,,,,,,,,,,,,,5f19a735255c76000b023d92,10:31:08,03/04/2024
1215.0,,,ospan,symmetry,xFZpjzr3SEMZfhFMn4wOva7CB1k1,symmetry-judgement-task,148,1612269,0.0-46.0-5.0-0.0-1.0-4.0,,,,,,,,,,1.0,1.0,,,,5f19a735255c76000b023d92,10:31:08,03/04/2024
,"<div style=""font-size: 10rem; color: #0000FF"">G</div>",,ospan,letter,xFZpjzr3SEMZfhFMn4wOva7CB1k1,html-keyboard-response,149,1613280,0.0-46.0-5.0-0.0-1.0-5.0,,,,,,,,,,,,,,,5f19a735255c76000b023d92,10:31:08,03/04/2024
1360.0,,,ospan,symmetry,xFZpjzr3SEMZfhFMn4wOva7CB1k1,symmetry-judgement-task,150,1616517,0.0-46.0-5.0-0.0-1.0-6.0,,,,,,,,,,1.0,1.0,,,,5f19a735255c76000b023d92,10:31:08,03/04/2024
,"<div style=""font-size: 10rem; color: #0000FF"">Y</div>",,ospan,letter,xFZpjzr3SEMZfhFMn4wOva7CB1k1,html-keyboard-response,151,1617530,0.0-46.0-5.0-0.0-1.0-7.0,,,,,,,,,,,,,,,5f19a735255c76000b023d92,10:31:08,03/04/2024
1354.0,,,ospan,symmetry,xFZpjzr3SEMZfhFMn4wOva7CB1k1,symmetry-judgement-task,152,1620739,0.0-46.0-5.0-0.0-1.0-8.0,,,,,,,,,,1.0,1.0,,,,5f19a735255c76000b023d92,10:31:08,03/04/2024
,"<div style=""font-size: 10rem; color: #0000FF"">K</div>",,ospan,letter,xFZpjzr3SEMZfhFMn4wOva7CB1k1,html-keyboard-response,153,1621741,0.0-46.0-5.0-0.0-1.0-9.0,,,,,,,,,,,,,,,5f19a735255c76000b023d92,10:31:08,03/04/2024
1970.0,,,ospan,symmetry,xFZpjzr3SEMZfhFMn4wOva7CB1k1,symmetry-judgement-task,154,1625601,0.0-46.0-5.0-0.0-1.0-10.0,,,,,,,,,,1.0,1.0,,,,5f19a735255c76000b023d92,10:31:08,03/04/2024
,"<div style=""font-size: 10rem; color: #0000FF"">R</div>",,ospan,letter,xFZpjzr3SEMZfhFMn4wOva7CB1k1,html-keyboard-response,155,1626614,0.0-46.0-5.0-0.0-1.0-11.0,,,,,,,,,,,,,,,5f19a735255c76000b023d92,10:31:08,03/04/2024
12382.0,"<div class = numbox><p style=""font-size: 2.4rem"">Please recall the letters you saw to the best of your ability. If you do not remember a particular letter, use the SKIP button.<br><b>(When you are ready to lock in your answer, press ENTER)</b></p><button id = button_1 class = ""square num-button"" onclick = ""recordClick(this)""><div class = content><div class = numbers>C</div></div></button><button id = button_2 class = ""square num-button"" onclick = ""recordClick(this)""><div class = content><div class = numbers>G</div></div></button><button id = button_3 class = ""square num-button"" onclick = ""recordClick(this)""><div class = content><div class = numbers>H</div></div></button><button id = button_4 class = ""square num-button"" onclick = ""recordClick(this)""><div class = content><div class = numbers>J</div></div></button><button id = button_5 class = ""square num-button"" onclick = ""recordClick(this)""><div class = content><div class = numbers>K</div></div></button><button id = button_6 class = ""square num-button"" onclick = ""recordClick(this)""><div class = content><div class = numbers>L</div></div></button><button id = button_7 class = ""square num-button"" onclick = ""recordClick(this)""><div class = content><div class = numbers>N</div></div></button><button id = button_8 class = ""square num-button"" onclick = ""recordClick(this)""><div class = content><div class = numbers>P</div></div></button><button id = button_9 class = ""square num-button"" onclick = ""recordClick(this)""><div class = content><div class = numbers>Q</div></div></button><button id = button_10 class = ""square num-button"" onclick = ""recordClick(this)""><div class = content><div class = numbers>R</div></div></button><button id = button_11 class = ""square num-button"" onclick = ""recordClick(this)""><div class = content><div class = numbers>S</div></div></button><button id = button_12 class = ""square num-button"" onclick = ""recordClick(this)""><div class = content><div class = numbers>Y</div></div></button><button class = clear_button id = ""ClearButton"" onclick = ""clearResponse()"">BACKSPACE</button><button class = blank_button id = ""BlankButton"" onclick = ""blankResponse()"">SKIP</button><p style=""font-size: 2.4rem""><u><b>Current Answer:</b></u></p><br><br><div id=echoed_txt style=""font-size: 5rem; color:blue;""><b></b></div></div>",enter,ospan,retrieval,xFZpjzr3SEMZfhFMn4wOva7CB1k1,html-keyboard-response,156,1639761,0.0-46.0-5.0-0.0-2.0,21,21,21,6.0,"[""Q"",""S"",""G"",""Y"",""K"",""R""]","[""Q"",""S"",""G"",""Y"",""K"",""R""]",1.0,6.0,,,,,,,5f19a735255c76000b023d92,10:31:08,03/04/2024
1202.0,[''],0,ospan,feedback,xFZpjzr3SEMZfhFMn4wOva7CB1k1,html-button-response,157,1641470,0.0-46.0-5.0-0.0-3.0,,,,,,,,,,,,100.0,0.0,,5f19a735255c76000b023d92,10:31:08,03/04/2024
,"<p style=""font-size:75px;"">...</p>",,ospan,iti,xFZpjzr3SEMZfhFMn4wOva7CB1k1,html-keyboard-response,158,1642477,0.0-46.0-5.0-1.0-0.0,,,,,,,,,,,,,,,5f19a735255c76000b023d92,10:31:08,03/04/2024
1969.0,,,ospan,symmetry,xFZpjzr3SEMZfhFMn4wOva7CB1k1,symmetry-judgement-task,159,1645542,0.0-46.0-5.0-1.0-1.0-0.0,,,,,,,,,,1.0,1.0,,,,5f19a735255c76000b023d92,10:31:08,03/04/2024
,"<div style=""font-size: 10rem; color: #0000FF"">H</div>",,ospan,letter,xFZpjzr3SEMZfhFMn4wOva7CB1k1,html-keyboard-response,160,1646545,0.0-46.0-5.0-1.0-1.0-1.0,,,,,,,,,,,,,,,5f19a735255c76000b023d92,10:31:08,03/04/2024
1521.0,,,ospan,symmetry,xFZpjzr3SEMZfhFMn4wOva7CB1k1,symmetry-judgement-task,161,1649941,0.0-46.0-5.0-1.0-1.0-2.0,,,,,,,,,,1.0,1.0,,,,5f19a735255c76000b023d92,10:31:08,03/04/2024
,"<div style=""font-size: 10rem; color: #0000FF"">L</div>",,ospan,letter,xFZpjzr3SEMZfhFMn4wOva7CB1k1,html-keyboard-response,162,1650946,0.0-46.0-5.0-1.0-1.0-3.0,,,,,,,,,,,,,,,5f19a735255c76000b023d92,10:31:08,03/04/2024
1503.0,,,ospan,symmetry,xFZpjzr3SEMZfhFMn4wOva7CB1k1,symmetry-judgement-task,163,1654300,0.0-46.0-5.0-1.0-1.0-4.0,,,,,,,,,,1.0,1.0,,,,5f19a735255c76000b023d92,10:31:08,03/04/2024
,"<div style=""font-size: 10rem; color: #0000FF"">Q</div>",,ospan,letter,xFZpjzr3SEMZfhFMn4wOva7CB1k1,html-keyboard-response,164,1655308,0.0-46.0-5.0-1.0-1.0-5.0,,,,,,,,,,,,,,,5f19a735255c76000b023d92,10:31:08,03/04/2024
1115.0,,,ospan,symmetry,xFZpjzr3SEMZfhFMn4wOva7CB1k1,symmetry-judgement-task,165,1658270,0.0-46.0-5.0-1.0-1.0-6.0,,,,,,,,,,1.0,1.0,,,,5f19a735255c76000b023d92,10:31:08,03/04/2024
,"<div style=""font-size: 10rem; color: #0000FF"">J</div>",,ospan,letter,xFZpjzr3SEMZfhFMn4wOva7CB1k1,html-keyboard-response,166,1659285,0.0-46.0-5.0-1.0-1.0-7.0,,,,,,,,,,,,,,,5f19a735255c76000b023d92,10:31:08,03/04/2024
2011.0,,,ospan,symmetry,xFZpjzr3SEMZfhFMn4wOva7CB1k1,symmetry-judgement-task,167,1663140,0.0-46.0-5.0-1.0-1.0-8.0,,,,,,,,,,1.0,1.0,,,,5f19a735255c76000b023d92,10:31:08,03/04/2024
,"<div style=""font-size: 10rem; color: #0000FF"">P</div>",,ospan,letter,xFZpjzr3SEMZfhFMn4wOva7CB1k1,html-keyboard-response,168,1664156,0.0-46.0-5.0-1.0-1.0-9.0,,,,,,,,,,,,,,,5f19a735255c76000b023d92,10:31:08,03/04/2024
1206.0,,,ospan,symmetry,xFZpjzr3SEMZfhFMn4wOva7CB1k1,symmetry-judgement-task,169,1667203,0.0-46.0-5.0-1.0-1.0-10.0,,,,,,,,,,1.0,1.0,,,,5f19a735255c76000b023d92,10:31:08,03/04/2024
,"<div style=""font-size: 10rem; color: #0000FF"">R</div>",,ospan,letter,xFZpjzr3SEMZfhFMn4wOva7CB1k1,html-keyboard-response,170,1668207,0.0-46.0-5.0-1.0-1.0-11.0,,,,,,,,,,,,,,,5f19a735255c76000b023d92,10:31:08,03/04/2024
1517.0,,,ospan,symmetry,xFZpjzr3SEMZfhFMn4wOva7CB1k1,symmetry-judgement-task,171,1671665,0.0-46.0-5.0-1.0-1.0-12.0,,,,,,,,,,1.0,1.0,,,,5f19a735255c76000b023d92,10:31:08,03/04/2024
,"<div style=""font-size: 10rem; color: #0000FF"">K</div>",,ospan,letter,xFZpjzr3SEMZfhFMn4wOva7CB1k1,html-keyboard-response,172,1672673,0.0-46.0-5.0-1.0-1.0-13.0,,,,,,,,,,,,,,,5f19a735255c76000b023d92,10:31:08,03/04/2024
32734.0,"<div class = numbox><p style=""font-size: 2.4rem"">Please recall the letters you saw to the best of your ability. If you do not remember a particular letter, use the SKIP button.<br><b>(When you are ready to lock in your answer, press ENTER)</b></p><button id = button_1 class = ""square num-button"" onclick = ""recordClick(this)""><div class = content><div class = numbers>C</div></div></button><button id = button_2 class = ""square num-button"" onclick = ""recordClick(this)""><div class = content><div class = numbers>G</div></div></button><button id = button_3 class = ""square num-button"" onclick = ""recordClick(this)""><div class = content><div class = numbers>H</div></div></button><button id = button_4 class = ""square num-button"" onclick = ""recordClick(this)""><div class = content><div class = numbers>J</div></div></button><button id = button_5 class = ""square num-button"" onclick = ""recordClick(this)""><div class = content><div class = numbers>K</div></div></button><button id = button_6 class = ""square num-button"" onclick = ""recordClick(this)""><div class = content><div class = numbers>L</div></div></button><button id = button_7 class = ""square num-button"" onclick = ""recordClick(this)""><div class = content><div class = numbers>N</div></div></button><button id = button_8 class = ""square num-button"" onclick = ""recordClick(this)""><div class = content><div class = numbers>P</div></div></button><button id = button_9 class = ""square num-button"" onclick = ""recordClick(this)""><div class = content><div class = numbers>Q</div></div></button><button id = button_10 class = ""square num-button"" onclick = ""recordClick(this)""><div class = content><div class = numbers>R</div></div></button><button id = button_11 class = ""square num-button"" onclick = ""recordClick(this)""><div class = content><div class = numbers>S</div></div></button><button id = button_12 class = ""square num-button"" onclick = ""recordClick(this)""><div class = content><div class = numbers>Y</div></div></button><button class = clear_button id = ""ClearButton"" onclick = ""clearResponse()"">BACKSPACE</button><button class = blank_button id = ""BlankButton"" onclick = ""blankResponse()"">SKIP</button><p style=""font-size: 2.4rem""><u><b>Current Answer:</b></u></p><br><br><div id=echoed_txt style=""font-size: 5rem; color:blue;""><b></b></div></div>",enter,ospan,retrieval,xFZpjzr3SEMZfhFMn4wOva7CB1k1,html-keyboard-response,173,1706163,0.0-46.0-5.0-1.0-2.0,28,25,21,7.0,"[""H"",""L"",""Q"",""J"",""R"",""K""]","[""H"",""L"",""Q"",""J"",""P"",""R"",""K""]",0.0,4.0,,,,,,,5f19a735255c76000b023d92,10:31:08,03/04/2024
2259.0,[''],0,ospan,feedback,xFZpjzr3SEMZfhFMn4wOva7CB1k1,html-button-response,174,1708927,0.0-46.0-5.0-1.0-3.0,,,,,,,,,,,,100.0,0.0,,5f19a735255c76000b023d92,10:31:08,03/04/2024
,"<p style=""font-size:75px;"">...</p>",,ospan,iti,xFZpjzr3SEMZfhFMn4wOva7CB1k1,html-keyboard-response,175,1709931,0.0-46.0-6.0-0.0-0.0,,,,,,,,,,,,,,,5f19a735255c76000b023d92,10:31:08,03/04/2024
1822.0,,,ospan,symmetry,xFZpjzr3SEMZfhFMn4wOva7CB1k1,symmetry-judgement-task,176,1712844,0.0-46.0-6.0-0.0-1.0-0.0,,,,,,,,,,1.0,1.0,,,,5f19a735255c76000b023d92,10:31:08,03/04/2024
,"<div style=""font-size: 10rem; color: #0000FF"">Q</div>",,ospan,letter,xFZpjzr3SEMZfhFMn4wOva7CB1k1,html-keyboard-response,177,1713852,0.0-46.0-6.0-0.0-1.0-1.0,,,,,,,,,,,,,,,5f19a735255c76000b023d92,10:31:08,03/04/2024
1463.0,,,ospan,symmetry,xFZpjzr3SEMZfhFMn4wOva7CB1k1,symmetry-judgement-task,178,1717174,0.0-46.0-6.0-0.0-1.0-2.0,,,,,,,,,,1.0,1.0,,,,5f19a735255c76000b023d92,10:31:08,03/04/2024
,"<div style=""font-size: 10rem; color: #0000FF"">Y</div>",,ospan,letter,xFZpjzr3SEMZfhFMn4wOva7CB1k1,html-keyboard-response,179,1718188,0.0-46.0-6.0-0.0-1.0-3.0,,,,,,,,,,,,,,,5f19a735255c76000b023d92,10:31:08,03/04/2024
1211.0,,,ospan,symmetry,xFZpjzr3SEMZfhFMn4wOva7CB1k1,symmetry-judgement-task,180,1721247,0.0-46.0-6.0-0.0-1.0-4.0,,,,,,,,,,1.0,1.0,,,,5f19a735255c76000b023d92,10:31:08,03/04/2024
,"<div style=""font-size: 10rem; color: #0000FF"">H</div>",,ospan,letter,xFZpjzr3SEMZfhFMn4wOva7CB1k1,html-keyboard-response,181,1722260,0.0-46.0-6.0-0.0-1.0-5.0,,,,,,,,,,,,,,,5f19a735255c76000b023d92,10:31:08,03/04/2024
1252.0,,,ospan,symmetry,xFZpjzr3SEMZfhFMn4wOva7CB1k1,symmetry-judgement-task,182,1725356,0.0-46.0-6.0-0.0-1.0-6.0,,,,,,,,,,1.0,1.0,,,,5f19a735255c76000b023d92,10:31:08,03/04/2024
,"<div style=""font-size: 10rem; color: #0000FF"">K</div>",,ospan,letter,xFZpjzr3SEMZfhFMn4wOva7CB1k1,html-keyboard-response,183,1726372,0.0-46.0-6.0-0.0-1.0-7.0,,,,,,,,,,,,,,,5f19a735255c76000b023d92,10:31:08,03/04/2024
1172.0,,,ospan,symmetry,xFZpjzr3SEMZfhFMn4wOva7CB1k1,symmetry-judgement-task,184,1729399,0.0-46.0-6.0-0.0-1.0-8.0,,,,,,,,,,1.0,1.0,,,,5f19a735255c76000b023d92,10:31:08,03/04/2024
,"<div style=""font-size: 10rem; color: #0000FF"">G</div>",,ospan,letter,xFZpjzr3SEMZfhFMn4wOva7CB1k1,html-keyboard-response,185,1730409,0.0-46.0-6.0-0.0-1.0-9.0,,,,,,,,,,,,,,,5f19a735255c76000b023d92,10:31:08,03/04/2024
22348.0,"<div class = numbox><p style=""font-size: 2.4rem"">Please recall the letters you saw to the best of your ability. If you do not remember a particular letter, use the SKIP button.<br><b>(When you are ready to lock in your answer, press ENTER)</b></p><button id = button_1 class = ""square num-button"" onclick = ""recordClick(this)""><div class = content><div class = numbers>C</div></div></button><button id = button_2 class = ""square num-button"" onclick = ""recordClick(this)""><div class = content><div class = numbers>G</div></div></button><button id = button_3 class = ""square num-button"" onclick = ""recordClick(this)""><div class = content><div class = numbers>H</div></div></button><button id = button_4 class = ""square num-button"" onclick = ""recordClick(this)""><div class = content><div class = numbers>J</div></div></button><button id = button_5 class = ""square num-button"" onclick = ""recordClick(this)""><div class = content><div class = numbers>K</div></div></button><button id = button_6 class = ""square num-button"" onclick = ""recordClick(this)""><div class = content><div class = numbers>L</div></div></button><button id = button_7 class = ""square num-button"" onclick = ""recordClick(this)""><div class = content><div class = numbers>N</div></div></button><button id = button_8 class = ""square num-button"" onclick = ""recordClick(this)""><div class = content><div class = numbers>P</div></div></button><button id = button_9 class = ""square num-button"" onclick = ""recordClick(this)""><div class = content><div class = numbers>Q</div></div></button><button id = button_10 class = ""square num-button"" onclick = ""recordClick(this)""><div class = content><div class = numbers>R</div></div></button><button id = button_11 class = ""square num-button"" onclick = ""recordClick(this)""><div class = content><div class = numbers>S</div></div></button><button id = button_12 class = ""square num-button"" onclick = ""recordClick(this)""><div class = content><div class = numbers>Y</div></div></button><button class = clear_button id = ""ClearButton"" onclick = ""clearResponse()"">BACKSPACE</button><button class = blank_button id = ""BlankButton"" onclick = ""blankResponse()"">SKIP</button><p style=""font-size: 2.4rem""><u><b>Current Answer:</b></u></p><br><br><div id=echoed_txt style=""font-size: 5rem; color:blue;""><b></b></div></div>",enter,ospan,retrieval,xFZpjzr3SEMZfhFMn4wOva7CB1k1,html-keyboard-response,186,1753510,0.0-46.0-6.0-0.0-2.0,33,29,21,5.0,"[""Q"",""Y"",""H"",""J"",""G""]","[""Q"",""Y"",""H"",""K"",""G""]",0.0,4.0,,,,,,,5f19a735255c76000b023d92,10:31:08,03/04/2024
1611.0,[''],0,ospan,feedback,xFZpjzr3SEMZfhFMn4wOva7CB1k1,html-button-response,187,1755637,0.0-46.0-6.0-0.0-3.0,,,,,,,,,,,,100.0,0.0,,5f19a735255c76000b023d92,10:31:08,03/04/2024
,"<p style=""font-size:75px;"">...</p>",,ospan,iti,xFZpjzr3SEMZfhFMn4wOva7CB1k1,html-keyboard-response,188,1756648,0.0-46.0-6.0-1.0-0.0,,,,,,,,,,,,,,,5f19a735255c76000b023d92,10:31:08,03/04/2024
1663.0,,,ospan,symmetry,xFZpjzr3SEMZfhFMn4wOva7CB1k1,symmetry-judgement-task,189,1759464,0.0-46.0-6.0-1.0-1.0-0.0,,,,,,,,,,1.0,1.0,,,,5f19a735255c76000b023d92,10:31:08,03/04/2024
,"<div style=""font-size: 10rem; color: #0000FF"">J</div>",,ospan,letter,xFZpjzr3SEMZfhFMn4wOva7CB1k1,html-keyboard-response,190,1760473,0.0-46.0-6.0-1.0-1.0-1.0,,,,,,,,,,,,,,,5f19a735255c76000b023d92,10:31:08,03/04/2024
1138.0,,,ospan,symmetry,xFZpjzr3SEMZfhFMn4wOva7CB1k1,symmetry-judgement-task,191,1763463,0.0-46.0-6.0-1.0-1.0-2.0,,,,,,,,,,1.0,1.0,,,,5f19a735255c76000b023d92,10:31:08,03/04/2024
,"<div style=""font-size: 10rem; color: #0000FF"">N</div>",,ospan,letter,xFZpjzr3SEMZfhFMn4wOva7CB1k1,html-keyboard-response,192,1764472,0.0-46.0-6.0-1.0-1.0-3.0,,,,,,,,,,,,,,,5f19a735255c76000b023d92,10:31:08,03/04/2024
1040.0,,,ospan,symmetry,xFZpjzr3SEMZfhFMn4wOva7CB1k1,symmetry-judgement-task,193,1767355,0.0-46.0-6.0-1.0-1.0-4.0,,,,,,,,,,1.0,1.0,,,,5f19a735255c76000b023d92,10:31:08,03/04/2024
,"<div style=""font-size: 10rem; color: #0000FF"">Q</div>",,ospan,letter,xFZpjzr3SEMZfhFMn4wOva7CB1k1,html-keyboard-response,194,1768365,0.0-46.0-6.0-1.0-1.0-5.0,,,,,,,,,,,,,,,5f19a735255c76000b023d92,10:31:08,03/04/2024
1376.0,,,ospan,symmetry,xFZpjzr3SEMZfhFMn4wOva7CB1k1,symmetry-judgement-task,195,1771594,0.0-46.0-6.0-1.0-1.0-6.0,,,,,,,,,,1.0,1.0,,,,5f19a735255c76000b023d92,10:31:08,03/04/2024
,"<div style=""font-size: 10rem; color: #0000FF"">H</div>",,ospan,letter,xFZpjzr3SEMZfhFMn4wOva7CB1k1,html-keyboard-response,196,1772617,0.0-46.0-6.0-1.0-1.0-7.0,,,,,,,,,,,,,,,5f19a735255c76000b023d92,10:31:08,03/04/2024
1680.0,,,ospan,symmetry,xFZpjzr3SEMZfhFMn4wOva7CB1k1,symmetry-judgement-task,197,1776151,0.0-46.0-6.0-1.0-1.0-8.0,,,,,,,,,,1.0,1.0,,,,5f19a735255c76000b023d92,10:31:08,03/04/2024
,"<div style=""font-size: 10rem; color: #0000FF"">P</div>",,ospan,letter,xFZpjzr3SEMZfhFMn4wOva7CB1k1,html-keyboard-response,198,1777165,0.0-46.0-6.0-1.0-1.0-9.0,,,,,,,,,,,,,,,5f19a735255c76000b023d92,10:31:08,03/04/2024
1390.0,,,ospan,symmetry,xFZpjzr3SEMZfhFMn4wOva7CB1k1,symmetry-judgement-task,199,1780397,0.0-46.0-6.0-1.0-1.0-10.0,,,,,,,,,,1.0,1.0,,,,5f19a735255c76000b023d92,10:31:08,03/04/2024
,"<div style=""font-size: 10rem; color: #0000FF"">K</div>",,ospan,letter,xFZpjzr3SEMZfhFMn4wOva7CB1k1,html-keyboard-response,200,1781406,0.0-46.0-6.0-1.0-1.0-11.0,,,,,,,,,,,,,,,5f19a735255c76000b023d92,10:31:08,03/04/2024
1490.0,,,ospan,symmetry,xFZpjzr3SEMZfhFMn4wOva7CB1k1,symmetry-judgement-task,201,1784738,0.0-46.0-6.0-1.0-1.0-12.0,,,,,,,,,,1.0,1.0,,,,5f19a735255c76000b023d92,10:31:08,03/04/2024
,"<div style=""font-size: 10rem; color: #0000FF"">S</div>",,ospan,letter,xFZpjzr3SEMZfhFMn4wOva7CB1k1,html-keyboard-response,202,1785745,0.0-46.0-6.0-1.0-1.0-13.0,,,,,,,,,,,,,,,5f19a735255c76000b023d92,10:31:08,03/04/2024
1843.0,,,ospan,symmetry,xFZpjzr3SEMZfhFMn4wOva7CB1k1,symmetry-judgement-task,203,1789444,0.0-46.0-6.0-1.0-1.0-14.0,,,,,,,,,,1.0,1.0,,,,5f19a735255c76000b023d92,10:31:08,03/04/2024
,"<div style=""font-size: 10rem; color: #0000FF"">Y</div>",,ospan,letter,xFZpjzr3SEMZfhFMn4wOva7CB1k1,html-keyboard-response,204,1790454,0.0-46.0-6.0-1.0-1.0-15.0,,,,,,,,,,,,,,,5f19a735255c76000b023d92,10:31:08,03/04/2024
10501.0,"<div class = numbox><p style=""font-size: 2.4rem"">Please recall the letters you saw to the best of your ability. If you do not remember a particular letter, use the SKIP button.<br><b>(When you are ready to lock in your answer, press ENTER)</b></p><button id = button_1 class = ""square num-button"" onclick = ""recordClick(this)""><div class = content><div class = numbers>C</div></div></button><button id = button_2 class = ""square num-button"" onclick = ""recordClick(this)""><div class = content><div class = numbers>G</div></div></button><button id = button_3 class = ""square num-button"" onclick = ""recordClick(this)""><div class = content><div class = numbers>H</div></div></button><button id = button_4 class = ""square num-button"" onclick = ""recordClick(this)""><div class = content><div class = numbers>J</div></div></button><button id = button_5 class = ""square num-button"" onclick = ""recordClick(this)""><div class = content><div class = numbers>K</div></div></button><button id = button_6 class = ""square num-button"" onclick = ""recordClick(this)""><div class = content><div class = numbers>L</div></div></button><button id = button_7 class = ""square num-button"" onclick = ""recordClick(this)""><div class = content><div class = numbers>N</div></div></button><button id = button_8 class = ""square num-button"" onclick = ""recordClick(this)""><div class = content><div class = numbers>P</div></div></button><button id = button_9 class = ""square num-button"" onclick = ""recordClick(this)""><div class = content><div class = numbers>Q</div></div></button><button id = button_10 class = ""square num-button"" onclick = ""recordClick(this)""><div class = content><div class = numbers>R</div></div></button><button id = button_11 class = ""square num-button"" onclick = ""recordClick(this)""><div class = content><div class = numbers>S</div></div></button><button id = button_12 class = ""square num-button"" onclick = ""recordClick(this)""><div class = content><div class = numbers>Y</div></div></button><button class = clear_button id = ""ClearButton"" onclick = ""clearResponse()"">BACKSPACE</button><button class = blank_button id = ""BlankButton"" onclick = ""blankResponse()"">SKIP</button><p style=""font-size: 2.4rem""><u><b>Current Answer:</b></u></p><br><br><div id=echoed_txt style=""font-size: 5rem; color:blue;""><b></b></div></div>",enter,ospan,retrieval,xFZpjzr3SEMZfhFMn4wOva7CB1k1,html-keyboard-response,205,1801708,0.0-46.0-6.0-1.0-2.0,41,37,29,8.0,"[""J"",""N"",""Q"",""H"",""P"",""K"",""S"",""Y""]","[""J"",""N"",""Q"",""H"",""P"",""K"",""S"",""Y""]",1.0,8.0,,,,,,,5f19a735255c76000b023d92,10:31:08,03/04/2024
1045.0,[''],0,ospan,feedback,xFZpjzr3SEMZfhFMn4wOva7CB1k1,html-button-response,206,1803260,0.0-46.0-6.0-1.0-3.0,,,,,,,,,,,,100.0,0.0,,5f19a735255c76000b023d92,10:31:08,03/04/2024
63697.0,,{'Q0': 'I ran into no issues during this task.'},ospan,survey_ospan,xFZpjzr3SEMZfhFMn4wOva7CB1k1,lmdlab-survey-text,207,1867718,0.0-46.0-7.0,,,,,,,,,,,,,,xFZpjzr3SEMZfhFMn4wOva7CB1k1,5f19a735255c76000b023d92,10:31:08,03/04/2024
2366.0,<p><p style='font-size: 3rem'>Great work!<br><br>This completes the symmetry and memory task.</p><br><br><br>,0,ospan,finish,xFZpjzr3SEMZfhFMn4wOva7CB1k1,html-button-response,208,1870089,0.0-46.0-8.0,41,37,29,,,,,,,,,100.0,,,5f19a735255c76000b023d92,10:31:08,03/04/2024
