rt,stimulus,response,exp_name,exp_stage,subjectID,trial_type,trial_index,time_elapsed,internal_node_id,ospan_shown,ospan_total,ospan_abs,length,resp_actual,resp_correct,full_correct,num_correct,feedback,accuracy,correct,math_acc,math_warning,databaseID,prolificID,start_time,date
1605.6000000005588,<div class = 'left_align' style='font-size: 3.25rem; line-height: 1.3;'><p class = 'center_align'><b>Welcome to the Symmetry and Memory Task</b><br><br><br><br></p>Press 'continue' to show the instructions.<br><br><br><br></div>,0,ospan,instruct,tn872G41KnaPSwTy242qvEWCHd12,html-button-response,51,573337,0.0-43.0-0.0-0.0-0.0,,,,,,,,,,,,,,,63d96ff56b577f6ac10e5f6c,14:14:56,06/03/2024
7029.0,"<div class = 'left_align' style='font-size: 3.25rem; line-height: 1.3;'><p class = 'center_align'><b>Symmetry and Memory Task</b><br><br></p>In this task, you will try to memorize letters you see on the screen<br>while you also view black and white grid pictures.<br><br>In the next few minutes, you will have some practice to get you familiar<br>with how the task works.<br><br>It may be difficult sometimes, but please do not worry about making mistakes!<br><br>We will begin by practicing the letter part of the task.<br><br><br><br></div>",0,ospan,instruct,tn872G41KnaPSwTy242qvEWCHd12,html-button-response,52,580621,0.0-43.0-0.0-0.0-1.0,,,,,,,,,,,,,,,63d96ff56b577f6ac10e5f6c,14:14:56,06/03/2024
50842.0,"<div class = 'left_align' style='font-size: 3.25rem; line-height: 1.3;'>For this practice part, letters will appear on the screen one at a time.<br><br>Try to remember each letter in the order presented.<br><br>After some letters have been shown, you will see a response screen. Your<br>goal is to report the letters you saw <b>in order</b>. If you do not remember<br>a particular letter, you will have the option to leave it blank.<br><br><br><br></div>",0,ospan,instruct,tn872G41KnaPSwTy242qvEWCHd12,html-button-response,53,631718,0.0-43.0-0.0-0.0-2.0,,,,,,,,,,,,,,,63d96ff56b577f6ac10e5f6c,14:14:56,06/03/2024
9448.400000000373,"<div class = 'left_align' style='font-size: 3.25rem; line-height: 1.3;'>Remember, it is very important to get the letters in the same<br>order as you see them.<br><br>When you are ready, you may begin the letter practice.</div><br><br><br><br>",0,ospan,instruct,tn872G41KnaPSwTy242qvEWCHd12,html-button-response,54,641430,0.0-43.0-0.0-0.0-3.0,,,,,,,,,,,,,,,63d96ff56b577f6ac10e5f6c,14:14:56,06/03/2024
,"<p style=""font-size:75px;"">...</p>",,ospan,iti,tn872G41KnaPSwTy242qvEWCHd12,html-keyboard-response,55,642698,0.0-43.0-0.0-1.0-0.0,,,,,,,,,,,,,,,63d96ff56b577f6ac10e5f6c,14:14:56,06/03/2024
,"<div style=""font-size: 10rem; color: #0000FF"">C</div>",,ospan,letter,tn872G41KnaPSwTy242qvEWCHd12,html-keyboard-response,56,643708,0.0-43.0-0.0-1.0-1.0,,,,,,,,,,,,,,,63d96ff56b577f6ac10e5f6c,14:14:56,06/03/2024
,"<div style=""font-size: 10rem; color: #0000FF"">R</div>",,ospan,letter,tn872G41KnaPSwTy242qvEWCHd12,html-keyboard-response,57,645472,0.0-43.0-0.0-1.0-2.0,,,,,,,,,,,,,,,63d96ff56b577f6ac10e5f6c,14:14:56,06/03/2024
14476.0,"<div class = numbox><p style=""font-size: 2.4rem"">Please recall the letters you saw to the best of your ability. If you do not remember a particular letter, use the SKIP button.<br><b>(When you are ready to lock in your answer, press ENTER)</b></p><button id = button_1 class = ""square num-button"" onclick = ""recordClick(this)""><div class = content><div class = numbers>C</div></div></button><button id = button_2 class = ""square num-button"" onclick = ""recordClick(this)""><div class = content><div class = numbers>G</div></div></button><button id = button_3 class = ""square num-button"" onclick = ""recordClick(this)""><div class = content><div class = numbers>H</div></div></button><button id = button_4 class = ""square num-button"" onclick = ""recordClick(this)""><div class = content><div class = numbers>J</div></div></button><button id = button_5 class = ""square num-button"" onclick = ""recordClick(this)""><div class = content><div class = numbers>K</div></div></button><button id = button_6 class = ""square num-button"" onclick = ""recordClick(this)""><div class = content><div class = numbers>L</div></div></button><button id = button_7 class = ""square num-button"" onclick = ""recordClick(this)""><div class = content><div class = numbers>N</div></div></button><button id = button_8 class = ""square num-button"" onclick = ""recordClick(this)""><div class = content><div class = numbers>P</div></div></button><button id = button_9 class = ""square num-button"" onclick = ""recordClick(this)""><div class = content><div class = numbers>Q</div></div></button><button id = button_10 class = ""square num-button"" onclick = ""recordClick(this)""><div class = content><div class = numbers>R</div></div></button><button id = button_11 class = ""square num-button"" onclick = ""recordClick(this)""><div class = content><div class = numbers>S</div></div></button><button id = button_12 class = ""square num-button"" onclick = ""recordClick(this)""><div class = content><div class = numbers>Y</div></div></button><button class = clear_button id = ""ClearButton"" onclick = ""clearResponse()"">BACKSPACE</button><button class = blank_button id = ""BlankButton"" onclick = ""blankResponse()"">SKIP</button><p style=""font-size: 2.4rem""><u><b>Current Answer:</b></u></p><br><br><div id=echoed_txt style=""font-size: 5rem; color:blue;""><b></b></div></div>",enter,ospan,retrieval,tn872G41KnaPSwTy242qvEWCHd12,html-keyboard-response,58,660712,0.0-43.0-0.0-1.0-3.0,NA,NA,NA,2.0,"[""R"",""R"",""R"",""R""]","[""C"",""R""]",0.0,1.0,"['<font color=""red"">C</font>', '<font color=""green"">R</font>']",,,,,,63d96ff56b577f6ac10e5f6c,14:14:56,06/03/2024
3998.7999999998137,"['<p style=""font-size:44px"">Letters:<br><br><br><font color=""red"">C</font> <font color=""green"">R</font></p><br><br>']",0,ospan,practice_feedback,tn872G41KnaPSwTy242qvEWCHd12,html-button-response,59,665230,0.0-43.0-0.0-1.0-4.0,,,,,,,,,,,,,,,63d96ff56b577f6ac10e5f6c,14:14:56,06/03/2024
,"<p style=""font-size:75px;"">...</p>",,ospan,iti,tn872G41KnaPSwTy242qvEWCHd12,html-keyboard-response,60,666248,0.0-43.0-0.0-2.0-0.0,,,,,,,,,,,,,,,63d96ff56b577f6ac10e5f6c,14:14:56,06/03/2024
,"<div style=""font-size: 10rem; color: #0000FF"">Q</div>",,ospan,letter,tn872G41KnaPSwTy242qvEWCHd12,html-keyboard-response,61,667257,0.0-43.0-0.0-2.0-1.0,,,,,,,,,,,,,,,63d96ff56b577f6ac10e5f6c,14:14:56,06/03/2024
,"<div style=""font-size: 10rem; color: #0000FF"">H</div>",,ospan,letter,tn872G41KnaPSwTy242qvEWCHd12,html-keyboard-response,62,669026,0.0-43.0-0.0-2.0-2.0,,,,,,,,,,,,,,,63d96ff56b577f6ac10e5f6c,14:14:56,06/03/2024
,"<div style=""font-size: 10rem; color: #0000FF"">C</div>",,ospan,letter,tn872G41KnaPSwTy242qvEWCHd12,html-keyboard-response,63,670793,0.0-43.0-0.0-2.0-3.0,,,,,,,,,,,,,,,63d96ff56b577f6ac10e5f6c,14:14:56,06/03/2024
15134.0,"<div class = numbox><p style=""font-size: 2.4rem"">Please recall the letters you saw to the best of your ability. If you do not remember a particular letter, use the SKIP button.<br><b>(When you are ready to lock in your answer, press ENTER)</b></p><button id = button_1 class = ""square num-button"" onclick = ""recordClick(this)""><div class = content><div class = numbers>C</div></div></button><button id = button_2 class = ""square num-button"" onclick = ""recordClick(this)""><div class = content><div class = numbers>G</div></div></button><button id = button_3 class = ""square num-button"" onclick = ""recordClick(this)""><div class = content><div class = numbers>H</div></div></button><button id = button_4 class = ""square num-button"" onclick = ""recordClick(this)""><div class = content><div class = numbers>J</div></div></button><button id = button_5 class = ""square num-button"" onclick = ""recordClick(this)""><div class = content><div class = numbers>K</div></div></button><button id = button_6 class = ""square num-button"" onclick = ""recordClick(this)""><div class = content><div class = numbers>L</div></div></button><button id = button_7 class = ""square num-button"" onclick = ""recordClick(this)""><div class = content><div class = numbers>N</div></div></button><button id = button_8 class = ""square num-button"" onclick = ""recordClick(this)""><div class = content><div class = numbers>P</div></div></button><button id = button_9 class = ""square num-button"" onclick = ""recordClick(this)""><div class = content><div class = numbers>Q</div></div></button><button id = button_10 class = ""square num-button"" onclick = ""recordClick(this)""><div class = content><div class = numbers>R</div></div></button><button id = button_11 class = ""square num-button"" onclick = ""recordClick(this)""><div class = content><div class = numbers>S</div></div></button><button id = button_12 class = ""square num-button"" onclick = ""recordClick(this)""><div class = content><div class = numbers>Y</div></div></button><button class = clear_button id = ""ClearButton"" onclick = ""clearResponse()"">BACKSPACE</button><button class = blank_button id = ""BlankButton"" onclick = ""blankResponse()"">SKIP</button><p style=""font-size: 2.4rem""><u><b>Current Answer:</b></u></p><br><br><div id=echoed_txt style=""font-size: 5rem; color:blue;""><b></b></div></div>",enter,ospan,retrieval,tn872G41KnaPSwTy242qvEWCHd12,html-keyboard-response,64,686694,0.0-43.0-0.0-2.0-4.0,NA,NA,NA,3.0,"[""Q"",""H"",""C"",""Q"",""H"",""C""]","[""Q"",""H"",""C""]",1.0,3.0,"['<font color=""green"">Q</font>', '<font color=""green"">H</font>', '<font color=""green"">C</font>']",,,,,,63d96ff56b577f6ac10e5f6c,14:14:56,06/03/2024
1332.3999999994412,"['<p style=""font-size:44px"">Letters:<br><br><br><font color=""green"">Q</font> <font color=""green"">H</font> <font color=""green"">C</font></p><br><br>']",0,ospan,practice_feedback,tn872G41KnaPSwTy242qvEWCHd12,html-button-response,65,688533,0.0-43.0-0.0-2.0-5.0,,,,,,,,,,,,,,,63d96ff56b577f6ac10e5f6c,14:14:56,06/03/2024
56377.200000000186,"<div class = 'left_align' style='font-size: 3.25rem; line-height: 1.3;'>Now you will practice doing the <b>symmetry judgment part</b> of the experiment.<br><br>A black and white grid picture will appear on the screen and you have to judge if it is <br>symmetrical or asymetrical.<br><br>A picture is 'mirror' symmetrical if its left half is identical to the right half when flipped.<br>Here are examples of a symmetrical and an asymetrical picture:<br><br><center><img src='Stimuli/img/symm_instructions_extra.png' style='height:420px; width:900'></img></center><br>To judge symmetry, imagine you were to fold each picture down the middle, like a book –<br>would the left half match the right half when folded onto each other?<br><br></div><br>",0,ospan,instruct,tn872G41KnaPSwTy242qvEWCHd12,html-button-response,66,744914,0.0-43.0-1.0-0.0-0.0,,,,,,,,,,,,,,,63d96ff56b577f6ac10e5f6c,14:14:56,06/03/2024
46939.200000000186,"<div class = 'left_align' style='font-size: 3.25rem; line-height: 1.3;'>When you have viewed the picture and determined whether it is symmetrical or not,<br>you can <b>click the Yes or No button</b> below to answer.<br><br>If you take longer than 15 seconds, it will continue automatically<br>and record the answer as an error.</div><br>",0,ospan,instruct,tn872G41KnaPSwTy242qvEWCHd12,html-button-response,67,792114,0.0-43.0-1.0-0.0-1.0,,,,,,,,,,,,,,,63d96ff56b577f6ac10e5f6c,14:14:56,06/03/2024
6303.600000000559,"<div class = 'left_align' style='font-size: 3.25rem; line-height: 1.3;'>It is <b>very</b> important that you make the symmetry judgment correctly.<br><br>It is also important that you try and judge the picture as quickly as you can.<br><br>When you are ready, click on the button below to try some practice problems.</div><br><br><br><br>",0,ospan,instruct,tn872G41KnaPSwTy242qvEWCHd12,html-button-response,68,798682,0.0-43.0-1.0-0.0-2.0,,,,,,,,,,,,,,,63d96ff56b577f6ac10e5f6c,14:14:56,06/03/2024
4120.0,,,ospan,symmetry,tn872G41KnaPSwTy242qvEWCHd12,symmetry-judgement-task,69,803806,0.0-43.0-1.0-1.0-0.0,,,,,,,,,,1.0,1.0,,,,63d96ff56b577f6ac10e5f6c,14:14:56,06/03/2024
,"<p style=""color:green; font-size: 35px"">Correct</p>",,ospan,feedback,tn872G41KnaPSwTy242qvEWCHd12,html-keyboard-response,70,804570,0.0-43.0-1.0-1.0-1.0,,,,,,,,,,,,,,,63d96ff56b577f6ac10e5f6c,14:14:56,06/03/2024
2159.0,,,ospan,symmetry,tn872G41KnaPSwTy242qvEWCHd12,symmetry-judgement-task,71,810916,0.0-43.0-1.0-1.0-2.0,,,,,,,,,,1.0,1.0,,,,63d96ff56b577f6ac10e5f6c,14:14:56,06/03/2024
,"<p style=""color:green; font-size: 35px"">Correct</p>",,ospan,feedback,tn872G41KnaPSwTy242qvEWCHd12,html-keyboard-response,72,811679,0.0-43.0-1.0-1.0-3.0,,,,,,,,,,,,,,,63d96ff56b577f6ac10e5f6c,14:14:56,06/03/2024
1861.0,,,ospan,symmetry,tn872G41KnaPSwTy242qvEWCHd12,symmetry-judgement-task,73,817582,0.0-43.0-1.0-1.0-4.0,,,,,,,,,,1.0,1.0,,,,63d96ff56b577f6ac10e5f6c,14:14:56,06/03/2024
,"<p style=""color:green; font-size: 35px"">Correct</p>",,ospan,feedback,tn872G41KnaPSwTy242qvEWCHd12,html-keyboard-response,74,818338,0.0-43.0-1.0-1.0-5.0,,,,,,,,,,,,,,,63d96ff56b577f6ac10e5f6c,14:14:56,06/03/2024
3881.9000000003725,"<p style=""font-size: 3rem;"">You responded correctly on 3 of 3 symmetry judgments. Good job!</p><br><br>",0,ospan,practice,tn872G41KnaPSwTy242qvEWCHd12,html-button-response,75,824225,0.0-43.0-1.0-2.0,,,,,,,,,,,,,,,63d96ff56b577f6ac10e5f6c,14:14:56,06/03/2024
16438.799999999814,"<div class = 'left_align' style='font-size: 3.25rem; line-height: 1.3;'>Now you will practice doing both parts of the experiment at the same time.<br><br>In the next practice set, you will be given one grid picture to judge.<br>Then letter will appear on the screen. Try to remember the letter.<br><br>It is <b>very important</b> to make the symmetry judgment as quickly and accurately as possible.<br><br>Just as before, once you have make the symmetry judgment, you can click Yes or No.<br><b>Note that you will no longer see Correct or Incorrect feedback.</div><br><br><br><br>",0,ospan,instruct,tn872G41KnaPSwTy242qvEWCHd12,html-button-response,76,840928,0.0-43.0-2.0-0.0-0.0,,,,,,,,,,,,,,,63d96ff56b577f6ac10e5f6c,14:14:56,06/03/2024
4096.799999999814,"<div class = 'left_align' style='font-size: 3.25rem; line-height: 1.3;'>After the letter goes away, another grid picture will appear, and then<br>another letter.<br><br>At the end of each set of letters and grids, you will recall the letters to the best<br>of your ability. Remember, try your best to get the letters in the correct order.<br><br>It is important to <b>quickly</b> and <b>accurately</b> make the symmetry judgments.</div><br><br><br><br>",0,ospan,instruct,tn872G41KnaPSwTy242qvEWCHd12,html-button-response,77,845288,0.0-43.0-2.0-0.0-1.0,,,,,,,,,,,,,,,63d96ff56b577f6ac10e5f6c,14:14:56,06/03/2024
7181.700000000186,"<div class = 'left_align' style='font-size: 3.25rem; line-height: 1.3;'>On the feedback screen, if you are not doing well at the symmetry judgments,<br>you will also see a warning in the middle. This indicates your percent <br>correct for the grid pictures for the entire experiment.<br><br>It is <b>very</b> important for you to keep accuracy at least at 85%: <u>We can only use<br>data where the participant was at least 85% accurate on the judgments.</u> Therefore,<br> please try your best to perform well on the symmetry judgments, <b>at the same time</b><br>doing your best to recall as many letters as possible.<br><br>Click the button to try some practice problems.</div><br><br><br><br>",0,ospan,instruct,tn872G41KnaPSwTy242qvEWCHd12,html-button-response,78,852732,0.0-43.0-2.0-0.0-2.0,,,,,,,,,,,,,,,63d96ff56b577f6ac10e5f6c,14:14:56,06/03/2024
,"<p style=""font-size:75px;"">...</p>",,ospan,iti,tn872G41KnaPSwTy242qvEWCHd12,html-keyboard-response,79,853993,0.0-43.0-2.0-1.0-0.0,,,,,,,,,,,,,,,63d96ff56b577f6ac10e5f6c,14:14:56,06/03/2024
3276.0,,,ospan,symmetry,tn872G41KnaPSwTy242qvEWCHd12,symmetry-judgement-task,80,859788,0.0-43.0-2.0-1.0-1.0-0.0,,,,,,,,,,1.0,1.0,,,,63d96ff56b577f6ac10e5f6c,14:14:56,06/03/2024
,"<div style=""font-size: 10rem; color: #0000FF"">Y</div>",,ospan,letter,tn872G41KnaPSwTy242qvEWCHd12,html-keyboard-response,81,860794,0.0-43.0-2.0-1.0-1.0-1.0,,,,,,,,,,,,,,,63d96ff56b577f6ac10e5f6c,14:14:56,06/03/2024
2178.0,,,ospan,symmetry,tn872G41KnaPSwTy242qvEWCHd12,symmetry-judgement-task,82,866026,0.0-43.0-2.0-1.0-1.0-2.0,,,,,,,,,,1.0,1.0,,,,63d96ff56b577f6ac10e5f6c,14:14:56,06/03/2024
,"<div style=""font-size: 10rem; color: #0000FF"">R</div>",,ospan,letter,tn872G41KnaPSwTy242qvEWCHd12,html-keyboard-response,83,867033,0.0-43.0-2.0-1.0-1.0-3.0,,,,,,,,,,,,,,,63d96ff56b577f6ac10e5f6c,14:14:56,06/03/2024
2642.0,,,ospan,symmetry,tn872G41KnaPSwTy242qvEWCHd12,symmetry-judgement-task,84,872689,0.0-43.0-2.0-1.0-1.0-4.0,,,,,,,,,,1.0,1.0,,,,63d96ff56b577f6ac10e5f6c,14:14:56,06/03/2024
,"<div style=""font-size: 10rem; color: #0000FF"">J</div>",,ospan,letter,tn872G41KnaPSwTy242qvEWCHd12,html-keyboard-response,85,873694,0.0-43.0-2.0-1.0-1.0-5.0,,,,,,,,,,,,,,,63d96ff56b577f6ac10e5f6c,14:14:56,06/03/2024
4666.5,"<div class = numbox><p style=""font-size: 2.4rem"">Please recall the letters you saw to the best of your ability. If you do not remember a particular letter, use the SKIP button.<br><b>(When you are ready to lock in your answer, press ENTER)</b></p><button id = button_1 class = ""square num-button"" onclick = ""recordClick(this)""><div class = content><div class = numbers>C</div></div></button><button id = button_2 class = ""square num-button"" onclick = ""recordClick(this)""><div class = content><div class = numbers>G</div></div></button><button id = button_3 class = ""square num-button"" onclick = ""recordClick(this)""><div class = content><div class = numbers>H</div></div></button><button id = button_4 class = ""square num-button"" onclick = ""recordClick(this)""><div class = content><div class = numbers>J</div></div></button><button id = button_5 class = ""square num-button"" onclick = ""recordClick(this)""><div class = content><div class = numbers>K</div></div></button><button id = button_6 class = ""square num-button"" onclick = ""recordClick(this)""><div class = content><div class = numbers>L</div></div></button><button id = button_7 class = ""square num-button"" onclick = ""recordClick(this)""><div class = content><div class = numbers>N</div></div></button><button id = button_8 class = ""square num-button"" onclick = ""recordClick(this)""><div class = content><div class = numbers>P</div></div></button><button id = button_9 class = ""square num-button"" onclick = ""recordClick(this)""><div class = content><div class = numbers>Q</div></div></button><button id = button_10 class = ""square num-button"" onclick = ""recordClick(this)""><div class = content><div class = numbers>R</div></div></button><button id = button_11 class = ""square num-button"" onclick = ""recordClick(this)""><div class = content><div class = numbers>S</div></div></button><button id = button_12 class = ""square num-button"" onclick = ""recordClick(this)""><div class = content><div class = numbers>Y</div></div></button><button class = clear_button id = ""ClearButton"" onclick = ""clearResponse()"">BACKSPACE</button><button class = blank_button id = ""BlankButton"" onclick = ""blankResponse()"">SKIP</button><p style=""font-size: 2.4rem""><u><b>Current Answer:</b></u></p><br><br><div id=echoed_txt style=""font-size: 5rem; color:blue;""><b></b></div></div>",enter,ospan,retrieval,tn872G41KnaPSwTy242qvEWCHd12,html-keyboard-response,86,879123,0.0-43.0-2.0-1.0-2.0-0.0,NA,NA,NA,3.0,"[""Y"",""R"",""J""]","[""Y"",""R"",""J""]",1.0,3.0,"['<font color=""green"">Y</font>', '<font color=""green"">R</font>', '<font color=""green"">J</font>']",,,,,,63d96ff56b577f6ac10e5f6c,14:14:56,06/03/2024
1989.800000000745,"['<p style=""font-size:44px"">Letters:<br><br><br><font color=""green"">Y</font> <font color=""green"">R</font> <font color=""green"">J</font></p><br><br><p style=""font-size:30px"">Symmetry:<br><br><font color=""green"">100%</font></p><br><br>']",0,ospan,practice_feedback,tn872G41KnaPSwTy242qvEWCHd12,html-button-response,87,881621,0.0-43.0-2.0-1.0-2.0-1.0,,,,,,,,,,,,,,,63d96ff56b577f6ac10e5f6c,14:14:56,06/03/2024
,"<p style=""font-size:75px;"">...</p>",,ospan,iti,tn872G41KnaPSwTy242qvEWCHd12,html-keyboard-response,88,882625,0.0-43.0-2.0-2.0-0.0,,,,,,,,,,,,,,,63d96ff56b577f6ac10e5f6c,14:14:56,06/03/2024
1863.0,,,ospan,symmetry,tn872G41KnaPSwTy242qvEWCHd12,symmetry-judgement-task,89,886710,0.0-43.0-2.0-2.0-1.0-0.0,,,,,,,,,,1.0,1.0,,,,63d96ff56b577f6ac10e5f6c,14:14:56,06/03/2024
,"<div style=""font-size: 10rem; color: #0000FF"">S</div>",,ospan,letter,tn872G41KnaPSwTy242qvEWCHd12,html-keyboard-response,90,887721,0.0-43.0-2.0-2.0-1.0-1.0,,,,,,,,,,,,,,,63d96ff56b577f6ac10e5f6c,14:14:56,06/03/2024
1322.0,,,ospan,symmetry,tn872G41KnaPSwTy242qvEWCHd12,symmetry-judgement-task,91,892226,0.0-43.0-2.0-2.0-1.0-2.0,,,,,,,,,,1.0,1.0,,,,63d96ff56b577f6ac10e5f6c,14:14:56,06/03/2024
,"<div style=""font-size: 10rem; color: #0000FF"">C</div>",,ospan,letter,tn872G41KnaPSwTy242qvEWCHd12,html-keyboard-response,92,893232,0.0-43.0-2.0-2.0-1.0-3.0,,,,,,,,,,,,,,,63d96ff56b577f6ac10e5f6c,14:14:56,06/03/2024
1274.0,,,ospan,symmetry,tn872G41KnaPSwTy242qvEWCHd12,symmetry-judgement-task,93,897500,0.0-43.0-2.0-2.0-1.0-4.0,,,,,,,,,,1.0,1.0,,,,63d96ff56b577f6ac10e5f6c,14:14:56,06/03/2024
,"<div style=""font-size: 10rem; color: #0000FF"">Y</div>",,ospan,letter,tn872G41KnaPSwTy242qvEWCHd12,html-keyboard-response,94,898510,0.0-43.0-2.0-2.0-1.0-5.0,,,,,,,,,,,,,,,63d96ff56b577f6ac10e5f6c,14:14:56,06/03/2024
3645.2000000001863,"<div class = numbox><p style=""font-size: 2.4rem"">Please recall the letters you saw to the best of your ability. If you do not remember a particular letter, use the SKIP button.<br><b>(When you are ready to lock in your answer, press ENTER)</b></p><button id = button_1 class = ""square num-button"" onclick = ""recordClick(this)""><div class = content><div class = numbers>C</div></div></button><button id = button_2 class = ""square num-button"" onclick = ""recordClick(this)""><div class = content><div class = numbers>G</div></div></button><button id = button_3 class = ""square num-button"" onclick = ""recordClick(this)""><div class = content><div class = numbers>H</div></div></button><button id = button_4 class = ""square num-button"" onclick = ""recordClick(this)""><div class = content><div class = numbers>J</div></div></button><button id = button_5 class = ""square num-button"" onclick = ""recordClick(this)""><div class = content><div class = numbers>K</div></div></button><button id = button_6 class = ""square num-button"" onclick = ""recordClick(this)""><div class = content><div class = numbers>L</div></div></button><button id = button_7 class = ""square num-button"" onclick = ""recordClick(this)""><div class = content><div class = numbers>N</div></div></button><button id = button_8 class = ""square num-button"" onclick = ""recordClick(this)""><div class = content><div class = numbers>P</div></div></button><button id = button_9 class = ""square num-button"" onclick = ""recordClick(this)""><div class = content><div class = numbers>Q</div></div></button><button id = button_10 class = ""square num-button"" onclick = ""recordClick(this)""><div class = content><div class = numbers>R</div></div></button><button id = button_11 class = ""square num-button"" onclick = ""recordClick(this)""><div class = content><div class = numbers>S</div></div></button><button id = button_12 class = ""square num-button"" onclick = ""recordClick(this)""><div class = content><div class = numbers>Y</div></div></button><button class = clear_button id = ""ClearButton"" onclick = ""clearResponse()"">BACKSPACE</button><button class = blank_button id = ""BlankButton"" onclick = ""blankResponse()"">SKIP</button><p style=""font-size: 2.4rem""><u><b>Current Answer:</b></u></p><br><br><div id=echoed_txt style=""font-size: 5rem; color:blue;""><b></b></div></div>",enter,ospan,retrieval,tn872G41KnaPSwTy242qvEWCHd12,html-keyboard-response,95,902920,0.0-43.0-2.0-2.0-2.0-0.0,NA,NA,NA,3.0,"[""S"",""C"",""Y""]","[""S"",""C"",""Y""]",1.0,3.0,"['<font color=""green"">S</font>', '<font color=""green"">C</font>', '<font color=""green"">Y</font>']",,,,,,63d96ff56b577f6ac10e5f6c,14:14:56,06/03/2024
1082.7999999998137,"['<p style=""font-size:44px"">Letters:<br><br><br><font color=""green"">S</font> <font color=""green"">C</font> <font color=""green"">Y</font></p><br><br><p style=""font-size:30px"">Symmetry:<br><br><font color=""green"">100%</font></p><br><br>']",0,ospan,practice_feedback,tn872G41KnaPSwTy242qvEWCHd12,html-button-response,96,904515,0.0-43.0-2.0-2.0-2.0-1.0,,,,,,,,,,,,,,,63d96ff56b577f6ac10e5f6c,14:14:56,06/03/2024
10996.600000000559,"<div class = 'left_align' style='font-size: 3rem; line-height: 1.3;'><b>Great work! That is the end of practice.</b><br><br>The real trials will look just like the practice trials you just completed.<br><br><u>Here, you will not see feedback</u>. First, you will see an grid picture to judge,<br>then a letter to remember. When the recall screen appears, report the letters in the<br>order presented. If you forget a letter, remember to use the <b>blank</b> button to move to the<br>next letter. Some of the sets will have more symmetry grids and letters than others.<br><br>It is important that you do your best on both the symmetry judgments and the letter recall<br>parts of the experiment. For for the symmetry judgments, try to work as <b>quickly</b> and <br>as <b>accurately</b> as possible. Remember to keep your symmetry accuracy at 85% or above.<br><br><b>For the letters, do NOT use any external aid (e.g., writing on paper, electronic device).</b><br><br>It is <u>very important</u> to our experiment to have a <b>true</b> view of your real performance.<br><br>Do not worry if you miss some when it gets hard! This task is meant to be very challenging!<br><br>Click the button to begin.</div><br><br><br><br>",0,ospan,starting_real_here,tn872G41KnaPSwTy242qvEWCHd12,html-button-response,97,915517,0.0-43.0-2.0-3.0,,,,,,,,,,,,,,,63d96ff56b577f6ac10e5f6c,14:14:56,06/03/2024
,"<p style=""font-size:75px;"">...</p>",,ospan,iti,tn872G41KnaPSwTy242qvEWCHd12,html-keyboard-response,98,916786,0.0-43.0-3.0-0.0-0.0,,,,,,,,,,,,,,,63d96ff56b577f6ac10e5f6c,14:14:56,06/03/2024
1440.0,,,ospan,symmetry,tn872G41KnaPSwTy242qvEWCHd12,symmetry-judgement-task,99,920554,0.0-43.0-3.0-0.0-1.0-0.0,,,,,,,,,,1.0,1.0,,,,63d96ff56b577f6ac10e5f6c,14:14:56,06/03/2024
,"<div style=""font-size: 10rem; color: #0000FF"">N</div>",,ospan,letter,tn872G41KnaPSwTy242qvEWCHd12,html-keyboard-response,100,921565,0.0-43.0-3.0-0.0-1.0-1.0,,,,,,,,,,,,,,,63d96ff56b577f6ac10e5f6c,14:14:56,06/03/2024
1233.0,,,ospan,symmetry,tn872G41KnaPSwTy242qvEWCHd12,symmetry-judgement-task,101,925859,0.0-43.0-3.0-0.0-1.0-2.0,,,,,,,,,,1.0,1.0,,,,63d96ff56b577f6ac10e5f6c,14:14:56,06/03/2024
,"<div style=""font-size: 10rem; color: #0000FF"">Q</div>",,ospan,letter,tn872G41KnaPSwTy242qvEWCHd12,html-keyboard-response,102,926871,0.0-43.0-3.0-0.0-1.0-3.0,,,,,,,,,,,,,,,63d96ff56b577f6ac10e5f6c,14:14:56,06/03/2024
1923.0,,,ospan,symmetry,tn872G41KnaPSwTy242qvEWCHd12,symmetry-judgement-task,103,931813,0.0-43.0-3.0-0.0-1.0-4.0,,,,,,,,,,1.0,1.0,,,,63d96ff56b577f6ac10e5f6c,14:14:56,06/03/2024
,"<div style=""font-size: 10rem; color: #0000FF"">L</div>",,ospan,letter,tn872G41KnaPSwTy242qvEWCHd12,html-keyboard-response,104,932818,0.0-43.0-3.0-0.0-1.0-5.0,,,,,,,,,,,,,,,63d96ff56b577f6ac10e5f6c,14:14:56,06/03/2024
4909.0,"<div class = numbox><p style=""font-size: 2.4rem"">Please recall the letters you saw to the best of your ability. If you do not remember a particular letter, use the SKIP button.<br><b>(When you are ready to lock in your answer, press ENTER)</b></p><button id = button_1 class = ""square num-button"" onclick = ""recordClick(this)""><div class = content><div class = numbers>C</div></div></button><button id = button_2 class = ""square num-button"" onclick = ""recordClick(this)""><div class = content><div class = numbers>G</div></div></button><button id = button_3 class = ""square num-button"" onclick = ""recordClick(this)""><div class = content><div class = numbers>H</div></div></button><button id = button_4 class = ""square num-button"" onclick = ""recordClick(this)""><div class = content><div class = numbers>J</div></div></button><button id = button_5 class = ""square num-button"" onclick = ""recordClick(this)""><div class = content><div class = numbers>K</div></div></button><button id = button_6 class = ""square num-button"" onclick = ""recordClick(this)""><div class = content><div class = numbers>L</div></div></button><button id = button_7 class = ""square num-button"" onclick = ""recordClick(this)""><div class = content><div class = numbers>N</div></div></button><button id = button_8 class = ""square num-button"" onclick = ""recordClick(this)""><div class = content><div class = numbers>P</div></div></button><button id = button_9 class = ""square num-button"" onclick = ""recordClick(this)""><div class = content><div class = numbers>Q</div></div></button><button id = button_10 class = ""square num-button"" onclick = ""recordClick(this)""><div class = content><div class = numbers>R</div></div></button><button id = button_11 class = ""square num-button"" onclick = ""recordClick(this)""><div class = content><div class = numbers>S</div></div></button><button id = button_12 class = ""square num-button"" onclick = ""recordClick(this)""><div class = content><div class = numbers>Y</div></div></button><button class = clear_button id = ""ClearButton"" onclick = ""clearResponse()"">BACKSPACE</button><button class = blank_button id = ""BlankButton"" onclick = ""blankResponse()"">SKIP</button><p style=""font-size: 2.4rem""><u><b>Current Answer:</b></u></p><br><br><div id=echoed_txt style=""font-size: 5rem; color:blue;""><b></b></div></div>",enter,ospan,retrieval,tn872G41KnaPSwTy242qvEWCHd12,html-keyboard-response,105,938489,0.0-43.0-3.0-0.0-2.0,3,3,3,3.0,"[""N"",""Q"",""L""]","[""N"",""Q"",""L""]",1.0,3.0,,,,,,,63d96ff56b577f6ac10e5f6c,14:14:56,06/03/2024
1085.7999999998137,[''],0,ospan,feedback,tn872G41KnaPSwTy242qvEWCHd12,html-button-response,106,940087,0.0-43.0-3.0-0.0-3.0,,,,,,,,,,,,100.0,0.0,,63d96ff56b577f6ac10e5f6c,14:14:56,06/03/2024
,"<p style=""font-size:75px;"">...</p>",,ospan,iti,tn872G41KnaPSwTy242qvEWCHd12,html-keyboard-response,107,941093,0.0-43.0-4.0-0.0-0.0,,,,,,,,,,,,,,,63d96ff56b577f6ac10e5f6c,14:14:56,06/03/2024
1686.0,,,ospan,symmetry,tn872G41KnaPSwTy242qvEWCHd12,symmetry-judgement-task,108,945067,0.0-43.0-4.0-0.0-1.0-0.0,,,,,,,,,,1.0,1.0,,,,63d96ff56b577f6ac10e5f6c,14:14:56,06/03/2024
,"<div style=""font-size: 10rem; color: #0000FF"">Y</div>",,ospan,letter,tn872G41KnaPSwTy242qvEWCHd12,html-keyboard-response,109,946072,0.0-43.0-4.0-0.0-1.0-1.0,,,,,,,,,,,,,,,63d96ff56b577f6ac10e5f6c,14:14:56,06/03/2024
1930.0,,,ospan,symmetry,tn872G41KnaPSwTy242qvEWCHd12,symmetry-judgement-task,110,950979,0.0-43.0-4.0-0.0-1.0-2.0,,,,,,,,,,1.0,1.0,,,,63d96ff56b577f6ac10e5f6c,14:14:56,06/03/2024
,"<div style=""font-size: 10rem; color: #0000FF"">N</div>",,ospan,letter,tn872G41KnaPSwTy242qvEWCHd12,html-keyboard-response,111,951992,0.0-43.0-4.0-0.0-1.0-3.0,,,,,,,,,,,,,,,63d96ff56b577f6ac10e5f6c,14:14:56,06/03/2024
1368.0,,,ospan,symmetry,tn872G41KnaPSwTy242qvEWCHd12,symmetry-judgement-task,112,956494,0.0-43.0-4.0-0.0-1.0-4.0,,,,,,,,,,1.0,1.0,,,,63d96ff56b577f6ac10e5f6c,14:14:56,06/03/2024
,"<div style=""font-size: 10rem; color: #0000FF"">S</div>",,ospan,letter,tn872G41KnaPSwTy242qvEWCHd12,html-keyboard-response,113,957499,0.0-43.0-4.0-0.0-1.0-5.0,,,,,,,,,,,,,,,63d96ff56b577f6ac10e5f6c,14:14:56,06/03/2024
1966.0,,,ospan,symmetry,tn872G41KnaPSwTy242qvEWCHd12,symmetry-judgement-task,114,962564,0.0-43.0-4.0-0.0-1.0-6.0,,,,,,,,,,1.0,1.0,,,,63d96ff56b577f6ac10e5f6c,14:14:56,06/03/2024
,"<div style=""font-size: 10rem; color: #0000FF"">P</div>",,ospan,letter,tn872G41KnaPSwTy242qvEWCHd12,html-keyboard-response,115,963571,0.0-43.0-4.0-0.0-1.0-7.0,,,,,,,,,,,,,,,63d96ff56b577f6ac10e5f6c,14:14:56,06/03/2024
4483.799999999814,"<div class = numbox><p style=""font-size: 2.4rem"">Please recall the letters you saw to the best of your ability. If you do not remember a particular letter, use the SKIP button.<br><b>(When you are ready to lock in your answer, press ENTER)</b></p><button id = button_1 class = ""square num-button"" onclick = ""recordClick(this)""><div class = content><div class = numbers>C</div></div></button><button id = button_2 class = ""square num-button"" onclick = ""recordClick(this)""><div class = content><div class = numbers>G</div></div></button><button id = button_3 class = ""square num-button"" onclick = ""recordClick(this)""><div class = content><div class = numbers>H</div></div></button><button id = button_4 class = ""square num-button"" onclick = ""recordClick(this)""><div class = content><div class = numbers>J</div></div></button><button id = button_5 class = ""square num-button"" onclick = ""recordClick(this)""><div class = content><div class = numbers>K</div></div></button><button id = button_6 class = ""square num-button"" onclick = ""recordClick(this)""><div class = content><div class = numbers>L</div></div></button><button id = button_7 class = ""square num-button"" onclick = ""recordClick(this)""><div class = content><div class = numbers>N</div></div></button><button id = button_8 class = ""square num-button"" onclick = ""recordClick(this)""><div class = content><div class = numbers>P</div></div></button><button id = button_9 class = ""square num-button"" onclick = ""recordClick(this)""><div class = content><div class = numbers>Q</div></div></button><button id = button_10 class = ""square num-button"" onclick = ""recordClick(this)""><div class = content><div class = numbers>R</div></div></button><button id = button_11 class = ""square num-button"" onclick = ""recordClick(this)""><div class = content><div class = numbers>S</div></div></button><button id = button_12 class = ""square num-button"" onclick = ""recordClick(this)""><div class = content><div class = numbers>Y</div></div></button><button class = clear_button id = ""ClearButton"" onclick = ""clearResponse()"">BACKSPACE</button><button class = blank_button id = ""BlankButton"" onclick = ""blankResponse()"">SKIP</button><p style=""font-size: 2.4rem""><u><b>Current Answer:</b></u></p><br><br><div id=echoed_txt style=""font-size: 5rem; color:blue;""><b></b></div></div>",enter,ospan,retrieval,tn872G41KnaPSwTy242qvEWCHd12,html-keyboard-response,116,968814,0.0-43.0-4.0-0.0-2.0,7,7,7,4.0,"[""Y"",""N"",""S"",""P""]","[""Y"",""N"",""S"",""P""]",1.0,4.0,,,,,,,63d96ff56b577f6ac10e5f6c,14:14:56,06/03/2024
9382.899999999441,[''],0,ospan,feedback,tn872G41KnaPSwTy242qvEWCHd12,html-button-response,117,978715,0.0-43.0-4.0-0.0-3.0,,,,,,,,,,,,100.0,0.0,,63d96ff56b577f6ac10e5f6c,14:14:56,06/03/2024
,"<p style=""font-size:75px;"">...</p>",,ospan,iti,tn872G41KnaPSwTy242qvEWCHd12,html-keyboard-response,118,979721,0.0-43.0-4.0-1.0-0.0,,,,,,,,,,,,,,,63d96ff56b577f6ac10e5f6c,14:14:56,06/03/2024
1883.0,,,ospan,symmetry,tn872G41KnaPSwTy242qvEWCHd12,symmetry-judgement-task,119,984023,0.0-43.0-4.0-1.0-1.0-0.0,,,,,,,,,,1.0,1.0,,,,63d96ff56b577f6ac10e5f6c,14:14:56,06/03/2024
,"<div style=""font-size: 10rem; color: #0000FF"">G</div>",,ospan,letter,tn872G41KnaPSwTy242qvEWCHd12,html-keyboard-response,120,985027,0.0-43.0-4.0-1.0-1.0-1.0,,,,,,,,,,,,,,,63d96ff56b577f6ac10e5f6c,14:14:56,06/03/2024
1548.0,,,ospan,symmetry,tn872G41KnaPSwTy242qvEWCHd12,symmetry-judgement-task,121,989538,0.0-43.0-4.0-1.0-1.0-2.0,,,,,,,,,,1.0,1.0,,,,63d96ff56b577f6ac10e5f6c,14:14:56,06/03/2024
,"<div style=""font-size: 10rem; color: #0000FF"">L</div>",,ospan,letter,tn872G41KnaPSwTy242qvEWCHd12,html-keyboard-response,122,990549,0.0-43.0-4.0-1.0-1.0-3.0,,,,,,,,,,,,,,,63d96ff56b577f6ac10e5f6c,14:14:56,06/03/2024
1716.0,,,ospan,symmetry,tn872G41KnaPSwTy242qvEWCHd12,symmetry-judgement-task,123,995369,0.0-43.0-4.0-1.0-1.0-4.0,,,,,,,,,,1.0,1.0,,,,63d96ff56b577f6ac10e5f6c,14:14:56,06/03/2024
,"<div style=""font-size: 10rem; color: #0000FF"">Y</div>",,ospan,letter,tn872G41KnaPSwTy242qvEWCHd12,html-keyboard-response,124,996374,0.0-43.0-4.0-1.0-1.0-5.0,,,,,,,,,,,,,,,63d96ff56b577f6ac10e5f6c,14:14:56,06/03/2024
2263.0,,,ospan,symmetry,tn872G41KnaPSwTy242qvEWCHd12,symmetry-judgement-task,125,1001859,0.0-43.0-4.0-1.0-1.0-6.0,,,,,,,,,,1.0,1.0,,,,63d96ff56b577f6ac10e5f6c,14:14:56,06/03/2024
,"<div style=""font-size: 10rem; color: #0000FF"">K</div>",,ospan,letter,tn872G41KnaPSwTy242qvEWCHd12,html-keyboard-response,126,1002868,0.0-43.0-4.0-1.0-1.0-7.0,,,,,,,,,,,,,,,63d96ff56b577f6ac10e5f6c,14:14:56,06/03/2024
1912.0,,,ospan,symmetry,tn872G41KnaPSwTy242qvEWCHd12,symmetry-judgement-task,127,1007914,0.0-43.0-4.0-1.0-1.0-8.0,,,,,,,,,,1.0,1.0,,,,63d96ff56b577f6ac10e5f6c,14:14:56,06/03/2024
,"<div style=""font-size: 10rem; color: #0000FF"">H</div>",,ospan,letter,tn872G41KnaPSwTy242qvEWCHd12,html-keyboard-response,128,1008919,0.0-43.0-4.0-1.0-1.0-9.0,,,,,,,,,,,,,,,63d96ff56b577f6ac10e5f6c,14:14:56,06/03/2024
12717.200000000186,"<div class = numbox><p style=""font-size: 2.4rem"">Please recall the letters you saw to the best of your ability. If you do not remember a particular letter, use the SKIP button.<br><b>(When you are ready to lock in your answer, press ENTER)</b></p><button id = button_1 class = ""square num-button"" onclick = ""recordClick(this)""><div class = content><div class = numbers>C</div></div></button><button id = button_2 class = ""square num-button"" onclick = ""recordClick(this)""><div class = content><div class = numbers>G</div></div></button><button id = button_3 class = ""square num-button"" onclick = ""recordClick(this)""><div class = content><div class = numbers>H</div></div></button><button id = button_4 class = ""square num-button"" onclick = ""recordClick(this)""><div class = content><div class = numbers>J</div></div></button><button id = button_5 class = ""square num-button"" onclick = ""recordClick(this)""><div class = content><div class = numbers>K</div></div></button><button id = button_6 class = ""square num-button"" onclick = ""recordClick(this)""><div class = content><div class = numbers>L</div></div></button><button id = button_7 class = ""square num-button"" onclick = ""recordClick(this)""><div class = content><div class = numbers>N</div></div></button><button id = button_8 class = ""square num-button"" onclick = ""recordClick(this)""><div class = content><div class = numbers>P</div></div></button><button id = button_9 class = ""square num-button"" onclick = ""recordClick(this)""><div class = content><div class = numbers>Q</div></div></button><button id = button_10 class = ""square num-button"" onclick = ""recordClick(this)""><div class = content><div class = numbers>R</div></div></button><button id = button_11 class = ""square num-button"" onclick = ""recordClick(this)""><div class = content><div class = numbers>S</div></div></button><button id = button_12 class = ""square num-button"" onclick = ""recordClick(this)""><div class = content><div class = numbers>Y</div></div></button><button class = clear_button id = ""ClearButton"" onclick = ""clearResponse()"">BACKSPACE</button><button class = blank_button id = ""BlankButton"" onclick = ""blankResponse()"">SKIP</button><p style=""font-size: 2.4rem""><u><b>Current Answer:</b></u></p><br><br><div id=echoed_txt style=""font-size: 5rem; color:blue;""><b></b></div></div>",enter,ospan,retrieval,tn872G41KnaPSwTy242qvEWCHd12,html-keyboard-response,129,1022394,0.0-43.0-4.0-1.0-2.0,12,10,7,5.0,"[""G"",""L"",""K"",""Y"",""H""]","[""G"",""L"",""Y"",""K"",""H""]",0.0,3.0,,,,,,,63d96ff56b577f6ac10e5f6c,14:14:56,06/03/2024
2463.899999999441,[''],0,ospan,feedback,tn872G41KnaPSwTy242qvEWCHd12,html-button-response,130,1025371,0.0-43.0-4.0-1.0-3.0,,,,,,,,,,,,100.0,0.0,,63d96ff56b577f6ac10e5f6c,14:14:56,06/03/2024
,"<p style=""font-size:75px;"">...</p>",,ospan,iti,tn872G41KnaPSwTy242qvEWCHd12,html-keyboard-response,131,1026391,0.0-43.0-4.0-2.0-0.0,,,,,,,,,,,,,,,63d96ff56b577f6ac10e5f6c,14:14:56,06/03/2024
2956.0,,,ospan,symmetry,tn872G41KnaPSwTy242qvEWCHd12,symmetry-judgement-task,132,1030571,0.0-43.0-4.0-2.0-1.0-0.0,,,,,,,,,,1.0,1.0,,,,63d96ff56b577f6ac10e5f6c,14:14:56,06/03/2024
,"<div style=""font-size: 10rem; color: #0000FF"">Q</div>",,ospan,letter,tn872G41KnaPSwTy242qvEWCHd12,html-keyboard-response,133,1031580,0.0-43.0-4.0-2.0-1.0-1.0,,,,,,,,,,,,,,,63d96ff56b577f6ac10e5f6c,14:14:56,06/03/2024
1901.0,,,ospan,symmetry,tn872G41KnaPSwTy242qvEWCHd12,symmetry-judgement-task,134,1036581,0.0-43.0-4.0-2.0-1.0-2.0,,,,,,,,,,1.0,1.0,,,,63d96ff56b577f6ac10e5f6c,14:14:56,06/03/2024
,"<div style=""font-size: 10rem; color: #0000FF"">C</div>",,ospan,letter,tn872G41KnaPSwTy242qvEWCHd12,html-keyboard-response,135,1037587,0.0-43.0-4.0-2.0-1.0-3.0,,,,,,,,,,,,,,,63d96ff56b577f6ac10e5f6c,14:14:56,06/03/2024
1493.0,,,ospan,symmetry,tn872G41KnaPSwTy242qvEWCHd12,symmetry-judgement-task,136,1042263,0.0-43.0-4.0-2.0-1.0-4.0,,,,,,,,,,1.0,1.0,,,,63d96ff56b577f6ac10e5f6c,14:14:56,06/03/2024
,"<div style=""font-size: 10rem; color: #0000FF"">Y</div>",,ospan,letter,tn872G41KnaPSwTy242qvEWCHd12,html-keyboard-response,137,1043273,0.0-43.0-4.0-2.0-1.0-5.0,,,,,,,,,,,,,,,63d96ff56b577f6ac10e5f6c,14:14:56,06/03/2024
5182.5999999996275,"<div class = numbox><p style=""font-size: 2.4rem"">Please recall the letters you saw to the best of your ability. If you do not remember a particular letter, use the SKIP button.<br><b>(When you are ready to lock in your answer, press ENTER)</b></p><button id = button_1 class = ""square num-button"" onclick = ""recordClick(this)""><div class = content><div class = numbers>C</div></div></button><button id = button_2 class = ""square num-button"" onclick = ""recordClick(this)""><div class = content><div class = numbers>G</div></div></button><button id = button_3 class = ""square num-button"" onclick = ""recordClick(this)""><div class = content><div class = numbers>H</div></div></button><button id = button_4 class = ""square num-button"" onclick = ""recordClick(this)""><div class = content><div class = numbers>J</div></div></button><button id = button_5 class = ""square num-button"" onclick = ""recordClick(this)""><div class = content><div class = numbers>K</div></div></button><button id = button_6 class = ""square num-button"" onclick = ""recordClick(this)""><div class = content><div class = numbers>L</div></div></button><button id = button_7 class = ""square num-button"" onclick = ""recordClick(this)""><div class = content><div class = numbers>N</div></div></button><button id = button_8 class = ""square num-button"" onclick = ""recordClick(this)""><div class = content><div class = numbers>P</div></div></button><button id = button_9 class = ""square num-button"" onclick = ""recordClick(this)""><div class = content><div class = numbers>Q</div></div></button><button id = button_10 class = ""square num-button"" onclick = ""recordClick(this)""><div class = content><div class = numbers>R</div></div></button><button id = button_11 class = ""square num-button"" onclick = ""recordClick(this)""><div class = content><div class = numbers>S</div></div></button><button id = button_12 class = ""square num-button"" onclick = ""recordClick(this)""><div class = content><div class = numbers>Y</div></div></button><button class = clear_button id = ""ClearButton"" onclick = ""clearResponse()"">BACKSPACE</button><button class = blank_button id = ""BlankButton"" onclick = ""blankResponse()"">SKIP</button><p style=""font-size: 2.4rem""><u><b>Current Answer:</b></u></p><br><br><div id=echoed_txt style=""font-size: 5rem; color:blue;""><b></b></div></div>",enter,ospan,retrieval,tn872G41KnaPSwTy242qvEWCHd12,html-keyboard-response,138,1049215,0.0-43.0-4.0-2.0-2.0,15,13,10,3.0,"[""Q"",""C"",""Y""]","[""Q"",""C"",""Y""]",1.0,3.0,,,,,,,63d96ff56b577f6ac10e5f6c,14:14:56,06/03/2024
3311.4000000003725,[''],0,ospan,feedback,tn872G41KnaPSwTy242qvEWCHd12,html-button-response,139,1053033,0.0-43.0-4.0-2.0-3.0,,,,,,,,,,,,100.0,0.0,,63d96ff56b577f6ac10e5f6c,14:14:56,06/03/2024
,"<p style=""font-size:75px;"">...</p>",,ospan,iti,tn872G41KnaPSwTy242qvEWCHd12,html-keyboard-response,140,1054040,0.0-43.0-5.0-0.0-0.0,,,,,,,,,,,,,,,63d96ff56b577f6ac10e5f6c,14:14:56,06/03/2024
1807.0,,,ospan,symmetry,tn872G41KnaPSwTy242qvEWCHd12,symmetry-judgement-task,141,1058096,0.0-43.0-5.0-0.0-1.0-0.0,,,,,,,,,,0.0,0.0,,,,63d96ff56b577f6ac10e5f6c,14:14:56,06/03/2024
,"<div style=""font-size: 10rem; color: #0000FF"">N</div>",,ospan,letter,tn872G41KnaPSwTy242qvEWCHd12,html-keyboard-response,142,1059100,0.0-43.0-5.0-0.0-1.0-1.0,,,,,,,,,,,,,,,63d96ff56b577f6ac10e5f6c,14:14:56,06/03/2024
1430.0,,,ospan,symmetry,tn872G41KnaPSwTy242qvEWCHd12,symmetry-judgement-task,143,1063491,0.0-43.0-5.0-0.0-1.0-2.0,,,,,,,,,,1.0,1.0,,,,63d96ff56b577f6ac10e5f6c,14:14:56,06/03/2024
,"<div style=""font-size: 10rem; color: #0000FF"">C</div>",,ospan,letter,tn872G41KnaPSwTy242qvEWCHd12,html-keyboard-response,144,1064499,0.0-43.0-5.0-0.0-1.0-3.0,,,,,,,,,,,,,,,63d96ff56b577f6ac10e5f6c,14:14:56,06/03/2024
1839.0,,,ospan,symmetry,tn872G41KnaPSwTy242qvEWCHd12,symmetry-judgement-task,145,1069401,0.0-43.0-5.0-0.0-1.0-4.0,,,,,,,,,,1.0,1.0,,,,63d96ff56b577f6ac10e5f6c,14:14:56,06/03/2024
,"<div style=""font-size: 10rem; color: #0000FF"">K</div>",,ospan,letter,tn872G41KnaPSwTy242qvEWCHd12,html-keyboard-response,146,1070410,0.0-43.0-5.0-0.0-1.0-5.0,,,,,,,,,,,,,,,63d96ff56b577f6ac10e5f6c,14:14:56,06/03/2024
1968.0,,,ospan,symmetry,tn872G41KnaPSwTy242qvEWCHd12,symmetry-judgement-task,147,1075441,0.0-43.0-5.0-0.0-1.0-6.0,,,,,,,,,,1.0,1.0,,,,63d96ff56b577f6ac10e5f6c,14:14:56,06/03/2024
,"<div style=""font-size: 10rem; color: #0000FF"">R</div>",,ospan,letter,tn872G41KnaPSwTy242qvEWCHd12,html-keyboard-response,148,1076448,0.0-43.0-5.0-0.0-1.0-7.0,,,,,,,,,,,,,,,63d96ff56b577f6ac10e5f6c,14:14:56,06/03/2024
5330.0,,,ospan,symmetry,tn872G41KnaPSwTy242qvEWCHd12,symmetry-judgement-task,149,1084836,0.0-43.0-5.0-0.0-1.0-8.0,,,,,,,,,,1.0,1.0,,,,63d96ff56b577f6ac10e5f6c,14:14:56,06/03/2024
,"<div style=""font-size: 10rem; color: #0000FF"">S</div>",,ospan,letter,tn872G41KnaPSwTy242qvEWCHd12,html-keyboard-response,150,1085842,0.0-43.0-5.0-0.0-1.0-9.0,,,,,,,,,,,,,,,63d96ff56b577f6ac10e5f6c,14:14:56,06/03/2024
2642.0,,,ospan,symmetry,tn872G41KnaPSwTy242qvEWCHd12,symmetry-judgement-task,151,1091478,0.0-43.0-5.0-0.0-1.0-10.0,,,,,,,,,,1.0,1.0,,,,63d96ff56b577f6ac10e5f6c,14:14:56,06/03/2024
,"<div style=""font-size: 10rem; color: #0000FF"">Q</div>",,ospan,letter,tn872G41KnaPSwTy242qvEWCHd12,html-keyboard-response,152,1092485,0.0-43.0-5.0-0.0-1.0-11.0,,,,,,,,,,,,,,,63d96ff56b577f6ac10e5f6c,14:14:56,06/03/2024
10555.799999999814,"<div class = numbox><p style=""font-size: 2.4rem"">Please recall the letters you saw to the best of your ability. If you do not remember a particular letter, use the SKIP button.<br><b>(When you are ready to lock in your answer, press ENTER)</b></p><button id = button_1 class = ""square num-button"" onclick = ""recordClick(this)""><div class = content><div class = numbers>C</div></div></button><button id = button_2 class = ""square num-button"" onclick = ""recordClick(this)""><div class = content><div class = numbers>G</div></div></button><button id = button_3 class = ""square num-button"" onclick = ""recordClick(this)""><div class = content><div class = numbers>H</div></div></button><button id = button_4 class = ""square num-button"" onclick = ""recordClick(this)""><div class = content><div class = numbers>J</div></div></button><button id = button_5 class = ""square num-button"" onclick = ""recordClick(this)""><div class = content><div class = numbers>K</div></div></button><button id = button_6 class = ""square num-button"" onclick = ""recordClick(this)""><div class = content><div class = numbers>L</div></div></button><button id = button_7 class = ""square num-button"" onclick = ""recordClick(this)""><div class = content><div class = numbers>N</div></div></button><button id = button_8 class = ""square num-button"" onclick = ""recordClick(this)""><div class = content><div class = numbers>P</div></div></button><button id = button_9 class = ""square num-button"" onclick = ""recordClick(this)""><div class = content><div class = numbers>Q</div></div></button><button id = button_10 class = ""square num-button"" onclick = ""recordClick(this)""><div class = content><div class = numbers>R</div></div></button><button id = button_11 class = ""square num-button"" onclick = ""recordClick(this)""><div class = content><div class = numbers>S</div></div></button><button id = button_12 class = ""square num-button"" onclick = ""recordClick(this)""><div class = content><div class = numbers>Y</div></div></button><button class = clear_button id = ""ClearButton"" onclick = ""clearResponse()"">BACKSPACE</button><button class = blank_button id = ""BlankButton"" onclick = ""blankResponse()"">SKIP</button><p style=""font-size: 2.4rem""><u><b>Current Answer:</b></u></p><br><br><div id=echoed_txt style=""font-size: 5rem; color:blue;""><b></b></div></div>",enter,ospan,retrieval,tn872G41KnaPSwTy242qvEWCHd12,html-keyboard-response,153,1103803,0.0-43.0-5.0-0.0-2.0,21,17,10,6.0,"[""N"",""C"",""K"",""R""]","[""N"",""C"",""K"",""R"",""S"",""Q""]",0.0,4.0,,,,,,,63d96ff56b577f6ac10e5f6c,14:14:56,06/03/2024
14484.900000000373,[''],0,ospan,feedback,tn872G41KnaPSwTy242qvEWCHd12,html-button-response,154,1118802,0.0-43.0-5.0-0.0-3.0,,,,,,,,,,,,95.0,0.0,,63d96ff56b577f6ac10e5f6c,14:14:56,06/03/2024
,"<p style=""font-size:75px;"">...</p>",,ospan,iti,tn872G41KnaPSwTy242qvEWCHd12,html-keyboard-response,155,1119823,0.0-43.0-5.0-1.0-0.0,,,,,,,,,,,,,,,63d96ff56b577f6ac10e5f6c,14:14:56,06/03/2024
4021.0,,,ospan,symmetry,tn872G41KnaPSwTy242qvEWCHd12,symmetry-judgement-task,156,1126061,0.0-43.0-5.0-1.0-1.0-0.0,,,,,,,,,,1.0,1.0,,,,63d96ff56b577f6ac10e5f6c,14:14:56,06/03/2024
,"<div style=""font-size: 10rem; color: #0000FF"">P</div>",,ospan,letter,tn872G41KnaPSwTy242qvEWCHd12,html-keyboard-response,157,1127072,0.0-43.0-5.0-1.0-1.0-1.0,,,,,,,,,,,,,,,63d96ff56b577f6ac10e5f6c,14:14:56,06/03/2024
2670.0,,,ospan,symmetry,tn872G41KnaPSwTy242qvEWCHd12,symmetry-judgement-task,158,1132805,0.0-43.0-5.0-1.0-1.0-2.0,,,,,,,,,,1.0,1.0,,,,63d96ff56b577f6ac10e5f6c,14:14:56,06/03/2024
,"<div style=""font-size: 10rem; color: #0000FF"">R</div>",,ospan,letter,tn872G41KnaPSwTy242qvEWCHd12,html-keyboard-response,159,1133812,0.0-43.0-5.0-1.0-1.0-3.0,,,,,,,,,,,,,,,63d96ff56b577f6ac10e5f6c,14:14:56,06/03/2024
3439.0,,,ospan,symmetry,tn872G41KnaPSwTy242qvEWCHd12,symmetry-judgement-task,160,1140378,0.0-43.0-5.0-1.0-1.0-4.0,,,,,,,,,,0.0,0.0,,,,63d96ff56b577f6ac10e5f6c,14:14:56,06/03/2024
,"<div style=""font-size: 10rem; color: #0000FF"">G</div>",,ospan,letter,tn872G41KnaPSwTy242qvEWCHd12,html-keyboard-response,161,1141382,0.0-43.0-5.0-1.0-1.0-5.0,,,,,,,,,,,,,,,63d96ff56b577f6ac10e5f6c,14:14:56,06/03/2024
2458.0,,,ospan,symmetry,tn872G41KnaPSwTy242qvEWCHd12,symmetry-judgement-task,162,1146827,0.0-43.0-5.0-1.0-1.0-6.0,,,,,,,,,,1.0,1.0,,,,63d96ff56b577f6ac10e5f6c,14:14:56,06/03/2024
,"<div style=""font-size: 10rem; color: #0000FF"">K</div>",,ospan,letter,tn872G41KnaPSwTy242qvEWCHd12,html-keyboard-response,163,1147831,0.0-43.0-5.0-1.0-1.0-7.0,,,,,,,,,,,,,,,63d96ff56b577f6ac10e5f6c,14:14:56,06/03/2024
3738.0,,,ospan,symmetry,tn872G41KnaPSwTy242qvEWCHd12,symmetry-judgement-task,164,1154541,0.0-43.0-5.0-1.0-1.0-8.0,,,,,,,,,,1.0,1.0,,,,63d96ff56b577f6ac10e5f6c,14:14:56,06/03/2024
,"<div style=""font-size: 10rem; color: #0000FF"">Y</div>",,ospan,letter,tn872G41KnaPSwTy242qvEWCHd12,html-keyboard-response,165,1155547,0.0-43.0-5.0-1.0-1.0-9.0,,,,,,,,,,,,,,,63d96ff56b577f6ac10e5f6c,14:14:56,06/03/2024
3879.0,,,ospan,symmetry,tn872G41KnaPSwTy242qvEWCHd12,symmetry-judgement-task,166,1162469,0.0-43.0-5.0-1.0-1.0-10.0,,,,,,,,,,1.0,1.0,,,,63d96ff56b577f6ac10e5f6c,14:14:56,06/03/2024
,"<div style=""font-size: 10rem; color: #0000FF"">J</div>",,ospan,letter,tn872G41KnaPSwTy242qvEWCHd12,html-keyboard-response,167,1163473,0.0-43.0-5.0-1.0-1.0-11.0,,,,,,,,,,,,,,,63d96ff56b577f6ac10e5f6c,14:14:56,06/03/2024
9148.0,,,ospan,symmetry,tn872G41KnaPSwTy242qvEWCHd12,symmetry-judgement-task,168,1175601,0.0-43.0-5.0-1.0-1.0-12.0,,,,,,,,,,1.0,1.0,,,,63d96ff56b577f6ac10e5f6c,14:14:56,06/03/2024
,"<div style=""font-size: 10rem; color: #0000FF"">S</div>",,ospan,letter,tn872G41KnaPSwTy242qvEWCHd12,html-keyboard-response,169,1176609,0.0-43.0-5.0-1.0-1.0-13.0,,,,,,,,,,,,,,,63d96ff56b577f6ac10e5f6c,14:14:56,06/03/2024
5573.5,"<div class = numbox><p style=""font-size: 2.4rem"">Please recall the letters you saw to the best of your ability. If you do not remember a particular letter, use the SKIP button.<br><b>(When you are ready to lock in your answer, press ENTER)</b></p><button id = button_1 class = ""square num-button"" onclick = ""recordClick(this)""><div class = content><div class = numbers>C</div></div></button><button id = button_2 class = ""square num-button"" onclick = ""recordClick(this)""><div class = content><div class = numbers>G</div></div></button><button id = button_3 class = ""square num-button"" onclick = ""recordClick(this)""><div class = content><div class = numbers>H</div></div></button><button id = button_4 class = ""square num-button"" onclick = ""recordClick(this)""><div class = content><div class = numbers>J</div></div></button><button id = button_5 class = ""square num-button"" onclick = ""recordClick(this)""><div class = content><div class = numbers>K</div></div></button><button id = button_6 class = ""square num-button"" onclick = ""recordClick(this)""><div class = content><div class = numbers>L</div></div></button><button id = button_7 class = ""square num-button"" onclick = ""recordClick(this)""><div class = content><div class = numbers>N</div></div></button><button id = button_8 class = ""square num-button"" onclick = ""recordClick(this)""><div class = content><div class = numbers>P</div></div></button><button id = button_9 class = ""square num-button"" onclick = ""recordClick(this)""><div class = content><div class = numbers>Q</div></div></button><button id = button_10 class = ""square num-button"" onclick = ""recordClick(this)""><div class = content><div class = numbers>R</div></div></button><button id = button_11 class = ""square num-button"" onclick = ""recordClick(this)""><div class = content><div class = numbers>S</div></div></button><button id = button_12 class = ""square num-button"" onclick = ""recordClick(this)""><div class = content><div class = numbers>Y</div></div></button><button class = clear_button id = ""ClearButton"" onclick = ""clearResponse()"">BACKSPACE</button><button class = blank_button id = ""BlankButton"" onclick = ""blankResponse()"">SKIP</button><p style=""font-size: 2.4rem""><u><b>Current Answer:</b></u></p><br><br><div id=echoed_txt style=""font-size: 5rem; color:blue;""><b></b></div></div>",enter,ospan,retrieval,tn872G41KnaPSwTy242qvEWCHd12,html-keyboard-response,170,1182945,0.0-43.0-5.0-1.0-2.0,28,19,10,7.0,"[""P"",""R"",""Y"",""J"",""S""]","[""P"",""R"",""G"",""K"",""Y"",""J"",""S""]",0.0,2.0,,,,,,,63d96ff56b577f6ac10e5f6c,14:14:56,06/03/2024
10771.099999999627,[''],0,ospan,feedback,tn872G41KnaPSwTy242qvEWCHd12,html-button-response,171,1194226,0.0-43.0-5.0-1.0-3.0,,,,,,,,,,,,93.0,0.0,,63d96ff56b577f6ac10e5f6c,14:14:56,06/03/2024
,"<p style=""font-size:75px;"">...</p>",,ospan,iti,tn872G41KnaPSwTy242qvEWCHd12,html-keyboard-response,172,1195246,0.0-43.0-6.0-0.0-0.0,,,,,,,,,,,,,,,63d96ff56b577f6ac10e5f6c,14:14:56,06/03/2024
4189.0,,,ospan,symmetry,tn872G41KnaPSwTy242qvEWCHd12,symmetry-judgement-task,173,1201704,0.0-43.0-6.0-0.0-1.0-0.0,,,,,,,,,,1.0,1.0,,,,63d96ff56b577f6ac10e5f6c,14:14:56,06/03/2024
,"<div style=""font-size: 10rem; color: #0000FF"">S</div>",,ospan,letter,tn872G41KnaPSwTy242qvEWCHd12,html-keyboard-response,174,1202711,0.0-43.0-6.0-0.0-1.0-1.0,,,,,,,,,,,,,,,63d96ff56b577f6ac10e5f6c,14:14:56,06/03/2024
1960.0,,,ospan,symmetry,tn872G41KnaPSwTy242qvEWCHd12,symmetry-judgement-task,175,1207698,0.0-43.0-6.0-0.0-1.0-2.0,,,,,,,,,,1.0,1.0,,,,63d96ff56b577f6ac10e5f6c,14:14:56,06/03/2024
,"<div style=""font-size: 10rem; color: #0000FF"">J</div>",,ospan,letter,tn872G41KnaPSwTy242qvEWCHd12,html-keyboard-response,176,1208705,0.0-43.0-6.0-0.0-1.0-3.0,,,,,,,,,,,,,,,63d96ff56b577f6ac10e5f6c,14:14:56,06/03/2024
2365.0,,,ospan,symmetry,tn872G41KnaPSwTy242qvEWCHd12,symmetry-judgement-task,177,1214135,0.0-43.0-6.0-0.0-1.0-4.0,,,,,,,,,,1.0,1.0,,,,63d96ff56b577f6ac10e5f6c,14:14:56,06/03/2024
,"<div style=""font-size: 10rem; color: #0000FF"">K</div>",,ospan,letter,tn872G41KnaPSwTy242qvEWCHd12,html-keyboard-response,178,1215143,0.0-43.0-6.0-0.0-1.0-5.0,,,,,,,,,,,,,,,63d96ff56b577f6ac10e5f6c,14:14:56,06/03/2024
2737.0,,,ospan,symmetry,tn872G41KnaPSwTy242qvEWCHd12,symmetry-judgement-task,179,1220914,0.0-43.0-6.0-0.0-1.0-6.0,,,,,,,,,,1.0,1.0,,,,63d96ff56b577f6ac10e5f6c,14:14:56,06/03/2024
,"<div style=""font-size: 10rem; color: #0000FF"">H</div>",,ospan,letter,tn872G41KnaPSwTy242qvEWCHd12,html-keyboard-response,180,1221922,0.0-43.0-6.0-0.0-1.0-7.0,,,,,,,,,,,,,,,63d96ff56b577f6ac10e5f6c,14:14:56,06/03/2024
2050.0,,,ospan,symmetry,tn872G41KnaPSwTy242qvEWCHd12,symmetry-judgement-task,181,1226985,0.0-43.0-6.0-0.0-1.0-8.0,,,,,,,,,,1.0,1.0,,,,63d96ff56b577f6ac10e5f6c,14:14:56,06/03/2024
,"<div style=""font-size: 10rem; color: #0000FF"">L</div>",,ospan,letter,tn872G41KnaPSwTy242qvEWCHd12,html-keyboard-response,182,1227988,0.0-43.0-6.0-0.0-1.0-9.0,,,,,,,,,,,,,,,63d96ff56b577f6ac10e5f6c,14:14:56,06/03/2024
6361.799999999814,"<div class = numbox><p style=""font-size: 2.4rem"">Please recall the letters you saw to the best of your ability. If you do not remember a particular letter, use the SKIP button.<br><b>(When you are ready to lock in your answer, press ENTER)</b></p><button id = button_1 class = ""square num-button"" onclick = ""recordClick(this)""><div class = content><div class = numbers>C</div></div></button><button id = button_2 class = ""square num-button"" onclick = ""recordClick(this)""><div class = content><div class = numbers>G</div></div></button><button id = button_3 class = ""square num-button"" onclick = ""recordClick(this)""><div class = content><div class = numbers>H</div></div></button><button id = button_4 class = ""square num-button"" onclick = ""recordClick(this)""><div class = content><div class = numbers>J</div></div></button><button id = button_5 class = ""square num-button"" onclick = ""recordClick(this)""><div class = content><div class = numbers>K</div></div></button><button id = button_6 class = ""square num-button"" onclick = ""recordClick(this)""><div class = content><div class = numbers>L</div></div></button><button id = button_7 class = ""square num-button"" onclick = ""recordClick(this)""><div class = content><div class = numbers>N</div></div></button><button id = button_8 class = ""square num-button"" onclick = ""recordClick(this)""><div class = content><div class = numbers>P</div></div></button><button id = button_9 class = ""square num-button"" onclick = ""recordClick(this)""><div class = content><div class = numbers>Q</div></div></button><button id = button_10 class = ""square num-button"" onclick = ""recordClick(this)""><div class = content><div class = numbers>R</div></div></button><button id = button_11 class = ""square num-button"" onclick = ""recordClick(this)""><div class = content><div class = numbers>S</div></div></button><button id = button_12 class = ""square num-button"" onclick = ""recordClick(this)""><div class = content><div class = numbers>Y</div></div></button><button class = clear_button id = ""ClearButton"" onclick = ""clearResponse()"">BACKSPACE</button><button class = blank_button id = ""BlankButton"" onclick = ""blankResponse()"">SKIP</button><p style=""font-size: 2.4rem""><u><b>Current Answer:</b></u></p><br><br><div id=echoed_txt style=""font-size: 5rem; color:blue;""><b></b></div></div>",enter,ospan,retrieval,tn872G41KnaPSwTy242qvEWCHd12,html-keyboard-response,183,1235110,0.0-43.0-6.0-0.0-2.0,33,24,15,5.0,"[""S"",""J"",""K"",""H"",""L""]","[""S"",""J"",""K"",""H"",""L""]",1.0,5.0,,,,,,,63d96ff56b577f6ac10e5f6c,14:14:56,06/03/2024
2068.9000000003725,[''],0,ospan,feedback,tn872G41KnaPSwTy242qvEWCHd12,html-button-response,184,1237694,0.0-43.0-6.0-0.0-3.0,,,,,,,,,,,,94.0,0.0,,63d96ff56b577f6ac10e5f6c,14:14:56,06/03/2024
,"<p style=""font-size:75px;"">...</p>",,ospan,iti,tn872G41KnaPSwTy242qvEWCHd12,html-keyboard-response,185,1238709,0.0-43.0-6.0-1.0-0.0,,,,,,,,,,,,,,,63d96ff56b577f6ac10e5f6c,14:14:56,06/03/2024
2351.0,,,ospan,symmetry,tn872G41KnaPSwTy242qvEWCHd12,symmetry-judgement-task,186,1243426,0.0-43.0-6.0-1.0-1.0-0.0,,,,,,,,,,1.0,1.0,,,,63d96ff56b577f6ac10e5f6c,14:14:56,06/03/2024
,"<div style=""font-size: 10rem; color: #0000FF"">K</div>",,ospan,letter,tn872G41KnaPSwTy242qvEWCHd12,html-keyboard-response,187,1244434,0.0-43.0-6.0-1.0-1.0-1.0,,,,,,,,,,,,,,,63d96ff56b577f6ac10e5f6c,14:14:56,06/03/2024
1755.0,,,ospan,symmetry,tn872G41KnaPSwTy242qvEWCHd12,symmetry-judgement-task,188,1249268,0.0-43.0-6.0-1.0-1.0-2.0,,,,,,,,,,1.0,1.0,,,,63d96ff56b577f6ac10e5f6c,14:14:56,06/03/2024
,"<div style=""font-size: 10rem; color: #0000FF"">G</div>",,ospan,letter,tn872G41KnaPSwTy242qvEWCHd12,html-keyboard-response,189,1250275,0.0-43.0-6.0-1.0-1.0-3.0,,,,,,,,,,,,,,,63d96ff56b577f6ac10e5f6c,14:14:56,06/03/2024
1427.0,,,ospan,symmetry,tn872G41KnaPSwTy242qvEWCHd12,symmetry-judgement-task,190,1254713,0.0-43.0-6.0-1.0-1.0-4.0,,,,,,,,,,1.0,1.0,,,,63d96ff56b577f6ac10e5f6c,14:14:56,06/03/2024
,"<div style=""font-size: 10rem; color: #0000FF"">P</div>",,ospan,letter,tn872G41KnaPSwTy242qvEWCHd12,html-keyboard-response,191,1255723,0.0-43.0-6.0-1.0-1.0-5.0,,,,,,,,,,,,,,,63d96ff56b577f6ac10e5f6c,14:14:56,06/03/2024
1906.0,,,ospan,symmetry,tn872G41KnaPSwTy242qvEWCHd12,symmetry-judgement-task,192,1260691,0.0-43.0-6.0-1.0-1.0-6.0,,,,,,,,,,1.0,1.0,,,,63d96ff56b577f6ac10e5f6c,14:14:56,06/03/2024
,"<div style=""font-size: 10rem; color: #0000FF"">L</div>",,ospan,letter,tn872G41KnaPSwTy242qvEWCHd12,html-keyboard-response,193,1261696,0.0-43.0-6.0-1.0-1.0-7.0,,,,,,,,,,,,,,,63d96ff56b577f6ac10e5f6c,14:14:56,06/03/2024
1471.0,,,ospan,symmetry,tn872G41KnaPSwTy242qvEWCHd12,symmetry-judgement-task,194,1266145,0.0-43.0-6.0-1.0-1.0-8.0,,,,,,,,,,1.0,1.0,,,,63d96ff56b577f6ac10e5f6c,14:14:56,06/03/2024
,"<div style=""font-size: 10rem; color: #0000FF"">N</div>",,ospan,letter,tn872G41KnaPSwTy242qvEWCHd12,html-keyboard-response,195,1267152,0.0-43.0-6.0-1.0-1.0-9.0,,,,,,,,,,,,,,,63d96ff56b577f6ac10e5f6c,14:14:56,06/03/2024
2987.0,,,ospan,symmetry,tn872G41KnaPSwTy242qvEWCHd12,symmetry-judgement-task,196,1273433,0.0-43.0-6.0-1.0-1.0-10.0,,,,,,,,,,1.0,1.0,,,,63d96ff56b577f6ac10e5f6c,14:14:56,06/03/2024
,"<div style=""font-size: 10rem; color: #0000FF"">Q</div>",,ospan,letter,tn872G41KnaPSwTy242qvEWCHd12,html-keyboard-response,197,1274450,0.0-43.0-6.0-1.0-1.0-11.0,,,,,,,,,,,,,,,63d96ff56b577f6ac10e5f6c,14:14:56,06/03/2024
2910.0,,,ospan,symmetry,tn872G41KnaPSwTy242qvEWCHd12,symmetry-judgement-task,198,1280543,0.0-43.0-6.0-1.0-1.0-12.0,,,,,,,,,,1.0,1.0,,,,63d96ff56b577f6ac10e5f6c,14:14:56,06/03/2024
,"<div style=""font-size: 10rem; color: #0000FF"">J</div>",,ospan,letter,tn872G41KnaPSwTy242qvEWCHd12,html-keyboard-response,199,1281549,0.0-43.0-6.0-1.0-1.0-13.0,,,,,,,,,,,,,,,63d96ff56b577f6ac10e5f6c,14:14:56,06/03/2024
4300.0,,,ospan,symmetry,tn872G41KnaPSwTy242qvEWCHd12,symmetry-judgement-task,200,1288939,0.0-43.0-6.0-1.0-1.0-14.0,,,,,,,,,,1.0,1.0,,,,63d96ff56b577f6ac10e5f6c,14:14:56,06/03/2024
,"<div style=""font-size: 10rem; color: #0000FF"">S</div>",,ospan,letter,tn872G41KnaPSwTy242qvEWCHd12,html-keyboard-response,201,1289949,0.0-43.0-6.0-1.0-1.0-15.0,,,,,,,,,,,,,,,63d96ff56b577f6ac10e5f6c,14:14:56,06/03/2024
19555.200000000186,"<div class = numbox><p style=""font-size: 2.4rem"">Please recall the letters you saw to the best of your ability. If you do not remember a particular letter, use the SKIP button.<br><b>(When you are ready to lock in your answer, press ENTER)</b></p><button id = button_1 class = ""square num-button"" onclick = ""recordClick(this)""><div class = content><div class = numbers>C</div></div></button><button id = button_2 class = ""square num-button"" onclick = ""recordClick(this)""><div class = content><div class = numbers>G</div></div></button><button id = button_3 class = ""square num-button"" onclick = ""recordClick(this)""><div class = content><div class = numbers>H</div></div></button><button id = button_4 class = ""square num-button"" onclick = ""recordClick(this)""><div class = content><div class = numbers>J</div></div></button><button id = button_5 class = ""square num-button"" onclick = ""recordClick(this)""><div class = content><div class = numbers>K</div></div></button><button id = button_6 class = ""square num-button"" onclick = ""recordClick(this)""><div class = content><div class = numbers>L</div></div></button><button id = button_7 class = ""square num-button"" onclick = ""recordClick(this)""><div class = content><div class = numbers>N</div></div></button><button id = button_8 class = ""square num-button"" onclick = ""recordClick(this)""><div class = content><div class = numbers>P</div></div></button><button id = button_9 class = ""square num-button"" onclick = ""recordClick(this)""><div class = content><div class = numbers>Q</div></div></button><button id = button_10 class = ""square num-button"" onclick = ""recordClick(this)""><div class = content><div class = numbers>R</div></div></button><button id = button_11 class = ""square num-button"" onclick = ""recordClick(this)""><div class = content><div class = numbers>S</div></div></button><button id = button_12 class = ""square num-button"" onclick = ""recordClick(this)""><div class = content><div class = numbers>Y</div></div></button><button class = clear_button id = ""ClearButton"" onclick = ""clearResponse()"">BACKSPACE</button><button class = blank_button id = ""BlankButton"" onclick = ""blankResponse()"">SKIP</button><p style=""font-size: 2.4rem""><u><b>Current Answer:</b></u></p><br><br><div id=echoed_txt style=""font-size: 5rem; color:blue;""><b></b></div></div>",enter,ospan,retrieval,tn872G41KnaPSwTy242qvEWCHd12,html-keyboard-response,202,1310267,0.0-43.0-6.0-1.0-2.0,41,29,15,8.0,"[""K"",""G"",""P"",""N"",""Q"",""Y"",""J"",""S""]","[""K"",""G"",""P"",""L"",""N"",""Q"",""J"",""S""]",0.0,5.0,,,,,,,63d96ff56b577f6ac10e5f6c,14:14:56,06/03/2024
1805.4000000003725,[''],0,ospan,feedback,tn872G41KnaPSwTy242qvEWCHd12,html-button-response,203,1312584,0.0-43.0-6.0-1.0-3.0,,,,,,,,,,,,95.0,0.0,,63d96ff56b577f6ac10e5f6c,14:14:56,06/03/2024
17852.300000000745,,{'Q0': 'found it quite easy to understand '},ospan,survey_ospan,tn872G41KnaPSwTy242qvEWCHd12,lmdlab-survey-text,204,1331212,0.0-43.0-7.0,,,,,,,,,,,,,,tn872G41KnaPSwTy242qvEWCHd12,63d96ff56b577f6ac10e5f6c,14:14:56,06/03/2024
1667.5999999996275,<p><p style='font-size: 3rem'>Great work!<br><br>This completes the symmetry and memory task.</p><br><br><br>,0,ospan,finish,tn872G41KnaPSwTy242qvEWCHd12,html-button-response,205,1332890,0.0-43.0-8.0,41,29,15,,,,,,,,,95.0,,,63d96ff56b577f6ac10e5f6c,14:14:56,06/03/2024
