rt,stimulus,response,exp_name,exp_stage,subjectID,trial_type,trial_index,time_elapsed,internal_node_id,ospan_shown,ospan_total,ospan_abs,length,resp_actual,resp_correct,full_correct,num_correct,feedback,accuracy,correct,math_acc,math_warning,databaseID,prolificID,start_time,date
2751.6999999955297,<div class = 'left_align' style='font-size: 3.25rem; line-height: 1.3;'><p class = 'center_align'><b>Welcome to the Symmetry and Memory Task</b><br><br><br><br></p>Press 'continue' to show the instructions.<br><br><br><br></div>,0,ospan,instruct,M4li8TXdcXOXxCabH8qn8CQAqSB3,html-button-response,54,485975,0.0-46.0-0.0-0.0-0.0,,,,,,,,,,,,,,,5ffa22d8dcae1e3cc129b6f6,20:39:51,04/04/2024
11190.5,"<div class = 'left_align' style='font-size: 3.25rem; line-height: 1.3;'><p class = 'center_align'><b>Symmetry and Memory Task</b><br><br></p>In this task, you will try to memorize letters you see on the screen<br>while you also view black and white grid pictures.<br><br>In the next few minutes, you will have some practice to get you familiar<br>with how the task works.<br><br>It may be difficult sometimes, but please do not worry about making mistakes!<br><br>We will begin by practicing the letter part of the task.<br><br><br><br></div>",0,ospan,instruct,M4li8TXdcXOXxCabH8qn8CQAqSB3,html-button-response,55,497423,0.0-46.0-0.0-0.0-1.0,,,,,,,,,,,,,,,5ffa22d8dcae1e3cc129b6f6,20:39:51,04/04/2024
16263.40000000596,"<div class = 'left_align' style='font-size: 3.25rem; line-height: 1.3;'>For this practice part, letters will appear on the screen one at a time.<br><br>Try to remember each letter in the order presented.<br><br>After some letters have been shown, you will see a response screen. Your<br>goal is to report the letters you saw <b>in order</b>. If you do not remember<br>a particular letter, you will have the option to leave it blank.<br><br><br><br></div>",0,ospan,instruct,M4li8TXdcXOXxCabH8qn8CQAqSB3,html-button-response,56,513952,0.0-46.0-0.0-0.0-2.0,,,,,,,,,,,,,,,5ffa22d8dcae1e3cc129b6f6,20:39:51,04/04/2024
5067.10000000149,"<div class = 'left_align' style='font-size: 3.25rem; line-height: 1.3;'>Remember, it is very important to get the letters in the same<br>order as you see them.<br><br>When you are ready, you may begin the letter practice.</div><br><br><br><br>",0,ospan,instruct,M4li8TXdcXOXxCabH8qn8CQAqSB3,html-button-response,57,519280,0.0-46.0-0.0-0.0-3.0,,,,,,,,,,,,,,,5ffa22d8dcae1e3cc129b6f6,20:39:51,04/04/2024
,"<p style=""font-size:75px;"">...</p>",,ospan,iti,M4li8TXdcXOXxCabH8qn8CQAqSB3,html-keyboard-response,58,520550,0.0-46.0-0.0-1.0-0.0,,,,,,,,,,,,,,,5ffa22d8dcae1e3cc129b6f6,20:39:51,04/04/2024
,"<div style=""font-size: 10rem; color: #0000FF"">S</div>",,ospan,letter,M4li8TXdcXOXxCabH8qn8CQAqSB3,html-keyboard-response,59,521555,0.0-46.0-0.0-1.0-1.0,,,,,,,,,,,,,,,5ffa22d8dcae1e3cc129b6f6,20:39:51,04/04/2024
,"<div style=""font-size: 10rem; color: #0000FF"">C</div>",,ospan,letter,M4li8TXdcXOXxCabH8qn8CQAqSB3,html-keyboard-response,60,523316,0.0-46.0-0.0-1.0-2.0,,,,,,,,,,,,,,,5ffa22d8dcae1e3cc129b6f6,20:39:51,04/04/2024
7536.89999999851,"<div class = numbox><p style=""font-size: 2.4rem"">Please recall the letters you saw to the best of your ability. If you do not remember a particular letter, use the SKIP button.<br><b>(When you are ready to lock in your answer, press ENTER)</b></p><button id = button_1 class = ""square num-button"" onclick = ""recordClick(this)""><div class = content><div class = numbers>C</div></div></button><button id = button_2 class = ""square num-button"" onclick = ""recordClick(this)""><div class = content><div class = numbers>G</div></div></button><button id = button_3 class = ""square num-button"" onclick = ""recordClick(this)""><div class = content><div class = numbers>H</div></div></button><button id = button_4 class = ""square num-button"" onclick = ""recordClick(this)""><div class = content><div class = numbers>J</div></div></button><button id = button_5 class = ""square num-button"" onclick = ""recordClick(this)""><div class = content><div class = numbers>K</div></div></button><button id = button_6 class = ""square num-button"" onclick = ""recordClick(this)""><div class = content><div class = numbers>L</div></div></button><button id = button_7 class = ""square num-button"" onclick = ""recordClick(this)""><div class = content><div class = numbers>N</div></div></button><button id = button_8 class = ""square num-button"" onclick = ""recordClick(this)""><div class = content><div class = numbers>P</div></div></button><button id = button_9 class = ""square num-button"" onclick = ""recordClick(this)""><div class = content><div class = numbers>Q</div></div></button><button id = button_10 class = ""square num-button"" onclick = ""recordClick(this)""><div class = content><div class = numbers>R</div></div></button><button id = button_11 class = ""square num-button"" onclick = ""recordClick(this)""><div class = content><div class = numbers>S</div></div></button><button id = button_12 class = ""square num-button"" onclick = ""recordClick(this)""><div class = content><div class = numbers>Y</div></div></button><button class = clear_button id = ""ClearButton"" onclick = ""clearResponse()"">BACKSPACE</button><button class = blank_button id = ""BlankButton"" onclick = ""blankResponse()"">SKIP</button><p style=""font-size: 2.4rem""><u><b>Current Answer:</b></u></p><br><br><div id=echoed_txt style=""font-size: 5rem; color:blue;""><b></b></div></div>",enter,ospan,retrieval,M4li8TXdcXOXxCabH8qn8CQAqSB3,html-keyboard-response,61,531617,0.0-46.0-0.0-1.0-3.0,NA,NA,NA,2.0,"[""S"",""C""]","[""S"",""C""]",1.0,2.0,"['<font color=""green"">S</font>', '<font color=""green"">C</font>']",,,,,,5ffa22d8dcae1e3cc129b6f6,20:39:51,04/04/2024
2016.2999999970198,"['<p style=""font-size:44px"">Letters:<br><br><br><font color=""green"">S</font> <font color=""green"">C</font></p><br><br>']",0,ospan,practice_feedback,M4li8TXdcXOXxCabH8qn8CQAqSB3,html-button-response,62,534137,0.0-46.0-0.0-1.0-4.0,,,,,,,,,,,,,,,5ffa22d8dcae1e3cc129b6f6,20:39:51,04/04/2024
,"<p style=""font-size:75px;"">...</p>",,ospan,iti,M4li8TXdcXOXxCabH8qn8CQAqSB3,html-keyboard-response,63,535139,0.0-46.0-0.0-2.0-0.0,,,,,,,,,,,,,,,5ffa22d8dcae1e3cc129b6f6,20:39:51,04/04/2024
,"<div style=""font-size: 10rem; color: #0000FF"">J</div>",,ospan,letter,M4li8TXdcXOXxCabH8qn8CQAqSB3,html-keyboard-response,64,536142,0.0-46.0-0.0-2.0-1.0,,,,,,,,,,,,,,,5ffa22d8dcae1e3cc129b6f6,20:39:51,04/04/2024
,"<div style=""font-size: 10rem; color: #0000FF"">Q</div>",,ospan,letter,M4li8TXdcXOXxCabH8qn8CQAqSB3,html-keyboard-response,65,537899,0.0-46.0-0.0-2.0-2.0,,,,,,,,,,,,,,,5ffa22d8dcae1e3cc129b6f6,20:39:51,04/04/2024
,"<div style=""font-size: 10rem; color: #0000FF"">N</div>",,ospan,letter,M4li8TXdcXOXxCabH8qn8CQAqSB3,html-keyboard-response,66,539667,0.0-46.0-0.0-2.0-3.0,,,,,,,,,,,,,,,5ffa22d8dcae1e3cc129b6f6,20:39:51,04/04/2024
5481.4000000059605,"<div class = numbox><p style=""font-size: 2.4rem"">Please recall the letters you saw to the best of your ability. If you do not remember a particular letter, use the SKIP button.<br><b>(When you are ready to lock in your answer, press ENTER)</b></p><button id = button_1 class = ""square num-button"" onclick = ""recordClick(this)""><div class = content><div class = numbers>C</div></div></button><button id = button_2 class = ""square num-button"" onclick = ""recordClick(this)""><div class = content><div class = numbers>G</div></div></button><button id = button_3 class = ""square num-button"" onclick = ""recordClick(this)""><div class = content><div class = numbers>H</div></div></button><button id = button_4 class = ""square num-button"" onclick = ""recordClick(this)""><div class = content><div class = numbers>J</div></div></button><button id = button_5 class = ""square num-button"" onclick = ""recordClick(this)""><div class = content><div class = numbers>K</div></div></button><button id = button_6 class = ""square num-button"" onclick = ""recordClick(this)""><div class = content><div class = numbers>L</div></div></button><button id = button_7 class = ""square num-button"" onclick = ""recordClick(this)""><div class = content><div class = numbers>N</div></div></button><button id = button_8 class = ""square num-button"" onclick = ""recordClick(this)""><div class = content><div class = numbers>P</div></div></button><button id = button_9 class = ""square num-button"" onclick = ""recordClick(this)""><div class = content><div class = numbers>Q</div></div></button><button id = button_10 class = ""square num-button"" onclick = ""recordClick(this)""><div class = content><div class = numbers>R</div></div></button><button id = button_11 class = ""square num-button"" onclick = ""recordClick(this)""><div class = content><div class = numbers>S</div></div></button><button id = button_12 class = ""square num-button"" onclick = ""recordClick(this)""><div class = content><div class = numbers>Y</div></div></button><button class = clear_button id = ""ClearButton"" onclick = ""clearResponse()"">BACKSPACE</button><button class = blank_button id = ""BlankButton"" onclick = ""blankResponse()"">SKIP</button><p style=""font-size: 2.4rem""><u><b>Current Answer:</b></u></p><br><br><div id=echoed_txt style=""font-size: 5rem; color:blue;""><b></b></div></div>",enter,ospan,retrieval,M4li8TXdcXOXxCabH8qn8CQAqSB3,html-keyboard-response,67,545913,0.0-46.0-0.0-2.0-4.0,NA,NA,NA,3.0,"[""J"",""Q"",""N""]","[""J"",""Q"",""N""]",1.0,3.0,"['<font color=""green"">J</font>', '<font color=""green"">Q</font>', '<font color=""green"">N</font>']",,,,,,5ffa22d8dcae1e3cc129b6f6,20:39:51,04/04/2024
2625.7999999970198,"['<p style=""font-size:44px"">Letters:<br><br><br><font color=""green"">J</font> <font color=""green"">Q</font> <font color=""green"">N</font></p><br><br>']",0,ospan,practice_feedback,M4li8TXdcXOXxCabH8qn8CQAqSB3,html-button-response,68,549049,0.0-46.0-0.0-2.0-5.0,,,,,,,,,,,,,,,5ffa22d8dcae1e3cc129b6f6,20:39:51,04/04/2024
13703.89999999851,"<div class = 'left_align' style='font-size: 3.25rem; line-height: 1.3;'>Now you will practice doing the <b>symmetry judgment part</b> of the experiment.<br><br>A black and white grid picture will appear on the screen and you have to judge if it is <br>symmetrical or asymetrical.<br><br>A picture is 'mirror' symmetrical if its left half is identical to the right half when flipped.<br>Here are examples of a symmetrical and an asymetrical picture:<br><br><center><img src='Stimuli/img/symm_instructions_extra.png' style='height:420px; width:900'></img></center><br>To judge symmetry, imagine you were to fold each picture down the middle, like a book –<br>would the left half match the right half when folded onto each other?<br><br></div><br>",0,ospan,instruct,M4li8TXdcXOXxCabH8qn8CQAqSB3,html-button-response,69,562754,0.0-46.0-1.0-0.0-0.0,,,,,,,,,,,,,,,5ffa22d8dcae1e3cc129b6f6,20:39:51,04/04/2024
5490.0,"<div class = 'left_align' style='font-size: 3.25rem; line-height: 1.3;'>When you have viewed the picture and determined whether it is symmetrical or not,<br>you can <b>click the Yes or No button</b> below to answer.<br><br>If you take longer than 15 seconds, it will continue automatically<br>and record the answer as an error.</div><br>",0,ospan,instruct,M4li8TXdcXOXxCabH8qn8CQAqSB3,html-button-response,70,568507,0.0-46.0-1.0-0.0-1.0,,,,,,,,,,,,,,,5ffa22d8dcae1e3cc129b6f6,20:39:51,04/04/2024
6884.19999999553,"<div class = 'left_align' style='font-size: 3.25rem; line-height: 1.3;'>It is <b>very</b> important that you make the symmetry judgment correctly.<br><br>It is also important that you try and judge the picture as quickly as you can.<br><br>When you are ready, click on the button below to try some practice problems.</div><br><br><br><br>",0,ospan,instruct,M4li8TXdcXOXxCabH8qn8CQAqSB3,html-button-response,71,575642,0.0-46.0-1.0-0.0-2.0,,,,,,,,,,,,,,,5ffa22d8dcae1e3cc129b6f6,20:39:51,04/04/2024
2067.0,,,ospan,symmetry,M4li8TXdcXOXxCabH8qn8CQAqSB3,symmetry-judgement-task,72,578490,0.0-46.0-1.0-1.0-0.0,,,,,,,,,,1.0,1.0,,,,5ffa22d8dcae1e3cc129b6f6,20:39:51,04/04/2024
,"<p style=""color:green; font-size: 35px"">Correct</p>",,ospan,feedback,M4li8TXdcXOXxCabH8qn8CQAqSB3,html-keyboard-response,73,579243,0.0-46.0-1.0-1.0-1.0,,,,,,,,,,,,,,,5ffa22d8dcae1e3cc129b6f6,20:39:51,04/04/2024
2756.0,,,ospan,symmetry,M4li8TXdcXOXxCabH8qn8CQAqSB3,symmetry-judgement-task,74,584608,0.0-46.0-1.0-1.0-2.0,,,,,,,,,,1.0,1.0,,,,5ffa22d8dcae1e3cc129b6f6,20:39:51,04/04/2024
,"<p style=""color:green; font-size: 35px"">Correct</p>",,ospan,feedback,M4li8TXdcXOXxCabH8qn8CQAqSB3,html-keyboard-response,75,585373,0.0-46.0-1.0-1.0-3.0,,,,,,,,,,,,,,,5ffa22d8dcae1e3cc129b6f6,20:39:51,04/04/2024
2447.0,,,ospan,symmetry,M4li8TXdcXOXxCabH8qn8CQAqSB3,symmetry-judgement-task,76,590434,0.0-46.0-1.0-1.0-4.0,,,,,,,,,,1.0,1.0,,,,5ffa22d8dcae1e3cc129b6f6,20:39:51,04/04/2024
,"<p style=""color:green; font-size: 35px"">Correct</p>",,ospan,feedback,M4li8TXdcXOXxCabH8qn8CQAqSB3,html-keyboard-response,77,591198,0.0-46.0-1.0-1.0-5.0,,,,,,,,,,,,,,,5ffa22d8dcae1e3cc129b6f6,20:39:51,04/04/2024
1551.4000000059605,"<p style=""font-size: 3rem;"">You responded correctly on 3 of 3 symmetry judgments. Good job!</p><br><br>",0,ospan,practice,M4li8TXdcXOXxCabH8qn8CQAqSB3,html-button-response,78,594755,0.0-46.0-1.0-2.0,,,,,,,,,,,,,,,5ffa22d8dcae1e3cc129b6f6,20:39:51,04/04/2024
8883.5,"<div class = 'left_align' style='font-size: 3.25rem; line-height: 1.3;'>Now you will practice doing both parts of the experiment at the same time.<br><br>In the next practice set, you will be given one grid picture to judge.<br>Then letter will appear on the screen. Try to remember the letter.<br><br>It is <b>very important</b> to make the symmetry judgment as quickly and accurately as possible.<br><br>Just as before, once you have make the symmetry judgment, you can click Yes or No.<br><b>Note that you will no longer see Correct or Incorrect feedback.</div><br><br><br><br>",0,ospan,instruct,M4li8TXdcXOXxCabH8qn8CQAqSB3,html-button-response,79,603900,0.0-46.0-2.0-0.0-0.0,,,,,,,,,,,,,,,5ffa22d8dcae1e3cc129b6f6,20:39:51,04/04/2024
11527.20000000298,"<div class = 'left_align' style='font-size: 3.25rem; line-height: 1.3;'>After the letter goes away, another grid picture will appear, and then<br>another letter.<br><br>At the end of each set of letters and grids, you will recall the letters to the best<br>of your ability. Remember, try your best to get the letters in the correct order.<br><br>It is important to <b>quickly</b> and <b>accurately</b> make the symmetry judgments.</div><br><br><br><br>",0,ospan,instruct,M4li8TXdcXOXxCabH8qn8CQAqSB3,html-button-response,80,615685,0.0-46.0-2.0-0.0-1.0,,,,,,,,,,,,,,,5ffa22d8dcae1e3cc129b6f6,20:39:51,04/04/2024
14975.29999999702,"<div class = 'left_align' style='font-size: 3.25rem; line-height: 1.3;'>On the feedback screen, if you are not doing well at the symmetry judgments,<br>you will also see a warning in the middle. This indicates your percent <br>correct for the grid pictures for the entire experiment.<br><br>It is <b>very</b> important for you to keep accuracy at least at 85%: <u>We can only use<br>data where the participant was at least 85% accurate on the judgments.</u> Therefore,<br> please try your best to perform well on the symmetry judgments, <b>at the same time</b><br>doing your best to recall as many letters as possible.<br><br>Click the button to try some practice problems.</div><br><br><br><br>",0,ospan,instruct,M4li8TXdcXOXxCabH8qn8CQAqSB3,html-button-response,81,630917,0.0-46.0-2.0-0.0-2.0,,,,,,,,,,,,,,,5ffa22d8dcae1e3cc129b6f6,20:39:51,04/04/2024
,"<p style=""font-size:75px;"">...</p>",,ospan,iti,M4li8TXdcXOXxCabH8qn8CQAqSB3,html-keyboard-response,82,632173,0.0-46.0-2.0-1.0-0.0,,,,,,,,,,,,,,,5ffa22d8dcae1e3cc129b6f6,20:39:51,04/04/2024
1436.0,,,ospan,symmetry,M4li8TXdcXOXxCabH8qn8CQAqSB3,symmetry-judgement-task,83,634712,0.0-46.0-2.0-1.0-1.0-0.0,,,,,,,,,,1.0,1.0,,,,5ffa22d8dcae1e3cc129b6f6,20:39:51,04/04/2024
,"<div style=""font-size: 10rem; color: #0000FF"">G</div>",,ospan,letter,M4li8TXdcXOXxCabH8qn8CQAqSB3,html-keyboard-response,84,635727,0.0-46.0-2.0-1.0-1.0-1.0,,,,,,,,,,,,,,,5ffa22d8dcae1e3cc129b6f6,20:39:51,04/04/2024
1859.0,,,ospan,symmetry,M4li8TXdcXOXxCabH8qn8CQAqSB3,symmetry-judgement-task,85,639450,0.0-46.0-2.0-1.0-1.0-2.0,,,,,,,,,,1.0,1.0,,,,5ffa22d8dcae1e3cc129b6f6,20:39:51,04/04/2024
,"<div style=""font-size: 10rem; color: #0000FF"">Y</div>",,ospan,letter,M4li8TXdcXOXxCabH8qn8CQAqSB3,html-keyboard-response,86,640454,0.0-46.0-2.0-1.0-1.0-3.0,,,,,,,,,,,,,,,5ffa22d8dcae1e3cc129b6f6,20:39:51,04/04/2024
2133.0,,,ospan,symmetry,M4li8TXdcXOXxCabH8qn8CQAqSB3,symmetry-judgement-task,87,644454,0.0-46.0-2.0-1.0-1.0-4.0,,,,,,,,,,1.0,1.0,,,,5ffa22d8dcae1e3cc129b6f6,20:39:51,04/04/2024
,"<div style=""font-size: 10rem; color: #0000FF"">R</div>",,ospan,letter,M4li8TXdcXOXxCabH8qn8CQAqSB3,html-keyboard-response,88,645464,0.0-46.0-2.0-1.0-1.0-5.0,,,,,,,,,,,,,,,5ffa22d8dcae1e3cc129b6f6,20:39:51,04/04/2024
4968.70000000298,"<div class = numbox><p style=""font-size: 2.4rem"">Please recall the letters you saw to the best of your ability. If you do not remember a particular letter, use the SKIP button.<br><b>(When you are ready to lock in your answer, press ENTER)</b></p><button id = button_1 class = ""square num-button"" onclick = ""recordClick(this)""><div class = content><div class = numbers>C</div></div></button><button id = button_2 class = ""square num-button"" onclick = ""recordClick(this)""><div class = content><div class = numbers>G</div></div></button><button id = button_3 class = ""square num-button"" onclick = ""recordClick(this)""><div class = content><div class = numbers>H</div></div></button><button id = button_4 class = ""square num-button"" onclick = ""recordClick(this)""><div class = content><div class = numbers>J</div></div></button><button id = button_5 class = ""square num-button"" onclick = ""recordClick(this)""><div class = content><div class = numbers>K</div></div></button><button id = button_6 class = ""square num-button"" onclick = ""recordClick(this)""><div class = content><div class = numbers>L</div></div></button><button id = button_7 class = ""square num-button"" onclick = ""recordClick(this)""><div class = content><div class = numbers>N</div></div></button><button id = button_8 class = ""square num-button"" onclick = ""recordClick(this)""><div class = content><div class = numbers>P</div></div></button><button id = button_9 class = ""square num-button"" onclick = ""recordClick(this)""><div class = content><div class = numbers>Q</div></div></button><button id = button_10 class = ""square num-button"" onclick = ""recordClick(this)""><div class = content><div class = numbers>R</div></div></button><button id = button_11 class = ""square num-button"" onclick = ""recordClick(this)""><div class = content><div class = numbers>S</div></div></button><button id = button_12 class = ""square num-button"" onclick = ""recordClick(this)""><div class = content><div class = numbers>Y</div></div></button><button class = clear_button id = ""ClearButton"" onclick = ""clearResponse()"">BACKSPACE</button><button class = blank_button id = ""BlankButton"" onclick = ""blankResponse()"">SKIP</button><p style=""font-size: 2.4rem""><u><b>Current Answer:</b></u></p><br><br><div id=echoed_txt style=""font-size: 5rem; color:blue;""><b></b></div></div>",enter,ospan,retrieval,M4li8TXdcXOXxCabH8qn8CQAqSB3,html-keyboard-response,89,651199,0.0-46.0-2.0-1.0-2.0-0.0,NA,NA,NA,3.0,"[""G"",""Y"",""R""]","[""G"",""Y"",""R""]",1.0,3.0,"['<font color=""green"">G</font>', '<font color=""green"">Y</font>', '<font color=""green"">R</font>']",,,,,,5ffa22d8dcae1e3cc129b6f6,20:39:51,04/04/2024
1809.6000000014901,"['<p style=""font-size:44px"">Letters:<br><br><br><font color=""green"">G</font> <font color=""green"">Y</font> <font color=""green"">R</font></p><br><br><p style=""font-size:30px"">Symmetry:<br><br><font color=""green"">100%</font></p><br><br>']",0,ospan,practice_feedback,M4li8TXdcXOXxCabH8qn8CQAqSB3,html-button-response,90,653518,0.0-46.0-2.0-1.0-2.0-1.0,,,,,,,,,,,,,,,5ffa22d8dcae1e3cc129b6f6,20:39:51,04/04/2024
,"<p style=""font-size:75px;"">...</p>",,ospan,iti,M4li8TXdcXOXxCabH8qn8CQAqSB3,html-keyboard-response,91,654527,0.0-46.0-2.0-2.0-0.0,,,,,,,,,,,,,,,5ffa22d8dcae1e3cc129b6f6,20:39:51,04/04/2024
1259.0,,,ospan,symmetry,M4li8TXdcXOXxCabH8qn8CQAqSB3,symmetry-judgement-task,92,656897,0.0-46.0-2.0-2.0-1.0-0.0,,,,,,,,,,1.0,1.0,,,,5ffa22d8dcae1e3cc129b6f6,20:39:51,04/04/2024
,"<div style=""font-size: 10rem; color: #0000FF"">G</div>",,ospan,letter,M4li8TXdcXOXxCabH8qn8CQAqSB3,html-keyboard-response,93,657913,0.0-46.0-2.0-2.0-1.0-1.0,,,,,,,,,,,,,,,5ffa22d8dcae1e3cc129b6f6,20:39:51,04/04/2024
1631.0,,,ospan,symmetry,M4li8TXdcXOXxCabH8qn8CQAqSB3,symmetry-judgement-task,94,661411,0.0-46.0-2.0-2.0-1.0-2.0,,,,,,,,,,1.0,1.0,,,,5ffa22d8dcae1e3cc129b6f6,20:39:51,04/04/2024
,"<div style=""font-size: 10rem; color: #0000FF"">C</div>",,ospan,letter,M4li8TXdcXOXxCabH8qn8CQAqSB3,html-keyboard-response,95,662424,0.0-46.0-2.0-2.0-1.0-3.0,,,,,,,,,,,,,,,5ffa22d8dcae1e3cc129b6f6,20:39:51,04/04/2024
1249.0,,,ospan,symmetry,M4li8TXdcXOXxCabH8qn8CQAqSB3,symmetry-judgement-task,96,665533,0.0-46.0-2.0-2.0-1.0-4.0,,,,,,,,,,1.0,1.0,,,,5ffa22d8dcae1e3cc129b6f6,20:39:51,04/04/2024
,"<div style=""font-size: 10rem; color: #0000FF"">S</div>",,ospan,letter,M4li8TXdcXOXxCabH8qn8CQAqSB3,html-keyboard-response,97,666534,0.0-46.0-2.0-2.0-1.0-5.0,,,,,,,,,,,,,,,5ffa22d8dcae1e3cc129b6f6,20:39:51,04/04/2024
5976.5,"<div class = numbox><p style=""font-size: 2.4rem"">Please recall the letters you saw to the best of your ability. If you do not remember a particular letter, use the SKIP button.<br><b>(When you are ready to lock in your answer, press ENTER)</b></p><button id = button_1 class = ""square num-button"" onclick = ""recordClick(this)""><div class = content><div class = numbers>C</div></div></button><button id = button_2 class = ""square num-button"" onclick = ""recordClick(this)""><div class = content><div class = numbers>G</div></div></button><button id = button_3 class = ""square num-button"" onclick = ""recordClick(this)""><div class = content><div class = numbers>H</div></div></button><button id = button_4 class = ""square num-button"" onclick = ""recordClick(this)""><div class = content><div class = numbers>J</div></div></button><button id = button_5 class = ""square num-button"" onclick = ""recordClick(this)""><div class = content><div class = numbers>K</div></div></button><button id = button_6 class = ""square num-button"" onclick = ""recordClick(this)""><div class = content><div class = numbers>L</div></div></button><button id = button_7 class = ""square num-button"" onclick = ""recordClick(this)""><div class = content><div class = numbers>N</div></div></button><button id = button_8 class = ""square num-button"" onclick = ""recordClick(this)""><div class = content><div class = numbers>P</div></div></button><button id = button_9 class = ""square num-button"" onclick = ""recordClick(this)""><div class = content><div class = numbers>Q</div></div></button><button id = button_10 class = ""square num-button"" onclick = ""recordClick(this)""><div class = content><div class = numbers>R</div></div></button><button id = button_11 class = ""square num-button"" onclick = ""recordClick(this)""><div class = content><div class = numbers>S</div></div></button><button id = button_12 class = ""square num-button"" onclick = ""recordClick(this)""><div class = content><div class = numbers>Y</div></div></button><button class = clear_button id = ""ClearButton"" onclick = ""clearResponse()"">BACKSPACE</button><button class = blank_button id = ""BlankButton"" onclick = ""blankResponse()"">SKIP</button><p style=""font-size: 2.4rem""><u><b>Current Answer:</b></u></p><br><br><div id=echoed_txt style=""font-size: 5rem; color:blue;""><b></b></div></div>",enter,ospan,retrieval,M4li8TXdcXOXxCabH8qn8CQAqSB3,html-keyboard-response,98,673264,0.0-46.0-2.0-2.0-2.0-0.0,NA,NA,NA,3.0,"[""G"",""C"",""S""]","[""G"",""C"",""S""]",1.0,3.0,"['<font color=""green"">G</font>', '<font color=""green"">C</font>', '<font color=""green"">S</font>']",,,,,,5ffa22d8dcae1e3cc129b6f6,20:39:51,04/04/2024
1382.6000000014901,"['<p style=""font-size:44px"">Letters:<br><br><br><font color=""green"">G</font> <font color=""green"">C</font> <font color=""green"">S</font></p><br><br><p style=""font-size:30px"">Symmetry:<br><br><font color=""green"">100%</font></p><br><br>']",0,ospan,practice_feedback,M4li8TXdcXOXxCabH8qn8CQAqSB3,html-button-response,99,675160,0.0-46.0-2.0-2.0-2.0-1.0,,,,,,,,,,,,,,,5ffa22d8dcae1e3cc129b6f6,20:39:51,04/04/2024
26344.20000000298,"<div class = 'left_align' style='font-size: 3rem; line-height: 1.3;'><b>Great work! That is the end of practice.</b><br><br>The real trials will look just like the practice trials you just completed.<br><br><u>Here, you will not see feedback</u>. First, you will see an grid picture to judge,<br>then a letter to remember. When the recall screen appears, report the letters in the<br>order presented. If you forget a letter, remember to use the <b>blank</b> button to move to the<br>next letter. Some of the sets will have more symmetry grids and letters than others.<br><br>It is important that you do your best on both the symmetry judgments and the letter recall<br>parts of the experiment. For for the symmetry judgments, try to work as <b>quickly</b> and <br>as <b>accurately</b> as possible. Remember to keep your symmetry accuracy at 85% or above.<br><br><b>For the letters, do NOT use any external aid (e.g., writing on paper, electronic device).</b><br><br>It is <u>very important</u> to our experiment to have a <b>true</b> view of your real performance.<br><br>Do not worry if you miss some when it gets hard! This task is meant to be very challenging!<br><br>Click the button to begin.</div><br><br><br><br>",0,ospan,starting_real_here,M4li8TXdcXOXxCabH8qn8CQAqSB3,html-button-response,100,701505,0.0-46.0-2.0-3.0,,,,,,,,,,,,,,,5ffa22d8dcae1e3cc129b6f6,20:39:51,04/04/2024
,"<p style=""font-size:75px;"">...</p>",,ospan,iti,M4li8TXdcXOXxCabH8qn8CQAqSB3,html-keyboard-response,101,702785,0.0-46.0-3.0-0.0-0.0,,,,,,,,,,,,,,,5ffa22d8dcae1e3cc129b6f6,20:39:51,04/04/2024
1687.0,,,ospan,symmetry,M4li8TXdcXOXxCabH8qn8CQAqSB3,symmetry-judgement-task,102,705579,0.0-46.0-3.0-0.0-1.0-0.0,,,,,,,,,,1.0,1.0,,,,5ffa22d8dcae1e3cc129b6f6,20:39:51,04/04/2024
,"<div style=""font-size: 10rem; color: #0000FF"">Y</div>",,ospan,letter,M4li8TXdcXOXxCabH8qn8CQAqSB3,html-keyboard-response,103,706583,0.0-46.0-3.0-0.0-1.0-1.0,,,,,,,,,,,,,,,5ffa22d8dcae1e3cc129b6f6,20:39:51,04/04/2024
1143.0,,,ospan,symmetry,M4li8TXdcXOXxCabH8qn8CQAqSB3,symmetry-judgement-task,104,709594,0.0-46.0-3.0-0.0-1.0-2.0,,,,,,,,,,1.0,1.0,,,,5ffa22d8dcae1e3cc129b6f6,20:39:51,04/04/2024
,"<div style=""font-size: 10rem; color: #0000FF"">P</div>",,ospan,letter,M4li8TXdcXOXxCabH8qn8CQAqSB3,html-keyboard-response,105,710596,0.0-46.0-3.0-0.0-1.0-3.0,,,,,,,,,,,,,,,5ffa22d8dcae1e3cc129b6f6,20:39:51,04/04/2024
1294.0,,,ospan,symmetry,M4li8TXdcXOXxCabH8qn8CQAqSB3,symmetry-judgement-task,106,713759,0.0-46.0-3.0-0.0-1.0-4.0,,,,,,,,,,1.0,1.0,,,,5ffa22d8dcae1e3cc129b6f6,20:39:51,04/04/2024
,"<div style=""font-size: 10rem; color: #0000FF"">C</div>",,ospan,letter,M4li8TXdcXOXxCabH8qn8CQAqSB3,html-keyboard-response,107,714761,0.0-46.0-3.0-0.0-1.0-5.0,,,,,,,,,,,,,,,5ffa22d8dcae1e3cc129b6f6,20:39:51,04/04/2024
4281.5999999940395,"<div class = numbox><p style=""font-size: 2.4rem"">Please recall the letters you saw to the best of your ability. If you do not remember a particular letter, use the SKIP button.<br><b>(When you are ready to lock in your answer, press ENTER)</b></p><button id = button_1 class = ""square num-button"" onclick = ""recordClick(this)""><div class = content><div class = numbers>C</div></div></button><button id = button_2 class = ""square num-button"" onclick = ""recordClick(this)""><div class = content><div class = numbers>G</div></div></button><button id = button_3 class = ""square num-button"" onclick = ""recordClick(this)""><div class = content><div class = numbers>H</div></div></button><button id = button_4 class = ""square num-button"" onclick = ""recordClick(this)""><div class = content><div class = numbers>J</div></div></button><button id = button_5 class = ""square num-button"" onclick = ""recordClick(this)""><div class = content><div class = numbers>K</div></div></button><button id = button_6 class = ""square num-button"" onclick = ""recordClick(this)""><div class = content><div class = numbers>L</div></div></button><button id = button_7 class = ""square num-button"" onclick = ""recordClick(this)""><div class = content><div class = numbers>N</div></div></button><button id = button_8 class = ""square num-button"" onclick = ""recordClick(this)""><div class = content><div class = numbers>P</div></div></button><button id = button_9 class = ""square num-button"" onclick = ""recordClick(this)""><div class = content><div class = numbers>Q</div></div></button><button id = button_10 class = ""square num-button"" onclick = ""recordClick(this)""><div class = content><div class = numbers>R</div></div></button><button id = button_11 class = ""square num-button"" onclick = ""recordClick(this)""><div class = content><div class = numbers>S</div></div></button><button id = button_12 class = ""square num-button"" onclick = ""recordClick(this)""><div class = content><div class = numbers>Y</div></div></button><button class = clear_button id = ""ClearButton"" onclick = ""clearResponse()"">BACKSPACE</button><button class = blank_button id = ""BlankButton"" onclick = ""blankResponse()"">SKIP</button><p style=""font-size: 2.4rem""><u><b>Current Answer:</b></u></p><br><br><div id=echoed_txt style=""font-size: 5rem; color:blue;""><b></b></div></div>",enter,ospan,retrieval,M4li8TXdcXOXxCabH8qn8CQAqSB3,html-keyboard-response,108,719794,0.0-46.0-3.0-0.0-2.0,3,3,3,3.0,"[""Y"",""P"",""C""]","[""Y"",""P"",""C""]",1.0,3.0,,,,,,,5ffa22d8dcae1e3cc129b6f6,20:39:51,04/04/2024
1223.9000000059605,[''],0,ospan,feedback,M4li8TXdcXOXxCabH8qn8CQAqSB3,html-button-response,109,721522,0.0-46.0-3.0-0.0-3.0,,,,,,,,,,,,100.0,0.0,,5ffa22d8dcae1e3cc129b6f6,20:39:51,04/04/2024
,"<p style=""font-size:75px;"">...</p>",,ospan,iti,M4li8TXdcXOXxCabH8qn8CQAqSB3,html-keyboard-response,110,722531,0.0-46.0-4.0-0.0-0.0,,,,,,,,,,,,,,,5ffa22d8dcae1e3cc129b6f6,20:39:51,04/04/2024
2254.0,,,ospan,symmetry,M4li8TXdcXOXxCabH8qn8CQAqSB3,symmetry-judgement-task,111,725883,0.0-46.0-4.0-0.0-1.0-0.0,,,,,,,,,,1.0,1.0,,,,5ffa22d8dcae1e3cc129b6f6,20:39:51,04/04/2024
,"<div style=""font-size: 10rem; color: #0000FF"">Y</div>",,ospan,letter,M4li8TXdcXOXxCabH8qn8CQAqSB3,html-keyboard-response,112,726898,0.0-46.0-4.0-0.0-1.0-1.0,,,,,,,,,,,,,,,5ffa22d8dcae1e3cc129b6f6,20:39:51,04/04/2024
1503.0,,,ospan,symmetry,M4li8TXdcXOXxCabH8qn8CQAqSB3,symmetry-judgement-task,113,730287,0.0-46.0-4.0-0.0-1.0-2.0,,,,,,,,,,1.0,1.0,,,,5ffa22d8dcae1e3cc129b6f6,20:39:51,04/04/2024
,"<div style=""font-size: 10rem; color: #0000FF"">G</div>",,ospan,letter,M4li8TXdcXOXxCabH8qn8CQAqSB3,html-keyboard-response,114,731300,0.0-46.0-4.0-0.0-1.0-3.0,,,,,,,,,,,,,,,5ffa22d8dcae1e3cc129b6f6,20:39:51,04/04/2024
2031.0,,,ospan,symmetry,M4li8TXdcXOXxCabH8qn8CQAqSB3,symmetry-judgement-task,115,735188,0.0-46.0-4.0-0.0-1.0-4.0,,,,,,,,,,1.0,1.0,,,,5ffa22d8dcae1e3cc129b6f6,20:39:51,04/04/2024
,"<div style=""font-size: 10rem; color: #0000FF"">R</div>",,ospan,letter,M4li8TXdcXOXxCabH8qn8CQAqSB3,html-keyboard-response,116,736204,0.0-46.0-4.0-0.0-1.0-5.0,,,,,,,,,,,,,,,5ffa22d8dcae1e3cc129b6f6,20:39:51,04/04/2024
2686.0,,,ospan,symmetry,M4li8TXdcXOXxCabH8qn8CQAqSB3,symmetry-judgement-task,117,740761,0.0-46.0-4.0-0.0-1.0-6.0,,,,,,,,,,1.0,1.0,,,,5ffa22d8dcae1e3cc129b6f6,20:39:51,04/04/2024
,"<div style=""font-size: 10rem; color: #0000FF"">J</div>",,ospan,letter,M4li8TXdcXOXxCabH8qn8CQAqSB3,html-keyboard-response,118,741768,0.0-46.0-4.0-0.0-1.0-7.0,,,,,,,,,,,,,,,5ffa22d8dcae1e3cc129b6f6,20:39:51,04/04/2024
8053.10000000149,"<div class = numbox><p style=""font-size: 2.4rem"">Please recall the letters you saw to the best of your ability. If you do not remember a particular letter, use the SKIP button.<br><b>(When you are ready to lock in your answer, press ENTER)</b></p><button id = button_1 class = ""square num-button"" onclick = ""recordClick(this)""><div class = content><div class = numbers>C</div></div></button><button id = button_2 class = ""square num-button"" onclick = ""recordClick(this)""><div class = content><div class = numbers>G</div></div></button><button id = button_3 class = ""square num-button"" onclick = ""recordClick(this)""><div class = content><div class = numbers>H</div></div></button><button id = button_4 class = ""square num-button"" onclick = ""recordClick(this)""><div class = content><div class = numbers>J</div></div></button><button id = button_5 class = ""square num-button"" onclick = ""recordClick(this)""><div class = content><div class = numbers>K</div></div></button><button id = button_6 class = ""square num-button"" onclick = ""recordClick(this)""><div class = content><div class = numbers>L</div></div></button><button id = button_7 class = ""square num-button"" onclick = ""recordClick(this)""><div class = content><div class = numbers>N</div></div></button><button id = button_8 class = ""square num-button"" onclick = ""recordClick(this)""><div class = content><div class = numbers>P</div></div></button><button id = button_9 class = ""square num-button"" onclick = ""recordClick(this)""><div class = content><div class = numbers>Q</div></div></button><button id = button_10 class = ""square num-button"" onclick = ""recordClick(this)""><div class = content><div class = numbers>R</div></div></button><button id = button_11 class = ""square num-button"" onclick = ""recordClick(this)""><div class = content><div class = numbers>S</div></div></button><button id = button_12 class = ""square num-button"" onclick = ""recordClick(this)""><div class = content><div class = numbers>Y</div></div></button><button class = clear_button id = ""ClearButton"" onclick = ""clearResponse()"">BACKSPACE</button><button class = blank_button id = ""BlankButton"" onclick = ""blankResponse()"">SKIP</button><p style=""font-size: 2.4rem""><u><b>Current Answer:</b></u></p><br><br><div id=echoed_txt style=""font-size: 5rem; color:blue;""><b></b></div></div>",enter,ospan,retrieval,M4li8TXdcXOXxCabH8qn8CQAqSB3,html-keyboard-response,119,750587,0.0-46.0-4.0-0.0-2.0,7,7,7,4.0,"[""Y"",""G"",""R"",""J""]","[""Y"",""G"",""R"",""J""]",1.0,4.0,,,,,,,5ffa22d8dcae1e3cc129b6f6,20:39:51,04/04/2024
2667.5,[''],0,ospan,feedback,M4li8TXdcXOXxCabH8qn8CQAqSB3,html-button-response,120,753771,0.0-46.0-4.0-0.0-3.0,,,,,,,,,,,,100.0,0.0,,5ffa22d8dcae1e3cc129b6f6,20:39:51,04/04/2024
,"<p style=""font-size:75px;"">...</p>",,ospan,iti,M4li8TXdcXOXxCabH8qn8CQAqSB3,html-keyboard-response,121,754781,0.0-46.0-4.0-1.0-0.0,,,,,,,,,,,,,,,5ffa22d8dcae1e3cc129b6f6,20:39:51,04/04/2024
1703.0,,,ospan,symmetry,M4li8TXdcXOXxCabH8qn8CQAqSB3,symmetry-judgement-task,122,757516,0.0-46.0-4.0-1.0-1.0-0.0,,,,,,,,,,1.0,1.0,,,,5ffa22d8dcae1e3cc129b6f6,20:39:51,04/04/2024
,"<div style=""font-size: 10rem; color: #0000FF"">G</div>",,ospan,letter,M4li8TXdcXOXxCabH8qn8CQAqSB3,html-keyboard-response,123,758531,0.0-46.0-4.0-1.0-1.0-1.0,,,,,,,,,,,,,,,5ffa22d8dcae1e3cc129b6f6,20:39:51,04/04/2024
1429.0,,,ospan,symmetry,M4li8TXdcXOXxCabH8qn8CQAqSB3,symmetry-judgement-task,124,761813,0.0-46.0-4.0-1.0-1.0-2.0,,,,,,,,,,1.0,1.0,,,,5ffa22d8dcae1e3cc129b6f6,20:39:51,04/04/2024
,"<div style=""font-size: 10rem; color: #0000FF"">J</div>",,ospan,letter,M4li8TXdcXOXxCabH8qn8CQAqSB3,html-keyboard-response,125,762817,0.0-46.0-4.0-1.0-1.0-3.0,,,,,,,,,,,,,,,5ffa22d8dcae1e3cc129b6f6,20:39:51,04/04/2024
1651.0,,,ospan,symmetry,M4li8TXdcXOXxCabH8qn8CQAqSB3,symmetry-judgement-task,126,766338,0.0-46.0-4.0-1.0-1.0-4.0,,,,,,,,,,1.0,1.0,,,,5ffa22d8dcae1e3cc129b6f6,20:39:51,04/04/2024
,"<div style=""font-size: 10rem; color: #0000FF"">S</div>",,ospan,letter,M4li8TXdcXOXxCabH8qn8CQAqSB3,html-keyboard-response,127,767354,0.0-46.0-4.0-1.0-1.0-5.0,,,,,,,,,,,,,,,5ffa22d8dcae1e3cc129b6f6,20:39:51,04/04/2024
1543.0,,,ospan,symmetry,M4li8TXdcXOXxCabH8qn8CQAqSB3,symmetry-judgement-task,128,770749,0.0-46.0-4.0-1.0-1.0-6.0,,,,,,,,,,1.0,1.0,,,,5ffa22d8dcae1e3cc129b6f6,20:39:51,04/04/2024
,"<div style=""font-size: 10rem; color: #0000FF"">L</div>",,ospan,letter,M4li8TXdcXOXxCabH8qn8CQAqSB3,html-keyboard-response,129,771760,0.0-46.0-4.0-1.0-1.0-7.0,,,,,,,,,,,,,,,5ffa22d8dcae1e3cc129b6f6,20:39:51,04/04/2024
1934.0,,,ospan,symmetry,M4li8TXdcXOXxCabH8qn8CQAqSB3,symmetry-judgement-task,130,775559,0.0-46.0-4.0-1.0-1.0-8.0,,,,,,,,,,1.0,1.0,,,,5ffa22d8dcae1e3cc129b6f6,20:39:51,04/04/2024
,"<div style=""font-size: 10rem; color: #0000FF"">Y</div>",,ospan,letter,M4li8TXdcXOXxCabH8qn8CQAqSB3,html-keyboard-response,131,776560,0.0-46.0-4.0-1.0-1.0-9.0,,,,,,,,,,,,,,,5ffa22d8dcae1e3cc129b6f6,20:39:51,04/04/2024
12706.89999999851,"<div class = numbox><p style=""font-size: 2.4rem"">Please recall the letters you saw to the best of your ability. If you do not remember a particular letter, use the SKIP button.<br><b>(When you are ready to lock in your answer, press ENTER)</b></p><button id = button_1 class = ""square num-button"" onclick = ""recordClick(this)""><div class = content><div class = numbers>C</div></div></button><button id = button_2 class = ""square num-button"" onclick = ""recordClick(this)""><div class = content><div class = numbers>G</div></div></button><button id = button_3 class = ""square num-button"" onclick = ""recordClick(this)""><div class = content><div class = numbers>H</div></div></button><button id = button_4 class = ""square num-button"" onclick = ""recordClick(this)""><div class = content><div class = numbers>J</div></div></button><button id = button_5 class = ""square num-button"" onclick = ""recordClick(this)""><div class = content><div class = numbers>K</div></div></button><button id = button_6 class = ""square num-button"" onclick = ""recordClick(this)""><div class = content><div class = numbers>L</div></div></button><button id = button_7 class = ""square num-button"" onclick = ""recordClick(this)""><div class = content><div class = numbers>N</div></div></button><button id = button_8 class = ""square num-button"" onclick = ""recordClick(this)""><div class = content><div class = numbers>P</div></div></button><button id = button_9 class = ""square num-button"" onclick = ""recordClick(this)""><div class = content><div class = numbers>Q</div></div></button><button id = button_10 class = ""square num-button"" onclick = ""recordClick(this)""><div class = content><div class = numbers>R</div></div></button><button id = button_11 class = ""square num-button"" onclick = ""recordClick(this)""><div class = content><div class = numbers>S</div></div></button><button id = button_12 class = ""square num-button"" onclick = ""recordClick(this)""><div class = content><div class = numbers>Y</div></div></button><button class = clear_button id = ""ClearButton"" onclick = ""clearResponse()"">BACKSPACE</button><button class = blank_button id = ""BlankButton"" onclick = ""blankResponse()"">SKIP</button><p style=""font-size: 2.4rem""><u><b>Current Answer:</b></u></p><br><br><div id=echoed_txt style=""font-size: 5rem; color:blue;""><b></b></div></div>",enter,ospan,retrieval,M4li8TXdcXOXxCabH8qn8CQAqSB3,html-keyboard-response,132,790029,0.0-46.0-4.0-1.0-2.0,12,11,7,5.0,"[""_"",""J"",""S"",""L"",""Y""]","[""G"",""J"",""S"",""L"",""Y""]",0.0,4.0,,,,,,,5ffa22d8dcae1e3cc129b6f6,20:39:51,04/04/2024
1137.1999999955297,[''],0,ospan,feedback,M4li8TXdcXOXxCabH8qn8CQAqSB3,html-button-response,133,791669,0.0-46.0-4.0-1.0-3.0,,,,,,,,,,,,100.0,0.0,,5ffa22d8dcae1e3cc129b6f6,20:39:51,04/04/2024
,"<p style=""font-size:75px;"">...</p>",,ospan,iti,M4li8TXdcXOXxCabH8qn8CQAqSB3,html-keyboard-response,134,792671,0.0-46.0-4.0-2.0-0.0,,,,,,,,,,,,,,,5ffa22d8dcae1e3cc129b6f6,20:39:51,04/04/2024
1764.0,,,ospan,symmetry,M4li8TXdcXOXxCabH8qn8CQAqSB3,symmetry-judgement-task,135,795549,0.0-46.0-4.0-2.0-1.0-0.0,,,,,,,,,,1.0,1.0,,,,5ffa22d8dcae1e3cc129b6f6,20:39:51,04/04/2024
,"<div style=""font-size: 10rem; color: #0000FF"">P</div>",,ospan,letter,M4li8TXdcXOXxCabH8qn8CQAqSB3,html-keyboard-response,136,796553,0.0-46.0-4.0-2.0-1.0-1.0,,,,,,,,,,,,,,,5ffa22d8dcae1e3cc129b6f6,20:39:51,04/04/2024
1743.0,,,ospan,symmetry,M4li8TXdcXOXxCabH8qn8CQAqSB3,symmetry-judgement-task,137,800173,0.0-46.0-4.0-2.0-1.0-2.0,,,,,,,,,,1.0,1.0,,,,5ffa22d8dcae1e3cc129b6f6,20:39:51,04/04/2024
,"<div style=""font-size: 10rem; color: #0000FF"">J</div>",,ospan,letter,M4li8TXdcXOXxCabH8qn8CQAqSB3,html-keyboard-response,138,801187,0.0-46.0-4.0-2.0-1.0-3.0,,,,,,,,,,,,,,,5ffa22d8dcae1e3cc129b6f6,20:39:51,04/04/2024
977.0,,,ospan,symmetry,M4li8TXdcXOXxCabH8qn8CQAqSB3,symmetry-judgement-task,139,804040,0.0-46.0-4.0-2.0-1.0-4.0,,,,,,,,,,1.0,1.0,,,,5ffa22d8dcae1e3cc129b6f6,20:39:51,04/04/2024
,"<div style=""font-size: 10rem; color: #0000FF"">G</div>",,ospan,letter,M4li8TXdcXOXxCabH8qn8CQAqSB3,html-keyboard-response,140,805055,0.0-46.0-4.0-2.0-1.0-5.0,,,,,,,,,,,,,,,5ffa22d8dcae1e3cc129b6f6,20:39:51,04/04/2024
8817.10000000149,"<div class = numbox><p style=""font-size: 2.4rem"">Please recall the letters you saw to the best of your ability. If you do not remember a particular letter, use the SKIP button.<br><b>(When you are ready to lock in your answer, press ENTER)</b></p><button id = button_1 class = ""square num-button"" onclick = ""recordClick(this)""><div class = content><div class = numbers>C</div></div></button><button id = button_2 class = ""square num-button"" onclick = ""recordClick(this)""><div class = content><div class = numbers>G</div></div></button><button id = button_3 class = ""square num-button"" onclick = ""recordClick(this)""><div class = content><div class = numbers>H</div></div></button><button id = button_4 class = ""square num-button"" onclick = ""recordClick(this)""><div class = content><div class = numbers>J</div></div></button><button id = button_5 class = ""square num-button"" onclick = ""recordClick(this)""><div class = content><div class = numbers>K</div></div></button><button id = button_6 class = ""square num-button"" onclick = ""recordClick(this)""><div class = content><div class = numbers>L</div></div></button><button id = button_7 class = ""square num-button"" onclick = ""recordClick(this)""><div class = content><div class = numbers>N</div></div></button><button id = button_8 class = ""square num-button"" onclick = ""recordClick(this)""><div class = content><div class = numbers>P</div></div></button><button id = button_9 class = ""square num-button"" onclick = ""recordClick(this)""><div class = content><div class = numbers>Q</div></div></button><button id = button_10 class = ""square num-button"" onclick = ""recordClick(this)""><div class = content><div class = numbers>R</div></div></button><button id = button_11 class = ""square num-button"" onclick = ""recordClick(this)""><div class = content><div class = numbers>S</div></div></button><button id = button_12 class = ""square num-button"" onclick = ""recordClick(this)""><div class = content><div class = numbers>Y</div></div></button><button class = clear_button id = ""ClearButton"" onclick = ""clearResponse()"">BACKSPACE</button><button class = blank_button id = ""BlankButton"" onclick = ""blankResponse()"">SKIP</button><p style=""font-size: 2.4rem""><u><b>Current Answer:</b></u></p><br><br><div id=echoed_txt style=""font-size: 5rem; color:blue;""><b></b></div></div>",enter,ospan,retrieval,M4li8TXdcXOXxCabH8qn8CQAqSB3,html-keyboard-response,141,814638,0.0-46.0-4.0-2.0-2.0,15,14,10,3.0,"[""P"",""J"",""G""]","[""P"",""J"",""G""]",1.0,3.0,,,,,,,5ffa22d8dcae1e3cc129b6f6,20:39:51,04/04/2024
3047.2999999970198,[''],0,ospan,feedback,M4li8TXdcXOXxCabH8qn8CQAqSB3,html-button-response,142,818198,0.0-46.0-4.0-2.0-3.0,,,,,,,,,,,,100.0,0.0,,5ffa22d8dcae1e3cc129b6f6,20:39:51,04/04/2024
,"<p style=""font-size:75px;"">...</p>",,ospan,iti,M4li8TXdcXOXxCabH8qn8CQAqSB3,html-keyboard-response,143,819204,0.0-46.0-5.0-0.0-0.0,,,,,,,,,,,,,,,5ffa22d8dcae1e3cc129b6f6,20:39:51,04/04/2024
1754.0,,,ospan,symmetry,M4li8TXdcXOXxCabH8qn8CQAqSB3,symmetry-judgement-task,144,822069,0.0-46.0-5.0-0.0-1.0-0.0,,,,,,,,,,1.0,1.0,,,,5ffa22d8dcae1e3cc129b6f6,20:39:51,04/04/2024
,"<div style=""font-size: 10rem; color: #0000FF"">Q</div>",,ospan,letter,M4li8TXdcXOXxCabH8qn8CQAqSB3,html-keyboard-response,145,823083,0.0-46.0-5.0-0.0-1.0-1.0,,,,,,,,,,,,,,,5ffa22d8dcae1e3cc129b6f6,20:39:51,04/04/2024
2281.0,,,ospan,symmetry,M4li8TXdcXOXxCabH8qn8CQAqSB3,symmetry-judgement-task,146,827240,0.0-46.0-5.0-0.0-1.0-2.0,,,,,,,,,,1.0,1.0,,,,5ffa22d8dcae1e3cc129b6f6,20:39:51,04/04/2024
,"<div style=""font-size: 10rem; color: #0000FF"">K</div>",,ospan,letter,M4li8TXdcXOXxCabH8qn8CQAqSB3,html-keyboard-response,147,828253,0.0-46.0-5.0-0.0-1.0-3.0,,,,,,,,,,,,,,,5ffa22d8dcae1e3cc129b6f6,20:39:51,04/04/2024
2209.0,,,ospan,symmetry,M4li8TXdcXOXxCabH8qn8CQAqSB3,symmetry-judgement-task,148,832350,0.0-46.0-5.0-0.0-1.0-4.0,,,,,,,,,,1.0,1.0,,,,5ffa22d8dcae1e3cc129b6f6,20:39:51,04/04/2024
,"<div style=""font-size: 10rem; color: #0000FF"">N</div>",,ospan,letter,M4li8TXdcXOXxCabH8qn8CQAqSB3,html-keyboard-response,149,833354,0.0-46.0-5.0-0.0-1.0-5.0,,,,,,,,,,,,,,,5ffa22d8dcae1e3cc129b6f6,20:39:51,04/04/2024
1067.0,,,ospan,symmetry,M4li8TXdcXOXxCabH8qn8CQAqSB3,symmetry-judgement-task,150,836274,0.0-46.0-5.0-0.0-1.0-6.0,,,,,,,,,,1.0,1.0,,,,5ffa22d8dcae1e3cc129b6f6,20:39:51,04/04/2024
,"<div style=""font-size: 10rem; color: #0000FF"">R</div>",,ospan,letter,M4li8TXdcXOXxCabH8qn8CQAqSB3,html-keyboard-response,151,837275,0.0-46.0-5.0-0.0-1.0-7.0,,,,,,,,,,,,,,,5ffa22d8dcae1e3cc129b6f6,20:39:51,04/04/2024
1832.0,,,ospan,symmetry,M4li8TXdcXOXxCabH8qn8CQAqSB3,symmetry-judgement-task,152,840971,0.0-46.0-5.0-0.0-1.0-8.0,,,,,,,,,,1.0,1.0,,,,5ffa22d8dcae1e3cc129b6f6,20:39:51,04/04/2024
,"<div style=""font-size: 10rem; color: #0000FF"">G</div>",,ospan,letter,M4li8TXdcXOXxCabH8qn8CQAqSB3,html-keyboard-response,153,841986,0.0-46.0-5.0-0.0-1.0-9.0,,,,,,,,,,,,,,,5ffa22d8dcae1e3cc129b6f6,20:39:51,04/04/2024
1751.0,,,ospan,symmetry,M4li8TXdcXOXxCabH8qn8CQAqSB3,symmetry-judgement-task,154,845608,0.0-46.0-5.0-0.0-1.0-10.0,,,,,,,,,,1.0,1.0,,,,5ffa22d8dcae1e3cc129b6f6,20:39:51,04/04/2024
,"<div style=""font-size: 10rem; color: #0000FF"">P</div>",,ospan,letter,M4li8TXdcXOXxCabH8qn8CQAqSB3,html-keyboard-response,155,846623,0.0-46.0-5.0-0.0-1.0-11.0,,,,,,,,,,,,,,,5ffa22d8dcae1e3cc129b6f6,20:39:51,04/04/2024
11251.89999999851,"<div class = numbox><p style=""font-size: 2.4rem"">Please recall the letters you saw to the best of your ability. If you do not remember a particular letter, use the SKIP button.<br><b>(When you are ready to lock in your answer, press ENTER)</b></p><button id = button_1 class = ""square num-button"" onclick = ""recordClick(this)""><div class = content><div class = numbers>C</div></div></button><button id = button_2 class = ""square num-button"" onclick = ""recordClick(this)""><div class = content><div class = numbers>G</div></div></button><button id = button_3 class = ""square num-button"" onclick = ""recordClick(this)""><div class = content><div class = numbers>H</div></div></button><button id = button_4 class = ""square num-button"" onclick = ""recordClick(this)""><div class = content><div class = numbers>J</div></div></button><button id = button_5 class = ""square num-button"" onclick = ""recordClick(this)""><div class = content><div class = numbers>K</div></div></button><button id = button_6 class = ""square num-button"" onclick = ""recordClick(this)""><div class = content><div class = numbers>L</div></div></button><button id = button_7 class = ""square num-button"" onclick = ""recordClick(this)""><div class = content><div class = numbers>N</div></div></button><button id = button_8 class = ""square num-button"" onclick = ""recordClick(this)""><div class = content><div class = numbers>P</div></div></button><button id = button_9 class = ""square num-button"" onclick = ""recordClick(this)""><div class = content><div class = numbers>Q</div></div></button><button id = button_10 class = ""square num-button"" onclick = ""recordClick(this)""><div class = content><div class = numbers>R</div></div></button><button id = button_11 class = ""square num-button"" onclick = ""recordClick(this)""><div class = content><div class = numbers>S</div></div></button><button id = button_12 class = ""square num-button"" onclick = ""recordClick(this)""><div class = content><div class = numbers>Y</div></div></button><button class = clear_button id = ""ClearButton"" onclick = ""clearResponse()"">BACKSPACE</button><button class = blank_button id = ""BlankButton"" onclick = ""blankResponse()"">SKIP</button><p style=""font-size: 2.4rem""><u><b>Current Answer:</b></u></p><br><br><div id=echoed_txt style=""font-size: 5rem; color:blue;""><b></b></div></div>",enter,ospan,retrieval,M4li8TXdcXOXxCabH8qn8CQAqSB3,html-keyboard-response,156,858640,0.0-46.0-5.0-0.0-2.0,21,18,10,6.0,"[""Q"",""K"",""_"",""_"",""G"",""P""]","[""Q"",""K"",""N"",""R"",""G"",""P""]",0.0,4.0,,,,,,,5ffa22d8dcae1e3cc129b6f6,20:39:51,04/04/2024
5109.30000000447,[''],0,ospan,feedback,M4li8TXdcXOXxCabH8qn8CQAqSB3,html-button-response,157,864256,0.0-46.0-5.0-0.0-3.0,,,,,,,,,,,,100.0,0.0,,5ffa22d8dcae1e3cc129b6f6,20:39:51,04/04/2024
,"<p style=""font-size:75px;"">...</p>",,ospan,iti,M4li8TXdcXOXxCabH8qn8CQAqSB3,html-keyboard-response,158,865258,0.0-46.0-5.0-1.0-0.0,,,,,,,,,,,,,,,5ffa22d8dcae1e3cc129b6f6,20:39:51,04/04/2024
1528.0,,,ospan,symmetry,M4li8TXdcXOXxCabH8qn8CQAqSB3,symmetry-judgement-task,159,867816,0.0-46.0-5.0-1.0-1.0-0.0,,,,,,,,,,1.0,1.0,,,,5ffa22d8dcae1e3cc129b6f6,20:39:51,04/04/2024
,"<div style=""font-size: 10rem; color: #0000FF"">Q</div>",,ospan,letter,M4li8TXdcXOXxCabH8qn8CQAqSB3,html-keyboard-response,160,868821,0.0-46.0-5.0-1.0-1.0-1.0,,,,,,,,,,,,,,,5ffa22d8dcae1e3cc129b6f6,20:39:51,04/04/2024
1358.0,,,ospan,symmetry,M4li8TXdcXOXxCabH8qn8CQAqSB3,symmetry-judgement-task,161,872072,0.0-46.0-5.0-1.0-1.0-2.0,,,,,,,,,,1.0,1.0,,,,5ffa22d8dcae1e3cc129b6f6,20:39:51,04/04/2024
,"<div style=""font-size: 10rem; color: #0000FF"">R</div>",,ospan,letter,M4li8TXdcXOXxCabH8qn8CQAqSB3,html-keyboard-response,162,873079,0.0-46.0-5.0-1.0-1.0-3.0,,,,,,,,,,,,,,,5ffa22d8dcae1e3cc129b6f6,20:39:51,04/04/2024
1750.0,,,ospan,symmetry,M4li8TXdcXOXxCabH8qn8CQAqSB3,symmetry-judgement-task,163,876690,0.0-46.0-5.0-1.0-1.0-4.0,,,,,,,,,,1.0,1.0,,,,5ffa22d8dcae1e3cc129b6f6,20:39:51,04/04/2024
,"<div style=""font-size: 10rem; color: #0000FF"">H</div>",,ospan,letter,M4li8TXdcXOXxCabH8qn8CQAqSB3,html-keyboard-response,164,877693,0.0-46.0-5.0-1.0-1.0-5.0,,,,,,,,,,,,,,,5ffa22d8dcae1e3cc129b6f6,20:39:51,04/04/2024
1933.0,,,ospan,symmetry,M4li8TXdcXOXxCabH8qn8CQAqSB3,symmetry-judgement-task,165,881478,0.0-46.0-5.0-1.0-1.0-6.0,,,,,,,,,,1.0,1.0,,,,5ffa22d8dcae1e3cc129b6f6,20:39:51,04/04/2024
,"<div style=""font-size: 10rem; color: #0000FF"">L</div>",,ospan,letter,M4li8TXdcXOXxCabH8qn8CQAqSB3,html-keyboard-response,166,882489,0.0-46.0-5.0-1.0-1.0-7.0,,,,,,,,,,,,,,,5ffa22d8dcae1e3cc129b6f6,20:39:51,04/04/2024
1105.0,,,ospan,symmetry,M4li8TXdcXOXxCabH8qn8CQAqSB3,symmetry-judgement-task,167,885458,0.0-46.0-5.0-1.0-1.0-8.0,,,,,,,,,,1.0,1.0,,,,5ffa22d8dcae1e3cc129b6f6,20:39:51,04/04/2024
,"<div style=""font-size: 10rem; color: #0000FF"">Y</div>",,ospan,letter,M4li8TXdcXOXxCabH8qn8CQAqSB3,html-keyboard-response,168,886473,0.0-46.0-5.0-1.0-1.0-9.0,,,,,,,,,,,,,,,5ffa22d8dcae1e3cc129b6f6,20:39:51,04/04/2024
2100.0,,,ospan,symmetry,M4li8TXdcXOXxCabH8qn8CQAqSB3,symmetry-judgement-task,169,890421,0.0-46.0-5.0-1.0-1.0-10.0,,,,,,,,,,1.0,1.0,,,,5ffa22d8dcae1e3cc129b6f6,20:39:51,04/04/2024
,"<div style=""font-size: 10rem; color: #0000FF"">K</div>",,ospan,letter,M4li8TXdcXOXxCabH8qn8CQAqSB3,html-keyboard-response,170,891437,0.0-46.0-5.0-1.0-1.0-11.0,,,,,,,,,,,,,,,5ffa22d8dcae1e3cc129b6f6,20:39:51,04/04/2024
1853.0,,,ospan,symmetry,M4li8TXdcXOXxCabH8qn8CQAqSB3,symmetry-judgement-task,171,895157,0.0-46.0-5.0-1.0-1.0-12.0,,,,,,,,,,1.0,1.0,,,,5ffa22d8dcae1e3cc129b6f6,20:39:51,04/04/2024
,"<div style=""font-size: 10rem; color: #0000FF"">J</div>",,ospan,letter,M4li8TXdcXOXxCabH8qn8CQAqSB3,html-keyboard-response,172,896167,0.0-46.0-5.0-1.0-1.0-13.0,,,,,,,,,,,,,,,5ffa22d8dcae1e3cc129b6f6,20:39:51,04/04/2024
12195.60000000149,"<div class = numbox><p style=""font-size: 2.4rem"">Please recall the letters you saw to the best of your ability. If you do not remember a particular letter, use the SKIP button.<br><b>(When you are ready to lock in your answer, press ENTER)</b></p><button id = button_1 class = ""square num-button"" onclick = ""recordClick(this)""><div class = content><div class = numbers>C</div></div></button><button id = button_2 class = ""square num-button"" onclick = ""recordClick(this)""><div class = content><div class = numbers>G</div></div></button><button id = button_3 class = ""square num-button"" onclick = ""recordClick(this)""><div class = content><div class = numbers>H</div></div></button><button id = button_4 class = ""square num-button"" onclick = ""recordClick(this)""><div class = content><div class = numbers>J</div></div></button><button id = button_5 class = ""square num-button"" onclick = ""recordClick(this)""><div class = content><div class = numbers>K</div></div></button><button id = button_6 class = ""square num-button"" onclick = ""recordClick(this)""><div class = content><div class = numbers>L</div></div></button><button id = button_7 class = ""square num-button"" onclick = ""recordClick(this)""><div class = content><div class = numbers>N</div></div></button><button id = button_8 class = ""square num-button"" onclick = ""recordClick(this)""><div class = content><div class = numbers>P</div></div></button><button id = button_9 class = ""square num-button"" onclick = ""recordClick(this)""><div class = content><div class = numbers>Q</div></div></button><button id = button_10 class = ""square num-button"" onclick = ""recordClick(this)""><div class = content><div class = numbers>R</div></div></button><button id = button_11 class = ""square num-button"" onclick = ""recordClick(this)""><div class = content><div class = numbers>S</div></div></button><button id = button_12 class = ""square num-button"" onclick = ""recordClick(this)""><div class = content><div class = numbers>Y</div></div></button><button class = clear_button id = ""ClearButton"" onclick = ""clearResponse()"">BACKSPACE</button><button class = blank_button id = ""BlankButton"" onclick = ""blankResponse()"">SKIP</button><p style=""font-size: 2.4rem""><u><b>Current Answer:</b></u></p><br><br><div id=echoed_txt style=""font-size: 5rem; color:blue;""><b></b></div></div>",enter,ospan,retrieval,M4li8TXdcXOXxCabH8qn8CQAqSB3,html-keyboard-response,173,909114,0.0-46.0-5.0-1.0-2.0,28,22,10,7.0,"[""Q"",""R"",""L"",""H"",""Y"",""K""]","[""Q"",""R"",""H"",""L"",""Y"",""K"",""J""]",0.0,4.0,,,,,,,5ffa22d8dcae1e3cc129b6f6,20:39:51,04/04/2024
1268.7999999970198,[''],0,ospan,feedback,M4li8TXdcXOXxCabH8qn8CQAqSB3,html-button-response,174,910891,0.0-46.0-5.0-1.0-3.0,,,,,,,,,,,,100.0,0.0,,5ffa22d8dcae1e3cc129b6f6,20:39:51,04/04/2024
,"<p style=""font-size:75px;"">...</p>",,ospan,iti,M4li8TXdcXOXxCabH8qn8CQAqSB3,html-keyboard-response,175,911892,0.0-46.0-6.0-0.0-0.0,,,,,,,,,,,,,,,5ffa22d8dcae1e3cc129b6f6,20:39:51,04/04/2024
2151.0,,,ospan,symmetry,M4li8TXdcXOXxCabH8qn8CQAqSB3,symmetry-judgement-task,176,915149,0.0-46.0-6.0-0.0-1.0-0.0,,,,,,,,,,1.0,1.0,,,,5ffa22d8dcae1e3cc129b6f6,20:39:51,04/04/2024
,"<div style=""font-size: 10rem; color: #0000FF"">G</div>",,ospan,letter,M4li8TXdcXOXxCabH8qn8CQAqSB3,html-keyboard-response,177,916164,0.0-46.0-6.0-0.0-1.0-1.0,,,,,,,,,,,,,,,5ffa22d8dcae1e3cc129b6f6,20:39:51,04/04/2024
1106.0,,,ospan,symmetry,M4li8TXdcXOXxCabH8qn8CQAqSB3,symmetry-judgement-task,178,919126,0.0-46.0-6.0-0.0-1.0-2.0,,,,,,,,,,1.0,1.0,,,,5ffa22d8dcae1e3cc129b6f6,20:39:51,04/04/2024
,"<div style=""font-size: 10rem; color: #0000FF"">P</div>",,ospan,letter,M4li8TXdcXOXxCabH8qn8CQAqSB3,html-keyboard-response,179,920141,0.0-46.0-6.0-0.0-1.0-3.0,,,,,,,,,,,,,,,5ffa22d8dcae1e3cc129b6f6,20:39:51,04/04/2024
1745.0,,,ospan,symmetry,M4li8TXdcXOXxCabH8qn8CQAqSB3,symmetry-judgement-task,180,923742,0.0-46.0-6.0-0.0-1.0-4.0,,,,,,,,,,1.0,1.0,,,,5ffa22d8dcae1e3cc129b6f6,20:39:51,04/04/2024
,"<div style=""font-size: 10rem; color: #0000FF"">C</div>",,ospan,letter,M4li8TXdcXOXxCabH8qn8CQAqSB3,html-keyboard-response,181,924745,0.0-46.0-6.0-0.0-1.0-5.0,,,,,,,,,,,,,,,5ffa22d8dcae1e3cc129b6f6,20:39:51,04/04/2024
1959.0,,,ospan,symmetry,M4li8TXdcXOXxCabH8qn8CQAqSB3,symmetry-judgement-task,182,928569,0.0-46.0-6.0-0.0-1.0-6.0,,,,,,,,,,1.0,1.0,,,,5ffa22d8dcae1e3cc129b6f6,20:39:51,04/04/2024
,"<div style=""font-size: 10rem; color: #0000FF"">R</div>",,ospan,letter,M4li8TXdcXOXxCabH8qn8CQAqSB3,html-keyboard-response,183,929585,0.0-46.0-6.0-0.0-1.0-7.0,,,,,,,,,,,,,,,5ffa22d8dcae1e3cc129b6f6,20:39:51,04/04/2024
1694.0,,,ospan,symmetry,M4li8TXdcXOXxCabH8qn8CQAqSB3,symmetry-judgement-task,184,933158,0.0-46.0-6.0-0.0-1.0-8.0,,,,,,,,,,1.0,1.0,,,,5ffa22d8dcae1e3cc129b6f6,20:39:51,04/04/2024
,"<div style=""font-size: 10rem; color: #0000FF"">N</div>",,ospan,letter,M4li8TXdcXOXxCabH8qn8CQAqSB3,html-keyboard-response,185,934172,0.0-46.0-6.0-0.0-1.0-9.0,,,,,,,,,,,,,,,5ffa22d8dcae1e3cc129b6f6,20:39:51,04/04/2024
8199.39999999851,"<div class = numbox><p style=""font-size: 2.4rem"">Please recall the letters you saw to the best of your ability. If you do not remember a particular letter, use the SKIP button.<br><b>(When you are ready to lock in your answer, press ENTER)</b></p><button id = button_1 class = ""square num-button"" onclick = ""recordClick(this)""><div class = content><div class = numbers>C</div></div></button><button id = button_2 class = ""square num-button"" onclick = ""recordClick(this)""><div class = content><div class = numbers>G</div></div></button><button id = button_3 class = ""square num-button"" onclick = ""recordClick(this)""><div class = content><div class = numbers>H</div></div></button><button id = button_4 class = ""square num-button"" onclick = ""recordClick(this)""><div class = content><div class = numbers>J</div></div></button><button id = button_5 class = ""square num-button"" onclick = ""recordClick(this)""><div class = content><div class = numbers>K</div></div></button><button id = button_6 class = ""square num-button"" onclick = ""recordClick(this)""><div class = content><div class = numbers>L</div></div></button><button id = button_7 class = ""square num-button"" onclick = ""recordClick(this)""><div class = content><div class = numbers>N</div></div></button><button id = button_8 class = ""square num-button"" onclick = ""recordClick(this)""><div class = content><div class = numbers>P</div></div></button><button id = button_9 class = ""square num-button"" onclick = ""recordClick(this)""><div class = content><div class = numbers>Q</div></div></button><button id = button_10 class = ""square num-button"" onclick = ""recordClick(this)""><div class = content><div class = numbers>R</div></div></button><button id = button_11 class = ""square num-button"" onclick = ""recordClick(this)""><div class = content><div class = numbers>S</div></div></button><button id = button_12 class = ""square num-button"" onclick = ""recordClick(this)""><div class = content><div class = numbers>Y</div></div></button><button class = clear_button id = ""ClearButton"" onclick = ""clearResponse()"">BACKSPACE</button><button class = blank_button id = ""BlankButton"" onclick = ""blankResponse()"">SKIP</button><p style=""font-size: 2.4rem""><u><b>Current Answer:</b></u></p><br><br><div id=echoed_txt style=""font-size: 5rem; color:blue;""><b></b></div></div>",enter,ospan,retrieval,M4li8TXdcXOXxCabH8qn8CQAqSB3,html-keyboard-response,186,943125,0.0-46.0-6.0-0.0-2.0,33,27,15,5.0,"[""G"",""P"",""C"",""R"",""N""]","[""G"",""P"",""C"",""R"",""N""]",1.0,5.0,,,,,,,5ffa22d8dcae1e3cc129b6f6,20:39:51,04/04/2024
1514.3999999985099,[''],0,ospan,feedback,M4li8TXdcXOXxCabH8qn8CQAqSB3,html-button-response,187,945140,0.0-46.0-6.0-0.0-3.0,,,,,,,,,,,,100.0,0.0,,5ffa22d8dcae1e3cc129b6f6,20:39:51,04/04/2024
,"<p style=""font-size:75px;"">...</p>",,ospan,iti,M4li8TXdcXOXxCabH8qn8CQAqSB3,html-keyboard-response,188,946144,0.0-46.0-6.0-1.0-0.0,,,,,,,,,,,,,,,5ffa22d8dcae1e3cc129b6f6,20:39:51,04/04/2024
1185.0,,,ospan,symmetry,M4li8TXdcXOXxCabH8qn8CQAqSB3,symmetry-judgement-task,189,948438,0.0-46.0-6.0-1.0-1.0-0.0,,,,,,,,,,1.0,1.0,,,,5ffa22d8dcae1e3cc129b6f6,20:39:51,04/04/2024
,"<div style=""font-size: 10rem; color: #0000FF"">L</div>",,ospan,letter,M4li8TXdcXOXxCabH8qn8CQAqSB3,html-keyboard-response,190,949452,0.0-46.0-6.0-1.0-1.0-1.0,,,,,,,,,,,,,,,5ffa22d8dcae1e3cc129b6f6,20:39:51,04/04/2024
1361.0,,,ospan,symmetry,M4li8TXdcXOXxCabH8qn8CQAqSB3,symmetry-judgement-task,191,952682,0.0-46.0-6.0-1.0-1.0-2.0,,,,,,,,,,1.0,1.0,,,,5ffa22d8dcae1e3cc129b6f6,20:39:51,04/04/2024
,"<div style=""font-size: 10rem; color: #0000FF"">K</div>",,ospan,letter,M4li8TXdcXOXxCabH8qn8CQAqSB3,html-keyboard-response,192,953691,0.0-46.0-6.0-1.0-1.0-3.0,,,,,,,,,,,,,,,5ffa22d8dcae1e3cc129b6f6,20:39:51,04/04/2024
1257.0,,,ospan,symmetry,M4li8TXdcXOXxCabH8qn8CQAqSB3,symmetry-judgement-task,193,956806,0.0-46.0-6.0-1.0-1.0-4.0,,,,,,,,,,1.0,1.0,,,,5ffa22d8dcae1e3cc129b6f6,20:39:51,04/04/2024
,"<div style=""font-size: 10rem; color: #0000FF"">S</div>",,ospan,letter,M4li8TXdcXOXxCabH8qn8CQAqSB3,html-keyboard-response,194,957823,0.0-46.0-6.0-1.0-1.0-5.0,,,,,,,,,,,,,,,5ffa22d8dcae1e3cc129b6f6,20:39:51,04/04/2024
1675.0,,,ospan,symmetry,M4li8TXdcXOXxCabH8qn8CQAqSB3,symmetry-judgement-task,195,961370,0.0-46.0-6.0-1.0-1.0-6.0,,,,,,,,,,1.0,1.0,,,,5ffa22d8dcae1e3cc129b6f6,20:39:51,04/04/2024
,"<div style=""font-size: 10rem; color: #0000FF"">H</div>",,ospan,letter,M4li8TXdcXOXxCabH8qn8CQAqSB3,html-keyboard-response,196,962371,0.0-46.0-6.0-1.0-1.0-7.0,,,,,,,,,,,,,,,5ffa22d8dcae1e3cc129b6f6,20:39:51,04/04/2024
1170.0,,,ospan,symmetry,M4li8TXdcXOXxCabH8qn8CQAqSB3,symmetry-judgement-task,197,965411,0.0-46.0-6.0-1.0-1.0-8.0,,,,,,,,,,1.0,1.0,,,,5ffa22d8dcae1e3cc129b6f6,20:39:51,04/04/2024
,"<div style=""font-size: 10rem; color: #0000FF"">C</div>",,ospan,letter,M4li8TXdcXOXxCabH8qn8CQAqSB3,html-keyboard-response,198,966426,0.0-46.0-6.0-1.0-1.0-9.0,,,,,,,,,,,,,,,5ffa22d8dcae1e3cc129b6f6,20:39:51,04/04/2024
1244.0,,,ospan,symmetry,M4li8TXdcXOXxCabH8qn8CQAqSB3,symmetry-judgement-task,199,969539,0.0-46.0-6.0-1.0-1.0-10.0,,,,,,,,,,1.0,1.0,,,,5ffa22d8dcae1e3cc129b6f6,20:39:51,04/04/2024
,"<div style=""font-size: 10rem; color: #0000FF"">N</div>",,ospan,letter,M4li8TXdcXOXxCabH8qn8CQAqSB3,html-keyboard-response,200,970543,0.0-46.0-6.0-1.0-1.0-11.0,,,,,,,,,,,,,,,5ffa22d8dcae1e3cc129b6f6,20:39:51,04/04/2024
967.0,,,ospan,symmetry,M4li8TXdcXOXxCabH8qn8CQAqSB3,symmetry-judgement-task,201,973384,0.0-46.0-6.0-1.0-1.0-12.0,,,,,,,,,,1.0,1.0,,,,5ffa22d8dcae1e3cc129b6f6,20:39:51,04/04/2024
,"<div style=""font-size: 10rem; color: #0000FF"">G</div>",,ospan,letter,M4li8TXdcXOXxCabH8qn8CQAqSB3,html-keyboard-response,202,974401,0.0-46.0-6.0-1.0-1.0-13.0,,,,,,,,,,,,,,,5ffa22d8dcae1e3cc129b6f6,20:39:51,04/04/2024
2615.0,,,ospan,symmetry,M4li8TXdcXOXxCabH8qn8CQAqSB3,symmetry-judgement-task,203,978876,0.0-46.0-6.0-1.0-1.0-14.0,,,,,,,,,,1.0,1.0,,,,5ffa22d8dcae1e3cc129b6f6,20:39:51,04/04/2024
,"<div style=""font-size: 10rem; color: #0000FF"">P</div>",,ospan,letter,M4li8TXdcXOXxCabH8qn8CQAqSB3,html-keyboard-response,204,979892,0.0-46.0-6.0-1.0-1.0-15.0,,,,,,,,,,,,,,,5ffa22d8dcae1e3cc129b6f6,20:39:51,04/04/2024
17058.59999999404,"<div class = numbox><p style=""font-size: 2.4rem"">Please recall the letters you saw to the best of your ability. If you do not remember a particular letter, use the SKIP button.<br><b>(When you are ready to lock in your answer, press ENTER)</b></p><button id = button_1 class = ""square num-button"" onclick = ""recordClick(this)""><div class = content><div class = numbers>C</div></div></button><button id = button_2 class = ""square num-button"" onclick = ""recordClick(this)""><div class = content><div class = numbers>G</div></div></button><button id = button_3 class = ""square num-button"" onclick = ""recordClick(this)""><div class = content><div class = numbers>H</div></div></button><button id = button_4 class = ""square num-button"" onclick = ""recordClick(this)""><div class = content><div class = numbers>J</div></div></button><button id = button_5 class = ""square num-button"" onclick = ""recordClick(this)""><div class = content><div class = numbers>K</div></div></button><button id = button_6 class = ""square num-button"" onclick = ""recordClick(this)""><div class = content><div class = numbers>L</div></div></button><button id = button_7 class = ""square num-button"" onclick = ""recordClick(this)""><div class = content><div class = numbers>N</div></div></button><button id = button_8 class = ""square num-button"" onclick = ""recordClick(this)""><div class = content><div class = numbers>P</div></div></button><button id = button_9 class = ""square num-button"" onclick = ""recordClick(this)""><div class = content><div class = numbers>Q</div></div></button><button id = button_10 class = ""square num-button"" onclick = ""recordClick(this)""><div class = content><div class = numbers>R</div></div></button><button id = button_11 class = ""square num-button"" onclick = ""recordClick(this)""><div class = content><div class = numbers>S</div></div></button><button id = button_12 class = ""square num-button"" onclick = ""recordClick(this)""><div class = content><div class = numbers>Y</div></div></button><button class = clear_button id = ""ClearButton"" onclick = ""clearResponse()"">BACKSPACE</button><button class = blank_button id = ""BlankButton"" onclick = ""blankResponse()"">SKIP</button><p style=""font-size: 2.4rem""><u><b>Current Answer:</b></u></p><br><br><div id=echoed_txt style=""font-size: 5rem; color:blue;""><b></b></div></div>",enter,ospan,retrieval,M4li8TXdcXOXxCabH8qn8CQAqSB3,html-keyboard-response,205,997703,0.0-46.0-6.0-1.0-2.0,41,32,15,8.0,"[""_"",""_"",""_"",""H"",""C"",""N"",""G"",""P""]","[""L"",""K"",""S"",""H"",""C"",""N"",""G"",""P""]",0.0,5.0,,,,,,,5ffa22d8dcae1e3cc129b6f6,20:39:51,04/04/2024
769.1000000014901,[''],0,ospan,feedback,M4li8TXdcXOXxCabH8qn8CQAqSB3,html-button-response,206,998975,0.0-46.0-6.0-1.0-3.0,,,,,,,,,,,,100.0,0.0,,5ffa22d8dcae1e3cc129b6f6,20:39:51,04/04/2024
46209.0,,{'Q0': 'everything was clear including both the instructions and the experiment but i did get a bit lost on the last one and forgot most of the letters'},ospan,survey_ospan,M4li8TXdcXOXxCabH8qn8CQAqSB3,lmdlab-survey-text,207,1045937,0.0-46.0-7.0,,,,,,,,,,,,,,M4li8TXdcXOXxCabH8qn8CQAqSB3,5ffa22d8dcae1e3cc129b6f6,20:39:51,04/04/2024
1127.2999999970198,<p><p style='font-size: 3rem'>Great work!<br><br>This completes the symmetry and memory task.</p><br><br><br>,0,ospan,finish,M4li8TXdcXOXxCabH8qn8CQAqSB3,html-button-response,208,1047065,0.0-46.0-8.0,41,32,15,,,,,,,,,100.0,,,5ffa22d8dcae1e3cc129b6f6,20:39:51,04/04/2024
