rt,stimulus,response,exp_name,exp_stage,subjectID,trial_type,trial_index,time_elapsed,internal_node_id,ospan_shown,ospan_total,ospan_abs,length,resp_actual,resp_correct,full_correct,num_correct,feedback,accuracy,correct,math_acc,math_warning,databaseID,prolificID,start_time,date
1775.0,<div class = 'left_align' style='font-size: 3.25rem; line-height: 1.3;'><p class = 'center_align'><b>Welcome to the Symmetry and Memory Task</b><br><br><br><br></p>Press 'continue' to show the instructions.<br><br><br><br></div>,0,ospan,instruct,SY98FtUWTZd6fhuqLt69ChMe9OE2,html-button-response,54,444828,0.0-46.0-0.0-0.0-0.0,,,,,,,,,,,,,,,63d3f99c57f6b09e77ce7c82,17:02:31,03/04/2024
8057.0,"<div class = 'left_align' style='font-size: 3.25rem; line-height: 1.3;'><p class = 'center_align'><b>Symmetry and Memory Task</b><br><br></p>In this task, you will try to memorize letters you see on the screen<br>while you also view black and white grid pictures.<br><br>In the next few minutes, you will have some practice to get you familiar<br>with how the task works.<br><br>It may be difficult sometimes, but please do not worry about making mistakes!<br><br>We will begin by practicing the letter part of the task.<br><br><br><br></div>",0,ospan,instruct,SY98FtUWTZd6fhuqLt69ChMe9OE2,html-button-response,55,453139,0.0-46.0-0.0-0.0-1.0,,,,,,,,,,,,,,,63d3f99c57f6b09e77ce7c82,17:02:31,03/04/2024
10320.0,"<div class = 'left_align' style='font-size: 3.25rem; line-height: 1.3;'>For this practice part, letters will appear on the screen one at a time.<br><br>Try to remember each letter in the order presented.<br><br>After some letters have been shown, you will see a response screen. Your<br>goal is to report the letters you saw <b>in order</b>. If you do not remember<br>a particular letter, you will have the option to leave it blank.<br><br><br><br></div>",0,ospan,instruct,SY98FtUWTZd6fhuqLt69ChMe9OE2,html-button-response,56,463718,0.0-46.0-0.0-0.0-2.0,,,,,,,,,,,,,,,63d3f99c57f6b09e77ce7c82,17:02:31,03/04/2024
3095.0,"<div class = 'left_align' style='font-size: 3.25rem; line-height: 1.3;'>Remember, it is very important to get the letters in the same<br>order as you see them.<br><br>When you are ready, you may begin the letter practice.</div><br><br><br><br>",0,ospan,instruct,SY98FtUWTZd6fhuqLt69ChMe9OE2,html-button-response,57,467072,0.0-46.0-0.0-0.0-3.0,,,,,,,,,,,,,,,63d3f99c57f6b09e77ce7c82,17:02:31,03/04/2024
,"<p style=""font-size:75px;"">...</p>",,ospan,iti,SY98FtUWTZd6fhuqLt69ChMe9OE2,html-keyboard-response,58,468334,0.0-46.0-0.0-1.0-0.0,,,,,,,,,,,,,,,63d3f99c57f6b09e77ce7c82,17:02:31,03/04/2024
,"<div style=""font-size: 10rem; color: #0000FF"">K</div>",,ospan,letter,SY98FtUWTZd6fhuqLt69ChMe9OE2,html-keyboard-response,59,469340,0.0-46.0-0.0-1.0-1.0,,,,,,,,,,,,,,,63d3f99c57f6b09e77ce7c82,17:02:31,03/04/2024
,"<div style=""font-size: 10rem; color: #0000FF"">N</div>",,ospan,letter,SY98FtUWTZd6fhuqLt69ChMe9OE2,html-keyboard-response,60,471099,0.0-46.0-0.0-1.0-2.0,,,,,,,,,,,,,,,63d3f99c57f6b09e77ce7c82,17:02:31,03/04/2024
6351.0,"<div class = numbox><p style=""font-size: 2.4rem"">Please recall the letters you saw to the best of your ability. If you do not remember a particular letter, use the SKIP button.<br><b>(When you are ready to lock in your answer, press ENTER)</b></p><button id = button_1 class = ""square num-button"" onclick = ""recordClick(this)""><div class = content><div class = numbers>C</div></div></button><button id = button_2 class = ""square num-button"" onclick = ""recordClick(this)""><div class = content><div class = numbers>G</div></div></button><button id = button_3 class = ""square num-button"" onclick = ""recordClick(this)""><div class = content><div class = numbers>H</div></div></button><button id = button_4 class = ""square num-button"" onclick = ""recordClick(this)""><div class = content><div class = numbers>J</div></div></button><button id = button_5 class = ""square num-button"" onclick = ""recordClick(this)""><div class = content><div class = numbers>K</div></div></button><button id = button_6 class = ""square num-button"" onclick = ""recordClick(this)""><div class = content><div class = numbers>L</div></div></button><button id = button_7 class = ""square num-button"" onclick = ""recordClick(this)""><div class = content><div class = numbers>N</div></div></button><button id = button_8 class = ""square num-button"" onclick = ""recordClick(this)""><div class = content><div class = numbers>P</div></div></button><button id = button_9 class = ""square num-button"" onclick = ""recordClick(this)""><div class = content><div class = numbers>Q</div></div></button><button id = button_10 class = ""square num-button"" onclick = ""recordClick(this)""><div class = content><div class = numbers>R</div></div></button><button id = button_11 class = ""square num-button"" onclick = ""recordClick(this)""><div class = content><div class = numbers>S</div></div></button><button id = button_12 class = ""square num-button"" onclick = ""recordClick(this)""><div class = content><div class = numbers>Y</div></div></button><button class = clear_button id = ""ClearButton"" onclick = ""clearResponse()"">BACKSPACE</button><button class = blank_button id = ""BlankButton"" onclick = ""blankResponse()"">SKIP</button><p style=""font-size: 2.4rem""><u><b>Current Answer:</b></u></p><br><br><div id=echoed_txt style=""font-size: 5rem; color:blue;""><b></b></div></div>",enter,ospan,retrieval,SY98FtUWTZd6fhuqLt69ChMe9OE2,html-keyboard-response,61,478204,0.0-46.0-0.0-1.0-3.0,NA,NA,NA,2.0,"[""K"",""N""]","[""K"",""N""]",1.0,2.0,"['<font color=""green"">K</font>', '<font color=""green"">N</font>']",,,,,,63d3f99c57f6b09e77ce7c82,17:02:31,03/04/2024
1641.0,"['<p style=""font-size:44px"">Letters:<br><br><br><font color=""green"">K</font> <font color=""green"">N</font></p><br><br>']",0,ospan,practice_feedback,SY98FtUWTZd6fhuqLt69ChMe9OE2,html-button-response,62,480383,0.0-46.0-0.0-1.0-4.0,,,,,,,,,,,,,,,63d3f99c57f6b09e77ce7c82,17:02:31,03/04/2024
,"<p style=""font-size:75px;"">...</p>",,ospan,iti,SY98FtUWTZd6fhuqLt69ChMe9OE2,html-keyboard-response,63,481390,0.0-46.0-0.0-2.0-0.0,,,,,,,,,,,,,,,63d3f99c57f6b09e77ce7c82,17:02:31,03/04/2024
,"<div style=""font-size: 10rem; color: #0000FF"">L</div>",,ospan,letter,SY98FtUWTZd6fhuqLt69ChMe9OE2,html-keyboard-response,64,482397,0.0-46.0-0.0-2.0-1.0,,,,,,,,,,,,,,,63d3f99c57f6b09e77ce7c82,17:02:31,03/04/2024
,"<div style=""font-size: 10rem; color: #0000FF"">N</div>",,ospan,letter,SY98FtUWTZd6fhuqLt69ChMe9OE2,html-keyboard-response,65,484158,0.0-46.0-0.0-2.0-2.0,,,,,,,,,,,,,,,63d3f99c57f6b09e77ce7c82,17:02:31,03/04/2024
,"<div style=""font-size: 10rem; color: #0000FF"">R</div>",,ospan,letter,SY98FtUWTZd6fhuqLt69ChMe9OE2,html-keyboard-response,66,485919,0.0-46.0-0.0-2.0-3.0,,,,,,,,,,,,,,,63d3f99c57f6b09e77ce7c82,17:02:31,03/04/2024
2877.0,"<div class = numbox><p style=""font-size: 2.4rem"">Please recall the letters you saw to the best of your ability. If you do not remember a particular letter, use the SKIP button.<br><b>(When you are ready to lock in your answer, press ENTER)</b></p><button id = button_1 class = ""square num-button"" onclick = ""recordClick(this)""><div class = content><div class = numbers>C</div></div></button><button id = button_2 class = ""square num-button"" onclick = ""recordClick(this)""><div class = content><div class = numbers>G</div></div></button><button id = button_3 class = ""square num-button"" onclick = ""recordClick(this)""><div class = content><div class = numbers>H</div></div></button><button id = button_4 class = ""square num-button"" onclick = ""recordClick(this)""><div class = content><div class = numbers>J</div></div></button><button id = button_5 class = ""square num-button"" onclick = ""recordClick(this)""><div class = content><div class = numbers>K</div></div></button><button id = button_6 class = ""square num-button"" onclick = ""recordClick(this)""><div class = content><div class = numbers>L</div></div></button><button id = button_7 class = ""square num-button"" onclick = ""recordClick(this)""><div class = content><div class = numbers>N</div></div></button><button id = button_8 class = ""square num-button"" onclick = ""recordClick(this)""><div class = content><div class = numbers>P</div></div></button><button id = button_9 class = ""square num-button"" onclick = ""recordClick(this)""><div class = content><div class = numbers>Q</div></div></button><button id = button_10 class = ""square num-button"" onclick = ""recordClick(this)""><div class = content><div class = numbers>R</div></div></button><button id = button_11 class = ""square num-button"" onclick = ""recordClick(this)""><div class = content><div class = numbers>S</div></div></button><button id = button_12 class = ""square num-button"" onclick = ""recordClick(this)""><div class = content><div class = numbers>Y</div></div></button><button class = clear_button id = ""ClearButton"" onclick = ""clearResponse()"">BACKSPACE</button><button class = blank_button id = ""BlankButton"" onclick = ""blankResponse()"">SKIP</button><p style=""font-size: 2.4rem""><u><b>Current Answer:</b></u></p><br><br><div id=echoed_txt style=""font-size: 5rem; color:blue;""><b></b></div></div>",enter,ospan,retrieval,SY98FtUWTZd6fhuqLt69ChMe9OE2,html-keyboard-response,67,489554,0.0-46.0-0.0-2.0-4.0,NA,NA,NA,3.0,"[""L"",""N"",""R""]","[""L"",""N"",""R""]",1.0,3.0,"['<font color=""green"">L</font>', '<font color=""green"">N</font>', '<font color=""green"">R</font>']",,,,,,63d3f99c57f6b09e77ce7c82,17:02:31,03/04/2024
1183.0,"['<p style=""font-size:44px"">Letters:<br><br><br><font color=""green"">L</font> <font color=""green"">N</font> <font color=""green"">R</font></p><br><br>']",0,ospan,practice_feedback,SY98FtUWTZd6fhuqLt69ChMe9OE2,html-button-response,68,491244,0.0-46.0-0.0-2.0-5.0,,,,,,,,,,,,,,,63d3f99c57f6b09e77ce7c82,17:02:31,03/04/2024
11085.0,"<div class = 'left_align' style='font-size: 3.25rem; line-height: 1.3;'>Now you will practice doing the <b>symmetry judgment part</b> of the experiment.<br><br>A black and white grid picture will appear on the screen and you have to judge if it is <br>symmetrical or asymetrical.<br><br>A picture is 'mirror' symmetrical if its left half is identical to the right half when flipped.<br>Here are examples of a symmetrical and an asymetrical picture:<br><br><center><img src='Stimuli/img/symm_instructions_extra.png' style='height:420px; width:900'></img></center><br>To judge symmetry, imagine you were to fold each picture down the middle, like a book –<br>would the left half match the right half when folded onto each other?<br><br></div><br>",0,ospan,instruct,SY98FtUWTZd6fhuqLt69ChMe9OE2,html-button-response,69,502333,0.0-46.0-1.0-0.0-0.0,,,,,,,,,,,,,,,63d3f99c57f6b09e77ce7c82,17:02:31,03/04/2024
6416.0,"<div class = 'left_align' style='font-size: 3.25rem; line-height: 1.3;'>When you have viewed the picture and determined whether it is symmetrical or not,<br>you can <b>click the Yes or No button</b> below to answer.<br><br>If you take longer than 15 seconds, it will continue automatically<br>and record the answer as an error.</div><br>",0,ospan,instruct,SY98FtUWTZd6fhuqLt69ChMe9OE2,html-button-response,70,509029,0.0-46.0-1.0-0.0-1.0,,,,,,,,,,,,,,,63d3f99c57f6b09e77ce7c82,17:02:31,03/04/2024
7257.0,"<div class = 'left_align' style='font-size: 3.25rem; line-height: 1.3;'>It is <b>very</b> important that you make the symmetry judgment correctly.<br><br>It is also important that you try and judge the picture as quickly as you can.<br><br>When you are ready, click on the button below to try some practice problems.</div><br><br><br><br>",0,ospan,instruct,SY98FtUWTZd6fhuqLt69ChMe9OE2,html-button-response,71,516545,0.0-46.0-1.0-0.0-2.0,,,,,,,,,,,,,,,63d3f99c57f6b09e77ce7c82,17:02:31,03/04/2024
2145.0,,,ospan,symmetry,SY98FtUWTZd6fhuqLt69ChMe9OE2,symmetry-judgement-task,72,519530,0.0-46.0-1.0-1.0-0.0,,,,,,,,,,1.0,1.0,,,,63d3f99c57f6b09e77ce7c82,17:02:31,03/04/2024
,"<p style=""color:green; font-size: 35px"">Correct</p>",,ospan,feedback,SY98FtUWTZd6fhuqLt69ChMe9OE2,html-keyboard-response,73,520288,0.0-46.0-1.0-1.0-1.0,,,,,,,,,,,,,,,63d3f99c57f6b09e77ce7c82,17:02:31,03/04/2024
1110.0,,,ospan,symmetry,SY98FtUWTZd6fhuqLt69ChMe9OE2,symmetry-judgement-task,74,523967,0.0-46.0-1.0-1.0-2.0,,,,,,,,,,1.0,1.0,,,,63d3f99c57f6b09e77ce7c82,17:02:31,03/04/2024
,"<p style=""color:green; font-size: 35px"">Correct</p>",,ospan,feedback,SY98FtUWTZd6fhuqLt69ChMe9OE2,html-keyboard-response,75,524720,0.0-46.0-1.0-1.0-3.0,,,,,,,,,,,,,,,63d3f99c57f6b09e77ce7c82,17:02:31,03/04/2024
1219.0,,,ospan,symmetry,SY98FtUWTZd6fhuqLt69ChMe9OE2,symmetry-judgement-task,76,528502,0.0-46.0-1.0-1.0-4.0,,,,,,,,,,1.0,1.0,,,,63d3f99c57f6b09e77ce7c82,17:02:31,03/04/2024
,"<p style=""color:green; font-size: 35px"">Correct</p>",,ospan,feedback,SY98FtUWTZd6fhuqLt69ChMe9OE2,html-keyboard-response,77,529260,0.0-46.0-1.0-1.0-5.0,,,,,,,,,,,,,,,63d3f99c57f6b09e77ce7c82,17:02:31,03/04/2024
1244.0,"<p style=""font-size: 3rem;"">You responded correctly on 3 of 3 symmetry judgments. Good job!</p><br><br>",0,ospan,practice,SY98FtUWTZd6fhuqLt69ChMe9OE2,html-button-response,78,532514,0.0-46.0-1.0-2.0,,,,,,,,,,,,,,,63d3f99c57f6b09e77ce7c82,17:02:31,03/04/2024
2734.0,"<div class = 'left_align' style='font-size: 3.25rem; line-height: 1.3;'>Now you will practice doing both parts of the experiment at the same time.<br><br>In the next practice set, you will be given one grid picture to judge.<br>Then letter will appear on the screen. Try to remember the letter.<br><br>It is <b>very important</b> to make the symmetry judgment as quickly and accurately as possible.<br><br>Just as before, once you have make the symmetry judgment, you can click Yes or No.<br><b>Note that you will no longer see Correct or Incorrect feedback.</div><br><br><br><br>",0,ospan,instruct,SY98FtUWTZd6fhuqLt69ChMe9OE2,html-button-response,79,535506,0.0-46.0-2.0-0.0-0.0,,,,,,,,,,,,,,,63d3f99c57f6b09e77ce7c82,17:02:31,03/04/2024
8536.0,"<div class = 'left_align' style='font-size: 3.25rem; line-height: 1.3;'>After the letter goes away, another grid picture will appear, and then<br>another letter.<br><br>At the end of each set of letters and grids, you will recall the letters to the best<br>of your ability. Remember, try your best to get the letters in the correct order.<br><br>It is important to <b>quickly</b> and <b>accurately</b> make the symmetry judgments.</div><br><br><br><br>",0,ospan,instruct,SY98FtUWTZd6fhuqLt69ChMe9OE2,html-button-response,80,544299,0.0-46.0-2.0-0.0-1.0,,,,,,,,,,,,,,,63d3f99c57f6b09e77ce7c82,17:02:31,03/04/2024
7635.0,"<div class = 'left_align' style='font-size: 3.25rem; line-height: 1.3;'>On the feedback screen, if you are not doing well at the symmetry judgments,<br>you will also see a warning in the middle. This indicates your percent <br>correct for the grid pictures for the entire experiment.<br><br>It is <b>very</b> important for you to keep accuracy at least at 85%: <u>We can only use<br>data where the participant was at least 85% accurate on the judgments.</u> Therefore,<br> please try your best to perform well on the symmetry judgments, <b>at the same time</b><br>doing your best to recall as many letters as possible.<br><br>Click the button to try some practice problems.</div><br><br><br><br>",0,ospan,instruct,SY98FtUWTZd6fhuqLt69ChMe9OE2,html-button-response,81,552194,0.0-46.0-2.0-0.0-2.0,,,,,,,,,,,,,,,63d3f99c57f6b09e77ce7c82,17:02:31,03/04/2024
,"<p style=""font-size:75px;"">...</p>",,ospan,iti,SY98FtUWTZd6fhuqLt69ChMe9OE2,html-keyboard-response,82,553458,0.0-46.0-2.0-1.0-0.0,,,,,,,,,,,,,,,63d3f99c57f6b09e77ce7c82,17:02:31,03/04/2024
1576.0,,,ospan,symmetry,SY98FtUWTZd6fhuqLt69ChMe9OE2,symmetry-judgement-task,83,556101,0.0-46.0-2.0-1.0-1.0-0.0,,,,,,,,,,1.0,1.0,,,,63d3f99c57f6b09e77ce7c82,17:02:31,03/04/2024
,"<div style=""font-size: 10rem; color: #0000FF"">J</div>",,ospan,letter,SY98FtUWTZd6fhuqLt69ChMe9OE2,html-keyboard-response,84,557103,0.0-46.0-2.0-1.0-1.0-1.0,,,,,,,,,,,,,,,63d3f99c57f6b09e77ce7c82,17:02:31,03/04/2024
1246.0,,,ospan,symmetry,SY98FtUWTZd6fhuqLt69ChMe9OE2,symmetry-judgement-task,85,560163,0.0-46.0-2.0-1.0-1.0-2.0,,,,,,,,,,1.0,1.0,,,,63d3f99c57f6b09e77ce7c82,17:02:31,03/04/2024
,"<div style=""font-size: 10rem; color: #0000FF"">K</div>",,ospan,letter,SY98FtUWTZd6fhuqLt69ChMe9OE2,html-keyboard-response,86,561166,0.0-46.0-2.0-1.0-1.0-3.0,,,,,,,,,,,,,,,63d3f99c57f6b09e77ce7c82,17:02:31,03/04/2024
971.0,,,ospan,symmetry,SY98FtUWTZd6fhuqLt69ChMe9OE2,symmetry-judgement-task,87,563953,0.0-46.0-2.0-1.0-1.0-4.0,,,,,,,,,,1.0,1.0,,,,63d3f99c57f6b09e77ce7c82,17:02:31,03/04/2024
,"<div style=""font-size: 10rem; color: #0000FF"">C</div>",,ospan,letter,SY98FtUWTZd6fhuqLt69ChMe9OE2,html-keyboard-response,88,564960,0.0-46.0-2.0-1.0-1.0-5.0,,,,,,,,,,,,,,,63d3f99c57f6b09e77ce7c82,17:02:31,03/04/2024
4095.0,"<div class = numbox><p style=""font-size: 2.4rem"">Please recall the letters you saw to the best of your ability. If you do not remember a particular letter, use the SKIP button.<br><b>(When you are ready to lock in your answer, press ENTER)</b></p><button id = button_1 class = ""square num-button"" onclick = ""recordClick(this)""><div class = content><div class = numbers>C</div></div></button><button id = button_2 class = ""square num-button"" onclick = ""recordClick(this)""><div class = content><div class = numbers>G</div></div></button><button id = button_3 class = ""square num-button"" onclick = ""recordClick(this)""><div class = content><div class = numbers>H</div></div></button><button id = button_4 class = ""square num-button"" onclick = ""recordClick(this)""><div class = content><div class = numbers>J</div></div></button><button id = button_5 class = ""square num-button"" onclick = ""recordClick(this)""><div class = content><div class = numbers>K</div></div></button><button id = button_6 class = ""square num-button"" onclick = ""recordClick(this)""><div class = content><div class = numbers>L</div></div></button><button id = button_7 class = ""square num-button"" onclick = ""recordClick(this)""><div class = content><div class = numbers>N</div></div></button><button id = button_8 class = ""square num-button"" onclick = ""recordClick(this)""><div class = content><div class = numbers>P</div></div></button><button id = button_9 class = ""square num-button"" onclick = ""recordClick(this)""><div class = content><div class = numbers>Q</div></div></button><button id = button_10 class = ""square num-button"" onclick = ""recordClick(this)""><div class = content><div class = numbers>R</div></div></button><button id = button_11 class = ""square num-button"" onclick = ""recordClick(this)""><div class = content><div class = numbers>S</div></div></button><button id = button_12 class = ""square num-button"" onclick = ""recordClick(this)""><div class = content><div class = numbers>Y</div></div></button><button class = clear_button id = ""ClearButton"" onclick = ""clearResponse()"">BACKSPACE</button><button class = blank_button id = ""BlankButton"" onclick = ""blankResponse()"">SKIP</button><p style=""font-size: 2.4rem""><u><b>Current Answer:</b></u></p><br><br><div id=echoed_txt style=""font-size: 5rem; color:blue;""><b></b></div></div>",enter,ospan,retrieval,SY98FtUWTZd6fhuqLt69ChMe9OE2,html-keyboard-response,89,569812,0.0-46.0-2.0-1.0-2.0-0.0,NA,NA,NA,3.0,"[""J"",""K"",""C""]","[""J"",""K"",""C""]",1.0,3.0,"['<font color=""green"">J</font>', '<font color=""green"">K</font>', '<font color=""green"">C</font>']",,,,,,63d3f99c57f6b09e77ce7c82,17:02:31,03/04/2024
1723.0,"['<p style=""font-size:44px"">Letters:<br><br><br><font color=""green"">J</font> <font color=""green"">K</font> <font color=""green"">C</font></p><br><br><p style=""font-size:30px"">Symmetry:<br><br><font color=""green"">100%</font></p><br><br>']",0,ospan,practice_feedback,SY98FtUWTZd6fhuqLt69ChMe9OE2,html-button-response,90,572039,0.0-46.0-2.0-1.0-2.0-1.0,,,,,,,,,,,,,,,63d3f99c57f6b09e77ce7c82,17:02:31,03/04/2024
,"<p style=""font-size:75px;"">...</p>",,ospan,iti,SY98FtUWTZd6fhuqLt69ChMe9OE2,html-keyboard-response,91,573044,0.0-46.0-2.0-2.0-0.0,,,,,,,,,,,,,,,63d3f99c57f6b09e77ce7c82,17:02:31,03/04/2024
1754.0,,,ospan,symmetry,SY98FtUWTZd6fhuqLt69ChMe9OE2,symmetry-judgement-task,92,575853,0.0-46.0-2.0-2.0-1.0-0.0,,,,,,,,,,1.0,1.0,,,,63d3f99c57f6b09e77ce7c82,17:02:31,03/04/2024
,"<div style=""font-size: 10rem; color: #0000FF"">H</div>",,ospan,letter,SY98FtUWTZd6fhuqLt69ChMe9OE2,html-keyboard-response,93,576860,0.0-46.0-2.0-2.0-1.0-1.0,,,,,,,,,,,,,,,63d3f99c57f6b09e77ce7c82,17:02:31,03/04/2024
965.0,,,ospan,symmetry,SY98FtUWTZd6fhuqLt69ChMe9OE2,symmetry-judgement-task,94,579645,0.0-46.0-2.0-2.0-1.0-2.0,,,,,,,,,,1.0,1.0,,,,63d3f99c57f6b09e77ce7c82,17:02:31,03/04/2024
,"<div style=""font-size: 10rem; color: #0000FF"">Y</div>",,ospan,letter,SY98FtUWTZd6fhuqLt69ChMe9OE2,html-keyboard-response,95,580707,0.0-46.0-2.0-2.0-1.0-3.0,,,,,,,,,,,,,,,63d3f99c57f6b09e77ce7c82,17:02:31,03/04/2024
1225.0,,,ospan,symmetry,SY98FtUWTZd6fhuqLt69ChMe9OE2,symmetry-judgement-task,96,583737,0.0-46.0-2.0-2.0-1.0-4.0,,,,,,,,,,1.0,1.0,,,,63d3f99c57f6b09e77ce7c82,17:02:31,03/04/2024
,"<div style=""font-size: 10rem; color: #0000FF"">L</div>",,ospan,letter,SY98FtUWTZd6fhuqLt69ChMe9OE2,html-keyboard-response,97,584745,0.0-46.0-2.0-2.0-1.0-5.0,,,,,,,,,,,,,,,63d3f99c57f6b09e77ce7c82,17:02:31,03/04/2024
3501.0,"<div class = numbox><p style=""font-size: 2.4rem"">Please recall the letters you saw to the best of your ability. If you do not remember a particular letter, use the SKIP button.<br><b>(When you are ready to lock in your answer, press ENTER)</b></p><button id = button_1 class = ""square num-button"" onclick = ""recordClick(this)""><div class = content><div class = numbers>C</div></div></button><button id = button_2 class = ""square num-button"" onclick = ""recordClick(this)""><div class = content><div class = numbers>G</div></div></button><button id = button_3 class = ""square num-button"" onclick = ""recordClick(this)""><div class = content><div class = numbers>H</div></div></button><button id = button_4 class = ""square num-button"" onclick = ""recordClick(this)""><div class = content><div class = numbers>J</div></div></button><button id = button_5 class = ""square num-button"" onclick = ""recordClick(this)""><div class = content><div class = numbers>K</div></div></button><button id = button_6 class = ""square num-button"" onclick = ""recordClick(this)""><div class = content><div class = numbers>L</div></div></button><button id = button_7 class = ""square num-button"" onclick = ""recordClick(this)""><div class = content><div class = numbers>N</div></div></button><button id = button_8 class = ""square num-button"" onclick = ""recordClick(this)""><div class = content><div class = numbers>P</div></div></button><button id = button_9 class = ""square num-button"" onclick = ""recordClick(this)""><div class = content><div class = numbers>Q</div></div></button><button id = button_10 class = ""square num-button"" onclick = ""recordClick(this)""><div class = content><div class = numbers>R</div></div></button><button id = button_11 class = ""square num-button"" onclick = ""recordClick(this)""><div class = content><div class = numbers>S</div></div></button><button id = button_12 class = ""square num-button"" onclick = ""recordClick(this)""><div class = content><div class = numbers>Y</div></div></button><button class = clear_button id = ""ClearButton"" onclick = ""clearResponse()"">BACKSPACE</button><button class = blank_button id = ""BlankButton"" onclick = ""blankResponse()"">SKIP</button><p style=""font-size: 2.4rem""><u><b>Current Answer:</b></u></p><br><br><div id=echoed_txt style=""font-size: 5rem; color:blue;""><b></b></div></div>",enter,ospan,retrieval,SY98FtUWTZd6fhuqLt69ChMe9OE2,html-keyboard-response,98,589004,0.0-46.0-2.0-2.0-2.0-0.0,NA,NA,NA,3.0,"[""H"",""Y"",""L""]","[""H"",""Y"",""L""]",1.0,3.0,"['<font color=""green"">H</font>', '<font color=""green"">Y</font>', '<font color=""green"">L</font>']",,,,,,63d3f99c57f6b09e77ce7c82,17:02:31,03/04/2024
1520.0,"['<p style=""font-size:44px"">Letters:<br><br><br><font color=""green"">H</font> <font color=""green"">Y</font> <font color=""green"">L</font></p><br><br><p style=""font-size:30px"">Symmetry:<br><br><font color=""green"">100%</font></p><br><br>']",0,ospan,practice_feedback,SY98FtUWTZd6fhuqLt69ChMe9OE2,html-button-response,99,591028,0.0-46.0-2.0-2.0-2.0-1.0,,,,,,,,,,,,,,,63d3f99c57f6b09e77ce7c82,17:02:31,03/04/2024
15820.0,"<div class = 'left_align' style='font-size: 3rem; line-height: 1.3;'><b>Great work! That is the end of practice.</b><br><br>The real trials will look just like the practice trials you just completed.<br><br><u>Here, you will not see feedback</u>. First, you will see an grid picture to judge,<br>then a letter to remember. When the recall screen appears, report the letters in the<br>order presented. If you forget a letter, remember to use the <b>blank</b> button to move to the<br>next letter. Some of the sets will have more symmetry grids and letters than others.<br><br>It is important that you do your best on both the symmetry judgments and the letter recall<br>parts of the experiment. For for the symmetry judgments, try to work as <b>quickly</b> and <br>as <b>accurately</b> as possible. Remember to keep your symmetry accuracy at 85% or above.<br><br><b>For the letters, do NOT use any external aid (e.g., writing on paper, electronic device).</b><br><br>It is <u>very important</u> to our experiment to have a <b>true</b> view of your real performance.<br><br>Do not worry if you miss some when it gets hard! This task is meant to be very challenging!<br><br>Click the button to begin.</div><br><br><br><br>",0,ospan,starting_real_here,SY98FtUWTZd6fhuqLt69ChMe9OE2,html-button-response,100,606853,0.0-46.0-2.0-3.0,,,,,,,,,,,,,,,63d3f99c57f6b09e77ce7c82,17:02:31,03/04/2024
,"<p style=""font-size:75px;"">...</p>",,ospan,iti,SY98FtUWTZd6fhuqLt69ChMe9OE2,html-keyboard-response,101,608114,0.0-46.0-3.0-0.0-0.0,,,,,,,,,,,,,,,63d3f99c57f6b09e77ce7c82,17:02:31,03/04/2024
1326.0,,,ospan,symmetry,SY98FtUWTZd6fhuqLt69ChMe9OE2,symmetry-judgement-task,102,610502,0.0-46.0-3.0-0.0-1.0-0.0,,,,,,,,,,1.0,1.0,,,,63d3f99c57f6b09e77ce7c82,17:02:31,03/04/2024
,"<div style=""font-size: 10rem; color: #0000FF"">Q</div>",,ospan,letter,SY98FtUWTZd6fhuqLt69ChMe9OE2,html-keyboard-response,103,611509,0.0-46.0-3.0-0.0-1.0-1.0,,,,,,,,,,,,,,,63d3f99c57f6b09e77ce7c82,17:02:31,03/04/2024
1121.0,,,ospan,symmetry,SY98FtUWTZd6fhuqLt69ChMe9OE2,symmetry-judgement-task,104,614440,0.0-46.0-3.0-0.0-1.0-2.0,,,,,,,,,,1.0,1.0,,,,63d3f99c57f6b09e77ce7c82,17:02:31,03/04/2024
,"<div style=""font-size: 10rem; color: #0000FF"">J</div>",,ospan,letter,SY98FtUWTZd6fhuqLt69ChMe9OE2,html-keyboard-response,105,615447,0.0-46.0-3.0-0.0-1.0-3.0,,,,,,,,,,,,,,,63d3f99c57f6b09e77ce7c82,17:02:31,03/04/2024
899.0,,,ospan,symmetry,SY98FtUWTZd6fhuqLt69ChMe9OE2,symmetry-judgement-task,106,618157,0.0-46.0-3.0-0.0-1.0-4.0,,,,,,,,,,1.0,1.0,,,,63d3f99c57f6b09e77ce7c82,17:02:31,03/04/2024
,"<div style=""font-size: 10rem; color: #0000FF"">H</div>",,ospan,letter,SY98FtUWTZd6fhuqLt69ChMe9OE2,html-keyboard-response,107,619164,0.0-46.0-3.0-0.0-1.0-5.0,,,,,,,,,,,,,,,63d3f99c57f6b09e77ce7c82,17:02:31,03/04/2024
3596.0,"<div class = numbox><p style=""font-size: 2.4rem"">Please recall the letters you saw to the best of your ability. If you do not remember a particular letter, use the SKIP button.<br><b>(When you are ready to lock in your answer, press ENTER)</b></p><button id = button_1 class = ""square num-button"" onclick = ""recordClick(this)""><div class = content><div class = numbers>C</div></div></button><button id = button_2 class = ""square num-button"" onclick = ""recordClick(this)""><div class = content><div class = numbers>G</div></div></button><button id = button_3 class = ""square num-button"" onclick = ""recordClick(this)""><div class = content><div class = numbers>H</div></div></button><button id = button_4 class = ""square num-button"" onclick = ""recordClick(this)""><div class = content><div class = numbers>J</div></div></button><button id = button_5 class = ""square num-button"" onclick = ""recordClick(this)""><div class = content><div class = numbers>K</div></div></button><button id = button_6 class = ""square num-button"" onclick = ""recordClick(this)""><div class = content><div class = numbers>L</div></div></button><button id = button_7 class = ""square num-button"" onclick = ""recordClick(this)""><div class = content><div class = numbers>N</div></div></button><button id = button_8 class = ""square num-button"" onclick = ""recordClick(this)""><div class = content><div class = numbers>P</div></div></button><button id = button_9 class = ""square num-button"" onclick = ""recordClick(this)""><div class = content><div class = numbers>Q</div></div></button><button id = button_10 class = ""square num-button"" onclick = ""recordClick(this)""><div class = content><div class = numbers>R</div></div></button><button id = button_11 class = ""square num-button"" onclick = ""recordClick(this)""><div class = content><div class = numbers>S</div></div></button><button id = button_12 class = ""square num-button"" onclick = ""recordClick(this)""><div class = content><div class = numbers>Y</div></div></button><button class = clear_button id = ""ClearButton"" onclick = ""clearResponse()"">BACKSPACE</button><button class = blank_button id = ""BlankButton"" onclick = ""blankResponse()"">SKIP</button><p style=""font-size: 2.4rem""><u><b>Current Answer:</b></u></p><br><br><div id=echoed_txt style=""font-size: 5rem; color:blue;""><b></b></div></div>",enter,ospan,retrieval,SY98FtUWTZd6fhuqLt69ChMe9OE2,html-keyboard-response,108,623518,0.0-46.0-3.0-0.0-2.0,3,3,3,3.0,"[""Q"",""J"",""H""]","[""Q"",""J"",""H""]",1.0,3.0,,,,,,,63d3f99c57f6b09e77ce7c82,17:02:31,03/04/2024
1088.0,[''],0,ospan,feedback,SY98FtUWTZd6fhuqLt69ChMe9OE2,html-button-response,109,625112,0.0-46.0-3.0-0.0-3.0,,,,,,,,,,,,100.0,0.0,,63d3f99c57f6b09e77ce7c82,17:02:31,03/04/2024
,"<p style=""font-size:75px;"">...</p>",,ospan,iti,SY98FtUWTZd6fhuqLt69ChMe9OE2,html-keyboard-response,110,626118,0.0-46.0-4.0-0.0-0.0,,,,,,,,,,,,,,,63d3f99c57f6b09e77ce7c82,17:02:31,03/04/2024
1402.0,,,ospan,symmetry,SY98FtUWTZd6fhuqLt69ChMe9OE2,symmetry-judgement-task,111,628576,0.0-46.0-4.0-0.0-1.0-0.0,,,,,,,,,,1.0,1.0,,,,63d3f99c57f6b09e77ce7c82,17:02:31,03/04/2024
,"<div style=""font-size: 10rem; color: #0000FF"">N</div>",,ospan,letter,SY98FtUWTZd6fhuqLt69ChMe9OE2,html-keyboard-response,112,629584,0.0-46.0-4.0-0.0-1.0-1.0,,,,,,,,,,,,,,,63d3f99c57f6b09e77ce7c82,17:02:31,03/04/2024
1142.0,,,ospan,symmetry,SY98FtUWTZd6fhuqLt69ChMe9OE2,symmetry-judgement-task,113,632530,0.0-46.0-4.0-0.0-1.0-2.0,,,,,,,,,,1.0,1.0,,,,63d3f99c57f6b09e77ce7c82,17:02:31,03/04/2024
,"<div style=""font-size: 10rem; color: #0000FF"">Q</div>",,ospan,letter,SY98FtUWTZd6fhuqLt69ChMe9OE2,html-keyboard-response,114,633537,0.0-46.0-4.0-0.0-1.0-3.0,,,,,,,,,,,,,,,63d3f99c57f6b09e77ce7c82,17:02:31,03/04/2024
899.0,,,ospan,symmetry,SY98FtUWTZd6fhuqLt69ChMe9OE2,symmetry-judgement-task,115,636253,0.0-46.0-4.0-0.0-1.0-4.0,,,,,,,,,,1.0,1.0,,,,63d3f99c57f6b09e77ce7c82,17:02:31,03/04/2024
,"<div style=""font-size: 10rem; color: #0000FF"">S</div>",,ospan,letter,SY98FtUWTZd6fhuqLt69ChMe9OE2,html-keyboard-response,116,637259,0.0-46.0-4.0-0.0-1.0-5.0,,,,,,,,,,,,,,,63d3f99c57f6b09e77ce7c82,17:02:31,03/04/2024
1502.0,,,ospan,symmetry,SY98FtUWTZd6fhuqLt69ChMe9OE2,symmetry-judgement-task,117,640578,0.0-46.0-4.0-0.0-1.0-6.0,,,,,,,,,,1.0,1.0,,,,63d3f99c57f6b09e77ce7c82,17:02:31,03/04/2024
,"<div style=""font-size: 10rem; color: #0000FF"">L</div>",,ospan,letter,SY98FtUWTZd6fhuqLt69ChMe9OE2,html-keyboard-response,118,641583,0.0-46.0-4.0-0.0-1.0-7.0,,,,,,,,,,,,,,,63d3f99c57f6b09e77ce7c82,17:02:31,03/04/2024
3603.0,"<div class = numbox><p style=""font-size: 2.4rem"">Please recall the letters you saw to the best of your ability. If you do not remember a particular letter, use the SKIP button.<br><b>(When you are ready to lock in your answer, press ENTER)</b></p><button id = button_1 class = ""square num-button"" onclick = ""recordClick(this)""><div class = content><div class = numbers>C</div></div></button><button id = button_2 class = ""square num-button"" onclick = ""recordClick(this)""><div class = content><div class = numbers>G</div></div></button><button id = button_3 class = ""square num-button"" onclick = ""recordClick(this)""><div class = content><div class = numbers>H</div></div></button><button id = button_4 class = ""square num-button"" onclick = ""recordClick(this)""><div class = content><div class = numbers>J</div></div></button><button id = button_5 class = ""square num-button"" onclick = ""recordClick(this)""><div class = content><div class = numbers>K</div></div></button><button id = button_6 class = ""square num-button"" onclick = ""recordClick(this)""><div class = content><div class = numbers>L</div></div></button><button id = button_7 class = ""square num-button"" onclick = ""recordClick(this)""><div class = content><div class = numbers>N</div></div></button><button id = button_8 class = ""square num-button"" onclick = ""recordClick(this)""><div class = content><div class = numbers>P</div></div></button><button id = button_9 class = ""square num-button"" onclick = ""recordClick(this)""><div class = content><div class = numbers>Q</div></div></button><button id = button_10 class = ""square num-button"" onclick = ""recordClick(this)""><div class = content><div class = numbers>R</div></div></button><button id = button_11 class = ""square num-button"" onclick = ""recordClick(this)""><div class = content><div class = numbers>S</div></div></button><button id = button_12 class = ""square num-button"" onclick = ""recordClick(this)""><div class = content><div class = numbers>Y</div></div></button><button class = clear_button id = ""ClearButton"" onclick = ""clearResponse()"">BACKSPACE</button><button class = blank_button id = ""BlankButton"" onclick = ""blankResponse()"">SKIP</button><p style=""font-size: 2.4rem""><u><b>Current Answer:</b></u></p><br><br><div id=echoed_txt style=""font-size: 5rem; color:blue;""><b></b></div></div>",enter,ospan,retrieval,SY98FtUWTZd6fhuqLt69ChMe9OE2,html-keyboard-response,119,645944,0.0-46.0-4.0-0.0-2.0,7,7,7,4.0,"[""N"",""Q"",""S"",""L""]","[""N"",""Q"",""S"",""L""]",1.0,4.0,,,,,,,63d3f99c57f6b09e77ce7c82,17:02:31,03/04/2024
995.0,[''],0,ospan,feedback,SY98FtUWTZd6fhuqLt69ChMe9OE2,html-button-response,120,647442,0.0-46.0-4.0-0.0-3.0,,,,,,,,,,,,100.0,0.0,,63d3f99c57f6b09e77ce7c82,17:02:31,03/04/2024
,"<p style=""font-size:75px;"">...</p>",,ospan,iti,SY98FtUWTZd6fhuqLt69ChMe9OE2,html-keyboard-response,121,648449,0.0-46.0-4.0-1.0-0.0,,,,,,,,,,,,,,,63d3f99c57f6b09e77ce7c82,17:02:31,03/04/2024
1418.0,,,ospan,symmetry,SY98FtUWTZd6fhuqLt69ChMe9OE2,symmetry-judgement-task,122,650932,0.0-46.0-4.0-1.0-1.0-0.0,,,,,,,,,,1.0,1.0,,,,63d3f99c57f6b09e77ce7c82,17:02:31,03/04/2024
,"<div style=""font-size: 10rem; color: #0000FF"">S</div>",,ospan,letter,SY98FtUWTZd6fhuqLt69ChMe9OE2,html-keyboard-response,123,651941,0.0-46.0-4.0-1.0-1.0-1.0,,,,,,,,,,,,,,,63d3f99c57f6b09e77ce7c82,17:02:31,03/04/2024
876.0,,,ospan,symmetry,SY98FtUWTZd6fhuqLt69ChMe9OE2,symmetry-judgement-task,124,654628,0.0-46.0-4.0-1.0-1.0-2.0,,,,,,,,,,1.0,1.0,,,,63d3f99c57f6b09e77ce7c82,17:02:31,03/04/2024
,"<div style=""font-size: 10rem; color: #0000FF"">N</div>",,ospan,letter,SY98FtUWTZd6fhuqLt69ChMe9OE2,html-keyboard-response,125,655634,0.0-46.0-4.0-1.0-1.0-3.0,,,,,,,,,,,,,,,63d3f99c57f6b09e77ce7c82,17:02:31,03/04/2024
883.0,,,ospan,symmetry,SY98FtUWTZd6fhuqLt69ChMe9OE2,symmetry-judgement-task,126,658332,0.0-46.0-4.0-1.0-1.0-4.0,,,,,,,,,,1.0,1.0,,,,63d3f99c57f6b09e77ce7c82,17:02:31,03/04/2024
,"<div style=""font-size: 10rem; color: #0000FF"">L</div>",,ospan,letter,SY98FtUWTZd6fhuqLt69ChMe9OE2,html-keyboard-response,127,659340,0.0-46.0-4.0-1.0-1.0-5.0,,,,,,,,,,,,,,,63d3f99c57f6b09e77ce7c82,17:02:31,03/04/2024
1276.0,,,ospan,symmetry,SY98FtUWTZd6fhuqLt69ChMe9OE2,symmetry-judgement-task,128,662427,0.0-46.0-4.0-1.0-1.0-6.0,,,,,,,,,,1.0,1.0,,,,63d3f99c57f6b09e77ce7c82,17:02:31,03/04/2024
,"<div style=""font-size: 10rem; color: #0000FF"">Y</div>",,ospan,letter,SY98FtUWTZd6fhuqLt69ChMe9OE2,html-keyboard-response,129,663435,0.0-46.0-4.0-1.0-1.0-7.0,,,,,,,,,,,,,,,63d3f99c57f6b09e77ce7c82,17:02:31,03/04/2024
881.0,,,ospan,symmetry,SY98FtUWTZd6fhuqLt69ChMe9OE2,symmetry-judgement-task,130,666152,0.0-46.0-4.0-1.0-1.0-8.0,,,,,,,,,,1.0,1.0,,,,63d3f99c57f6b09e77ce7c82,17:02:31,03/04/2024
,"<div style=""font-size: 10rem; color: #0000FF"">J</div>",,ospan,letter,SY98FtUWTZd6fhuqLt69ChMe9OE2,html-keyboard-response,131,667159,0.0-46.0-4.0-1.0-1.0-9.0,,,,,,,,,,,,,,,63d3f99c57f6b09e77ce7c82,17:02:31,03/04/2024
3968.0,"<div class = numbox><p style=""font-size: 2.4rem"">Please recall the letters you saw to the best of your ability. If you do not remember a particular letter, use the SKIP button.<br><b>(When you are ready to lock in your answer, press ENTER)</b></p><button id = button_1 class = ""square num-button"" onclick = ""recordClick(this)""><div class = content><div class = numbers>C</div></div></button><button id = button_2 class = ""square num-button"" onclick = ""recordClick(this)""><div class = content><div class = numbers>G</div></div></button><button id = button_3 class = ""square num-button"" onclick = ""recordClick(this)""><div class = content><div class = numbers>H</div></div></button><button id = button_4 class = ""square num-button"" onclick = ""recordClick(this)""><div class = content><div class = numbers>J</div></div></button><button id = button_5 class = ""square num-button"" onclick = ""recordClick(this)""><div class = content><div class = numbers>K</div></div></button><button id = button_6 class = ""square num-button"" onclick = ""recordClick(this)""><div class = content><div class = numbers>L</div></div></button><button id = button_7 class = ""square num-button"" onclick = ""recordClick(this)""><div class = content><div class = numbers>N</div></div></button><button id = button_8 class = ""square num-button"" onclick = ""recordClick(this)""><div class = content><div class = numbers>P</div></div></button><button id = button_9 class = ""square num-button"" onclick = ""recordClick(this)""><div class = content><div class = numbers>Q</div></div></button><button id = button_10 class = ""square num-button"" onclick = ""recordClick(this)""><div class = content><div class = numbers>R</div></div></button><button id = button_11 class = ""square num-button"" onclick = ""recordClick(this)""><div class = content><div class = numbers>S</div></div></button><button id = button_12 class = ""square num-button"" onclick = ""recordClick(this)""><div class = content><div class = numbers>Y</div></div></button><button class = clear_button id = ""ClearButton"" onclick = ""clearResponse()"">BACKSPACE</button><button class = blank_button id = ""BlankButton"" onclick = ""blankResponse()"">SKIP</button><p style=""font-size: 2.4rem""><u><b>Current Answer:</b></u></p><br><br><div id=echoed_txt style=""font-size: 5rem; color:blue;""><b></b></div></div>",enter,ospan,retrieval,SY98FtUWTZd6fhuqLt69ChMe9OE2,html-keyboard-response,132,671885,0.0-46.0-4.0-1.0-2.0,12,12,12,5.0,"[""S"",""N"",""L"",""Y"",""J""]","[""S"",""N"",""L"",""Y"",""J""]",1.0,5.0,,,,,,,63d3f99c57f6b09e77ce7c82,17:02:31,03/04/2024
874.0,[''],0,ospan,feedback,SY98FtUWTZd6fhuqLt69ChMe9OE2,html-button-response,133,673266,0.0-46.0-4.0-1.0-3.0,,,,,,,,,,,,100.0,0.0,,63d3f99c57f6b09e77ce7c82,17:02:31,03/04/2024
,"<p style=""font-size:75px;"">...</p>",,ospan,iti,SY98FtUWTZd6fhuqLt69ChMe9OE2,html-keyboard-response,134,674274,0.0-46.0-4.0-2.0-0.0,,,,,,,,,,,,,,,63d3f99c57f6b09e77ce7c82,17:02:31,03/04/2024
985.0,,,ospan,symmetry,SY98FtUWTZd6fhuqLt69ChMe9OE2,symmetry-judgement-task,135,676315,0.0-46.0-4.0-2.0-1.0-0.0,,,,,,,,,,1.0,1.0,,,,63d3f99c57f6b09e77ce7c82,17:02:31,03/04/2024
,"<div style=""font-size: 10rem; color: #0000FF"">P</div>",,ospan,letter,SY98FtUWTZd6fhuqLt69ChMe9OE2,html-keyboard-response,136,677323,0.0-46.0-4.0-2.0-1.0-1.0,,,,,,,,,,,,,,,63d3f99c57f6b09e77ce7c82,17:02:31,03/04/2024
1367.0,,,ospan,symmetry,SY98FtUWTZd6fhuqLt69ChMe9OE2,symmetry-judgement-task,137,680513,0.0-46.0-4.0-2.0-1.0-2.0,,,,,,,,,,1.0,1.0,,,,63d3f99c57f6b09e77ce7c82,17:02:31,03/04/2024
,"<div style=""font-size: 10rem; color: #0000FF"">Y</div>",,ospan,letter,SY98FtUWTZd6fhuqLt69ChMe9OE2,html-keyboard-response,138,681521,0.0-46.0-4.0-2.0-1.0-3.0,,,,,,,,,,,,,,,63d3f99c57f6b09e77ce7c82,17:02:31,03/04/2024
1690.0,,,ospan,symmetry,SY98FtUWTZd6fhuqLt69ChMe9OE2,symmetry-judgement-task,139,685027,0.0-46.0-4.0-2.0-1.0-4.0,,,,,,,,,,1.0,1.0,,,,63d3f99c57f6b09e77ce7c82,17:02:31,03/04/2024
,"<div style=""font-size: 10rem; color: #0000FF"">N</div>",,ospan,letter,SY98FtUWTZd6fhuqLt69ChMe9OE2,html-keyboard-response,140,686035,0.0-46.0-4.0-2.0-1.0-5.0,,,,,,,,,,,,,,,63d3f99c57f6b09e77ce7c82,17:02:31,03/04/2024
3118.0,"<div class = numbox><p style=""font-size: 2.4rem"">Please recall the letters you saw to the best of your ability. If you do not remember a particular letter, use the SKIP button.<br><b>(When you are ready to lock in your answer, press ENTER)</b></p><button id = button_1 class = ""square num-button"" onclick = ""recordClick(this)""><div class = content><div class = numbers>C</div></div></button><button id = button_2 class = ""square num-button"" onclick = ""recordClick(this)""><div class = content><div class = numbers>G</div></div></button><button id = button_3 class = ""square num-button"" onclick = ""recordClick(this)""><div class = content><div class = numbers>H</div></div></button><button id = button_4 class = ""square num-button"" onclick = ""recordClick(this)""><div class = content><div class = numbers>J</div></div></button><button id = button_5 class = ""square num-button"" onclick = ""recordClick(this)""><div class = content><div class = numbers>K</div></div></button><button id = button_6 class = ""square num-button"" onclick = ""recordClick(this)""><div class = content><div class = numbers>L</div></div></button><button id = button_7 class = ""square num-button"" onclick = ""recordClick(this)""><div class = content><div class = numbers>N</div></div></button><button id = button_8 class = ""square num-button"" onclick = ""recordClick(this)""><div class = content><div class = numbers>P</div></div></button><button id = button_9 class = ""square num-button"" onclick = ""recordClick(this)""><div class = content><div class = numbers>Q</div></div></button><button id = button_10 class = ""square num-button"" onclick = ""recordClick(this)""><div class = content><div class = numbers>R</div></div></button><button id = button_11 class = ""square num-button"" onclick = ""recordClick(this)""><div class = content><div class = numbers>S</div></div></button><button id = button_12 class = ""square num-button"" onclick = ""recordClick(this)""><div class = content><div class = numbers>Y</div></div></button><button class = clear_button id = ""ClearButton"" onclick = ""clearResponse()"">BACKSPACE</button><button class = blank_button id = ""BlankButton"" onclick = ""blankResponse()"">SKIP</button><p style=""font-size: 2.4rem""><u><b>Current Answer:</b></u></p><br><br><div id=echoed_txt style=""font-size: 5rem; color:blue;""><b></b></div></div>",enter,ospan,retrieval,SY98FtUWTZd6fhuqLt69ChMe9OE2,html-keyboard-response,141,689911,0.0-46.0-4.0-2.0-2.0,15,15,15,3.0,"[""P"",""Y"",""N""]","[""P"",""Y"",""N""]",1.0,3.0,,,,,,,63d3f99c57f6b09e77ce7c82,17:02:31,03/04/2024
1020.0,[''],0,ospan,feedback,SY98FtUWTZd6fhuqLt69ChMe9OE2,html-button-response,142,691434,0.0-46.0-4.0-2.0-3.0,,,,,,,,,,,,100.0,0.0,,63d3f99c57f6b09e77ce7c82,17:02:31,03/04/2024
,"<p style=""font-size:75px;"">...</p>",,ospan,iti,SY98FtUWTZd6fhuqLt69ChMe9OE2,html-keyboard-response,143,692444,0.0-46.0-5.0-0.0-0.0,,,,,,,,,,,,,,,63d3f99c57f6b09e77ce7c82,17:02:31,03/04/2024
1471.0,,,ospan,symmetry,SY98FtUWTZd6fhuqLt69ChMe9OE2,symmetry-judgement-task,144,694977,0.0-46.0-5.0-0.0-1.0-0.0,,,,,,,,,,1.0,1.0,,,,63d3f99c57f6b09e77ce7c82,17:02:31,03/04/2024
,"<div style=""font-size: 10rem; color: #0000FF"">C</div>",,ospan,letter,SY98FtUWTZd6fhuqLt69ChMe9OE2,html-keyboard-response,145,695985,0.0-46.0-5.0-0.0-1.0-1.0,,,,,,,,,,,,,,,63d3f99c57f6b09e77ce7c82,17:02:31,03/04/2024
1490.0,,,ospan,symmetry,SY98FtUWTZd6fhuqLt69ChMe9OE2,symmetry-judgement-task,146,699280,0.0-46.0-5.0-0.0-1.0-2.0,,,,,,,,,,1.0,1.0,,,,63d3f99c57f6b09e77ce7c82,17:02:31,03/04/2024
,"<div style=""font-size: 10rem; color: #0000FF"">L</div>",,ospan,letter,SY98FtUWTZd6fhuqLt69ChMe9OE2,html-keyboard-response,147,700287,0.0-46.0-5.0-0.0-1.0-3.0,,,,,,,,,,,,,,,63d3f99c57f6b09e77ce7c82,17:02:31,03/04/2024
1202.0,,,ospan,symmetry,SY98FtUWTZd6fhuqLt69ChMe9OE2,symmetry-judgement-task,148,703303,0.0-46.0-5.0-0.0-1.0-4.0,,,,,,,,,,1.0,1.0,,,,63d3f99c57f6b09e77ce7c82,17:02:31,03/04/2024
,"<div style=""font-size: 10rem; color: #0000FF"">N</div>",,ospan,letter,SY98FtUWTZd6fhuqLt69ChMe9OE2,html-keyboard-response,149,704311,0.0-46.0-5.0-0.0-1.0-5.0,,,,,,,,,,,,,,,63d3f99c57f6b09e77ce7c82,17:02:31,03/04/2024
1535.0,,,ospan,symmetry,SY98FtUWTZd6fhuqLt69ChMe9OE2,symmetry-judgement-task,150,707654,0.0-46.0-5.0-0.0-1.0-6.0,,,,,,,,,,1.0,1.0,,,,63d3f99c57f6b09e77ce7c82,17:02:31,03/04/2024
,"<div style=""font-size: 10rem; color: #0000FF"">G</div>",,ospan,letter,SY98FtUWTZd6fhuqLt69ChMe9OE2,html-keyboard-response,151,708662,0.0-46.0-5.0-0.0-1.0-7.0,,,,,,,,,,,,,,,63d3f99c57f6b09e77ce7c82,17:02:31,03/04/2024
1262.0,,,ospan,symmetry,SY98FtUWTZd6fhuqLt69ChMe9OE2,symmetry-judgement-task,152,711740,0.0-46.0-5.0-0.0-1.0-8.0,,,,,,,,,,1.0,1.0,,,,63d3f99c57f6b09e77ce7c82,17:02:31,03/04/2024
,"<div style=""font-size: 10rem; color: #0000FF"">Y</div>",,ospan,letter,SY98FtUWTZd6fhuqLt69ChMe9OE2,html-keyboard-response,153,712747,0.0-46.0-5.0-0.0-1.0-9.0,,,,,,,,,,,,,,,63d3f99c57f6b09e77ce7c82,17:02:31,03/04/2024
1168.0,,,ospan,symmetry,SY98FtUWTZd6fhuqLt69ChMe9OE2,symmetry-judgement-task,154,715736,0.0-46.0-5.0-0.0-1.0-10.0,,,,,,,,,,1.0,1.0,,,,63d3f99c57f6b09e77ce7c82,17:02:31,03/04/2024
,"<div style=""font-size: 10rem; color: #0000FF"">J</div>",,ospan,letter,SY98FtUWTZd6fhuqLt69ChMe9OE2,html-keyboard-response,155,716741,0.0-46.0-5.0-0.0-1.0-11.0,,,,,,,,,,,,,,,63d3f99c57f6b09e77ce7c82,17:02:31,03/04/2024
7592.0,"<div class = numbox><p style=""font-size: 2.4rem"">Please recall the letters you saw to the best of your ability. If you do not remember a particular letter, use the SKIP button.<br><b>(When you are ready to lock in your answer, press ENTER)</b></p><button id = button_1 class = ""square num-button"" onclick = ""recordClick(this)""><div class = content><div class = numbers>C</div></div></button><button id = button_2 class = ""square num-button"" onclick = ""recordClick(this)""><div class = content><div class = numbers>G</div></div></button><button id = button_3 class = ""square num-button"" onclick = ""recordClick(this)""><div class = content><div class = numbers>H</div></div></button><button id = button_4 class = ""square num-button"" onclick = ""recordClick(this)""><div class = content><div class = numbers>J</div></div></button><button id = button_5 class = ""square num-button"" onclick = ""recordClick(this)""><div class = content><div class = numbers>K</div></div></button><button id = button_6 class = ""square num-button"" onclick = ""recordClick(this)""><div class = content><div class = numbers>L</div></div></button><button id = button_7 class = ""square num-button"" onclick = ""recordClick(this)""><div class = content><div class = numbers>N</div></div></button><button id = button_8 class = ""square num-button"" onclick = ""recordClick(this)""><div class = content><div class = numbers>P</div></div></button><button id = button_9 class = ""square num-button"" onclick = ""recordClick(this)""><div class = content><div class = numbers>Q</div></div></button><button id = button_10 class = ""square num-button"" onclick = ""recordClick(this)""><div class = content><div class = numbers>R</div></div></button><button id = button_11 class = ""square num-button"" onclick = ""recordClick(this)""><div class = content><div class = numbers>S</div></div></button><button id = button_12 class = ""square num-button"" onclick = ""recordClick(this)""><div class = content><div class = numbers>Y</div></div></button><button class = clear_button id = ""ClearButton"" onclick = ""clearResponse()"">BACKSPACE</button><button class = blank_button id = ""BlankButton"" onclick = ""blankResponse()"">SKIP</button><p style=""font-size: 2.4rem""><u><b>Current Answer:</b></u></p><br><br><div id=echoed_txt style=""font-size: 5rem; color:blue;""><b></b></div></div>",enter,ospan,retrieval,SY98FtUWTZd6fhuqLt69ChMe9OE2,html-keyboard-response,156,725095,0.0-46.0-5.0-0.0-2.0,21,20,15,6.0,"[""C"",""L"",""N"",""C"",""Y"",""J""]","[""C"",""L"",""N"",""G"",""Y"",""J""]",0.0,5.0,,,,,,,63d3f99c57f6b09e77ce7c82,17:02:31,03/04/2024
926.0,[''],0,ospan,feedback,SY98FtUWTZd6fhuqLt69ChMe9OE2,html-button-response,157,726531,0.0-46.0-5.0-0.0-3.0,,,,,,,,,,,,100.0,0.0,,63d3f99c57f6b09e77ce7c82,17:02:31,03/04/2024
,"<p style=""font-size:75px;"">...</p>",,ospan,iti,SY98FtUWTZd6fhuqLt69ChMe9OE2,html-keyboard-response,158,727539,0.0-46.0-5.0-1.0-0.0,,,,,,,,,,,,,,,63d3f99c57f6b09e77ce7c82,17:02:31,03/04/2024
1605.0,,,ospan,symmetry,SY98FtUWTZd6fhuqLt69ChMe9OE2,symmetry-judgement-task,159,730207,0.0-46.0-5.0-1.0-1.0-0.0,,,,,,,,,,1.0,1.0,,,,63d3f99c57f6b09e77ce7c82,17:02:31,03/04/2024
,"<div style=""font-size: 10rem; color: #0000FF"">Q</div>",,ospan,letter,SY98FtUWTZd6fhuqLt69ChMe9OE2,html-keyboard-response,160,731215,0.0-46.0-5.0-1.0-1.0-1.0,,,,,,,,,,,,,,,63d3f99c57f6b09e77ce7c82,17:02:31,03/04/2024
1000.0,,,ospan,symmetry,SY98FtUWTZd6fhuqLt69ChMe9OE2,symmetry-judgement-task,161,734112,0.0-46.0-5.0-1.0-1.0-2.0,,,,,,,,,,1.0,1.0,,,,63d3f99c57f6b09e77ce7c82,17:02:31,03/04/2024
,"<div style=""font-size: 10rem; color: #0000FF"">N</div>",,ospan,letter,SY98FtUWTZd6fhuqLt69ChMe9OE2,html-keyboard-response,162,735181,0.0-46.0-5.0-1.0-1.0-3.0,,,,,,,,,,,,,,,63d3f99c57f6b09e77ce7c82,17:02:31,03/04/2024
1388.0,,,ospan,symmetry,SY98FtUWTZd6fhuqLt69ChMe9OE2,symmetry-judgement-task,163,738384,0.0-46.0-5.0-1.0-1.0-4.0,,,,,,,,,,1.0,1.0,,,,63d3f99c57f6b09e77ce7c82,17:02:31,03/04/2024
,"<div style=""font-size: 10rem; color: #0000FF"">G</div>",,ospan,letter,SY98FtUWTZd6fhuqLt69ChMe9OE2,html-keyboard-response,164,739392,0.0-46.0-5.0-1.0-1.0-5.0,,,,,,,,,,,,,,,63d3f99c57f6b09e77ce7c82,17:02:31,03/04/2024
1231.0,,,ospan,symmetry,SY98FtUWTZd6fhuqLt69ChMe9OE2,symmetry-judgement-task,165,742444,0.0-46.0-5.0-1.0-1.0-6.0,,,,,,,,,,1.0,1.0,,,,63d3f99c57f6b09e77ce7c82,17:02:31,03/04/2024
,"<div style=""font-size: 10rem; color: #0000FF"">C</div>",,ospan,letter,SY98FtUWTZd6fhuqLt69ChMe9OE2,html-keyboard-response,166,743450,0.0-46.0-5.0-1.0-1.0-7.0,,,,,,,,,,,,,,,63d3f99c57f6b09e77ce7c82,17:02:31,03/04/2024
951.0,,,ospan,symmetry,SY98FtUWTZd6fhuqLt69ChMe9OE2,symmetry-judgement-task,167,746211,0.0-46.0-5.0-1.0-1.0-8.0,,,,,,,,,,1.0,1.0,,,,63d3f99c57f6b09e77ce7c82,17:02:31,03/04/2024
,"<div style=""font-size: 10rem; color: #0000FF"">L</div>",,ospan,letter,SY98FtUWTZd6fhuqLt69ChMe9OE2,html-keyboard-response,168,747218,0.0-46.0-5.0-1.0-1.0-9.0,,,,,,,,,,,,,,,63d3f99c57f6b09e77ce7c82,17:02:31,03/04/2024
1556.0,,,ospan,symmetry,SY98FtUWTZd6fhuqLt69ChMe9OE2,symmetry-judgement-task,169,750593,0.0-46.0-5.0-1.0-1.0-10.0,,,,,,,,,,1.0,1.0,,,,63d3f99c57f6b09e77ce7c82,17:02:31,03/04/2024
,"<div style=""font-size: 10rem; color: #0000FF"">H</div>",,ospan,letter,SY98FtUWTZd6fhuqLt69ChMe9OE2,html-keyboard-response,170,751602,0.0-46.0-5.0-1.0-1.0-11.0,,,,,,,,,,,,,,,63d3f99c57f6b09e77ce7c82,17:02:31,03/04/2024
873.0,,,ospan,symmetry,SY98FtUWTZd6fhuqLt69ChMe9OE2,symmetry-judgement-task,171,754287,0.0-46.0-5.0-1.0-1.0-12.0,,,,,,,,,,0.0,0.0,,,,63d3f99c57f6b09e77ce7c82,17:02:31,03/04/2024
,"<div style=""font-size: 10rem; color: #0000FF"">J</div>",,ospan,letter,SY98FtUWTZd6fhuqLt69ChMe9OE2,html-keyboard-response,172,755293,0.0-46.0-5.0-1.0-1.0-13.0,,,,,,,,,,,,,,,63d3f99c57f6b09e77ce7c82,17:02:31,03/04/2024
11611.0,"<div class = numbox><p style=""font-size: 2.4rem"">Please recall the letters you saw to the best of your ability. If you do not remember a particular letter, use the SKIP button.<br><b>(When you are ready to lock in your answer, press ENTER)</b></p><button id = button_1 class = ""square num-button"" onclick = ""recordClick(this)""><div class = content><div class = numbers>C</div></div></button><button id = button_2 class = ""square num-button"" onclick = ""recordClick(this)""><div class = content><div class = numbers>G</div></div></button><button id = button_3 class = ""square num-button"" onclick = ""recordClick(this)""><div class = content><div class = numbers>H</div></div></button><button id = button_4 class = ""square num-button"" onclick = ""recordClick(this)""><div class = content><div class = numbers>J</div></div></button><button id = button_5 class = ""square num-button"" onclick = ""recordClick(this)""><div class = content><div class = numbers>K</div></div></button><button id = button_6 class = ""square num-button"" onclick = ""recordClick(this)""><div class = content><div class = numbers>L</div></div></button><button id = button_7 class = ""square num-button"" onclick = ""recordClick(this)""><div class = content><div class = numbers>N</div></div></button><button id = button_8 class = ""square num-button"" onclick = ""recordClick(this)""><div class = content><div class = numbers>P</div></div></button><button id = button_9 class = ""square num-button"" onclick = ""recordClick(this)""><div class = content><div class = numbers>Q</div></div></button><button id = button_10 class = ""square num-button"" onclick = ""recordClick(this)""><div class = content><div class = numbers>R</div></div></button><button id = button_11 class = ""square num-button"" onclick = ""recordClick(this)""><div class = content><div class = numbers>S</div></div></button><button id = button_12 class = ""square num-button"" onclick = ""recordClick(this)""><div class = content><div class = numbers>Y</div></div></button><button class = clear_button id = ""ClearButton"" onclick = ""clearResponse()"">BACKSPACE</button><button class = blank_button id = ""BlankButton"" onclick = ""blankResponse()"">SKIP</button><p style=""font-size: 2.4rem""><u><b>Current Answer:</b></u></p><br><br><div id=echoed_txt style=""font-size: 5rem; color:blue;""><b></b></div></div>",enter,ospan,retrieval,SY98FtUWTZd6fhuqLt69ChMe9OE2,html-keyboard-response,173,767664,0.0-46.0-5.0-1.0-2.0,28,24,15,7.0,"[""Q"",""N"",""G"",""C"",""H"",""J""]","[""Q"",""N"",""G"",""C"",""L"",""H"",""J""]",0.0,4.0,,,,,,,63d3f99c57f6b09e77ce7c82,17:02:31,03/04/2024
1581.0,[''],0,ospan,feedback,SY98FtUWTZd6fhuqLt69ChMe9OE2,html-button-response,174,769754,0.0-46.0-5.0-1.0-3.0,,,,,,,,,,,,96.0,0.0,,63d3f99c57f6b09e77ce7c82,17:02:31,03/04/2024
,"<p style=""font-size:75px;"">...</p>",,ospan,iti,SY98FtUWTZd6fhuqLt69ChMe9OE2,html-keyboard-response,175,770760,0.0-46.0-6.0-0.0-0.0,,,,,,,,,,,,,,,63d3f99c57f6b09e77ce7c82,17:02:31,03/04/2024
1261.0,,,ospan,symmetry,SY98FtUWTZd6fhuqLt69ChMe9OE2,symmetry-judgement-task,176,773085,0.0-46.0-6.0-0.0-1.0-0.0,,,,,,,,,,1.0,1.0,,,,63d3f99c57f6b09e77ce7c82,17:02:31,03/04/2024
,"<div style=""font-size: 10rem; color: #0000FF"">S</div>",,ospan,letter,SY98FtUWTZd6fhuqLt69ChMe9OE2,html-keyboard-response,177,774093,0.0-46.0-6.0-0.0-1.0-1.0,,,,,,,,,,,,,,,63d3f99c57f6b09e77ce7c82,17:02:31,03/04/2024
1120.0,,,ospan,symmetry,SY98FtUWTZd6fhuqLt69ChMe9OE2,symmetry-judgement-task,178,777109,0.0-46.0-6.0-0.0-1.0-2.0,,,,,,,,,,1.0,1.0,,,,63d3f99c57f6b09e77ce7c82,17:02:31,03/04/2024
,"<div style=""font-size: 10rem; color: #0000FF"">P</div>",,ospan,letter,SY98FtUWTZd6fhuqLt69ChMe9OE2,html-keyboard-response,179,778114,0.0-46.0-6.0-0.0-1.0-3.0,,,,,,,,,,,,,,,63d3f99c57f6b09e77ce7c82,17:02:31,03/04/2024
1099.0,,,ospan,symmetry,SY98FtUWTZd6fhuqLt69ChMe9OE2,symmetry-judgement-task,180,781024,0.0-46.0-6.0-0.0-1.0-4.0,,,,,,,,,,1.0,1.0,,,,63d3f99c57f6b09e77ce7c82,17:02:31,03/04/2024
,"<div style=""font-size: 10rem; color: #0000FF"">C</div>",,ospan,letter,SY98FtUWTZd6fhuqLt69ChMe9OE2,html-keyboard-response,181,782032,0.0-46.0-6.0-0.0-1.0-5.0,,,,,,,,,,,,,,,63d3f99c57f6b09e77ce7c82,17:02:31,03/04/2024
1101.0,,,ospan,symmetry,SY98FtUWTZd6fhuqLt69ChMe9OE2,symmetry-judgement-task,182,784944,0.0-46.0-6.0-0.0-1.0-6.0,,,,,,,,,,1.0,1.0,,,,63d3f99c57f6b09e77ce7c82,17:02:31,03/04/2024
,"<div style=""font-size: 10rem; color: #0000FF"">J</div>",,ospan,letter,SY98FtUWTZd6fhuqLt69ChMe9OE2,html-keyboard-response,183,785951,0.0-46.0-6.0-0.0-1.0-7.0,,,,,,,,,,,,,,,63d3f99c57f6b09e77ce7c82,17:02:31,03/04/2024
1039.0,,,ospan,symmetry,SY98FtUWTZd6fhuqLt69ChMe9OE2,symmetry-judgement-task,184,788810,0.0-46.0-6.0-0.0-1.0-8.0,,,,,,,,,,1.0,1.0,,,,63d3f99c57f6b09e77ce7c82,17:02:31,03/04/2024
,"<div style=""font-size: 10rem; color: #0000FF"">K</div>",,ospan,letter,SY98FtUWTZd6fhuqLt69ChMe9OE2,html-keyboard-response,185,789816,0.0-46.0-6.0-0.0-1.0-9.0,,,,,,,,,,,,,,,63d3f99c57f6b09e77ce7c82,17:02:31,03/04/2024
6322.0,"<div class = numbox><p style=""font-size: 2.4rem"">Please recall the letters you saw to the best of your ability. If you do not remember a particular letter, use the SKIP button.<br><b>(When you are ready to lock in your answer, press ENTER)</b></p><button id = button_1 class = ""square num-button"" onclick = ""recordClick(this)""><div class = content><div class = numbers>C</div></div></button><button id = button_2 class = ""square num-button"" onclick = ""recordClick(this)""><div class = content><div class = numbers>G</div></div></button><button id = button_3 class = ""square num-button"" onclick = ""recordClick(this)""><div class = content><div class = numbers>H</div></div></button><button id = button_4 class = ""square num-button"" onclick = ""recordClick(this)""><div class = content><div class = numbers>J</div></div></button><button id = button_5 class = ""square num-button"" onclick = ""recordClick(this)""><div class = content><div class = numbers>K</div></div></button><button id = button_6 class = ""square num-button"" onclick = ""recordClick(this)""><div class = content><div class = numbers>L</div></div></button><button id = button_7 class = ""square num-button"" onclick = ""recordClick(this)""><div class = content><div class = numbers>N</div></div></button><button id = button_8 class = ""square num-button"" onclick = ""recordClick(this)""><div class = content><div class = numbers>P</div></div></button><button id = button_9 class = ""square num-button"" onclick = ""recordClick(this)""><div class = content><div class = numbers>Q</div></div></button><button id = button_10 class = ""square num-button"" onclick = ""recordClick(this)""><div class = content><div class = numbers>R</div></div></button><button id = button_11 class = ""square num-button"" onclick = ""recordClick(this)""><div class = content><div class = numbers>S</div></div></button><button id = button_12 class = ""square num-button"" onclick = ""recordClick(this)""><div class = content><div class = numbers>Y</div></div></button><button class = clear_button id = ""ClearButton"" onclick = ""clearResponse()"">BACKSPACE</button><button class = blank_button id = ""BlankButton"" onclick = ""blankResponse()"">SKIP</button><p style=""font-size: 2.4rem""><u><b>Current Answer:</b></u></p><br><br><div id=echoed_txt style=""font-size: 5rem; color:blue;""><b></b></div></div>",enter,ospan,retrieval,SY98FtUWTZd6fhuqLt69ChMe9OE2,html-keyboard-response,186,796896,0.0-46.0-6.0-0.0-2.0,33,29,20,5.0,"[""S"",""P"",""C"",""J"",""K""]","[""S"",""P"",""C"",""J"",""K""]",1.0,5.0,,,,,,,63d3f99c57f6b09e77ce7c82,17:02:31,03/04/2024
898.0,[''],0,ospan,feedback,SY98FtUWTZd6fhuqLt69ChMe9OE2,html-button-response,187,798304,0.0-46.0-6.0-0.0-3.0,,,,,,,,,,,,97.0,0.0,,63d3f99c57f6b09e77ce7c82,17:02:31,03/04/2024
,"<p style=""font-size:75px;"">...</p>",,ospan,iti,SY98FtUWTZd6fhuqLt69ChMe9OE2,html-keyboard-response,188,799310,0.0-46.0-6.0-1.0-0.0,,,,,,,,,,,,,,,63d3f99c57f6b09e77ce7c82,17:02:31,03/04/2024
1160.0,,,ospan,symmetry,SY98FtUWTZd6fhuqLt69ChMe9OE2,symmetry-judgement-task,189,801530,0.0-46.0-6.0-1.0-1.0-0.0,,,,,,,,,,1.0,1.0,,,,63d3f99c57f6b09e77ce7c82,17:02:31,03/04/2024
,"<div style=""font-size: 10rem; color: #0000FF"">G</div>",,ospan,letter,SY98FtUWTZd6fhuqLt69ChMe9OE2,html-keyboard-response,190,802535,0.0-46.0-6.0-1.0-1.0-1.0,,,,,,,,,,,,,,,63d3f99c57f6b09e77ce7c82,17:02:31,03/04/2024
1254.0,,,ospan,symmetry,SY98FtUWTZd6fhuqLt69ChMe9OE2,symmetry-judgement-task,191,805597,0.0-46.0-6.0-1.0-1.0-2.0,,,,,,,,,,1.0,1.0,,,,63d3f99c57f6b09e77ce7c82,17:02:31,03/04/2024
,"<div style=""font-size: 10rem; color: #0000FF"">C</div>",,ospan,letter,SY98FtUWTZd6fhuqLt69ChMe9OE2,html-keyboard-response,192,806605,0.0-46.0-6.0-1.0-1.0-3.0,,,,,,,,,,,,,,,63d3f99c57f6b09e77ce7c82,17:02:31,03/04/2024
1147.0,,,ospan,symmetry,SY98FtUWTZd6fhuqLt69ChMe9OE2,symmetry-judgement-task,193,809565,0.0-46.0-6.0-1.0-1.0-4.0,,,,,,,,,,1.0,1.0,,,,63d3f99c57f6b09e77ce7c82,17:02:31,03/04/2024
,"<div style=""font-size: 10rem; color: #0000FF"">K</div>",,ospan,letter,SY98FtUWTZd6fhuqLt69ChMe9OE2,html-keyboard-response,194,810569,0.0-46.0-6.0-1.0-1.0-5.0,,,,,,,,,,,,,,,63d3f99c57f6b09e77ce7c82,17:02:31,03/04/2024
1047.0,,,ospan,symmetry,SY98FtUWTZd6fhuqLt69ChMe9OE2,symmetry-judgement-task,195,813434,0.0-46.0-6.0-1.0-1.0-6.0,,,,,,,,,,1.0,1.0,,,,63d3f99c57f6b09e77ce7c82,17:02:31,03/04/2024
,"<div style=""font-size: 10rem; color: #0000FF"">N</div>",,ospan,letter,SY98FtUWTZd6fhuqLt69ChMe9OE2,html-keyboard-response,196,814442,0.0-46.0-6.0-1.0-1.0-7.0,,,,,,,,,,,,,,,63d3f99c57f6b09e77ce7c82,17:02:31,03/04/2024
944.0,,,ospan,symmetry,SY98FtUWTZd6fhuqLt69ChMe9OE2,symmetry-judgement-task,197,817213,0.0-46.0-6.0-1.0-1.0-8.0,,,,,,,,,,1.0,1.0,,,,63d3f99c57f6b09e77ce7c82,17:02:31,03/04/2024
,"<div style=""font-size: 10rem; color: #0000FF"">L</div>",,ospan,letter,SY98FtUWTZd6fhuqLt69ChMe9OE2,html-keyboard-response,198,818259,0.0-46.0-6.0-1.0-1.0-9.0,,,,,,,,,,,,,,,63d3f99c57f6b09e77ce7c82,17:02:31,03/04/2024
1068.0,,,ospan,symmetry,SY98FtUWTZd6fhuqLt69ChMe9OE2,symmetry-judgement-task,199,821140,0.0-46.0-6.0-1.0-1.0-10.0,,,,,,,,,,1.0,1.0,,,,63d3f99c57f6b09e77ce7c82,17:02:31,03/04/2024
,"<div style=""font-size: 10rem; color: #0000FF"">H</div>",,ospan,letter,SY98FtUWTZd6fhuqLt69ChMe9OE2,html-keyboard-response,200,822144,0.0-46.0-6.0-1.0-1.0-11.0,,,,,,,,,,,,,,,63d3f99c57f6b09e77ce7c82,17:02:31,03/04/2024
3215.0,,,ospan,symmetry,SY98FtUWTZd6fhuqLt69ChMe9OE2,symmetry-judgement-task,201,827198,0.0-46.0-6.0-1.0-1.0-12.0,,,,,,,,,,1.0,1.0,,,,63d3f99c57f6b09e77ce7c82,17:02:31,03/04/2024
,"<div style=""font-size: 10rem; color: #0000FF"">Q</div>",,ospan,letter,SY98FtUWTZd6fhuqLt69ChMe9OE2,html-keyboard-response,202,828206,0.0-46.0-6.0-1.0-1.0-13.0,,,,,,,,,,,,,,,63d3f99c57f6b09e77ce7c82,17:02:31,03/04/2024
1408.0,,,ospan,symmetry,SY98FtUWTZd6fhuqLt69ChMe9OE2,symmetry-judgement-task,203,831435,0.0-46.0-6.0-1.0-1.0-14.0,,,,,,,,,,1.0,1.0,,,,63d3f99c57f6b09e77ce7c82,17:02:31,03/04/2024
,"<div style=""font-size: 10rem; color: #0000FF"">R</div>",,ospan,letter,SY98FtUWTZd6fhuqLt69ChMe9OE2,html-keyboard-response,204,832440,0.0-46.0-6.0-1.0-1.0-15.0,,,,,,,,,,,,,,,63d3f99c57f6b09e77ce7c82,17:02:31,03/04/2024
10083.0,"<div class = numbox><p style=""font-size: 2.4rem"">Please recall the letters you saw to the best of your ability. If you do not remember a particular letter, use the SKIP button.<br><b>(When you are ready to lock in your answer, press ENTER)</b></p><button id = button_1 class = ""square num-button"" onclick = ""recordClick(this)""><div class = content><div class = numbers>C</div></div></button><button id = button_2 class = ""square num-button"" onclick = ""recordClick(this)""><div class = content><div class = numbers>G</div></div></button><button id = button_3 class = ""square num-button"" onclick = ""recordClick(this)""><div class = content><div class = numbers>H</div></div></button><button id = button_4 class = ""square num-button"" onclick = ""recordClick(this)""><div class = content><div class = numbers>J</div></div></button><button id = button_5 class = ""square num-button"" onclick = ""recordClick(this)""><div class = content><div class = numbers>K</div></div></button><button id = button_6 class = ""square num-button"" onclick = ""recordClick(this)""><div class = content><div class = numbers>L</div></div></button><button id = button_7 class = ""square num-button"" onclick = ""recordClick(this)""><div class = content><div class = numbers>N</div></div></button><button id = button_8 class = ""square num-button"" onclick = ""recordClick(this)""><div class = content><div class = numbers>P</div></div></button><button id = button_9 class = ""square num-button"" onclick = ""recordClick(this)""><div class = content><div class = numbers>Q</div></div></button><button id = button_10 class = ""square num-button"" onclick = ""recordClick(this)""><div class = content><div class = numbers>R</div></div></button><button id = button_11 class = ""square num-button"" onclick = ""recordClick(this)""><div class = content><div class = numbers>S</div></div></button><button id = button_12 class = ""square num-button"" onclick = ""recordClick(this)""><div class = content><div class = numbers>Y</div></div></button><button class = clear_button id = ""ClearButton"" onclick = ""clearResponse()"">BACKSPACE</button><button class = blank_button id = ""BlankButton"" onclick = ""blankResponse()"">SKIP</button><p style=""font-size: 2.4rem""><u><b>Current Answer:</b></u></p><br><br><div id=echoed_txt style=""font-size: 5rem; color:blue;""><b></b></div></div>",enter,ospan,retrieval,SY98FtUWTZd6fhuqLt69ChMe9OE2,html-keyboard-response,205,843282,0.0-46.0-6.0-1.0-2.0,41,35,20,8.0,"[""G"",""C"",""K"",""L"",""N"",""H"",""Q"",""R""]","[""G"",""C"",""K"",""N"",""L"",""H"",""Q"",""R""]",0.0,6.0,,,,,,,63d3f99c57f6b09e77ce7c82,17:02:31,03/04/2024
948.0,[''],0,ospan,feedback,SY98FtUWTZd6fhuqLt69ChMe9OE2,html-button-response,206,844737,0.0-46.0-6.0-1.0-3.0,,,,,,,,,,,,98.0,0.0,,63d3f99c57f6b09e77ce7c82,17:02:31,03/04/2024
6621.0,,{'Q0': 'All good!'},ospan,survey_ospan,SY98FtUWTZd6fhuqLt69ChMe9OE2,lmdlab-survey-text,207,852113,0.0-46.0-7.0,,,,,,,,,,,,,,SY98FtUWTZd6fhuqLt69ChMe9OE2,63d3f99c57f6b09e77ce7c82,17:02:31,03/04/2024
1354.0,<p><p style='font-size: 3rem'>Great work!<br><br>This completes the symmetry and memory task.</p><br><br><br>,0,ospan,finish,SY98FtUWTZd6fhuqLt69ChMe9OE2,html-button-response,208,853471,0.0-46.0-8.0,41,35,20,,,,,,,,,98.0,,,63d3f99c57f6b09e77ce7c82,17:02:31,03/04/2024
