rt,stimulus,response,exp_name,exp_stage,subjectID,trial_type,trial_index,time_elapsed,internal_node_id,ospan_shown,ospan_total,ospan_abs,length,resp_actual,resp_correct,full_correct,num_correct,feedback,accuracy,correct,math_acc,math_warning,databaseID,prolificID,start_time,date
1882.9999999998836,<div class = 'left_align' style='font-size: 3.25rem; line-height: 1.3;'><p class = 'center_align'><b>Welcome to the Symmetry and Memory Task</b><br><br><br><br></p>Press 'continue' to show the instructions.<br><br><br><br></div>,0,ospan,instruct,ZmPuKl6dgyLxAwzvLi0zqNuj2E12,html-button-response,54,514580,0.0-46.0-0.0-0.0-0.0,,,,,,,,,,,,,,,5d62e141756469001948081a,14:44:53,03/04/2024
7617.0,"<div class = 'left_align' style='font-size: 3.25rem; line-height: 1.3;'><p class = 'center_align'><b>Symmetry and Memory Task</b><br><br></p>In this task, you will try to memorize letters you see on the screen<br>while you also view black and white grid pictures.<br><br>In the next few minutes, you will have some practice to get you familiar<br>with how the task works.<br><br>It may be difficult sometimes, but please do not worry about making mistakes!<br><br>We will begin by practicing the letter part of the task.<br><br><br><br></div>",0,ospan,instruct,ZmPuKl6dgyLxAwzvLi0zqNuj2E12,html-button-response,55,522450,0.0-46.0-0.0-0.0-1.0,,,,,,,,,,,,,,,5d62e141756469001948081a,14:44:53,03/04/2024
4991.000000000116,"<div class = 'left_align' style='font-size: 3.25rem; line-height: 1.3;'>For this practice part, letters will appear on the screen one at a time.<br><br>Try to remember each letter in the order presented.<br><br>After some letters have been shown, you will see a response screen. Your<br>goal is to report the letters you saw <b>in order</b>. If you do not remember<br>a particular letter, you will have the option to leave it blank.<br><br><br><br></div>",0,ospan,instruct,ZmPuKl6dgyLxAwzvLi0zqNuj2E12,html-button-response,56,527692,0.0-46.0-0.0-0.0-2.0,,,,,,,,,,,,,,,5d62e141756469001948081a,14:44:53,03/04/2024
2974.0000000001164,"<div class = 'left_align' style='font-size: 3.25rem; line-height: 1.3;'>Remember, it is very important to get the letters in the same<br>order as you see them.<br><br>When you are ready, you may begin the letter practice.</div><br><br><br><br>",0,ospan,instruct,ZmPuKl6dgyLxAwzvLi0zqNuj2E12,html-button-response,57,530919,0.0-46.0-0.0-0.0-3.0,,,,,,,,,,,,,,,5d62e141756469001948081a,14:44:53,03/04/2024
,"<p style=""font-size:75px;"">...</p>",,ospan,iti,ZmPuKl6dgyLxAwzvLi0zqNuj2E12,html-keyboard-response,58,532172,0.0-46.0-0.0-1.0-0.0,,,,,,,,,,,,,,,5d62e141756469001948081a,14:44:53,03/04/2024
,"<div style=""font-size: 10rem; color: #0000FF"">C</div>",,ospan,letter,ZmPuKl6dgyLxAwzvLi0zqNuj2E12,html-keyboard-response,59,533174,0.0-46.0-0.0-1.0-1.0,,,,,,,,,,,,,,,5d62e141756469001948081a,14:44:53,03/04/2024
,"<div style=""font-size: 10rem; color: #0000FF"">N</div>",,ospan,letter,ZmPuKl6dgyLxAwzvLi0zqNuj2E12,html-keyboard-response,60,534927,0.0-46.0-0.0-1.0-2.0,,,,,,,,,,,,,,,5d62e141756469001948081a,14:44:53,03/04/2024
6153.0,"<div class = numbox><p style=""font-size: 2.4rem"">Please recall the letters you saw to the best of your ability. If you do not remember a particular letter, use the SKIP button.<br><b>(When you are ready to lock in your answer, press ENTER)</b></p><button id = button_1 class = ""square num-button"" onclick = ""recordClick(this)""><div class = content><div class = numbers>C</div></div></button><button id = button_2 class = ""square num-button"" onclick = ""recordClick(this)""><div class = content><div class = numbers>G</div></div></button><button id = button_3 class = ""square num-button"" onclick = ""recordClick(this)""><div class = content><div class = numbers>H</div></div></button><button id = button_4 class = ""square num-button"" onclick = ""recordClick(this)""><div class = content><div class = numbers>J</div></div></button><button id = button_5 class = ""square num-button"" onclick = ""recordClick(this)""><div class = content><div class = numbers>K</div></div></button><button id = button_6 class = ""square num-button"" onclick = ""recordClick(this)""><div class = content><div class = numbers>L</div></div></button><button id = button_7 class = ""square num-button"" onclick = ""recordClick(this)""><div class = content><div class = numbers>N</div></div></button><button id = button_8 class = ""square num-button"" onclick = ""recordClick(this)""><div class = content><div class = numbers>P</div></div></button><button id = button_9 class = ""square num-button"" onclick = ""recordClick(this)""><div class = content><div class = numbers>Q</div></div></button><button id = button_10 class = ""square num-button"" onclick = ""recordClick(this)""><div class = content><div class = numbers>R</div></div></button><button id = button_11 class = ""square num-button"" onclick = ""recordClick(this)""><div class = content><div class = numbers>S</div></div></button><button id = button_12 class = ""square num-button"" onclick = ""recordClick(this)""><div class = content><div class = numbers>Y</div></div></button><button class = clear_button id = ""ClearButton"" onclick = ""clearResponse()"">BACKSPACE</button><button class = blank_button id = ""BlankButton"" onclick = ""blankResponse()"">SKIP</button><p style=""font-size: 2.4rem""><u><b>Current Answer:</b></u></p><br><br><div id=echoed_txt style=""font-size: 5rem; color:blue;""><b></b></div></div>",enter,ospan,retrieval,ZmPuKl6dgyLxAwzvLi0zqNuj2E12,html-keyboard-response,61,541833,0.0-46.0-0.0-1.0-3.0,NA,NA,NA,2.0,"[""C"",""N""]","[""C"",""N""]",1.0,2.0,"['<font color=""green"">C</font>', '<font color=""green"">N</font>']",,,,,,5d62e141756469001948081a,14:44:53,03/04/2024
1067.0,"['<p style=""font-size:44px"">Letters:<br><br><br><font color=""green"">C</font> <font color=""green"">N</font></p><br><br>']",0,ospan,practice_feedback,ZmPuKl6dgyLxAwzvLi0zqNuj2E12,html-button-response,62,543403,0.0-46.0-0.0-1.0-4.0,,,,,,,,,,,,,,,5d62e141756469001948081a,14:44:53,03/04/2024
,"<p style=""font-size:75px;"">...</p>",,ospan,iti,ZmPuKl6dgyLxAwzvLi0zqNuj2E12,html-keyboard-response,63,544405,0.0-46.0-0.0-2.0-0.0,,,,,,,,,,,,,,,5d62e141756469001948081a,14:44:53,03/04/2024
,"<div style=""font-size: 10rem; color: #0000FF"">S</div>",,ospan,letter,ZmPuKl6dgyLxAwzvLi0zqNuj2E12,html-keyboard-response,64,545407,0.0-46.0-0.0-2.0-1.0,,,,,,,,,,,,,,,5d62e141756469001948081a,14:44:53,03/04/2024
,"<div style=""font-size: 10rem; color: #0000FF"">L</div>",,ospan,letter,ZmPuKl6dgyLxAwzvLi0zqNuj2E12,html-keyboard-response,65,547160,0.0-46.0-0.0-2.0-2.0,,,,,,,,,,,,,,,5d62e141756469001948081a,14:44:53,03/04/2024
,"<div style=""font-size: 10rem; color: #0000FF"">N</div>",,ospan,letter,ZmPuKl6dgyLxAwzvLi0zqNuj2E12,html-keyboard-response,66,548913,0.0-46.0-0.0-2.0-3.0,,,,,,,,,,,,,,,5d62e141756469001948081a,14:44:53,03/04/2024
3054.0,"<div class = numbox><p style=""font-size: 2.4rem"">Please recall the letters you saw to the best of your ability. If you do not remember a particular letter, use the SKIP button.<br><b>(When you are ready to lock in your answer, press ENTER)</b></p><button id = button_1 class = ""square num-button"" onclick = ""recordClick(this)""><div class = content><div class = numbers>C</div></div></button><button id = button_2 class = ""square num-button"" onclick = ""recordClick(this)""><div class = content><div class = numbers>G</div></div></button><button id = button_3 class = ""square num-button"" onclick = ""recordClick(this)""><div class = content><div class = numbers>H</div></div></button><button id = button_4 class = ""square num-button"" onclick = ""recordClick(this)""><div class = content><div class = numbers>J</div></div></button><button id = button_5 class = ""square num-button"" onclick = ""recordClick(this)""><div class = content><div class = numbers>K</div></div></button><button id = button_6 class = ""square num-button"" onclick = ""recordClick(this)""><div class = content><div class = numbers>L</div></div></button><button id = button_7 class = ""square num-button"" onclick = ""recordClick(this)""><div class = content><div class = numbers>N</div></div></button><button id = button_8 class = ""square num-button"" onclick = ""recordClick(this)""><div class = content><div class = numbers>P</div></div></button><button id = button_9 class = ""square num-button"" onclick = ""recordClick(this)""><div class = content><div class = numbers>Q</div></div></button><button id = button_10 class = ""square num-button"" onclick = ""recordClick(this)""><div class = content><div class = numbers>R</div></div></button><button id = button_11 class = ""square num-button"" onclick = ""recordClick(this)""><div class = content><div class = numbers>S</div></div></button><button id = button_12 class = ""square num-button"" onclick = ""recordClick(this)""><div class = content><div class = numbers>Y</div></div></button><button class = clear_button id = ""ClearButton"" onclick = ""clearResponse()"">BACKSPACE</button><button class = blank_button id = ""BlankButton"" onclick = ""blankResponse()"">SKIP</button><p style=""font-size: 2.4rem""><u><b>Current Answer:</b></u></p><br><br><div id=echoed_txt style=""font-size: 5rem; color:blue;""><b></b></div></div>",enter,ospan,retrieval,ZmPuKl6dgyLxAwzvLi0zqNuj2E12,html-keyboard-response,67,552719,0.0-46.0-0.0-2.0-4.0,NA,NA,NA,3.0,"[""S"",""L"",""N""]","[""S"",""L"",""N""]",1.0,3.0,"['<font color=""green"">S</font>', '<font color=""green"">L</font>', '<font color=""green"">N</font>']",,,,,,5d62e141756469001948081a,14:44:53,03/04/2024
1024.0,"['<p style=""font-size:44px"">Letters:<br><br><br><font color=""green"">S</font> <font color=""green"">L</font> <font color=""green"">N</font></p><br><br>']",0,ospan,practice_feedback,ZmPuKl6dgyLxAwzvLi0zqNuj2E12,html-button-response,68,554245,0.0-46.0-0.0-2.0-5.0,,,,,,,,,,,,,,,5d62e141756469001948081a,14:44:53,03/04/2024
14149.0,"<div class = 'left_align' style='font-size: 3.25rem; line-height: 1.3;'>Now you will practice doing the <b>symmetry judgment part</b> of the experiment.<br><br>A black and white grid picture will appear on the screen and you have to judge if it is <br>symmetrical or asymetrical.<br><br>A picture is 'mirror' symmetrical if its left half is identical to the right half when flipped.<br>Here are examples of a symmetrical and an asymetrical picture:<br><br><center><img src='Stimuli/img/symm_instructions_extra.png' style='height:420px; width:900'></img></center><br>To judge symmetry, imagine you were to fold each picture down the middle, like a book –<br>would the left half match the right half when folded onto each other?<br><br></div><br>",0,ospan,instruct,ZmPuKl6dgyLxAwzvLi0zqNuj2E12,html-button-response,69,568397,0.0-46.0-1.0-0.0-0.0,,,,,,,,,,,,,,,5d62e141756469001948081a,14:44:53,03/04/2024
2431.0,"<div class = 'left_align' style='font-size: 3.25rem; line-height: 1.3;'>When you have viewed the picture and determined whether it is symmetrical or not,<br>you can <b>click the Yes or No button</b> below to answer.<br><br>If you take longer than 15 seconds, it will continue automatically<br>and record the answer as an error.</div><br>",0,ospan,instruct,ZmPuKl6dgyLxAwzvLi0zqNuj2E12,html-button-response,70,571079,0.0-46.0-1.0-0.0-1.0,,,,,,,,,,,,,,,5d62e141756469001948081a,14:44:53,03/04/2024
4854.0,"<div class = 'left_align' style='font-size: 3.25rem; line-height: 1.3;'>It is <b>very</b> important that you make the symmetry judgment correctly.<br><br>It is also important that you try and judge the picture as quickly as you can.<br><br>When you are ready, click on the button below to try some practice problems.</div><br><br><br><br>",0,ospan,instruct,ZmPuKl6dgyLxAwzvLi0zqNuj2E12,html-button-response,71,576184,0.0-46.0-1.0-0.0-2.0,,,,,,,,,,,,,,,5d62e141756469001948081a,14:44:53,03/04/2024
2204.0,,,ospan,symmetry,ZmPuKl6dgyLxAwzvLi0zqNuj2E12,symmetry-judgement-task,72,579229,0.0-46.0-1.0-1.0-0.0,,,,,,,,,,1.0,1.0,,,,5d62e141756469001948081a,14:44:53,03/04/2024
,"<p style=""color:green; font-size: 35px"">Correct</p>",,ospan,feedback,ZmPuKl6dgyLxAwzvLi0zqNuj2E12,html-keyboard-response,73,579981,0.0-46.0-1.0-1.0-1.0,,,,,,,,,,,,,,,5d62e141756469001948081a,14:44:53,03/04/2024
1286.0,,,ospan,symmetry,ZmPuKl6dgyLxAwzvLi0zqNuj2E12,symmetry-judgement-task,74,583876,0.0-46.0-1.0-1.0-2.0,,,,,,,,,,1.0,1.0,,,,5d62e141756469001948081a,14:44:53,03/04/2024
,"<p style=""color:green; font-size: 35px"">Correct</p>",,ospan,feedback,ZmPuKl6dgyLxAwzvLi0zqNuj2E12,html-keyboard-response,75,584628,0.0-46.0-1.0-1.0-3.0,,,,,,,,,,,,,,,5d62e141756469001948081a,14:44:53,03/04/2024
1107.0,,,ospan,symmetry,ZmPuKl6dgyLxAwzvLi0zqNuj2E12,symmetry-judgement-task,76,588330,0.0-46.0-1.0-1.0-4.0,,,,,,,,,,1.0,1.0,,,,5d62e141756469001948081a,14:44:53,03/04/2024
,"<p style=""color:green; font-size: 35px"">Correct</p>",,ospan,feedback,ZmPuKl6dgyLxAwzvLi0zqNuj2E12,html-keyboard-response,77,589082,0.0-46.0-1.0-1.0-5.0,,,,,,,,,,,,,,,5d62e141756469001948081a,14:44:53,03/04/2024
1299.0,"<p style=""font-size: 3rem;"">You responded correctly on 3 of 3 symmetry judgments. Good job!</p><br><br>",0,ospan,practice,ZmPuKl6dgyLxAwzvLi0zqNuj2E12,html-button-response,78,592384,0.0-46.0-1.0-2.0,,,,,,,,,,,,,,,5d62e141756469001948081a,14:44:53,03/04/2024
6104.0,"<div class = 'left_align' style='font-size: 3.25rem; line-height: 1.3;'>Now you will practice doing both parts of the experiment at the same time.<br><br>In the next practice set, you will be given one grid picture to judge.<br>Then letter will appear on the screen. Try to remember the letter.<br><br>It is <b>very important</b> to make the symmetry judgment as quickly and accurately as possible.<br><br>Just as before, once you have make the symmetry judgment, you can click Yes or No.<br><b>Note that you will no longer see Correct or Incorrect feedback.</div><br><br><br><br>",0,ospan,instruct,ZmPuKl6dgyLxAwzvLi0zqNuj2E12,html-button-response,79,598740,0.0-46.0-2.0-0.0-0.0,,,,,,,,,,,,,,,5d62e141756469001948081a,14:44:53,03/04/2024
2736.0,"<div class = 'left_align' style='font-size: 3.25rem; line-height: 1.3;'>After the letter goes away, another grid picture will appear, and then<br>another letter.<br><br>At the end of each set of letters and grids, you will recall the letters to the best<br>of your ability. Remember, try your best to get the letters in the correct order.<br><br>It is important to <b>quickly</b> and <b>accurately</b> make the symmetry judgments.</div><br><br><br><br>",0,ospan,instruct,ZmPuKl6dgyLxAwzvLi0zqNuj2E12,html-button-response,80,601728,0.0-46.0-2.0-0.0-1.0,,,,,,,,,,,,,,,5d62e141756469001948081a,14:44:53,03/04/2024
12203.0,"<div class = 'left_align' style='font-size: 3.25rem; line-height: 1.3;'>On the feedback screen, if you are not doing well at the symmetry judgments,<br>you will also see a warning in the middle. This indicates your percent <br>correct for the grid pictures for the entire experiment.<br><br>It is <b>very</b> important for you to keep accuracy at least at 85%: <u>We can only use<br>data where the participant was at least 85% accurate on the judgments.</u> Therefore,<br> please try your best to perform well on the symmetry judgments, <b>at the same time</b><br>doing your best to recall as many letters as possible.<br><br>Click the button to try some practice problems.</div><br><br><br><br>",0,ospan,instruct,ZmPuKl6dgyLxAwzvLi0zqNuj2E12,html-button-response,81,614184,0.0-46.0-2.0-0.0-2.0,,,,,,,,,,,,,,,5d62e141756469001948081a,14:44:53,03/04/2024
,"<p style=""font-size:75px;"">...</p>",,ospan,iti,ZmPuKl6dgyLxAwzvLi0zqNuj2E12,html-keyboard-response,82,615436,0.0-46.0-2.0-1.0-0.0,,,,,,,,,,,,,,,5d62e141756469001948081a,14:44:53,03/04/2024
1713.0,,,ospan,symmetry,ZmPuKl6dgyLxAwzvLi0zqNuj2E12,symmetry-judgement-task,83,618255,0.0-46.0-2.0-1.0-1.0-0.0,,,,,,,,,,1.0,1.0,,,,5d62e141756469001948081a,14:44:53,03/04/2024
,"<div style=""font-size: 10rem; color: #0000FF"">S</div>",,ospan,letter,ZmPuKl6dgyLxAwzvLi0zqNuj2E12,html-keyboard-response,84,619259,0.0-46.0-2.0-1.0-1.0-1.0,,,,,,,,,,,,,,,5d62e141756469001948081a,14:44:53,03/04/2024
2822.0,,,ospan,symmetry,ZmPuKl6dgyLxAwzvLi0zqNuj2E12,symmetry-judgement-task,85,623924,0.0-46.0-2.0-1.0-1.0-2.0,,,,,,,,,,1.0,1.0,,,,5d62e141756469001948081a,14:44:53,03/04/2024
,"<div style=""font-size: 10rem; color: #0000FF"">C</div>",,ospan,letter,ZmPuKl6dgyLxAwzvLi0zqNuj2E12,html-keyboard-response,86,624926,0.0-46.0-2.0-1.0-1.0-3.0,,,,,,,,,,,,,,,5d62e141756469001948081a,14:44:53,03/04/2024
2070.0,,,ospan,symmetry,ZmPuKl6dgyLxAwzvLi0zqNuj2E12,symmetry-judgement-task,87,628853,0.0-46.0-2.0-1.0-1.0-4.0,,,,,,,,,,1.0,1.0,,,,5d62e141756469001948081a,14:44:53,03/04/2024
,"<div style=""font-size: 10rem; color: #0000FF"">J</div>",,ospan,letter,ZmPuKl6dgyLxAwzvLi0zqNuj2E12,html-keyboard-response,88,629854,0.0-46.0-2.0-1.0-1.0-5.0,,,,,,,,,,,,,,,5d62e141756469001948081a,14:44:53,03/04/2024
4452.0,"<div class = numbox><p style=""font-size: 2.4rem"">Please recall the letters you saw to the best of your ability. If you do not remember a particular letter, use the SKIP button.<br><b>(When you are ready to lock in your answer, press ENTER)</b></p><button id = button_1 class = ""square num-button"" onclick = ""recordClick(this)""><div class = content><div class = numbers>C</div></div></button><button id = button_2 class = ""square num-button"" onclick = ""recordClick(this)""><div class = content><div class = numbers>G</div></div></button><button id = button_3 class = ""square num-button"" onclick = ""recordClick(this)""><div class = content><div class = numbers>H</div></div></button><button id = button_4 class = ""square num-button"" onclick = ""recordClick(this)""><div class = content><div class = numbers>J</div></div></button><button id = button_5 class = ""square num-button"" onclick = ""recordClick(this)""><div class = content><div class = numbers>K</div></div></button><button id = button_6 class = ""square num-button"" onclick = ""recordClick(this)""><div class = content><div class = numbers>L</div></div></button><button id = button_7 class = ""square num-button"" onclick = ""recordClick(this)""><div class = content><div class = numbers>N</div></div></button><button id = button_8 class = ""square num-button"" onclick = ""recordClick(this)""><div class = content><div class = numbers>P</div></div></button><button id = button_9 class = ""square num-button"" onclick = ""recordClick(this)""><div class = content><div class = numbers>Q</div></div></button><button id = button_10 class = ""square num-button"" onclick = ""recordClick(this)""><div class = content><div class = numbers>R</div></div></button><button id = button_11 class = ""square num-button"" onclick = ""recordClick(this)""><div class = content><div class = numbers>S</div></div></button><button id = button_12 class = ""square num-button"" onclick = ""recordClick(this)""><div class = content><div class = numbers>Y</div></div></button><button class = clear_button id = ""ClearButton"" onclick = ""clearResponse()"">BACKSPACE</button><button class = blank_button id = ""BlankButton"" onclick = ""blankResponse()"">SKIP</button><p style=""font-size: 2.4rem""><u><b>Current Answer:</b></u></p><br><br><div id=echoed_txt style=""font-size: 5rem; color:blue;""><b></b></div></div>",enter,ospan,retrieval,ZmPuKl6dgyLxAwzvLi0zqNuj2E12,html-keyboard-response,89,635058,0.0-46.0-2.0-1.0-2.0-0.0,NA,NA,NA,3.0,"[""S"",""C"",""J""]","[""S"",""C"",""J""]",1.0,3.0,"['<font color=""green"">S</font>', '<font color=""green"">C</font>', '<font color=""green"">J</font>']",,,,,,5d62e141756469001948081a,14:44:53,03/04/2024
1752.0,"['<p style=""font-size:44px"">Letters:<br><br><br><font color=""green"">S</font> <font color=""green"">C</font> <font color=""green"">J</font></p><br><br><p style=""font-size:30px"">Symmetry:<br><br><font color=""green"">100%</font></p><br><br>']",0,ospan,practice_feedback,ZmPuKl6dgyLxAwzvLi0zqNuj2E12,html-button-response,90,637312,0.0-46.0-2.0-1.0-2.0-1.0,,,,,,,,,,,,,,,5d62e141756469001948081a,14:44:53,03/04/2024
,"<p style=""font-size:75px;"">...</p>",,ospan,iti,ZmPuKl6dgyLxAwzvLi0zqNuj2E12,html-keyboard-response,91,638315,0.0-46.0-2.0-2.0-0.0,,,,,,,,,,,,,,,5d62e141756469001948081a,14:44:53,03/04/2024
1588.0,,,ospan,symmetry,ZmPuKl6dgyLxAwzvLi0zqNuj2E12,symmetry-judgement-task,92,640992,0.0-46.0-2.0-2.0-1.0-0.0,,,,,,,,,,1.0,1.0,,,,5d62e141756469001948081a,14:44:53,03/04/2024
,"<div style=""font-size: 10rem; color: #0000FF"">Q</div>",,ospan,letter,ZmPuKl6dgyLxAwzvLi0zqNuj2E12,html-keyboard-response,93,641993,0.0-46.0-2.0-2.0-1.0-1.0,,,,,,,,,,,,,,,5d62e141756469001948081a,14:44:53,03/04/2024
1614.0,,,ospan,symmetry,ZmPuKl6dgyLxAwzvLi0zqNuj2E12,symmetry-judgement-task,94,645450,0.0-46.0-2.0-2.0-1.0-2.0,,,,,,,,,,1.0,1.0,,,,5d62e141756469001948081a,14:44:53,03/04/2024
,"<div style=""font-size: 10rem; color: #0000FF"">H</div>",,ospan,letter,ZmPuKl6dgyLxAwzvLi0zqNuj2E12,html-keyboard-response,95,646451,0.0-46.0-2.0-2.0-1.0-3.0,,,,,,,,,,,,,,,5d62e141756469001948081a,14:44:53,03/04/2024
1001.0,,,ospan,symmetry,ZmPuKl6dgyLxAwzvLi0zqNuj2E12,symmetry-judgement-task,96,649292,0.0-46.0-2.0-2.0-1.0-4.0,,,,,,,,,,1.0,1.0,,,,5d62e141756469001948081a,14:44:53,03/04/2024
,"<div style=""font-size: 10rem; color: #0000FF"">K</div>",,ospan,letter,ZmPuKl6dgyLxAwzvLi0zqNuj2E12,html-keyboard-response,97,650294,0.0-46.0-2.0-2.0-1.0-5.0,,,,,,,,,,,,,,,5d62e141756469001948081a,14:44:53,03/04/2024
4104.0,"<div class = numbox><p style=""font-size: 2.4rem"">Please recall the letters you saw to the best of your ability. If you do not remember a particular letter, use the SKIP button.<br><b>(When you are ready to lock in your answer, press ENTER)</b></p><button id = button_1 class = ""square num-button"" onclick = ""recordClick(this)""><div class = content><div class = numbers>C</div></div></button><button id = button_2 class = ""square num-button"" onclick = ""recordClick(this)""><div class = content><div class = numbers>G</div></div></button><button id = button_3 class = ""square num-button"" onclick = ""recordClick(this)""><div class = content><div class = numbers>H</div></div></button><button id = button_4 class = ""square num-button"" onclick = ""recordClick(this)""><div class = content><div class = numbers>J</div></div></button><button id = button_5 class = ""square num-button"" onclick = ""recordClick(this)""><div class = content><div class = numbers>K</div></div></button><button id = button_6 class = ""square num-button"" onclick = ""recordClick(this)""><div class = content><div class = numbers>L</div></div></button><button id = button_7 class = ""square num-button"" onclick = ""recordClick(this)""><div class = content><div class = numbers>N</div></div></button><button id = button_8 class = ""square num-button"" onclick = ""recordClick(this)""><div class = content><div class = numbers>P</div></div></button><button id = button_9 class = ""square num-button"" onclick = ""recordClick(this)""><div class = content><div class = numbers>Q</div></div></button><button id = button_10 class = ""square num-button"" onclick = ""recordClick(this)""><div class = content><div class = numbers>R</div></div></button><button id = button_11 class = ""square num-button"" onclick = ""recordClick(this)""><div class = content><div class = numbers>S</div></div></button><button id = button_12 class = ""square num-button"" onclick = ""recordClick(this)""><div class = content><div class = numbers>Y</div></div></button><button class = clear_button id = ""ClearButton"" onclick = ""clearResponse()"">BACKSPACE</button><button class = blank_button id = ""BlankButton"" onclick = ""blankResponse()"">SKIP</button><p style=""font-size: 2.4rem""><u><b>Current Answer:</b></u></p><br><br><div id=echoed_txt style=""font-size: 5rem; color:blue;""><b></b></div></div>",enter,ospan,retrieval,ZmPuKl6dgyLxAwzvLi0zqNuj2E12,html-keyboard-response,98,655149,0.0-46.0-2.0-2.0-2.0-0.0,NA,NA,NA,3.0,"[""Q"",""H"",""K""]","[""Q"",""H"",""K""]",1.0,3.0,"['<font color=""green"">Q</font>', '<font color=""green"">H</font>', '<font color=""green"">K</font>']",,,,,,5d62e141756469001948081a,14:44:53,03/04/2024
1500.0,"['<p style=""font-size:44px"">Letters:<br><br><br><font color=""green"">Q</font> <font color=""green"">H</font> <font color=""green"">K</font></p><br><br><p style=""font-size:30px"">Symmetry:<br><br><font color=""green"">100%</font></p><br><br>']",0,ospan,practice_feedback,ZmPuKl6dgyLxAwzvLi0zqNuj2E12,html-button-response,99,657151,0.0-46.0-2.0-2.0-2.0-1.0,,,,,,,,,,,,,,,5d62e141756469001948081a,14:44:53,03/04/2024
27585.0,"<div class = 'left_align' style='font-size: 3rem; line-height: 1.3;'><b>Great work! That is the end of practice.</b><br><br>The real trials will look just like the practice trials you just completed.<br><br><u>Here, you will not see feedback</u>. First, you will see an grid picture to judge,<br>then a letter to remember. When the recall screen appears, report the letters in the<br>order presented. If you forget a letter, remember to use the <b>blank</b> button to move to the<br>next letter. Some of the sets will have more symmetry grids and letters than others.<br><br>It is important that you do your best on both the symmetry judgments and the letter recall<br>parts of the experiment. For for the symmetry judgments, try to work as <b>quickly</b> and <br>as <b>accurately</b> as possible. Remember to keep your symmetry accuracy at 85% or above.<br><br><b>For the letters, do NOT use any external aid (e.g., writing on paper, electronic device).</b><br><br>It is <u>very important</u> to our experiment to have a <b>true</b> view of your real performance.<br><br>Do not worry if you miss some when it gets hard! This task is meant to be very challenging!<br><br>Click the button to begin.</div><br><br><br><br>",0,ospan,starting_real_here,ZmPuKl6dgyLxAwzvLi0zqNuj2E12,html-button-response,100,684740,0.0-46.0-2.0-3.0,,,,,,,,,,,,,,,5d62e141756469001948081a,14:44:53,03/04/2024
,"<p style=""font-size:75px;"">...</p>",,ospan,iti,ZmPuKl6dgyLxAwzvLi0zqNuj2E12,html-keyboard-response,101,685994,0.0-46.0-3.0-0.0-0.0,,,,,,,,,,,,,,,5d62e141756469001948081a,14:44:53,03/04/2024
1662.0,,,ospan,symmetry,ZmPuKl6dgyLxAwzvLi0zqNuj2E12,symmetry-judgement-task,102,688751,0.0-46.0-3.0-0.0-1.0-0.0,,,,,,,,,,1.0,1.0,,,,5d62e141756469001948081a,14:44:53,03/04/2024
,"<div style=""font-size: 10rem; color: #0000FF"">K</div>",,ospan,letter,ZmPuKl6dgyLxAwzvLi0zqNuj2E12,html-keyboard-response,103,689753,0.0-46.0-3.0-0.0-1.0-1.0,,,,,,,,,,,,,,,5d62e141756469001948081a,14:44:53,03/04/2024
2215.0,,,ospan,symmetry,ZmPuKl6dgyLxAwzvLi0zqNuj2E12,symmetry-judgement-task,104,693807,0.0-46.0-3.0-0.0-1.0-2.0,,,,,,,,,,1.0,1.0,,,,5d62e141756469001948081a,14:44:53,03/04/2024
,"<div style=""font-size: 10rem; color: #0000FF"">H</div>",,ospan,letter,ZmPuKl6dgyLxAwzvLi0zqNuj2E12,html-keyboard-response,105,694809,0.0-46.0-3.0-0.0-1.0-3.0,,,,,,,,,,,,,,,5d62e141756469001948081a,14:44:53,03/04/2024
1331.0,,,ospan,symmetry,ZmPuKl6dgyLxAwzvLi0zqNuj2E12,symmetry-judgement-task,106,697980,0.0-46.0-3.0-0.0-1.0-4.0,,,,,,,,,,1.0,1.0,,,,5d62e141756469001948081a,14:44:53,03/04/2024
,"<div style=""font-size: 10rem; color: #0000FF"">R</div>",,ospan,letter,ZmPuKl6dgyLxAwzvLi0zqNuj2E12,html-keyboard-response,107,698982,0.0-46.0-3.0-0.0-1.0-5.0,,,,,,,,,,,,,,,5d62e141756469001948081a,14:44:53,03/04/2024
2956.0,"<div class = numbox><p style=""font-size: 2.4rem"">Please recall the letters you saw to the best of your ability. If you do not remember a particular letter, use the SKIP button.<br><b>(When you are ready to lock in your answer, press ENTER)</b></p><button id = button_1 class = ""square num-button"" onclick = ""recordClick(this)""><div class = content><div class = numbers>C</div></div></button><button id = button_2 class = ""square num-button"" onclick = ""recordClick(this)""><div class = content><div class = numbers>G</div></div></button><button id = button_3 class = ""square num-button"" onclick = ""recordClick(this)""><div class = content><div class = numbers>H</div></div></button><button id = button_4 class = ""square num-button"" onclick = ""recordClick(this)""><div class = content><div class = numbers>J</div></div></button><button id = button_5 class = ""square num-button"" onclick = ""recordClick(this)""><div class = content><div class = numbers>K</div></div></button><button id = button_6 class = ""square num-button"" onclick = ""recordClick(this)""><div class = content><div class = numbers>L</div></div></button><button id = button_7 class = ""square num-button"" onclick = ""recordClick(this)""><div class = content><div class = numbers>N</div></div></button><button id = button_8 class = ""square num-button"" onclick = ""recordClick(this)""><div class = content><div class = numbers>P</div></div></button><button id = button_9 class = ""square num-button"" onclick = ""recordClick(this)""><div class = content><div class = numbers>Q</div></div></button><button id = button_10 class = ""square num-button"" onclick = ""recordClick(this)""><div class = content><div class = numbers>R</div></div></button><button id = button_11 class = ""square num-button"" onclick = ""recordClick(this)""><div class = content><div class = numbers>S</div></div></button><button id = button_12 class = ""square num-button"" onclick = ""recordClick(this)""><div class = content><div class = numbers>Y</div></div></button><button class = clear_button id = ""ClearButton"" onclick = ""clearResponse()"">BACKSPACE</button><button class = blank_button id = ""BlankButton"" onclick = ""blankResponse()"">SKIP</button><p style=""font-size: 2.4rem""><u><b>Current Answer:</b></u></p><br><br><div id=echoed_txt style=""font-size: 5rem; color:blue;""><b></b></div></div>",enter,ospan,retrieval,ZmPuKl6dgyLxAwzvLi0zqNuj2E12,html-keyboard-response,108,702690,0.0-46.0-3.0-0.0-2.0,3,3,3,3.0,"[""K"",""H"",""R""]","[""K"",""H"",""R""]",1.0,3.0,,,,,,,5d62e141756469001948081a,14:44:53,03/04/2024
1049.9999999998836,[''],0,ospan,feedback,ZmPuKl6dgyLxAwzvLi0zqNuj2E12,html-button-response,109,704242,0.0-46.0-3.0-0.0-3.0,,,,,,,,,,,,100.0,0.0,,5d62e141756469001948081a,14:44:53,03/04/2024
,"<p style=""font-size:75px;"">...</p>",,ospan,iti,ZmPuKl6dgyLxAwzvLi0zqNuj2E12,html-keyboard-response,110,705245,0.0-46.0-4.0-0.0-0.0,,,,,,,,,,,,,,,5d62e141756469001948081a,14:44:53,03/04/2024
2135.0,,,ospan,symmetry,ZmPuKl6dgyLxAwzvLi0zqNuj2E12,symmetry-judgement-task,111,708479,0.0-46.0-4.0-0.0-1.0-0.0,,,,,,,,,,1.0,1.0,,,,5d62e141756469001948081a,14:44:53,03/04/2024
,"<div style=""font-size: 10rem; color: #0000FF"">K</div>",,ospan,letter,ZmPuKl6dgyLxAwzvLi0zqNuj2E12,html-keyboard-response,112,709481,0.0-46.0-4.0-0.0-1.0-1.0,,,,,,,,,,,,,,,5d62e141756469001948081a,14:44:53,03/04/2024
1655.0,,,ospan,symmetry,ZmPuKl6dgyLxAwzvLi0zqNuj2E12,symmetry-judgement-task,113,712976,0.0-46.0-4.0-0.0-1.0-2.0,,,,,,,,,,1.0,1.0,,,,5d62e141756469001948081a,14:44:53,03/04/2024
,"<div style=""font-size: 10rem; color: #0000FF"">C</div>",,ospan,letter,ZmPuKl6dgyLxAwzvLi0zqNuj2E12,html-keyboard-response,114,713977,0.0-46.0-4.0-0.0-1.0-3.0,,,,,,,,,,,,,,,5d62e141756469001948081a,14:44:53,03/04/2024
1229.0,,,ospan,symmetry,ZmPuKl6dgyLxAwzvLi0zqNuj2E12,symmetry-judgement-task,115,717061,0.0-46.0-4.0-0.0-1.0-4.0,,,,,,,,,,1.0,1.0,,,,5d62e141756469001948081a,14:44:53,03/04/2024
,"<div style=""font-size: 10rem; color: #0000FF"">G</div>",,ospan,letter,ZmPuKl6dgyLxAwzvLi0zqNuj2E12,html-keyboard-response,116,718064,0.0-46.0-4.0-0.0-1.0-5.0,,,,,,,,,,,,,,,5d62e141756469001948081a,14:44:53,03/04/2024
1429.0,,,ospan,symmetry,ZmPuKl6dgyLxAwzvLi0zqNuj2E12,symmetry-judgement-task,117,721341,0.0-46.0-4.0-0.0-1.0-6.0,,,,,,,,,,1.0,1.0,,,,5d62e141756469001948081a,14:44:53,03/04/2024
,"<div style=""font-size: 10rem; color: #0000FF"">L</div>",,ospan,letter,ZmPuKl6dgyLxAwzvLi0zqNuj2E12,html-keyboard-response,118,722343,0.0-46.0-4.0-0.0-1.0-7.0,,,,,,,,,,,,,,,5d62e141756469001948081a,14:44:53,03/04/2024
3906.0000000001164,"<div class = numbox><p style=""font-size: 2.4rem"">Please recall the letters you saw to the best of your ability. If you do not remember a particular letter, use the SKIP button.<br><b>(When you are ready to lock in your answer, press ENTER)</b></p><button id = button_1 class = ""square num-button"" onclick = ""recordClick(this)""><div class = content><div class = numbers>C</div></div></button><button id = button_2 class = ""square num-button"" onclick = ""recordClick(this)""><div class = content><div class = numbers>G</div></div></button><button id = button_3 class = ""square num-button"" onclick = ""recordClick(this)""><div class = content><div class = numbers>H</div></div></button><button id = button_4 class = ""square num-button"" onclick = ""recordClick(this)""><div class = content><div class = numbers>J</div></div></button><button id = button_5 class = ""square num-button"" onclick = ""recordClick(this)""><div class = content><div class = numbers>K</div></div></button><button id = button_6 class = ""square num-button"" onclick = ""recordClick(this)""><div class = content><div class = numbers>L</div></div></button><button id = button_7 class = ""square num-button"" onclick = ""recordClick(this)""><div class = content><div class = numbers>N</div></div></button><button id = button_8 class = ""square num-button"" onclick = ""recordClick(this)""><div class = content><div class = numbers>P</div></div></button><button id = button_9 class = ""square num-button"" onclick = ""recordClick(this)""><div class = content><div class = numbers>Q</div></div></button><button id = button_10 class = ""square num-button"" onclick = ""recordClick(this)""><div class = content><div class = numbers>R</div></div></button><button id = button_11 class = ""square num-button"" onclick = ""recordClick(this)""><div class = content><div class = numbers>S</div></div></button><button id = button_12 class = ""square num-button"" onclick = ""recordClick(this)""><div class = content><div class = numbers>Y</div></div></button><button class = clear_button id = ""ClearButton"" onclick = ""clearResponse()"">BACKSPACE</button><button class = blank_button id = ""BlankButton"" onclick = ""blankResponse()"">SKIP</button><p style=""font-size: 2.4rem""><u><b>Current Answer:</b></u></p><br><br><div id=echoed_txt style=""font-size: 5rem; color:blue;""><b></b></div></div>",enter,ospan,retrieval,ZmPuKl6dgyLxAwzvLi0zqNuj2E12,html-keyboard-response,119,727000,0.0-46.0-4.0-0.0-2.0,7,7,7,4.0,"[""K"",""C"",""G"",""L""]","[""K"",""C"",""G"",""L""]",1.0,4.0,,,,,,,5d62e141756469001948081a,14:44:53,03/04/2024
1079.0,[''],0,ospan,feedback,ZmPuKl6dgyLxAwzvLi0zqNuj2E12,html-button-response,120,728581,0.0-46.0-4.0-0.0-3.0,,,,,,,,,,,,100.0,0.0,,5d62e141756469001948081a,14:44:53,03/04/2024
,"<p style=""font-size:75px;"">...</p>",,ospan,iti,ZmPuKl6dgyLxAwzvLi0zqNuj2E12,html-keyboard-response,121,729584,0.0-46.0-4.0-1.0-0.0,,,,,,,,,,,,,,,5d62e141756469001948081a,14:44:53,03/04/2024
1133.0,,,ospan,symmetry,ZmPuKl6dgyLxAwzvLi0zqNuj2E12,symmetry-judgement-task,122,731806,0.0-46.0-4.0-1.0-1.0-0.0,,,,,,,,,,1.0,1.0,,,,5d62e141756469001948081a,14:44:53,03/04/2024
,"<div style=""font-size: 10rem; color: #0000FF"">S</div>",,ospan,letter,ZmPuKl6dgyLxAwzvLi0zqNuj2E12,html-keyboard-response,123,732807,0.0-46.0-4.0-1.0-1.0-1.0,,,,,,,,,,,,,,,5d62e141756469001948081a,14:44:53,03/04/2024
1271.0,,,ospan,symmetry,ZmPuKl6dgyLxAwzvLi0zqNuj2E12,symmetry-judgement-task,124,735913,0.0-46.0-4.0-1.0-1.0-2.0,,,,,,,,,,1.0,1.0,,,,5d62e141756469001948081a,14:44:53,03/04/2024
,"<div style=""font-size: 10rem; color: #0000FF"">L</div>",,ospan,letter,ZmPuKl6dgyLxAwzvLi0zqNuj2E12,html-keyboard-response,125,736914,0.0-46.0-4.0-1.0-1.0-3.0,,,,,,,,,,,,,,,5d62e141756469001948081a,14:44:53,03/04/2024
1001.0,,,ospan,symmetry,ZmPuKl6dgyLxAwzvLi0zqNuj2E12,symmetry-judgement-task,126,739759,0.0-46.0-4.0-1.0-1.0-4.0,,,,,,,,,,1.0,1.0,,,,5d62e141756469001948081a,14:44:53,03/04/2024
,"<div style=""font-size: 10rem; color: #0000FF"">P</div>",,ospan,letter,ZmPuKl6dgyLxAwzvLi0zqNuj2E12,html-keyboard-response,127,740760,0.0-46.0-4.0-1.0-1.0-5.0,,,,,,,,,,,,,,,5d62e141756469001948081a,14:44:53,03/04/2024
831.0,,,ospan,symmetry,ZmPuKl6dgyLxAwzvLi0zqNuj2E12,symmetry-judgement-task,128,743431,0.0-46.0-4.0-1.0-1.0-6.0,,,,,,,,,,1.0,1.0,,,,5d62e141756469001948081a,14:44:53,03/04/2024
,"<div style=""font-size: 10rem; color: #0000FF"">G</div>",,ospan,letter,ZmPuKl6dgyLxAwzvLi0zqNuj2E12,html-keyboard-response,129,744432,0.0-46.0-4.0-1.0-1.0-7.0,,,,,,,,,,,,,,,5d62e141756469001948081a,14:44:53,03/04/2024
1348.0,,,ospan,symmetry,ZmPuKl6dgyLxAwzvLi0zqNuj2E12,symmetry-judgement-task,130,747621,0.0-46.0-4.0-1.0-1.0-8.0,,,,,,,,,,1.0,1.0,,,,5d62e141756469001948081a,14:44:53,03/04/2024
,"<div style=""font-size: 10rem; color: #0000FF"">K</div>",,ospan,letter,ZmPuKl6dgyLxAwzvLi0zqNuj2E12,html-keyboard-response,131,748623,0.0-46.0-4.0-1.0-1.0-9.0,,,,,,,,,,,,,,,5d62e141756469001948081a,14:44:53,03/04/2024
4819.0,"<div class = numbox><p style=""font-size: 2.4rem"">Please recall the letters you saw to the best of your ability. If you do not remember a particular letter, use the SKIP button.<br><b>(When you are ready to lock in your answer, press ENTER)</b></p><button id = button_1 class = ""square num-button"" onclick = ""recordClick(this)""><div class = content><div class = numbers>C</div></div></button><button id = button_2 class = ""square num-button"" onclick = ""recordClick(this)""><div class = content><div class = numbers>G</div></div></button><button id = button_3 class = ""square num-button"" onclick = ""recordClick(this)""><div class = content><div class = numbers>H</div></div></button><button id = button_4 class = ""square num-button"" onclick = ""recordClick(this)""><div class = content><div class = numbers>J</div></div></button><button id = button_5 class = ""square num-button"" onclick = ""recordClick(this)""><div class = content><div class = numbers>K</div></div></button><button id = button_6 class = ""square num-button"" onclick = ""recordClick(this)""><div class = content><div class = numbers>L</div></div></button><button id = button_7 class = ""square num-button"" onclick = ""recordClick(this)""><div class = content><div class = numbers>N</div></div></button><button id = button_8 class = ""square num-button"" onclick = ""recordClick(this)""><div class = content><div class = numbers>P</div></div></button><button id = button_9 class = ""square num-button"" onclick = ""recordClick(this)""><div class = content><div class = numbers>Q</div></div></button><button id = button_10 class = ""square num-button"" onclick = ""recordClick(this)""><div class = content><div class = numbers>R</div></div></button><button id = button_11 class = ""square num-button"" onclick = ""recordClick(this)""><div class = content><div class = numbers>S</div></div></button><button id = button_12 class = ""square num-button"" onclick = ""recordClick(this)""><div class = content><div class = numbers>Y</div></div></button><button class = clear_button id = ""ClearButton"" onclick = ""clearResponse()"">BACKSPACE</button><button class = blank_button id = ""BlankButton"" onclick = ""blankResponse()"">SKIP</button><p style=""font-size: 2.4rem""><u><b>Current Answer:</b></u></p><br><br><div id=echoed_txt style=""font-size: 5rem; color:blue;""><b></b></div></div>",enter,ospan,retrieval,ZmPuKl6dgyLxAwzvLi0zqNuj2E12,html-keyboard-response,132,754194,0.0-46.0-4.0-1.0-2.0,12,12,12,5.0,"[""S"",""L"",""P"",""G"",""K""]","[""S"",""L"",""P"",""G"",""K""]",1.0,5.0,,,,,,,5d62e141756469001948081a,14:44:53,03/04/2024
1000.0,[''],0,ospan,feedback,ZmPuKl6dgyLxAwzvLi0zqNuj2E12,html-button-response,133,755695,0.0-46.0-4.0-1.0-3.0,,,,,,,,,,,,100.0,0.0,,5d62e141756469001948081a,14:44:53,03/04/2024
,"<p style=""font-size:75px;"">...</p>",,ospan,iti,ZmPuKl6dgyLxAwzvLi0zqNuj2E12,html-keyboard-response,134,756697,0.0-46.0-4.0-2.0-0.0,,,,,,,,,,,,,,,5d62e141756469001948081a,14:44:53,03/04/2024
1000.0,,,ospan,symmetry,ZmPuKl6dgyLxAwzvLi0zqNuj2E12,symmetry-judgement-task,135,758790,0.0-46.0-4.0-2.0-1.0-0.0,,,,,,,,,,1.0,1.0,,,,5d62e141756469001948081a,14:44:53,03/04/2024
,"<div style=""font-size: 10rem; color: #0000FF"">C</div>",,ospan,letter,ZmPuKl6dgyLxAwzvLi0zqNuj2E12,html-keyboard-response,136,759792,0.0-46.0-4.0-2.0-1.0-1.0,,,,,,,,,,,,,,,5d62e141756469001948081a,14:44:53,03/04/2024
1132.0,,,ospan,symmetry,ZmPuKl6dgyLxAwzvLi0zqNuj2E12,symmetry-judgement-task,137,762761,0.0-46.0-4.0-2.0-1.0-2.0,,,,,,,,,,1.0,1.0,,,,5d62e141756469001948081a,14:44:53,03/04/2024
,"<div style=""font-size: 10rem; color: #0000FF"">J</div>",,ospan,letter,ZmPuKl6dgyLxAwzvLi0zqNuj2E12,html-keyboard-response,138,763762,0.0-46.0-4.0-2.0-1.0-3.0,,,,,,,,,,,,,,,5d62e141756469001948081a,14:44:53,03/04/2024
1067.0,,,ospan,symmetry,ZmPuKl6dgyLxAwzvLi0zqNuj2E12,symmetry-judgement-task,139,766668,0.0-46.0-4.0-2.0-1.0-4.0,,,,,,,,,,1.0,1.0,,,,5d62e141756469001948081a,14:44:53,03/04/2024
,"<div style=""font-size: 10rem; color: #0000FF"">R</div>",,ospan,letter,ZmPuKl6dgyLxAwzvLi0zqNuj2E12,html-keyboard-response,140,767669,0.0-46.0-4.0-2.0-1.0-5.0,,,,,,,,,,,,,,,5d62e141756469001948081a,14:44:53,03/04/2024
4902.0,"<div class = numbox><p style=""font-size: 2.4rem"">Please recall the letters you saw to the best of your ability. If you do not remember a particular letter, use the SKIP button.<br><b>(When you are ready to lock in your answer, press ENTER)</b></p><button id = button_1 class = ""square num-button"" onclick = ""recordClick(this)""><div class = content><div class = numbers>C</div></div></button><button id = button_2 class = ""square num-button"" onclick = ""recordClick(this)""><div class = content><div class = numbers>G</div></div></button><button id = button_3 class = ""square num-button"" onclick = ""recordClick(this)""><div class = content><div class = numbers>H</div></div></button><button id = button_4 class = ""square num-button"" onclick = ""recordClick(this)""><div class = content><div class = numbers>J</div></div></button><button id = button_5 class = ""square num-button"" onclick = ""recordClick(this)""><div class = content><div class = numbers>K</div></div></button><button id = button_6 class = ""square num-button"" onclick = ""recordClick(this)""><div class = content><div class = numbers>L</div></div></button><button id = button_7 class = ""square num-button"" onclick = ""recordClick(this)""><div class = content><div class = numbers>N</div></div></button><button id = button_8 class = ""square num-button"" onclick = ""recordClick(this)""><div class = content><div class = numbers>P</div></div></button><button id = button_9 class = ""square num-button"" onclick = ""recordClick(this)""><div class = content><div class = numbers>Q</div></div></button><button id = button_10 class = ""square num-button"" onclick = ""recordClick(this)""><div class = content><div class = numbers>R</div></div></button><button id = button_11 class = ""square num-button"" onclick = ""recordClick(this)""><div class = content><div class = numbers>S</div></div></button><button id = button_12 class = ""square num-button"" onclick = ""recordClick(this)""><div class = content><div class = numbers>Y</div></div></button><button class = clear_button id = ""ClearButton"" onclick = ""clearResponse()"">BACKSPACE</button><button class = blank_button id = ""BlankButton"" onclick = ""blankResponse()"">SKIP</button><p style=""font-size: 2.4rem""><u><b>Current Answer:</b></u></p><br><br><div id=echoed_txt style=""font-size: 5rem; color:blue;""><b></b></div></div>",enter,ospan,retrieval,ZmPuKl6dgyLxAwzvLi0zqNuj2E12,html-keyboard-response,141,773323,0.0-46.0-4.0-2.0-2.0,15,15,15,3.0,"[""C"",""J"",""R""]","[""C"",""J"",""R""]",1.0,3.0,,,,,,,5d62e141756469001948081a,14:44:53,03/04/2024
1091.0,[''],0,ospan,feedback,ZmPuKl6dgyLxAwzvLi0zqNuj2E12,html-button-response,142,774916,0.0-46.0-4.0-2.0-3.0,,,,,,,,,,,,100.0,0.0,,5d62e141756469001948081a,14:44:53,03/04/2024
,"<p style=""font-size:75px;"">...</p>",,ospan,iti,ZmPuKl6dgyLxAwzvLi0zqNuj2E12,html-keyboard-response,143,775919,0.0-46.0-5.0-0.0-0.0,,,,,,,,,,,,,,,5d62e141756469001948081a,14:44:53,03/04/2024
1390.0,,,ospan,symmetry,ZmPuKl6dgyLxAwzvLi0zqNuj2E12,symmetry-judgement-task,144,778401,0.0-46.0-5.0-0.0-1.0-0.0,,,,,,,,,,1.0,1.0,,,,5d62e141756469001948081a,14:44:53,03/04/2024
,"<div style=""font-size: 10rem; color: #0000FF"">K</div>",,ospan,letter,ZmPuKl6dgyLxAwzvLi0zqNuj2E12,html-keyboard-response,145,779402,0.0-46.0-5.0-0.0-1.0-1.0,,,,,,,,,,,,,,,5d62e141756469001948081a,14:44:53,03/04/2024
1067.0,,,ospan,symmetry,ZmPuKl6dgyLxAwzvLi0zqNuj2E12,symmetry-judgement-task,146,782320,0.0-46.0-5.0-0.0-1.0-2.0,,,,,,,,,,1.0,1.0,,,,5d62e141756469001948081a,14:44:53,03/04/2024
,"<div style=""font-size: 10rem; color: #0000FF"">Y</div>",,ospan,letter,ZmPuKl6dgyLxAwzvLi0zqNuj2E12,html-keyboard-response,147,783322,0.0-46.0-5.0-0.0-1.0-3.0,,,,,,,,,,,,,,,5d62e141756469001948081a,14:44:53,03/04/2024
1039.0,,,ospan,symmetry,ZmPuKl6dgyLxAwzvLi0zqNuj2E12,symmetry-judgement-task,148,786211,0.0-46.0-5.0-0.0-1.0-4.0,,,,,,,,,,1.0,1.0,,,,5d62e141756469001948081a,14:44:53,03/04/2024
,"<div style=""font-size: 10rem; color: #0000FF"">H</div>",,ospan,letter,ZmPuKl6dgyLxAwzvLi0zqNuj2E12,html-keyboard-response,149,787213,0.0-46.0-5.0-0.0-1.0-5.0,,,,,,,,,,,,,,,5d62e141756469001948081a,14:44:53,03/04/2024
1135.0,,,ospan,symmetry,ZmPuKl6dgyLxAwzvLi0zqNuj2E12,symmetry-judgement-task,150,790195,0.0-46.0-5.0-0.0-1.0-6.0,,,,,,,,,,1.0,1.0,,,,5d62e141756469001948081a,14:44:53,03/04/2024
,"<div style=""font-size: 10rem; color: #0000FF"">S</div>",,ospan,letter,ZmPuKl6dgyLxAwzvLi0zqNuj2E12,html-keyboard-response,151,791196,0.0-46.0-5.0-0.0-1.0-7.0,,,,,,,,,,,,,,,5d62e141756469001948081a,14:44:53,03/04/2024
909.0,,,ospan,symmetry,ZmPuKl6dgyLxAwzvLi0zqNuj2E12,symmetry-judgement-task,152,793951,0.0-46.0-5.0-0.0-1.0-8.0,,,,,,,,,,1.0,1.0,,,,5d62e141756469001948081a,14:44:53,03/04/2024
,"<div style=""font-size: 10rem; color: #0000FF"">N</div>",,ospan,letter,ZmPuKl6dgyLxAwzvLi0zqNuj2E12,html-keyboard-response,153,794953,0.0-46.0-5.0-0.0-1.0-9.0,,,,,,,,,,,,,,,5d62e141756469001948081a,14:44:53,03/04/2024
1643.0,,,ospan,symmetry,ZmPuKl6dgyLxAwzvLi0zqNuj2E12,symmetry-judgement-task,154,798436,0.0-46.0-5.0-0.0-1.0-10.0,,,,,,,,,,1.0,1.0,,,,5d62e141756469001948081a,14:44:53,03/04/2024
,"<div style=""font-size: 10rem; color: #0000FF"">R</div>",,ospan,letter,ZmPuKl6dgyLxAwzvLi0zqNuj2E12,html-keyboard-response,155,799437,0.0-46.0-5.0-0.0-1.0-11.0,,,,,,,,,,,,,,,5d62e141756469001948081a,14:44:53,03/04/2024
5335.0,"<div class = numbox><p style=""font-size: 2.4rem"">Please recall the letters you saw to the best of your ability. If you do not remember a particular letter, use the SKIP button.<br><b>(When you are ready to lock in your answer, press ENTER)</b></p><button id = button_1 class = ""square num-button"" onclick = ""recordClick(this)""><div class = content><div class = numbers>C</div></div></button><button id = button_2 class = ""square num-button"" onclick = ""recordClick(this)""><div class = content><div class = numbers>G</div></div></button><button id = button_3 class = ""square num-button"" onclick = ""recordClick(this)""><div class = content><div class = numbers>H</div></div></button><button id = button_4 class = ""square num-button"" onclick = ""recordClick(this)""><div class = content><div class = numbers>J</div></div></button><button id = button_5 class = ""square num-button"" onclick = ""recordClick(this)""><div class = content><div class = numbers>K</div></div></button><button id = button_6 class = ""square num-button"" onclick = ""recordClick(this)""><div class = content><div class = numbers>L</div></div></button><button id = button_7 class = ""square num-button"" onclick = ""recordClick(this)""><div class = content><div class = numbers>N</div></div></button><button id = button_8 class = ""square num-button"" onclick = ""recordClick(this)""><div class = content><div class = numbers>P</div></div></button><button id = button_9 class = ""square num-button"" onclick = ""recordClick(this)""><div class = content><div class = numbers>Q</div></div></button><button id = button_10 class = ""square num-button"" onclick = ""recordClick(this)""><div class = content><div class = numbers>R</div></div></button><button id = button_11 class = ""square num-button"" onclick = ""recordClick(this)""><div class = content><div class = numbers>S</div></div></button><button id = button_12 class = ""square num-button"" onclick = ""recordClick(this)""><div class = content><div class = numbers>Y</div></div></button><button class = clear_button id = ""ClearButton"" onclick = ""clearResponse()"">BACKSPACE</button><button class = blank_button id = ""BlankButton"" onclick = ""blankResponse()"">SKIP</button><p style=""font-size: 2.4rem""><u><b>Current Answer:</b></u></p><br><br><div id=echoed_txt style=""font-size: 5rem; color:blue;""><b></b></div></div>",enter,ospan,retrieval,ZmPuKl6dgyLxAwzvLi0zqNuj2E12,html-keyboard-response,156,805525,0.0-46.0-5.0-0.0-2.0,21,21,21,6.0,"[""K"",""Y"",""H"",""S"",""N"",""R""]","[""K"",""Y"",""H"",""S"",""N"",""R""]",1.0,6.0,,,,,,,5d62e141756469001948081a,14:44:53,03/04/2024
1116.0,[''],0,ospan,feedback,ZmPuKl6dgyLxAwzvLi0zqNuj2E12,html-button-response,157,807144,0.0-46.0-5.0-0.0-3.0,,,,,,,,,,,,100.0,0.0,,5d62e141756469001948081a,14:44:53,03/04/2024
,"<p style=""font-size:75px;"">...</p>",,ospan,iti,ZmPuKl6dgyLxAwzvLi0zqNuj2E12,html-keyboard-response,158,808147,0.0-46.0-5.0-1.0-0.0,,,,,,,,,,,,,,,5d62e141756469001948081a,14:44:53,03/04/2024
1609.0,,,ospan,symmetry,ZmPuKl6dgyLxAwzvLi0zqNuj2E12,symmetry-judgement-task,159,810852,0.0-46.0-5.0-1.0-1.0-0.0,,,,,,,,,,1.0,1.0,,,,5d62e141756469001948081a,14:44:53,03/04/2024
,"<div style=""font-size: 10rem; color: #0000FF"">S</div>",,ospan,letter,ZmPuKl6dgyLxAwzvLi0zqNuj2E12,html-keyboard-response,160,811853,0.0-46.0-5.0-1.0-1.0-1.0,,,,,,,,,,,,,,,5d62e141756469001948081a,14:44:53,03/04/2024
1172.0,,,ospan,symmetry,ZmPuKl6dgyLxAwzvLi0zqNuj2E12,symmetry-judgement-task,161,814871,0.0-46.0-5.0-1.0-1.0-2.0,,,,,,,,,,1.0,1.0,,,,5d62e141756469001948081a,14:44:53,03/04/2024
,"<div style=""font-size: 10rem; color: #0000FF"">R</div>",,ospan,letter,ZmPuKl6dgyLxAwzvLi0zqNuj2E12,html-keyboard-response,162,815872,0.0-46.0-5.0-1.0-1.0-3.0,,,,,,,,,,,,,,,5d62e141756469001948081a,14:44:53,03/04/2024
978.0,,,ospan,symmetry,ZmPuKl6dgyLxAwzvLi0zqNuj2E12,symmetry-judgement-task,163,818692,0.0-46.0-5.0-1.0-1.0-4.0,,,,,,,,,,1.0,1.0,,,,5d62e141756469001948081a,14:44:53,03/04/2024
,"<div style=""font-size: 10rem; color: #0000FF"">G</div>",,ospan,letter,ZmPuKl6dgyLxAwzvLi0zqNuj2E12,html-keyboard-response,164,819693,0.0-46.0-5.0-1.0-1.0-5.0,,,,,,,,,,,,,,,5d62e141756469001948081a,14:44:53,03/04/2024
1170.0,,,ospan,symmetry,ZmPuKl6dgyLxAwzvLi0zqNuj2E12,symmetry-judgement-task,165,822705,0.0-46.0-5.0-1.0-1.0-6.0,,,,,,,,,,1.0,1.0,,,,5d62e141756469001948081a,14:44:53,03/04/2024
,"<div style=""font-size: 10rem; color: #0000FF"">C</div>",,ospan,letter,ZmPuKl6dgyLxAwzvLi0zqNuj2E12,html-keyboard-response,166,823706,0.0-46.0-5.0-1.0-1.0-7.0,,,,,,,,,,,,,,,5d62e141756469001948081a,14:44:53,03/04/2024
1227.0,,,ospan,symmetry,ZmPuKl6dgyLxAwzvLi0zqNuj2E12,symmetry-judgement-task,167,826771,0.0-46.0-5.0-1.0-1.0-8.0,,,,,,,,,,1.0,1.0,,,,5d62e141756469001948081a,14:44:53,03/04/2024
,"<div style=""font-size: 10rem; color: #0000FF"">H</div>",,ospan,letter,ZmPuKl6dgyLxAwzvLi0zqNuj2E12,html-keyboard-response,168,827773,0.0-46.0-5.0-1.0-1.0-9.0,,,,,,,,,,,,,,,5d62e141756469001948081a,14:44:53,03/04/2024
1091.0,,,ospan,symmetry,ZmPuKl6dgyLxAwzvLi0zqNuj2E12,symmetry-judgement-task,169,830706,0.0-46.0-5.0-1.0-1.0-10.0,,,,,,,,,,1.0,1.0,,,,5d62e141756469001948081a,14:44:53,03/04/2024
,"<div style=""font-size: 10rem; color: #0000FF"">N</div>",,ospan,letter,ZmPuKl6dgyLxAwzvLi0zqNuj2E12,html-keyboard-response,170,831707,0.0-46.0-5.0-1.0-1.0-11.0,,,,,,,,,,,,,,,5d62e141756469001948081a,14:44:53,03/04/2024
1135.0,,,ospan,symmetry,ZmPuKl6dgyLxAwzvLi0zqNuj2E12,symmetry-judgement-task,171,834685,0.0-46.0-5.0-1.0-1.0-12.0,,,,,,,,,,1.0,1.0,,,,5d62e141756469001948081a,14:44:53,03/04/2024
,"<div style=""font-size: 10rem; color: #0000FF"">Q</div>",,ospan,letter,ZmPuKl6dgyLxAwzvLi0zqNuj2E12,html-keyboard-response,172,835686,0.0-46.0-5.0-1.0-1.0-13.0,,,,,,,,,,,,,,,5d62e141756469001948081a,14:44:53,03/04/2024
8526.0,"<div class = numbox><p style=""font-size: 2.4rem"">Please recall the letters you saw to the best of your ability. If you do not remember a particular letter, use the SKIP button.<br><b>(When you are ready to lock in your answer, press ENTER)</b></p><button id = button_1 class = ""square num-button"" onclick = ""recordClick(this)""><div class = content><div class = numbers>C</div></div></button><button id = button_2 class = ""square num-button"" onclick = ""recordClick(this)""><div class = content><div class = numbers>G</div></div></button><button id = button_3 class = ""square num-button"" onclick = ""recordClick(this)""><div class = content><div class = numbers>H</div></div></button><button id = button_4 class = ""square num-button"" onclick = ""recordClick(this)""><div class = content><div class = numbers>J</div></div></button><button id = button_5 class = ""square num-button"" onclick = ""recordClick(this)""><div class = content><div class = numbers>K</div></div></button><button id = button_6 class = ""square num-button"" onclick = ""recordClick(this)""><div class = content><div class = numbers>L</div></div></button><button id = button_7 class = ""square num-button"" onclick = ""recordClick(this)""><div class = content><div class = numbers>N</div></div></button><button id = button_8 class = ""square num-button"" onclick = ""recordClick(this)""><div class = content><div class = numbers>P</div></div></button><button id = button_9 class = ""square num-button"" onclick = ""recordClick(this)""><div class = content><div class = numbers>Q</div></div></button><button id = button_10 class = ""square num-button"" onclick = ""recordClick(this)""><div class = content><div class = numbers>R</div></div></button><button id = button_11 class = ""square num-button"" onclick = ""recordClick(this)""><div class = content><div class = numbers>S</div></div></button><button id = button_12 class = ""square num-button"" onclick = ""recordClick(this)""><div class = content><div class = numbers>Y</div></div></button><button class = clear_button id = ""ClearButton"" onclick = ""clearResponse()"">BACKSPACE</button><button class = blank_button id = ""BlankButton"" onclick = ""blankResponse()"">SKIP</button><p style=""font-size: 2.4rem""><u><b>Current Answer:</b></u></p><br><br><div id=echoed_txt style=""font-size: 5rem; color:blue;""><b></b></div></div>",enter,ospan,retrieval,ZmPuKl6dgyLxAwzvLi0zqNuj2E12,html-keyboard-response,173,844965,0.0-46.0-5.0-1.0-2.0,28,26,21,7.0,"[""S"",""R"",""C"",""G"",""H"",""N"",""Q""]","[""S"",""R"",""G"",""C"",""H"",""N"",""Q""]",0.0,5.0,,,,,,,5d62e141756469001948081a,14:44:53,03/04/2024
976.0,[''],0,ospan,feedback,ZmPuKl6dgyLxAwzvLi0zqNuj2E12,html-button-response,174,846442,0.0-46.0-5.0-1.0-3.0,,,,,,,,,,,,100.0,0.0,,5d62e141756469001948081a,14:44:53,03/04/2024
,"<p style=""font-size:75px;"">...</p>",,ospan,iti,ZmPuKl6dgyLxAwzvLi0zqNuj2E12,html-keyboard-response,175,847446,0.0-46.0-6.0-0.0-0.0,,,,,,,,,,,,,,,5d62e141756469001948081a,14:44:53,03/04/2024
1298.0,,,ospan,symmetry,ZmPuKl6dgyLxAwzvLi0zqNuj2E12,symmetry-judgement-task,176,849837,0.0-46.0-6.0-0.0-1.0-0.0,,,,,,,,,,1.0,1.0,,,,5d62e141756469001948081a,14:44:53,03/04/2024
,"<div style=""font-size: 10rem; color: #0000FF"">R</div>",,ospan,letter,ZmPuKl6dgyLxAwzvLi0zqNuj2E12,html-keyboard-response,177,850838,0.0-46.0-6.0-0.0-1.0-1.0,,,,,,,,,,,,,,,5d62e141756469001948081a,14:44:53,03/04/2024
976.0,,,ospan,symmetry,ZmPuKl6dgyLxAwzvLi0zqNuj2E12,symmetry-judgement-task,178,853660,0.0-46.0-6.0-0.0-1.0-2.0,,,,,,,,,,1.0,1.0,,,,5d62e141756469001948081a,14:44:53,03/04/2024
,"<div style=""font-size: 10rem; color: #0000FF"">N</div>",,ospan,letter,ZmPuKl6dgyLxAwzvLi0zqNuj2E12,html-keyboard-response,179,854661,0.0-46.0-6.0-0.0-1.0-3.0,,,,,,,,,,,,,,,5d62e141756469001948081a,14:44:53,03/04/2024
787.0,,,ospan,symmetry,ZmPuKl6dgyLxAwzvLi0zqNuj2E12,symmetry-judgement-task,180,857295,0.0-46.0-6.0-0.0-1.0-4.0,,,,,,,,,,1.0,1.0,,,,5d62e141756469001948081a,14:44:53,03/04/2024
,"<div style=""font-size: 10rem; color: #0000FF"">S</div>",,ospan,letter,ZmPuKl6dgyLxAwzvLi0zqNuj2E12,html-keyboard-response,181,858296,0.0-46.0-6.0-0.0-1.0-5.0,,,,,,,,,,,,,,,5d62e141756469001948081a,14:44:53,03/04/2024
1564.0,,,ospan,symmetry,ZmPuKl6dgyLxAwzvLi0zqNuj2E12,symmetry-judgement-task,182,861698,0.0-46.0-6.0-0.0-1.0-6.0,,,,,,,,,,1.0,1.0,,,,5d62e141756469001948081a,14:44:53,03/04/2024
,"<div style=""font-size: 10rem; color: #0000FF"">H</div>",,ospan,letter,ZmPuKl6dgyLxAwzvLi0zqNuj2E12,html-keyboard-response,183,862699,0.0-46.0-6.0-0.0-1.0-7.0,,,,,,,,,,,,,,,5d62e141756469001948081a,14:44:53,03/04/2024
1202.0,,,ospan,symmetry,ZmPuKl6dgyLxAwzvLi0zqNuj2E12,symmetry-judgement-task,184,865734,0.0-46.0-6.0-0.0-1.0-8.0,,,,,,,,,,1.0,1.0,,,,5d62e141756469001948081a,14:44:53,03/04/2024
,"<div style=""font-size: 10rem; color: #0000FF"">Q</div>",,ospan,letter,ZmPuKl6dgyLxAwzvLi0zqNuj2E12,html-keyboard-response,185,866736,0.0-46.0-6.0-0.0-1.0-9.0,,,,,,,,,,,,,,,5d62e141756469001948081a,14:44:53,03/04/2024
4994.0,"<div class = numbox><p style=""font-size: 2.4rem"">Please recall the letters you saw to the best of your ability. If you do not remember a particular letter, use the SKIP button.<br><b>(When you are ready to lock in your answer, press ENTER)</b></p><button id = button_1 class = ""square num-button"" onclick = ""recordClick(this)""><div class = content><div class = numbers>C</div></div></button><button id = button_2 class = ""square num-button"" onclick = ""recordClick(this)""><div class = content><div class = numbers>G</div></div></button><button id = button_3 class = ""square num-button"" onclick = ""recordClick(this)""><div class = content><div class = numbers>H</div></div></button><button id = button_4 class = ""square num-button"" onclick = ""recordClick(this)""><div class = content><div class = numbers>J</div></div></button><button id = button_5 class = ""square num-button"" onclick = ""recordClick(this)""><div class = content><div class = numbers>K</div></div></button><button id = button_6 class = ""square num-button"" onclick = ""recordClick(this)""><div class = content><div class = numbers>L</div></div></button><button id = button_7 class = ""square num-button"" onclick = ""recordClick(this)""><div class = content><div class = numbers>N</div></div></button><button id = button_8 class = ""square num-button"" onclick = ""recordClick(this)""><div class = content><div class = numbers>P</div></div></button><button id = button_9 class = ""square num-button"" onclick = ""recordClick(this)""><div class = content><div class = numbers>Q</div></div></button><button id = button_10 class = ""square num-button"" onclick = ""recordClick(this)""><div class = content><div class = numbers>R</div></div></button><button id = button_11 class = ""square num-button"" onclick = ""recordClick(this)""><div class = content><div class = numbers>S</div></div></button><button id = button_12 class = ""square num-button"" onclick = ""recordClick(this)""><div class = content><div class = numbers>Y</div></div></button><button class = clear_button id = ""ClearButton"" onclick = ""clearResponse()"">BACKSPACE</button><button class = blank_button id = ""BlankButton"" onclick = ""blankResponse()"">SKIP</button><p style=""font-size: 2.4rem""><u><b>Current Answer:</b></u></p><br><br><div id=echoed_txt style=""font-size: 5rem; color:blue;""><b></b></div></div>",enter,ospan,retrieval,ZmPuKl6dgyLxAwzvLi0zqNuj2E12,html-keyboard-response,186,872482,0.0-46.0-6.0-0.0-2.0,33,31,26,5.0,"[""R"",""N"",""S"",""H"",""Q""]","[""R"",""N"",""S"",""H"",""Q""]",1.0,5.0,,,,,,,5d62e141756469001948081a,14:44:53,03/04/2024
1043.0,[''],0,ospan,feedback,ZmPuKl6dgyLxAwzvLi0zqNuj2E12,html-button-response,187,874028,0.0-46.0-6.0-0.0-3.0,,,,,,,,,,,,100.0,0.0,,5d62e141756469001948081a,14:44:53,03/04/2024
,"<p style=""font-size:75px;"">...</p>",,ospan,iti,ZmPuKl6dgyLxAwzvLi0zqNuj2E12,html-keyboard-response,188,875032,0.0-46.0-6.0-1.0-0.0,,,,,,,,,,,,,,,5d62e141756469001948081a,14:44:53,03/04/2024
1180.0,,,ospan,symmetry,ZmPuKl6dgyLxAwzvLi0zqNuj2E12,symmetry-judgement-task,189,877304,0.0-46.0-6.0-1.0-1.0-0.0,,,,,,,,,,1.0,1.0,,,,5d62e141756469001948081a,14:44:53,03/04/2024
,"<div style=""font-size: 10rem; color: #0000FF"">K</div>",,ospan,letter,ZmPuKl6dgyLxAwzvLi0zqNuj2E12,html-keyboard-response,190,878305,0.0-46.0-6.0-1.0-1.0-1.0,,,,,,,,,,,,,,,5d62e141756469001948081a,14:44:53,03/04/2024
827.0,,,ospan,symmetry,ZmPuKl6dgyLxAwzvLi0zqNuj2E12,symmetry-judgement-task,191,880974,0.0-46.0-6.0-1.0-1.0-2.0,,,,,,,,,,1.0,1.0,,,,5d62e141756469001948081a,14:44:53,03/04/2024
,"<div style=""font-size: 10rem; color: #0000FF"">L</div>",,ospan,letter,ZmPuKl6dgyLxAwzvLi0zqNuj2E12,html-keyboard-response,192,881975,0.0-46.0-6.0-1.0-1.0-3.0,,,,,,,,,,,,,,,5d62e141756469001948081a,14:44:53,03/04/2024
829.0,,,ospan,symmetry,ZmPuKl6dgyLxAwzvLi0zqNuj2E12,symmetry-judgement-task,193,884648,0.0-46.0-6.0-1.0-1.0-4.0,,,,,,,,,,1.0,1.0,,,,5d62e141756469001948081a,14:44:53,03/04/2024
,"<div style=""font-size: 10rem; color: #0000FF"">P</div>",,ospan,letter,ZmPuKl6dgyLxAwzvLi0zqNuj2E12,html-keyboard-response,194,885649,0.0-46.0-6.0-1.0-1.0-5.0,,,,,,,,,,,,,,,5d62e141756469001948081a,14:44:53,03/04/2024
1170.0,,,ospan,symmetry,ZmPuKl6dgyLxAwzvLi0zqNuj2E12,symmetry-judgement-task,195,888673,0.0-46.0-6.0-1.0-1.0-6.0,,,,,,,,,,1.0,1.0,,,,5d62e141756469001948081a,14:44:53,03/04/2024
,"<div style=""font-size: 10rem; color: #0000FF"">Y</div>",,ospan,letter,ZmPuKl6dgyLxAwzvLi0zqNuj2E12,html-keyboard-response,196,889675,0.0-46.0-6.0-1.0-1.0-7.0,,,,,,,,,,,,,,,5d62e141756469001948081a,14:44:53,03/04/2024
965.0,,,ospan,symmetry,ZmPuKl6dgyLxAwzvLi0zqNuj2E12,symmetry-judgement-task,197,892493,0.0-46.0-6.0-1.0-1.0-8.0,,,,,,,,,,1.0,1.0,,,,5d62e141756469001948081a,14:44:53,03/04/2024
,"<div style=""font-size: 10rem; color: #0000FF"">J</div>",,ospan,letter,ZmPuKl6dgyLxAwzvLi0zqNuj2E12,html-keyboard-response,198,893495,0.0-46.0-6.0-1.0-1.0-9.0,,,,,,,,,,,,,,,5d62e141756469001948081a,14:44:53,03/04/2024
1324.0,,,ospan,symmetry,ZmPuKl6dgyLxAwzvLi0zqNuj2E12,symmetry-judgement-task,199,896661,0.0-46.0-6.0-1.0-1.0-10.0,,,,,,,,,,1.0,1.0,,,,5d62e141756469001948081a,14:44:53,03/04/2024
,"<div style=""font-size: 10rem; color: #0000FF"">H</div>",,ospan,letter,ZmPuKl6dgyLxAwzvLi0zqNuj2E12,html-keyboard-response,200,897662,0.0-46.0-6.0-1.0-1.0-11.0,,,,,,,,,,,,,,,5d62e141756469001948081a,14:44:53,03/04/2024
1276.0,,,ospan,symmetry,ZmPuKl6dgyLxAwzvLi0zqNuj2E12,symmetry-judgement-task,201,900799,0.0-46.0-6.0-1.0-1.0-12.0,,,,,,,,,,1.0,1.0,,,,5d62e141756469001948081a,14:44:53,03/04/2024
,"<div style=""font-size: 10rem; color: #0000FF"">S</div>",,ospan,letter,ZmPuKl6dgyLxAwzvLi0zqNuj2E12,html-keyboard-response,202,901800,0.0-46.0-6.0-1.0-1.0-13.0,,,,,,,,,,,,,,,5d62e141756469001948081a,14:44:53,03/04/2024
1054.0,,,ospan,symmetry,ZmPuKl6dgyLxAwzvLi0zqNuj2E12,symmetry-judgement-task,203,904700,0.0-46.0-6.0-1.0-1.0-14.0,,,,,,,,,,1.0,1.0,,,,5d62e141756469001948081a,14:44:53,03/04/2024
,"<div style=""font-size: 10rem; color: #0000FF"">Q</div>",,ospan,letter,ZmPuKl6dgyLxAwzvLi0zqNuj2E12,html-keyboard-response,204,905701,0.0-46.0-6.0-1.0-1.0-15.0,,,,,,,,,,,,,,,5d62e141756469001948081a,14:44:53,03/04/2024
6360.0,"<div class = numbox><p style=""font-size: 2.4rem"">Please recall the letters you saw to the best of your ability. If you do not remember a particular letter, use the SKIP button.<br><b>(When you are ready to lock in your answer, press ENTER)</b></p><button id = button_1 class = ""square num-button"" onclick = ""recordClick(this)""><div class = content><div class = numbers>C</div></div></button><button id = button_2 class = ""square num-button"" onclick = ""recordClick(this)""><div class = content><div class = numbers>G</div></div></button><button id = button_3 class = ""square num-button"" onclick = ""recordClick(this)""><div class = content><div class = numbers>H</div></div></button><button id = button_4 class = ""square num-button"" onclick = ""recordClick(this)""><div class = content><div class = numbers>J</div></div></button><button id = button_5 class = ""square num-button"" onclick = ""recordClick(this)""><div class = content><div class = numbers>K</div></div></button><button id = button_6 class = ""square num-button"" onclick = ""recordClick(this)""><div class = content><div class = numbers>L</div></div></button><button id = button_7 class = ""square num-button"" onclick = ""recordClick(this)""><div class = content><div class = numbers>N</div></div></button><button id = button_8 class = ""square num-button"" onclick = ""recordClick(this)""><div class = content><div class = numbers>P</div></div></button><button id = button_9 class = ""square num-button"" onclick = ""recordClick(this)""><div class = content><div class = numbers>Q</div></div></button><button id = button_10 class = ""square num-button"" onclick = ""recordClick(this)""><div class = content><div class = numbers>R</div></div></button><button id = button_11 class = ""square num-button"" onclick = ""recordClick(this)""><div class = content><div class = numbers>S</div></div></button><button id = button_12 class = ""square num-button"" onclick = ""recordClick(this)""><div class = content><div class = numbers>Y</div></div></button><button class = clear_button id = ""ClearButton"" onclick = ""clearResponse()"">BACKSPACE</button><button class = blank_button id = ""BlankButton"" onclick = ""blankResponse()"">SKIP</button><p style=""font-size: 2.4rem""><u><b>Current Answer:</b></u></p><br><br><div id=echoed_txt style=""font-size: 5rem; color:blue;""><b></b></div></div>",enter,ospan,retrieval,ZmPuKl6dgyLxAwzvLi0zqNuj2E12,html-keyboard-response,205,912813,0.0-46.0-6.0-1.0-2.0,41,32,26,8.0,"[""K"",""Y"",""G"",""L"",""H"",""S"",""Q""]","[""K"",""L"",""P"",""Y"",""J"",""H"",""S"",""Q""]",0.0,1.0,,,,,,,5d62e141756469001948081a,14:44:53,03/04/2024
5737.0,[''],0,ospan,feedback,ZmPuKl6dgyLxAwzvLi0zqNuj2E12,html-button-response,206,919052,0.0-46.0-6.0-1.0-3.0,,,,,,,,,,,,100.0,0.0,,5d62e141756469001948081a,14:44:53,03/04/2024
23106.0,,"{'Q0': 'It was enjoyable and something I have not done before, fun to try and remember the letters, everything was clear'}",ospan,survey_ospan,ZmPuKl6dgyLxAwzvLi0zqNuj2E12,lmdlab-survey-text,207,942912,0.0-46.0-7.0,,,,,,,,,,,,,,ZmPuKl6dgyLxAwzvLi0zqNuj2E12,5d62e141756469001948081a,14:44:53,03/04/2024
1249.0,<p><p style='font-size: 3rem'>Great work!<br><br>This completes the symmetry and memory task.</p><br><br><br>,0,ospan,finish,ZmPuKl6dgyLxAwzvLi0zqNuj2E12,html-button-response,208,944164,0.0-46.0-8.0,41,32,26,,,,,,,,,100.0,,,5d62e141756469001948081a,14:44:53,03/04/2024
