rt,stimulus,response,exp_name,exp_stage,subjectID,trial_type,trial_index,time_elapsed,internal_node_id,ospan_shown,ospan_total,ospan_abs,length,resp_actual,resp_correct,full_correct,num_correct,feedback,accuracy,correct,math_acc,math_warning,databaseID,prolificID,start_time,date
66754.89999999851,<div class = 'left_align' style='font-size: 3.25rem; line-height: 1.3;'><p class = 'center_align'><b>Welcome to the Symmetry and Memory Task</b><br><br><br><br></p>Press 'continue' to show the instructions.<br><br><br><br></div>,0,ospan,instruct,J7Gl24mRlqVq5HdmZqXMslkWcXl1,html-button-response,54,984684,0.0-46.0-0.0-0.0-0.0,,,,,,,,,,,,,,,5f356cbffb4cea5170d04fd9,10:53:16,03/04/2024
47055.09999999404,"<div class = 'left_align' style='font-size: 3.25rem; line-height: 1.3;'><p class = 'center_align'><b>Symmetry and Memory Task</b><br><br></p>In this task, you will try to memorize letters you see on the screen<br>while you also view black and white grid pictures.<br><br>In the next few minutes, you will have some practice to get you familiar<br>with how the task works.<br><br>It may be difficult sometimes, but please do not worry about making mistakes!<br><br>We will begin by practicing the letter part of the task.<br><br><br><br></div>",0,ospan,instruct,J7Gl24mRlqVq5HdmZqXMslkWcXl1,html-button-response,55,1031990,0.0-46.0-0.0-0.0-1.0,,,,,,,,,,,,,,,5f356cbffb4cea5170d04fd9,10:53:16,03/04/2024
13733.90000000596,"<div class = 'left_align' style='font-size: 3.25rem; line-height: 1.3;'>For this practice part, letters will appear on the screen one at a time.<br><br>Try to remember each letter in the order presented.<br><br>After some letters have been shown, you will see a response screen. Your<br>goal is to report the letters you saw <b>in order</b>. If you do not remember<br>a particular letter, you will have the option to leave it blank.<br><br><br><br></div>",0,ospan,instruct,J7Gl24mRlqVq5HdmZqXMslkWcXl1,html-button-response,56,1045976,0.0-46.0-0.0-0.0-2.0,,,,,,,,,,,,,,,5f356cbffb4cea5170d04fd9,10:53:16,03/04/2024
3811.7000000029802,"<div class = 'left_align' style='font-size: 3.25rem; line-height: 1.3;'>Remember, it is very important to get the letters in the same<br>order as you see them.<br><br>When you are ready, you may begin the letter practice.</div><br><br><br><br>",0,ospan,instruct,J7Gl24mRlqVq5HdmZqXMslkWcXl1,html-button-response,57,1050040,0.0-46.0-0.0-0.0-3.0,,,,,,,,,,,,,,,5f356cbffb4cea5170d04fd9,10:53:16,03/04/2024
,"<p style=""font-size:75px;"">...</p>",,ospan,iti,J7Gl24mRlqVq5HdmZqXMslkWcXl1,html-keyboard-response,58,1051295,0.0-46.0-0.0-1.0-0.0,,,,,,,,,,,,,,,5f356cbffb4cea5170d04fd9,10:53:16,03/04/2024
,"<div style=""font-size: 10rem; color: #0000FF"">G</div>",,ospan,letter,J7Gl24mRlqVq5HdmZqXMslkWcXl1,html-keyboard-response,59,1052297,0.0-46.0-0.0-1.0-1.0,,,,,,,,,,,,,,,5f356cbffb4cea5170d04fd9,10:53:16,03/04/2024
,"<div style=""font-size: 10rem; color: #0000FF"">J</div>",,ospan,letter,J7Gl24mRlqVq5HdmZqXMslkWcXl1,html-keyboard-response,60,1054050,0.0-46.0-0.0-1.0-2.0,,,,,,,,,,,,,,,5f356cbffb4cea5170d04fd9,10:53:16,03/04/2024
6329.10000000149,"<div class = numbox><p style=""font-size: 2.4rem"">Please recall the letters you saw to the best of your ability. If you do not remember a particular letter, use the SKIP button.<br><b>(When you are ready to lock in your answer, press ENTER)</b></p><button id = button_1 class = ""square num-button"" onclick = ""recordClick(this)""><div class = content><div class = numbers>C</div></div></button><button id = button_2 class = ""square num-button"" onclick = ""recordClick(this)""><div class = content><div class = numbers>G</div></div></button><button id = button_3 class = ""square num-button"" onclick = ""recordClick(this)""><div class = content><div class = numbers>H</div></div></button><button id = button_4 class = ""square num-button"" onclick = ""recordClick(this)""><div class = content><div class = numbers>J</div></div></button><button id = button_5 class = ""square num-button"" onclick = ""recordClick(this)""><div class = content><div class = numbers>K</div></div></button><button id = button_6 class = ""square num-button"" onclick = ""recordClick(this)""><div class = content><div class = numbers>L</div></div></button><button id = button_7 class = ""square num-button"" onclick = ""recordClick(this)""><div class = content><div class = numbers>N</div></div></button><button id = button_8 class = ""square num-button"" onclick = ""recordClick(this)""><div class = content><div class = numbers>P</div></div></button><button id = button_9 class = ""square num-button"" onclick = ""recordClick(this)""><div class = content><div class = numbers>Q</div></div></button><button id = button_10 class = ""square num-button"" onclick = ""recordClick(this)""><div class = content><div class = numbers>R</div></div></button><button id = button_11 class = ""square num-button"" onclick = ""recordClick(this)""><div class = content><div class = numbers>S</div></div></button><button id = button_12 class = ""square num-button"" onclick = ""recordClick(this)""><div class = content><div class = numbers>Y</div></div></button><button class = clear_button id = ""ClearButton"" onclick = ""clearResponse()"">BACKSPACE</button><button class = blank_button id = ""BlankButton"" onclick = ""blankResponse()"">SKIP</button><p style=""font-size: 2.4rem""><u><b>Current Answer:</b></u></p><br><br><div id=echoed_txt style=""font-size: 5rem; color:blue;""><b></b></div></div>",enter,ospan,retrieval,J7Gl24mRlqVq5HdmZqXMslkWcXl1,html-keyboard-response,61,1061132,0.0-46.0-0.0-1.0-3.0,NA,NA,NA,2.0,"[""G"",""J""]","[""G"",""J""]",1.0,2.0,"['<font color=""green"">G</font>', '<font color=""green"">J</font>']",,,,,,5f356cbffb4cea5170d04fd9,10:53:16,03/04/2024
1113.2999999970198,"['<p style=""font-size:44px"">Letters:<br><br><br><font color=""green"">G</font> <font color=""green"">J</font></p><br><br>']",0,ospan,practice_feedback,J7Gl24mRlqVq5HdmZqXMslkWcXl1,html-button-response,62,1062748,0.0-46.0-0.0-1.0-4.0,,,,,,,,,,,,,,,5f356cbffb4cea5170d04fd9,10:53:16,03/04/2024
,"<p style=""font-size:75px;"">...</p>",,ospan,iti,J7Gl24mRlqVq5HdmZqXMslkWcXl1,html-keyboard-response,63,1063750,0.0-46.0-0.0-2.0-0.0,,,,,,,,,,,,,,,5f356cbffb4cea5170d04fd9,10:53:16,03/04/2024
,"<div style=""font-size: 10rem; color: #0000FF"">C</div>",,ospan,letter,J7Gl24mRlqVq5HdmZqXMslkWcXl1,html-keyboard-response,64,1064752,0.0-46.0-0.0-2.0-1.0,,,,,,,,,,,,,,,5f356cbffb4cea5170d04fd9,10:53:16,03/04/2024
,"<div style=""font-size: 10rem; color: #0000FF"">P</div>",,ospan,letter,J7Gl24mRlqVq5HdmZqXMslkWcXl1,html-keyboard-response,65,1066506,0.0-46.0-0.0-2.0-2.0,,,,,,,,,,,,,,,5f356cbffb4cea5170d04fd9,10:53:16,03/04/2024
,"<div style=""font-size: 10rem; color: #0000FF"">Q</div>",,ospan,letter,J7Gl24mRlqVq5HdmZqXMslkWcXl1,html-keyboard-response,66,1068259,0.0-46.0-0.0-2.0-3.0,,,,,,,,,,,,,,,5f356cbffb4cea5170d04fd9,10:53:16,03/04/2024
4534.20000000298,"<div class = numbox><p style=""font-size: 2.4rem"">Please recall the letters you saw to the best of your ability. If you do not remember a particular letter, use the SKIP button.<br><b>(When you are ready to lock in your answer, press ENTER)</b></p><button id = button_1 class = ""square num-button"" onclick = ""recordClick(this)""><div class = content><div class = numbers>C</div></div></button><button id = button_2 class = ""square num-button"" onclick = ""recordClick(this)""><div class = content><div class = numbers>G</div></div></button><button id = button_3 class = ""square num-button"" onclick = ""recordClick(this)""><div class = content><div class = numbers>H</div></div></button><button id = button_4 class = ""square num-button"" onclick = ""recordClick(this)""><div class = content><div class = numbers>J</div></div></button><button id = button_5 class = ""square num-button"" onclick = ""recordClick(this)""><div class = content><div class = numbers>K</div></div></button><button id = button_6 class = ""square num-button"" onclick = ""recordClick(this)""><div class = content><div class = numbers>L</div></div></button><button id = button_7 class = ""square num-button"" onclick = ""recordClick(this)""><div class = content><div class = numbers>N</div></div></button><button id = button_8 class = ""square num-button"" onclick = ""recordClick(this)""><div class = content><div class = numbers>P</div></div></button><button id = button_9 class = ""square num-button"" onclick = ""recordClick(this)""><div class = content><div class = numbers>Q</div></div></button><button id = button_10 class = ""square num-button"" onclick = ""recordClick(this)""><div class = content><div class = numbers>R</div></div></button><button id = button_11 class = ""square num-button"" onclick = ""recordClick(this)""><div class = content><div class = numbers>S</div></div></button><button id = button_12 class = ""square num-button"" onclick = ""recordClick(this)""><div class = content><div class = numbers>Y</div></div></button><button class = clear_button id = ""ClearButton"" onclick = ""clearResponse()"">BACKSPACE</button><button class = blank_button id = ""BlankButton"" onclick = ""blankResponse()"">SKIP</button><p style=""font-size: 2.4rem""><u><b>Current Answer:</b></u></p><br><br><div id=echoed_txt style=""font-size: 5rem; color:blue;""><b></b></div></div>",enter,ospan,retrieval,J7Gl24mRlqVq5HdmZqXMslkWcXl1,html-keyboard-response,67,1073547,0.0-46.0-0.0-2.0-4.0,NA,NA,NA,3.0,"[""C"",""P"",""Q""]","[""C"",""P"",""Q""]",1.0,3.0,"['<font color=""green"">C</font>', '<font color=""green"">P</font>', '<font color=""green"">Q</font>']",,,,,,5f356cbffb4cea5170d04fd9,10:53:16,03/04/2024
1202.6000000014901,"['<p style=""font-size:44px"">Letters:<br><br><br><font color=""green"">C</font> <font color=""green"">P</font> <font color=""green"">Q</font></p><br><br>']",0,ospan,practice_feedback,J7Gl24mRlqVq5HdmZqXMslkWcXl1,html-button-response,68,1075252,0.0-46.0-0.0-2.0-5.0,,,,,,,,,,,,,,,5f356cbffb4cea5170d04fd9,10:53:16,03/04/2024
15055.30000000447,"<div class = 'left_align' style='font-size: 3.25rem; line-height: 1.3;'>Now you will practice doing the <b>symmetry judgment part</b> of the experiment.<br><br>A black and white grid picture will appear on the screen and you have to judge if it is <br>symmetrical or asymetrical.<br><br>A picture is 'mirror' symmetrical if its left half is identical to the right half when flipped.<br>Here are examples of a symmetrical and an asymetrical picture:<br><br><center><img src='Stimuli/img/symm_instructions_extra.png' style='height:420px; width:900'></img></center><br>To judge symmetry, imagine you were to fold each picture down the middle, like a book –<br>would the left half match the right half when folded onto each other?<br><br></div><br>",0,ospan,instruct,J7Gl24mRlqVq5HdmZqXMslkWcXl1,html-button-response,69,1090308,0.0-46.0-1.0-0.0-0.0,,,,,,,,,,,,,,,5f356cbffb4cea5170d04fd9,10:53:16,03/04/2024
4527.70000000298,"<div class = 'left_align' style='font-size: 3.25rem; line-height: 1.3;'>When you have viewed the picture and determined whether it is symmetrical or not,<br>you can <b>click the Yes or No button</b> below to answer.<br><br>If you take longer than 15 seconds, it will continue automatically<br>and record the answer as an error.</div><br>",0,ospan,instruct,J7Gl24mRlqVq5HdmZqXMslkWcXl1,html-button-response,70,1095088,0.0-46.0-1.0-0.0-1.0,,,,,,,,,,,,,,,5f356cbffb4cea5170d04fd9,10:53:16,03/04/2024
4491.79999999702,"<div class = 'left_align' style='font-size: 3.25rem; line-height: 1.3;'>It is <b>very</b> important that you make the symmetry judgment correctly.<br><br>It is also important that you try and judge the picture as quickly as you can.<br><br>When you are ready, click on the button below to try some practice problems.</div><br><br><br><br>",0,ospan,instruct,J7Gl24mRlqVq5HdmZqXMslkWcXl1,html-button-response,71,1099833,0.0-46.0-1.0-0.0-2.0,,,,,,,,,,,,,,,5f356cbffb4cea5170d04fd9,10:53:16,03/04/2024
3661.0,,,ospan,symmetry,J7Gl24mRlqVq5HdmZqXMslkWcXl1,symmetry-judgement-task,72,1104299,0.0-46.0-1.0-1.0-0.0,,,,,,,,,,1.0,1.0,,,,5f356cbffb4cea5170d04fd9,10:53:16,03/04/2024
,"<p style=""color:green; font-size: 35px"">Correct</p>",,ospan,feedback,J7Gl24mRlqVq5HdmZqXMslkWcXl1,html-keyboard-response,73,1105052,0.0-46.0-1.0-1.0-1.0,,,,,,,,,,,,,,,5f356cbffb4cea5170d04fd9,10:53:16,03/04/2024
2179.0,,,ospan,symmetry,J7Gl24mRlqVq5HdmZqXMslkWcXl1,symmetry-judgement-task,74,1109999,0.0-46.0-1.0-1.0-2.0,,,,,,,,,,1.0,1.0,,,,5f356cbffb4cea5170d04fd9,10:53:16,03/04/2024
,"<p style=""color:green; font-size: 35px"">Correct</p>",,ospan,feedback,J7Gl24mRlqVq5HdmZqXMslkWcXl1,html-keyboard-response,75,1110751,0.0-46.0-1.0-1.0-3.0,,,,,,,,,,,,,,,5f356cbffb4cea5170d04fd9,10:53:16,03/04/2024
1521.0,,,ospan,symmetry,J7Gl24mRlqVq5HdmZqXMslkWcXl1,symmetry-judgement-task,76,1115061,0.0-46.0-1.0-1.0-4.0,,,,,,,,,,1.0,1.0,,,,5f356cbffb4cea5170d04fd9,10:53:16,03/04/2024
,"<p style=""color:green; font-size: 35px"">Correct</p>",,ospan,feedback,J7Gl24mRlqVq5HdmZqXMslkWcXl1,html-keyboard-response,77,1115814,0.0-46.0-1.0-1.0-5.0,,,,,,,,,,,,,,,5f356cbffb4cea5170d04fd9,10:53:16,03/04/2024
1677.1000000014901,"<p style=""font-size: 3rem;"">You responded correctly on 3 of 3 symmetry judgments. Good job!</p><br><br>",0,ospan,practice,J7Gl24mRlqVq5HdmZqXMslkWcXl1,html-button-response,78,1119494,0.0-46.0-1.0-2.0,,,,,,,,,,,,,,,5f356cbffb4cea5170d04fd9,10:53:16,03/04/2024
13458.0,"<div class = 'left_align' style='font-size: 3.25rem; line-height: 1.3;'>Now you will practice doing both parts of the experiment at the same time.<br><br>In the next practice set, you will be given one grid picture to judge.<br>Then letter will appear on the screen. Try to remember the letter.<br><br>It is <b>very important</b> to make the symmetry judgment as quickly and accurately as possible.<br><br>Just as before, once you have make the symmetry judgment, you can click Yes or No.<br><b>Note that you will no longer see Correct or Incorrect feedback.</div><br><br><br><br>",0,ospan,instruct,J7Gl24mRlqVq5HdmZqXMslkWcXl1,html-button-response,79,1133204,0.0-46.0-2.0-0.0-0.0,,,,,,,,,,,,,,,5f356cbffb4cea5170d04fd9,10:53:16,03/04/2024
9413.69999999553,"<div class = 'left_align' style='font-size: 3.25rem; line-height: 1.3;'>After the letter goes away, another grid picture will appear, and then<br>another letter.<br><br>At the end of each set of letters and grids, you will recall the letters to the best<br>of your ability. Remember, try your best to get the letters in the correct order.<br><br>It is important to <b>quickly</b> and <b>accurately</b> make the symmetry judgments.</div><br><br><br><br>",0,ospan,instruct,J7Gl24mRlqVq5HdmZqXMslkWcXl1,html-button-response,80,1142870,0.0-46.0-2.0-0.0-1.0,,,,,,,,,,,,,,,5f356cbffb4cea5170d04fd9,10:53:16,03/04/2024
14029.59999999404,"<div class = 'left_align' style='font-size: 3.25rem; line-height: 1.3;'>On the feedback screen, if you are not doing well at the symmetry judgments,<br>you will also see a warning in the middle. This indicates your percent <br>correct for the grid pictures for the entire experiment.<br><br>It is <b>very</b> important for you to keep accuracy at least at 85%: <u>We can only use<br>data where the participant was at least 85% accurate on the judgments.</u> Therefore,<br> please try your best to perform well on the symmetry judgments, <b>at the same time</b><br>doing your best to recall as many letters as possible.<br><br>Click the button to try some practice problems.</div><br><br><br><br>",0,ospan,instruct,J7Gl24mRlqVq5HdmZqXMslkWcXl1,html-button-response,81,1157153,0.0-46.0-2.0-0.0-2.0,,,,,,,,,,,,,,,5f356cbffb4cea5170d04fd9,10:53:16,03/04/2024
,"<p style=""font-size:75px;"">...</p>",,ospan,iti,J7Gl24mRlqVq5HdmZqXMslkWcXl1,html-keyboard-response,82,1158406,0.0-46.0-2.0-1.0-0.0,,,,,,,,,,,,,,,5f356cbffb4cea5170d04fd9,10:53:16,03/04/2024
2120.0,,,ospan,symmetry,J7Gl24mRlqVq5HdmZqXMslkWcXl1,symmetry-judgement-task,83,1161832,0.0-46.0-2.0-1.0-1.0-0.0,,,,,,,,,,1.0,1.0,,,,5f356cbffb4cea5170d04fd9,10:53:16,03/04/2024
,"<div style=""font-size: 10rem; color: #0000FF"">C</div>",,ospan,letter,J7Gl24mRlqVq5HdmZqXMslkWcXl1,html-keyboard-response,84,1162835,0.0-46.0-2.0-1.0-1.0-1.0,,,,,,,,,,,,,,,5f356cbffb4cea5170d04fd9,10:53:16,03/04/2024
2305.0,,,ospan,symmetry,J7Gl24mRlqVq5HdmZqXMslkWcXl1,symmetry-judgement-task,85,1167158,0.0-46.0-2.0-1.0-1.0-2.0,,,,,,,,,,1.0,1.0,,,,5f356cbffb4cea5170d04fd9,10:53:16,03/04/2024
,"<div style=""font-size: 10rem; color: #0000FF"">K</div>",,ospan,letter,J7Gl24mRlqVq5HdmZqXMslkWcXl1,html-keyboard-response,86,1168160,0.0-46.0-2.0-1.0-1.0-3.0,,,,,,,,,,,,,,,5f356cbffb4cea5170d04fd9,10:53:16,03/04/2024
2653.0,,,ospan,symmetry,J7Gl24mRlqVq5HdmZqXMslkWcXl1,symmetry-judgement-task,87,1172845,0.0-46.0-2.0-1.0-1.0-4.0,,,,,,,,,,1.0,1.0,,,,5f356cbffb4cea5170d04fd9,10:53:16,03/04/2024
,"<div style=""font-size: 10rem; color: #0000FF"">Q</div>",,ospan,letter,J7Gl24mRlqVq5HdmZqXMslkWcXl1,html-keyboard-response,88,1173848,0.0-46.0-2.0-1.0-1.0-5.0,,,,,,,,,,,,,,,5f356cbffb4cea5170d04fd9,10:53:16,03/04/2024
4795.10000000149,"<div class = numbox><p style=""font-size: 2.4rem"">Please recall the letters you saw to the best of your ability. If you do not remember a particular letter, use the SKIP button.<br><b>(When you are ready to lock in your answer, press ENTER)</b></p><button id = button_1 class = ""square num-button"" onclick = ""recordClick(this)""><div class = content><div class = numbers>C</div></div></button><button id = button_2 class = ""square num-button"" onclick = ""recordClick(this)""><div class = content><div class = numbers>G</div></div></button><button id = button_3 class = ""square num-button"" onclick = ""recordClick(this)""><div class = content><div class = numbers>H</div></div></button><button id = button_4 class = ""square num-button"" onclick = ""recordClick(this)""><div class = content><div class = numbers>J</div></div></button><button id = button_5 class = ""square num-button"" onclick = ""recordClick(this)""><div class = content><div class = numbers>K</div></div></button><button id = button_6 class = ""square num-button"" onclick = ""recordClick(this)""><div class = content><div class = numbers>L</div></div></button><button id = button_7 class = ""square num-button"" onclick = ""recordClick(this)""><div class = content><div class = numbers>N</div></div></button><button id = button_8 class = ""square num-button"" onclick = ""recordClick(this)""><div class = content><div class = numbers>P</div></div></button><button id = button_9 class = ""square num-button"" onclick = ""recordClick(this)""><div class = content><div class = numbers>Q</div></div></button><button id = button_10 class = ""square num-button"" onclick = ""recordClick(this)""><div class = content><div class = numbers>R</div></div></button><button id = button_11 class = ""square num-button"" onclick = ""recordClick(this)""><div class = content><div class = numbers>S</div></div></button><button id = button_12 class = ""square num-button"" onclick = ""recordClick(this)""><div class = content><div class = numbers>Y</div></div></button><button class = clear_button id = ""ClearButton"" onclick = ""clearResponse()"">BACKSPACE</button><button class = blank_button id = ""BlankButton"" onclick = ""blankResponse()"">SKIP</button><p style=""font-size: 2.4rem""><u><b>Current Answer:</b></u></p><br><br><div id=echoed_txt style=""font-size: 5rem; color:blue;""><b></b></div></div>",enter,ospan,retrieval,J7Gl24mRlqVq5HdmZqXMslkWcXl1,html-keyboard-response,89,1179396,0.0-46.0-2.0-1.0-2.0-0.0,NA,NA,NA,3.0,"[""C"",""K"",""Q""]","[""C"",""K"",""Q""]",1.0,3.0,"['<font color=""green"">C</font>', '<font color=""green"">K</font>', '<font color=""green"">Q</font>']",,,,,,5f356cbffb4cea5170d04fd9,10:53:16,03/04/2024
1362.3999999985099,"['<p style=""font-size:44px"">Letters:<br><br><br><font color=""green"">C</font> <font color=""green"">K</font> <font color=""green"">Q</font></p><br><br><p style=""font-size:30px"">Symmetry:<br><br><font color=""green"">100%</font></p><br><br>']",0,ospan,practice_feedback,J7Gl24mRlqVq5HdmZqXMslkWcXl1,html-button-response,90,1181261,0.0-46.0-2.0-1.0-2.0-1.0,,,,,,,,,,,,,,,5f356cbffb4cea5170d04fd9,10:53:16,03/04/2024
,"<p style=""font-size:75px;"">...</p>",,ospan,iti,J7Gl24mRlqVq5HdmZqXMslkWcXl1,html-keyboard-response,91,1182265,0.0-46.0-2.0-2.0-0.0,,,,,,,,,,,,,,,5f356cbffb4cea5170d04fd9,10:53:16,03/04/2024
1663.0,,,ospan,symmetry,J7Gl24mRlqVq5HdmZqXMslkWcXl1,symmetry-judgement-task,92,1185191,0.0-46.0-2.0-2.0-1.0-0.0,,,,,,,,,,1.0,1.0,,,,5f356cbffb4cea5170d04fd9,10:53:16,03/04/2024
,"<div style=""font-size: 10rem; color: #0000FF"">K</div>",,ospan,letter,J7Gl24mRlqVq5HdmZqXMslkWcXl1,html-keyboard-response,93,1186194,0.0-46.0-2.0-2.0-1.0-1.0,,,,,,,,,,,,,,,5f356cbffb4cea5170d04fd9,10:53:16,03/04/2024
3097.0,,,ospan,symmetry,J7Gl24mRlqVq5HdmZqXMslkWcXl1,symmetry-judgement-task,94,1191307,0.0-46.0-2.0-2.0-1.0-2.0,,,,,,,,,,1.0,1.0,,,,5f356cbffb4cea5170d04fd9,10:53:16,03/04/2024
,"<div style=""font-size: 10rem; color: #0000FF"">S</div>",,ospan,letter,J7Gl24mRlqVq5HdmZqXMslkWcXl1,html-keyboard-response,95,1192310,0.0-46.0-2.0-2.0-1.0-3.0,,,,,,,,,,,,,,,5f356cbffb4cea5170d04fd9,10:53:16,03/04/2024
2540.0,,,ospan,symmetry,J7Gl24mRlqVq5HdmZqXMslkWcXl1,symmetry-judgement-task,96,1196860,0.0-46.0-2.0-2.0-1.0-4.0,,,,,,,,,,1.0,1.0,,,,5f356cbffb4cea5170d04fd9,10:53:16,03/04/2024
,"<div style=""font-size: 10rem; color: #0000FF"">N</div>",,ospan,letter,J7Gl24mRlqVq5HdmZqXMslkWcXl1,html-keyboard-response,97,1197863,0.0-46.0-2.0-2.0-1.0-5.0,,,,,,,,,,,,,,,5f356cbffb4cea5170d04fd9,10:53:16,03/04/2024
4209.9000000059605,"<div class = numbox><p style=""font-size: 2.4rem"">Please recall the letters you saw to the best of your ability. If you do not remember a particular letter, use the SKIP button.<br><b>(When you are ready to lock in your answer, press ENTER)</b></p><button id = button_1 class = ""square num-button"" onclick = ""recordClick(this)""><div class = content><div class = numbers>C</div></div></button><button id = button_2 class = ""square num-button"" onclick = ""recordClick(this)""><div class = content><div class = numbers>G</div></div></button><button id = button_3 class = ""square num-button"" onclick = ""recordClick(this)""><div class = content><div class = numbers>H</div></div></button><button id = button_4 class = ""square num-button"" onclick = ""recordClick(this)""><div class = content><div class = numbers>J</div></div></button><button id = button_5 class = ""square num-button"" onclick = ""recordClick(this)""><div class = content><div class = numbers>K</div></div></button><button id = button_6 class = ""square num-button"" onclick = ""recordClick(this)""><div class = content><div class = numbers>L</div></div></button><button id = button_7 class = ""square num-button"" onclick = ""recordClick(this)""><div class = content><div class = numbers>N</div></div></button><button id = button_8 class = ""square num-button"" onclick = ""recordClick(this)""><div class = content><div class = numbers>P</div></div></button><button id = button_9 class = ""square num-button"" onclick = ""recordClick(this)""><div class = content><div class = numbers>Q</div></div></button><button id = button_10 class = ""square num-button"" onclick = ""recordClick(this)""><div class = content><div class = numbers>R</div></div></button><button id = button_11 class = ""square num-button"" onclick = ""recordClick(this)""><div class = content><div class = numbers>S</div></div></button><button id = button_12 class = ""square num-button"" onclick = ""recordClick(this)""><div class = content><div class = numbers>Y</div></div></button><button class = clear_button id = ""ClearButton"" onclick = ""clearResponse()"">BACKSPACE</button><button class = blank_button id = ""BlankButton"" onclick = ""blankResponse()"">SKIP</button><p style=""font-size: 2.4rem""><u><b>Current Answer:</b></u></p><br><br><div id=echoed_txt style=""font-size: 5rem; color:blue;""><b></b></div></div>",enter,ospan,retrieval,J7Gl24mRlqVq5HdmZqXMslkWcXl1,html-keyboard-response,98,1202826,0.0-46.0-2.0-2.0-2.0-0.0,NA,NA,NA,3.0,"[""K"",""S"",""N""]","[""K"",""S"",""N""]",1.0,3.0,"['<font color=""green"">K</font>', '<font color=""green"">S</font>', '<font color=""green"">N</font>']",,,,,,5f356cbffb4cea5170d04fd9,10:53:16,03/04/2024
1557.7999999970198,"['<p style=""font-size:44px"">Letters:<br><br><br><font color=""green"">K</font> <font color=""green"">S</font> <font color=""green"">N</font></p><br><br><p style=""font-size:30px"">Symmetry:<br><br><font color=""green"">100%</font></p><br><br>']",0,ospan,practice_feedback,J7Gl24mRlqVq5HdmZqXMslkWcXl1,html-button-response,99,1204887,0.0-46.0-2.0-2.0-2.0-1.0,,,,,,,,,,,,,,,5f356cbffb4cea5170d04fd9,10:53:16,03/04/2024
10916.90000000596,"<div class = 'left_align' style='font-size: 3rem; line-height: 1.3;'><b>Great work! That is the end of practice.</b><br><br>The real trials will look just like the practice trials you just completed.<br><br><u>Here, you will not see feedback</u>. First, you will see an grid picture to judge,<br>then a letter to remember. When the recall screen appears, report the letters in the<br>order presented. If you forget a letter, remember to use the <b>blank</b> button to move to the<br>next letter. Some of the sets will have more symmetry grids and letters than others.<br><br>It is important that you do your best on both the symmetry judgments and the letter recall<br>parts of the experiment. For for the symmetry judgments, try to work as <b>quickly</b> and <br>as <b>accurately</b> as possible. Remember to keep your symmetry accuracy at 85% or above.<br><br><b>For the letters, do NOT use any external aid (e.g., writing on paper, electronic device).</b><br><br>It is <u>very important</u> to our experiment to have a <b>true</b> view of your real performance.<br><br>Do not worry if you miss some when it gets hard! This task is meant to be very challenging!<br><br>Click the button to begin.</div><br><br><br><br>",0,ospan,starting_real_here,J7Gl24mRlqVq5HdmZqXMslkWcXl1,html-button-response,100,1215805,0.0-46.0-2.0-3.0,,,,,,,,,,,,,,,5f356cbffb4cea5170d04fd9,10:53:16,03/04/2024
,"<p style=""font-size:75px;"">...</p>",,ospan,iti,J7Gl24mRlqVq5HdmZqXMslkWcXl1,html-keyboard-response,101,1217059,0.0-46.0-3.0-0.0-0.0,,,,,,,,,,,,,,,5f356cbffb4cea5170d04fd9,10:53:16,03/04/2024
2023.0,,,ospan,symmetry,J7Gl24mRlqVq5HdmZqXMslkWcXl1,symmetry-judgement-task,102,1220347,0.0-46.0-3.0-0.0-1.0-0.0,,,,,,,,,,1.0,1.0,,,,5f356cbffb4cea5170d04fd9,10:53:16,03/04/2024
,"<div style=""font-size: 10rem; color: #0000FF"">K</div>",,ospan,letter,J7Gl24mRlqVq5HdmZqXMslkWcXl1,html-keyboard-response,103,1221350,0.0-46.0-3.0-0.0-1.0-1.0,,,,,,,,,,,,,,,5f356cbffb4cea5170d04fd9,10:53:16,03/04/2024
2547.0,,,ospan,symmetry,J7Gl24mRlqVq5HdmZqXMslkWcXl1,symmetry-judgement-task,104,1225902,0.0-46.0-3.0-0.0-1.0-2.0,,,,,,,,,,1.0,1.0,,,,5f356cbffb4cea5170d04fd9,10:53:16,03/04/2024
,"<div style=""font-size: 10rem; color: #0000FF"">N</div>",,ospan,letter,J7Gl24mRlqVq5HdmZqXMslkWcXl1,html-keyboard-response,105,1226904,0.0-46.0-3.0-0.0-1.0-3.0,,,,,,,,,,,,,,,5f356cbffb4cea5170d04fd9,10:53:16,03/04/2024
1681.0,,,ospan,symmetry,J7Gl24mRlqVq5HdmZqXMslkWcXl1,symmetry-judgement-task,106,1230616,0.0-46.0-3.0-0.0-1.0-4.0,,,,,,,,,,1.0,1.0,,,,5f356cbffb4cea5170d04fd9,10:53:16,03/04/2024
,"<div style=""font-size: 10rem; color: #0000FF"">P</div>",,ospan,letter,J7Gl24mRlqVq5HdmZqXMslkWcXl1,html-keyboard-response,107,1231618,0.0-46.0-3.0-0.0-1.0-5.0,,,,,,,,,,,,,,,5f356cbffb4cea5170d04fd9,10:53:16,03/04/2024
4266.60000000149,"<div class = numbox><p style=""font-size: 2.4rem"">Please recall the letters you saw to the best of your ability. If you do not remember a particular letter, use the SKIP button.<br><b>(When you are ready to lock in your answer, press ENTER)</b></p><button id = button_1 class = ""square num-button"" onclick = ""recordClick(this)""><div class = content><div class = numbers>C</div></div></button><button id = button_2 class = ""square num-button"" onclick = ""recordClick(this)""><div class = content><div class = numbers>G</div></div></button><button id = button_3 class = ""square num-button"" onclick = ""recordClick(this)""><div class = content><div class = numbers>H</div></div></button><button id = button_4 class = ""square num-button"" onclick = ""recordClick(this)""><div class = content><div class = numbers>J</div></div></button><button id = button_5 class = ""square num-button"" onclick = ""recordClick(this)""><div class = content><div class = numbers>K</div></div></button><button id = button_6 class = ""square num-button"" onclick = ""recordClick(this)""><div class = content><div class = numbers>L</div></div></button><button id = button_7 class = ""square num-button"" onclick = ""recordClick(this)""><div class = content><div class = numbers>N</div></div></button><button id = button_8 class = ""square num-button"" onclick = ""recordClick(this)""><div class = content><div class = numbers>P</div></div></button><button id = button_9 class = ""square num-button"" onclick = ""recordClick(this)""><div class = content><div class = numbers>Q</div></div></button><button id = button_10 class = ""square num-button"" onclick = ""recordClick(this)""><div class = content><div class = numbers>R</div></div></button><button id = button_11 class = ""square num-button"" onclick = ""recordClick(this)""><div class = content><div class = numbers>S</div></div></button><button id = button_12 class = ""square num-button"" onclick = ""recordClick(this)""><div class = content><div class = numbers>Y</div></div></button><button class = clear_button id = ""ClearButton"" onclick = ""clearResponse()"">BACKSPACE</button><button class = blank_button id = ""BlankButton"" onclick = ""blankResponse()"">SKIP</button><p style=""font-size: 2.4rem""><u><b>Current Answer:</b></u></p><br><br><div id=echoed_txt style=""font-size: 5rem; color:blue;""><b></b></div></div>",enter,ospan,retrieval,J7Gl24mRlqVq5HdmZqXMslkWcXl1,html-keyboard-response,108,1236638,0.0-46.0-3.0-0.0-2.0,3,3,3,3.0,"[""K"",""N"",""P""]","[""K"",""N"",""P""]",1.0,3.0,,,,,,,5f356cbffb4cea5170d04fd9,10:53:16,03/04/2024
1359.3999999985099,[''],0,ospan,feedback,J7Gl24mRlqVq5HdmZqXMslkWcXl1,html-button-response,109,1238499,0.0-46.0-3.0-0.0-3.0,,,,,,,,,,,,100.0,0.0,,5f356cbffb4cea5170d04fd9,10:53:16,03/04/2024
,"<p style=""font-size:75px;"">...</p>",,ospan,iti,J7Gl24mRlqVq5HdmZqXMslkWcXl1,html-keyboard-response,110,1239502,0.0-46.0-4.0-0.0-0.0,,,,,,,,,,,,,,,5f356cbffb4cea5170d04fd9,10:53:16,03/04/2024
2212.0,,,ospan,symmetry,J7Gl24mRlqVq5HdmZqXMslkWcXl1,symmetry-judgement-task,111,1242979,0.0-46.0-4.0-0.0-1.0-0.0,,,,,,,,,,1.0,1.0,,,,5f356cbffb4cea5170d04fd9,10:53:16,03/04/2024
,"<div style=""font-size: 10rem; color: #0000FF"">K</div>",,ospan,letter,J7Gl24mRlqVq5HdmZqXMslkWcXl1,html-keyboard-response,112,1243981,0.0-46.0-4.0-0.0-1.0-1.0,,,,,,,,,,,,,,,5f356cbffb4cea5170d04fd9,10:53:16,03/04/2024
3346.0,,,ospan,symmetry,J7Gl24mRlqVq5HdmZqXMslkWcXl1,symmetry-judgement-task,113,1249344,0.0-46.0-4.0-0.0-1.0-2.0,,,,,,,,,,1.0,1.0,,,,5f356cbffb4cea5170d04fd9,10:53:16,03/04/2024
,"<div style=""font-size: 10rem; color: #0000FF"">G</div>",,ospan,letter,J7Gl24mRlqVq5HdmZqXMslkWcXl1,html-keyboard-response,114,1250346,0.0-46.0-4.0-0.0-1.0-3.0,,,,,,,,,,,,,,,5f356cbffb4cea5170d04fd9,10:53:16,03/04/2024
2491.0,,,ospan,symmetry,J7Gl24mRlqVq5HdmZqXMslkWcXl1,symmetry-judgement-task,115,1254857,0.0-46.0-4.0-0.0-1.0-4.0,,,,,,,,,,1.0,1.0,,,,5f356cbffb4cea5170d04fd9,10:53:16,03/04/2024
,"<div style=""font-size: 10rem; color: #0000FF"">Q</div>",,ospan,letter,J7Gl24mRlqVq5HdmZqXMslkWcXl1,html-keyboard-response,116,1255859,0.0-46.0-4.0-0.0-1.0-5.0,,,,,,,,,,,,,,,5f356cbffb4cea5170d04fd9,10:53:16,03/04/2024
1841.0,,,ospan,symmetry,J7Gl24mRlqVq5HdmZqXMslkWcXl1,symmetry-judgement-task,117,1259704,0.0-46.0-4.0-0.0-1.0-6.0,,,,,,,,,,1.0,1.0,,,,5f356cbffb4cea5170d04fd9,10:53:16,03/04/2024
,"<div style=""font-size: 10rem; color: #0000FF"">S</div>",,ospan,letter,J7Gl24mRlqVq5HdmZqXMslkWcXl1,html-keyboard-response,118,1260707,0.0-46.0-4.0-0.0-1.0-7.0,,,,,,,,,,,,,,,5f356cbffb4cea5170d04fd9,10:53:16,03/04/2024
5143.0,"<div class = numbox><p style=""font-size: 2.4rem"">Please recall the letters you saw to the best of your ability. If you do not remember a particular letter, use the SKIP button.<br><b>(When you are ready to lock in your answer, press ENTER)</b></p><button id = button_1 class = ""square num-button"" onclick = ""recordClick(this)""><div class = content><div class = numbers>C</div></div></button><button id = button_2 class = ""square num-button"" onclick = ""recordClick(this)""><div class = content><div class = numbers>G</div></div></button><button id = button_3 class = ""square num-button"" onclick = ""recordClick(this)""><div class = content><div class = numbers>H</div></div></button><button id = button_4 class = ""square num-button"" onclick = ""recordClick(this)""><div class = content><div class = numbers>J</div></div></button><button id = button_5 class = ""square num-button"" onclick = ""recordClick(this)""><div class = content><div class = numbers>K</div></div></button><button id = button_6 class = ""square num-button"" onclick = ""recordClick(this)""><div class = content><div class = numbers>L</div></div></button><button id = button_7 class = ""square num-button"" onclick = ""recordClick(this)""><div class = content><div class = numbers>N</div></div></button><button id = button_8 class = ""square num-button"" onclick = ""recordClick(this)""><div class = content><div class = numbers>P</div></div></button><button id = button_9 class = ""square num-button"" onclick = ""recordClick(this)""><div class = content><div class = numbers>Q</div></div></button><button id = button_10 class = ""square num-button"" onclick = ""recordClick(this)""><div class = content><div class = numbers>R</div></div></button><button id = button_11 class = ""square num-button"" onclick = ""recordClick(this)""><div class = content><div class = numbers>S</div></div></button><button id = button_12 class = ""square num-button"" onclick = ""recordClick(this)""><div class = content><div class = numbers>Y</div></div></button><button class = clear_button id = ""ClearButton"" onclick = ""clearResponse()"">BACKSPACE</button><button class = blank_button id = ""BlankButton"" onclick = ""blankResponse()"">SKIP</button><p style=""font-size: 2.4rem""><u><b>Current Answer:</b></u></p><br><br><div id=echoed_txt style=""font-size: 5rem; color:blue;""><b></b></div></div>",enter,ospan,retrieval,J7Gl24mRlqVq5HdmZqXMslkWcXl1,html-keyboard-response,119,1266604,0.0-46.0-4.0-0.0-2.0,7,7,7,4.0,"[""K"",""G"",""Q"",""S""]","[""K"",""G"",""Q"",""S""]",1.0,4.0,,,,,,,5f356cbffb4cea5170d04fd9,10:53:16,03/04/2024
1273.5999999940395,[''],0,ospan,feedback,J7Gl24mRlqVq5HdmZqXMslkWcXl1,html-button-response,120,1268380,0.0-46.0-4.0-0.0-3.0,,,,,,,,,,,,100.0,0.0,,5f356cbffb4cea5170d04fd9,10:53:16,03/04/2024
,"<p style=""font-size:75px;"">...</p>",,ospan,iti,J7Gl24mRlqVq5HdmZqXMslkWcXl1,html-keyboard-response,121,1269384,0.0-46.0-4.0-1.0-0.0,,,,,,,,,,,,,,,5f356cbffb4cea5170d04fd9,10:53:16,03/04/2024
2345.0,,,ospan,symmetry,J7Gl24mRlqVq5HdmZqXMslkWcXl1,symmetry-judgement-task,122,1272782,0.0-46.0-4.0-1.0-1.0-0.0,,,,,,,,,,1.0,1.0,,,,5f356cbffb4cea5170d04fd9,10:53:16,03/04/2024
,"<div style=""font-size: 10rem; color: #0000FF"">Y</div>",,ospan,letter,J7Gl24mRlqVq5HdmZqXMslkWcXl1,html-keyboard-response,123,1273785,0.0-46.0-4.0-1.0-1.0-1.0,,,,,,,,,,,,,,,5f356cbffb4cea5170d04fd9,10:53:16,03/04/2024
1619.0,,,ospan,symmetry,J7Gl24mRlqVq5HdmZqXMslkWcXl1,symmetry-judgement-task,124,1277442,0.0-46.0-4.0-1.0-1.0-2.0,,,,,,,,,,1.0,1.0,,,,5f356cbffb4cea5170d04fd9,10:53:16,03/04/2024
,"<div style=""font-size: 10rem; color: #0000FF"">L</div>",,ospan,letter,J7Gl24mRlqVq5HdmZqXMslkWcXl1,html-keyboard-response,125,1278445,0.0-46.0-4.0-1.0-1.0-3.0,,,,,,,,,,,,,,,5f356cbffb4cea5170d04fd9,10:53:16,03/04/2024
3017.0,,,ospan,symmetry,J7Gl24mRlqVq5HdmZqXMslkWcXl1,symmetry-judgement-task,126,1283486,0.0-46.0-4.0-1.0-1.0-4.0,,,,,,,,,,1.0,1.0,,,,5f356cbffb4cea5170d04fd9,10:53:16,03/04/2024
,"<div style=""font-size: 10rem; color: #0000FF"">P</div>",,ospan,letter,J7Gl24mRlqVq5HdmZqXMslkWcXl1,html-keyboard-response,127,1284489,0.0-46.0-4.0-1.0-1.0-5.0,,,,,,,,,,,,,,,5f356cbffb4cea5170d04fd9,10:53:16,03/04/2024
1822.0,,,ospan,symmetry,J7Gl24mRlqVq5HdmZqXMslkWcXl1,symmetry-judgement-task,128,1288332,0.0-46.0-4.0-1.0-1.0-6.0,,,,,,,,,,1.0,1.0,,,,5f356cbffb4cea5170d04fd9,10:53:16,03/04/2024
,"<div style=""font-size: 10rem; color: #0000FF"">J</div>",,ospan,letter,J7Gl24mRlqVq5HdmZqXMslkWcXl1,html-keyboard-response,129,1289336,0.0-46.0-4.0-1.0-1.0-7.0,,,,,,,,,,,,,,,5f356cbffb4cea5170d04fd9,10:53:16,03/04/2024
2056.0,,,ospan,symmetry,J7Gl24mRlqVq5HdmZqXMslkWcXl1,symmetry-judgement-task,130,1293405,0.0-46.0-4.0-1.0-1.0-8.0,,,,,,,,,,1.0,1.0,,,,5f356cbffb4cea5170d04fd9,10:53:16,03/04/2024
,"<div style=""font-size: 10rem; color: #0000FF"">G</div>",,ospan,letter,J7Gl24mRlqVq5HdmZqXMslkWcXl1,html-keyboard-response,131,1294406,0.0-46.0-4.0-1.0-1.0-9.0,,,,,,,,,,,,,,,5f356cbffb4cea5170d04fd9,10:53:16,03/04/2024
6758.10000000149,"<div class = numbox><p style=""font-size: 2.4rem"">Please recall the letters you saw to the best of your ability. If you do not remember a particular letter, use the SKIP button.<br><b>(When you are ready to lock in your answer, press ENTER)</b></p><button id = button_1 class = ""square num-button"" onclick = ""recordClick(this)""><div class = content><div class = numbers>C</div></div></button><button id = button_2 class = ""square num-button"" onclick = ""recordClick(this)""><div class = content><div class = numbers>G</div></div></button><button id = button_3 class = ""square num-button"" onclick = ""recordClick(this)""><div class = content><div class = numbers>H</div></div></button><button id = button_4 class = ""square num-button"" onclick = ""recordClick(this)""><div class = content><div class = numbers>J</div></div></button><button id = button_5 class = ""square num-button"" onclick = ""recordClick(this)""><div class = content><div class = numbers>K</div></div></button><button id = button_6 class = ""square num-button"" onclick = ""recordClick(this)""><div class = content><div class = numbers>L</div></div></button><button id = button_7 class = ""square num-button"" onclick = ""recordClick(this)""><div class = content><div class = numbers>N</div></div></button><button id = button_8 class = ""square num-button"" onclick = ""recordClick(this)""><div class = content><div class = numbers>P</div></div></button><button id = button_9 class = ""square num-button"" onclick = ""recordClick(this)""><div class = content><div class = numbers>Q</div></div></button><button id = button_10 class = ""square num-button"" onclick = ""recordClick(this)""><div class = content><div class = numbers>R</div></div></button><button id = button_11 class = ""square num-button"" onclick = ""recordClick(this)""><div class = content><div class = numbers>S</div></div></button><button id = button_12 class = ""square num-button"" onclick = ""recordClick(this)""><div class = content><div class = numbers>Y</div></div></button><button class = clear_button id = ""ClearButton"" onclick = ""clearResponse()"">BACKSPACE</button><button class = blank_button id = ""BlankButton"" onclick = ""blankResponse()"">SKIP</button><p style=""font-size: 2.4rem""><u><b>Current Answer:</b></u></p><br><br><div id=echoed_txt style=""font-size: 5rem; color:blue;""><b></b></div></div>",enter,ospan,retrieval,J7Gl24mRlqVq5HdmZqXMslkWcXl1,html-keyboard-response,132,1301917,0.0-46.0-4.0-1.0-2.0,12,12,12,5.0,"[""Y"",""L"",""P"",""J"",""G""]","[""Y"",""L"",""P"",""J"",""G""]",1.0,5.0,,,,,,,5f356cbffb4cea5170d04fd9,10:53:16,03/04/2024
918.3000000044703,[''],0,ospan,feedback,J7Gl24mRlqVq5HdmZqXMslkWcXl1,html-button-response,133,1303337,0.0-46.0-4.0-1.0-3.0,,,,,,,,,,,,100.0,0.0,,5f356cbffb4cea5170d04fd9,10:53:16,03/04/2024
,"<p style=""font-size:75px;"">...</p>",,ospan,iti,J7Gl24mRlqVq5HdmZqXMslkWcXl1,html-keyboard-response,134,1304340,0.0-46.0-4.0-2.0-0.0,,,,,,,,,,,,,,,5f356cbffb4cea5170d04fd9,10:53:16,03/04/2024
1568.0,,,ospan,symmetry,J7Gl24mRlqVq5HdmZqXMslkWcXl1,symmetry-judgement-task,135,1306959,0.0-46.0-4.0-2.0-1.0-0.0,,,,,,,,,,1.0,1.0,,,,5f356cbffb4cea5170d04fd9,10:53:16,03/04/2024
,"<div style=""font-size: 10rem; color: #0000FF"">J</div>",,ospan,letter,J7Gl24mRlqVq5HdmZqXMslkWcXl1,html-keyboard-response,136,1307961,0.0-46.0-4.0-2.0-1.0-1.0,,,,,,,,,,,,,,,5f356cbffb4cea5170d04fd9,10:53:16,03/04/2024
1722.0,,,ospan,symmetry,J7Gl24mRlqVq5HdmZqXMslkWcXl1,symmetry-judgement-task,137,1311692,0.0-46.0-4.0-2.0-1.0-2.0,,,,,,,,,,1.0,1.0,,,,5f356cbffb4cea5170d04fd9,10:53:16,03/04/2024
,"<div style=""font-size: 10rem; color: #0000FF"">Y</div>",,ospan,letter,J7Gl24mRlqVq5HdmZqXMslkWcXl1,html-keyboard-response,138,1312695,0.0-46.0-4.0-2.0-1.0-3.0,,,,,,,,,,,,,,,5f356cbffb4cea5170d04fd9,10:53:16,03/04/2024
1527.0,,,ospan,symmetry,J7Gl24mRlqVq5HdmZqXMslkWcXl1,symmetry-judgement-task,139,1316248,0.0-46.0-4.0-2.0-1.0-4.0,,,,,,,,,,1.0,1.0,,,,5f356cbffb4cea5170d04fd9,10:53:16,03/04/2024
,"<div style=""font-size: 10rem; color: #0000FF"">N</div>",,ospan,letter,J7Gl24mRlqVq5HdmZqXMslkWcXl1,html-keyboard-response,140,1317251,0.0-46.0-4.0-2.0-1.0-5.0,,,,,,,,,,,,,,,5f356cbffb4cea5170d04fd9,10:53:16,03/04/2024
4440.0,"<div class = numbox><p style=""font-size: 2.4rem"">Please recall the letters you saw to the best of your ability. If you do not remember a particular letter, use the SKIP button.<br><b>(When you are ready to lock in your answer, press ENTER)</b></p><button id = button_1 class = ""square num-button"" onclick = ""recordClick(this)""><div class = content><div class = numbers>C</div></div></button><button id = button_2 class = ""square num-button"" onclick = ""recordClick(this)""><div class = content><div class = numbers>G</div></div></button><button id = button_3 class = ""square num-button"" onclick = ""recordClick(this)""><div class = content><div class = numbers>H</div></div></button><button id = button_4 class = ""square num-button"" onclick = ""recordClick(this)""><div class = content><div class = numbers>J</div></div></button><button id = button_5 class = ""square num-button"" onclick = ""recordClick(this)""><div class = content><div class = numbers>K</div></div></button><button id = button_6 class = ""square num-button"" onclick = ""recordClick(this)""><div class = content><div class = numbers>L</div></div></button><button id = button_7 class = ""square num-button"" onclick = ""recordClick(this)""><div class = content><div class = numbers>N</div></div></button><button id = button_8 class = ""square num-button"" onclick = ""recordClick(this)""><div class = content><div class = numbers>P</div></div></button><button id = button_9 class = ""square num-button"" onclick = ""recordClick(this)""><div class = content><div class = numbers>Q</div></div></button><button id = button_10 class = ""square num-button"" onclick = ""recordClick(this)""><div class = content><div class = numbers>R</div></div></button><button id = button_11 class = ""square num-button"" onclick = ""recordClick(this)""><div class = content><div class = numbers>S</div></div></button><button id = button_12 class = ""square num-button"" onclick = ""recordClick(this)""><div class = content><div class = numbers>Y</div></div></button><button class = clear_button id = ""ClearButton"" onclick = ""clearResponse()"">BACKSPACE</button><button class = blank_button id = ""BlankButton"" onclick = ""blankResponse()"">SKIP</button><p style=""font-size: 2.4rem""><u><b>Current Answer:</b></u></p><br><br><div id=echoed_txt style=""font-size: 5rem; color:blue;""><b></b></div></div>",enter,ospan,retrieval,J7Gl24mRlqVq5HdmZqXMslkWcXl1,html-keyboard-response,141,1322443,0.0-46.0-4.0-2.0-2.0,15,15,15,3.0,"[""J"",""Y"",""N""]","[""J"",""Y"",""N""]",1.0,3.0,,,,,,,5f356cbffb4cea5170d04fd9,10:53:16,03/04/2024
1017.1000000014901,[''],0,ospan,feedback,J7Gl24mRlqVq5HdmZqXMslkWcXl1,html-button-response,142,1323962,0.0-46.0-4.0-2.0-3.0,,,,,,,,,,,,100.0,0.0,,5f356cbffb4cea5170d04fd9,10:53:16,03/04/2024
,"<p style=""font-size:75px;"">...</p>",,ospan,iti,J7Gl24mRlqVq5HdmZqXMslkWcXl1,html-keyboard-response,143,1324966,0.0-46.0-5.0-0.0-0.0,,,,,,,,,,,,,,,5f356cbffb4cea5170d04fd9,10:53:16,03/04/2024
1534.0,,,ospan,symmetry,J7Gl24mRlqVq5HdmZqXMslkWcXl1,symmetry-judgement-task,144,1327546,0.0-46.0-5.0-0.0-1.0-0.0,,,,,,,,,,1.0,1.0,,,,5f356cbffb4cea5170d04fd9,10:53:16,03/04/2024
,"<div style=""font-size: 10rem; color: #0000FF"">J</div>",,ospan,letter,J7Gl24mRlqVq5HdmZqXMslkWcXl1,html-keyboard-response,145,1328549,0.0-46.0-5.0-0.0-1.0-1.0,,,,,,,,,,,,,,,5f356cbffb4cea5170d04fd9,10:53:16,03/04/2024
1799.0,,,ospan,symmetry,J7Gl24mRlqVq5HdmZqXMslkWcXl1,symmetry-judgement-task,146,1332382,0.0-46.0-5.0-0.0-1.0-2.0,,,,,,,,,,1.0,1.0,,,,5f356cbffb4cea5170d04fd9,10:53:16,03/04/2024
,"<div style=""font-size: 10rem; color: #0000FF"">P</div>",,ospan,letter,J7Gl24mRlqVq5HdmZqXMslkWcXl1,html-keyboard-response,147,1333384,0.0-46.0-5.0-0.0-1.0-3.0,,,,,,,,,,,,,,,5f356cbffb4cea5170d04fd9,10:53:16,03/04/2024
1801.0,,,ospan,symmetry,J7Gl24mRlqVq5HdmZqXMslkWcXl1,symmetry-judgement-task,148,1337189,0.0-46.0-5.0-0.0-1.0-4.0,,,,,,,,,,1.0,1.0,,,,5f356cbffb4cea5170d04fd9,10:53:16,03/04/2024
,"<div style=""font-size: 10rem; color: #0000FF"">Y</div>",,ospan,letter,J7Gl24mRlqVq5HdmZqXMslkWcXl1,html-keyboard-response,149,1338192,0.0-46.0-5.0-0.0-1.0-5.0,,,,,,,,,,,,,,,5f356cbffb4cea5170d04fd9,10:53:16,03/04/2024
2087.0,,,ospan,symmetry,J7Gl24mRlqVq5HdmZqXMslkWcXl1,symmetry-judgement-task,150,1342302,0.0-46.0-5.0-0.0-1.0-6.0,,,,,,,,,,1.0,1.0,,,,5f356cbffb4cea5170d04fd9,10:53:16,03/04/2024
,"<div style=""font-size: 10rem; color: #0000FF"">G</div>",,ospan,letter,J7Gl24mRlqVq5HdmZqXMslkWcXl1,html-keyboard-response,151,1343304,0.0-46.0-5.0-0.0-1.0-7.0,,,,,,,,,,,,,,,5f356cbffb4cea5170d04fd9,10:53:16,03/04/2024
1910.0,,,ospan,symmetry,J7Gl24mRlqVq5HdmZqXMslkWcXl1,symmetry-judgement-task,152,1347228,0.0-46.0-5.0-0.0-1.0-8.0,,,,,,,,,,1.0,1.0,,,,5f356cbffb4cea5170d04fd9,10:53:16,03/04/2024
,"<div style=""font-size: 10rem; color: #0000FF"">K</div>",,ospan,letter,J7Gl24mRlqVq5HdmZqXMslkWcXl1,html-keyboard-response,153,1348231,0.0-46.0-5.0-0.0-1.0-9.0,,,,,,,,,,,,,,,5f356cbffb4cea5170d04fd9,10:53:16,03/04/2024
1949.0,,,ospan,symmetry,J7Gl24mRlqVq5HdmZqXMslkWcXl1,symmetry-judgement-task,154,1352214,0.0-46.0-5.0-0.0-1.0-10.0,,,,,,,,,,1.0,1.0,,,,5f356cbffb4cea5170d04fd9,10:53:16,03/04/2024
,"<div style=""font-size: 10rem; color: #0000FF"">R</div>",,ospan,letter,J7Gl24mRlqVq5HdmZqXMslkWcXl1,html-keyboard-response,155,1353217,0.0-46.0-5.0-0.0-1.0-11.0,,,,,,,,,,,,,,,5f356cbffb4cea5170d04fd9,10:53:16,03/04/2024
6301.0,"<div class = numbox><p style=""font-size: 2.4rem"">Please recall the letters you saw to the best of your ability. If you do not remember a particular letter, use the SKIP button.<br><b>(When you are ready to lock in your answer, press ENTER)</b></p><button id = button_1 class = ""square num-button"" onclick = ""recordClick(this)""><div class = content><div class = numbers>C</div></div></button><button id = button_2 class = ""square num-button"" onclick = ""recordClick(this)""><div class = content><div class = numbers>G</div></div></button><button id = button_3 class = ""square num-button"" onclick = ""recordClick(this)""><div class = content><div class = numbers>H</div></div></button><button id = button_4 class = ""square num-button"" onclick = ""recordClick(this)""><div class = content><div class = numbers>J</div></div></button><button id = button_5 class = ""square num-button"" onclick = ""recordClick(this)""><div class = content><div class = numbers>K</div></div></button><button id = button_6 class = ""square num-button"" onclick = ""recordClick(this)""><div class = content><div class = numbers>L</div></div></button><button id = button_7 class = ""square num-button"" onclick = ""recordClick(this)""><div class = content><div class = numbers>N</div></div></button><button id = button_8 class = ""square num-button"" onclick = ""recordClick(this)""><div class = content><div class = numbers>P</div></div></button><button id = button_9 class = ""square num-button"" onclick = ""recordClick(this)""><div class = content><div class = numbers>Q</div></div></button><button id = button_10 class = ""square num-button"" onclick = ""recordClick(this)""><div class = content><div class = numbers>R</div></div></button><button id = button_11 class = ""square num-button"" onclick = ""recordClick(this)""><div class = content><div class = numbers>S</div></div></button><button id = button_12 class = ""square num-button"" onclick = ""recordClick(this)""><div class = content><div class = numbers>Y</div></div></button><button class = clear_button id = ""ClearButton"" onclick = ""clearResponse()"">BACKSPACE</button><button class = blank_button id = ""BlankButton"" onclick = ""blankResponse()"">SKIP</button><p style=""font-size: 2.4rem""><u><b>Current Answer:</b></u></p><br><br><div id=echoed_txt style=""font-size: 5rem; color:blue;""><b></b></div></div>",enter,ospan,retrieval,J7Gl24mRlqVq5HdmZqXMslkWcXl1,html-keyboard-response,156,1360271,0.0-46.0-5.0-0.0-2.0,21,21,21,6.0,"[""J"",""P"",""Y"",""G"",""K"",""R""]","[""J"",""P"",""Y"",""G"",""K"",""R""]",1.0,6.0,,,,,,,5f356cbffb4cea5170d04fd9,10:53:16,03/04/2024
822.1000000014901,[''],0,ospan,feedback,J7Gl24mRlqVq5HdmZqXMslkWcXl1,html-button-response,157,1361597,0.0-46.0-5.0-0.0-3.0,,,,,,,,,,,,100.0,0.0,,5f356cbffb4cea5170d04fd9,10:53:16,03/04/2024
,"<p style=""font-size:75px;"">...</p>",,ospan,iti,J7Gl24mRlqVq5HdmZqXMslkWcXl1,html-keyboard-response,158,1362599,0.0-46.0-5.0-1.0-0.0,,,,,,,,,,,,,,,5f356cbffb4cea5170d04fd9,10:53:16,03/04/2024
1911.0,,,ospan,symmetry,J7Gl24mRlqVq5HdmZqXMslkWcXl1,symmetry-judgement-task,159,1365764,0.0-46.0-5.0-1.0-1.0-0.0,,,,,,,,,,1.0,1.0,,,,5f356cbffb4cea5170d04fd9,10:53:16,03/04/2024
,"<div style=""font-size: 10rem; color: #0000FF"">H</div>",,ospan,letter,J7Gl24mRlqVq5HdmZqXMslkWcXl1,html-keyboard-response,160,1366766,0.0-46.0-5.0-1.0-1.0-1.0,,,,,,,,,,,,,,,5f356cbffb4cea5170d04fd9,10:53:16,03/04/2024
1271.0,,,ospan,symmetry,J7Gl24mRlqVq5HdmZqXMslkWcXl1,symmetry-judgement-task,161,1370075,0.0-46.0-5.0-1.0-1.0-2.0,,,,,,,,,,1.0,1.0,,,,5f356cbffb4cea5170d04fd9,10:53:16,03/04/2024
,"<div style=""font-size: 10rem; color: #0000FF"">G</div>",,ospan,letter,J7Gl24mRlqVq5HdmZqXMslkWcXl1,html-keyboard-response,162,1371077,0.0-46.0-5.0-1.0-1.0-3.0,,,,,,,,,,,,,,,5f356cbffb4cea5170d04fd9,10:53:16,03/04/2024
2431.0,,,ospan,symmetry,J7Gl24mRlqVq5HdmZqXMslkWcXl1,symmetry-judgement-task,163,1375517,0.0-46.0-5.0-1.0-1.0-4.0,,,,,,,,,,1.0,1.0,,,,5f356cbffb4cea5170d04fd9,10:53:16,03/04/2024
,"<div style=""font-size: 10rem; color: #0000FF"">Y</div>",,ospan,letter,J7Gl24mRlqVq5HdmZqXMslkWcXl1,html-keyboard-response,164,1376520,0.0-46.0-5.0-1.0-1.0-5.0,,,,,,,,,,,,,,,5f356cbffb4cea5170d04fd9,10:53:16,03/04/2024
1801.0,,,ospan,symmetry,J7Gl24mRlqVq5HdmZqXMslkWcXl1,symmetry-judgement-task,165,1380333,0.0-46.0-5.0-1.0-1.0-6.0,,,,,,,,,,1.0,1.0,,,,5f356cbffb4cea5170d04fd9,10:53:16,03/04/2024
,"<div style=""font-size: 10rem; color: #0000FF"">C</div>",,ospan,letter,J7Gl24mRlqVq5HdmZqXMslkWcXl1,html-keyboard-response,166,1381335,0.0-46.0-5.0-1.0-1.0-7.0,,,,,,,,,,,,,,,5f356cbffb4cea5170d04fd9,10:53:16,03/04/2024
1925.0,,,ospan,symmetry,J7Gl24mRlqVq5HdmZqXMslkWcXl1,symmetry-judgement-task,167,1385291,0.0-46.0-5.0-1.0-1.0-8.0,,,,,,,,,,1.0,1.0,,,,5f356cbffb4cea5170d04fd9,10:53:16,03/04/2024
,"<div style=""font-size: 10rem; color: #0000FF"">N</div>",,ospan,letter,J7Gl24mRlqVq5HdmZqXMslkWcXl1,html-keyboard-response,168,1386293,0.0-46.0-5.0-1.0-1.0-9.0,,,,,,,,,,,,,,,5f356cbffb4cea5170d04fd9,10:53:16,03/04/2024
3142.0,,,ospan,symmetry,J7Gl24mRlqVq5HdmZqXMslkWcXl1,symmetry-judgement-task,169,1391436,0.0-46.0-5.0-1.0-1.0-10.0,,,,,,,,,,1.0,1.0,,,,5f356cbffb4cea5170d04fd9,10:53:16,03/04/2024
,"<div style=""font-size: 10rem; color: #0000FF"">P</div>",,ospan,letter,J7Gl24mRlqVq5HdmZqXMslkWcXl1,html-keyboard-response,170,1392439,0.0-46.0-5.0-1.0-1.0-11.0,,,,,,,,,,,,,,,5f356cbffb4cea5170d04fd9,10:53:16,03/04/2024
4708.0,,,ospan,symmetry,J7Gl24mRlqVq5HdmZqXMslkWcXl1,symmetry-judgement-task,171,1399157,0.0-46.0-5.0-1.0-1.0-12.0,,,,,,,,,,1.0,1.0,,,,5f356cbffb4cea5170d04fd9,10:53:16,03/04/2024
,"<div style=""font-size: 10rem; color: #0000FF"">Q</div>",,ospan,letter,J7Gl24mRlqVq5HdmZqXMslkWcXl1,html-keyboard-response,172,1400160,0.0-46.0-5.0-1.0-1.0-13.0,,,,,,,,,,,,,,,5f356cbffb4cea5170d04fd9,10:53:16,03/04/2024
7786.39999999851,"<div class = numbox><p style=""font-size: 2.4rem"">Please recall the letters you saw to the best of your ability. If you do not remember a particular letter, use the SKIP button.<br><b>(When you are ready to lock in your answer, press ENTER)</b></p><button id = button_1 class = ""square num-button"" onclick = ""recordClick(this)""><div class = content><div class = numbers>C</div></div></button><button id = button_2 class = ""square num-button"" onclick = ""recordClick(this)""><div class = content><div class = numbers>G</div></div></button><button id = button_3 class = ""square num-button"" onclick = ""recordClick(this)""><div class = content><div class = numbers>H</div></div></button><button id = button_4 class = ""square num-button"" onclick = ""recordClick(this)""><div class = content><div class = numbers>J</div></div></button><button id = button_5 class = ""square num-button"" onclick = ""recordClick(this)""><div class = content><div class = numbers>K</div></div></button><button id = button_6 class = ""square num-button"" onclick = ""recordClick(this)""><div class = content><div class = numbers>L</div></div></button><button id = button_7 class = ""square num-button"" onclick = ""recordClick(this)""><div class = content><div class = numbers>N</div></div></button><button id = button_8 class = ""square num-button"" onclick = ""recordClick(this)""><div class = content><div class = numbers>P</div></div></button><button id = button_9 class = ""square num-button"" onclick = ""recordClick(this)""><div class = content><div class = numbers>Q</div></div></button><button id = button_10 class = ""square num-button"" onclick = ""recordClick(this)""><div class = content><div class = numbers>R</div></div></button><button id = button_11 class = ""square num-button"" onclick = ""recordClick(this)""><div class = content><div class = numbers>S</div></div></button><button id = button_12 class = ""square num-button"" onclick = ""recordClick(this)""><div class = content><div class = numbers>Y</div></div></button><button class = clear_button id = ""ClearButton"" onclick = ""clearResponse()"">BACKSPACE</button><button class = blank_button id = ""BlankButton"" onclick = ""blankResponse()"">SKIP</button><p style=""font-size: 2.4rem""><u><b>Current Answer:</b></u></p><br><br><div id=echoed_txt style=""font-size: 5rem; color:blue;""><b></b></div></div>",enter,ospan,retrieval,J7Gl24mRlqVq5HdmZqXMslkWcXl1,html-keyboard-response,173,1408699,0.0-46.0-5.0-1.0-2.0,28,28,28,7.0,"[""H"",""G"",""Y"",""C"",""N"",""P"",""Q""]","[""H"",""G"",""Y"",""C"",""N"",""P"",""Q""]",1.0,7.0,,,,,,,5f356cbffb4cea5170d04fd9,10:53:16,03/04/2024
804.0,[''],0,ospan,feedback,J7Gl24mRlqVq5HdmZqXMslkWcXl1,html-button-response,174,1410005,0.0-46.0-5.0-1.0-3.0,,,,,,,,,,,,100.0,0.0,,5f356cbffb4cea5170d04fd9,10:53:16,03/04/2024
,"<p style=""font-size:75px;"">...</p>",,ospan,iti,J7Gl24mRlqVq5HdmZqXMslkWcXl1,html-keyboard-response,175,1411008,0.0-46.0-6.0-0.0-0.0,,,,,,,,,,,,,,,5f356cbffb4cea5170d04fd9,10:53:16,03/04/2024
3768.0,,,ospan,symmetry,J7Gl24mRlqVq5HdmZqXMslkWcXl1,symmetry-judgement-task,176,1416029,0.0-46.0-6.0-0.0-1.0-0.0,,,,,,,,,,1.0,1.0,,,,5f356cbffb4cea5170d04fd9,10:53:16,03/04/2024
,"<div style=""font-size: 10rem; color: #0000FF"">C</div>",,ospan,letter,J7Gl24mRlqVq5HdmZqXMslkWcXl1,html-keyboard-response,177,1417031,0.0-46.0-6.0-0.0-1.0-1.0,,,,,,,,,,,,,,,5f356cbffb4cea5170d04fd9,10:53:16,03/04/2024
2678.0,,,ospan,symmetry,J7Gl24mRlqVq5HdmZqXMslkWcXl1,symmetry-judgement-task,178,1421710,0.0-46.0-6.0-0.0-1.0-2.0,,,,,,,,,,1.0,1.0,,,,5f356cbffb4cea5170d04fd9,10:53:16,03/04/2024
,"<div style=""font-size: 10rem; color: #0000FF"">L</div>",,ospan,letter,J7Gl24mRlqVq5HdmZqXMslkWcXl1,html-keyboard-response,179,1422713,0.0-46.0-6.0-0.0-1.0-3.0,,,,,,,,,,,,,,,5f356cbffb4cea5170d04fd9,10:53:16,03/04/2024
4030.0,,,ospan,symmetry,J7Gl24mRlqVq5HdmZqXMslkWcXl1,symmetry-judgement-task,180,1428760,0.0-46.0-6.0-0.0-1.0-4.0,,,,,,,,,,1.0,1.0,,,,5f356cbffb4cea5170d04fd9,10:53:16,03/04/2024
,"<div style=""font-size: 10rem; color: #0000FF"">Y</div>",,ospan,letter,J7Gl24mRlqVq5HdmZqXMslkWcXl1,html-keyboard-response,181,1429762,0.0-46.0-6.0-0.0-1.0-5.0,,,,,,,,,,,,,,,5f356cbffb4cea5170d04fd9,10:53:16,03/04/2024
3276.0,,,ospan,symmetry,J7Gl24mRlqVq5HdmZqXMslkWcXl1,symmetry-judgement-task,182,1435053,0.0-46.0-6.0-0.0-1.0-6.0,,,,,,,,,,1.0,1.0,,,,5f356cbffb4cea5170d04fd9,10:53:16,03/04/2024
,"<div style=""font-size: 10rem; color: #0000FF"">R</div>",,ospan,letter,J7Gl24mRlqVq5HdmZqXMslkWcXl1,html-keyboard-response,183,1436055,0.0-46.0-6.0-0.0-1.0-7.0,,,,,,,,,,,,,,,5f356cbffb4cea5170d04fd9,10:53:16,03/04/2024
1731.0,,,ospan,symmetry,J7Gl24mRlqVq5HdmZqXMslkWcXl1,symmetry-judgement-task,184,1439808,0.0-46.0-6.0-0.0-1.0-8.0,,,,,,,,,,1.0,1.0,,,,5f356cbffb4cea5170d04fd9,10:53:16,03/04/2024
,"<div style=""font-size: 10rem; color: #0000FF"">S</div>",,ospan,letter,J7Gl24mRlqVq5HdmZqXMslkWcXl1,html-keyboard-response,185,1440810,0.0-46.0-6.0-0.0-1.0-9.0,,,,,,,,,,,,,,,5f356cbffb4cea5170d04fd9,10:53:16,03/04/2024
18093.10000000149,"<div class = numbox><p style=""font-size: 2.4rem"">Please recall the letters you saw to the best of your ability. If you do not remember a particular letter, use the SKIP button.<br><b>(When you are ready to lock in your answer, press ENTER)</b></p><button id = button_1 class = ""square num-button"" onclick = ""recordClick(this)""><div class = content><div class = numbers>C</div></div></button><button id = button_2 class = ""square num-button"" onclick = ""recordClick(this)""><div class = content><div class = numbers>G</div></div></button><button id = button_3 class = ""square num-button"" onclick = ""recordClick(this)""><div class = content><div class = numbers>H</div></div></button><button id = button_4 class = ""square num-button"" onclick = ""recordClick(this)""><div class = content><div class = numbers>J</div></div></button><button id = button_5 class = ""square num-button"" onclick = ""recordClick(this)""><div class = content><div class = numbers>K</div></div></button><button id = button_6 class = ""square num-button"" onclick = ""recordClick(this)""><div class = content><div class = numbers>L</div></div></button><button id = button_7 class = ""square num-button"" onclick = ""recordClick(this)""><div class = content><div class = numbers>N</div></div></button><button id = button_8 class = ""square num-button"" onclick = ""recordClick(this)""><div class = content><div class = numbers>P</div></div></button><button id = button_9 class = ""square num-button"" onclick = ""recordClick(this)""><div class = content><div class = numbers>Q</div></div></button><button id = button_10 class = ""square num-button"" onclick = ""recordClick(this)""><div class = content><div class = numbers>R</div></div></button><button id = button_11 class = ""square num-button"" onclick = ""recordClick(this)""><div class = content><div class = numbers>S</div></div></button><button id = button_12 class = ""square num-button"" onclick = ""recordClick(this)""><div class = content><div class = numbers>Y</div></div></button><button class = clear_button id = ""ClearButton"" onclick = ""clearResponse()"">BACKSPACE</button><button class = blank_button id = ""BlankButton"" onclick = ""blankResponse()"">SKIP</button><p style=""font-size: 2.4rem""><u><b>Current Answer:</b></u></p><br><br><div id=echoed_txt style=""font-size: 5rem; color:blue;""><b></b></div></div>",enter,ospan,retrieval,J7Gl24mRlqVq5HdmZqXMslkWcXl1,html-keyboard-response,186,1459655,0.0-46.0-6.0-0.0-2.0,33,33,33,5.0,"[""C"",""L"",""Y"",""R"",""S""]","[""C"",""L"",""Y"",""R"",""S""]",1.0,5.0,,,,,,,5f356cbffb4cea5170d04fd9,10:53:16,03/04/2024
979.8000000044703,[''],0,ospan,feedback,J7Gl24mRlqVq5HdmZqXMslkWcXl1,html-button-response,187,1461137,0.0-46.0-6.0-0.0-3.0,,,,,,,,,,,,100.0,0.0,,5f356cbffb4cea5170d04fd9,10:53:16,03/04/2024
,"<p style=""font-size:75px;"">...</p>",,ospan,iti,J7Gl24mRlqVq5HdmZqXMslkWcXl1,html-keyboard-response,188,1462140,0.0-46.0-6.0-1.0-0.0,,,,,,,,,,,,,,,5f356cbffb4cea5170d04fd9,10:53:16,03/04/2024
2630.0,,,ospan,symmetry,J7Gl24mRlqVq5HdmZqXMslkWcXl1,symmetry-judgement-task,189,1466050,0.0-46.0-6.0-1.0-1.0-0.0,,,,,,,,,,1.0,1.0,,,,5f356cbffb4cea5170d04fd9,10:53:16,03/04/2024
,"<div style=""font-size: 10rem; color: #0000FF"">L</div>",,ospan,letter,J7Gl24mRlqVq5HdmZqXMslkWcXl1,html-keyboard-response,190,1467052,0.0-46.0-6.0-1.0-1.0-1.0,,,,,,,,,,,,,,,5f356cbffb4cea5170d04fd9,10:53:16,03/04/2024
1933.0,,,ospan,symmetry,J7Gl24mRlqVq5HdmZqXMslkWcXl1,symmetry-judgement-task,191,1470990,0.0-46.0-6.0-1.0-1.0-2.0,,,,,,,,,,1.0,1.0,,,,5f356cbffb4cea5170d04fd9,10:53:16,03/04/2024
,"<div style=""font-size: 10rem; color: #0000FF"">K</div>",,ospan,letter,J7Gl24mRlqVq5HdmZqXMslkWcXl1,html-keyboard-response,192,1471993,0.0-46.0-6.0-1.0-1.0-3.0,,,,,,,,,,,,,,,5f356cbffb4cea5170d04fd9,10:53:16,03/04/2024
2557.0,,,ospan,symmetry,J7Gl24mRlqVq5HdmZqXMslkWcXl1,symmetry-judgement-task,193,1476578,0.0-46.0-6.0-1.0-1.0-4.0,,,,,,,,,,1.0,1.0,,,,5f356cbffb4cea5170d04fd9,10:53:16,03/04/2024
,"<div style=""font-size: 10rem; color: #0000FF"">P</div>",,ospan,letter,J7Gl24mRlqVq5HdmZqXMslkWcXl1,html-keyboard-response,194,1477580,0.0-46.0-6.0-1.0-1.0-5.0,,,,,,,,,,,,,,,5f356cbffb4cea5170d04fd9,10:53:16,03/04/2024
1505.0,,,ospan,symmetry,J7Gl24mRlqVq5HdmZqXMslkWcXl1,symmetry-judgement-task,195,1481113,0.0-46.0-6.0-1.0-1.0-6.0,,,,,,,,,,1.0,1.0,,,,5f356cbffb4cea5170d04fd9,10:53:16,03/04/2024
,"<div style=""font-size: 10rem; color: #0000FF"">R</div>",,ospan,letter,J7Gl24mRlqVq5HdmZqXMslkWcXl1,html-keyboard-response,196,1482116,0.0-46.0-6.0-1.0-1.0-7.0,,,,,,,,,,,,,,,5f356cbffb4cea5170d04fd9,10:53:16,03/04/2024
3045.0,,,ospan,symmetry,J7Gl24mRlqVq5HdmZqXMslkWcXl1,symmetry-judgement-task,197,1487184,0.0-46.0-6.0-1.0-1.0-8.0,,,,,,,,,,1.0,1.0,,,,5f356cbffb4cea5170d04fd9,10:53:16,03/04/2024
,"<div style=""font-size: 10rem; color: #0000FF"">J</div>",,ospan,letter,J7Gl24mRlqVq5HdmZqXMslkWcXl1,html-keyboard-response,198,1488186,0.0-46.0-6.0-1.0-1.0-9.0,,,,,,,,,,,,,,,5f356cbffb4cea5170d04fd9,10:53:16,03/04/2024
1394.0,,,ospan,symmetry,J7Gl24mRlqVq5HdmZqXMslkWcXl1,symmetry-judgement-task,199,1491591,0.0-46.0-6.0-1.0-1.0-10.0,,,,,,,,,,1.0,1.0,,,,5f356cbffb4cea5170d04fd9,10:53:16,03/04/2024
,"<div style=""font-size: 10rem; color: #0000FF"">Q</div>",,ospan,letter,J7Gl24mRlqVq5HdmZqXMslkWcXl1,html-keyboard-response,200,1492593,0.0-46.0-6.0-1.0-1.0-11.0,,,,,,,,,,,,,,,5f356cbffb4cea5170d04fd9,10:53:16,03/04/2024
1671.0,,,ospan,symmetry,J7Gl24mRlqVq5HdmZqXMslkWcXl1,symmetry-judgement-task,201,1496278,0.0-46.0-6.0-1.0-1.0-12.0,,,,,,,,,,1.0,1.0,,,,5f356cbffb4cea5170d04fd9,10:53:16,03/04/2024
,"<div style=""font-size: 10rem; color: #0000FF"">S</div>",,ospan,letter,J7Gl24mRlqVq5HdmZqXMslkWcXl1,html-keyboard-response,202,1497281,0.0-46.0-6.0-1.0-1.0-13.0,,,,,,,,,,,,,,,5f356cbffb4cea5170d04fd9,10:53:16,03/04/2024
4177.0,,,ospan,symmetry,J7Gl24mRlqVq5HdmZqXMslkWcXl1,symmetry-judgement-task,203,1503461,0.0-46.0-6.0-1.0-1.0-14.0,,,,,,,,,,1.0,1.0,,,,5f356cbffb4cea5170d04fd9,10:53:16,03/04/2024
,"<div style=""font-size: 10rem; color: #0000FF"">Y</div>",,ospan,letter,J7Gl24mRlqVq5HdmZqXMslkWcXl1,html-keyboard-response,204,1504464,0.0-46.0-6.0-1.0-1.0-15.0,,,,,,,,,,,,,,,5f356cbffb4cea5170d04fd9,10:53:16,03/04/2024
9788.70000000298,"<div class = numbox><p style=""font-size: 2.4rem"">Please recall the letters you saw to the best of your ability. If you do not remember a particular letter, use the SKIP button.<br><b>(When you are ready to lock in your answer, press ENTER)</b></p><button id = button_1 class = ""square num-button"" onclick = ""recordClick(this)""><div class = content><div class = numbers>C</div></div></button><button id = button_2 class = ""square num-button"" onclick = ""recordClick(this)""><div class = content><div class = numbers>G</div></div></button><button id = button_3 class = ""square num-button"" onclick = ""recordClick(this)""><div class = content><div class = numbers>H</div></div></button><button id = button_4 class = ""square num-button"" onclick = ""recordClick(this)""><div class = content><div class = numbers>J</div></div></button><button id = button_5 class = ""square num-button"" onclick = ""recordClick(this)""><div class = content><div class = numbers>K</div></div></button><button id = button_6 class = ""square num-button"" onclick = ""recordClick(this)""><div class = content><div class = numbers>L</div></div></button><button id = button_7 class = ""square num-button"" onclick = ""recordClick(this)""><div class = content><div class = numbers>N</div></div></button><button id = button_8 class = ""square num-button"" onclick = ""recordClick(this)""><div class = content><div class = numbers>P</div></div></button><button id = button_9 class = ""square num-button"" onclick = ""recordClick(this)""><div class = content><div class = numbers>Q</div></div></button><button id = button_10 class = ""square num-button"" onclick = ""recordClick(this)""><div class = content><div class = numbers>R</div></div></button><button id = button_11 class = ""square num-button"" onclick = ""recordClick(this)""><div class = content><div class = numbers>S</div></div></button><button id = button_12 class = ""square num-button"" onclick = ""recordClick(this)""><div class = content><div class = numbers>Y</div></div></button><button class = clear_button id = ""ClearButton"" onclick = ""clearResponse()"">BACKSPACE</button><button class = blank_button id = ""BlankButton"" onclick = ""blankResponse()"">SKIP</button><p style=""font-size: 2.4rem""><u><b>Current Answer:</b></u></p><br><br><div id=echoed_txt style=""font-size: 5rem; color:blue;""><b></b></div></div>",enter,ospan,retrieval,J7Gl24mRlqVq5HdmZqXMslkWcXl1,html-keyboard-response,205,1515005,0.0-46.0-6.0-1.0-2.0,41,41,41,8.0,"[""L"",""K"",""P"",""R"",""J"",""Q"",""S"",""Y""]","[""L"",""K"",""P"",""R"",""J"",""Q"",""S"",""Y""]",1.0,8.0,,,,,,,5f356cbffb4cea5170d04fd9,10:53:16,03/04/2024
763.7000000029802,[''],0,ospan,feedback,J7Gl24mRlqVq5HdmZqXMslkWcXl1,html-button-response,206,1516271,0.0-46.0-6.0-1.0-3.0,,,,,,,,,,,,100.0,0.0,,5f356cbffb4cea5170d04fd9,10:53:16,03/04/2024
33443.60000000149,,"{'Q0': 'i enjoyed this task, most of them were easier than i was expecting, with only the longer sequences providing a slight challenge.'}",ospan,survey_ospan,J7Gl24mRlqVq5HdmZqXMslkWcXl1,lmdlab-survey-text,207,1550468,0.0-46.0-7.0,,,,,,,,,,,,,,J7Gl24mRlqVq5HdmZqXMslkWcXl1,5f356cbffb4cea5170d04fd9,10:53:16,03/04/2024
1096.3999999985099,<p><p style='font-size: 3rem'>Great work!<br><br>This completes the symmetry and memory task.</p><br><br><br>,0,ospan,finish,J7Gl24mRlqVq5HdmZqXMslkWcXl1,html-button-response,208,1551568,0.0-46.0-8.0,41,41,41,,,,,,,,,100.0,,,5f356cbffb4cea5170d04fd9,10:53:16,03/04/2024
