rt,stimulus,response,exp_name,exp_stage,subjectID,trial_type,trial_index,time_elapsed,internal_node_id,ospan_shown,ospan_total,ospan_abs,length,resp_actual,resp_correct,full_correct,num_correct,feedback,accuracy,correct,math_acc,math_warning,databaseID,prolificID,start_time,date
2333.0,<div class = 'left_align' style='font-size: 3.25rem; line-height: 1.3;'><p class = 'center_align'><b>Welcome to the Symmetry and Memory Task</b><br><br><br><br></p>Press 'continue' to show the instructions.<br><br><br><br></div>,0,ospan,instruct,voTv8fT67rNyLGVlH3q7WshMK9A2,html-button-response,54,469108,0.0-46.0-0.0-0.0-0.0,,,,,,,,,,,,,,,605772a89b984daa51fb5692,10:03:34,03/04/2024
7274.0,"<div class = 'left_align' style='font-size: 3.25rem; line-height: 1.3;'><p class = 'center_align'><b>Symmetry and Memory Task</b><br><br></p>In this task, you will try to memorize letters you see on the screen<br>while you also view black and white grid pictures.<br><br>In the next few minutes, you will have some practice to get you familiar<br>with how the task works.<br><br>It may be difficult sometimes, but please do not worry about making mistakes!<br><br>We will begin by practicing the letter part of the task.<br><br><br><br></div>",0,ospan,instruct,voTv8fT67rNyLGVlH3q7WshMK9A2,html-button-response,55,476649,0.0-46.0-0.0-0.0-1.0,,,,,,,,,,,,,,,605772a89b984daa51fb5692,10:03:34,03/04/2024
5112.79999999702,"<div class = 'left_align' style='font-size: 3.25rem; line-height: 1.3;'>For this practice part, letters will appear on the screen one at a time.<br><br>Try to remember each letter in the order presented.<br><br>After some letters have been shown, you will see a response screen. Your<br>goal is to report the letters you saw <b>in order</b>. If you do not remember<br>a particular letter, you will have the option to leave it blank.<br><br><br><br></div>",0,ospan,instruct,voTv8fT67rNyLGVlH3q7WshMK9A2,html-button-response,56,482022,0.0-46.0-0.0-0.0-2.0,,,,,,,,,,,,,,,605772a89b984daa51fb5692,10:03:34,03/04/2024
2876.2999999970198,"<div class = 'left_align' style='font-size: 3.25rem; line-height: 1.3;'>Remember, it is very important to get the letters in the same<br>order as you see them.<br><br>When you are ready, you may begin the letter practice.</div><br><br><br><br>",0,ospan,instruct,voTv8fT67rNyLGVlH3q7WshMK9A2,html-button-response,57,485156,0.0-46.0-0.0-0.0-3.0,,,,,,,,,,,,,,,605772a89b984daa51fb5692,10:03:34,03/04/2024
,"<p style=""font-size:75px;"">...</p>",,ospan,iti,voTv8fT67rNyLGVlH3q7WshMK9A2,html-keyboard-response,58,486433,0.0-46.0-0.0-1.0-0.0,,,,,,,,,,,,,,,605772a89b984daa51fb5692,10:03:34,03/04/2024
,"<div style=""font-size: 10rem; color: #0000FF"">G</div>",,ospan,letter,voTv8fT67rNyLGVlH3q7WshMK9A2,html-keyboard-response,59,487447,0.0-46.0-0.0-1.0-1.0,,,,,,,,,,,,,,,605772a89b984daa51fb5692,10:03:34,03/04/2024
,"<div style=""font-size: 10rem; color: #0000FF"">J</div>",,ospan,letter,voTv8fT67rNyLGVlH3q7WshMK9A2,html-keyboard-response,60,489219,0.0-46.0-0.0-1.0-2.0,,,,,,,,,,,,,,,605772a89b984daa51fb5692,10:03:34,03/04/2024
6566.5,"<div class = numbox><p style=""font-size: 2.4rem"">Please recall the letters you saw to the best of your ability. If you do not remember a particular letter, use the SKIP button.<br><b>(When you are ready to lock in your answer, press ENTER)</b></p><button id = button_1 class = ""square num-button"" onclick = ""recordClick(this)""><div class = content><div class = numbers>C</div></div></button><button id = button_2 class = ""square num-button"" onclick = ""recordClick(this)""><div class = content><div class = numbers>G</div></div></button><button id = button_3 class = ""square num-button"" onclick = ""recordClick(this)""><div class = content><div class = numbers>H</div></div></button><button id = button_4 class = ""square num-button"" onclick = ""recordClick(this)""><div class = content><div class = numbers>J</div></div></button><button id = button_5 class = ""square num-button"" onclick = ""recordClick(this)""><div class = content><div class = numbers>K</div></div></button><button id = button_6 class = ""square num-button"" onclick = ""recordClick(this)""><div class = content><div class = numbers>L</div></div></button><button id = button_7 class = ""square num-button"" onclick = ""recordClick(this)""><div class = content><div class = numbers>N</div></div></button><button id = button_8 class = ""square num-button"" onclick = ""recordClick(this)""><div class = content><div class = numbers>P</div></div></button><button id = button_9 class = ""square num-button"" onclick = ""recordClick(this)""><div class = content><div class = numbers>Q</div></div></button><button id = button_10 class = ""square num-button"" onclick = ""recordClick(this)""><div class = content><div class = numbers>R</div></div></button><button id = button_11 class = ""square num-button"" onclick = ""recordClick(this)""><div class = content><div class = numbers>S</div></div></button><button id = button_12 class = ""square num-button"" onclick = ""recordClick(this)""><div class = content><div class = numbers>Y</div></div></button><button class = clear_button id = ""ClearButton"" onclick = ""clearResponse()"">BACKSPACE</button><button class = blank_button id = ""BlankButton"" onclick = ""blankResponse()"">SKIP</button><p style=""font-size: 2.4rem""><u><b>Current Answer:</b></u></p><br><br><div id=echoed_txt style=""font-size: 5rem; color:blue;""><b></b></div></div>",enter,ospan,retrieval,voTv8fT67rNyLGVlH3q7WshMK9A2,html-keyboard-response,61,496550,0.0-46.0-0.0-1.0-3.0,NA,NA,NA,2.0,"[""G"",""J""]","[""G"",""J""]",1.0,2.0,"['<font color=""green"">G</font>', '<font color=""green"">J</font>']",,,,,,605772a89b984daa51fb5692,10:03:34,03/04/2024
1253.9000000059605,"['<p style=""font-size:44px"">Letters:<br><br><br><font color=""green"">G</font> <font color=""green"">J</font></p><br><br>']",0,ospan,practice_feedback,voTv8fT67rNyLGVlH3q7WshMK9A2,html-button-response,62,498310,0.0-46.0-0.0-1.0-4.0,,,,,,,,,,,,,,,605772a89b984daa51fb5692,10:03:34,03/04/2024
,"<p style=""font-size:75px;"">...</p>",,ospan,iti,voTv8fT67rNyLGVlH3q7WshMK9A2,html-keyboard-response,63,499315,0.0-46.0-0.0-2.0-0.0,,,,,,,,,,,,,,,605772a89b984daa51fb5692,10:03:34,03/04/2024
,"<div style=""font-size: 10rem; color: #0000FF"">L</div>",,ospan,letter,voTv8fT67rNyLGVlH3q7WshMK9A2,html-keyboard-response,64,500329,0.0-46.0-0.0-2.0-1.0,,,,,,,,,,,,,,,605772a89b984daa51fb5692,10:03:34,03/04/2024
,"<div style=""font-size: 10rem; color: #0000FF"">P</div>",,ospan,letter,voTv8fT67rNyLGVlH3q7WshMK9A2,html-keyboard-response,65,502092,0.0-46.0-0.0-2.0-2.0,,,,,,,,,,,,,,,605772a89b984daa51fb5692,10:03:34,03/04/2024
,"<div style=""font-size: 10rem; color: #0000FF"">K</div>",,ospan,letter,voTv8fT67rNyLGVlH3q7WshMK9A2,html-keyboard-response,66,503864,0.0-46.0-0.0-2.0-3.0,,,,,,,,,,,,,,,605772a89b984daa51fb5692,10:03:34,03/04/2024
5812.10000000149,"<div class = numbox><p style=""font-size: 2.4rem"">Please recall the letters you saw to the best of your ability. If you do not remember a particular letter, use the SKIP button.<br><b>(When you are ready to lock in your answer, press ENTER)</b></p><button id = button_1 class = ""square num-button"" onclick = ""recordClick(this)""><div class = content><div class = numbers>C</div></div></button><button id = button_2 class = ""square num-button"" onclick = ""recordClick(this)""><div class = content><div class = numbers>G</div></div></button><button id = button_3 class = ""square num-button"" onclick = ""recordClick(this)""><div class = content><div class = numbers>H</div></div></button><button id = button_4 class = ""square num-button"" onclick = ""recordClick(this)""><div class = content><div class = numbers>J</div></div></button><button id = button_5 class = ""square num-button"" onclick = ""recordClick(this)""><div class = content><div class = numbers>K</div></div></button><button id = button_6 class = ""square num-button"" onclick = ""recordClick(this)""><div class = content><div class = numbers>L</div></div></button><button id = button_7 class = ""square num-button"" onclick = ""recordClick(this)""><div class = content><div class = numbers>N</div></div></button><button id = button_8 class = ""square num-button"" onclick = ""recordClick(this)""><div class = content><div class = numbers>P</div></div></button><button id = button_9 class = ""square num-button"" onclick = ""recordClick(this)""><div class = content><div class = numbers>Q</div></div></button><button id = button_10 class = ""square num-button"" onclick = ""recordClick(this)""><div class = content><div class = numbers>R</div></div></button><button id = button_11 class = ""square num-button"" onclick = ""recordClick(this)""><div class = content><div class = numbers>S</div></div></button><button id = button_12 class = ""square num-button"" onclick = ""recordClick(this)""><div class = content><div class = numbers>Y</div></div></button><button class = clear_button id = ""ClearButton"" onclick = ""clearResponse()"">BACKSPACE</button><button class = blank_button id = ""BlankButton"" onclick = ""blankResponse()"">SKIP</button><p style=""font-size: 2.4rem""><u><b>Current Answer:</b></u></p><br><br><div id=echoed_txt style=""font-size: 5rem; color:blue;""><b></b></div></div>",enter,ospan,retrieval,voTv8fT67rNyLGVlH3q7WshMK9A2,html-keyboard-response,67,510438,0.0-46.0-0.0-2.0-4.0,NA,NA,NA,3.0,"[""L"",""P"",""K""]","[""L"",""P"",""K""]",1.0,3.0,"['<font color=""green"">L</font>', '<font color=""green"">P</font>', '<font color=""green"">K</font>']",,,,,,605772a89b984daa51fb5692,10:03:34,03/04/2024
1079.0,"['<p style=""font-size:44px"">Letters:<br><br><br><font color=""green"">L</font> <font color=""green"">P</font> <font color=""green"">K</font></p><br><br>']",0,ospan,practice_feedback,voTv8fT67rNyLGVlH3q7WshMK9A2,html-button-response,68,512028,0.0-46.0-0.0-2.0-5.0,,,,,,,,,,,,,,,605772a89b984daa51fb5692,10:03:34,03/04/2024
16235.0,"<div class = 'left_align' style='font-size: 3.25rem; line-height: 1.3;'>Now you will practice doing the <b>symmetry judgment part</b> of the experiment.<br><br>A black and white grid picture will appear on the screen and you have to judge if it is <br>symmetrical or asymetrical.<br><br>A picture is 'mirror' symmetrical if its left half is identical to the right half when flipped.<br>Here are examples of a symmetrical and an asymetrical picture:<br><br><center><img src='Stimuli/img/symm_instructions_extra.png' style='height:420px; width:900'></img></center><br>To judge symmetry, imagine you were to fold each picture down the middle, like a book –<br>would the left half match the right half when folded onto each other?<br><br></div><br>",0,ospan,instruct,voTv8fT67rNyLGVlH3q7WshMK9A2,html-button-response,69,528264,0.0-46.0-1.0-0.0-0.0,,,,,,,,,,,,,,,605772a89b984daa51fb5692,10:03:34,03/04/2024
3295.5,"<div class = 'left_align' style='font-size: 3.25rem; line-height: 1.3;'>When you have viewed the picture and determined whether it is symmetrical or not,<br>you can <b>click the Yes or No button</b> below to answer.<br><br>If you take longer than 15 seconds, it will continue automatically<br>and record the answer as an error.</div><br>",0,ospan,instruct,voTv8fT67rNyLGVlH3q7WshMK9A2,html-button-response,70,531818,0.0-46.0-1.0-0.0-1.0,,,,,,,,,,,,,,,605772a89b984daa51fb5692,10:03:34,03/04/2024
2858.89999999851,"<div class = 'left_align' style='font-size: 3.25rem; line-height: 1.3;'>It is <b>very</b> important that you make the symmetry judgment correctly.<br><br>It is also important that you try and judge the picture as quickly as you can.<br><br>When you are ready, click on the button below to try some practice problems.</div><br><br><br><br>",0,ospan,instruct,voTv8fT67rNyLGVlH3q7WshMK9A2,html-button-response,71,534942,0.0-46.0-1.0-0.0-2.0,,,,,,,,,,,,,,,605772a89b984daa51fb5692,10:03:34,03/04/2024
1975.0,,,ospan,symmetry,voTv8fT67rNyLGVlH3q7WshMK9A2,symmetry-judgement-task,72,537694,0.0-46.0-1.0-1.0-0.0,,,,,,,,,,1.0,1.0,,,,605772a89b984daa51fb5692,10:03:34,03/04/2024
,"<p style=""color:green; font-size: 35px"">Correct</p>",,ospan,feedback,voTv8fT67rNyLGVlH3q7WshMK9A2,html-keyboard-response,73,538456,0.0-46.0-1.0-1.0-1.0,,,,,,,,,,,,,,,605772a89b984daa51fb5692,10:03:34,03/04/2024
1300.0,,,ospan,symmetry,voTv8fT67rNyLGVlH3q7WshMK9A2,symmetry-judgement-task,74,542340,0.0-46.0-1.0-1.0-2.0,,,,,,,,,,1.0,1.0,,,,605772a89b984daa51fb5692,10:03:34,03/04/2024
,"<p style=""color:green; font-size: 35px"">Correct</p>",,ospan,feedback,voTv8fT67rNyLGVlH3q7WshMK9A2,html-keyboard-response,75,543102,0.0-46.0-1.0-1.0-3.0,,,,,,,,,,,,,,,605772a89b984daa51fb5692,10:03:34,03/04/2024
1262.0,,,ospan,symmetry,voTv8fT67rNyLGVlH3q7WshMK9A2,symmetry-judgement-task,76,546944,0.0-46.0-1.0-1.0-4.0,,,,,,,,,,1.0,1.0,,,,605772a89b984daa51fb5692,10:03:34,03/04/2024
,"<p style=""color:green; font-size: 35px"">Correct</p>",,ospan,feedback,voTv8fT67rNyLGVlH3q7WshMK9A2,html-keyboard-response,77,547703,0.0-46.0-1.0-1.0-5.0,,,,,,,,,,,,,,,605772a89b984daa51fb5692,10:03:34,03/04/2024
1394.5,"<p style=""font-size: 3rem;"">You responded correctly on 3 of 3 symmetry judgments. Good job!</p><br><br>",0,ospan,practice,voTv8fT67rNyLGVlH3q7WshMK9A2,html-button-response,78,551108,0.0-46.0-1.0-2.0,,,,,,,,,,,,,,,605772a89b984daa51fb5692,10:03:34,03/04/2024
3872.8000000044703,"<div class = 'left_align' style='font-size: 3.25rem; line-height: 1.3;'>Now you will practice doing both parts of the experiment at the same time.<br><br>In the next practice set, you will be given one grid picture to judge.<br>Then letter will appear on the screen. Try to remember the letter.<br><br>It is <b>very important</b> to make the symmetry judgment as quickly and accurately as possible.<br><br>Just as before, once you have make the symmetry judgment, you can click Yes or No.<br><b>Note that you will no longer see Correct or Incorrect feedback.</div><br><br><br><br>",0,ospan,instruct,voTv8fT67rNyLGVlH3q7WshMK9A2,html-button-response,79,555234,0.0-46.0-2.0-0.0-0.0,,,,,,,,,,,,,,,605772a89b984daa51fb5692,10:03:34,03/04/2024
1792.8999999985099,"<div class = 'left_align' style='font-size: 3.25rem; line-height: 1.3;'>After the letter goes away, another grid picture will appear, and then<br>another letter.<br><br>At the end of each set of letters and grids, you will recall the letters to the best<br>of your ability. Remember, try your best to get the letters in the correct order.<br><br>It is important to <b>quickly</b> and <b>accurately</b> make the symmetry judgments.</div><br><br><br><br>",0,ospan,instruct,voTv8fT67rNyLGVlH3q7WshMK9A2,html-button-response,80,557292,0.0-46.0-2.0-0.0-1.0,,,,,,,,,,,,,,,605772a89b984daa51fb5692,10:03:34,03/04/2024
5875.30000000447,"<div class = 'left_align' style='font-size: 3.25rem; line-height: 1.3;'>On the feedback screen, if you are not doing well at the symmetry judgments,<br>you will also see a warning in the middle. This indicates your percent <br>correct for the grid pictures for the entire experiment.<br><br>It is <b>very</b> important for you to keep accuracy at least at 85%: <u>We can only use<br>data where the participant was at least 85% accurate on the judgments.</u> Therefore,<br> please try your best to perform well on the symmetry judgments, <b>at the same time</b><br>doing your best to recall as many letters as possible.<br><br>Click the button to try some practice problems.</div><br><br><br><br>",0,ospan,instruct,voTv8fT67rNyLGVlH3q7WshMK9A2,html-button-response,81,563432,0.0-46.0-2.0-0.0-2.0,,,,,,,,,,,,,,,605772a89b984daa51fb5692,10:03:34,03/04/2024
,"<p style=""font-size:75px;"">...</p>",,ospan,iti,voTv8fT67rNyLGVlH3q7WshMK9A2,html-keyboard-response,82,564694,0.0-46.0-2.0-1.0-0.0,,,,,,,,,,,,,,,605772a89b984daa51fb5692,10:03:34,03/04/2024
1442.0,,,ospan,symmetry,voTv8fT67rNyLGVlH3q7WshMK9A2,symmetry-judgement-task,83,567217,0.0-46.0-2.0-1.0-1.0-0.0,,,,,,,,,,1.0,1.0,,,,605772a89b984daa51fb5692,10:03:34,03/04/2024
,"<div style=""font-size: 10rem; color: #0000FF"">Q</div>",,ospan,letter,voTv8fT67rNyLGVlH3q7WshMK9A2,html-keyboard-response,84,568229,0.0-46.0-2.0-1.0-1.0-1.0,,,,,,,,,,,,,,,605772a89b984daa51fb5692,10:03:34,03/04/2024
2147.0,,,ospan,symmetry,voTv8fT67rNyLGVlH3q7WshMK9A2,symmetry-judgement-task,85,572214,0.0-46.0-2.0-1.0-1.0-2.0,,,,,,,,,,1.0,1.0,,,,605772a89b984daa51fb5692,10:03:34,03/04/2024
,"<div style=""font-size: 10rem; color: #0000FF"">L</div>",,ospan,letter,voTv8fT67rNyLGVlH3q7WshMK9A2,html-keyboard-response,86,573224,0.0-46.0-2.0-1.0-1.0-3.0,,,,,,,,,,,,,,,605772a89b984daa51fb5692,10:03:34,03/04/2024
2636.0,,,ospan,symmetry,voTv8fT67rNyLGVlH3q7WshMK9A2,symmetry-judgement-task,87,577692,0.0-46.0-2.0-1.0-1.0-4.0,,,,,,,,,,1.0,1.0,,,,605772a89b984daa51fb5692,10:03:34,03/04/2024
,"<div style=""font-size: 10rem; color: #0000FF"">K</div>",,ospan,letter,voTv8fT67rNyLGVlH3q7WshMK9A2,html-keyboard-response,88,578709,0.0-46.0-2.0-1.0-1.0-5.0,,,,,,,,,,,,,,,605772a89b984daa51fb5692,10:03:34,03/04/2024
6100.80000000447,"<div class = numbox><p style=""font-size: 2.4rem"">Please recall the letters you saw to the best of your ability. If you do not remember a particular letter, use the SKIP button.<br><b>(When you are ready to lock in your answer, press ENTER)</b></p><button id = button_1 class = ""square num-button"" onclick = ""recordClick(this)""><div class = content><div class = numbers>C</div></div></button><button id = button_2 class = ""square num-button"" onclick = ""recordClick(this)""><div class = content><div class = numbers>G</div></div></button><button id = button_3 class = ""square num-button"" onclick = ""recordClick(this)""><div class = content><div class = numbers>H</div></div></button><button id = button_4 class = ""square num-button"" onclick = ""recordClick(this)""><div class = content><div class = numbers>J</div></div></button><button id = button_5 class = ""square num-button"" onclick = ""recordClick(this)""><div class = content><div class = numbers>K</div></div></button><button id = button_6 class = ""square num-button"" onclick = ""recordClick(this)""><div class = content><div class = numbers>L</div></div></button><button id = button_7 class = ""square num-button"" onclick = ""recordClick(this)""><div class = content><div class = numbers>N</div></div></button><button id = button_8 class = ""square num-button"" onclick = ""recordClick(this)""><div class = content><div class = numbers>P</div></div></button><button id = button_9 class = ""square num-button"" onclick = ""recordClick(this)""><div class = content><div class = numbers>Q</div></div></button><button id = button_10 class = ""square num-button"" onclick = ""recordClick(this)""><div class = content><div class = numbers>R</div></div></button><button id = button_11 class = ""square num-button"" onclick = ""recordClick(this)""><div class = content><div class = numbers>S</div></div></button><button id = button_12 class = ""square num-button"" onclick = ""recordClick(this)""><div class = content><div class = numbers>Y</div></div></button><button class = clear_button id = ""ClearButton"" onclick = ""clearResponse()"">BACKSPACE</button><button class = blank_button id = ""BlankButton"" onclick = ""blankResponse()"">SKIP</button><p style=""font-size: 2.4rem""><u><b>Current Answer:</b></u></p><br><br><div id=echoed_txt style=""font-size: 5rem; color:blue;""><b></b></div></div>",enter,ospan,retrieval,voTv8fT67rNyLGVlH3q7WshMK9A2,html-keyboard-response,89,585575,0.0-46.0-2.0-1.0-2.0-0.0,NA,NA,NA,3.0,"[""Q"",""L"",""K""]","[""Q"",""L"",""K""]",1.0,3.0,"['<font color=""green"">Q</font>', '<font color=""green"">L</font>', '<font color=""green"">K</font>']",,,,,,605772a89b984daa51fb5692,10:03:34,03/04/2024
917.1999999955297,"['<p style=""font-size:44px"">Letters:<br><br><br><font color=""green"">Q</font> <font color=""green"">L</font> <font color=""green"">K</font></p><br><br><p style=""font-size:30px"">Symmetry:<br><br><font color=""green"">100%</font></p><br><br>']",0,ospan,practice_feedback,voTv8fT67rNyLGVlH3q7WshMK9A2,html-button-response,90,586998,0.0-46.0-2.0-1.0-2.0-1.0,,,,,,,,,,,,,,,605772a89b984daa51fb5692,10:03:34,03/04/2024
,"<p style=""font-size:75px;"">...</p>",,ospan,iti,voTv8fT67rNyLGVlH3q7WshMK9A2,html-keyboard-response,91,588011,0.0-46.0-2.0-2.0-0.0,,,,,,,,,,,,,,,605772a89b984daa51fb5692,10:03:34,03/04/2024
1609.0,,,ospan,symmetry,voTv8fT67rNyLGVlH3q7WshMK9A2,symmetry-judgement-task,92,590643,0.0-46.0-2.0-2.0-1.0-0.0,,,,,,,,,,1.0,1.0,,,,605772a89b984daa51fb5692,10:03:34,03/04/2024
,"<div style=""font-size: 10rem; color: #0000FF"">S</div>",,ospan,letter,voTv8fT67rNyLGVlH3q7WshMK9A2,html-keyboard-response,93,591657,0.0-46.0-2.0-2.0-1.0-1.0,,,,,,,,,,,,,,,605772a89b984daa51fb5692,10:03:34,03/04/2024
1351.0,,,ospan,symmetry,voTv8fT67rNyLGVlH3q7WshMK9A2,symmetry-judgement-task,94,594852,0.0-46.0-2.0-2.0-1.0-2.0,,,,,,,,,,1.0,1.0,,,,605772a89b984daa51fb5692,10:03:34,03/04/2024
,"<div style=""font-size: 10rem; color: #0000FF"">J</div>",,ospan,letter,voTv8fT67rNyLGVlH3q7WshMK9A2,html-keyboard-response,95,595862,0.0-46.0-2.0-2.0-1.0-3.0,,,,,,,,,,,,,,,605772a89b984daa51fb5692,10:03:34,03/04/2024
1008.0,,,ospan,symmetry,voTv8fT67rNyLGVlH3q7WshMK9A2,symmetry-judgement-task,96,598701,0.0-46.0-2.0-2.0-1.0-4.0,,,,,,,,,,1.0,1.0,,,,605772a89b984daa51fb5692,10:03:34,03/04/2024
,"<div style=""font-size: 10rem; color: #0000FF"">N</div>",,ospan,letter,voTv8fT67rNyLGVlH3q7WshMK9A2,html-keyboard-response,97,599714,0.0-46.0-2.0-2.0-1.0-5.0,,,,,,,,,,,,,,,605772a89b984daa51fb5692,10:03:34,03/04/2024
4878.69999999553,"<div class = numbox><p style=""font-size: 2.4rem"">Please recall the letters you saw to the best of your ability. If you do not remember a particular letter, use the SKIP button.<br><b>(When you are ready to lock in your answer, press ENTER)</b></p><button id = button_1 class = ""square num-button"" onclick = ""recordClick(this)""><div class = content><div class = numbers>C</div></div></button><button id = button_2 class = ""square num-button"" onclick = ""recordClick(this)""><div class = content><div class = numbers>G</div></div></button><button id = button_3 class = ""square num-button"" onclick = ""recordClick(this)""><div class = content><div class = numbers>H</div></div></button><button id = button_4 class = ""square num-button"" onclick = ""recordClick(this)""><div class = content><div class = numbers>J</div></div></button><button id = button_5 class = ""square num-button"" onclick = ""recordClick(this)""><div class = content><div class = numbers>K</div></div></button><button id = button_6 class = ""square num-button"" onclick = ""recordClick(this)""><div class = content><div class = numbers>L</div></div></button><button id = button_7 class = ""square num-button"" onclick = ""recordClick(this)""><div class = content><div class = numbers>N</div></div></button><button id = button_8 class = ""square num-button"" onclick = ""recordClick(this)""><div class = content><div class = numbers>P</div></div></button><button id = button_9 class = ""square num-button"" onclick = ""recordClick(this)""><div class = content><div class = numbers>Q</div></div></button><button id = button_10 class = ""square num-button"" onclick = ""recordClick(this)""><div class = content><div class = numbers>R</div></div></button><button id = button_11 class = ""square num-button"" onclick = ""recordClick(this)""><div class = content><div class = numbers>S</div></div></button><button id = button_12 class = ""square num-button"" onclick = ""recordClick(this)""><div class = content><div class = numbers>Y</div></div></button><button class = clear_button id = ""ClearButton"" onclick = ""clearResponse()"">BACKSPACE</button><button class = blank_button id = ""BlankButton"" onclick = ""blankResponse()"">SKIP</button><p style=""font-size: 2.4rem""><u><b>Current Answer:</b></u></p><br><br><div id=echoed_txt style=""font-size: 5rem; color:blue;""><b></b></div></div>",enter,ospan,retrieval,voTv8fT67rNyLGVlH3q7WshMK9A2,html-keyboard-response,98,605358,0.0-46.0-2.0-2.0-2.0-0.0,NA,NA,NA,3.0,"[""S"",""J"",""N""]","[""S"",""J"",""N""]",1.0,3.0,"['<font color=""green"">S</font>', '<font color=""green"">J</font>', '<font color=""green"">N</font>']",,,,,,605772a89b984daa51fb5692,10:03:34,03/04/2024
556.8999999985099,"['<p style=""font-size:44px"">Letters:<br><br><br><font color=""green"">S</font> <font color=""green"">J</font> <font color=""green"">N</font></p><br><br><p style=""font-size:30px"">Symmetry:<br><br><font color=""green"">100%</font></p><br><br>']",0,ospan,practice_feedback,voTv8fT67rNyLGVlH3q7WshMK9A2,html-button-response,99,606420,0.0-46.0-2.0-2.0-2.0-1.0,,,,,,,,,,,,,,,605772a89b984daa51fb5692,10:03:34,03/04/2024
16781.20000000298,"<div class = 'left_align' style='font-size: 3rem; line-height: 1.3;'><b>Great work! That is the end of practice.</b><br><br>The real trials will look just like the practice trials you just completed.<br><br><u>Here, you will not see feedback</u>. First, you will see an grid picture to judge,<br>then a letter to remember. When the recall screen appears, report the letters in the<br>order presented. If you forget a letter, remember to use the <b>blank</b> button to move to the<br>next letter. Some of the sets will have more symmetry grids and letters than others.<br><br>It is important that you do your best on both the symmetry judgments and the letter recall<br>parts of the experiment. For for the symmetry judgments, try to work as <b>quickly</b> and <br>as <b>accurately</b> as possible. Remember to keep your symmetry accuracy at 85% or above.<br><br><b>For the letters, do NOT use any external aid (e.g., writing on paper, electronic device).</b><br><br>It is <u>very important</u> to our experiment to have a <b>true</b> view of your real performance.<br><br>Do not worry if you miss some when it gets hard! This task is meant to be very challenging!<br><br>Click the button to begin.</div><br><br><br><br>",0,ospan,starting_real_here,voTv8fT67rNyLGVlH3q7WshMK9A2,html-button-response,100,623203,0.0-46.0-2.0-3.0,,,,,,,,,,,,,,,605772a89b984daa51fb5692,10:03:34,03/04/2024
,"<p style=""font-size:75px;"">...</p>",,ospan,iti,voTv8fT67rNyLGVlH3q7WshMK9A2,html-keyboard-response,101,624468,0.0-46.0-3.0-0.0-0.0,,,,,,,,,,,,,,,605772a89b984daa51fb5692,10:03:34,03/04/2024
1126.0,,,ospan,symmetry,voTv8fT67rNyLGVlH3q7WshMK9A2,symmetry-judgement-task,102,626633,0.0-46.0-3.0-0.0-1.0-0.0,,,,,,,,,,1.0,1.0,,,,605772a89b984daa51fb5692,10:03:34,03/04/2024
,"<div style=""font-size: 10rem; color: #0000FF"">L</div>",,ospan,letter,voTv8fT67rNyLGVlH3q7WshMK9A2,html-keyboard-response,103,627642,0.0-46.0-3.0-0.0-1.0-1.0,,,,,,,,,,,,,,,605772a89b984daa51fb5692,10:03:34,03/04/2024
842.0,,,ospan,symmetry,voTv8fT67rNyLGVlH3q7WshMK9A2,symmetry-judgement-task,104,630318,0.0-46.0-3.0-0.0-1.0-2.0,,,,,,,,,,1.0,1.0,,,,605772a89b984daa51fb5692,10:03:34,03/04/2024
,"<div style=""font-size: 10rem; color: #0000FF"">P</div>",,ospan,letter,voTv8fT67rNyLGVlH3q7WshMK9A2,html-keyboard-response,105,631333,0.0-46.0-3.0-0.0-1.0-3.0,,,,,,,,,,,,,,,605772a89b984daa51fb5692,10:03:34,03/04/2024
1705.0,,,ospan,symmetry,voTv8fT67rNyLGVlH3q7WshMK9A2,symmetry-judgement-task,106,634867,0.0-46.0-3.0-0.0-1.0-4.0,,,,,,,,,,1.0,1.0,,,,605772a89b984daa51fb5692,10:03:34,03/04/2024
,"<div style=""font-size: 10rem; color: #0000FF"">Q</div>",,ospan,letter,voTv8fT67rNyLGVlH3q7WshMK9A2,html-keyboard-response,107,635882,0.0-46.0-3.0-0.0-1.0-5.0,,,,,,,,,,,,,,,605772a89b984daa51fb5692,10:03:34,03/04/2024
4673.5,"<div class = numbox><p style=""font-size: 2.4rem"">Please recall the letters you saw to the best of your ability. If you do not remember a particular letter, use the SKIP button.<br><b>(When you are ready to lock in your answer, press ENTER)</b></p><button id = button_1 class = ""square num-button"" onclick = ""recordClick(this)""><div class = content><div class = numbers>C</div></div></button><button id = button_2 class = ""square num-button"" onclick = ""recordClick(this)""><div class = content><div class = numbers>G</div></div></button><button id = button_3 class = ""square num-button"" onclick = ""recordClick(this)""><div class = content><div class = numbers>H</div></div></button><button id = button_4 class = ""square num-button"" onclick = ""recordClick(this)""><div class = content><div class = numbers>J</div></div></button><button id = button_5 class = ""square num-button"" onclick = ""recordClick(this)""><div class = content><div class = numbers>K</div></div></button><button id = button_6 class = ""square num-button"" onclick = ""recordClick(this)""><div class = content><div class = numbers>L</div></div></button><button id = button_7 class = ""square num-button"" onclick = ""recordClick(this)""><div class = content><div class = numbers>N</div></div></button><button id = button_8 class = ""square num-button"" onclick = ""recordClick(this)""><div class = content><div class = numbers>P</div></div></button><button id = button_9 class = ""square num-button"" onclick = ""recordClick(this)""><div class = content><div class = numbers>Q</div></div></button><button id = button_10 class = ""square num-button"" onclick = ""recordClick(this)""><div class = content><div class = numbers>R</div></div></button><button id = button_11 class = ""square num-button"" onclick = ""recordClick(this)""><div class = content><div class = numbers>S</div></div></button><button id = button_12 class = ""square num-button"" onclick = ""recordClick(this)""><div class = content><div class = numbers>Y</div></div></button><button class = clear_button id = ""ClearButton"" onclick = ""clearResponse()"">BACKSPACE</button><button class = blank_button id = ""BlankButton"" onclick = ""blankResponse()"">SKIP</button><p style=""font-size: 2.4rem""><u><b>Current Answer:</b></u></p><br><br><div id=echoed_txt style=""font-size: 5rem; color:blue;""><b></b></div></div>",enter,ospan,retrieval,voTv8fT67rNyLGVlH3q7WshMK9A2,html-keyboard-response,108,641319,0.0-46.0-3.0-0.0-2.0,3,3,3,3.0,"[""L"",""P"",""Q""]","[""L"",""P"",""Q""]",1.0,3.0,,,,,,,605772a89b984daa51fb5692,10:03:34,03/04/2024
1172.2000000029802,[''],0,ospan,feedback,voTv8fT67rNyLGVlH3q7WshMK9A2,html-button-response,109,643007,0.0-46.0-3.0-0.0-3.0,,,,,,,,,,,,100.0,0.0,,605772a89b984daa51fb5692,10:03:34,03/04/2024
,"<p style=""font-size:75px;"">...</p>",,ospan,iti,voTv8fT67rNyLGVlH3q7WshMK9A2,html-keyboard-response,110,644010,0.0-46.0-4.0-0.0-0.0,,,,,,,,,,,,,,,605772a89b984daa51fb5692,10:03:34,03/04/2024
2176.0,,,ospan,symmetry,voTv8fT67rNyLGVlH3q7WshMK9A2,symmetry-judgement-task,111,647210,0.0-46.0-4.0-0.0-1.0-0.0,,,,,,,,,,1.0,1.0,,,,605772a89b984daa51fb5692,10:03:34,03/04/2024
,"<div style=""font-size: 10rem; color: #0000FF"">N</div>",,ospan,letter,voTv8fT67rNyLGVlH3q7WshMK9A2,html-keyboard-response,112,648221,0.0-46.0-4.0-0.0-1.0-1.0,,,,,,,,,,,,,,,605772a89b984daa51fb5692,10:03:34,03/04/2024
2498.0,,,ospan,symmetry,voTv8fT67rNyLGVlH3q7WshMK9A2,symmetry-judgement-task,113,652550,0.0-46.0-4.0-0.0-1.0-2.0,,,,,,,,,,1.0,1.0,,,,605772a89b984daa51fb5692,10:03:34,03/04/2024
,"<div style=""font-size: 10rem; color: #0000FF"">K</div>",,ospan,letter,voTv8fT67rNyLGVlH3q7WshMK9A2,html-keyboard-response,114,653560,0.0-46.0-4.0-0.0-1.0-3.0,,,,,,,,,,,,,,,605772a89b984daa51fb5692,10:03:34,03/04/2024
1587.0,,,ospan,symmetry,voTv8fT67rNyLGVlH3q7WshMK9A2,symmetry-judgement-task,115,656980,0.0-46.0-4.0-0.0-1.0-4.0,,,,,,,,,,1.0,1.0,,,,605772a89b984daa51fb5692,10:03:34,03/04/2024
,"<div style=""font-size: 10rem; color: #0000FF"">G</div>",,ospan,letter,voTv8fT67rNyLGVlH3q7WshMK9A2,html-keyboard-response,116,657982,0.0-46.0-4.0-0.0-1.0-5.0,,,,,,,,,,,,,,,605772a89b984daa51fb5692,10:03:34,03/04/2024
1838.0,,,ospan,symmetry,voTv8fT67rNyLGVlH3q7WshMK9A2,symmetry-judgement-task,117,661665,0.0-46.0-4.0-0.0-1.0-6.0,,,,,,,,,,1.0,1.0,,,,605772a89b984daa51fb5692,10:03:34,03/04/2024
,"<div style=""font-size: 10rem; color: #0000FF"">R</div>",,ospan,letter,voTv8fT67rNyLGVlH3q7WshMK9A2,html-keyboard-response,118,662676,0.0-46.0-4.0-0.0-1.0-7.0,,,,,,,,,,,,,,,605772a89b984daa51fb5692,10:03:34,03/04/2024
4127.4000000059605,"<div class = numbox><p style=""font-size: 2.4rem"">Please recall the letters you saw to the best of your ability. If you do not remember a particular letter, use the SKIP button.<br><b>(When you are ready to lock in your answer, press ENTER)</b></p><button id = button_1 class = ""square num-button"" onclick = ""recordClick(this)""><div class = content><div class = numbers>C</div></div></button><button id = button_2 class = ""square num-button"" onclick = ""recordClick(this)""><div class = content><div class = numbers>G</div></div></button><button id = button_3 class = ""square num-button"" onclick = ""recordClick(this)""><div class = content><div class = numbers>H</div></div></button><button id = button_4 class = ""square num-button"" onclick = ""recordClick(this)""><div class = content><div class = numbers>J</div></div></button><button id = button_5 class = ""square num-button"" onclick = ""recordClick(this)""><div class = content><div class = numbers>K</div></div></button><button id = button_6 class = ""square num-button"" onclick = ""recordClick(this)""><div class = content><div class = numbers>L</div></div></button><button id = button_7 class = ""square num-button"" onclick = ""recordClick(this)""><div class = content><div class = numbers>N</div></div></button><button id = button_8 class = ""square num-button"" onclick = ""recordClick(this)""><div class = content><div class = numbers>P</div></div></button><button id = button_9 class = ""square num-button"" onclick = ""recordClick(this)""><div class = content><div class = numbers>Q</div></div></button><button id = button_10 class = ""square num-button"" onclick = ""recordClick(this)""><div class = content><div class = numbers>R</div></div></button><button id = button_11 class = ""square num-button"" onclick = ""recordClick(this)""><div class = content><div class = numbers>S</div></div></button><button id = button_12 class = ""square num-button"" onclick = ""recordClick(this)""><div class = content><div class = numbers>Y</div></div></button><button class = clear_button id = ""ClearButton"" onclick = ""clearResponse()"">BACKSPACE</button><button class = blank_button id = ""BlankButton"" onclick = ""blankResponse()"">SKIP</button><p style=""font-size: 2.4rem""><u><b>Current Answer:</b></u></p><br><br><div id=echoed_txt style=""font-size: 5rem; color:blue;""><b></b></div></div>",enter,ospan,retrieval,voTv8fT67rNyLGVlH3q7WshMK9A2,html-keyboard-response,119,667567,0.0-46.0-4.0-0.0-2.0,7,7,7,4.0,"[""N"",""K"",""G"",""R""]","[""N"",""K"",""G"",""R""]",1.0,4.0,,,,,,,605772a89b984daa51fb5692,10:03:34,03/04/2024
438.0,[''],0,ospan,feedback,voTv8fT67rNyLGVlH3q7WshMK9A2,html-button-response,120,668509,0.0-46.0-4.0-0.0-3.0,,,,,,,,,,,,100.0,0.0,,605772a89b984daa51fb5692,10:03:34,03/04/2024
,"<p style=""font-size:75px;"">...</p>",,ospan,iti,voTv8fT67rNyLGVlH3q7WshMK9A2,html-keyboard-response,121,669524,0.0-46.0-4.0-1.0-0.0,,,,,,,,,,,,,,,605772a89b984daa51fb5692,10:03:34,03/04/2024
1280.0,,,ospan,symmetry,voTv8fT67rNyLGVlH3q7WshMK9A2,symmetry-judgement-task,122,671878,0.0-46.0-4.0-1.0-1.0-0.0,,,,,,,,,,1.0,1.0,,,,605772a89b984daa51fb5692,10:03:34,03/04/2024
,"<div style=""font-size: 10rem; color: #0000FF"">Y</div>",,ospan,letter,voTv8fT67rNyLGVlH3q7WshMK9A2,html-keyboard-response,123,672892,0.0-46.0-4.0-1.0-1.0-1.0,,,,,,,,,,,,,,,605772a89b984daa51fb5692,10:03:34,03/04/2024
1268.0,,,ospan,symmetry,voTv8fT67rNyLGVlH3q7WshMK9A2,symmetry-judgement-task,124,675993,0.0-46.0-4.0-1.0-1.0-2.0,,,,,,,,,,1.0,1.0,,,,605772a89b984daa51fb5692,10:03:34,03/04/2024
,"<div style=""font-size: 10rem; color: #0000FF"">N</div>",,ospan,letter,voTv8fT67rNyLGVlH3q7WshMK9A2,html-keyboard-response,125,677004,0.0-46.0-4.0-1.0-1.0-3.0,,,,,,,,,,,,,,,605772a89b984daa51fb5692,10:03:34,03/04/2024
1079.0,,,ospan,symmetry,voTv8fT67rNyLGVlH3q7WshMK9A2,symmetry-judgement-task,126,679933,0.0-46.0-4.0-1.0-1.0-4.0,,,,,,,,,,1.0,1.0,,,,605772a89b984daa51fb5692,10:03:34,03/04/2024
,"<div style=""font-size: 10rem; color: #0000FF"">P</div>",,ospan,letter,voTv8fT67rNyLGVlH3q7WshMK9A2,html-keyboard-response,127,680936,0.0-46.0-4.0-1.0-1.0-5.0,,,,,,,,,,,,,,,605772a89b984daa51fb5692,10:03:34,03/04/2024
1510.0,,,ospan,symmetry,voTv8fT67rNyLGVlH3q7WshMK9A2,symmetry-judgement-task,128,684274,0.0-46.0-4.0-1.0-1.0-6.0,,,,,,,,,,1.0,1.0,,,,605772a89b984daa51fb5692,10:03:34,03/04/2024
,"<div style=""font-size: 10rem; color: #0000FF"">S</div>",,ospan,letter,voTv8fT67rNyLGVlH3q7WshMK9A2,html-keyboard-response,129,685276,0.0-46.0-4.0-1.0-1.0-7.0,,,,,,,,,,,,,,,605772a89b984daa51fb5692,10:03:34,03/04/2024
949.0,,,ospan,symmetry,voTv8fT67rNyLGVlH3q7WshMK9A2,symmetry-judgement-task,130,688056,0.0-46.0-4.0-1.0-1.0-8.0,,,,,,,,,,1.0,1.0,,,,605772a89b984daa51fb5692,10:03:34,03/04/2024
,"<div style=""font-size: 10rem; color: #0000FF"">Q</div>",,ospan,letter,voTv8fT67rNyLGVlH3q7WshMK9A2,html-keyboard-response,131,689069,0.0-46.0-4.0-1.0-1.0-9.0,,,,,,,,,,,,,,,605772a89b984daa51fb5692,10:03:34,03/04/2024
4816.0,"<div class = numbox><p style=""font-size: 2.4rem"">Please recall the letters you saw to the best of your ability. If you do not remember a particular letter, use the SKIP button.<br><b>(When you are ready to lock in your answer, press ENTER)</b></p><button id = button_1 class = ""square num-button"" onclick = ""recordClick(this)""><div class = content><div class = numbers>C</div></div></button><button id = button_2 class = ""square num-button"" onclick = ""recordClick(this)""><div class = content><div class = numbers>G</div></div></button><button id = button_3 class = ""square num-button"" onclick = ""recordClick(this)""><div class = content><div class = numbers>H</div></div></button><button id = button_4 class = ""square num-button"" onclick = ""recordClick(this)""><div class = content><div class = numbers>J</div></div></button><button id = button_5 class = ""square num-button"" onclick = ""recordClick(this)""><div class = content><div class = numbers>K</div></div></button><button id = button_6 class = ""square num-button"" onclick = ""recordClick(this)""><div class = content><div class = numbers>L</div></div></button><button id = button_7 class = ""square num-button"" onclick = ""recordClick(this)""><div class = content><div class = numbers>N</div></div></button><button id = button_8 class = ""square num-button"" onclick = ""recordClick(this)""><div class = content><div class = numbers>P</div></div></button><button id = button_9 class = ""square num-button"" onclick = ""recordClick(this)""><div class = content><div class = numbers>Q</div></div></button><button id = button_10 class = ""square num-button"" onclick = ""recordClick(this)""><div class = content><div class = numbers>R</div></div></button><button id = button_11 class = ""square num-button"" onclick = ""recordClick(this)""><div class = content><div class = numbers>S</div></div></button><button id = button_12 class = ""square num-button"" onclick = ""recordClick(this)""><div class = content><div class = numbers>Y</div></div></button><button class = clear_button id = ""ClearButton"" onclick = ""clearResponse()"">BACKSPACE</button><button class = blank_button id = ""BlankButton"" onclick = ""blankResponse()"">SKIP</button><p style=""font-size: 2.4rem""><u><b>Current Answer:</b></u></p><br><br><div id=echoed_txt style=""font-size: 5rem; color:blue;""><b></b></div></div>",enter,ospan,retrieval,voTv8fT67rNyLGVlH3q7WshMK9A2,html-keyboard-response,132,694647,0.0-46.0-4.0-1.0-2.0,12,12,12,5.0,"[""Y"",""N"",""P"",""S"",""Q""]","[""Y"",""N"",""P"",""S"",""Q""]",1.0,5.0,,,,,,,605772a89b984daa51fb5692,10:03:34,03/04/2024
415.0,[''],0,ospan,feedback,voTv8fT67rNyLGVlH3q7WshMK9A2,html-button-response,133,695570,0.0-46.0-4.0-1.0-3.0,,,,,,,,,,,,100.0,0.0,,605772a89b984daa51fb5692,10:03:34,03/04/2024
,"<p style=""font-size:75px;"">...</p>",,ospan,iti,voTv8fT67rNyLGVlH3q7WshMK9A2,html-keyboard-response,134,696587,0.0-46.0-4.0-2.0-0.0,,,,,,,,,,,,,,,605772a89b984daa51fb5692,10:03:34,03/04/2024
1708.0,,,ospan,symmetry,voTv8fT67rNyLGVlH3q7WshMK9A2,symmetry-judgement-task,135,699371,0.0-46.0-4.0-2.0-1.0-0.0,,,,,,,,,,1.0,1.0,,,,605772a89b984daa51fb5692,10:03:34,03/04/2024
,"<div style=""font-size: 10rem; color: #0000FF"">G</div>",,ospan,letter,voTv8fT67rNyLGVlH3q7WshMK9A2,html-keyboard-response,136,700385,0.0-46.0-4.0-2.0-1.0-1.0,,,,,,,,,,,,,,,605772a89b984daa51fb5692,10:03:34,03/04/2024
1264.0,,,ospan,symmetry,voTv8fT67rNyLGVlH3q7WshMK9A2,symmetry-judgement-task,137,703485,0.0-46.0-4.0-2.0-1.0-2.0,,,,,,,,,,1.0,1.0,,,,605772a89b984daa51fb5692,10:03:34,03/04/2024
,"<div style=""font-size: 10rem; color: #0000FF"">R</div>",,ospan,letter,voTv8fT67rNyLGVlH3q7WshMK9A2,html-keyboard-response,138,704498,0.0-46.0-4.0-2.0-1.0-3.0,,,,,,,,,,,,,,,605772a89b984daa51fb5692,10:03:34,03/04/2024
1188.0,,,ospan,symmetry,voTv8fT67rNyLGVlH3q7WshMK9A2,symmetry-judgement-task,139,707530,0.0-46.0-4.0-2.0-1.0-4.0,,,,,,,,,,1.0,1.0,,,,605772a89b984daa51fb5692,10:03:34,03/04/2024
,"<div style=""font-size: 10rem; color: #0000FF"">Q</div>",,ospan,letter,voTv8fT67rNyLGVlH3q7WshMK9A2,html-keyboard-response,140,708543,0.0-46.0-4.0-2.0-1.0-5.0,,,,,,,,,,,,,,,605772a89b984daa51fb5692,10:03:34,03/04/2024
4532.0,"<div class = numbox><p style=""font-size: 2.4rem"">Please recall the letters you saw to the best of your ability. If you do not remember a particular letter, use the SKIP button.<br><b>(When you are ready to lock in your answer, press ENTER)</b></p><button id = button_1 class = ""square num-button"" onclick = ""recordClick(this)""><div class = content><div class = numbers>C</div></div></button><button id = button_2 class = ""square num-button"" onclick = ""recordClick(this)""><div class = content><div class = numbers>G</div></div></button><button id = button_3 class = ""square num-button"" onclick = ""recordClick(this)""><div class = content><div class = numbers>H</div></div></button><button id = button_4 class = ""square num-button"" onclick = ""recordClick(this)""><div class = content><div class = numbers>J</div></div></button><button id = button_5 class = ""square num-button"" onclick = ""recordClick(this)""><div class = content><div class = numbers>K</div></div></button><button id = button_6 class = ""square num-button"" onclick = ""recordClick(this)""><div class = content><div class = numbers>L</div></div></button><button id = button_7 class = ""square num-button"" onclick = ""recordClick(this)""><div class = content><div class = numbers>N</div></div></button><button id = button_8 class = ""square num-button"" onclick = ""recordClick(this)""><div class = content><div class = numbers>P</div></div></button><button id = button_9 class = ""square num-button"" onclick = ""recordClick(this)""><div class = content><div class = numbers>Q</div></div></button><button id = button_10 class = ""square num-button"" onclick = ""recordClick(this)""><div class = content><div class = numbers>R</div></div></button><button id = button_11 class = ""square num-button"" onclick = ""recordClick(this)""><div class = content><div class = numbers>S</div></div></button><button id = button_12 class = ""square num-button"" onclick = ""recordClick(this)""><div class = content><div class = numbers>Y</div></div></button><button class = clear_button id = ""ClearButton"" onclick = ""clearResponse()"">BACKSPACE</button><button class = blank_button id = ""BlankButton"" onclick = ""blankResponse()"">SKIP</button><p style=""font-size: 2.4rem""><u><b>Current Answer:</b></u></p><br><br><div id=echoed_txt style=""font-size: 5rem; color:blue;""><b></b></div></div>",enter,ospan,retrieval,voTv8fT67rNyLGVlH3q7WshMK9A2,html-keyboard-response,141,713839,0.0-46.0-4.0-2.0-2.0,15,15,15,3.0,"[""G"",""R"",""Q""]","[""G"",""R"",""Q""]",1.0,3.0,,,,,,,605772a89b984daa51fb5692,10:03:34,03/04/2024
907.6000000014901,[''],0,ospan,feedback,voTv8fT67rNyLGVlH3q7WshMK9A2,html-button-response,142,715248,0.0-46.0-4.0-2.0-3.0,,,,,,,,,,,,100.0,0.0,,605772a89b984daa51fb5692,10:03:34,03/04/2024
,"<p style=""font-size:75px;"">...</p>",,ospan,iti,voTv8fT67rNyLGVlH3q7WshMK9A2,html-keyboard-response,143,716260,0.0-46.0-5.0-0.0-0.0,,,,,,,,,,,,,,,605772a89b984daa51fb5692,10:03:34,03/04/2024
1136.0,,,ospan,symmetry,voTv8fT67rNyLGVlH3q7WshMK9A2,symmetry-judgement-task,144,718426,0.0-46.0-5.0-0.0-1.0-0.0,,,,,,,,,,1.0,1.0,,,,605772a89b984daa51fb5692,10:03:34,03/04/2024
,"<div style=""font-size: 10rem; color: #0000FF"">P</div>",,ospan,letter,voTv8fT67rNyLGVlH3q7WshMK9A2,html-keyboard-response,145,719436,0.0-46.0-5.0-0.0-1.0-1.0,,,,,,,,,,,,,,,605772a89b984daa51fb5692,10:03:34,03/04/2024
1364.0,,,ospan,symmetry,voTv8fT67rNyLGVlH3q7WshMK9A2,symmetry-judgement-task,146,722645,0.0-46.0-5.0-0.0-1.0-2.0,,,,,,,,,,1.0,1.0,,,,605772a89b984daa51fb5692,10:03:34,03/04/2024
,"<div style=""font-size: 10rem; color: #0000FF"">Y</div>",,ospan,letter,voTv8fT67rNyLGVlH3q7WshMK9A2,html-keyboard-response,147,723647,0.0-46.0-5.0-0.0-1.0-3.0,,,,,,,,,,,,,,,605772a89b984daa51fb5692,10:03:34,03/04/2024
995.0,,,ospan,symmetry,voTv8fT67rNyLGVlH3q7WshMK9A2,symmetry-judgement-task,148,726471,0.0-46.0-5.0-0.0-1.0-4.0,,,,,,,,,,1.0,1.0,,,,605772a89b984daa51fb5692,10:03:34,03/04/2024
,"<div style=""font-size: 10rem; color: #0000FF"">J</div>",,ospan,letter,voTv8fT67rNyLGVlH3q7WshMK9A2,html-keyboard-response,149,727481,0.0-46.0-5.0-0.0-1.0-5.0,,,,,,,,,,,,,,,605772a89b984daa51fb5692,10:03:34,03/04/2024
1484.0,,,ospan,symmetry,voTv8fT67rNyLGVlH3q7WshMK9A2,symmetry-judgement-task,150,730749,0.0-46.0-5.0-0.0-1.0-6.0,,,,,,,,,,1.0,1.0,,,,605772a89b984daa51fb5692,10:03:34,03/04/2024
,"<div style=""font-size: 10rem; color: #0000FF"">G</div>",,ospan,letter,voTv8fT67rNyLGVlH3q7WshMK9A2,html-keyboard-response,151,731750,0.0-46.0-5.0-0.0-1.0-7.0,,,,,,,,,,,,,,,605772a89b984daa51fb5692,10:03:34,03/04/2024
2681.0,,,ospan,symmetry,voTv8fT67rNyLGVlH3q7WshMK9A2,symmetry-judgement-task,152,736265,0.0-46.0-5.0-0.0-1.0-8.0,,,,,,,,,,1.0,1.0,,,,605772a89b984daa51fb5692,10:03:34,03/04/2024
,"<div style=""font-size: 10rem; color: #0000FF"">R</div>",,ospan,letter,voTv8fT67rNyLGVlH3q7WshMK9A2,html-keyboard-response,153,737273,0.0-46.0-5.0-0.0-1.0-9.0,,,,,,,,,,,,,,,605772a89b984daa51fb5692,10:03:34,03/04/2024
1544.0,,,ospan,symmetry,voTv8fT67rNyLGVlH3q7WshMK9A2,symmetry-judgement-task,154,740650,0.0-46.0-5.0-0.0-1.0-10.0,,,,,,,,,,1.0,1.0,,,,605772a89b984daa51fb5692,10:03:34,03/04/2024
,"<div style=""font-size: 10rem; color: #0000FF"">N</div>",,ospan,letter,voTv8fT67rNyLGVlH3q7WshMK9A2,html-keyboard-response,155,741652,0.0-46.0-5.0-0.0-1.0-11.0,,,,,,,,,,,,,,,605772a89b984daa51fb5692,10:03:34,03/04/2024
15449.0,"<div class = numbox><p style=""font-size: 2.4rem"">Please recall the letters you saw to the best of your ability. If you do not remember a particular letter, use the SKIP button.<br><b>(When you are ready to lock in your answer, press ENTER)</b></p><button id = button_1 class = ""square num-button"" onclick = ""recordClick(this)""><div class = content><div class = numbers>C</div></div></button><button id = button_2 class = ""square num-button"" onclick = ""recordClick(this)""><div class = content><div class = numbers>G</div></div></button><button id = button_3 class = ""square num-button"" onclick = ""recordClick(this)""><div class = content><div class = numbers>H</div></div></button><button id = button_4 class = ""square num-button"" onclick = ""recordClick(this)""><div class = content><div class = numbers>J</div></div></button><button id = button_5 class = ""square num-button"" onclick = ""recordClick(this)""><div class = content><div class = numbers>K</div></div></button><button id = button_6 class = ""square num-button"" onclick = ""recordClick(this)""><div class = content><div class = numbers>L</div></div></button><button id = button_7 class = ""square num-button"" onclick = ""recordClick(this)""><div class = content><div class = numbers>N</div></div></button><button id = button_8 class = ""square num-button"" onclick = ""recordClick(this)""><div class = content><div class = numbers>P</div></div></button><button id = button_9 class = ""square num-button"" onclick = ""recordClick(this)""><div class = content><div class = numbers>Q</div></div></button><button id = button_10 class = ""square num-button"" onclick = ""recordClick(this)""><div class = content><div class = numbers>R</div></div></button><button id = button_11 class = ""square num-button"" onclick = ""recordClick(this)""><div class = content><div class = numbers>S</div></div></button><button id = button_12 class = ""square num-button"" onclick = ""recordClick(this)""><div class = content><div class = numbers>Y</div></div></button><button class = clear_button id = ""ClearButton"" onclick = ""clearResponse()"">BACKSPACE</button><button class = blank_button id = ""BlankButton"" onclick = ""blankResponse()"">SKIP</button><p style=""font-size: 2.4rem""><u><b>Current Answer:</b></u></p><br><br><div id=echoed_txt style=""font-size: 5rem; color:blue;""><b></b></div></div>",enter,ospan,retrieval,voTv8fT67rNyLGVlH3q7WshMK9A2,html-keyboard-response,156,757863,0.0-46.0-5.0-0.0-2.0,21,20,15,6.0,"[""P"",""Y"",""J"",""G"",""_"",""N""]","[""P"",""Y"",""J"",""G"",""R"",""N""]",0.0,5.0,,,,,,,605772a89b984daa51fb5692,10:03:34,03/04/2024
71103.39999999851,[''],0,ospan,feedback,voTv8fT67rNyLGVlH3q7WshMK9A2,html-button-response,157,829476,0.0-46.0-5.0-0.0-3.0,,,,,,,,,,,,100.0,0.0,,605772a89b984daa51fb5692,10:03:34,03/04/2024
,"<p style=""font-size:75px;"">...</p>",,ospan,iti,voTv8fT67rNyLGVlH3q7WshMK9A2,html-keyboard-response,158,830479,0.0-46.0-5.0-1.0-0.0,,,,,,,,,,,,,,,605772a89b984daa51fb5692,10:03:34,03/04/2024
1683.0,,,ospan,symmetry,voTv8fT67rNyLGVlH3q7WshMK9A2,symmetry-judgement-task,159,833240,0.0-46.0-5.0-1.0-1.0-0.0,,,,,,,,,,1.0,1.0,,,,605772a89b984daa51fb5692,10:03:34,03/04/2024
,"<div style=""font-size: 10rem; color: #0000FF"">G</div>",,ospan,letter,voTv8fT67rNyLGVlH3q7WshMK9A2,html-keyboard-response,160,834252,0.0-46.0-5.0-1.0-1.0-1.0,,,,,,,,,,,,,,,605772a89b984daa51fb5692,10:03:34,03/04/2024
1184.0,,,ospan,symmetry,voTv8fT67rNyLGVlH3q7WshMK9A2,symmetry-judgement-task,161,837271,0.0-46.0-5.0-1.0-1.0-2.0,,,,,,,,,,1.0,1.0,,,,605772a89b984daa51fb5692,10:03:34,03/04/2024
,"<div style=""font-size: 10rem; color: #0000FF"">R</div>",,ospan,letter,voTv8fT67rNyLGVlH3q7WshMK9A2,html-keyboard-response,162,838281,0.0-46.0-5.0-1.0-1.0-3.0,,,,,,,,,,,,,,,605772a89b984daa51fb5692,10:03:34,03/04/2024
1138.0,,,ospan,symmetry,voTv8fT67rNyLGVlH3q7WshMK9A2,symmetry-judgement-task,163,841253,0.0-46.0-5.0-1.0-1.0-4.0,,,,,,,,,,1.0,1.0,,,,605772a89b984daa51fb5692,10:03:34,03/04/2024
,"<div style=""font-size: 10rem; color: #0000FF"">J</div>",,ospan,letter,voTv8fT67rNyLGVlH3q7WshMK9A2,html-keyboard-response,164,842263,0.0-46.0-5.0-1.0-1.0-5.0,,,,,,,,,,,,,,,605772a89b984daa51fb5692,10:03:34,03/04/2024
1224.0,,,ospan,symmetry,voTv8fT67rNyLGVlH3q7WshMK9A2,symmetry-judgement-task,165,845331,0.0-46.0-5.0-1.0-1.0-6.0,,,,,,,,,,1.0,1.0,,,,605772a89b984daa51fb5692,10:03:34,03/04/2024
,"<div style=""font-size: 10rem; color: #0000FF"">N</div>",,ospan,letter,voTv8fT67rNyLGVlH3q7WshMK9A2,html-keyboard-response,166,846344,0.0-46.0-5.0-1.0-1.0-7.0,,,,,,,,,,,,,,,605772a89b984daa51fb5692,10:03:34,03/04/2024
1632.0,,,ospan,symmetry,voTv8fT67rNyLGVlH3q7WshMK9A2,symmetry-judgement-task,167,849821,0.0-46.0-5.0-1.0-1.0-8.0,,,,,,,,,,1.0,1.0,,,,605772a89b984daa51fb5692,10:03:34,03/04/2024
,"<div style=""font-size: 10rem; color: #0000FF"">L</div>",,ospan,letter,voTv8fT67rNyLGVlH3q7WshMK9A2,html-keyboard-response,168,850831,0.0-46.0-5.0-1.0-1.0-9.0,,,,,,,,,,,,,,,605772a89b984daa51fb5692,10:03:34,03/04/2024
1426.0,,,ospan,symmetry,voTv8fT67rNyLGVlH3q7WshMK9A2,symmetry-judgement-task,169,854100,0.0-46.0-5.0-1.0-1.0-10.0,,,,,,,,,,1.0,1.0,,,,605772a89b984daa51fb5692,10:03:34,03/04/2024
,"<div style=""font-size: 10rem; color: #0000FF"">Q</div>",,ospan,letter,voTv8fT67rNyLGVlH3q7WshMK9A2,html-keyboard-response,170,855110,0.0-46.0-5.0-1.0-1.0-11.0,,,,,,,,,,,,,,,605772a89b984daa51fb5692,10:03:34,03/04/2024
2009.0,,,ospan,symmetry,voTv8fT67rNyLGVlH3q7WshMK9A2,symmetry-judgement-task,171,858962,0.0-46.0-5.0-1.0-1.0-12.0,,,,,,,,,,1.0,1.0,,,,605772a89b984daa51fb5692,10:03:34,03/04/2024
,"<div style=""font-size: 10rem; color: #0000FF"">H</div>",,ospan,letter,voTv8fT67rNyLGVlH3q7WshMK9A2,html-keyboard-response,172,859963,0.0-46.0-5.0-1.0-1.0-13.0,,,,,,,,,,,,,,,605772a89b984daa51fb5692,10:03:34,03/04/2024
23082.29999999702,"<div class = numbox><p style=""font-size: 2.4rem"">Please recall the letters you saw to the best of your ability. If you do not remember a particular letter, use the SKIP button.<br><b>(When you are ready to lock in your answer, press ENTER)</b></p><button id = button_1 class = ""square num-button"" onclick = ""recordClick(this)""><div class = content><div class = numbers>C</div></div></button><button id = button_2 class = ""square num-button"" onclick = ""recordClick(this)""><div class = content><div class = numbers>G</div></div></button><button id = button_3 class = ""square num-button"" onclick = ""recordClick(this)""><div class = content><div class = numbers>H</div></div></button><button id = button_4 class = ""square num-button"" onclick = ""recordClick(this)""><div class = content><div class = numbers>J</div></div></button><button id = button_5 class = ""square num-button"" onclick = ""recordClick(this)""><div class = content><div class = numbers>K</div></div></button><button id = button_6 class = ""square num-button"" onclick = ""recordClick(this)""><div class = content><div class = numbers>L</div></div></button><button id = button_7 class = ""square num-button"" onclick = ""recordClick(this)""><div class = content><div class = numbers>N</div></div></button><button id = button_8 class = ""square num-button"" onclick = ""recordClick(this)""><div class = content><div class = numbers>P</div></div></button><button id = button_9 class = ""square num-button"" onclick = ""recordClick(this)""><div class = content><div class = numbers>Q</div></div></button><button id = button_10 class = ""square num-button"" onclick = ""recordClick(this)""><div class = content><div class = numbers>R</div></div></button><button id = button_11 class = ""square num-button"" onclick = ""recordClick(this)""><div class = content><div class = numbers>S</div></div></button><button id = button_12 class = ""square num-button"" onclick = ""recordClick(this)""><div class = content><div class = numbers>Y</div></div></button><button class = clear_button id = ""ClearButton"" onclick = ""clearResponse()"">BACKSPACE</button><button class = blank_button id = ""BlankButton"" onclick = ""blankResponse()"">SKIP</button><p style=""font-size: 2.4rem""><u><b>Current Answer:</b></u></p><br><br><div id=echoed_txt style=""font-size: 5rem; color:blue;""><b></b></div></div>",enter,ospan,retrieval,voTv8fT67rNyLGVlH3q7WshMK9A2,html-keyboard-response,173,883807,0.0-46.0-5.0-1.0-2.0,28,23,15,7.0,"[""G"",""R"",""J"",""_"",""_"",""H""]","[""G"",""R"",""J"",""N"",""L"",""Q"",""H""]",0.0,3.0,,,,,,,605772a89b984daa51fb5692,10:03:34,03/04/2024
730.6999999955297,[''],0,ospan,feedback,voTv8fT67rNyLGVlH3q7WshMK9A2,html-button-response,174,885050,0.0-46.0-5.0-1.0-3.0,,,,,,,,,,,,100.0,0.0,,605772a89b984daa51fb5692,10:03:34,03/04/2024
,"<p style=""font-size:75px;"">...</p>",,ospan,iti,voTv8fT67rNyLGVlH3q7WshMK9A2,html-keyboard-response,175,886063,0.0-46.0-6.0-0.0-0.0,,,,,,,,,,,,,,,605772a89b984daa51fb5692,10:03:34,03/04/2024
1221.0,,,ospan,symmetry,voTv8fT67rNyLGVlH3q7WshMK9A2,symmetry-judgement-task,176,888320,0.0-46.0-6.0-0.0-1.0-0.0,,,,,,,,,,1.0,1.0,,,,605772a89b984daa51fb5692,10:03:34,03/04/2024
,"<div style=""font-size: 10rem; color: #0000FF"">Q</div>",,ospan,letter,voTv8fT67rNyLGVlH3q7WshMK9A2,html-keyboard-response,177,889331,0.0-46.0-6.0-0.0-1.0-1.0,,,,,,,,,,,,,,,605772a89b984daa51fb5692,10:03:34,03/04/2024
1280.0,,,ospan,symmetry,voTv8fT67rNyLGVlH3q7WshMK9A2,symmetry-judgement-task,178,892450,0.0-46.0-6.0-0.0-1.0-2.0,,,,,,,,,,1.0,1.0,,,,605772a89b984daa51fb5692,10:03:34,03/04/2024
,"<div style=""font-size: 10rem; color: #0000FF"">G</div>",,ospan,letter,voTv8fT67rNyLGVlH3q7WshMK9A2,html-keyboard-response,179,893458,0.0-46.0-6.0-0.0-1.0-3.0,,,,,,,,,,,,,,,605772a89b984daa51fb5692,10:03:34,03/04/2024
994.0,,,ospan,symmetry,voTv8fT67rNyLGVlH3q7WshMK9A2,symmetry-judgement-task,180,896284,0.0-46.0-6.0-0.0-1.0-4.0,,,,,,,,,,1.0,1.0,,,,605772a89b984daa51fb5692,10:03:34,03/04/2024
,"<div style=""font-size: 10rem; color: #0000FF"">P</div>",,ospan,letter,voTv8fT67rNyLGVlH3q7WshMK9A2,html-keyboard-response,181,897297,0.0-46.0-6.0-0.0-1.0-5.0,,,,,,,,,,,,,,,605772a89b984daa51fb5692,10:03:34,03/04/2024
2593.0,,,ospan,symmetry,voTv8fT67rNyLGVlH3q7WshMK9A2,symmetry-judgement-task,182,901734,0.0-46.0-6.0-0.0-1.0-6.0,,,,,,,,,,1.0,1.0,,,,605772a89b984daa51fb5692,10:03:34,03/04/2024
,"<div style=""font-size: 10rem; color: #0000FF"">Y</div>",,ospan,letter,voTv8fT67rNyLGVlH3q7WshMK9A2,html-keyboard-response,183,902743,0.0-46.0-6.0-0.0-1.0-7.0,,,,,,,,,,,,,,,605772a89b984daa51fb5692,10:03:34,03/04/2024
816.0,,,ospan,symmetry,voTv8fT67rNyLGVlH3q7WshMK9A2,symmetry-judgement-task,184,905375,0.0-46.0-6.0-0.0-1.0-8.0,,,,,,,,,,1.0,1.0,,,,605772a89b984daa51fb5692,10:03:34,03/04/2024
,"<div style=""font-size: 10rem; color: #0000FF"">N</div>",,ospan,letter,voTv8fT67rNyLGVlH3q7WshMK9A2,html-keyboard-response,185,906385,0.0-46.0-6.0-0.0-1.0-9.0,,,,,,,,,,,,,,,605772a89b984daa51fb5692,10:03:34,03/04/2024
9707.89999999851,"<div class = numbox><p style=""font-size: 2.4rem"">Please recall the letters you saw to the best of your ability. If you do not remember a particular letter, use the SKIP button.<br><b>(When you are ready to lock in your answer, press ENTER)</b></p><button id = button_1 class = ""square num-button"" onclick = ""recordClick(this)""><div class = content><div class = numbers>C</div></div></button><button id = button_2 class = ""square num-button"" onclick = ""recordClick(this)""><div class = content><div class = numbers>G</div></div></button><button id = button_3 class = ""square num-button"" onclick = ""recordClick(this)""><div class = content><div class = numbers>H</div></div></button><button id = button_4 class = ""square num-button"" onclick = ""recordClick(this)""><div class = content><div class = numbers>J</div></div></button><button id = button_5 class = ""square num-button"" onclick = ""recordClick(this)""><div class = content><div class = numbers>K</div></div></button><button id = button_6 class = ""square num-button"" onclick = ""recordClick(this)""><div class = content><div class = numbers>L</div></div></button><button id = button_7 class = ""square num-button"" onclick = ""recordClick(this)""><div class = content><div class = numbers>N</div></div></button><button id = button_8 class = ""square num-button"" onclick = ""recordClick(this)""><div class = content><div class = numbers>P</div></div></button><button id = button_9 class = ""square num-button"" onclick = ""recordClick(this)""><div class = content><div class = numbers>Q</div></div></button><button id = button_10 class = ""square num-button"" onclick = ""recordClick(this)""><div class = content><div class = numbers>R</div></div></button><button id = button_11 class = ""square num-button"" onclick = ""recordClick(this)""><div class = content><div class = numbers>S</div></div></button><button id = button_12 class = ""square num-button"" onclick = ""recordClick(this)""><div class = content><div class = numbers>Y</div></div></button><button class = clear_button id = ""ClearButton"" onclick = ""clearResponse()"">BACKSPACE</button><button class = blank_button id = ""BlankButton"" onclick = ""blankResponse()"">SKIP</button><p style=""font-size: 2.4rem""><u><b>Current Answer:</b></u></p><br><br><div id=echoed_txt style=""font-size: 5rem; color:blue;""><b></b></div></div>",enter,ospan,retrieval,voTv8fT67rNyLGVlH3q7WshMK9A2,html-keyboard-response,186,916854,0.0-46.0-6.0-0.0-2.0,33,28,20,5.0,"[""Q"",""G"",""P"",""Y"",""N""]","[""Q"",""G"",""P"",""Y"",""N""]",1.0,5.0,,,,,,,605772a89b984daa51fb5692,10:03:34,03/04/2024
419.69999999552965,[''],0,ospan,feedback,voTv8fT67rNyLGVlH3q7WshMK9A2,html-button-response,187,917777,0.0-46.0-6.0-0.0-3.0,,,,,,,,,,,,100.0,0.0,,605772a89b984daa51fb5692,10:03:34,03/04/2024
,"<p style=""font-size:75px;"">...</p>",,ospan,iti,voTv8fT67rNyLGVlH3q7WshMK9A2,html-keyboard-response,188,918789,0.0-46.0-6.0-1.0-0.0,,,,,,,,,,,,,,,605772a89b984daa51fb5692,10:03:34,03/04/2024
2077.0,,,ospan,symmetry,voTv8fT67rNyLGVlH3q7WshMK9A2,symmetry-judgement-task,189,921947,0.0-46.0-6.0-1.0-1.0-0.0,,,,,,,,,,1.0,1.0,,,,605772a89b984daa51fb5692,10:03:34,03/04/2024
,"<div style=""font-size: 10rem; color: #0000FF"">J</div>",,ospan,letter,voTv8fT67rNyLGVlH3q7WshMK9A2,html-keyboard-response,190,922956,0.0-46.0-6.0-1.0-1.0-1.0,,,,,,,,,,,,,,,605772a89b984daa51fb5692,10:03:34,03/04/2024
2562.0,,,ospan,symmetry,voTv8fT67rNyLGVlH3q7WshMK9A2,symmetry-judgement-task,191,927342,0.0-46.0-6.0-1.0-1.0-2.0,,,,,,,,,,1.0,1.0,,,,605772a89b984daa51fb5692,10:03:34,03/04/2024
,"<div style=""font-size: 10rem; color: #0000FF"">S</div>",,ospan,letter,voTv8fT67rNyLGVlH3q7WshMK9A2,html-keyboard-response,192,928357,0.0-46.0-6.0-1.0-1.0-3.0,,,,,,,,,,,,,,,605772a89b984daa51fb5692,10:03:34,03/04/2024
1321.0,,,ospan,symmetry,voTv8fT67rNyLGVlH3q7WshMK9A2,symmetry-judgement-task,193,931526,0.0-46.0-6.0-1.0-1.0-4.0,,,,,,,,,,1.0,1.0,,,,605772a89b984daa51fb5692,10:03:34,03/04/2024
,"<div style=""font-size: 10rem; color: #0000FF"">H</div>",,ospan,letter,voTv8fT67rNyLGVlH3q7WshMK9A2,html-keyboard-response,194,932527,0.0-46.0-6.0-1.0-1.0-5.0,,,,,,,,,,,,,,,605772a89b984daa51fb5692,10:03:34,03/04/2024
1087.0,,,ospan,symmetry,voTv8fT67rNyLGVlH3q7WshMK9A2,symmetry-judgement-task,195,935451,0.0-46.0-6.0-1.0-1.0-6.0,,,,,,,,,,1.0,1.0,,,,605772a89b984daa51fb5692,10:03:34,03/04/2024
,"<div style=""font-size: 10rem; color: #0000FF"">Q</div>",,ospan,letter,voTv8fT67rNyLGVlH3q7WshMK9A2,html-keyboard-response,196,936465,0.0-46.0-6.0-1.0-1.0-7.0,,,,,,,,,,,,,,,605772a89b984daa51fb5692,10:03:34,03/04/2024
2576.0,,,ospan,symmetry,voTv8fT67rNyLGVlH3q7WshMK9A2,symmetry-judgement-task,197,940874,0.0-46.0-6.0-1.0-1.0-8.0,,,,,,,,,,1.0,1.0,,,,605772a89b984daa51fb5692,10:03:34,03/04/2024
,"<div style=""font-size: 10rem; color: #0000FF"">C</div>",,ospan,letter,voTv8fT67rNyLGVlH3q7WshMK9A2,html-keyboard-response,198,941886,0.0-46.0-6.0-1.0-1.0-9.0,,,,,,,,,,,,,,,605772a89b984daa51fb5692,10:03:34,03/04/2024
2270.0,,,ospan,symmetry,voTv8fT67rNyLGVlH3q7WshMK9A2,symmetry-judgement-task,199,945997,0.0-46.0-6.0-1.0-1.0-10.0,,,,,,,,,,1.0,1.0,,,,605772a89b984daa51fb5692,10:03:34,03/04/2024
,"<div style=""font-size: 10rem; color: #0000FF"">K</div>",,ospan,letter,voTv8fT67rNyLGVlH3q7WshMK9A2,html-keyboard-response,200,947011,0.0-46.0-6.0-1.0-1.0-11.0,,,,,,,,,,,,,,,605772a89b984daa51fb5692,10:03:34,03/04/2024
1953.0,,,ospan,symmetry,voTv8fT67rNyLGVlH3q7WshMK9A2,symmetry-judgement-task,201,950793,0.0-46.0-6.0-1.0-1.0-12.0,,,,,,,,,,1.0,1.0,,,,605772a89b984daa51fb5692,10:03:34,03/04/2024
,"<div style=""font-size: 10rem; color: #0000FF"">Y</div>",,ospan,letter,voTv8fT67rNyLGVlH3q7WshMK9A2,html-keyboard-response,202,951795,0.0-46.0-6.0-1.0-1.0-13.0,,,,,,,,,,,,,,,605772a89b984daa51fb5692,10:03:34,03/04/2024
1278.0,,,ospan,symmetry,voTv8fT67rNyLGVlH3q7WshMK9A2,symmetry-judgement-task,203,954898,0.0-46.0-6.0-1.0-1.0-14.0,,,,,,,,,,1.0,1.0,,,,605772a89b984daa51fb5692,10:03:34,03/04/2024
,"<div style=""font-size: 10rem; color: #0000FF"">P</div>",,ospan,letter,voTv8fT67rNyLGVlH3q7WshMK9A2,html-keyboard-response,204,955907,0.0-46.0-6.0-1.0-1.0-15.0,,,,,,,,,,,,,,,605772a89b984daa51fb5692,10:03:34,03/04/2024
16921.39999999851,"<div class = numbox><p style=""font-size: 2.4rem"">Please recall the letters you saw to the best of your ability. If you do not remember a particular letter, use the SKIP button.<br><b>(When you are ready to lock in your answer, press ENTER)</b></p><button id = button_1 class = ""square num-button"" onclick = ""recordClick(this)""><div class = content><div class = numbers>C</div></div></button><button id = button_2 class = ""square num-button"" onclick = ""recordClick(this)""><div class = content><div class = numbers>G</div></div></button><button id = button_3 class = ""square num-button"" onclick = ""recordClick(this)""><div class = content><div class = numbers>H</div></div></button><button id = button_4 class = ""square num-button"" onclick = ""recordClick(this)""><div class = content><div class = numbers>J</div></div></button><button id = button_5 class = ""square num-button"" onclick = ""recordClick(this)""><div class = content><div class = numbers>K</div></div></button><button id = button_6 class = ""square num-button"" onclick = ""recordClick(this)""><div class = content><div class = numbers>L</div></div></button><button id = button_7 class = ""square num-button"" onclick = ""recordClick(this)""><div class = content><div class = numbers>N</div></div></button><button id = button_8 class = ""square num-button"" onclick = ""recordClick(this)""><div class = content><div class = numbers>P</div></div></button><button id = button_9 class = ""square num-button"" onclick = ""recordClick(this)""><div class = content><div class = numbers>Q</div></div></button><button id = button_10 class = ""square num-button"" onclick = ""recordClick(this)""><div class = content><div class = numbers>R</div></div></button><button id = button_11 class = ""square num-button"" onclick = ""recordClick(this)""><div class = content><div class = numbers>S</div></div></button><button id = button_12 class = ""square num-button"" onclick = ""recordClick(this)""><div class = content><div class = numbers>Y</div></div></button><button class = clear_button id = ""ClearButton"" onclick = ""clearResponse()"">BACKSPACE</button><button class = blank_button id = ""BlankButton"" onclick = ""blankResponse()"">SKIP</button><p style=""font-size: 2.4rem""><u><b>Current Answer:</b></u></p><br><br><div id=echoed_txt style=""font-size: 5rem; color:blue;""><b></b></div></div>",enter,ospan,retrieval,voTv8fT67rNyLGVlH3q7WshMK9A2,html-keyboard-response,205,973590,0.0-46.0-6.0-1.0-2.0,41,28,20,8.0,"[""Q"",""J"",""S"",""_"",""_"",""_"",""_"",""_""]","[""J"",""S"",""H"",""Q"",""C"",""K"",""Y"",""P""]",0.0,0.0,,,,,,,605772a89b984daa51fb5692,10:03:34,03/04/2024
583.3000000044703,[''],0,ospan,feedback,voTv8fT67rNyLGVlH3q7WshMK9A2,html-button-response,206,974678,0.0-46.0-6.0-1.0-3.0,,,,,,,,,,,,100.0,0.0,,605772a89b984daa51fb5692,10:03:34,03/04/2024
35852.60000000149,,"{'Q0': 'It was hard to remember the longer ones, but it was still enjoyable.'}",ospan,survey_ospan,voTv8fT67rNyLGVlH3q7WshMK9A2,lmdlab-survey-text,207,1011291,0.0-46.0-7.0,,,,,,,,,,,,,,voTv8fT67rNyLGVlH3q7WshMK9A2,605772a89b984daa51fb5692,10:03:34,03/04/2024
1070.1000000014901,<p><p style='font-size: 3rem'>Great work!<br><br>This completes the symmetry and memory task.</p><br><br><br>,0,ospan,finish,voTv8fT67rNyLGVlH3q7WshMK9A2,html-button-response,208,1012364,0.0-46.0-8.0,41,28,20,,,,,,,,,100.0,,,605772a89b984daa51fb5692,10:03:34,03/04/2024
