rt,stimulus,response,exp_name,exp_stage,subjectID,trial_type,trial_index,time_elapsed,internal_node_id,ospan_shown,ospan_total,ospan_abs,length,resp_actual,resp_correct,full_correct,num_correct,feedback,accuracy,correct,math_acc,math_warning,databaseID,prolificID,start_time,date
2617.400000002235,<div class = 'left_align' style='font-size: 3.25rem; line-height: 1.3;'><p class = 'center_align'><b>Welcome to the Symmetry and Memory Task</b><br><br><br><br></p>Press 'continue' to show the instructions.<br><br><br><br></div>,0,ospan,instruct,NIpysGtHjiNGYmR3vKYeNYR9L6t2,html-button-response,51,547784,0.0-43.0-0.0-0.0-0.0,,,,,,,,,,,,,,,65562141ae0a6660324ce572,13:37:25,06/03/2024
6807.60000000149,"<div class = 'left_align' style='font-size: 3.25rem; line-height: 1.3;'><p class = 'center_align'><b>Symmetry and Memory Task</b><br><br></p>In this task, you will try to memorize letters you see on the screen<br>while you also view black and white grid pictures.<br><br>In the next few minutes, you will have some practice to get you familiar<br>with how the task works.<br><br>It may be difficult sometimes, but please do not worry about making mistakes!<br><br>We will begin by practicing the letter part of the task.<br><br><br><br></div>",0,ospan,instruct,NIpysGtHjiNGYmR3vKYeNYR9L6t2,html-button-response,52,554846,0.0-43.0-0.0-0.0-1.0,,,,,,,,,,,,,,,65562141ae0a6660324ce572,13:37:25,06/03/2024
3864.599999997765,"<div class = 'left_align' style='font-size: 3.25rem; line-height: 1.3;'>For this practice part, letters will appear on the screen one at a time.<br><br>Try to remember each letter in the order presented.<br><br>After some letters have been shown, you will see a response screen. Your<br>goal is to report the letters you saw <b>in order</b>. If you do not remember<br>a particular letter, you will have the option to leave it blank.<br><br><br><br></div>",0,ospan,instruct,NIpysGtHjiNGYmR3vKYeNYR9L6t2,html-button-response,53,558964,0.0-43.0-0.0-0.0-2.0,,,,,,,,,,,,,,,65562141ae0a6660324ce572,13:37:25,06/03/2024
1557.699999999255,"<div class = 'left_align' style='font-size: 3.25rem; line-height: 1.3;'>Remember, it is very important to get the letters in the same<br>order as you see them.<br><br>When you are ready, you may begin the letter practice.</div><br><br><br><br>",0,ospan,instruct,NIpysGtHjiNGYmR3vKYeNYR9L6t2,html-button-response,54,560775,0.0-43.0-0.0-0.0-3.0,,,,,,,,,,,,,,,65562141ae0a6660324ce572,13:37:25,06/03/2024
,"<p style=""font-size:75px;"">...</p>",,ospan,iti,NIpysGtHjiNGYmR3vKYeNYR9L6t2,html-keyboard-response,55,562028,0.0-43.0-0.0-1.0-0.0,,,,,,,,,,,,,,,65562141ae0a6660324ce572,13:37:25,06/03/2024
,"<div style=""font-size: 10rem; color: #0000FF"">J</div>",,ospan,letter,NIpysGtHjiNGYmR3vKYeNYR9L6t2,html-keyboard-response,56,563031,0.0-43.0-0.0-1.0-1.0,,,,,,,,,,,,,,,65562141ae0a6660324ce572,13:37:25,06/03/2024
,"<div style=""font-size: 10rem; color: #0000FF"">L</div>",,ospan,letter,NIpysGtHjiNGYmR3vKYeNYR9L6t2,html-keyboard-response,57,564784,0.0-43.0-0.0-1.0-2.0,,,,,,,,,,,,,,,65562141ae0a6660324ce572,13:37:25,06/03/2024
17213.5,"<div class = numbox><p style=""font-size: 2.4rem"">Please recall the letters you saw to the best of your ability. If you do not remember a particular letter, use the SKIP button.<br><b>(When you are ready to lock in your answer, press ENTER)</b></p><button id = button_1 class = ""square num-button"" onclick = ""recordClick(this)""><div class = content><div class = numbers>C</div></div></button><button id = button_2 class = ""square num-button"" onclick = ""recordClick(this)""><div class = content><div class = numbers>G</div></div></button><button id = button_3 class = ""square num-button"" onclick = ""recordClick(this)""><div class = content><div class = numbers>H</div></div></button><button id = button_4 class = ""square num-button"" onclick = ""recordClick(this)""><div class = content><div class = numbers>J</div></div></button><button id = button_5 class = ""square num-button"" onclick = ""recordClick(this)""><div class = content><div class = numbers>K</div></div></button><button id = button_6 class = ""square num-button"" onclick = ""recordClick(this)""><div class = content><div class = numbers>L</div></div></button><button id = button_7 class = ""square num-button"" onclick = ""recordClick(this)""><div class = content><div class = numbers>N</div></div></button><button id = button_8 class = ""square num-button"" onclick = ""recordClick(this)""><div class = content><div class = numbers>P</div></div></button><button id = button_9 class = ""square num-button"" onclick = ""recordClick(this)""><div class = content><div class = numbers>Q</div></div></button><button id = button_10 class = ""square num-button"" onclick = ""recordClick(this)""><div class = content><div class = numbers>R</div></div></button><button id = button_11 class = ""square num-button"" onclick = ""recordClick(this)""><div class = content><div class = numbers>S</div></div></button><button id = button_12 class = ""square num-button"" onclick = ""recordClick(this)""><div class = content><div class = numbers>Y</div></div></button><button class = clear_button id = ""ClearButton"" onclick = ""clearResponse()"">BACKSPACE</button><button class = blank_button id = ""BlankButton"" onclick = ""blankResponse()"">SKIP</button><p style=""font-size: 2.4rem""><u><b>Current Answer:</b></u></p><br><br><div id=echoed_txt style=""font-size: 5rem; color:blue;""><b></b></div></div>",enter,ospan,retrieval,NIpysGtHjiNGYmR3vKYeNYR9L6t2,html-keyboard-response,58,582752,0.0-43.0-0.0-1.0-3.0,NA,NA,NA,2.0,"[""J"",""L"",""J"",""L""]","[""J"",""L""]",1.0,2.0,"['<font color=""green"">J</font>', '<font color=""green"">L</font>']",,,,,,65562141ae0a6660324ce572,13:37:25,06/03/2024
3023.800000000745,"['<p style=""font-size:44px"">Letters:<br><br><br><font color=""green"">J</font> <font color=""green"">L</font></p><br><br>']",0,ospan,practice_feedback,NIpysGtHjiNGYmR3vKYeNYR9L6t2,html-button-response,59,586282,0.0-43.0-0.0-1.0-4.0,,,,,,,,,,,,,,,65562141ae0a6660324ce572,13:37:25,06/03/2024
,"<p style=""font-size:75px;"">...</p>",,ospan,iti,NIpysGtHjiNGYmR3vKYeNYR9L6t2,html-keyboard-response,60,587285,0.0-43.0-0.0-2.0-0.0,,,,,,,,,,,,,,,65562141ae0a6660324ce572,13:37:25,06/03/2024
,"<div style=""font-size: 10rem; color: #0000FF"">R</div>",,ospan,letter,NIpysGtHjiNGYmR3vKYeNYR9L6t2,html-keyboard-response,61,588288,0.0-43.0-0.0-2.0-1.0,,,,,,,,,,,,,,,65562141ae0a6660324ce572,13:37:25,06/03/2024
,"<div style=""font-size: 10rem; color: #0000FF"">N</div>",,ospan,letter,NIpysGtHjiNGYmR3vKYeNYR9L6t2,html-keyboard-response,62,590041,0.0-43.0-0.0-2.0-2.0,,,,,,,,,,,,,,,65562141ae0a6660324ce572,13:37:25,06/03/2024
,"<div style=""font-size: 10rem; color: #0000FF"">J</div>",,ospan,letter,NIpysGtHjiNGYmR3vKYeNYR9L6t2,html-keyboard-response,63,591793,0.0-43.0-0.0-2.0-3.0,,,,,,,,,,,,,,,65562141ae0a6660324ce572,13:37:25,06/03/2024
5582.5,"<div class = numbox><p style=""font-size: 2.4rem"">Please recall the letters you saw to the best of your ability. If you do not remember a particular letter, use the SKIP button.<br><b>(When you are ready to lock in your answer, press ENTER)</b></p><button id = button_1 class = ""square num-button"" onclick = ""recordClick(this)""><div class = content><div class = numbers>C</div></div></button><button id = button_2 class = ""square num-button"" onclick = ""recordClick(this)""><div class = content><div class = numbers>G</div></div></button><button id = button_3 class = ""square num-button"" onclick = ""recordClick(this)""><div class = content><div class = numbers>H</div></div></button><button id = button_4 class = ""square num-button"" onclick = ""recordClick(this)""><div class = content><div class = numbers>J</div></div></button><button id = button_5 class = ""square num-button"" onclick = ""recordClick(this)""><div class = content><div class = numbers>K</div></div></button><button id = button_6 class = ""square num-button"" onclick = ""recordClick(this)""><div class = content><div class = numbers>L</div></div></button><button id = button_7 class = ""square num-button"" onclick = ""recordClick(this)""><div class = content><div class = numbers>N</div></div></button><button id = button_8 class = ""square num-button"" onclick = ""recordClick(this)""><div class = content><div class = numbers>P</div></div></button><button id = button_9 class = ""square num-button"" onclick = ""recordClick(this)""><div class = content><div class = numbers>Q</div></div></button><button id = button_10 class = ""square num-button"" onclick = ""recordClick(this)""><div class = content><div class = numbers>R</div></div></button><button id = button_11 class = ""square num-button"" onclick = ""recordClick(this)""><div class = content><div class = numbers>S</div></div></button><button id = button_12 class = ""square num-button"" onclick = ""recordClick(this)""><div class = content><div class = numbers>Y</div></div></button><button class = clear_button id = ""ClearButton"" onclick = ""clearResponse()"">BACKSPACE</button><button class = blank_button id = ""BlankButton"" onclick = ""blankResponse()"">SKIP</button><p style=""font-size: 2.4rem""><u><b>Current Answer:</b></u></p><br><br><div id=echoed_txt style=""font-size: 5rem; color:blue;""><b></b></div></div>",enter,ospan,retrieval,NIpysGtHjiNGYmR3vKYeNYR9L6t2,html-keyboard-response,64,598129,0.0-43.0-0.0-2.0-4.0,NA,NA,NA,3.0,"[""N"",""J""]","[""R"",""N"",""J""]",0.0,0.0,"['<font color=""red"">R</font>', '<font color=""red"">N</font>', '<font color=""red"">J</font>']",,,,,,65562141ae0a6660324ce572,13:37:25,06/03/2024
2066.300000000745,"['<p style=""font-size:44px"">Letters:<br><br><br><font color=""red"">R</font> <font color=""red"">N</font> <font color=""red"">J</font></p><br><br>']",0,ospan,practice_feedback,NIpysGtHjiNGYmR3vKYeNYR9L6t2,html-button-response,65,600699,0.0-43.0-0.0-2.0-5.0,,,,,,,,,,,,,,,65562141ae0a6660324ce572,13:37:25,06/03/2024
9396.20000000298,"<div class = 'left_align' style='font-size: 3.25rem; line-height: 1.3;'>Now you will practice doing the <b>symmetry judgment part</b> of the experiment.<br><br>A black and white grid picture will appear on the screen and you have to judge if it is <br>symmetrical or asymetrical.<br><br>A picture is 'mirror' symmetrical if its left half is identical to the right half when flipped.<br>Here are examples of a symmetrical and an asymetrical picture:<br><br><center><img src='Stimuli/img/symm_instructions_extra.png' style='height:420px; width:900'></img></center><br>To judge symmetry, imagine you were to fold each picture down the middle, like a book –<br>would the left half match the right half when folded onto each other?<br><br></div><br>",0,ospan,instruct,NIpysGtHjiNGYmR3vKYeNYR9L6t2,html-button-response,66,610098,0.0-43.0-1.0-0.0-0.0,,,,,,,,,,,,,,,65562141ae0a6660324ce572,13:37:25,06/03/2024
4725.900000002235,"<div class = 'left_align' style='font-size: 3.25rem; line-height: 1.3;'>When you have viewed the picture and determined whether it is symmetrical or not,<br>you can <b>click the Yes or No button</b> below to answer.<br><br>If you take longer than 15 seconds, it will continue automatically<br>and record the answer as an error.</div><br>",0,ospan,instruct,NIpysGtHjiNGYmR3vKYeNYR9L6t2,html-button-response,67,615076,0.0-43.0-1.0-0.0-1.0,,,,,,,,,,,,,,,65562141ae0a6660324ce572,13:37:25,06/03/2024
2986.0,"<div class = 'left_align' style='font-size: 3.25rem; line-height: 1.3;'>It is <b>very</b> important that you make the symmetry judgment correctly.<br><br>It is also important that you try and judge the picture as quickly as you can.<br><br>When you are ready, click on the button below to try some practice problems.</div><br><br><br><br>",0,ospan,instruct,NIpysGtHjiNGYmR3vKYeNYR9L6t2,html-button-response,68,618315,0.0-43.0-1.0-0.0-2.0,,,,,,,,,,,,,,,65562141ae0a6660324ce572,13:37:25,06/03/2024
2303.0,,,ospan,symmetry,NIpysGtHjiNGYmR3vKYeNYR9L6t2,symmetry-judgement-task,69,621549,0.0-43.0-1.0-1.0-0.0,,,,,,,,,,1.0,1.0,,,,65562141ae0a6660324ce572,13:37:25,06/03/2024
,"<p style=""color:green; font-size: 35px"">Correct</p>",,ospan,feedback,NIpysGtHjiNGYmR3vKYeNYR9L6t2,html-keyboard-response,70,622302,0.0-43.0-1.0-1.0-1.0,,,,,,,,,,,,,,,65562141ae0a6660324ce572,13:37:25,06/03/2024
1317.0,,,ospan,symmetry,NIpysGtHjiNGYmR3vKYeNYR9L6t2,symmetry-judgement-task,71,626699,0.0-43.0-1.0-1.0-2.0,,,,,,,,,,1.0,1.0,,,,65562141ae0a6660324ce572,13:37:25,06/03/2024
,"<p style=""color:green; font-size: 35px"">Correct</p>",,ospan,feedback,NIpysGtHjiNGYmR3vKYeNYR9L6t2,html-keyboard-response,72,627453,0.0-43.0-1.0-1.0-3.0,,,,,,,,,,,,,,,65562141ae0a6660324ce572,13:37:25,06/03/2024
2160.0,,,ospan,symmetry,NIpysGtHjiNGYmR3vKYeNYR9L6t2,symmetry-judgement-task,73,632691,0.0-43.0-1.0-1.0-4.0,,,,,,,,,,1.0,1.0,,,,65562141ae0a6660324ce572,13:37:25,06/03/2024
,"<p style=""color:green; font-size: 35px"">Correct</p>",,ospan,feedback,NIpysGtHjiNGYmR3vKYeNYR9L6t2,html-keyboard-response,74,633443,0.0-43.0-1.0-1.0-5.0,,,,,,,,,,,,,,,65562141ae0a6660324ce572,13:37:25,06/03/2024
1458.300000000745,"<p style=""font-size: 3rem;"">You responded correctly on 3 of 3 symmetry judgments. Good job!</p><br><br>",0,ospan,practice,NIpysGtHjiNGYmR3vKYeNYR9L6t2,html-button-response,75,636905,0.0-43.0-1.0-2.0,,,,,,,,,,,,,,,65562141ae0a6660324ce572,13:37:25,06/03/2024
2913.300000000745,"<div class = 'left_align' style='font-size: 3.25rem; line-height: 1.3;'>Now you will practice doing both parts of the experiment at the same time.<br><br>In the next practice set, you will be given one grid picture to judge.<br>Then letter will appear on the screen. Try to remember the letter.<br><br>It is <b>very important</b> to make the symmetry judgment as quickly and accurately as possible.<br><br>Just as before, once you have make the symmetry judgment, you can click Yes or No.<br><b>Note that you will no longer see Correct or Incorrect feedback.</div><br><br><br><br>",0,ospan,instruct,NIpysGtHjiNGYmR3vKYeNYR9L6t2,html-button-response,76,640072,0.0-43.0-2.0-0.0-0.0,,,,,,,,,,,,,,,65562141ae0a6660324ce572,13:37:25,06/03/2024
1517.7999999970198,"<div class = 'left_align' style='font-size: 3.25rem; line-height: 1.3;'>After the letter goes away, another grid picture will appear, and then<br>another letter.<br><br>At the end of each set of letters and grids, you will recall the letters to the best<br>of your ability. Remember, try your best to get the letters in the correct order.<br><br>It is important to <b>quickly</b> and <b>accurately</b> make the symmetry judgments.</div><br><br><br><br>",0,ospan,instruct,NIpysGtHjiNGYmR3vKYeNYR9L6t2,html-button-response,77,641842,0.0-43.0-2.0-0.0-1.0,,,,,,,,,,,,,,,65562141ae0a6660324ce572,13:37:25,06/03/2024
9633.099999997765,"<div class = 'left_align' style='font-size: 3.25rem; line-height: 1.3;'>On the feedback screen, if you are not doing well at the symmetry judgments,<br>you will also see a warning in the middle. This indicates your percent <br>correct for the grid pictures for the entire experiment.<br><br>It is <b>very</b> important for you to keep accuracy at least at 85%: <u>We can only use<br>data where the participant was at least 85% accurate on the judgments.</u> Therefore,<br> please try your best to perform well on the symmetry judgments, <b>at the same time</b><br>doing your best to recall as many letters as possible.<br><br>Click the button to try some practice problems.</div><br><br><br><br>",0,ospan,instruct,NIpysGtHjiNGYmR3vKYeNYR9L6t2,html-button-response,78,651729,0.0-43.0-2.0-0.0-2.0,,,,,,,,,,,,,,,65562141ae0a6660324ce572,13:37:25,06/03/2024
,"<p style=""font-size:75px;"">...</p>",,ospan,iti,NIpysGtHjiNGYmR3vKYeNYR9L6t2,html-keyboard-response,79,652983,0.0-43.0-2.0-1.0-0.0,,,,,,,,,,,,,,,65562141ae0a6660324ce572,13:37:25,06/03/2024
1854.0,,,ospan,symmetry,NIpysGtHjiNGYmR3vKYeNYR9L6t2,symmetry-judgement-task,80,656414,0.0-43.0-2.0-1.0-1.0-0.0,,,,,,,,,,1.0,1.0,,,,65562141ae0a6660324ce572,13:37:25,06/03/2024
,"<div style=""font-size: 10rem; color: #0000FF"">Q</div>",,ospan,letter,NIpysGtHjiNGYmR3vKYeNYR9L6t2,html-keyboard-response,81,657417,0.0-43.0-2.0-1.0-1.0-1.0,,,,,,,,,,,,,,,65562141ae0a6660324ce572,13:37:25,06/03/2024
2385.0,,,ospan,symmetry,NIpysGtHjiNGYmR3vKYeNYR9L6t2,symmetry-judgement-task,82,662111,0.0-43.0-2.0-1.0-1.0-2.0,,,,,,,,,,1.0,1.0,,,,65562141ae0a6660324ce572,13:37:25,06/03/2024
,"<div style=""font-size: 10rem; color: #0000FF"">G</div>",,ospan,letter,NIpysGtHjiNGYmR3vKYeNYR9L6t2,html-keyboard-response,83,663114,0.0-43.0-2.0-1.0-1.0-3.0,,,,,,,,,,,,,,,65562141ae0a6660324ce572,13:37:25,06/03/2024
1543.0,,,ospan,symmetry,NIpysGtHjiNGYmR3vKYeNYR9L6t2,symmetry-judgement-task,84,667019,0.0-43.0-2.0-1.0-1.0-4.0,,,,,,,,,,1.0,1.0,,,,65562141ae0a6660324ce572,13:37:25,06/03/2024
,"<div style=""font-size: 10rem; color: #0000FF"">S</div>",,ospan,letter,NIpysGtHjiNGYmR3vKYeNYR9L6t2,html-keyboard-response,85,668022,0.0-43.0-2.0-1.0-1.0-5.0,,,,,,,,,,,,,,,65562141ae0a6660324ce572,13:37:25,06/03/2024
7270.800000000745,"<div class = numbox><p style=""font-size: 2.4rem"">Please recall the letters you saw to the best of your ability. If you do not remember a particular letter, use the SKIP button.<br><b>(When you are ready to lock in your answer, press ENTER)</b></p><button id = button_1 class = ""square num-button"" onclick = ""recordClick(this)""><div class = content><div class = numbers>C</div></div></button><button id = button_2 class = ""square num-button"" onclick = ""recordClick(this)""><div class = content><div class = numbers>G</div></div></button><button id = button_3 class = ""square num-button"" onclick = ""recordClick(this)""><div class = content><div class = numbers>H</div></div></button><button id = button_4 class = ""square num-button"" onclick = ""recordClick(this)""><div class = content><div class = numbers>J</div></div></button><button id = button_5 class = ""square num-button"" onclick = ""recordClick(this)""><div class = content><div class = numbers>K</div></div></button><button id = button_6 class = ""square num-button"" onclick = ""recordClick(this)""><div class = content><div class = numbers>L</div></div></button><button id = button_7 class = ""square num-button"" onclick = ""recordClick(this)""><div class = content><div class = numbers>N</div></div></button><button id = button_8 class = ""square num-button"" onclick = ""recordClick(this)""><div class = content><div class = numbers>P</div></div></button><button id = button_9 class = ""square num-button"" onclick = ""recordClick(this)""><div class = content><div class = numbers>Q</div></div></button><button id = button_10 class = ""square num-button"" onclick = ""recordClick(this)""><div class = content><div class = numbers>R</div></div></button><button id = button_11 class = ""square num-button"" onclick = ""recordClick(this)""><div class = content><div class = numbers>S</div></div></button><button id = button_12 class = ""square num-button"" onclick = ""recordClick(this)""><div class = content><div class = numbers>Y</div></div></button><button class = clear_button id = ""ClearButton"" onclick = ""clearResponse()"">BACKSPACE</button><button class = blank_button id = ""BlankButton"" onclick = ""blankResponse()"">SKIP</button><p style=""font-size: 2.4rem""><u><b>Current Answer:</b></u></p><br><br><div id=echoed_txt style=""font-size: 5rem; color:blue;""><b></b></div></div>",enter,ospan,retrieval,NIpysGtHjiNGYmR3vKYeNYR9L6t2,html-keyboard-response,86,676047,0.0-43.0-2.0-1.0-2.0-0.0,NA,NA,NA,3.0,"[""Q"",""G"",""S""]","[""Q"",""G"",""S""]",1.0,3.0,"['<font color=""green"">Q</font>', '<font color=""green"">G</font>', '<font color=""green"">S</font>']",,,,,,65562141ae0a6660324ce572,13:37:25,06/03/2024
1408.6000000014901,"['<p style=""font-size:44px"">Letters:<br><br><br><font color=""green"">Q</font> <font color=""green"">G</font> <font color=""green"">S</font></p><br><br><p style=""font-size:30px"">Symmetry:<br><br><font color=""green"">100%</font></p><br><br>']",0,ospan,practice_feedback,NIpysGtHjiNGYmR3vKYeNYR9L6t2,html-button-response,87,677958,0.0-43.0-2.0-1.0-2.0-1.0,,,,,,,,,,,,,,,65562141ae0a6660324ce572,13:37:25,06/03/2024
,"<p style=""font-size:75px;"">...</p>",,ospan,iti,NIpysGtHjiNGYmR3vKYeNYR9L6t2,html-keyboard-response,88,678961,0.0-43.0-2.0-2.0-0.0,,,,,,,,,,,,,,,65562141ae0a6660324ce572,13:37:25,06/03/2024
1677.0,,,ospan,symmetry,NIpysGtHjiNGYmR3vKYeNYR9L6t2,symmetry-judgement-task,89,682197,0.0-43.0-2.0-2.0-1.0-0.0,,,,,,,,,,1.0,1.0,,,,65562141ae0a6660324ce572,13:37:25,06/03/2024
,"<div style=""font-size: 10rem; color: #0000FF"">R</div>",,ospan,letter,NIpysGtHjiNGYmR3vKYeNYR9L6t2,html-keyboard-response,90,683198,0.0-43.0-2.0-2.0-1.0-1.0,,,,,,,,,,,,,,,65562141ae0a6660324ce572,13:37:25,06/03/2024
1979.0,,,ospan,symmetry,NIpysGtHjiNGYmR3vKYeNYR9L6t2,symmetry-judgement-task,91,687468,0.0-43.0-2.0-2.0-1.0-2.0,,,,,,,,,,1.0,1.0,,,,65562141ae0a6660324ce572,13:37:25,06/03/2024
,"<div style=""font-size: 10rem; color: #0000FF"">P</div>",,ospan,letter,NIpysGtHjiNGYmR3vKYeNYR9L6t2,html-keyboard-response,92,688470,0.0-43.0-2.0-2.0-1.0-3.0,,,,,,,,,,,,,,,65562141ae0a6660324ce572,13:37:25,06/03/2024
1353.0,,,ospan,symmetry,NIpysGtHjiNGYmR3vKYeNYR9L6t2,symmetry-judgement-task,93,692124,0.0-43.0-2.0-2.0-1.0-4.0,,,,,,,,,,1.0,1.0,,,,65562141ae0a6660324ce572,13:37:25,06/03/2024
,"<div style=""font-size: 10rem; color: #0000FF"">C</div>",,ospan,letter,NIpysGtHjiNGYmR3vKYeNYR9L6t2,html-keyboard-response,94,693126,0.0-43.0-2.0-2.0-1.0-5.0,,,,,,,,,,,,,,,65562141ae0a6660324ce572,13:37:25,06/03/2024
4606.5,"<div class = numbox><p style=""font-size: 2.4rem"">Please recall the letters you saw to the best of your ability. If you do not remember a particular letter, use the SKIP button.<br><b>(When you are ready to lock in your answer, press ENTER)</b></p><button id = button_1 class = ""square num-button"" onclick = ""recordClick(this)""><div class = content><div class = numbers>C</div></div></button><button id = button_2 class = ""square num-button"" onclick = ""recordClick(this)""><div class = content><div class = numbers>G</div></div></button><button id = button_3 class = ""square num-button"" onclick = ""recordClick(this)""><div class = content><div class = numbers>H</div></div></button><button id = button_4 class = ""square num-button"" onclick = ""recordClick(this)""><div class = content><div class = numbers>J</div></div></button><button id = button_5 class = ""square num-button"" onclick = ""recordClick(this)""><div class = content><div class = numbers>K</div></div></button><button id = button_6 class = ""square num-button"" onclick = ""recordClick(this)""><div class = content><div class = numbers>L</div></div></button><button id = button_7 class = ""square num-button"" onclick = ""recordClick(this)""><div class = content><div class = numbers>N</div></div></button><button id = button_8 class = ""square num-button"" onclick = ""recordClick(this)""><div class = content><div class = numbers>P</div></div></button><button id = button_9 class = ""square num-button"" onclick = ""recordClick(this)""><div class = content><div class = numbers>Q</div></div></button><button id = button_10 class = ""square num-button"" onclick = ""recordClick(this)""><div class = content><div class = numbers>R</div></div></button><button id = button_11 class = ""square num-button"" onclick = ""recordClick(this)""><div class = content><div class = numbers>S</div></div></button><button id = button_12 class = ""square num-button"" onclick = ""recordClick(this)""><div class = content><div class = numbers>Y</div></div></button><button class = clear_button id = ""ClearButton"" onclick = ""clearResponse()"">BACKSPACE</button><button class = blank_button id = ""BlankButton"" onclick = ""blankResponse()"">SKIP</button><p style=""font-size: 2.4rem""><u><b>Current Answer:</b></u></p><br><br><div id=echoed_txt style=""font-size: 5rem; color:blue;""><b></b></div></div>",enter,ospan,retrieval,NIpysGtHjiNGYmR3vKYeNYR9L6t2,html-keyboard-response,95,698485,0.0-43.0-2.0-2.0-2.0-0.0,NA,NA,NA,3.0,"[""R"",""P"",""C""]","[""R"",""P"",""C""]",1.0,3.0,"['<font color=""green"">R</font>', '<font color=""green"">P</font>', '<font color=""green"">C</font>']",,,,,,65562141ae0a6660324ce572,13:37:25,06/03/2024
1887.0,"['<p style=""font-size:44px"">Letters:<br><br><br><font color=""green"">R</font> <font color=""green"">P</font> <font color=""green"">C</font></p><br><br><p style=""font-size:30px"">Symmetry:<br><br><font color=""green"">100%</font></p><br><br>']",0,ospan,practice_feedback,NIpysGtHjiNGYmR3vKYeNYR9L6t2,html-button-response,96,700877,0.0-43.0-2.0-2.0-2.0-1.0,,,,,,,,,,,,,,,65562141ae0a6660324ce572,13:37:25,06/03/2024
46702.699999999255,"<div class = 'left_align' style='font-size: 3rem; line-height: 1.3;'><b>Great work! That is the end of practice.</b><br><br>The real trials will look just like the practice trials you just completed.<br><br><u>Here, you will not see feedback</u>. First, you will see an grid picture to judge,<br>then a letter to remember. When the recall screen appears, report the letters in the<br>order presented. If you forget a letter, remember to use the <b>blank</b> button to move to the<br>next letter. Some of the sets will have more symmetry grids and letters than others.<br><br>It is important that you do your best on both the symmetry judgments and the letter recall<br>parts of the experiment. For for the symmetry judgments, try to work as <b>quickly</b> and <br>as <b>accurately</b> as possible. Remember to keep your symmetry accuracy at 85% or above.<br><br><b>For the letters, do NOT use any external aid (e.g., writing on paper, electronic device).</b><br><br>It is <u>very important</u> to our experiment to have a <b>true</b> view of your real performance.<br><br>Do not worry if you miss some when it gets hard! This task is meant to be very challenging!<br><br>Click the button to begin.</div><br><br><br><br>",0,ospan,starting_real_here,NIpysGtHjiNGYmR3vKYeNYR9L6t2,html-button-response,97,747582,0.0-43.0-2.0-3.0,,,,,,,,,,,,,,,65562141ae0a6660324ce572,13:37:25,06/03/2024
,"<p style=""font-size:75px;"">...</p>",,ospan,iti,NIpysGtHjiNGYmR3vKYeNYR9L6t2,html-keyboard-response,98,748836,0.0-43.0-3.0-0.0-0.0,,,,,,,,,,,,,,,65562141ae0a6660324ce572,13:37:25,06/03/2024
1485.0,,,ospan,symmetry,NIpysGtHjiNGYmR3vKYeNYR9L6t2,symmetry-judgement-task,99,751853,0.0-43.0-3.0-0.0-1.0-0.0,,,,,,,,,,1.0,1.0,,,,65562141ae0a6660324ce572,13:37:25,06/03/2024
,"<div style=""font-size: 10rem; color: #0000FF"">L</div>",,ospan,letter,NIpysGtHjiNGYmR3vKYeNYR9L6t2,html-keyboard-response,100,752855,0.0-43.0-3.0-0.0-1.0-1.0,,,,,,,,,,,,,,,65562141ae0a6660324ce572,13:37:25,06/03/2024
1855.0,,,ospan,symmetry,NIpysGtHjiNGYmR3vKYeNYR9L6t2,symmetry-judgement-task,101,757001,0.0-43.0-3.0-0.0-1.0-2.0,,,,,,,,,,1.0,1.0,,,,65562141ae0a6660324ce572,13:37:25,06/03/2024
,"<div style=""font-size: 10rem; color: #0000FF"">Q</div>",,ospan,letter,NIpysGtHjiNGYmR3vKYeNYR9L6t2,html-keyboard-response,102,758004,0.0-43.0-3.0-0.0-1.0-3.0,,,,,,,,,,,,,,,65562141ae0a6660324ce572,13:37:25,06/03/2024
1319.0,,,ospan,symmetry,NIpysGtHjiNGYmR3vKYeNYR9L6t2,symmetry-judgement-task,103,761685,0.0-43.0-3.0-0.0-1.0-4.0,,,,,,,,,,1.0,1.0,,,,65562141ae0a6660324ce572,13:37:25,06/03/2024
,"<div style=""font-size: 10rem; color: #0000FF"">K</div>",,ospan,letter,NIpysGtHjiNGYmR3vKYeNYR9L6t2,html-keyboard-response,104,762688,0.0-43.0-3.0-0.0-1.0-5.0,,,,,,,,,,,,,,,65562141ae0a6660324ce572,13:37:25,06/03/2024
3921.900000002235,"<div class = numbox><p style=""font-size: 2.4rem"">Please recall the letters you saw to the best of your ability. If you do not remember a particular letter, use the SKIP button.<br><b>(When you are ready to lock in your answer, press ENTER)</b></p><button id = button_1 class = ""square num-button"" onclick = ""recordClick(this)""><div class = content><div class = numbers>C</div></div></button><button id = button_2 class = ""square num-button"" onclick = ""recordClick(this)""><div class = content><div class = numbers>G</div></div></button><button id = button_3 class = ""square num-button"" onclick = ""recordClick(this)""><div class = content><div class = numbers>H</div></div></button><button id = button_4 class = ""square num-button"" onclick = ""recordClick(this)""><div class = content><div class = numbers>J</div></div></button><button id = button_5 class = ""square num-button"" onclick = ""recordClick(this)""><div class = content><div class = numbers>K</div></div></button><button id = button_6 class = ""square num-button"" onclick = ""recordClick(this)""><div class = content><div class = numbers>L</div></div></button><button id = button_7 class = ""square num-button"" onclick = ""recordClick(this)""><div class = content><div class = numbers>N</div></div></button><button id = button_8 class = ""square num-button"" onclick = ""recordClick(this)""><div class = content><div class = numbers>P</div></div></button><button id = button_9 class = ""square num-button"" onclick = ""recordClick(this)""><div class = content><div class = numbers>Q</div></div></button><button id = button_10 class = ""square num-button"" onclick = ""recordClick(this)""><div class = content><div class = numbers>R</div></div></button><button id = button_11 class = ""square num-button"" onclick = ""recordClick(this)""><div class = content><div class = numbers>S</div></div></button><button id = button_12 class = ""square num-button"" onclick = ""recordClick(this)""><div class = content><div class = numbers>Y</div></div></button><button class = clear_button id = ""ClearButton"" onclick = ""clearResponse()"">BACKSPACE</button><button class = blank_button id = ""BlankButton"" onclick = ""blankResponse()"">SKIP</button><p style=""font-size: 2.4rem""><u><b>Current Answer:</b></u></p><br><br><div id=echoed_txt style=""font-size: 5rem; color:blue;""><b></b></div></div>",enter,ospan,retrieval,NIpysGtHjiNGYmR3vKYeNYR9L6t2,html-keyboard-response,105,767363,0.0-43.0-3.0-0.0-2.0,3,3,3,3.0,"[""L"",""Q"",""K""]","[""L"",""Q"",""K""]",1.0,3.0,,,,,,,65562141ae0a6660324ce572,13:37:25,06/03/2024
1152.800000000745,[''],0,ospan,feedback,NIpysGtHjiNGYmR3vKYeNYR9L6t2,html-button-response,106,769020,0.0-43.0-3.0-0.0-3.0,,,,,,,,,,,,100.0,0.0,,65562141ae0a6660324ce572,13:37:25,06/03/2024
,"<p style=""font-size:75px;"">...</p>",,ospan,iti,NIpysGtHjiNGYmR3vKYeNYR9L6t2,html-keyboard-response,107,770023,0.0-43.0-4.0-0.0-0.0,,,,,,,,,,,,,,,65562141ae0a6660324ce572,13:37:25,06/03/2024
1790.0,,,ospan,symmetry,NIpysGtHjiNGYmR3vKYeNYR9L6t2,symmetry-judgement-task,108,773359,0.0-43.0-4.0-0.0-1.0-0.0,,,,,,,,,,1.0,1.0,,,,65562141ae0a6660324ce572,13:37:25,06/03/2024
,"<div style=""font-size: 10rem; color: #0000FF"">S</div>",,ospan,letter,NIpysGtHjiNGYmR3vKYeNYR9L6t2,html-keyboard-response,109,774361,0.0-43.0-4.0-0.0-1.0-1.0,,,,,,,,,,,,,,,65562141ae0a6660324ce572,13:37:25,06/03/2024
1313.0,,,ospan,symmetry,NIpysGtHjiNGYmR3vKYeNYR9L6t2,symmetry-judgement-task,110,777921,0.0-43.0-4.0-0.0-1.0-2.0,,,,,,,,,,1.0,1.0,,,,65562141ae0a6660324ce572,13:37:25,06/03/2024
,"<div style=""font-size: 10rem; color: #0000FF"">Q</div>",,ospan,letter,NIpysGtHjiNGYmR3vKYeNYR9L6t2,html-keyboard-response,111,778923,0.0-43.0-4.0-0.0-1.0-3.0,,,,,,,,,,,,,,,65562141ae0a6660324ce572,13:37:25,06/03/2024
2738.0,,,ospan,symmetry,NIpysGtHjiNGYmR3vKYeNYR9L6t2,symmetry-judgement-task,112,783961,0.0-43.0-4.0-0.0-1.0-4.0,,,,,,,,,,1.0,1.0,,,,65562141ae0a6660324ce572,13:37:25,06/03/2024
,"<div style=""font-size: 10rem; color: #0000FF"">J</div>",,ospan,letter,NIpysGtHjiNGYmR3vKYeNYR9L6t2,html-keyboard-response,113,784962,0.0-43.0-4.0-0.0-1.0-5.0,,,,,,,,,,,,,,,65562141ae0a6660324ce572,13:37:25,06/03/2024
1750.0,,,ospan,symmetry,NIpysGtHjiNGYmR3vKYeNYR9L6t2,symmetry-judgement-task,114,788988,0.0-43.0-4.0-0.0-1.0-6.0,,,,,,,,,,1.0,1.0,,,,65562141ae0a6660324ce572,13:37:25,06/03/2024
,"<div style=""font-size: 10rem; color: #0000FF"">R</div>",,ospan,letter,NIpysGtHjiNGYmR3vKYeNYR9L6t2,html-keyboard-response,115,789989,0.0-43.0-4.0-0.0-1.0-7.0,,,,,,,,,,,,,,,65562141ae0a6660324ce572,13:37:25,06/03/2024
5564.699999999255,"<div class = numbox><p style=""font-size: 2.4rem"">Please recall the letters you saw to the best of your ability. If you do not remember a particular letter, use the SKIP button.<br><b>(When you are ready to lock in your answer, press ENTER)</b></p><button id = button_1 class = ""square num-button"" onclick = ""recordClick(this)""><div class = content><div class = numbers>C</div></div></button><button id = button_2 class = ""square num-button"" onclick = ""recordClick(this)""><div class = content><div class = numbers>G</div></div></button><button id = button_3 class = ""square num-button"" onclick = ""recordClick(this)""><div class = content><div class = numbers>H</div></div></button><button id = button_4 class = ""square num-button"" onclick = ""recordClick(this)""><div class = content><div class = numbers>J</div></div></button><button id = button_5 class = ""square num-button"" onclick = ""recordClick(this)""><div class = content><div class = numbers>K</div></div></button><button id = button_6 class = ""square num-button"" onclick = ""recordClick(this)""><div class = content><div class = numbers>L</div></div></button><button id = button_7 class = ""square num-button"" onclick = ""recordClick(this)""><div class = content><div class = numbers>N</div></div></button><button id = button_8 class = ""square num-button"" onclick = ""recordClick(this)""><div class = content><div class = numbers>P</div></div></button><button id = button_9 class = ""square num-button"" onclick = ""recordClick(this)""><div class = content><div class = numbers>Q</div></div></button><button id = button_10 class = ""square num-button"" onclick = ""recordClick(this)""><div class = content><div class = numbers>R</div></div></button><button id = button_11 class = ""square num-button"" onclick = ""recordClick(this)""><div class = content><div class = numbers>S</div></div></button><button id = button_12 class = ""square num-button"" onclick = ""recordClick(this)""><div class = content><div class = numbers>Y</div></div></button><button class = clear_button id = ""ClearButton"" onclick = ""clearResponse()"">BACKSPACE</button><button class = blank_button id = ""BlankButton"" onclick = ""blankResponse()"">SKIP</button><p style=""font-size: 2.4rem""><u><b>Current Answer:</b></u></p><br><br><div id=echoed_txt style=""font-size: 5rem; color:blue;""><b></b></div></div>",enter,ospan,retrieval,NIpysGtHjiNGYmR3vKYeNYR9L6t2,html-keyboard-response,116,796307,0.0-43.0-4.0-0.0-2.0,7,7,7,4.0,"[""S"",""Q"",""J"",""R""]","[""S"",""Q"",""J"",""R""]",1.0,4.0,,,,,,,65562141ae0a6660324ce572,13:37:25,06/03/2024
1336.7999999970198,[''],0,ospan,feedback,NIpysGtHjiNGYmR3vKYeNYR9L6t2,html-button-response,117,798146,0.0-43.0-4.0-0.0-3.0,,,,,,,,,,,,100.0,0.0,,65562141ae0a6660324ce572,13:37:25,06/03/2024
,"<p style=""font-size:75px;"">...</p>",,ospan,iti,NIpysGtHjiNGYmR3vKYeNYR9L6t2,html-keyboard-response,118,799149,0.0-43.0-4.0-1.0-0.0,,,,,,,,,,,,,,,65562141ae0a6660324ce572,13:37:25,06/03/2024
1680.0,,,ospan,symmetry,NIpysGtHjiNGYmR3vKYeNYR9L6t2,symmetry-judgement-task,119,802364,0.0-43.0-4.0-1.0-1.0-0.0,,,,,,,,,,1.0,1.0,,,,65562141ae0a6660324ce572,13:37:25,06/03/2024
,"<div style=""font-size: 10rem; color: #0000FF"">L</div>",,ospan,letter,NIpysGtHjiNGYmR3vKYeNYR9L6t2,html-keyboard-response,120,803366,0.0-43.0-4.0-1.0-1.0-1.0,,,,,,,,,,,,,,,65562141ae0a6660324ce572,13:37:25,06/03/2024
1955.0,,,ospan,symmetry,NIpysGtHjiNGYmR3vKYeNYR9L6t2,symmetry-judgement-task,121,807222,0.0-43.0-4.0-1.0-1.0-2.0,,,,,,,,,,1.0,1.0,,,,65562141ae0a6660324ce572,13:37:25,06/03/2024
,"<div style=""font-size: 10rem; color: #0000FF"">C</div>",,ospan,letter,NIpysGtHjiNGYmR3vKYeNYR9L6t2,html-keyboard-response,122,808225,0.0-43.0-4.0-1.0-1.0-3.0,,,,,,,,,,,,,,,65562141ae0a6660324ce572,13:37:25,06/03/2024
1632.0,,,ospan,symmetry,NIpysGtHjiNGYmR3vKYeNYR9L6t2,symmetry-judgement-task,123,812160,0.0-43.0-4.0-1.0-1.0-4.0,,,,,,,,,,1.0,1.0,,,,65562141ae0a6660324ce572,13:37:25,06/03/2024
,"<div style=""font-size: 10rem; color: #0000FF"">K</div>",,ospan,letter,NIpysGtHjiNGYmR3vKYeNYR9L6t2,html-keyboard-response,124,813162,0.0-43.0-4.0-1.0-1.0-5.0,,,,,,,,,,,,,,,65562141ae0a6660324ce572,13:37:25,06/03/2024
1548.0,,,ospan,symmetry,NIpysGtHjiNGYmR3vKYeNYR9L6t2,symmetry-judgement-task,125,816977,0.0-43.0-4.0-1.0-1.0-6.0,,,,,,,,,,1.0,1.0,,,,65562141ae0a6660324ce572,13:37:25,06/03/2024
,"<div style=""font-size: 10rem; color: #0000FF"">Q</div>",,ospan,letter,NIpysGtHjiNGYmR3vKYeNYR9L6t2,html-keyboard-response,126,817979,0.0-43.0-4.0-1.0-1.0-7.0,,,,,,,,,,,,,,,65562141ae0a6660324ce572,13:37:25,06/03/2024
1477.0,,,ospan,symmetry,NIpysGtHjiNGYmR3vKYeNYR9L6t2,symmetry-judgement-task,127,821752,0.0-43.0-4.0-1.0-1.0-8.0,,,,,,,,,,1.0,1.0,,,,65562141ae0a6660324ce572,13:37:25,06/03/2024
,"<div style=""font-size: 10rem; color: #0000FF"">G</div>",,ospan,letter,NIpysGtHjiNGYmR3vKYeNYR9L6t2,html-keyboard-response,128,822754,0.0-43.0-4.0-1.0-1.0-9.0,,,,,,,,,,,,,,,65562141ae0a6660324ce572,13:37:25,06/03/2024
6693.5,"<div class = numbox><p style=""font-size: 2.4rem"">Please recall the letters you saw to the best of your ability. If you do not remember a particular letter, use the SKIP button.<br><b>(When you are ready to lock in your answer, press ENTER)</b></p><button id = button_1 class = ""square num-button"" onclick = ""recordClick(this)""><div class = content><div class = numbers>C</div></div></button><button id = button_2 class = ""square num-button"" onclick = ""recordClick(this)""><div class = content><div class = numbers>G</div></div></button><button id = button_3 class = ""square num-button"" onclick = ""recordClick(this)""><div class = content><div class = numbers>H</div></div></button><button id = button_4 class = ""square num-button"" onclick = ""recordClick(this)""><div class = content><div class = numbers>J</div></div></button><button id = button_5 class = ""square num-button"" onclick = ""recordClick(this)""><div class = content><div class = numbers>K</div></div></button><button id = button_6 class = ""square num-button"" onclick = ""recordClick(this)""><div class = content><div class = numbers>L</div></div></button><button id = button_7 class = ""square num-button"" onclick = ""recordClick(this)""><div class = content><div class = numbers>N</div></div></button><button id = button_8 class = ""square num-button"" onclick = ""recordClick(this)""><div class = content><div class = numbers>P</div></div></button><button id = button_9 class = ""square num-button"" onclick = ""recordClick(this)""><div class = content><div class = numbers>Q</div></div></button><button id = button_10 class = ""square num-button"" onclick = ""recordClick(this)""><div class = content><div class = numbers>R</div></div></button><button id = button_11 class = ""square num-button"" onclick = ""recordClick(this)""><div class = content><div class = numbers>S</div></div></button><button id = button_12 class = ""square num-button"" onclick = ""recordClick(this)""><div class = content><div class = numbers>Y</div></div></button><button class = clear_button id = ""ClearButton"" onclick = ""clearResponse()"">BACKSPACE</button><button class = blank_button id = ""BlankButton"" onclick = ""blankResponse()"">SKIP</button><p style=""font-size: 2.4rem""><u><b>Current Answer:</b></u></p><br><br><div id=echoed_txt style=""font-size: 5rem; color:blue;""><b></b></div></div>",enter,ospan,retrieval,NIpysGtHjiNGYmR3vKYeNYR9L6t2,html-keyboard-response,129,830201,0.0-43.0-4.0-1.0-2.0,12,12,12,5.0,"[""L"",""C"",""K"",""Q"",""G""]","[""L"",""C"",""K"",""Q"",""G""]",1.0,5.0,,,,,,,65562141ae0a6660324ce572,13:37:25,06/03/2024
18108.89999999851,[''],0,ospan,feedback,NIpysGtHjiNGYmR3vKYeNYR9L6t2,html-button-response,130,848812,0.0-43.0-4.0-1.0-3.0,,,,,,,,,,,,100.0,0.0,,65562141ae0a6660324ce572,13:37:25,06/03/2024
,"<p style=""font-size:75px;"">...</p>",,ospan,iti,NIpysGtHjiNGYmR3vKYeNYR9L6t2,html-keyboard-response,131,849815,0.0-43.0-4.0-2.0-0.0,,,,,,,,,,,,,,,65562141ae0a6660324ce572,13:37:25,06/03/2024
3005.0,,,ospan,symmetry,NIpysGtHjiNGYmR3vKYeNYR9L6t2,symmetry-judgement-task,132,853911,0.0-43.0-4.0-2.0-1.0-0.0,,,,,,,,,,1.0,1.0,,,,65562141ae0a6660324ce572,13:37:25,06/03/2024
,"<div style=""font-size: 10rem; color: #0000FF"">L</div>",,ospan,letter,NIpysGtHjiNGYmR3vKYeNYR9L6t2,html-keyboard-response,133,854915,0.0-43.0-4.0-2.0-1.0-1.0,,,,,,,,,,,,,,,65562141ae0a6660324ce572,13:37:25,06/03/2024
1683.0,,,ospan,symmetry,NIpysGtHjiNGYmR3vKYeNYR9L6t2,symmetry-judgement-task,134,858911,0.0-43.0-4.0-2.0-1.0-2.0,,,,,,,,,,1.0,1.0,,,,65562141ae0a6660324ce572,13:37:25,06/03/2024
,"<div style=""font-size: 10rem; color: #0000FF"">Q</div>",,ospan,letter,NIpysGtHjiNGYmR3vKYeNYR9L6t2,html-keyboard-response,135,859916,0.0-43.0-4.0-2.0-1.0-3.0,,,,,,,,,,,,,,,65562141ae0a6660324ce572,13:37:25,06/03/2024
1662.0,,,ospan,symmetry,NIpysGtHjiNGYmR3vKYeNYR9L6t2,symmetry-judgement-task,136,863869,0.0-43.0-4.0-2.0-1.0-4.0,,,,,,,,,,1.0,1.0,,,,65562141ae0a6660324ce572,13:37:25,06/03/2024
,"<div style=""font-size: 10rem; color: #0000FF"">G</div>",,ospan,letter,NIpysGtHjiNGYmR3vKYeNYR9L6t2,html-keyboard-response,137,864872,0.0-43.0-4.0-2.0-1.0-5.0,,,,,,,,,,,,,,,65562141ae0a6660324ce572,13:37:25,06/03/2024
8616.699999999255,"<div class = numbox><p style=""font-size: 2.4rem"">Please recall the letters you saw to the best of your ability. If you do not remember a particular letter, use the SKIP button.<br><b>(When you are ready to lock in your answer, press ENTER)</b></p><button id = button_1 class = ""square num-button"" onclick = ""recordClick(this)""><div class = content><div class = numbers>C</div></div></button><button id = button_2 class = ""square num-button"" onclick = ""recordClick(this)""><div class = content><div class = numbers>G</div></div></button><button id = button_3 class = ""square num-button"" onclick = ""recordClick(this)""><div class = content><div class = numbers>H</div></div></button><button id = button_4 class = ""square num-button"" onclick = ""recordClick(this)""><div class = content><div class = numbers>J</div></div></button><button id = button_5 class = ""square num-button"" onclick = ""recordClick(this)""><div class = content><div class = numbers>K</div></div></button><button id = button_6 class = ""square num-button"" onclick = ""recordClick(this)""><div class = content><div class = numbers>L</div></div></button><button id = button_7 class = ""square num-button"" onclick = ""recordClick(this)""><div class = content><div class = numbers>N</div></div></button><button id = button_8 class = ""square num-button"" onclick = ""recordClick(this)""><div class = content><div class = numbers>P</div></div></button><button id = button_9 class = ""square num-button"" onclick = ""recordClick(this)""><div class = content><div class = numbers>Q</div></div></button><button id = button_10 class = ""square num-button"" onclick = ""recordClick(this)""><div class = content><div class = numbers>R</div></div></button><button id = button_11 class = ""square num-button"" onclick = ""recordClick(this)""><div class = content><div class = numbers>S</div></div></button><button id = button_12 class = ""square num-button"" onclick = ""recordClick(this)""><div class = content><div class = numbers>Y</div></div></button><button class = clear_button id = ""ClearButton"" onclick = ""clearResponse()"">BACKSPACE</button><button class = blank_button id = ""BlankButton"" onclick = ""blankResponse()"">SKIP</button><p style=""font-size: 2.4rem""><u><b>Current Answer:</b></u></p><br><br><div id=echoed_txt style=""font-size: 5rem; color:blue;""><b></b></div></div>",enter,ospan,retrieval,NIpysGtHjiNGYmR3vKYeNYR9L6t2,html-keyboard-response,138,874243,0.0-43.0-4.0-2.0-2.0,15,15,15,3.0,"[""L"",""Q"",""G""]","[""L"",""Q"",""G""]",1.0,3.0,,,,,,,65562141ae0a6660324ce572,13:37:25,06/03/2024
1852.699999999255,[''],0,ospan,feedback,NIpysGtHjiNGYmR3vKYeNYR9L6t2,html-button-response,139,876599,0.0-43.0-4.0-2.0-3.0,,,,,,,,,,,,100.0,0.0,,65562141ae0a6660324ce572,13:37:25,06/03/2024
,"<p style=""font-size:75px;"">...</p>",,ospan,iti,NIpysGtHjiNGYmR3vKYeNYR9L6t2,html-keyboard-response,140,877602,0.0-43.0-5.0-0.0-0.0,,,,,,,,,,,,,,,65562141ae0a6660324ce572,13:37:25,06/03/2024
1788.0,,,ospan,symmetry,NIpysGtHjiNGYmR3vKYeNYR9L6t2,symmetry-judgement-task,141,880910,0.0-43.0-5.0-0.0-1.0-0.0,,,,,,,,,,1.0,1.0,,,,65562141ae0a6660324ce572,13:37:25,06/03/2024
,"<div style=""font-size: 10rem; color: #0000FF"">J</div>",,ospan,letter,NIpysGtHjiNGYmR3vKYeNYR9L6t2,html-keyboard-response,142,881913,0.0-43.0-5.0-0.0-1.0-1.0,,,,,,,,,,,,,,,65562141ae0a6660324ce572,13:37:25,06/03/2024
1553.0,,,ospan,symmetry,NIpysGtHjiNGYmR3vKYeNYR9L6t2,symmetry-judgement-task,143,885757,0.0-43.0-5.0-0.0-1.0-2.0,,,,,,,,,,1.0,1.0,,,,65562141ae0a6660324ce572,13:37:25,06/03/2024
,"<div style=""font-size: 10rem; color: #0000FF"">R</div>",,ospan,letter,NIpysGtHjiNGYmR3vKYeNYR9L6t2,html-keyboard-response,144,886759,0.0-43.0-5.0-0.0-1.0-3.0,,,,,,,,,,,,,,,65562141ae0a6660324ce572,13:37:25,06/03/2024
1195.0,,,ospan,symmetry,NIpysGtHjiNGYmR3vKYeNYR9L6t2,symmetry-judgement-task,145,890300,0.0-43.0-5.0-0.0-1.0-4.0,,,,,,,,,,1.0,1.0,,,,65562141ae0a6660324ce572,13:37:25,06/03/2024
,"<div style=""font-size: 10rem; color: #0000FF"">Q</div>",,ospan,letter,NIpysGtHjiNGYmR3vKYeNYR9L6t2,html-keyboard-response,146,891303,0.0-43.0-5.0-0.0-1.0-5.0,,,,,,,,,,,,,,,65562141ae0a6660324ce572,13:37:25,06/03/2024
862.0,,,ospan,symmetry,NIpysGtHjiNGYmR3vKYeNYR9L6t2,symmetry-judgement-task,147,894479,0.0-43.0-5.0-0.0-1.0-6.0,,,,,,,,,,1.0,1.0,,,,65562141ae0a6660324ce572,13:37:25,06/03/2024
,"<div style=""font-size: 10rem; color: #0000FF"">H</div>",,ospan,letter,NIpysGtHjiNGYmR3vKYeNYR9L6t2,html-keyboard-response,148,895481,0.0-43.0-5.0-0.0-1.0-7.0,,,,,,,,,,,,,,,65562141ae0a6660324ce572,13:37:25,06/03/2024
965.0,,,ospan,symmetry,NIpysGtHjiNGYmR3vKYeNYR9L6t2,symmetry-judgement-task,149,898728,0.0-43.0-5.0-0.0-1.0-8.0,,,,,,,,,,1.0,1.0,,,,65562141ae0a6660324ce572,13:37:25,06/03/2024
,"<div style=""font-size: 10rem; color: #0000FF"">K</div>",,ospan,letter,NIpysGtHjiNGYmR3vKYeNYR9L6t2,html-keyboard-response,150,899731,0.0-43.0-5.0-0.0-1.0-9.0,,,,,,,,,,,,,,,65562141ae0a6660324ce572,13:37:25,06/03/2024
1781.0,,,ospan,symmetry,NIpysGtHjiNGYmR3vKYeNYR9L6t2,symmetry-judgement-task,151,903838,0.0-43.0-5.0-0.0-1.0-10.0,,,,,,,,,,1.0,1.0,,,,65562141ae0a6660324ce572,13:37:25,06/03/2024
,"<div style=""font-size: 10rem; color: #0000FF"">C</div>",,ospan,letter,NIpysGtHjiNGYmR3vKYeNYR9L6t2,html-keyboard-response,152,904841,0.0-43.0-5.0-0.0-1.0-11.0,,,,,,,,,,,,,,,65562141ae0a6660324ce572,13:37:25,06/03/2024
13154.400000002235,"<div class = numbox><p style=""font-size: 2.4rem"">Please recall the letters you saw to the best of your ability. If you do not remember a particular letter, use the SKIP button.<br><b>(When you are ready to lock in your answer, press ENTER)</b></p><button id = button_1 class = ""square num-button"" onclick = ""recordClick(this)""><div class = content><div class = numbers>C</div></div></button><button id = button_2 class = ""square num-button"" onclick = ""recordClick(this)""><div class = content><div class = numbers>G</div></div></button><button id = button_3 class = ""square num-button"" onclick = ""recordClick(this)""><div class = content><div class = numbers>H</div></div></button><button id = button_4 class = ""square num-button"" onclick = ""recordClick(this)""><div class = content><div class = numbers>J</div></div></button><button id = button_5 class = ""square num-button"" onclick = ""recordClick(this)""><div class = content><div class = numbers>K</div></div></button><button id = button_6 class = ""square num-button"" onclick = ""recordClick(this)""><div class = content><div class = numbers>L</div></div></button><button id = button_7 class = ""square num-button"" onclick = ""recordClick(this)""><div class = content><div class = numbers>N</div></div></button><button id = button_8 class = ""square num-button"" onclick = ""recordClick(this)""><div class = content><div class = numbers>P</div></div></button><button id = button_9 class = ""square num-button"" onclick = ""recordClick(this)""><div class = content><div class = numbers>Q</div></div></button><button id = button_10 class = ""square num-button"" onclick = ""recordClick(this)""><div class = content><div class = numbers>R</div></div></button><button id = button_11 class = ""square num-button"" onclick = ""recordClick(this)""><div class = content><div class = numbers>S</div></div></button><button id = button_12 class = ""square num-button"" onclick = ""recordClick(this)""><div class = content><div class = numbers>Y</div></div></button><button class = clear_button id = ""ClearButton"" onclick = ""clearResponse()"">BACKSPACE</button><button class = blank_button id = ""BlankButton"" onclick = ""blankResponse()"">SKIP</button><p style=""font-size: 2.4rem""><u><b>Current Answer:</b></u></p><br><br><div id=echoed_txt style=""font-size: 5rem; color:blue;""><b></b></div></div>",enter,ospan,retrieval,NIpysGtHjiNGYmR3vKYeNYR9L6t2,html-keyboard-response,153,918748,0.0-43.0-5.0-0.0-2.0,21,20,15,6.0,"[""J"",""R"",""Q"",""H"",""R"",""C""]","[""J"",""R"",""Q"",""H"",""K"",""C""]",0.0,5.0,,,,,,,65562141ae0a6660324ce572,13:37:25,06/03/2024
993.4000000022352,[''],0,ospan,feedback,NIpysGtHjiNGYmR3vKYeNYR9L6t2,html-button-response,154,920243,0.0-43.0-5.0-0.0-3.0,,,,,,,,,,,,100.0,0.0,,65562141ae0a6660324ce572,13:37:25,06/03/2024
,"<p style=""font-size:75px;"">...</p>",,ospan,iti,NIpysGtHjiNGYmR3vKYeNYR9L6t2,html-keyboard-response,155,921247,0.0-43.0-5.0-1.0-0.0,,,,,,,,,,,,,,,65562141ae0a6660324ce572,13:37:25,06/03/2024
1701.0,,,ospan,symmetry,NIpysGtHjiNGYmR3vKYeNYR9L6t2,symmetry-judgement-task,156,924494,0.0-43.0-5.0-1.0-1.0-0.0,,,,,,,,,,1.0,1.0,,,,65562141ae0a6660324ce572,13:37:25,06/03/2024
,"<div style=""font-size: 10rem; color: #0000FF"">Y</div>",,ospan,letter,NIpysGtHjiNGYmR3vKYeNYR9L6t2,html-keyboard-response,157,925498,0.0-43.0-5.0-1.0-1.0-1.0,,,,,,,,,,,,,,,65562141ae0a6660324ce572,13:37:25,06/03/2024
1119.0,,,ospan,symmetry,NIpysGtHjiNGYmR3vKYeNYR9L6t2,symmetry-judgement-task,158,928947,0.0-43.0-5.0-1.0-1.0-2.0,,,,,,,,,,1.0,1.0,,,,65562141ae0a6660324ce572,13:37:25,06/03/2024
,"<div style=""font-size: 10rem; color: #0000FF"">J</div>",,ospan,letter,NIpysGtHjiNGYmR3vKYeNYR9L6t2,html-keyboard-response,159,929950,0.0-43.0-5.0-1.0-1.0-3.0,,,,,,,,,,,,,,,65562141ae0a6660324ce572,13:37:25,06/03/2024
1922.0,,,ospan,symmetry,NIpysGtHjiNGYmR3vKYeNYR9L6t2,symmetry-judgement-task,160,934230,0.0-43.0-5.0-1.0-1.0-4.0,,,,,,,,,,1.0,1.0,,,,65562141ae0a6660324ce572,13:37:25,06/03/2024
,"<div style=""font-size: 10rem; color: #0000FF"">P</div>",,ospan,letter,NIpysGtHjiNGYmR3vKYeNYR9L6t2,html-keyboard-response,161,935233,0.0-43.0-5.0-1.0-1.0-5.0,,,,,,,,,,,,,,,65562141ae0a6660324ce572,13:37:25,06/03/2024
1004.0,,,ospan,symmetry,NIpysGtHjiNGYmR3vKYeNYR9L6t2,symmetry-judgement-task,162,938551,0.0-43.0-5.0-1.0-1.0-6.0,,,,,,,,,,1.0,1.0,,,,65562141ae0a6660324ce572,13:37:25,06/03/2024
,"<div style=""font-size: 10rem; color: #0000FF"">G</div>",,ospan,letter,NIpysGtHjiNGYmR3vKYeNYR9L6t2,html-keyboard-response,163,939553,0.0-43.0-5.0-1.0-1.0-7.0,,,,,,,,,,,,,,,65562141ae0a6660324ce572,13:37:25,06/03/2024
1459.0,,,ospan,symmetry,NIpysGtHjiNGYmR3vKYeNYR9L6t2,symmetry-judgement-task,164,943296,0.0-43.0-5.0-1.0-1.0-8.0,,,,,,,,,,1.0,1.0,,,,65562141ae0a6660324ce572,13:37:25,06/03/2024
,"<div style=""font-size: 10rem; color: #0000FF"">S</div>",,ospan,letter,NIpysGtHjiNGYmR3vKYeNYR9L6t2,html-keyboard-response,165,944299,0.0-43.0-5.0-1.0-1.0-9.0,,,,,,,,,,,,,,,65562141ae0a6660324ce572,13:37:25,06/03/2024
855.0,,,ospan,symmetry,NIpysGtHjiNGYmR3vKYeNYR9L6t2,symmetry-judgement-task,166,947456,0.0-43.0-5.0-1.0-1.0-10.0,,,,,,,,,,1.0,1.0,,,,65562141ae0a6660324ce572,13:37:25,06/03/2024
,"<div style=""font-size: 10rem; color: #0000FF"">C</div>",,ospan,letter,NIpysGtHjiNGYmR3vKYeNYR9L6t2,html-keyboard-response,167,948458,0.0-43.0-5.0-1.0-1.0-11.0,,,,,,,,,,,,,,,65562141ae0a6660324ce572,13:37:25,06/03/2024
854.0,,,ospan,symmetry,NIpysGtHjiNGYmR3vKYeNYR9L6t2,symmetry-judgement-task,168,951604,0.0-43.0-5.0-1.0-1.0-12.0,,,,,,,,,,1.0,1.0,,,,65562141ae0a6660324ce572,13:37:25,06/03/2024
,"<div style=""font-size: 10rem; color: #0000FF"">L</div>",,ospan,letter,NIpysGtHjiNGYmR3vKYeNYR9L6t2,html-keyboard-response,169,952607,0.0-43.0-5.0-1.0-1.0-13.0,,,,,,,,,,,,,,,65562141ae0a6660324ce572,13:37:25,06/03/2024
12883.5,"<div class = numbox><p style=""font-size: 2.4rem"">Please recall the letters you saw to the best of your ability. If you do not remember a particular letter, use the SKIP button.<br><b>(When you are ready to lock in your answer, press ENTER)</b></p><button id = button_1 class = ""square num-button"" onclick = ""recordClick(this)""><div class = content><div class = numbers>C</div></div></button><button id = button_2 class = ""square num-button"" onclick = ""recordClick(this)""><div class = content><div class = numbers>G</div></div></button><button id = button_3 class = ""square num-button"" onclick = ""recordClick(this)""><div class = content><div class = numbers>H</div></div></button><button id = button_4 class = ""square num-button"" onclick = ""recordClick(this)""><div class = content><div class = numbers>J</div></div></button><button id = button_5 class = ""square num-button"" onclick = ""recordClick(this)""><div class = content><div class = numbers>K</div></div></button><button id = button_6 class = ""square num-button"" onclick = ""recordClick(this)""><div class = content><div class = numbers>L</div></div></button><button id = button_7 class = ""square num-button"" onclick = ""recordClick(this)""><div class = content><div class = numbers>N</div></div></button><button id = button_8 class = ""square num-button"" onclick = ""recordClick(this)""><div class = content><div class = numbers>P</div></div></button><button id = button_9 class = ""square num-button"" onclick = ""recordClick(this)""><div class = content><div class = numbers>Q</div></div></button><button id = button_10 class = ""square num-button"" onclick = ""recordClick(this)""><div class = content><div class = numbers>R</div></div></button><button id = button_11 class = ""square num-button"" onclick = ""recordClick(this)""><div class = content><div class = numbers>S</div></div></button><button id = button_12 class = ""square num-button"" onclick = ""recordClick(this)""><div class = content><div class = numbers>Y</div></div></button><button class = clear_button id = ""ClearButton"" onclick = ""clearResponse()"">BACKSPACE</button><button class = blank_button id = ""BlankButton"" onclick = ""blankResponse()"">SKIP</button><p style=""font-size: 2.4rem""><u><b>Current Answer:</b></u></p><br><br><div id=echoed_txt style=""font-size: 5rem; color:blue;""><b></b></div></div>",enter,ospan,retrieval,NIpysGtHjiNGYmR3vKYeNYR9L6t2,html-keyboard-response,170,966245,0.0-43.0-5.0-1.0-2.0,28,25,15,7.0,"[""Y"",""J"",""P"",""G"",""S""]","[""Y"",""J"",""P"",""G"",""S"",""C"",""L""]",0.0,5.0,,,,,,,65562141ae0a6660324ce572,13:37:25,06/03/2024
1727.0999999977648,[''],0,ospan,feedback,NIpysGtHjiNGYmR3vKYeNYR9L6t2,html-button-response,171,968476,0.0-43.0-5.0-1.0-3.0,,,,,,,,,,,,100.0,0.0,,65562141ae0a6660324ce572,13:37:25,06/03/2024
,"<p style=""font-size:75px;"">...</p>",,ospan,iti,NIpysGtHjiNGYmR3vKYeNYR9L6t2,html-keyboard-response,172,969480,0.0-43.0-6.0-0.0-0.0,,,,,,,,,,,,,,,65562141ae0a6660324ce572,13:37:25,06/03/2024
3148.0,,,ospan,symmetry,NIpysGtHjiNGYmR3vKYeNYR9L6t2,symmetry-judgement-task,173,973779,0.0-43.0-6.0-0.0-1.0-0.0,,,,,,,,,,1.0,1.0,,,,65562141ae0a6660324ce572,13:37:25,06/03/2024
,"<div style=""font-size: 10rem; color: #0000FF"">S</div>",,ospan,letter,NIpysGtHjiNGYmR3vKYeNYR9L6t2,html-keyboard-response,174,974782,0.0-43.0-6.0-0.0-1.0-1.0,,,,,,,,,,,,,,,65562141ae0a6660324ce572,13:37:25,06/03/2024
2986.0,,,ospan,symmetry,NIpysGtHjiNGYmR3vKYeNYR9L6t2,symmetry-judgement-task,175,980074,0.0-43.0-6.0-0.0-1.0-2.0,,,,,,,,,,1.0,1.0,,,,65562141ae0a6660324ce572,13:37:25,06/03/2024
,"<div style=""font-size: 10rem; color: #0000FF"">G</div>",,ospan,letter,NIpysGtHjiNGYmR3vKYeNYR9L6t2,html-keyboard-response,176,981077,0.0-43.0-6.0-0.0-1.0-3.0,,,,,,,,,,,,,,,65562141ae0a6660324ce572,13:37:25,06/03/2024
2062.0,,,ospan,symmetry,NIpysGtHjiNGYmR3vKYeNYR9L6t2,symmetry-judgement-task,177,985459,0.0-43.0-6.0-0.0-1.0-4.0,,,,,,,,,,1.0,1.0,,,,65562141ae0a6660324ce572,13:37:25,06/03/2024
,"<div style=""font-size: 10rem; color: #0000FF"">K</div>",,ospan,letter,NIpysGtHjiNGYmR3vKYeNYR9L6t2,html-keyboard-response,178,986461,0.0-43.0-6.0-0.0-1.0-5.0,,,,,,,,,,,,,,,65562141ae0a6660324ce572,13:37:25,06/03/2024
970.0,,,ospan,symmetry,NIpysGtHjiNGYmR3vKYeNYR9L6t2,symmetry-judgement-task,179,989710,0.0-43.0-6.0-0.0-1.0-6.0,,,,,,,,,,1.0,1.0,,,,65562141ae0a6660324ce572,13:37:25,06/03/2024
,"<div style=""font-size: 10rem; color: #0000FF"">J</div>",,ospan,letter,NIpysGtHjiNGYmR3vKYeNYR9L6t2,html-keyboard-response,180,990713,0.0-43.0-6.0-0.0-1.0-7.0,,,,,,,,,,,,,,,65562141ae0a6660324ce572,13:37:25,06/03/2024
1589.0,,,ospan,symmetry,NIpysGtHjiNGYmR3vKYeNYR9L6t2,symmetry-judgement-task,181,994627,0.0-43.0-6.0-0.0-1.0-8.0,,,,,,,,,,1.0,1.0,,,,65562141ae0a6660324ce572,13:37:25,06/03/2024
,"<div style=""font-size: 10rem; color: #0000FF"">C</div>",,ospan,letter,NIpysGtHjiNGYmR3vKYeNYR9L6t2,html-keyboard-response,182,995630,0.0-43.0-6.0-0.0-1.0-9.0,,,,,,,,,,,,,,,65562141ae0a6660324ce572,13:37:25,06/03/2024
9848.89999999851,"<div class = numbox><p style=""font-size: 2.4rem"">Please recall the letters you saw to the best of your ability. If you do not remember a particular letter, use the SKIP button.<br><b>(When you are ready to lock in your answer, press ENTER)</b></p><button id = button_1 class = ""square num-button"" onclick = ""recordClick(this)""><div class = content><div class = numbers>C</div></div></button><button id = button_2 class = ""square num-button"" onclick = ""recordClick(this)""><div class = content><div class = numbers>G</div></div></button><button id = button_3 class = ""square num-button"" onclick = ""recordClick(this)""><div class = content><div class = numbers>H</div></div></button><button id = button_4 class = ""square num-button"" onclick = ""recordClick(this)""><div class = content><div class = numbers>J</div></div></button><button id = button_5 class = ""square num-button"" onclick = ""recordClick(this)""><div class = content><div class = numbers>K</div></div></button><button id = button_6 class = ""square num-button"" onclick = ""recordClick(this)""><div class = content><div class = numbers>L</div></div></button><button id = button_7 class = ""square num-button"" onclick = ""recordClick(this)""><div class = content><div class = numbers>N</div></div></button><button id = button_8 class = ""square num-button"" onclick = ""recordClick(this)""><div class = content><div class = numbers>P</div></div></button><button id = button_9 class = ""square num-button"" onclick = ""recordClick(this)""><div class = content><div class = numbers>Q</div></div></button><button id = button_10 class = ""square num-button"" onclick = ""recordClick(this)""><div class = content><div class = numbers>R</div></div></button><button id = button_11 class = ""square num-button"" onclick = ""recordClick(this)""><div class = content><div class = numbers>S</div></div></button><button id = button_12 class = ""square num-button"" onclick = ""recordClick(this)""><div class = content><div class = numbers>Y</div></div></button><button class = clear_button id = ""ClearButton"" onclick = ""clearResponse()"">BACKSPACE</button><button class = blank_button id = ""BlankButton"" onclick = ""blankResponse()"">SKIP</button><p style=""font-size: 2.4rem""><u><b>Current Answer:</b></u></p><br><br><div id=echoed_txt style=""font-size: 5rem; color:blue;""><b></b></div></div>",enter,ospan,retrieval,NIpysGtHjiNGYmR3vKYeNYR9L6t2,html-keyboard-response,183,1006233,0.0-43.0-6.0-0.0-2.0,33,30,20,5.0,"[""S"",""G"",""K"",""J"",""C""]","[""S"",""G"",""K"",""J"",""C""]",1.0,5.0,,,,,,,65562141ae0a6660324ce572,13:37:25,06/03/2024
1965.800000000745,[''],0,ospan,feedback,NIpysGtHjiNGYmR3vKYeNYR9L6t2,html-button-response,184,1008703,0.0-43.0-6.0-0.0-3.0,,,,,,,,,,,,100.0,0.0,,65562141ae0a6660324ce572,13:37:25,06/03/2024
,"<p style=""font-size:75px;"">...</p>",,ospan,iti,NIpysGtHjiNGYmR3vKYeNYR9L6t2,html-keyboard-response,185,1009706,0.0-43.0-6.0-1.0-0.0,,,,,,,,,,,,,,,65562141ae0a6660324ce572,13:37:25,06/03/2024
1833.0,,,ospan,symmetry,NIpysGtHjiNGYmR3vKYeNYR9L6t2,symmetry-judgement-task,186,1012630,0.0-43.0-6.0-1.0-1.0-0.0,,,,,,,,,,1.0,1.0,,,,65562141ae0a6660324ce572,13:37:25,06/03/2024
,"<div style=""font-size: 10rem; color: #0000FF"">L</div>",,ospan,letter,NIpysGtHjiNGYmR3vKYeNYR9L6t2,html-keyboard-response,187,1013633,0.0-43.0-6.0-1.0-1.0-1.0,,,,,,,,,,,,,,,65562141ae0a6660324ce572,13:37:25,06/03/2024
1709.0,,,ospan,symmetry,NIpysGtHjiNGYmR3vKYeNYR9L6t2,symmetry-judgement-task,188,1017707,0.0-43.0-6.0-1.0-1.0-2.0,,,,,,,,,,1.0,1.0,,,,65562141ae0a6660324ce572,13:37:25,06/03/2024
,"<div style=""font-size: 10rem; color: #0000FF"">R</div>",,ospan,letter,NIpysGtHjiNGYmR3vKYeNYR9L6t2,html-keyboard-response,189,1018710,0.0-43.0-6.0-1.0-1.0-3.0,,,,,,,,,,,,,,,65562141ae0a6660324ce572,13:37:25,06/03/2024
1145.0,,,ospan,symmetry,NIpysGtHjiNGYmR3vKYeNYR9L6t2,symmetry-judgement-task,190,1022191,0.0-43.0-6.0-1.0-1.0-4.0,,,,,,,,,,1.0,1.0,,,,65562141ae0a6660324ce572,13:37:25,06/03/2024
,"<div style=""font-size: 10rem; color: #0000FF"">P</div>",,ospan,letter,NIpysGtHjiNGYmR3vKYeNYR9L6t2,html-keyboard-response,191,1023193,0.0-43.0-6.0-1.0-1.0-5.0,,,,,,,,,,,,,,,65562141ae0a6660324ce572,13:37:25,06/03/2024
1775.0,,,ospan,symmetry,NIpysGtHjiNGYmR3vKYeNYR9L6t2,symmetry-judgement-task,192,1027292,0.0-43.0-6.0-1.0-1.0-6.0,,,,,,,,,,1.0,1.0,,,,65562141ae0a6660324ce572,13:37:25,06/03/2024
,"<div style=""font-size: 10rem; color: #0000FF"">S</div>",,ospan,letter,NIpysGtHjiNGYmR3vKYeNYR9L6t2,html-keyboard-response,193,1028294,0.0-43.0-6.0-1.0-1.0-7.0,,,,,,,,,,,,,,,65562141ae0a6660324ce572,13:37:25,06/03/2024
1991.0,,,ospan,symmetry,NIpysGtHjiNGYmR3vKYeNYR9L6t2,symmetry-judgement-task,194,1032573,0.0-43.0-6.0-1.0-1.0-8.0,,,,,,,,,,1.0,1.0,,,,65562141ae0a6660324ce572,13:37:25,06/03/2024
,"<div style=""font-size: 10rem; color: #0000FF"">Q</div>",,ospan,letter,NIpysGtHjiNGYmR3vKYeNYR9L6t2,html-keyboard-response,195,1033575,0.0-43.0-6.0-1.0-1.0-9.0,,,,,,,,,,,,,,,65562141ae0a6660324ce572,13:37:25,06/03/2024
1475.0,,,ospan,symmetry,NIpysGtHjiNGYmR3vKYeNYR9L6t2,symmetry-judgement-task,196,1037339,0.0-43.0-6.0-1.0-1.0-10.0,,,,,,,,,,1.0,1.0,,,,65562141ae0a6660324ce572,13:37:25,06/03/2024
,"<div style=""font-size: 10rem; color: #0000FF"">H</div>",,ospan,letter,NIpysGtHjiNGYmR3vKYeNYR9L6t2,html-keyboard-response,197,1038341,0.0-43.0-6.0-1.0-1.0-11.0,,,,,,,,,,,,,,,65562141ae0a6660324ce572,13:37:25,06/03/2024
944.0,,,ospan,symmetry,NIpysGtHjiNGYmR3vKYeNYR9L6t2,symmetry-judgement-task,198,1041630,0.0-43.0-6.0-1.0-1.0-12.0,,,,,,,,,,1.0,1.0,,,,65562141ae0a6660324ce572,13:37:25,06/03/2024
,"<div style=""font-size: 10rem; color: #0000FF"">K</div>",,ospan,letter,NIpysGtHjiNGYmR3vKYeNYR9L6t2,html-keyboard-response,199,1042633,0.0-43.0-6.0-1.0-1.0-13.0,,,,,,,,,,,,,,,65562141ae0a6660324ce572,13:37:25,06/03/2024
1728.0,,,ospan,symmetry,NIpysGtHjiNGYmR3vKYeNYR9L6t2,symmetry-judgement-task,200,1046651,0.0-43.0-6.0-1.0-1.0-14.0,,,,,,,,,,1.0,1.0,,,,65562141ae0a6660324ce572,13:37:25,06/03/2024
,"<div style=""font-size: 10rem; color: #0000FF"">J</div>",,ospan,letter,NIpysGtHjiNGYmR3vKYeNYR9L6t2,html-keyboard-response,201,1047653,0.0-43.0-6.0-1.0-1.0-15.0,,,,,,,,,,,,,,,65562141ae0a6660324ce572,13:37:25,06/03/2024
13300.5,"<div class = numbox><p style=""font-size: 2.4rem"">Please recall the letters you saw to the best of your ability. If you do not remember a particular letter, use the SKIP button.<br><b>(When you are ready to lock in your answer, press ENTER)</b></p><button id = button_1 class = ""square num-button"" onclick = ""recordClick(this)""><div class = content><div class = numbers>C</div></div></button><button id = button_2 class = ""square num-button"" onclick = ""recordClick(this)""><div class = content><div class = numbers>G</div></div></button><button id = button_3 class = ""square num-button"" onclick = ""recordClick(this)""><div class = content><div class = numbers>H</div></div></button><button id = button_4 class = ""square num-button"" onclick = ""recordClick(this)""><div class = content><div class = numbers>J</div></div></button><button id = button_5 class = ""square num-button"" onclick = ""recordClick(this)""><div class = content><div class = numbers>K</div></div></button><button id = button_6 class = ""square num-button"" onclick = ""recordClick(this)""><div class = content><div class = numbers>L</div></div></button><button id = button_7 class = ""square num-button"" onclick = ""recordClick(this)""><div class = content><div class = numbers>N</div></div></button><button id = button_8 class = ""square num-button"" onclick = ""recordClick(this)""><div class = content><div class = numbers>P</div></div></button><button id = button_9 class = ""square num-button"" onclick = ""recordClick(this)""><div class = content><div class = numbers>Q</div></div></button><button id = button_10 class = ""square num-button"" onclick = ""recordClick(this)""><div class = content><div class = numbers>R</div></div></button><button id = button_11 class = ""square num-button"" onclick = ""recordClick(this)""><div class = content><div class = numbers>S</div></div></button><button id = button_12 class = ""square num-button"" onclick = ""recordClick(this)""><div class = content><div class = numbers>Y</div></div></button><button class = clear_button id = ""ClearButton"" onclick = ""clearResponse()"">BACKSPACE</button><button class = blank_button id = ""BlankButton"" onclick = ""blankResponse()"">SKIP</button><p style=""font-size: 2.4rem""><u><b>Current Answer:</b></u></p><br><br><div id=echoed_txt style=""font-size: 5rem; color:blue;""><b></b></div></div>",enter,ospan,retrieval,NIpysGtHjiNGYmR3vKYeNYR9L6t2,html-keyboard-response,202,1061707,0.0-43.0-6.0-1.0-2.0,41,35,20,8.0,"[""L"",""R"",""P"",""S"",""_"",""_"",""_"",""J""]","[""L"",""R"",""P"",""S"",""Q"",""H"",""K"",""J""]",0.0,5.0,,,,,,,65562141ae0a6660324ce572,13:37:25,06/03/2024
1894.1000000014901,[''],0,ospan,feedback,NIpysGtHjiNGYmR3vKYeNYR9L6t2,html-button-response,203,1064106,0.0-43.0-6.0-1.0-3.0,,,,,,,,,,,,100.0,0.0,,65562141ae0a6660324ce572,13:37:25,06/03/2024
6017.300000000745,,{'Q0': 'This was hard'},ospan,survey_ospan,NIpysGtHjiNGYmR3vKYeNYR9L6t2,lmdlab-survey-text,204,1070877,0.0-43.0-7.0,,,,,,,,,,,,,,NIpysGtHjiNGYmR3vKYeNYR9L6t2,65562141ae0a6660324ce572,13:37:25,06/03/2024
1915.0,<p><p style='font-size: 3rem'>Great work!<br><br>This completes the symmetry and memory task.</p><br><br><br>,0,ospan,finish,NIpysGtHjiNGYmR3vKYeNYR9L6t2,html-button-response,205,1072797,0.0-43.0-8.0,41,35,20,,,,,,,,,100.0,,,65562141ae0a6660324ce572,13:37:25,06/03/2024
