rt,stimulus,response,exp_name,exp_stage,subjectID,trial_type,trial_index,time_elapsed,internal_node_id,ospan_shown,ospan_total,ospan_abs,length,resp_actual,resp_correct,full_correct,num_correct,feedback,accuracy,correct,math_acc,math_warning,databaseID,prolificID,start_time,date
1513.0999999046326,<div class = 'left_align' style='font-size: 3.25rem; line-height: 1.3;'><p class = 'center_align'><b>Welcome to the Symmetry and Memory Task</b><br><br><br><br></p>Press 'continue' to show the instructions.<br><br><br><br></div>,0,ospan,instruct,8RQYeWtryAhJR2K2S2p8z2QC1zd2,html-button-response,54,463277,0.0-46.0-0.0-0.0-0.0,,,,,,,,,,,,,,,5c929e7b18adb600131a667a,11:46:53,03/04/2024
9180.60000038147,"<div class = 'left_align' style='font-size: 3.25rem; line-height: 1.3;'><p class = 'center_align'><b>Symmetry and Memory Task</b><br><br></p>In this task, you will try to memorize letters you see on the screen<br>while you also view black and white grid pictures.<br><br>In the next few minutes, you will have some practice to get you familiar<br>with how the task works.<br><br>It may be difficult sometimes, but please do not worry about making mistakes!<br><br>We will begin by practicing the letter part of the task.<br><br><br><br></div>",0,ospan,instruct,8RQYeWtryAhJR2K2S2p8z2QC1zd2,html-button-response,55,472709,0.0-46.0-0.0-0.0-1.0,,,,,,,,,,,,,,,5c929e7b18adb600131a667a,11:46:53,03/04/2024
10633.299999713898,"<div class = 'left_align' style='font-size: 3.25rem; line-height: 1.3;'>For this practice part, letters will appear on the screen one at a time.<br><br>Try to remember each letter in the order presented.<br><br>After some letters have been shown, you will see a response screen. Your<br>goal is to report the letters you saw <b>in order</b>. If you do not remember<br>a particular letter, you will have the option to leave it blank.<br><br><br><br></div>",0,ospan,instruct,8RQYeWtryAhJR2K2S2p8z2QC1zd2,html-button-response,56,483601,0.0-46.0-0.0-0.0-2.0,,,,,,,,,,,,,,,5c929e7b18adb600131a667a,11:46:53,03/04/2024
1896.0,"<div class = 'left_align' style='font-size: 3.25rem; line-height: 1.3;'>Remember, it is very important to get the letters in the same<br>order as you see them.<br><br>When you are ready, you may begin the letter practice.</div><br><br><br><br>",0,ospan,instruct,8RQYeWtryAhJR2K2S2p8z2QC1zd2,html-button-response,57,485757,0.0-46.0-0.0-0.0-3.0,,,,,,,,,,,,,,,5c929e7b18adb600131a667a,11:46:53,03/04/2024
,"<p style=""font-size:75px;"">...</p>",,ospan,iti,8RQYeWtryAhJR2K2S2p8z2QC1zd2,html-keyboard-response,58,487025,0.0-46.0-0.0-1.0-0.0,,,,,,,,,,,,,,,5c929e7b18adb600131a667a,11:46:53,03/04/2024
,"<div style=""font-size: 10rem; color: #0000FF"">H</div>",,ospan,letter,8RQYeWtryAhJR2K2S2p8z2QC1zd2,html-keyboard-response,59,488042,0.0-46.0-0.0-1.0-1.0,,,,,,,,,,,,,,,5c929e7b18adb600131a667a,11:46:53,03/04/2024
,"<div style=""font-size: 10rem; color: #0000FF"">K</div>",,ospan,letter,8RQYeWtryAhJR2K2S2p8z2QC1zd2,html-keyboard-response,60,489809,0.0-46.0-0.0-1.0-2.0,,,,,,,,,,,,,,,5c929e7b18adb600131a667a,11:46:53,03/04/2024
6921.099999904633,"<div class = numbox><p style=""font-size: 2.4rem"">Please recall the letters you saw to the best of your ability. If you do not remember a particular letter, use the SKIP button.<br><b>(When you are ready to lock in your answer, press ENTER)</b></p><button id = button_1 class = ""square num-button"" onclick = ""recordClick(this)""><div class = content><div class = numbers>C</div></div></button><button id = button_2 class = ""square num-button"" onclick = ""recordClick(this)""><div class = content><div class = numbers>G</div></div></button><button id = button_3 class = ""square num-button"" onclick = ""recordClick(this)""><div class = content><div class = numbers>H</div></div></button><button id = button_4 class = ""square num-button"" onclick = ""recordClick(this)""><div class = content><div class = numbers>J</div></div></button><button id = button_5 class = ""square num-button"" onclick = ""recordClick(this)""><div class = content><div class = numbers>K</div></div></button><button id = button_6 class = ""square num-button"" onclick = ""recordClick(this)""><div class = content><div class = numbers>L</div></div></button><button id = button_7 class = ""square num-button"" onclick = ""recordClick(this)""><div class = content><div class = numbers>N</div></div></button><button id = button_8 class = ""square num-button"" onclick = ""recordClick(this)""><div class = content><div class = numbers>P</div></div></button><button id = button_9 class = ""square num-button"" onclick = ""recordClick(this)""><div class = content><div class = numbers>Q</div></div></button><button id = button_10 class = ""square num-button"" onclick = ""recordClick(this)""><div class = content><div class = numbers>R</div></div></button><button id = button_11 class = ""square num-button"" onclick = ""recordClick(this)""><div class = content><div class = numbers>S</div></div></button><button id = button_12 class = ""square num-button"" onclick = ""recordClick(this)""><div class = content><div class = numbers>Y</div></div></button><button class = clear_button id = ""ClearButton"" onclick = ""clearResponse()"">BACKSPACE</button><button class = blank_button id = ""BlankButton"" onclick = ""blankResponse()"">SKIP</button><p style=""font-size: 2.4rem""><u><b>Current Answer:</b></u></p><br><br><div id=echoed_txt style=""font-size: 5rem; color:blue;""><b></b></div></div>",enter,ospan,retrieval,8RQYeWtryAhJR2K2S2p8z2QC1zd2,html-keyboard-response,61,497496,0.0-46.0-0.0-1.0-3.0,NA,NA,NA,2.0,"[""H"",""K""]","[""H"",""K""]",1.0,2.0,"['<font color=""green"">H</font>', '<font color=""green"">K</font>']",,,,,,5c929e7b18adb600131a667a,11:46:53,03/04/2024
1086.0999999046326,"['<p style=""font-size:44px"">Letters:<br><br><br><font color=""green"">H</font> <font color=""green"">K</font></p><br><br>']",0,ospan,practice_feedback,8RQYeWtryAhJR2K2S2p8z2QC1zd2,html-button-response,62,499093,0.0-46.0-0.0-1.0-4.0,,,,,,,,,,,,,,,5c929e7b18adb600131a667a,11:46:53,03/04/2024
,"<p style=""font-size:75px;"">...</p>",,ospan,iti,8RQYeWtryAhJR2K2S2p8z2QC1zd2,html-keyboard-response,63,500104,0.0-46.0-0.0-2.0-0.0,,,,,,,,,,,,,,,5c929e7b18adb600131a667a,11:46:53,03/04/2024
,"<div style=""font-size: 10rem; color: #0000FF"">P</div>",,ospan,letter,8RQYeWtryAhJR2K2S2p8z2QC1zd2,html-keyboard-response,64,501119,0.0-46.0-0.0-2.0-1.0,,,,,,,,,,,,,,,5c929e7b18adb600131a667a,11:46:53,03/04/2024
,"<div style=""font-size: 10rem; color: #0000FF"">K</div>",,ospan,letter,8RQYeWtryAhJR2K2S2p8z2QC1zd2,html-keyboard-response,65,502887,0.0-46.0-0.0-2.0-2.0,,,,,,,,,,,,,,,5c929e7b18adb600131a667a,11:46:53,03/04/2024
,"<div style=""font-size: 10rem; color: #0000FF"">R</div>",,ospan,letter,8RQYeWtryAhJR2K2S2p8z2QC1zd2,html-keyboard-response,66,504669,0.0-46.0-0.0-2.0-3.0,,,,,,,,,,,,,,,5c929e7b18adb600131a667a,11:46:53,03/04/2024
2819.5,"<div class = numbox><p style=""font-size: 2.4rem"">Please recall the letters you saw to the best of your ability. If you do not remember a particular letter, use the SKIP button.<br><b>(When you are ready to lock in your answer, press ENTER)</b></p><button id = button_1 class = ""square num-button"" onclick = ""recordClick(this)""><div class = content><div class = numbers>C</div></div></button><button id = button_2 class = ""square num-button"" onclick = ""recordClick(this)""><div class = content><div class = numbers>G</div></div></button><button id = button_3 class = ""square num-button"" onclick = ""recordClick(this)""><div class = content><div class = numbers>H</div></div></button><button id = button_4 class = ""square num-button"" onclick = ""recordClick(this)""><div class = content><div class = numbers>J</div></div></button><button id = button_5 class = ""square num-button"" onclick = ""recordClick(this)""><div class = content><div class = numbers>K</div></div></button><button id = button_6 class = ""square num-button"" onclick = ""recordClick(this)""><div class = content><div class = numbers>L</div></div></button><button id = button_7 class = ""square num-button"" onclick = ""recordClick(this)""><div class = content><div class = numbers>N</div></div></button><button id = button_8 class = ""square num-button"" onclick = ""recordClick(this)""><div class = content><div class = numbers>P</div></div></button><button id = button_9 class = ""square num-button"" onclick = ""recordClick(this)""><div class = content><div class = numbers>Q</div></div></button><button id = button_10 class = ""square num-button"" onclick = ""recordClick(this)""><div class = content><div class = numbers>R</div></div></button><button id = button_11 class = ""square num-button"" onclick = ""recordClick(this)""><div class = content><div class = numbers>S</div></div></button><button id = button_12 class = ""square num-button"" onclick = ""recordClick(this)""><div class = content><div class = numbers>Y</div></div></button><button class = clear_button id = ""ClearButton"" onclick = ""clearResponse()"">BACKSPACE</button><button class = blank_button id = ""BlankButton"" onclick = ""blankResponse()"">SKIP</button><p style=""font-size: 2.4rem""><u><b>Current Answer:</b></u></p><br><br><div id=echoed_txt style=""font-size: 5rem; color:blue;""><b></b></div></div>",enter,ospan,retrieval,8RQYeWtryAhJR2K2S2p8z2QC1zd2,html-keyboard-response,67,508240,0.0-46.0-0.0-2.0-4.0,NA,NA,NA,3.0,"[""P"",""K"",""R""]","[""P"",""K"",""R""]",1.0,3.0,"['<font color=""green"">P</font>', '<font color=""green"">K</font>', '<font color=""green"">R</font>']",,,,,,5c929e7b18adb600131a667a,11:46:53,03/04/2024
810.7999997138977,"['<p style=""font-size:44px"">Letters:<br><br><br><font color=""green"">P</font> <font color=""green"">K</font> <font color=""green"">R</font></p><br><br>']",0,ospan,practice_feedback,8RQYeWtryAhJR2K2S2p8z2QC1zd2,html-button-response,68,509564,0.0-46.0-0.0-2.0-5.0,,,,,,,,,,,,,,,5c929e7b18adb600131a667a,11:46:53,03/04/2024
8967.599999904633,"<div class = 'left_align' style='font-size: 3.25rem; line-height: 1.3;'>Now you will practice doing the <b>symmetry judgment part</b> of the experiment.<br><br>A black and white grid picture will appear on the screen and you have to judge if it is <br>symmetrical or asymetrical.<br><br>A picture is 'mirror' symmetrical if its left half is identical to the right half when flipped.<br>Here are examples of a symmetrical and an asymetrical picture:<br><br><center><img src='Stimuli/img/symm_instructions_extra.png' style='height:420px; width:900'></img></center><br>To judge symmetry, imagine you were to fold each picture down the middle, like a book –<br>would the left half match the right half when folded onto each other?<br><br></div><br>",0,ospan,instruct,8RQYeWtryAhJR2K2S2p8z2QC1zd2,html-button-response,69,518533,0.0-46.0-1.0-0.0-0.0,,,,,,,,,,,,,,,5c929e7b18adb600131a667a,11:46:53,03/04/2024
2896.0,"<div class = 'left_align' style='font-size: 3.25rem; line-height: 1.3;'>When you have viewed the picture and determined whether it is symmetrical or not,<br>you can <b>click the Yes or No button</b> below to answer.<br><br>If you take longer than 15 seconds, it will continue automatically<br>and record the answer as an error.</div><br>",0,ospan,instruct,8RQYeWtryAhJR2K2S2p8z2QC1zd2,html-button-response,70,521684,0.0-46.0-1.0-0.0-1.0,,,,,,,,,,,,,,,5c929e7b18adb600131a667a,11:46:53,03/04/2024
3296.5999999046326,"<div class = 'left_align' style='font-size: 3.25rem; line-height: 1.3;'>It is <b>very</b> important that you make the symmetry judgment correctly.<br><br>It is also important that you try and judge the picture as quickly as you can.<br><br>When you are ready, click on the button below to try some practice problems.</div><br><br><br><br>",0,ospan,instruct,8RQYeWtryAhJR2K2S2p8z2QC1zd2,html-button-response,71,525244,0.0-46.0-1.0-0.0-2.0,,,,,,,,,,,,,,,5c929e7b18adb600131a667a,11:46:53,03/04/2024
2212.0,,,ospan,symmetry,8RQYeWtryAhJR2K2S2p8z2QC1zd2,symmetry-judgement-task,72,528301,0.0-46.0-1.0-1.0-0.0,,,,,,,,,,1.0,1.0,,,,5c929e7b18adb600131a667a,11:46:53,03/04/2024
,"<p style=""color:green; font-size: 35px"">Correct</p>",,ospan,feedback,8RQYeWtryAhJR2K2S2p8z2QC1zd2,html-keyboard-response,73,529062,0.0-46.0-1.0-1.0-1.0,,,,,,,,,,,,,,,5c929e7b18adb600131a667a,11:46:53,03/04/2024
1099.0,,,ospan,symmetry,8RQYeWtryAhJR2K2S2p8z2QC1zd2,symmetry-judgement-task,74,533012,0.0-46.0-1.0-1.0-2.0,,,,,,,,,,1.0,1.0,,,,5c929e7b18adb600131a667a,11:46:53,03/04/2024
,"<p style=""color:green; font-size: 35px"">Correct</p>",,ospan,feedback,8RQYeWtryAhJR2K2S2p8z2QC1zd2,html-keyboard-response,75,533764,0.0-46.0-1.0-1.0-3.0,,,,,,,,,,,,,,,5c929e7b18adb600131a667a,11:46:53,03/04/2024
1273.0,,,ospan,symmetry,8RQYeWtryAhJR2K2S2p8z2QC1zd2,symmetry-judgement-task,76,537811,0.0-46.0-1.0-1.0-4.0,,,,,,,,,,1.0,1.0,,,,5c929e7b18adb600131a667a,11:46:53,03/04/2024
,"<p style=""color:green; font-size: 35px"">Correct</p>",,ospan,feedback,8RQYeWtryAhJR2K2S2p8z2QC1zd2,html-keyboard-response,77,538574,0.0-46.0-1.0-1.0-5.0,,,,,,,,,,,,,,,5c929e7b18adb600131a667a,11:46:53,03/04/2024
1765.0,"<p style=""font-size: 3rem;"">You responded correctly on 3 of 3 symmetry judgments. Good job!</p><br><br>",0,ospan,practice,8RQYeWtryAhJR2K2S2p8z2QC1zd2,html-button-response,78,542356,0.0-46.0-1.0-2.0,,,,,,,,,,,,,,,5c929e7b18adb600131a667a,11:46:53,03/04/2024
11195.5,"<div class = 'left_align' style='font-size: 3.25rem; line-height: 1.3;'>Now you will practice doing both parts of the experiment at the same time.<br><br>In the next practice set, you will be given one grid picture to judge.<br>Then letter will appear on the screen. Try to remember the letter.<br><br>It is <b>very important</b> to make the symmetry judgment as quickly and accurately as possible.<br><br>Just as before, once you have make the symmetry judgment, you can click Yes or No.<br><b>Note that you will no longer see Correct or Incorrect feedback.</div><br><br><br><br>",0,ospan,instruct,8RQYeWtryAhJR2K2S2p8z2QC1zd2,html-button-response,79,553804,0.0-46.0-2.0-0.0-0.0,,,,,,,,,,,,,,,5c929e7b18adb600131a667a,11:46:53,03/04/2024
4822.300000190735,"<div class = 'left_align' style='font-size: 3.25rem; line-height: 1.3;'>After the letter goes away, another grid picture will appear, and then<br>another letter.<br><br>At the end of each set of letters and grids, you will recall the letters to the best<br>of your ability. Remember, try your best to get the letters in the correct order.<br><br>It is important to <b>quickly</b> and <b>accurately</b> make the symmetry judgments.</div><br><br><br><br>",0,ospan,instruct,8RQYeWtryAhJR2K2S2p8z2QC1zd2,html-button-response,80,558892,0.0-46.0-2.0-0.0-1.0,,,,,,,,,,,,,,,5c929e7b18adb600131a667a,11:46:53,03/04/2024
8209.300000190735,"<div class = 'left_align' style='font-size: 3.25rem; line-height: 1.3;'>On the feedback screen, if you are not doing well at the symmetry judgments,<br>you will also see a warning in the middle. This indicates your percent <br>correct for the grid pictures for the entire experiment.<br><br>It is <b>very</b> important for you to keep accuracy at least at 85%: <u>We can only use<br>data where the participant was at least 85% accurate on the judgments.</u> Therefore,<br> please try your best to perform well on the symmetry judgments, <b>at the same time</b><br>doing your best to recall as many letters as possible.<br><br>Click the button to try some practice problems.</div><br><br><br><br>",0,ospan,instruct,8RQYeWtryAhJR2K2S2p8z2QC1zd2,html-button-response,81,567360,0.0-46.0-2.0-0.0-2.0,,,,,,,,,,,,,,,5c929e7b18adb600131a667a,11:46:53,03/04/2024
,"<p style=""font-size:75px;"">...</p>",,ospan,iti,8RQYeWtryAhJR2K2S2p8z2QC1zd2,html-keyboard-response,82,568618,0.0-46.0-2.0-1.0-0.0,,,,,,,,,,,,,,,5c929e7b18adb600131a667a,11:46:53,03/04/2024
1113.0,,,ospan,symmetry,8RQYeWtryAhJR2K2S2p8z2QC1zd2,symmetry-judgement-task,83,571046,0.0-46.0-2.0-1.0-1.0-0.0,,,,,,,,,,1.0,1.0,,,,5c929e7b18adb600131a667a,11:46:53,03/04/2024
,"<div style=""font-size: 10rem; color: #0000FF"">R</div>",,ospan,letter,8RQYeWtryAhJR2K2S2p8z2QC1zd2,html-keyboard-response,84,572047,0.0-46.0-2.0-1.0-1.0-1.0,,,,,,,,,,,,,,,5c929e7b18adb600131a667a,11:46:53,03/04/2024
1230.0,,,ospan,symmetry,8RQYeWtryAhJR2K2S2p8z2QC1zd2,symmetry-judgement-task,85,575312,0.0-46.0-2.0-1.0-1.0-2.0,,,,,,,,,,1.0,1.0,,,,5c929e7b18adb600131a667a,11:46:53,03/04/2024
,"<div style=""font-size: 10rem; color: #0000FF"">C</div>",,ospan,letter,8RQYeWtryAhJR2K2S2p8z2QC1zd2,html-keyboard-response,86,576328,0.0-46.0-2.0-1.0-1.0-3.0,,,,,,,,,,,,,,,5c929e7b18adb600131a667a,11:46:53,03/04/2024
1099.0,,,ospan,symmetry,8RQYeWtryAhJR2K2S2p8z2QC1zd2,symmetry-judgement-task,87,579461,0.0-46.0-2.0-1.0-1.0-4.0,,,,,,,,,,1.0,1.0,,,,5c929e7b18adb600131a667a,11:46:53,03/04/2024
,"<div style=""font-size: 10rem; color: #0000FF"">Y</div>",,ospan,letter,8RQYeWtryAhJR2K2S2p8z2QC1zd2,html-keyboard-response,88,580477,0.0-46.0-2.0-1.0-1.0-5.0,,,,,,,,,,,,,,,5c929e7b18adb600131a667a,11:46:53,03/04/2024
3477.1000003814697,"<div class = numbox><p style=""font-size: 2.4rem"">Please recall the letters you saw to the best of your ability. If you do not remember a particular letter, use the SKIP button.<br><b>(When you are ready to lock in your answer, press ENTER)</b></p><button id = button_1 class = ""square num-button"" onclick = ""recordClick(this)""><div class = content><div class = numbers>C</div></div></button><button id = button_2 class = ""square num-button"" onclick = ""recordClick(this)""><div class = content><div class = numbers>G</div></div></button><button id = button_3 class = ""square num-button"" onclick = ""recordClick(this)""><div class = content><div class = numbers>H</div></div></button><button id = button_4 class = ""square num-button"" onclick = ""recordClick(this)""><div class = content><div class = numbers>J</div></div></button><button id = button_5 class = ""square num-button"" onclick = ""recordClick(this)""><div class = content><div class = numbers>K</div></div></button><button id = button_6 class = ""square num-button"" onclick = ""recordClick(this)""><div class = content><div class = numbers>L</div></div></button><button id = button_7 class = ""square num-button"" onclick = ""recordClick(this)""><div class = content><div class = numbers>N</div></div></button><button id = button_8 class = ""square num-button"" onclick = ""recordClick(this)""><div class = content><div class = numbers>P</div></div></button><button id = button_9 class = ""square num-button"" onclick = ""recordClick(this)""><div class = content><div class = numbers>Q</div></div></button><button id = button_10 class = ""square num-button"" onclick = ""recordClick(this)""><div class = content><div class = numbers>R</div></div></button><button id = button_11 class = ""square num-button"" onclick = ""recordClick(this)""><div class = content><div class = numbers>S</div></div></button><button id = button_12 class = ""square num-button"" onclick = ""recordClick(this)""><div class = content><div class = numbers>Y</div></div></button><button class = clear_button id = ""ClearButton"" onclick = ""clearResponse()"">BACKSPACE</button><button class = blank_button id = ""BlankButton"" onclick = ""blankResponse()"">SKIP</button><p style=""font-size: 2.4rem""><u><b>Current Answer:</b></u></p><br><br><div id=echoed_txt style=""font-size: 5rem; color:blue;""><b></b></div></div>",enter,ospan,retrieval,8RQYeWtryAhJR2K2S2p8z2QC1zd2,html-keyboard-response,89,584721,0.0-46.0-2.0-1.0-2.0-0.0,NA,NA,NA,3.0,"[""R"",""C"",""Y""]","[""R"",""C"",""Y""]",1.0,3.0,"['<font color=""green"">R</font>', '<font color=""green"">C</font>', '<font color=""green"">Y</font>']",,,,,,5c929e7b18adb600131a667a,11:46:53,03/04/2024
1134.4000000953674,"['<p style=""font-size:44px"">Letters:<br><br><br><font color=""green"">R</font> <font color=""green"">C</font> <font color=""green"">Y</font></p><br><br><p style=""font-size:30px"">Symmetry:<br><br><font color=""green"">100%</font></p><br><br>']",0,ospan,practice_feedback,8RQYeWtryAhJR2K2S2p8z2QC1zd2,html-button-response,90,586364,0.0-46.0-2.0-1.0-2.0-1.0,,,,,,,,,,,,,,,5c929e7b18adb600131a667a,11:46:53,03/04/2024
,"<p style=""font-size:75px;"">...</p>",,ospan,iti,8RQYeWtryAhJR2K2S2p8z2QC1zd2,html-keyboard-response,91,587374,0.0-46.0-2.0-2.0-0.0,,,,,,,,,,,,,,,5c929e7b18adb600131a667a,11:46:53,03/04/2024
1179.0,,,ospan,symmetry,8RQYeWtryAhJR2K2S2p8z2QC1zd2,symmetry-judgement-task,92,589836,0.0-46.0-2.0-2.0-1.0-0.0,,,,,,,,,,1.0,1.0,,,,5c929e7b18adb600131a667a,11:46:53,03/04/2024
,"<div style=""font-size: 10rem; color: #0000FF"">S</div>",,ospan,letter,8RQYeWtryAhJR2K2S2p8z2QC1zd2,html-keyboard-response,93,590853,0.0-46.0-2.0-2.0-1.0-1.0,,,,,,,,,,,,,,,5c929e7b18adb600131a667a,11:46:53,03/04/2024
814.0,,,ospan,symmetry,8RQYeWtryAhJR2K2S2p8z2QC1zd2,symmetry-judgement-task,94,593725,0.0-46.0-2.0-2.0-1.0-2.0,,,,,,,,,,1.0,1.0,,,,5c929e7b18adb600131a667a,11:46:53,03/04/2024
,"<div style=""font-size: 10rem; color: #0000FF"">G</div>",,ospan,letter,8RQYeWtryAhJR2K2S2p8z2QC1zd2,html-keyboard-response,95,594738,0.0-46.0-2.0-2.0-1.0-3.0,,,,,,,,,,,,,,,5c929e7b18adb600131a667a,11:46:53,03/04/2024
885.0,,,ospan,symmetry,8RQYeWtryAhJR2K2S2p8z2QC1zd2,symmetry-judgement-task,96,597621,0.0-46.0-2.0-2.0-1.0-4.0,,,,,,,,,,1.0,1.0,,,,5c929e7b18adb600131a667a,11:46:53,03/04/2024
,"<div style=""font-size: 10rem; color: #0000FF"">J</div>",,ospan,letter,8RQYeWtryAhJR2K2S2p8z2QC1zd2,html-keyboard-response,97,598638,0.0-46.0-2.0-2.0-1.0-5.0,,,,,,,,,,,,,,,5c929e7b18adb600131a667a,11:46:53,03/04/2024
3586.5,"<div class = numbox><p style=""font-size: 2.4rem"">Please recall the letters you saw to the best of your ability. If you do not remember a particular letter, use the SKIP button.<br><b>(When you are ready to lock in your answer, press ENTER)</b></p><button id = button_1 class = ""square num-button"" onclick = ""recordClick(this)""><div class = content><div class = numbers>C</div></div></button><button id = button_2 class = ""square num-button"" onclick = ""recordClick(this)""><div class = content><div class = numbers>G</div></div></button><button id = button_3 class = ""square num-button"" onclick = ""recordClick(this)""><div class = content><div class = numbers>H</div></div></button><button id = button_4 class = ""square num-button"" onclick = ""recordClick(this)""><div class = content><div class = numbers>J</div></div></button><button id = button_5 class = ""square num-button"" onclick = ""recordClick(this)""><div class = content><div class = numbers>K</div></div></button><button id = button_6 class = ""square num-button"" onclick = ""recordClick(this)""><div class = content><div class = numbers>L</div></div></button><button id = button_7 class = ""square num-button"" onclick = ""recordClick(this)""><div class = content><div class = numbers>N</div></div></button><button id = button_8 class = ""square num-button"" onclick = ""recordClick(this)""><div class = content><div class = numbers>P</div></div></button><button id = button_9 class = ""square num-button"" onclick = ""recordClick(this)""><div class = content><div class = numbers>Q</div></div></button><button id = button_10 class = ""square num-button"" onclick = ""recordClick(this)""><div class = content><div class = numbers>R</div></div></button><button id = button_11 class = ""square num-button"" onclick = ""recordClick(this)""><div class = content><div class = numbers>S</div></div></button><button id = button_12 class = ""square num-button"" onclick = ""recordClick(this)""><div class = content><div class = numbers>Y</div></div></button><button class = clear_button id = ""ClearButton"" onclick = ""clearResponse()"">BACKSPACE</button><button class = blank_button id = ""BlankButton"" onclick = ""blankResponse()"">SKIP</button><p style=""font-size: 2.4rem""><u><b>Current Answer:</b></u></p><br><br><div id=echoed_txt style=""font-size: 5rem; color:blue;""><b></b></div></div>",enter,ospan,retrieval,8RQYeWtryAhJR2K2S2p8z2QC1zd2,html-keyboard-response,98,602976,0.0-46.0-2.0-2.0-2.0-0.0,NA,NA,NA,3.0,"[""S"",""G"",""J""]","[""S"",""G"",""J""]",1.0,3.0,"['<font color=""green"">S</font>', '<font color=""green"">G</font>', '<font color=""green"">J</font>']",,,,,,5c929e7b18adb600131a667a,11:46:53,03/04/2024
853.1999998092651,"['<p style=""font-size:44px"">Letters:<br><br><br><font color=""green"">S</font> <font color=""green"">G</font> <font color=""green"">J</font></p><br><br><p style=""font-size:30px"">Symmetry:<br><br><font color=""green"">100%</font></p><br><br>']",0,ospan,practice_feedback,8RQYeWtryAhJR2K2S2p8z2QC1zd2,html-button-response,99,604332,0.0-46.0-2.0-2.0-2.0-1.0,,,,,,,,,,,,,,,5c929e7b18adb600131a667a,11:46:53,03/04/2024
15334.300000190735,"<div class = 'left_align' style='font-size: 3rem; line-height: 1.3;'><b>Great work! That is the end of practice.</b><br><br>The real trials will look just like the practice trials you just completed.<br><br><u>Here, you will not see feedback</u>. First, you will see an grid picture to judge,<br>then a letter to remember. When the recall screen appears, report the letters in the<br>order presented. If you forget a letter, remember to use the <b>blank</b> button to move to the<br>next letter. Some of the sets will have more symmetry grids and letters than others.<br><br>It is important that you do your best on both the symmetry judgments and the letter recall<br>parts of the experiment. For for the symmetry judgments, try to work as <b>quickly</b> and <br>as <b>accurately</b> as possible. Remember to keep your symmetry accuracy at 85% or above.<br><br><b>For the letters, do NOT use any external aid (e.g., writing on paper, electronic device).</b><br><br>It is <u>very important</u> to our experiment to have a <b>true</b> view of your real performance.<br><br>Do not worry if you miss some when it gets hard! This task is meant to be very challenging!<br><br>Click the button to begin.</div><br><br><br><br>",0,ospan,starting_real_here,8RQYeWtryAhJR2K2S2p8z2QC1zd2,html-button-response,100,619668,0.0-46.0-2.0-3.0,,,,,,,,,,,,,,,5c929e7b18adb600131a667a,11:46:53,03/04/2024
,"<p style=""font-size:75px;"">...</p>",,ospan,iti,8RQYeWtryAhJR2K2S2p8z2QC1zd2,html-keyboard-response,101,620926,0.0-46.0-3.0-0.0-0.0,,,,,,,,,,,,,,,5c929e7b18adb600131a667a,11:46:53,03/04/2024
1241.0,,,ospan,symmetry,8RQYeWtryAhJR2K2S2p8z2QC1zd2,symmetry-judgement-task,102,623226,0.0-46.0-3.0-0.0-1.0-0.0,,,,,,,,,,1.0,1.0,,,,5c929e7b18adb600131a667a,11:46:53,03/04/2024
,"<div style=""font-size: 10rem; color: #0000FF"">K</div>",,ospan,letter,8RQYeWtryAhJR2K2S2p8z2QC1zd2,html-keyboard-response,103,624229,0.0-46.0-3.0-0.0-1.0-1.0,,,,,,,,,,,,,,,5c929e7b18adb600131a667a,11:46:53,03/04/2024
1130.0,,,ospan,symmetry,8RQYeWtryAhJR2K2S2p8z2QC1zd2,symmetry-judgement-task,104,627395,0.0-46.0-3.0-0.0-1.0-2.0,,,,,,,,,,1.0,1.0,,,,5c929e7b18adb600131a667a,11:46:53,03/04/2024
,"<div style=""font-size: 10rem; color: #0000FF"">G</div>",,ospan,letter,8RQYeWtryAhJR2K2S2p8z2QC1zd2,html-keyboard-response,105,628409,0.0-46.0-3.0-0.0-1.0-3.0,,,,,,,,,,,,,,,5c929e7b18adb600131a667a,11:46:53,03/04/2024
920.0,,,ospan,symmetry,8RQYeWtryAhJR2K2S2p8z2QC1zd2,symmetry-judgement-task,106,631392,0.0-46.0-3.0-0.0-1.0-4.0,,,,,,,,,,1.0,1.0,,,,5c929e7b18adb600131a667a,11:46:53,03/04/2024
,"<div style=""font-size: 10rem; color: #0000FF"">S</div>",,ospan,letter,8RQYeWtryAhJR2K2S2p8z2QC1zd2,html-keyboard-response,107,632393,0.0-46.0-3.0-0.0-1.0-5.0,,,,,,,,,,,,,,,5c929e7b18adb600131a667a,11:46:53,03/04/2024
3372.4000000953674,"<div class = numbox><p style=""font-size: 2.4rem"">Please recall the letters you saw to the best of your ability. If you do not remember a particular letter, use the SKIP button.<br><b>(When you are ready to lock in your answer, press ENTER)</b></p><button id = button_1 class = ""square num-button"" onclick = ""recordClick(this)""><div class = content><div class = numbers>C</div></div></button><button id = button_2 class = ""square num-button"" onclick = ""recordClick(this)""><div class = content><div class = numbers>G</div></div></button><button id = button_3 class = ""square num-button"" onclick = ""recordClick(this)""><div class = content><div class = numbers>H</div></div></button><button id = button_4 class = ""square num-button"" onclick = ""recordClick(this)""><div class = content><div class = numbers>J</div></div></button><button id = button_5 class = ""square num-button"" onclick = ""recordClick(this)""><div class = content><div class = numbers>K</div></div></button><button id = button_6 class = ""square num-button"" onclick = ""recordClick(this)""><div class = content><div class = numbers>L</div></div></button><button id = button_7 class = ""square num-button"" onclick = ""recordClick(this)""><div class = content><div class = numbers>N</div></div></button><button id = button_8 class = ""square num-button"" onclick = ""recordClick(this)""><div class = content><div class = numbers>P</div></div></button><button id = button_9 class = ""square num-button"" onclick = ""recordClick(this)""><div class = content><div class = numbers>Q</div></div></button><button id = button_10 class = ""square num-button"" onclick = ""recordClick(this)""><div class = content><div class = numbers>R</div></div></button><button id = button_11 class = ""square num-button"" onclick = ""recordClick(this)""><div class = content><div class = numbers>S</div></div></button><button id = button_12 class = ""square num-button"" onclick = ""recordClick(this)""><div class = content><div class = numbers>Y</div></div></button><button class = clear_button id = ""ClearButton"" onclick = ""clearResponse()"">BACKSPACE</button><button class = blank_button id = ""BlankButton"" onclick = ""blankResponse()"">SKIP</button><p style=""font-size: 2.4rem""><u><b>Current Answer:</b></u></p><br><br><div id=echoed_txt style=""font-size: 5rem; color:blue;""><b></b></div></div>",enter,ospan,retrieval,8RQYeWtryAhJR2K2S2p8z2QC1zd2,html-keyboard-response,108,636533,0.0-46.0-3.0-0.0-2.0,3,3,3,3.0,"[""K"",""G"",""S""]","[""K"",""G"",""S""]",1.0,3.0,,,,,,,5c929e7b18adb600131a667a,11:46:53,03/04/2024
978.9000000953674,[''],0,ospan,feedback,8RQYeWtryAhJR2K2S2p8z2QC1zd2,html-button-response,109,638020,0.0-46.0-3.0-0.0-3.0,,,,,,,,,,,,100.0,0.0,,5c929e7b18adb600131a667a,11:46:53,03/04/2024
,"<p style=""font-size:75px;"">...</p>",,ospan,iti,8RQYeWtryAhJR2K2S2p8z2QC1zd2,html-keyboard-response,110,639028,0.0-46.0-4.0-0.0-0.0,,,,,,,,,,,,,,,5c929e7b18adb600131a667a,11:46:53,03/04/2024
1139.0,,,ospan,symmetry,8RQYeWtryAhJR2K2S2p8z2QC1zd2,symmetry-judgement-task,111,641231,0.0-46.0-4.0-0.0-1.0-0.0,,,,,,,,,,1.0,1.0,,,,5c929e7b18adb600131a667a,11:46:53,03/04/2024
,"<div style=""font-size: 10rem; color: #0000FF"">S</div>",,ospan,letter,8RQYeWtryAhJR2K2S2p8z2QC1zd2,html-keyboard-response,112,642239,0.0-46.0-4.0-0.0-1.0-1.0,,,,,,,,,,,,,,,5c929e7b18adb600131a667a,11:46:53,03/04/2024
799.0,,,ospan,symmetry,8RQYeWtryAhJR2K2S2p8z2QC1zd2,symmetry-judgement-task,113,645070,0.0-46.0-4.0-0.0-1.0-2.0,,,,,,,,,,1.0,1.0,,,,5c929e7b18adb600131a667a,11:46:53,03/04/2024
,"<div style=""font-size: 10rem; color: #0000FF"">Y</div>",,ospan,letter,8RQYeWtryAhJR2K2S2p8z2QC1zd2,html-keyboard-response,114,646072,0.0-46.0-4.0-0.0-1.0-3.0,,,,,,,,,,,,,,,5c929e7b18adb600131a667a,11:46:53,03/04/2024
968.0,,,ospan,symmetry,8RQYeWtryAhJR2K2S2p8z2QC1zd2,symmetry-judgement-task,115,649094,0.0-46.0-4.0-0.0-1.0-4.0,,,,,,,,,,1.0,1.0,,,,5c929e7b18adb600131a667a,11:46:53,03/04/2024
,"<div style=""font-size: 10rem; color: #0000FF"">Q</div>",,ospan,letter,8RQYeWtryAhJR2K2S2p8z2QC1zd2,html-keyboard-response,116,650103,0.0-46.0-4.0-0.0-1.0-5.0,,,,,,,,,,,,,,,5c929e7b18adb600131a667a,11:46:53,03/04/2024
1120.0,,,ospan,symmetry,8RQYeWtryAhJR2K2S2p8z2QC1zd2,symmetry-judgement-task,117,653269,0.0-46.0-4.0-0.0-1.0-6.0,,,,,,,,,,1.0,1.0,,,,5c929e7b18adb600131a667a,11:46:53,03/04/2024
,"<div style=""font-size: 10rem; color: #0000FF"">H</div>",,ospan,letter,8RQYeWtryAhJR2K2S2p8z2QC1zd2,html-keyboard-response,118,654285,0.0-46.0-4.0-0.0-1.0-7.0,,,,,,,,,,,,,,,5c929e7b18adb600131a667a,11:46:53,03/04/2024
4861.199999809265,"<div class = numbox><p style=""font-size: 2.4rem"">Please recall the letters you saw to the best of your ability. If you do not remember a particular letter, use the SKIP button.<br><b>(When you are ready to lock in your answer, press ENTER)</b></p><button id = button_1 class = ""square num-button"" onclick = ""recordClick(this)""><div class = content><div class = numbers>C</div></div></button><button id = button_2 class = ""square num-button"" onclick = ""recordClick(this)""><div class = content><div class = numbers>G</div></div></button><button id = button_3 class = ""square num-button"" onclick = ""recordClick(this)""><div class = content><div class = numbers>H</div></div></button><button id = button_4 class = ""square num-button"" onclick = ""recordClick(this)""><div class = content><div class = numbers>J</div></div></button><button id = button_5 class = ""square num-button"" onclick = ""recordClick(this)""><div class = content><div class = numbers>K</div></div></button><button id = button_6 class = ""square num-button"" onclick = ""recordClick(this)""><div class = content><div class = numbers>L</div></div></button><button id = button_7 class = ""square num-button"" onclick = ""recordClick(this)""><div class = content><div class = numbers>N</div></div></button><button id = button_8 class = ""square num-button"" onclick = ""recordClick(this)""><div class = content><div class = numbers>P</div></div></button><button id = button_9 class = ""square num-button"" onclick = ""recordClick(this)""><div class = content><div class = numbers>Q</div></div></button><button id = button_10 class = ""square num-button"" onclick = ""recordClick(this)""><div class = content><div class = numbers>R</div></div></button><button id = button_11 class = ""square num-button"" onclick = ""recordClick(this)""><div class = content><div class = numbers>S</div></div></button><button id = button_12 class = ""square num-button"" onclick = ""recordClick(this)""><div class = content><div class = numbers>Y</div></div></button><button class = clear_button id = ""ClearButton"" onclick = ""clearResponse()"">BACKSPACE</button><button class = blank_button id = ""BlankButton"" onclick = ""blankResponse()"">SKIP</button><p style=""font-size: 2.4rem""><u><b>Current Answer:</b></u></p><br><br><div id=echoed_txt style=""font-size: 5rem; color:blue;""><b></b></div></div>",enter,ospan,retrieval,8RQYeWtryAhJR2K2S2p8z2QC1zd2,html-keyboard-response,119,659898,0.0-46.0-4.0-0.0-2.0,7,7,7,4.0,"[""S"",""Y"",""Q"",""H""]","[""S"",""Y"",""Q"",""H""]",1.0,4.0,,,,,,,5c929e7b18adb600131a667a,11:46:53,03/04/2024
902.5,[''],0,ospan,feedback,8RQYeWtryAhJR2K2S2p8z2QC1zd2,html-button-response,120,661308,0.0-46.0-4.0-0.0-3.0,,,,,,,,,,,,100.0,0.0,,5c929e7b18adb600131a667a,11:46:53,03/04/2024
,"<p style=""font-size:75px;"">...</p>",,ospan,iti,8RQYeWtryAhJR2K2S2p8z2QC1zd2,html-keyboard-response,121,662325,0.0-46.0-4.0-1.0-0.0,,,,,,,,,,,,,,,5c929e7b18adb600131a667a,11:46:53,03/04/2024
849.0,,,ospan,symmetry,8RQYeWtryAhJR2K2S2p8z2QC1zd2,symmetry-judgement-task,122,664445,0.0-46.0-4.0-1.0-1.0-0.0,,,,,,,,,,1.0,1.0,,,,5c929e7b18adb600131a667a,11:46:53,03/04/2024
,"<div style=""font-size: 10rem; color: #0000FF"">C</div>",,ospan,letter,8RQYeWtryAhJR2K2S2p8z2QC1zd2,html-keyboard-response,123,665447,0.0-46.0-4.0-1.0-1.0-1.0,,,,,,,,,,,,,,,5c929e7b18adb600131a667a,11:46:53,03/04/2024
898.0,,,ospan,symmetry,8RQYeWtryAhJR2K2S2p8z2QC1zd2,symmetry-judgement-task,124,668369,0.0-46.0-4.0-1.0-1.0-2.0,,,,,,,,,,1.0,1.0,,,,5c929e7b18adb600131a667a,11:46:53,03/04/2024
,"<div style=""font-size: 10rem; color: #0000FF"">Y</div>",,ospan,letter,8RQYeWtryAhJR2K2S2p8z2QC1zd2,html-keyboard-response,125,669379,0.0-46.0-4.0-1.0-1.0-3.0,,,,,,,,,,,,,,,5c929e7b18adb600131a667a,11:46:53,03/04/2024
782.0,,,ospan,symmetry,8RQYeWtryAhJR2K2S2p8z2QC1zd2,symmetry-judgement-task,126,672194,0.0-46.0-4.0-1.0-1.0-4.0,,,,,,,,,,1.0,1.0,,,,5c929e7b18adb600131a667a,11:46:53,03/04/2024
,"<div style=""font-size: 10rem; color: #0000FF"">L</div>",,ospan,letter,8RQYeWtryAhJR2K2S2p8z2QC1zd2,html-keyboard-response,127,673196,0.0-46.0-4.0-1.0-1.0-5.0,,,,,,,,,,,,,,,5c929e7b18adb600131a667a,11:46:53,03/04/2024
832.0,,,ospan,symmetry,8RQYeWtryAhJR2K2S2p8z2QC1zd2,symmetry-judgement-task,128,676085,0.0-46.0-4.0-1.0-1.0-6.0,,,,,,,,,,1.0,1.0,,,,5c929e7b18adb600131a667a,11:46:53,03/04/2024
,"<div style=""font-size: 10rem; color: #0000FF"">R</div>",,ospan,letter,8RQYeWtryAhJR2K2S2p8z2QC1zd2,html-keyboard-response,129,677094,0.0-46.0-4.0-1.0-1.0-7.0,,,,,,,,,,,,,,,5c929e7b18adb600131a667a,11:46:53,03/04/2024
776.0,,,ospan,symmetry,8RQYeWtryAhJR2K2S2p8z2QC1zd2,symmetry-judgement-task,130,679895,0.0-46.0-4.0-1.0-1.0-8.0,,,,,,,,,,1.0,1.0,,,,5c929e7b18adb600131a667a,11:46:53,03/04/2024
,"<div style=""font-size: 10rem; color: #0000FF"">P</div>",,ospan,letter,8RQYeWtryAhJR2K2S2p8z2QC1zd2,html-keyboard-response,131,680909,0.0-46.0-4.0-1.0-1.0-9.0,,,,,,,,,,,,,,,5c929e7b18adb600131a667a,11:46:53,03/04/2024
4308.5,"<div class = numbox><p style=""font-size: 2.4rem"">Please recall the letters you saw to the best of your ability. If you do not remember a particular letter, use the SKIP button.<br><b>(When you are ready to lock in your answer, press ENTER)</b></p><button id = button_1 class = ""square num-button"" onclick = ""recordClick(this)""><div class = content><div class = numbers>C</div></div></button><button id = button_2 class = ""square num-button"" onclick = ""recordClick(this)""><div class = content><div class = numbers>G</div></div></button><button id = button_3 class = ""square num-button"" onclick = ""recordClick(this)""><div class = content><div class = numbers>H</div></div></button><button id = button_4 class = ""square num-button"" onclick = ""recordClick(this)""><div class = content><div class = numbers>J</div></div></button><button id = button_5 class = ""square num-button"" onclick = ""recordClick(this)""><div class = content><div class = numbers>K</div></div></button><button id = button_6 class = ""square num-button"" onclick = ""recordClick(this)""><div class = content><div class = numbers>L</div></div></button><button id = button_7 class = ""square num-button"" onclick = ""recordClick(this)""><div class = content><div class = numbers>N</div></div></button><button id = button_8 class = ""square num-button"" onclick = ""recordClick(this)""><div class = content><div class = numbers>P</div></div></button><button id = button_9 class = ""square num-button"" onclick = ""recordClick(this)""><div class = content><div class = numbers>Q</div></div></button><button id = button_10 class = ""square num-button"" onclick = ""recordClick(this)""><div class = content><div class = numbers>R</div></div></button><button id = button_11 class = ""square num-button"" onclick = ""recordClick(this)""><div class = content><div class = numbers>S</div></div></button><button id = button_12 class = ""square num-button"" onclick = ""recordClick(this)""><div class = content><div class = numbers>Y</div></div></button><button class = clear_button id = ""ClearButton"" onclick = ""clearResponse()"">BACKSPACE</button><button class = blank_button id = ""BlankButton"" onclick = ""blankResponse()"">SKIP</button><p style=""font-size: 2.4rem""><u><b>Current Answer:</b></u></p><br><br><div id=echoed_txt style=""font-size: 5rem; color:blue;""><b></b></div></div>",enter,ospan,retrieval,8RQYeWtryAhJR2K2S2p8z2QC1zd2,html-keyboard-response,132,685969,0.0-46.0-4.0-1.0-2.0,12,12,12,5.0,"[""C"",""Y"",""L"",""R"",""P""]","[""C"",""Y"",""L"",""R"",""P""]",1.0,5.0,,,,,,,5c929e7b18adb600131a667a,11:46:53,03/04/2024
599.4000000953674,[''],0,ospan,feedback,8RQYeWtryAhJR2K2S2p8z2QC1zd2,html-button-response,133,687076,0.0-46.0-4.0-1.0-3.0,,,,,,,,,,,,100.0,0.0,,5c929e7b18adb600131a667a,11:46:53,03/04/2024
,"<p style=""font-size:75px;"">...</p>",,ospan,iti,8RQYeWtryAhJR2K2S2p8z2QC1zd2,html-keyboard-response,134,688080,0.0-46.0-4.0-2.0-0.0,,,,,,,,,,,,,,,5c929e7b18adb600131a667a,11:46:53,03/04/2024
806.0,,,ospan,symmetry,8RQYeWtryAhJR2K2S2p8z2QC1zd2,symmetry-judgement-task,135,690145,0.0-46.0-4.0-2.0-1.0-0.0,,,,,,,,,,1.0,1.0,,,,5c929e7b18adb600131a667a,11:46:53,03/04/2024
,"<div style=""font-size: 10rem; color: #0000FF"">R</div>",,ospan,letter,8RQYeWtryAhJR2K2S2p8z2QC1zd2,html-keyboard-response,136,691148,0.0-46.0-4.0-2.0-1.0-1.0,,,,,,,,,,,,,,,5c929e7b18adb600131a667a,11:46:53,03/04/2024
869.0,,,ospan,symmetry,8RQYeWtryAhJR2K2S2p8z2QC1zd2,symmetry-judgement-task,137,694057,0.0-46.0-4.0-2.0-1.0-2.0,,,,,,,,,,1.0,1.0,,,,5c929e7b18adb600131a667a,11:46:53,03/04/2024
,"<div style=""font-size: 10rem; color: #0000FF"">Y</div>",,ospan,letter,8RQYeWtryAhJR2K2S2p8z2QC1zd2,html-keyboard-response,138,695071,0.0-46.0-4.0-2.0-1.0-3.0,,,,,,,,,,,,,,,5c929e7b18adb600131a667a,11:46:53,03/04/2024
832.0,,,ospan,symmetry,8RQYeWtryAhJR2K2S2p8z2QC1zd2,symmetry-judgement-task,139,697956,0.0-46.0-4.0-2.0-1.0-4.0,,,,,,,,,,1.0,1.0,,,,5c929e7b18adb600131a667a,11:46:53,03/04/2024
,"<div style=""font-size: 10rem; color: #0000FF"">P</div>",,ospan,letter,8RQYeWtryAhJR2K2S2p8z2QC1zd2,html-keyboard-response,140,698970,0.0-46.0-4.0-2.0-1.0-5.0,,,,,,,,,,,,,,,5c929e7b18adb600131a667a,11:46:53,03/04/2024
2779.300000190735,"<div class = numbox><p style=""font-size: 2.4rem"">Please recall the letters you saw to the best of your ability. If you do not remember a particular letter, use the SKIP button.<br><b>(When you are ready to lock in your answer, press ENTER)</b></p><button id = button_1 class = ""square num-button"" onclick = ""recordClick(this)""><div class = content><div class = numbers>C</div></div></button><button id = button_2 class = ""square num-button"" onclick = ""recordClick(this)""><div class = content><div class = numbers>G</div></div></button><button id = button_3 class = ""square num-button"" onclick = ""recordClick(this)""><div class = content><div class = numbers>H</div></div></button><button id = button_4 class = ""square num-button"" onclick = ""recordClick(this)""><div class = content><div class = numbers>J</div></div></button><button id = button_5 class = ""square num-button"" onclick = ""recordClick(this)""><div class = content><div class = numbers>K</div></div></button><button id = button_6 class = ""square num-button"" onclick = ""recordClick(this)""><div class = content><div class = numbers>L</div></div></button><button id = button_7 class = ""square num-button"" onclick = ""recordClick(this)""><div class = content><div class = numbers>N</div></div></button><button id = button_8 class = ""square num-button"" onclick = ""recordClick(this)""><div class = content><div class = numbers>P</div></div></button><button id = button_9 class = ""square num-button"" onclick = ""recordClick(this)""><div class = content><div class = numbers>Q</div></div></button><button id = button_10 class = ""square num-button"" onclick = ""recordClick(this)""><div class = content><div class = numbers>R</div></div></button><button id = button_11 class = ""square num-button"" onclick = ""recordClick(this)""><div class = content><div class = numbers>S</div></div></button><button id = button_12 class = ""square num-button"" onclick = ""recordClick(this)""><div class = content><div class = numbers>Y</div></div></button><button class = clear_button id = ""ClearButton"" onclick = ""clearResponse()"">BACKSPACE</button><button class = blank_button id = ""BlankButton"" onclick = ""blankResponse()"">SKIP</button><p style=""font-size: 2.4rem""><u><b>Current Answer:</b></u></p><br><br><div id=echoed_txt style=""font-size: 5rem; color:blue;""><b></b></div></div>",enter,ospan,retrieval,8RQYeWtryAhJR2K2S2p8z2QC1zd2,html-keyboard-response,141,702507,0.0-46.0-4.0-2.0-2.0,15,15,15,3.0,"[""R"",""Y"",""P""]","[""R"",""Y"",""P""]",1.0,3.0,,,,,,,5c929e7b18adb600131a667a,11:46:53,03/04/2024
548.6999998092651,[''],0,ospan,feedback,8RQYeWtryAhJR2K2S2p8z2QC1zd2,html-button-response,142,703568,0.0-46.0-4.0-2.0-3.0,,,,,,,,,,,,100.0,0.0,,5c929e7b18adb600131a667a,11:46:53,03/04/2024
,"<p style=""font-size:75px;"">...</p>",,ospan,iti,8RQYeWtryAhJR2K2S2p8z2QC1zd2,html-keyboard-response,143,704574,0.0-46.0-5.0-0.0-0.0,,,,,,,,,,,,,,,5c929e7b18adb600131a667a,11:46:53,03/04/2024
651.0,,,ospan,symmetry,8RQYeWtryAhJR2K2S2p8z2QC1zd2,symmetry-judgement-task,144,706481,0.0-46.0-5.0-0.0-1.0-0.0,,,,,,,,,,1.0,1.0,,,,5c929e7b18adb600131a667a,11:46:53,03/04/2024
,"<div style=""font-size: 10rem; color: #0000FF"">S</div>",,ospan,letter,8RQYeWtryAhJR2K2S2p8z2QC1zd2,html-keyboard-response,145,707484,0.0-46.0-5.0-0.0-1.0-1.0,,,,,,,,,,,,,,,5c929e7b18adb600131a667a,11:46:53,03/04/2024
967.0,,,ospan,symmetry,8RQYeWtryAhJR2K2S2p8z2QC1zd2,symmetry-judgement-task,146,710519,0.0-46.0-5.0-0.0-1.0-2.0,,,,,,,,,,1.0,1.0,,,,5c929e7b18adb600131a667a,11:46:53,03/04/2024
,"<div style=""font-size: 10rem; color: #0000FF"">C</div>",,ospan,letter,8RQYeWtryAhJR2K2S2p8z2QC1zd2,html-keyboard-response,147,711532,0.0-46.0-5.0-0.0-1.0-3.0,,,,,,,,,,,,,,,5c929e7b18adb600131a667a,11:46:53,03/04/2024
936.0,,,ospan,symmetry,8RQYeWtryAhJR2K2S2p8z2QC1zd2,symmetry-judgement-task,148,714520,0.0-46.0-5.0-0.0-1.0-4.0,,,,,,,,,,1.0,1.0,,,,5c929e7b18adb600131a667a,11:46:53,03/04/2024
,"<div style=""font-size: 10rem; color: #0000FF"">P</div>",,ospan,letter,8RQYeWtryAhJR2K2S2p8z2QC1zd2,html-keyboard-response,149,715530,0.0-46.0-5.0-0.0-1.0-5.0,,,,,,,,,,,,,,,5c929e7b18adb600131a667a,11:46:53,03/04/2024
1093.0,,,ospan,symmetry,8RQYeWtryAhJR2K2S2p8z2QC1zd2,symmetry-judgement-task,150,718668,0.0-46.0-5.0-0.0-1.0-6.0,,,,,,,,,,1.0,1.0,,,,5c929e7b18adb600131a667a,11:46:53,03/04/2024
,"<div style=""font-size: 10rem; color: #0000FF"">H</div>",,ospan,letter,8RQYeWtryAhJR2K2S2p8z2QC1zd2,html-keyboard-response,151,719674,0.0-46.0-5.0-0.0-1.0-7.0,,,,,,,,,,,,,,,5c929e7b18adb600131a667a,11:46:53,03/04/2024
927.0,,,ospan,symmetry,8RQYeWtryAhJR2K2S2p8z2QC1zd2,symmetry-judgement-task,152,722635,0.0-46.0-5.0-0.0-1.0-8.0,,,,,,,,,,1.0,1.0,,,,5c929e7b18adb600131a667a,11:46:53,03/04/2024
,"<div style=""font-size: 10rem; color: #0000FF"">Q</div>",,ospan,letter,8RQYeWtryAhJR2K2S2p8z2QC1zd2,html-keyboard-response,153,723644,0.0-46.0-5.0-0.0-1.0-9.0,,,,,,,,,,,,,,,5c929e7b18adb600131a667a,11:46:53,03/04/2024
800.0,,,ospan,symmetry,8RQYeWtryAhJR2K2S2p8z2QC1zd2,symmetry-judgement-task,154,726462,0.0-46.0-5.0-0.0-1.0-10.0,,,,,,,,,,1.0,1.0,,,,5c929e7b18adb600131a667a,11:46:53,03/04/2024
,"<div style=""font-size: 10rem; color: #0000FF"">L</div>",,ospan,letter,8RQYeWtryAhJR2K2S2p8z2QC1zd2,html-keyboard-response,155,727476,0.0-46.0-5.0-0.0-1.0-11.0,,,,,,,,,,,,,,,5c929e7b18adb600131a667a,11:46:53,03/04/2024
6016.199999809265,"<div class = numbox><p style=""font-size: 2.4rem"">Please recall the letters you saw to the best of your ability. If you do not remember a particular letter, use the SKIP button.<br><b>(When you are ready to lock in your answer, press ENTER)</b></p><button id = button_1 class = ""square num-button"" onclick = ""recordClick(this)""><div class = content><div class = numbers>C</div></div></button><button id = button_2 class = ""square num-button"" onclick = ""recordClick(this)""><div class = content><div class = numbers>G</div></div></button><button id = button_3 class = ""square num-button"" onclick = ""recordClick(this)""><div class = content><div class = numbers>H</div></div></button><button id = button_4 class = ""square num-button"" onclick = ""recordClick(this)""><div class = content><div class = numbers>J</div></div></button><button id = button_5 class = ""square num-button"" onclick = ""recordClick(this)""><div class = content><div class = numbers>K</div></div></button><button id = button_6 class = ""square num-button"" onclick = ""recordClick(this)""><div class = content><div class = numbers>L</div></div></button><button id = button_7 class = ""square num-button"" onclick = ""recordClick(this)""><div class = content><div class = numbers>N</div></div></button><button id = button_8 class = ""square num-button"" onclick = ""recordClick(this)""><div class = content><div class = numbers>P</div></div></button><button id = button_9 class = ""square num-button"" onclick = ""recordClick(this)""><div class = content><div class = numbers>Q</div></div></button><button id = button_10 class = ""square num-button"" onclick = ""recordClick(this)""><div class = content><div class = numbers>R</div></div></button><button id = button_11 class = ""square num-button"" onclick = ""recordClick(this)""><div class = content><div class = numbers>S</div></div></button><button id = button_12 class = ""square num-button"" onclick = ""recordClick(this)""><div class = content><div class = numbers>Y</div></div></button><button class = clear_button id = ""ClearButton"" onclick = ""clearResponse()"">BACKSPACE</button><button class = blank_button id = ""BlankButton"" onclick = ""blankResponse()"">SKIP</button><p style=""font-size: 2.4rem""><u><b>Current Answer:</b></u></p><br><br><div id=echoed_txt style=""font-size: 5rem; color:blue;""><b></b></div></div>",enter,ospan,retrieval,8RQYeWtryAhJR2K2S2p8z2QC1zd2,html-keyboard-response,156,734244,0.0-46.0-5.0-0.0-2.0,21,21,21,6.0,"[""S"",""C"",""P"",""H"",""Q"",""L""]","[""S"",""C"",""P"",""H"",""Q"",""L""]",1.0,6.0,,,,,,,5c929e7b18adb600131a667a,11:46:53,03/04/2024
833.7999997138977,[''],0,ospan,feedback,8RQYeWtryAhJR2K2S2p8z2QC1zd2,html-button-response,157,735592,0.0-46.0-5.0-0.0-3.0,,,,,,,,,,,,100.0,0.0,,5c929e7b18adb600131a667a,11:46:53,03/04/2024
,"<p style=""font-size:75px;"">...</p>",,ospan,iti,8RQYeWtryAhJR2K2S2p8z2QC1zd2,html-keyboard-response,158,736605,0.0-46.0-5.0-1.0-0.0,,,,,,,,,,,,,,,5c929e7b18adb600131a667a,11:46:53,03/04/2024
1083.0,,,ospan,symmetry,8RQYeWtryAhJR2K2S2p8z2QC1zd2,symmetry-judgement-task,159,738780,0.0-46.0-5.0-1.0-1.0-0.0,,,,,,,,,,1.0,1.0,,,,5c929e7b18adb600131a667a,11:46:53,03/04/2024
,"<div style=""font-size: 10rem; color: #0000FF"">P</div>",,ospan,letter,8RQYeWtryAhJR2K2S2p8z2QC1zd2,html-keyboard-response,160,739791,0.0-46.0-5.0-1.0-1.0-1.0,,,,,,,,,,,,,,,5c929e7b18adb600131a667a,11:46:53,03/04/2024
816.0,,,ospan,symmetry,8RQYeWtryAhJR2K2S2p8z2QC1zd2,symmetry-judgement-task,161,742449,0.0-46.0-5.0-1.0-1.0-2.0,,,,,,,,,,1.0,1.0,,,,5c929e7b18adb600131a667a,11:46:53,03/04/2024
,"<div style=""font-size: 10rem; color: #0000FF"">Y</div>",,ospan,letter,8RQYeWtryAhJR2K2S2p8z2QC1zd2,html-keyboard-response,162,743455,0.0-46.0-5.0-1.0-1.0-3.0,,,,,,,,,,,,,,,5c929e7b18adb600131a667a,11:46:53,03/04/2024
839.0,,,ospan,symmetry,8RQYeWtryAhJR2K2S2p8z2QC1zd2,symmetry-judgement-task,163,746360,0.0-46.0-5.0-1.0-1.0-4.0,,,,,,,,,,1.0,1.0,,,,5c929e7b18adb600131a667a,11:46:53,03/04/2024
,"<div style=""font-size: 10rem; color: #0000FF"">N</div>",,ospan,letter,8RQYeWtryAhJR2K2S2p8z2QC1zd2,html-keyboard-response,164,747371,0.0-46.0-5.0-1.0-1.0-5.0,,,,,,,,,,,,,,,5c929e7b18adb600131a667a,11:46:53,03/04/2024
948.0,,,ospan,symmetry,8RQYeWtryAhJR2K2S2p8z2QC1zd2,symmetry-judgement-task,165,750354,0.0-46.0-5.0-1.0-1.0-6.0,,,,,,,,,,1.0,1.0,,,,5c929e7b18adb600131a667a,11:46:53,03/04/2024
,"<div style=""font-size: 10rem; color: #0000FF"">G</div>",,ospan,letter,8RQYeWtryAhJR2K2S2p8z2QC1zd2,html-keyboard-response,166,751368,0.0-46.0-5.0-1.0-1.0-7.0,,,,,,,,,,,,,,,5c929e7b18adb600131a667a,11:46:53,03/04/2024
754.0,,,ospan,symmetry,8RQYeWtryAhJR2K2S2p8z2QC1zd2,symmetry-judgement-task,167,754183,0.0-46.0-5.0-1.0-1.0-8.0,,,,,,,,,,1.0,1.0,,,,5c929e7b18adb600131a667a,11:46:53,03/04/2024
,"<div style=""font-size: 10rem; color: #0000FF"">Q</div>",,ospan,letter,8RQYeWtryAhJR2K2S2p8z2QC1zd2,html-keyboard-response,168,755185,0.0-46.0-5.0-1.0-1.0-9.0,,,,,,,,,,,,,,,5c929e7b18adb600131a667a,11:46:53,03/04/2024
691.0,,,ospan,symmetry,8RQYeWtryAhJR2K2S2p8z2QC1zd2,symmetry-judgement-task,169,757932,0.0-46.0-5.0-1.0-1.0-10.0,,,,,,,,,,1.0,1.0,,,,5c929e7b18adb600131a667a,11:46:53,03/04/2024
,"<div style=""font-size: 10rem; color: #0000FF"">J</div>",,ospan,letter,8RQYeWtryAhJR2K2S2p8z2QC1zd2,html-keyboard-response,170,758949,0.0-46.0-5.0-1.0-1.0-11.0,,,,,,,,,,,,,,,5c929e7b18adb600131a667a,11:46:53,03/04/2024
774.0,,,ospan,symmetry,8RQYeWtryAhJR2K2S2p8z2QC1zd2,symmetry-judgement-task,171,761757,0.0-46.0-5.0-1.0-1.0-12.0,,,,,,,,,,1.0,1.0,,,,5c929e7b18adb600131a667a,11:46:53,03/04/2024
,"<div style=""font-size: 10rem; color: #0000FF"">S</div>",,ospan,letter,8RQYeWtryAhJR2K2S2p8z2QC1zd2,html-keyboard-response,172,762764,0.0-46.0-5.0-1.0-1.0-13.0,,,,,,,,,,,,,,,5c929e7b18adb600131a667a,11:46:53,03/04/2024
6243.299999713898,"<div class = numbox><p style=""font-size: 2.4rem"">Please recall the letters you saw to the best of your ability. If you do not remember a particular letter, use the SKIP button.<br><b>(When you are ready to lock in your answer, press ENTER)</b></p><button id = button_1 class = ""square num-button"" onclick = ""recordClick(this)""><div class = content><div class = numbers>C</div></div></button><button id = button_2 class = ""square num-button"" onclick = ""recordClick(this)""><div class = content><div class = numbers>G</div></div></button><button id = button_3 class = ""square num-button"" onclick = ""recordClick(this)""><div class = content><div class = numbers>H</div></div></button><button id = button_4 class = ""square num-button"" onclick = ""recordClick(this)""><div class = content><div class = numbers>J</div></div></button><button id = button_5 class = ""square num-button"" onclick = ""recordClick(this)""><div class = content><div class = numbers>K</div></div></button><button id = button_6 class = ""square num-button"" onclick = ""recordClick(this)""><div class = content><div class = numbers>L</div></div></button><button id = button_7 class = ""square num-button"" onclick = ""recordClick(this)""><div class = content><div class = numbers>N</div></div></button><button id = button_8 class = ""square num-button"" onclick = ""recordClick(this)""><div class = content><div class = numbers>P</div></div></button><button id = button_9 class = ""square num-button"" onclick = ""recordClick(this)""><div class = content><div class = numbers>Q</div></div></button><button id = button_10 class = ""square num-button"" onclick = ""recordClick(this)""><div class = content><div class = numbers>R</div></div></button><button id = button_11 class = ""square num-button"" onclick = ""recordClick(this)""><div class = content><div class = numbers>S</div></div></button><button id = button_12 class = ""square num-button"" onclick = ""recordClick(this)""><div class = content><div class = numbers>Y</div></div></button><button class = clear_button id = ""ClearButton"" onclick = ""clearResponse()"">BACKSPACE</button><button class = blank_button id = ""BlankButton"" onclick = ""blankResponse()"">SKIP</button><p style=""font-size: 2.4rem""><u><b>Current Answer:</b></u></p><br><br><div id=echoed_txt style=""font-size: 5rem; color:blue;""><b></b></div></div>",enter,ospan,retrieval,8RQYeWtryAhJR2K2S2p8z2QC1zd2,html-keyboard-response,173,769759,0.0-46.0-5.0-1.0-2.0,28,28,28,7.0,"[""P"",""Y"",""N"",""G"",""Q"",""J"",""S""]","[""P"",""Y"",""N"",""G"",""Q"",""J"",""S""]",1.0,7.0,,,,,,,5c929e7b18adb600131a667a,11:46:53,03/04/2024
683.0999999046326,[''],0,ospan,feedback,8RQYeWtryAhJR2K2S2p8z2QC1zd2,html-button-response,174,770960,0.0-46.0-5.0-1.0-3.0,,,,,,,,,,,,100.0,0.0,,5c929e7b18adb600131a667a,11:46:53,03/04/2024
,"<p style=""font-size:75px;"">...</p>",,ospan,iti,8RQYeWtryAhJR2K2S2p8z2QC1zd2,html-keyboard-response,175,771965,0.0-46.0-6.0-0.0-0.0,,,,,,,,,,,,,,,5c929e7b18adb600131a667a,11:46:53,03/04/2024
752.0,,,ospan,symmetry,8RQYeWtryAhJR2K2S2p8z2QC1zd2,symmetry-judgement-task,176,773982,0.0-46.0-6.0-0.0-1.0-0.0,,,,,,,,,,1.0,1.0,,,,5c929e7b18adb600131a667a,11:46:53,03/04/2024
,"<div style=""font-size: 10rem; color: #0000FF"">Q</div>",,ospan,letter,8RQYeWtryAhJR2K2S2p8z2QC1zd2,html-keyboard-response,177,774983,0.0-46.0-6.0-0.0-1.0-1.0,,,,,,,,,,,,,,,5c929e7b18adb600131a667a,11:46:53,03/04/2024
791.0,,,ospan,symmetry,8RQYeWtryAhJR2K2S2p8z2QC1zd2,symmetry-judgement-task,178,777808,0.0-46.0-6.0-0.0-1.0-2.0,,,,,,,,,,1.0,1.0,,,,5c929e7b18adb600131a667a,11:46:53,03/04/2024
,"<div style=""font-size: 10rem; color: #0000FF"">P</div>",,ospan,letter,8RQYeWtryAhJR2K2S2p8z2QC1zd2,html-keyboard-response,179,778811,0.0-46.0-6.0-0.0-1.0-3.0,,,,,,,,,,,,,,,5c929e7b18adb600131a667a,11:46:53,03/04/2024
917.0,,,ospan,symmetry,8RQYeWtryAhJR2K2S2p8z2QC1zd2,symmetry-judgement-task,180,781774,0.0-46.0-6.0-0.0-1.0-4.0,,,,,,,,,,1.0,1.0,,,,5c929e7b18adb600131a667a,11:46:53,03/04/2024
,"<div style=""font-size: 10rem; color: #0000FF"">N</div>",,ospan,letter,8RQYeWtryAhJR2K2S2p8z2QC1zd2,html-keyboard-response,181,782791,0.0-46.0-6.0-0.0-1.0-5.0,,,,,,,,,,,,,,,5c929e7b18adb600131a667a,11:46:53,03/04/2024
707.0,,,ospan,symmetry,8RQYeWtryAhJR2K2S2p8z2QC1zd2,symmetry-judgement-task,182,785486,0.0-46.0-6.0-0.0-1.0-6.0,,,,,,,,,,1.0,1.0,,,,5c929e7b18adb600131a667a,11:46:53,03/04/2024
,"<div style=""font-size: 10rem; color: #0000FF"">C</div>",,ospan,letter,8RQYeWtryAhJR2K2S2p8z2QC1zd2,html-keyboard-response,183,786491,0.0-46.0-6.0-0.0-1.0-7.0,,,,,,,,,,,,,,,5c929e7b18adb600131a667a,11:46:53,03/04/2024
967.0,,,ospan,symmetry,8RQYeWtryAhJR2K2S2p8z2QC1zd2,symmetry-judgement-task,184,789463,0.0-46.0-6.0-0.0-1.0-8.0,,,,,,,,,,1.0,1.0,,,,5c929e7b18adb600131a667a,11:46:53,03/04/2024
,"<div style=""font-size: 10rem; color: #0000FF"">S</div>",,ospan,letter,8RQYeWtryAhJR2K2S2p8z2QC1zd2,html-keyboard-response,185,790472,0.0-46.0-6.0-0.0-1.0-9.0,,,,,,,,,,,,,,,5c929e7b18adb600131a667a,11:46:53,03/04/2024
4814.299999713898,"<div class = numbox><p style=""font-size: 2.4rem"">Please recall the letters you saw to the best of your ability. If you do not remember a particular letter, use the SKIP button.<br><b>(When you are ready to lock in your answer, press ENTER)</b></p><button id = button_1 class = ""square num-button"" onclick = ""recordClick(this)""><div class = content><div class = numbers>C</div></div></button><button id = button_2 class = ""square num-button"" onclick = ""recordClick(this)""><div class = content><div class = numbers>G</div></div></button><button id = button_3 class = ""square num-button"" onclick = ""recordClick(this)""><div class = content><div class = numbers>H</div></div></button><button id = button_4 class = ""square num-button"" onclick = ""recordClick(this)""><div class = content><div class = numbers>J</div></div></button><button id = button_5 class = ""square num-button"" onclick = ""recordClick(this)""><div class = content><div class = numbers>K</div></div></button><button id = button_6 class = ""square num-button"" onclick = ""recordClick(this)""><div class = content><div class = numbers>L</div></div></button><button id = button_7 class = ""square num-button"" onclick = ""recordClick(this)""><div class = content><div class = numbers>N</div></div></button><button id = button_8 class = ""square num-button"" onclick = ""recordClick(this)""><div class = content><div class = numbers>P</div></div></button><button id = button_9 class = ""square num-button"" onclick = ""recordClick(this)""><div class = content><div class = numbers>Q</div></div></button><button id = button_10 class = ""square num-button"" onclick = ""recordClick(this)""><div class = content><div class = numbers>R</div></div></button><button id = button_11 class = ""square num-button"" onclick = ""recordClick(this)""><div class = content><div class = numbers>S</div></div></button><button id = button_12 class = ""square num-button"" onclick = ""recordClick(this)""><div class = content><div class = numbers>Y</div></div></button><button class = clear_button id = ""ClearButton"" onclick = ""clearResponse()"">BACKSPACE</button><button class = blank_button id = ""BlankButton"" onclick = ""blankResponse()"">SKIP</button><p style=""font-size: 2.4rem""><u><b>Current Answer:</b></u></p><br><br><div id=echoed_txt style=""font-size: 5rem; color:blue;""><b></b></div></div>",enter,ospan,retrieval,8RQYeWtryAhJR2K2S2p8z2QC1zd2,html-keyboard-response,186,796045,0.0-46.0-6.0-0.0-2.0,33,33,33,5.0,"[""Q"",""P"",""N"",""C"",""S""]","[""Q"",""P"",""N"",""C"",""S""]",1.0,5.0,,,,,,,5c929e7b18adb600131a667a,11:46:53,03/04/2024
755.1999998092651,[''],0,ospan,feedback,8RQYeWtryAhJR2K2S2p8z2QC1zd2,html-button-response,187,797308,0.0-46.0-6.0-0.0-3.0,,,,,,,,,,,,100.0,0.0,,5c929e7b18adb600131a667a,11:46:53,03/04/2024
,"<p style=""font-size:75px;"">...</p>",,ospan,iti,8RQYeWtryAhJR2K2S2p8z2QC1zd2,html-keyboard-response,188,798320,0.0-46.0-6.0-1.0-0.0,,,,,,,,,,,,,,,5c929e7b18adb600131a667a,11:46:53,03/04/2024
996.0,,,ospan,symmetry,8RQYeWtryAhJR2K2S2p8z2QC1zd2,symmetry-judgement-task,189,800604,0.0-46.0-6.0-1.0-1.0-0.0,,,,,,,,,,1.0,1.0,,,,5c929e7b18adb600131a667a,11:46:53,03/04/2024
,"<div style=""font-size: 10rem; color: #0000FF"">H</div>",,ospan,letter,8RQYeWtryAhJR2K2S2p8z2QC1zd2,html-keyboard-response,190,801618,0.0-46.0-6.0-1.0-1.0-1.0,,,,,,,,,,,,,,,5c929e7b18adb600131a667a,11:46:53,03/04/2024
589.0,,,ospan,symmetry,8RQYeWtryAhJR2K2S2p8z2QC1zd2,symmetry-judgement-task,191,804212,0.0-46.0-6.0-1.0-1.0-2.0,,,,,,,,,,1.0,1.0,,,,5c929e7b18adb600131a667a,11:46:53,03/04/2024
,"<div style=""font-size: 10rem; color: #0000FF"">Q</div>",,ospan,letter,8RQYeWtryAhJR2K2S2p8z2QC1zd2,html-keyboard-response,192,805218,0.0-46.0-6.0-1.0-1.0-3.0,,,,,,,,,,,,,,,5c929e7b18adb600131a667a,11:46:53,03/04/2024
1064.0,,,ospan,symmetry,8RQYeWtryAhJR2K2S2p8z2QC1zd2,symmetry-judgement-task,193,808318,0.0-46.0-6.0-1.0-1.0-4.0,,,,,,,,,,1.0,1.0,,,,5c929e7b18adb600131a667a,11:46:53,03/04/2024
,"<div style=""font-size: 10rem; color: #0000FF"">J</div>",,ospan,letter,8RQYeWtryAhJR2K2S2p8z2QC1zd2,html-keyboard-response,194,809332,0.0-46.0-6.0-1.0-1.0-5.0,,,,,,,,,,,,,,,5c929e7b18adb600131a667a,11:46:53,03/04/2024
720.0,,,ospan,symmetry,8RQYeWtryAhJR2K2S2p8z2QC1zd2,symmetry-judgement-task,195,812071,0.0-46.0-6.0-1.0-1.0-6.0,,,,,,,,,,1.0,1.0,,,,5c929e7b18adb600131a667a,11:46:53,03/04/2024
,"<div style=""font-size: 10rem; color: #0000FF"">C</div>",,ospan,letter,8RQYeWtryAhJR2K2S2p8z2QC1zd2,html-keyboard-response,196,813080,0.0-46.0-6.0-1.0-1.0-7.0,,,,,,,,,,,,,,,5c929e7b18adb600131a667a,11:46:53,03/04/2024
989.0,,,ospan,symmetry,8RQYeWtryAhJR2K2S2p8z2QC1zd2,symmetry-judgement-task,197,816115,0.0-46.0-6.0-1.0-1.0-8.0,,,,,,,,,,1.0,1.0,,,,5c929e7b18adb600131a667a,11:46:53,03/04/2024
,"<div style=""font-size: 10rem; color: #0000FF"">S</div>",,ospan,letter,8RQYeWtryAhJR2K2S2p8z2QC1zd2,html-keyboard-response,198,817128,0.0-46.0-6.0-1.0-1.0-9.0,,,,,,,,,,,,,,,5c929e7b18adb600131a667a,11:46:53,03/04/2024
621.0,,,ospan,symmetry,8RQYeWtryAhJR2K2S2p8z2QC1zd2,symmetry-judgement-task,199,819826,0.0-46.0-6.0-1.0-1.0-10.0,,,,,,,,,,1.0,1.0,,,,5c929e7b18adb600131a667a,11:46:53,03/04/2024
,"<div style=""font-size: 10rem; color: #0000FF"">N</div>",,ospan,letter,8RQYeWtryAhJR2K2S2p8z2QC1zd2,html-keyboard-response,200,820828,0.0-46.0-6.0-1.0-1.0-11.0,,,,,,,,,,,,,,,5c929e7b18adb600131a667a,11:46:53,03/04/2024
1257.0,,,ospan,symmetry,8RQYeWtryAhJR2K2S2p8z2QC1zd2,symmetry-judgement-task,201,824126,0.0-46.0-6.0-1.0-1.0-12.0,,,,,,,,,,1.0,1.0,,,,5c929e7b18adb600131a667a,11:46:53,03/04/2024
,"<div style=""font-size: 10rem; color: #0000FF"">R</div>",,ospan,letter,8RQYeWtryAhJR2K2S2p8z2QC1zd2,html-keyboard-response,202,825143,0.0-46.0-6.0-1.0-1.0-13.0,,,,,,,,,,,,,,,5c929e7b18adb600131a667a,11:46:53,03/04/2024
791.0,,,ospan,symmetry,8RQYeWtryAhJR2K2S2p8z2QC1zd2,symmetry-judgement-task,203,827926,0.0-46.0-6.0-1.0-1.0-14.0,,,,,,,,,,1.0,1.0,,,,5c929e7b18adb600131a667a,11:46:53,03/04/2024
,"<div style=""font-size: 10rem; color: #0000FF"">Y</div>",,ospan,letter,8RQYeWtryAhJR2K2S2p8z2QC1zd2,html-keyboard-response,204,828942,0.0-46.0-6.0-1.0-1.0-15.0,,,,,,,,,,,,,,,5c929e7b18adb600131a667a,11:46:53,03/04/2024
6038.900000095367,"<div class = numbox><p style=""font-size: 2.4rem"">Please recall the letters you saw to the best of your ability. If you do not remember a particular letter, use the SKIP button.<br><b>(When you are ready to lock in your answer, press ENTER)</b></p><button id = button_1 class = ""square num-button"" onclick = ""recordClick(this)""><div class = content><div class = numbers>C</div></div></button><button id = button_2 class = ""square num-button"" onclick = ""recordClick(this)""><div class = content><div class = numbers>G</div></div></button><button id = button_3 class = ""square num-button"" onclick = ""recordClick(this)""><div class = content><div class = numbers>H</div></div></button><button id = button_4 class = ""square num-button"" onclick = ""recordClick(this)""><div class = content><div class = numbers>J</div></div></button><button id = button_5 class = ""square num-button"" onclick = ""recordClick(this)""><div class = content><div class = numbers>K</div></div></button><button id = button_6 class = ""square num-button"" onclick = ""recordClick(this)""><div class = content><div class = numbers>L</div></div></button><button id = button_7 class = ""square num-button"" onclick = ""recordClick(this)""><div class = content><div class = numbers>N</div></div></button><button id = button_8 class = ""square num-button"" onclick = ""recordClick(this)""><div class = content><div class = numbers>P</div></div></button><button id = button_9 class = ""square num-button"" onclick = ""recordClick(this)""><div class = content><div class = numbers>Q</div></div></button><button id = button_10 class = ""square num-button"" onclick = ""recordClick(this)""><div class = content><div class = numbers>R</div></div></button><button id = button_11 class = ""square num-button"" onclick = ""recordClick(this)""><div class = content><div class = numbers>S</div></div></button><button id = button_12 class = ""square num-button"" onclick = ""recordClick(this)""><div class = content><div class = numbers>Y</div></div></button><button class = clear_button id = ""ClearButton"" onclick = ""clearResponse()"">BACKSPACE</button><button class = blank_button id = ""BlankButton"" onclick = ""blankResponse()"">SKIP</button><p style=""font-size: 2.4rem""><u><b>Current Answer:</b></u></p><br><br><div id=echoed_txt style=""font-size: 5rem; color:blue;""><b></b></div></div>",enter,ospan,retrieval,8RQYeWtryAhJR2K2S2p8z2QC1zd2,html-keyboard-response,205,835746,0.0-46.0-6.0-1.0-2.0,41,38,33,8.0,"[""H"",""G"",""C"",""Q"",""S"",""N"",""R"",""Y""]","[""H"",""Q"",""J"",""C"",""S"",""N"",""R"",""Y""]",0.0,5.0,,,,,,,5c929e7b18adb600131a667a,11:46:53,03/04/2024
768.6999998092651,[''],0,ospan,feedback,8RQYeWtryAhJR2K2S2p8z2QC1zd2,html-button-response,206,837020,0.0-46.0-6.0-1.0-3.0,,,,,,,,,,,,100.0,0.0,,5c929e7b18adb600131a667a,11:46:53,03/04/2024
12429.099999904633,,{'Q0': 'All was clear and easy to understand'},ospan,survey_ospan,8RQYeWtryAhJR2K2S2p8z2QC1zd2,lmdlab-survey-text,207,850211,0.0-46.0-7.0,,,,,,,,,,,,,,8RQYeWtryAhJR2K2S2p8z2QC1zd2,5c929e7b18adb600131a667a,11:46:53,03/04/2024
794.0999999046326,<p><p style='font-size: 3rem'>Great work!<br><br>This completes the symmetry and memory task.</p><br><br><br>,0,ospan,finish,8RQYeWtryAhJR2K2S2p8z2QC1zd2,html-button-response,208,851008,0.0-46.0-8.0,41,38,33,,,,,,,,,100.0,,,5c929e7b18adb600131a667a,11:46:53,03/04/2024
