rt,stimulus,response,exp_name,exp_stage,subjectID,trial_type,trial_index,time_elapsed,internal_node_id,ospan_shown,ospan_total,ospan_abs,length,resp_actual,resp_correct,full_correct,num_correct,feedback,correct,math_acc,math_warning,prolificID,start_time,date
4080.7000000011176,<div class = 'left_align' style='font-size: 3.25rem; line-height: 1.3;'><p class = 'center_align'><b>Welcome to the Symmetry and Memory Task</b><br><br><br><br></p>Press 'continue' to show the instructions.<br><br><br><br></div>,0,ospan,instruct,WAj9Sbm6P4WeyaFWNja2xwwqrLp1,html-button-response,54,725980,0.0-46.0-0.0-0.0-0.0,,,,,,,,,,,,,5b758de6d74fcb00010d7f0b,15:01:08,04/04/2024
300365.0,"<div class = 'left_align' style='font-size: 3.25rem; line-height: 1.3;'><p class = 'center_align'><b>Symmetry and Memory Task</b><br><br></p>In this task, you will try to memorize letters you see on the screen<br>while you also view black and white grid pictures.<br><br>In the next few minutes, you will have some practice to get you familiar<br>with how the task works.<br><br>It may be difficult sometimes, but please do not worry about making mistakes!<br><br>We will begin by practicing the letter part of the task.<br><br><br><br></div>",0,ospan,instruct,WAj9Sbm6P4WeyaFWNja2xwwqrLp1,html-button-response,55,1026606,0.0-46.0-0.0-0.0-1.0,,,,,,,,,,,,,5b758de6d74fcb00010d7f0b,15:01:08,04/04/2024
85665.79999999888,"<div class = 'left_align' style='font-size: 3.25rem; line-height: 1.3;'>For this practice part, letters will appear on the screen one at a time.<br><br>Try to remember each letter in the order presented.<br><br>After some letters have been shown, you will see a response screen. Your<br>goal is to report the letters you saw <b>in order</b>. If you do not remember<br>a particular letter, you will have the option to leave it blank.<br><br><br><br></div>",0,ospan,instruct,WAj9Sbm6P4WeyaFWNja2xwwqrLp1,html-button-response,56,1112525,0.0-46.0-0.0-0.0-2.0,,,,,,,,,,,,,5b758de6d74fcb00010d7f0b,15:01:08,04/04/2024
12581.300000000745,"<div class = 'left_align' style='font-size: 3.25rem; line-height: 1.3;'>Remember, it is very important to get the letters in the same<br>order as you see them.<br><br>When you are ready, you may begin the letter practice.</div><br><br><br><br>",0,ospan,instruct,WAj9Sbm6P4WeyaFWNja2xwwqrLp1,html-button-response,57,1125381,0.0-46.0-0.0-0.0-3.0,,,,,,,,,,,,,5b758de6d74fcb00010d7f0b,15:01:08,04/04/2024
,"<p style=""font-size:75px;"">...</p>",,ospan,iti,WAj9Sbm6P4WeyaFWNja2xwwqrLp1,html-keyboard-response,58,1126659,0.0-46.0-0.0-1.0-0.0,,,,,,,,,,,,,5b758de6d74fcb00010d7f0b,15:01:08,04/04/2024
,"<div style=""font-size: 10rem; color: #0000FF"">P</div>",,ospan,letter,WAj9Sbm6P4WeyaFWNja2xwwqrLp1,html-keyboard-response,59,1127679,0.0-46.0-0.0-1.0-1.0,,,,,,,,,,,,,5b758de6d74fcb00010d7f0b,15:01:08,04/04/2024
,"<div style=""font-size: 10rem; color: #0000FF"">C</div>",,ospan,letter,WAj9Sbm6P4WeyaFWNja2xwwqrLp1,html-keyboard-response,60,1129446,0.0-46.0-0.0-1.0-2.0,,,,,,,,,,,,,5b758de6d74fcb00010d7f0b,15:01:08,04/04/2024
39731.199999999255,"<div class = numbox><p style=""font-size: 2.4rem"">Please recall the letters you saw to the best of your ability. If you do not remember a particular letter, use the SKIP button.<br><b>(When you are ready to lock in your answer, press ENTER)</b></p><button id = button_1 class = ""square num-button"" onclick = ""recordClick(this)""><div class = content><div class = numbers>C</div></div></button><button id = button_2 class = ""square num-button"" onclick = ""recordClick(this)""><div class = content><div class = numbers>G</div></div></button><button id = button_3 class = ""square num-button"" onclick = ""recordClick(this)""><div class = content><div class = numbers>H</div></div></button><button id = button_4 class = ""square num-button"" onclick = ""recordClick(this)""><div class = content><div class = numbers>J</div></div></button><button id = button_5 class = ""square num-button"" onclick = ""recordClick(this)""><div class = content><div class = numbers>K</div></div></button><button id = button_6 class = ""square num-button"" onclick = ""recordClick(this)""><div class = content><div class = numbers>L</div></div></button><button id = button_7 class = ""square num-button"" onclick = ""recordClick(this)""><div class = content><div class = numbers>N</div></div></button><button id = button_8 class = ""square num-button"" onclick = ""recordClick(this)""><div class = content><div class = numbers>P</div></div></button><button id = button_9 class = ""square num-button"" onclick = ""recordClick(this)""><div class = content><div class = numbers>Q</div></div></button><button id = button_10 class = ""square num-button"" onclick = ""recordClick(this)""><div class = content><div class = numbers>R</div></div></button><button id = button_11 class = ""square num-button"" onclick = ""recordClick(this)""><div class = content><div class = numbers>S</div></div></button><button id = button_12 class = ""square num-button"" onclick = ""recordClick(this)""><div class = content><div class = numbers>Y</div></div></button><button class = clear_button id = ""ClearButton"" onclick = ""clearResponse()"">BACKSPACE</button><button class = blank_button id = ""BlankButton"" onclick = ""blankResponse()"">SKIP</button><p style=""font-size: 2.4rem""><u><b>Current Answer:</b></u></p><br><br><div id=echoed_txt style=""font-size: 5rem; color:blue;""><b></b></div></div>",enter,ospan,retrieval,WAj9Sbm6P4WeyaFWNja2xwwqrLp1,html-keyboard-response,61,1169951,0.0-46.0-0.0-1.0-3.0,NA,NA,NA,2.0,"[""C"",""C"",""C"",""_""]","[""P"",""C""]",0.0,1.0,"['<font color=""red"">P</font>', '<font color=""green"">C</font>']",,,,5b758de6d74fcb00010d7f0b,15:01:08,04/04/2024
2489.800000000745,"['<p style=""font-size:44px"">Letters:<br><br><br><font color=""red"">P</font> <font color=""green"">C</font></p><br><br>']",0,ospan,practice_feedback,WAj9Sbm6P4WeyaFWNja2xwwqrLp1,html-button-response,62,1172960,0.0-46.0-0.0-1.0-4.0,,,,,,,,,,,,,5b758de6d74fcb00010d7f0b,15:01:08,04/04/2024
,"<p style=""font-size:75px;"">...</p>",,ospan,iti,WAj9Sbm6P4WeyaFWNja2xwwqrLp1,html-keyboard-response,63,1173982,0.0-46.0-0.0-2.0-0.0,,,,,,,,,,,,,5b758de6d74fcb00010d7f0b,15:01:08,04/04/2024
,"<div style=""font-size: 10rem; color: #0000FF"">P</div>",,ospan,letter,WAj9Sbm6P4WeyaFWNja2xwwqrLp1,html-keyboard-response,64,1175000,0.0-46.0-0.0-2.0-1.0,,,,,,,,,,,,,5b758de6d74fcb00010d7f0b,15:01:08,04/04/2024
,"<div style=""font-size: 10rem; color: #0000FF"">N</div>",,ospan,letter,WAj9Sbm6P4WeyaFWNja2xwwqrLp1,html-keyboard-response,65,1176783,0.0-46.0-0.0-2.0-2.0,,,,,,,,,,,,,5b758de6d74fcb00010d7f0b,15:01:08,04/04/2024
,"<div style=""font-size: 10rem; color: #0000FF"">C</div>",,ospan,letter,WAj9Sbm6P4WeyaFWNja2xwwqrLp1,html-keyboard-response,66,1178553,0.0-46.0-0.0-2.0-3.0,,,,,,,,,,,,,5b758de6d74fcb00010d7f0b,15:01:08,04/04/2024
24099.900000000373,"<div class = numbox><p style=""font-size: 2.4rem"">Please recall the letters you saw to the best of your ability. If you do not remember a particular letter, use the SKIP button.<br><b>(When you are ready to lock in your answer, press ENTER)</b></p><button id = button_1 class = ""square num-button"" onclick = ""recordClick(this)""><div class = content><div class = numbers>C</div></div></button><button id = button_2 class = ""square num-button"" onclick = ""recordClick(this)""><div class = content><div class = numbers>G</div></div></button><button id = button_3 class = ""square num-button"" onclick = ""recordClick(this)""><div class = content><div class = numbers>H</div></div></button><button id = button_4 class = ""square num-button"" onclick = ""recordClick(this)""><div class = content><div class = numbers>J</div></div></button><button id = button_5 class = ""square num-button"" onclick = ""recordClick(this)""><div class = content><div class = numbers>K</div></div></button><button id = button_6 class = ""square num-button"" onclick = ""recordClick(this)""><div class = content><div class = numbers>L</div></div></button><button id = button_7 class = ""square num-button"" onclick = ""recordClick(this)""><div class = content><div class = numbers>N</div></div></button><button id = button_8 class = ""square num-button"" onclick = ""recordClick(this)""><div class = content><div class = numbers>P</div></div></button><button id = button_9 class = ""square num-button"" onclick = ""recordClick(this)""><div class = content><div class = numbers>Q</div></div></button><button id = button_10 class = ""square num-button"" onclick = ""recordClick(this)""><div class = content><div class = numbers>R</div></div></button><button id = button_11 class = ""square num-button"" onclick = ""recordClick(this)""><div class = content><div class = numbers>S</div></div></button><button id = button_12 class = ""square num-button"" onclick = ""recordClick(this)""><div class = content><div class = numbers>Y</div></div></button><button class = clear_button id = ""ClearButton"" onclick = ""clearResponse()"">BACKSPACE</button><button class = blank_button id = ""BlankButton"" onclick = ""blankResponse()"">SKIP</button><p style=""font-size: 2.4rem""><u><b>Current Answer:</b></u></p><br><br><div id=echoed_txt style=""font-size: 5rem; color:blue;""><b></b></div></div>",enter,ospan,retrieval,WAj9Sbm6P4WeyaFWNja2xwwqrLp1,html-keyboard-response,67,1203415,0.0-46.0-0.0-2.0-4.0,NA,NA,NA,3.0,"[""P"",""N"",""C""]","[""P"",""N"",""C""]",1.0,3.0,"['<font color=""green"">P</font>', '<font color=""green"">N</font>', '<font color=""green"">C</font>']",,,,5b758de6d74fcb00010d7f0b,15:01:08,04/04/2024
3182.0,"['<p style=""font-size:44px"">Letters:<br><br><br><font color=""green"">P</font> <font color=""green"">N</font> <font color=""green"">C</font></p><br><br>']",0,ospan,practice_feedback,WAj9Sbm6P4WeyaFWNja2xwwqrLp1,html-button-response,68,1207117,0.0-46.0-0.0-2.0-5.0,,,,,,,,,,,,,5b758de6d74fcb00010d7f0b,15:01:08,04/04/2024
31321.299999998882,"<div class = 'left_align' style='font-size: 3.25rem; line-height: 1.3;'>Now you will practice doing the <b>symmetry judgment part</b> of the experiment.<br><br>A black and white grid picture will appear on the screen and you have to judge if it is <br>symmetrical or asymetrical.<br><br>A picture is 'mirror' symmetrical if its left half is identical to the right half when flipped.<br>Here are examples of a symmetrical and an asymetrical picture:<br><br><center><img src='Stimuli/img/symm_instructions_extra.png' style='height:420px; width:900'></img></center><br>To judge symmetry, imagine you were to fold each picture down the middle, like a book –<br>would the left half match the right half when folded onto each other?<br><br></div><br>",0,ospan,instruct,WAj9Sbm6P4WeyaFWNja2xwwqrLp1,html-button-response,69,1238448,0.0-46.0-1.0-0.0-0.0,,,,,,,,,,,,,5b758de6d74fcb00010d7f0b,15:01:08,04/04/2024
9168.099999999627,"<div class = 'left_align' style='font-size: 3.25rem; line-height: 1.3;'>When you have viewed the picture and determined whether it is symmetrical or not,<br>you can <b>click the Yes or No button</b> below to answer.<br><br>If you take longer than 15 seconds, it will continue automatically<br>and record the answer as an error.</div><br>",0,ospan,instruct,WAj9Sbm6P4WeyaFWNja2xwwqrLp1,html-button-response,70,1247874,0.0-46.0-1.0-0.0-1.0,,,,,,,,,,,,,5b758de6d74fcb00010d7f0b,15:01:08,04/04/2024
274664.0,"<div class = 'left_align' style='font-size: 3.25rem; line-height: 1.3;'>It is <b>very</b> important that you make the symmetry judgment correctly.<br><br>It is also important that you try and judge the picture as quickly as you can.<br><br>When you are ready, click on the button below to try some practice problems.</div><br><br><br><br>",0,ospan,instruct,WAj9Sbm6P4WeyaFWNja2xwwqrLp1,html-button-response,71,1522808,0.0-46.0-1.0-0.0-2.0,,,,,,,,,,,,,5b758de6d74fcb00010d7f0b,15:01:08,04/04/2024
,,,ospan,symmetry,WAj9Sbm6P4WeyaFWNja2xwwqrLp1,symmetry-judgement-task,72,1548826,0.0-46.0-1.0-1.0-0.0,,,,,,,,,,0.0,,,5b758de6d74fcb00010d7f0b,15:01:08,04/04/2024
,"<p style=""color:red; font-size: 35px"">Incorrect</p>",,ospan,feedback,WAj9Sbm6P4WeyaFWNja2xwwqrLp1,html-keyboard-response,73,1549579,0.0-46.0-1.0-1.0-1.0,,,,,,,,,,,,,5b758de6d74fcb00010d7f0b,15:01:08,04/04/2024
,,,ospan,symmetry,WAj9Sbm6P4WeyaFWNja2xwwqrLp1,symmetry-judgement-task,74,1579401,0.0-46.0-1.0-1.0-2.0,,,,,,,,,,0.0,,,5b758de6d74fcb00010d7f0b,15:01:08,04/04/2024
,"<p style=""color:red; font-size: 35px"">Incorrect</p>",,ospan,feedback,WAj9Sbm6P4WeyaFWNja2xwwqrLp1,html-keyboard-response,75,1580163,0.0-46.0-1.0-1.0-3.0,,,,,,,,,,,,,5b758de6d74fcb00010d7f0b,15:01:08,04/04/2024
,,,ospan,symmetry,WAj9Sbm6P4WeyaFWNja2xwwqrLp1,symmetry-judgement-task,76,1607689,0.0-46.0-1.0-1.0-4.0,,,,,,,,,,0.0,,,5b758de6d74fcb00010d7f0b,15:01:08,04/04/2024
,"<p style=""color:red; font-size: 35px"">Incorrect</p>",,ospan,feedback,WAj9Sbm6P4WeyaFWNja2xwwqrLp1,html-keyboard-response,77,1608443,0.0-46.0-1.0-1.0-5.0,,,,,,,,,,,,,5b758de6d74fcb00010d7f0b,15:01:08,04/04/2024
3197.800000000745,"<p style=""font-size: 3rem;"">You only responded correctly on 0 of 3 symmetry judgments.<br><br><b>In the main task, you must try harder to answer accurately.</b></p><br><br>",0,ospan,practice,WAj9Sbm6P4WeyaFWNja2xwwqrLp1,html-button-response,78,1613671,0.0-46.0-1.0-2.0,,,,,,,,,,,,,5b758de6d74fcb00010d7f0b,15:01:08,04/04/2024
43390.5,"<div class = 'left_align' style='font-size: 3.25rem; line-height: 1.3;'>Now you will practice doing both parts of the experiment at the same time.<br><br>In the next practice set, you will be given one grid picture to judge.<br>Then letter will appear on the screen. Try to remember the letter.<br><br>It is <b>very important</b> to make the symmetry judgment as quickly and accurately as possible.<br><br>Just as before, once you have make the symmetry judgment, you can click Yes or No.<br><b>Note that you will no longer see Correct or Incorrect feedback.</div><br><br><br><br>",0,ospan,instruct,WAj9Sbm6P4WeyaFWNja2xwwqrLp1,html-button-response,79,1657333,0.0-46.0-2.0-0.0-0.0,,,,,,,,,,,,,5b758de6d74fcb00010d7f0b,15:01:08,04/04/2024
6313.299999998882,"<div class = 'left_align' style='font-size: 3.25rem; line-height: 1.3;'>After the letter goes away, another grid picture will appear, and then<br>another letter.<br><br>At the end of each set of letters and grids, you will recall the letters to the best<br>of your ability. Remember, try your best to get the letters in the correct order.<br><br>It is important to <b>quickly</b> and <b>accurately</b> make the symmetry judgments.</div><br><br><br><br>",0,ospan,instruct,WAj9Sbm6P4WeyaFWNja2xwwqrLp1,html-button-response,80,1663908,0.0-46.0-2.0-0.0-1.0,,,,,,,,,,,,,5b758de6d74fcb00010d7f0b,15:01:08,04/04/2024
10105.800000000745,"<div class = 'left_align' style='font-size: 3.25rem; line-height: 1.3;'>On the feedback screen, if you are not doing well at the symmetry judgments,<br>you will also see a warning in the middle. This indicates your percent <br>correct for the grid pictures for the entire experiment.<br><br>It is <b>very</b> important for you to keep accuracy at least at 85%: <u>We can only use<br>data where the participant was at least 85% accurate on the judgments.</u> Therefore,<br> please try your best to perform well on the symmetry judgments, <b>at the same time</b><br>doing your best to recall as many letters as possible.<br><br>Click the button to try some practice problems.</div><br><br><br><br>",0,ospan,instruct,WAj9Sbm6P4WeyaFWNja2xwwqrLp1,html-button-response,81,1674283,0.0-46.0-2.0-0.0-2.0,,,,,,,,,,,,,5b758de6d74fcb00010d7f0b,15:01:08,04/04/2024
,"<p style=""font-size:75px;"">...</p>",,ospan,iti,WAj9Sbm6P4WeyaFWNja2xwwqrLp1,html-keyboard-response,82,1675559,0.0-46.0-2.0-1.0-0.0,,,,,,,,,,,,,5b758de6d74fcb00010d7f0b,15:01:08,04/04/2024
,,,ospan,symmetry,WAj9Sbm6P4WeyaFWNja2xwwqrLp1,symmetry-judgement-task,83,1703053,0.0-46.0-2.0-1.0-1.0-0.0,,,,,,,,,,0.0,,,5b758de6d74fcb00010d7f0b,15:01:08,04/04/2024
,"<div style=""font-size: 10rem; color: #0000FF"">L</div>",,ospan,letter,WAj9Sbm6P4WeyaFWNja2xwwqrLp1,html-keyboard-response,84,1704062,0.0-46.0-2.0-1.0-1.0-1.0,,,,,,,,,,,,,5b758de6d74fcb00010d7f0b,15:01:08,04/04/2024
,,,ospan,symmetry,WAj9Sbm6P4WeyaFWNja2xwwqrLp1,symmetry-judgement-task,85,1733791,0.0-46.0-2.0-1.0-1.0-2.0,,,,,,,,,,0.0,,,5b758de6d74fcb00010d7f0b,15:01:08,04/04/2024
,"<div style=""font-size: 10rem; color: #0000FF"">Y</div>",,ospan,letter,WAj9Sbm6P4WeyaFWNja2xwwqrLp1,html-keyboard-response,86,1734802,0.0-46.0-2.0-1.0-1.0-3.0,,,,,,,,,,,,,5b758de6d74fcb00010d7f0b,15:01:08,04/04/2024
,,,ospan,symmetry,WAj9Sbm6P4WeyaFWNja2xwwqrLp1,symmetry-judgement-task,87,1760214,0.0-46.0-2.0-1.0-1.0-4.0,,,,,,,,,,0.0,,,5b758de6d74fcb00010d7f0b,15:01:08,04/04/2024
,"<div style=""font-size: 10rem; color: #0000FF"">Q</div>",,ospan,letter,WAj9Sbm6P4WeyaFWNja2xwwqrLp1,html-keyboard-response,88,1761220,0.0-46.0-2.0-1.0-1.0-5.0,,,,,,,,,,,,,5b758de6d74fcb00010d7f0b,15:01:08,04/04/2024
17695.400000000373,"<div class = numbox><p style=""font-size: 2.4rem"">Please recall the letters you saw to the best of your ability. If you do not remember a particular letter, use the SKIP button.<br><b>(When you are ready to lock in your answer, press ENTER)</b></p><button id = button_1 class = ""square num-button"" onclick = ""recordClick(this)""><div class = content><div class = numbers>C</div></div></button><button id = button_2 class = ""square num-button"" onclick = ""recordClick(this)""><div class = content><div class = numbers>G</div></div></button><button id = button_3 class = ""square num-button"" onclick = ""recordClick(this)""><div class = content><div class = numbers>H</div></div></button><button id = button_4 class = ""square num-button"" onclick = ""recordClick(this)""><div class = content><div class = numbers>J</div></div></button><button id = button_5 class = ""square num-button"" onclick = ""recordClick(this)""><div class = content><div class = numbers>K</div></div></button><button id = button_6 class = ""square num-button"" onclick = ""recordClick(this)""><div class = content><div class = numbers>L</div></div></button><button id = button_7 class = ""square num-button"" onclick = ""recordClick(this)""><div class = content><div class = numbers>N</div></div></button><button id = button_8 class = ""square num-button"" onclick = ""recordClick(this)""><div class = content><div class = numbers>P</div></div></button><button id = button_9 class = ""square num-button"" onclick = ""recordClick(this)""><div class = content><div class = numbers>Q</div></div></button><button id = button_10 class = ""square num-button"" onclick = ""recordClick(this)""><div class = content><div class = numbers>R</div></div></button><button id = button_11 class = ""square num-button"" onclick = ""recordClick(this)""><div class = content><div class = numbers>S</div></div></button><button id = button_12 class = ""square num-button"" onclick = ""recordClick(this)""><div class = content><div class = numbers>Y</div></div></button><button class = clear_button id = ""ClearButton"" onclick = ""clearResponse()"">BACKSPACE</button><button class = blank_button id = ""BlankButton"" onclick = ""blankResponse()"">SKIP</button><p style=""font-size: 2.4rem""><u><b>Current Answer:</b></u></p><br><br><div id=echoed_txt style=""font-size: 5rem; color:blue;""><b></b></div></div>",enter,ospan,retrieval,WAj9Sbm6P4WeyaFWNja2xwwqrLp1,html-keyboard-response,89,1779682,0.0-46.0-2.0-1.0-2.0-0.0,NA,NA,NA,3.0,"[""L"",""H"",""P""]","[""L"",""Y"",""Q""]",0.0,1.0,"['<font color=""green"">L</font>', '<font color=""red"">Y</font>', '<font color=""red"">Q</font>']",,,,5b758de6d74fcb00010d7f0b,15:01:08,04/04/2024
2889.2000000011176,"['<p style=""font-size:44px"">Letters:<br><br><br><font color=""green"">L</font> <font color=""red"">Y</font> <font color=""red"">Q</font></p><br><br><p style=""font-size:30px"">Symmetry:<br><br><font color=""red"">0%</font></p><br><br>']",0,ospan,practice_feedback,WAj9Sbm6P4WeyaFWNja2xwwqrLp1,html-button-response,90,1783086,0.0-46.0-2.0-1.0-2.0-1.0,,,,,,,,,,,,,5b758de6d74fcb00010d7f0b,15:01:08,04/04/2024
,"<p style=""font-size:75px;"">...</p>",,ospan,iti,WAj9Sbm6P4WeyaFWNja2xwwqrLp1,html-keyboard-response,91,1784105,0.0-46.0-2.0-2.0-0.0,,,,,,,,,,,,,5b758de6d74fcb00010d7f0b,15:01:08,04/04/2024
,,,ospan,symmetry,WAj9Sbm6P4WeyaFWNja2xwwqrLp1,symmetry-judgement-task,92,1809192,0.0-46.0-2.0-2.0-1.0-0.0,,,,,,,,,,0.0,,,5b758de6d74fcb00010d7f0b,15:01:08,04/04/2024
,"<div style=""font-size: 10rem; color: #0000FF"">J</div>",,ospan,letter,WAj9Sbm6P4WeyaFWNja2xwwqrLp1,html-keyboard-response,93,1810202,0.0-46.0-2.0-2.0-1.0-1.0,,,,,,,,,,,,,5b758de6d74fcb00010d7f0b,15:01:08,04/04/2024
,,,ospan,symmetry,WAj9Sbm6P4WeyaFWNja2xwwqrLp1,symmetry-judgement-task,94,1835084,0.0-46.0-2.0-2.0-1.0-2.0,,,,,,,,,,0.0,,,5b758de6d74fcb00010d7f0b,15:01:08,04/04/2024
,"<div style=""font-size: 10rem; color: #0000FF"">R</div>",,ospan,letter,WAj9Sbm6P4WeyaFWNja2xwwqrLp1,html-keyboard-response,95,1836101,0.0-46.0-2.0-2.0-1.0-3.0,,,,,,,,,,,,,5b758de6d74fcb00010d7f0b,15:01:08,04/04/2024
,,,ospan,symmetry,WAj9Sbm6P4WeyaFWNja2xwwqrLp1,symmetry-judgement-task,96,1863197,0.0-46.0-2.0-2.0-1.0-4.0,,,,,,,,,,0.0,,,5b758de6d74fcb00010d7f0b,15:01:08,04/04/2024
,"<div style=""font-size: 10rem; color: #0000FF"">N</div>",,ospan,letter,WAj9Sbm6P4WeyaFWNja2xwwqrLp1,html-keyboard-response,97,1864203,0.0-46.0-2.0-2.0-1.0-5.0,,,,,,,,,,,,,5b758de6d74fcb00010d7f0b,15:01:08,04/04/2024
10356.39999999851,"<div class = numbox><p style=""font-size: 2.4rem"">Please recall the letters you saw to the best of your ability. If you do not remember a particular letter, use the SKIP button.<br><b>(When you are ready to lock in your answer, press ENTER)</b></p><button id = button_1 class = ""square num-button"" onclick = ""recordClick(this)""><div class = content><div class = numbers>C</div></div></button><button id = button_2 class = ""square num-button"" onclick = ""recordClick(this)""><div class = content><div class = numbers>G</div></div></button><button id = button_3 class = ""square num-button"" onclick = ""recordClick(this)""><div class = content><div class = numbers>H</div></div></button><button id = button_4 class = ""square num-button"" onclick = ""recordClick(this)""><div class = content><div class = numbers>J</div></div></button><button id = button_5 class = ""square num-button"" onclick = ""recordClick(this)""><div class = content><div class = numbers>K</div></div></button><button id = button_6 class = ""square num-button"" onclick = ""recordClick(this)""><div class = content><div class = numbers>L</div></div></button><button id = button_7 class = ""square num-button"" onclick = ""recordClick(this)""><div class = content><div class = numbers>N</div></div></button><button id = button_8 class = ""square num-button"" onclick = ""recordClick(this)""><div class = content><div class = numbers>P</div></div></button><button id = button_9 class = ""square num-button"" onclick = ""recordClick(this)""><div class = content><div class = numbers>Q</div></div></button><button id = button_10 class = ""square num-button"" onclick = ""recordClick(this)""><div class = content><div class = numbers>R</div></div></button><button id = button_11 class = ""square num-button"" onclick = ""recordClick(this)""><div class = content><div class = numbers>S</div></div></button><button id = button_12 class = ""square num-button"" onclick = ""recordClick(this)""><div class = content><div class = numbers>Y</div></div></button><button class = clear_button id = ""ClearButton"" onclick = ""clearResponse()"">BACKSPACE</button><button class = blank_button id = ""BlankButton"" onclick = ""blankResponse()"">SKIP</button><p style=""font-size: 2.4rem""><u><b>Current Answer:</b></u></p><br><br><div id=echoed_txt style=""font-size: 5rem; color:blue;""><b></b></div></div>",enter,ospan,retrieval,WAj9Sbm6P4WeyaFWNja2xwwqrLp1,html-keyboard-response,98,1875332,0.0-46.0-2.0-2.0-2.0-0.0,NA,NA,NA,3.0,"[""J"",""R"",""N""]","[""J"",""R"",""N""]",1.0,3.0,"['<font color=""green"">J</font>', '<font color=""green"">R</font>', '<font color=""green"">N</font>']",,,,5b758de6d74fcb00010d7f0b,15:01:08,04/04/2024
3025.5999999996275,"['<p style=""font-size:44px"">Letters:<br><br><br><font color=""green"">J</font> <font color=""green"">R</font> <font color=""green"">N</font></p><br><br><p style=""font-size:30px"">Symmetry:<br><br><font color=""red"">0%</font></p><br><br>']",0,ospan,practice_feedback,WAj9Sbm6P4WeyaFWNja2xwwqrLp1,html-button-response,99,1878872,0.0-46.0-2.0-2.0-2.0-1.0,,,,,,,,,,,,,5b758de6d74fcb00010d7f0b,15:01:08,04/04/2024
30532.400000000373,"<div class = 'left_align' style='font-size: 3rem; line-height: 1.3;'><b>Great work! That is the end of practice.</b><br><br>The real trials will look just like the practice trials you just completed.<br><br><u>Here, you will not see feedback</u>. First, you will see an grid picture to judge,<br>then a letter to remember. When the recall screen appears, report the letters in the<br>order presented. If you forget a letter, remember to use the <b>blank</b> button to move to the<br>next letter. Some of the sets will have more symmetry grids and letters than others.<br><br>It is important that you do your best on both the symmetry judgments and the letter recall<br>parts of the experiment. For for the symmetry judgments, try to work as <b>quickly</b> and <br>as <b>accurately</b> as possible. Remember to keep your symmetry accuracy at 85% or above.<br><br><b>For the letters, do NOT use any external aid (e.g., writing on paper, electronic device).</b><br><br>It is <u>very important</u> to our experiment to have a <b>true</b> view of your real performance.<br><br>Do not worry if you miss some when it gets hard! This task is meant to be very challenging!<br><br>Click the button to begin.</div><br><br><br><br>",0,ospan,starting_real_here,WAj9Sbm6P4WeyaFWNja2xwwqrLp1,html-button-response,100,1909411,0.0-46.0-2.0-3.0,,,,,,,,,,,,,5b758de6d74fcb00010d7f0b,15:01:08,04/04/2024
,"<p style=""font-size:75px;"">...</p>",,ospan,iti,WAj9Sbm6P4WeyaFWNja2xwwqrLp1,html-keyboard-response,101,1910681,0.0-46.0-3.0-0.0-0.0,,,,,,,,,,,,,5b758de6d74fcb00010d7f0b,15:01:08,04/04/2024
,,,ospan,symmetry,WAj9Sbm6P4WeyaFWNja2xwwqrLp1,symmetry-judgement-task,102,1934812,0.0-46.0-3.0-0.0-1.0-0.0,,,,,,,,,,0.0,,,5b758de6d74fcb00010d7f0b,15:01:08,04/04/2024
,"<div style=""font-size: 10rem; color: #0000FF"">P</div>",,ospan,letter,WAj9Sbm6P4WeyaFWNja2xwwqrLp1,html-keyboard-response,103,1935820,0.0-46.0-3.0-0.0-1.0-1.0,,,,,,,,,,,,,5b758de6d74fcb00010d7f0b,15:01:08,04/04/2024
,,,ospan,symmetry,WAj9Sbm6P4WeyaFWNja2xwwqrLp1,symmetry-judgement-task,104,1961494,0.0-46.0-3.0-0.0-1.0-2.0,,,,,,,,,,0.0,,,5b758de6d74fcb00010d7f0b,15:01:08,04/04/2024
,"<div style=""font-size: 10rem; color: #0000FF"">K</div>",,ospan,letter,WAj9Sbm6P4WeyaFWNja2xwwqrLp1,html-keyboard-response,105,1962507,0.0-46.0-3.0-0.0-1.0-3.0,,,,,,,,,,,,,5b758de6d74fcb00010d7f0b,15:01:08,04/04/2024
,,,ospan,symmetry,WAj9Sbm6P4WeyaFWNja2xwwqrLp1,symmetry-judgement-task,106,1988079,0.0-46.0-3.0-0.0-1.0-4.0,,,,,,,,,,0.0,,,5b758de6d74fcb00010d7f0b,15:01:08,04/04/2024
,"<div style=""font-size: 10rem; color: #0000FF"">G</div>",,ospan,letter,WAj9Sbm6P4WeyaFWNja2xwwqrLp1,html-keyboard-response,107,1989088,0.0-46.0-3.0-0.0-1.0-5.0,,,,,,,,,,,,,5b758de6d74fcb00010d7f0b,15:01:08,04/04/2024
9782.599999999627,"<div class = numbox><p style=""font-size: 2.4rem"">Please recall the letters you saw to the best of your ability. If you do not remember a particular letter, use the SKIP button.<br><b>(When you are ready to lock in your answer, press ENTER)</b></p><button id = button_1 class = ""square num-button"" onclick = ""recordClick(this)""><div class = content><div class = numbers>C</div></div></button><button id = button_2 class = ""square num-button"" onclick = ""recordClick(this)""><div class = content><div class = numbers>G</div></div></button><button id = button_3 class = ""square num-button"" onclick = ""recordClick(this)""><div class = content><div class = numbers>H</div></div></button><button id = button_4 class = ""square num-button"" onclick = ""recordClick(this)""><div class = content><div class = numbers>J</div></div></button><button id = button_5 class = ""square num-button"" onclick = ""recordClick(this)""><div class = content><div class = numbers>K</div></div></button><button id = button_6 class = ""square num-button"" onclick = ""recordClick(this)""><div class = content><div class = numbers>L</div></div></button><button id = button_7 class = ""square num-button"" onclick = ""recordClick(this)""><div class = content><div class = numbers>N</div></div></button><button id = button_8 class = ""square num-button"" onclick = ""recordClick(this)""><div class = content><div class = numbers>P</div></div></button><button id = button_9 class = ""square num-button"" onclick = ""recordClick(this)""><div class = content><div class = numbers>Q</div></div></button><button id = button_10 class = ""square num-button"" onclick = ""recordClick(this)""><div class = content><div class = numbers>R</div></div></button><button id = button_11 class = ""square num-button"" onclick = ""recordClick(this)""><div class = content><div class = numbers>S</div></div></button><button id = button_12 class = ""square num-button"" onclick = ""recordClick(this)""><div class = content><div class = numbers>Y</div></div></button><button class = clear_button id = ""ClearButton"" onclick = ""clearResponse()"">BACKSPACE</button><button class = blank_button id = ""BlankButton"" onclick = ""blankResponse()"">SKIP</button><p style=""font-size: 2.4rem""><u><b>Current Answer:</b></u></p><br><br><div id=echoed_txt style=""font-size: 5rem; color:blue;""><b></b></div></div>",enter,ospan,retrieval,WAj9Sbm6P4WeyaFWNja2xwwqrLp1,html-keyboard-response,108,1999630,0.0-46.0-3.0-0.0-2.0,3,3,3,3.0,"[""P"",""K"",""G""]","[""P"",""K"",""G""]",1.0,3.0,,,,,5b758de6d74fcb00010d7f0b,15:01:08,04/04/2024
5360.9000000003725,"['<p style=""font-size: 3.75rem"">Low symmetry accuracy!<br><br><br><font color=""red"">0%</font><br><br></p>']",0,ospan,feedback,WAj9Sbm6P4WeyaFWNja2xwwqrLp1,html-button-response,109,2005508,0.0-46.0-3.0-0.0-3.0,,,,,,,,,,,0.0,1.0,5b758de6d74fcb00010d7f0b,15:01:08,04/04/2024
,"<p style=""font-size:75px;"">...</p>",,ospan,iti,WAj9Sbm6P4WeyaFWNja2xwwqrLp1,html-keyboard-response,110,2006522,0.0-46.0-4.0-0.0-0.0,,,,,,,,,,,,,5b758de6d74fcb00010d7f0b,15:01:08,04/04/2024
,,,ospan,symmetry,WAj9Sbm6P4WeyaFWNja2xwwqrLp1,symmetry-judgement-task,111,2032965,0.0-46.0-4.0-0.0-1.0-0.0,,,,,,,,,,0.0,,,5b758de6d74fcb00010d7f0b,15:01:08,04/04/2024
,"<div style=""font-size: 10rem; color: #0000FF"">Y</div>",,ospan,letter,WAj9Sbm6P4WeyaFWNja2xwwqrLp1,html-keyboard-response,112,2033971,0.0-46.0-4.0-0.0-1.0-1.0,,,,,,,,,,,,,5b758de6d74fcb00010d7f0b,15:01:08,04/04/2024
,,,ospan,symmetry,WAj9Sbm6P4WeyaFWNja2xwwqrLp1,symmetry-judgement-task,113,2060509,0.0-46.0-4.0-0.0-1.0-2.0,,,,,,,,,,0.0,,,5b758de6d74fcb00010d7f0b,15:01:08,04/04/2024
,"<div style=""font-size: 10rem; color: #0000FF"">N</div>",,ospan,letter,WAj9Sbm6P4WeyaFWNja2xwwqrLp1,html-keyboard-response,114,2061517,0.0-46.0-4.0-0.0-1.0-3.0,,,,,,,,,,,,,5b758de6d74fcb00010d7f0b,15:01:08,04/04/2024
,,,ospan,symmetry,WAj9Sbm6P4WeyaFWNja2xwwqrLp1,symmetry-judgement-task,115,2087099,0.0-46.0-4.0-0.0-1.0-4.0,,,,,,,,,,0.0,,,5b758de6d74fcb00010d7f0b,15:01:08,04/04/2024
,"<div style=""font-size: 10rem; color: #0000FF"">C</div>",,ospan,letter,WAj9Sbm6P4WeyaFWNja2xwwqrLp1,html-keyboard-response,116,2088108,0.0-46.0-4.0-0.0-1.0-5.0,,,,,,,,,,,,,5b758de6d74fcb00010d7f0b,15:01:08,04/04/2024
,,,ospan,symmetry,WAj9Sbm6P4WeyaFWNja2xwwqrLp1,symmetry-judgement-task,117,2112745,0.0-46.0-4.0-0.0-1.0-6.0,,,,,,,,,,0.0,,,5b758de6d74fcb00010d7f0b,15:01:08,04/04/2024
,"<div style=""font-size: 10rem; color: #0000FF"">G</div>",,ospan,letter,WAj9Sbm6P4WeyaFWNja2xwwqrLp1,html-keyboard-response,118,2113751,0.0-46.0-4.0-0.0-1.0-7.0,,,,,,,,,,,,,5b758de6d74fcb00010d7f0b,15:01:08,04/04/2024
12600.5,"<div class = numbox><p style=""font-size: 2.4rem"">Please recall the letters you saw to the best of your ability. If you do not remember a particular letter, use the SKIP button.<br><b>(When you are ready to lock in your answer, press ENTER)</b></p><button id = button_1 class = ""square num-button"" onclick = ""recordClick(this)""><div class = content><div class = numbers>C</div></div></button><button id = button_2 class = ""square num-button"" onclick = ""recordClick(this)""><div class = content><div class = numbers>G</div></div></button><button id = button_3 class = ""square num-button"" onclick = ""recordClick(this)""><div class = content><div class = numbers>H</div></div></button><button id = button_4 class = ""square num-button"" onclick = ""recordClick(this)""><div class = content><div class = numbers>J</div></div></button><button id = button_5 class = ""square num-button"" onclick = ""recordClick(this)""><div class = content><div class = numbers>K</div></div></button><button id = button_6 class = ""square num-button"" onclick = ""recordClick(this)""><div class = content><div class = numbers>L</div></div></button><button id = button_7 class = ""square num-button"" onclick = ""recordClick(this)""><div class = content><div class = numbers>N</div></div></button><button id = button_8 class = ""square num-button"" onclick = ""recordClick(this)""><div class = content><div class = numbers>P</div></div></button><button id = button_9 class = ""square num-button"" onclick = ""recordClick(this)""><div class = content><div class = numbers>Q</div></div></button><button id = button_10 class = ""square num-button"" onclick = ""recordClick(this)""><div class = content><div class = numbers>R</div></div></button><button id = button_11 class = ""square num-button"" onclick = ""recordClick(this)""><div class = content><div class = numbers>S</div></div></button><button id = button_12 class = ""square num-button"" onclick = ""recordClick(this)""><div class = content><div class = numbers>Y</div></div></button><button class = clear_button id = ""ClearButton"" onclick = ""clearResponse()"">BACKSPACE</button><button class = blank_button id = ""BlankButton"" onclick = ""blankResponse()"">SKIP</button><p style=""font-size: 2.4rem""><u><b>Current Answer:</b></u></p><br><br><div id=echoed_txt style=""font-size: 5rem; color:blue;""><b></b></div></div>",enter,ospan,retrieval,WAj9Sbm6P4WeyaFWNja2xwwqrLp1,html-keyboard-response,119,2127130,0.0-46.0-4.0-0.0-2.0,7,5,3,4.0,"[""Y"",""N"",""G"",""C""]","[""Y"",""N"",""C"",""G""]",0.0,2.0,,,,,5b758de6d74fcb00010d7f0b,15:01:08,04/04/2024
55790.0,"['<p style=""font-size: 3.75rem"">Low symmetry accuracy!<br><br><br><font color=""red"">0%</font><br><br></p>']",0,ospan,feedback,WAj9Sbm6P4WeyaFWNja2xwwqrLp1,html-button-response,120,2183430,0.0-46.0-4.0-0.0-3.0,,,,,,,,,,,0.0,1.0,5b758de6d74fcb00010d7f0b,15:01:08,04/04/2024
,"<p style=""font-size:75px;"">...</p>",,ospan,iti,WAj9Sbm6P4WeyaFWNja2xwwqrLp1,html-keyboard-response,121,2184458,0.0-46.0-4.0-1.0-0.0,,,,,,,,,,,,,5b758de6d74fcb00010d7f0b,15:01:08,04/04/2024
,,,ospan,symmetry,WAj9Sbm6P4WeyaFWNja2xwwqrLp1,symmetry-judgement-task,122,2210393,0.0-46.0-4.0-1.0-1.0-0.0,,,,,,,,,,0.0,,,5b758de6d74fcb00010d7f0b,15:01:08,04/04/2024
,"<div style=""font-size: 10rem; color: #0000FF"">S</div>",,ospan,letter,WAj9Sbm6P4WeyaFWNja2xwwqrLp1,html-keyboard-response,123,2211400,0.0-46.0-4.0-1.0-1.0-1.0,,,,,,,,,,,,,5b758de6d74fcb00010d7f0b,15:01:08,04/04/2024
,,,ospan,symmetry,WAj9Sbm6P4WeyaFWNja2xwwqrLp1,symmetry-judgement-task,124,2238031,0.0-46.0-4.0-1.0-1.0-2.0,,,,,,,,,,0.0,,,5b758de6d74fcb00010d7f0b,15:01:08,04/04/2024
,"<div style=""font-size: 10rem; color: #0000FF"">Y</div>",,ospan,letter,WAj9Sbm6P4WeyaFWNja2xwwqrLp1,html-keyboard-response,125,2239046,0.0-46.0-4.0-1.0-1.0-3.0,,,,,,,,,,,,,5b758de6d74fcb00010d7f0b,15:01:08,04/04/2024
,,,ospan,symmetry,WAj9Sbm6P4WeyaFWNja2xwwqrLp1,symmetry-judgement-task,126,2264905,0.0-46.0-4.0-1.0-1.0-4.0,,,,,,,,,,0.0,,,5b758de6d74fcb00010d7f0b,15:01:08,04/04/2024
,"<div style=""font-size: 10rem; color: #0000FF"">K</div>",,ospan,letter,WAj9Sbm6P4WeyaFWNja2xwwqrLp1,html-keyboard-response,127,2265917,0.0-46.0-4.0-1.0-1.0-5.0,,,,,,,,,,,,,5b758de6d74fcb00010d7f0b,15:01:08,04/04/2024
,,,ospan,symmetry,WAj9Sbm6P4WeyaFWNja2xwwqrLp1,symmetry-judgement-task,128,2292522,0.0-46.0-4.0-1.0-1.0-6.0,,,,,,,,,,0.0,,,5b758de6d74fcb00010d7f0b,15:01:08,04/04/2024
,"<div style=""font-size: 10rem; color: #0000FF"">Q</div>",,ospan,letter,WAj9Sbm6P4WeyaFWNja2xwwqrLp1,html-keyboard-response,129,2293535,0.0-46.0-4.0-1.0-1.0-7.0,,,,,,,,,,,,,5b758de6d74fcb00010d7f0b,15:01:08,04/04/2024
,,,ospan,symmetry,WAj9Sbm6P4WeyaFWNja2xwwqrLp1,symmetry-judgement-task,130,2319571,0.0-46.0-4.0-1.0-1.0-8.0,,,,,,,,,,0.0,,,5b758de6d74fcb00010d7f0b,15:01:08,04/04/2024
,"<div style=""font-size: 10rem; color: #0000FF"">C</div>",,ospan,letter,WAj9Sbm6P4WeyaFWNja2xwwqrLp1,html-keyboard-response,131,2320580,0.0-46.0-4.0-1.0-1.0-9.0,,,,,,,,,,,,,5b758de6d74fcb00010d7f0b,15:01:08,04/04/2024
14069.400000000373,"<div class = numbox><p style=""font-size: 2.4rem"">Please recall the letters you saw to the best of your ability. If you do not remember a particular letter, use the SKIP button.<br><b>(When you are ready to lock in your answer, press ENTER)</b></p><button id = button_1 class = ""square num-button"" onclick = ""recordClick(this)""><div class = content><div class = numbers>C</div></div></button><button id = button_2 class = ""square num-button"" onclick = ""recordClick(this)""><div class = content><div class = numbers>G</div></div></button><button id = button_3 class = ""square num-button"" onclick = ""recordClick(this)""><div class = content><div class = numbers>H</div></div></button><button id = button_4 class = ""square num-button"" onclick = ""recordClick(this)""><div class = content><div class = numbers>J</div></div></button><button id = button_5 class = ""square num-button"" onclick = ""recordClick(this)""><div class = content><div class = numbers>K</div></div></button><button id = button_6 class = ""square num-button"" onclick = ""recordClick(this)""><div class = content><div class = numbers>L</div></div></button><button id = button_7 class = ""square num-button"" onclick = ""recordClick(this)""><div class = content><div class = numbers>N</div></div></button><button id = button_8 class = ""square num-button"" onclick = ""recordClick(this)""><div class = content><div class = numbers>P</div></div></button><button id = button_9 class = ""square num-button"" onclick = ""recordClick(this)""><div class = content><div class = numbers>Q</div></div></button><button id = button_10 class = ""square num-button"" onclick = ""recordClick(this)""><div class = content><div class = numbers>R</div></div></button><button id = button_11 class = ""square num-button"" onclick = ""recordClick(this)""><div class = content><div class = numbers>S</div></div></button><button id = button_12 class = ""square num-button"" onclick = ""recordClick(this)""><div class = content><div class = numbers>Y</div></div></button><button class = clear_button id = ""ClearButton"" onclick = ""clearResponse()"">BACKSPACE</button><button class = blank_button id = ""BlankButton"" onclick = ""blankResponse()"">SKIP</button><p style=""font-size: 2.4rem""><u><b>Current Answer:</b></u></p><br><br><div id=echoed_txt style=""font-size: 5rem; color:blue;""><b></b></div></div>",enter,ospan,retrieval,WAj9Sbm6P4WeyaFWNja2xwwqrLp1,html-keyboard-response,132,2335419,0.0-46.0-4.0-1.0-2.0,12,7,3,5.0,"[""S"",""Y"",""Q"",""G"",""P""]","[""S"",""Y"",""K"",""Q"",""C""]",0.0,2.0,,,,,5b758de6d74fcb00010d7f0b,15:01:08,04/04/2024
2088.0,"['<p style=""font-size: 3.75rem"">Low symmetry accuracy!<br><br><br><font color=""red"">0%</font><br><br></p>']",0,ospan,feedback,WAj9Sbm6P4WeyaFWNja2xwwqrLp1,html-button-response,133,2338036,0.0-46.0-4.0-1.0-3.0,,,,,,,,,,,0.0,1.0,5b758de6d74fcb00010d7f0b,15:01:08,04/04/2024
,"<p style=""font-size:75px;"">...</p>",,ospan,iti,WAj9Sbm6P4WeyaFWNja2xwwqrLp1,html-keyboard-response,134,2339047,0.0-46.0-4.0-2.0-0.0,,,,,,,,,,,,,5b758de6d74fcb00010d7f0b,15:01:08,04/04/2024
,,,ospan,symmetry,WAj9Sbm6P4WeyaFWNja2xwwqrLp1,symmetry-judgement-task,135,2362588,0.0-46.0-4.0-2.0-1.0-0.0,,,,,,,,,,0.0,,,5b758de6d74fcb00010d7f0b,15:01:08,04/04/2024
,"<div style=""font-size: 10rem; color: #0000FF"">Y</div>",,ospan,letter,WAj9Sbm6P4WeyaFWNja2xwwqrLp1,html-keyboard-response,136,2363593,0.0-46.0-4.0-2.0-1.0-1.0,,,,,,,,,,,,,5b758de6d74fcb00010d7f0b,15:01:08,04/04/2024
,,,ospan,symmetry,WAj9Sbm6P4WeyaFWNja2xwwqrLp1,symmetry-judgement-task,137,2388330,0.0-46.0-4.0-2.0-1.0-2.0,,,,,,,,,,0.0,,,5b758de6d74fcb00010d7f0b,15:01:08,04/04/2024
,"<div style=""font-size: 10rem; color: #0000FF"">K</div>",,ospan,letter,WAj9Sbm6P4WeyaFWNja2xwwqrLp1,html-keyboard-response,138,2389344,0.0-46.0-4.0-2.0-1.0-3.0,,,,,,,,,,,,,5b758de6d74fcb00010d7f0b,15:01:08,04/04/2024
,,,ospan,symmetry,WAj9Sbm6P4WeyaFWNja2xwwqrLp1,symmetry-judgement-task,139,2414945,0.0-46.0-4.0-2.0-1.0-4.0,,,,,,,,,,0.0,,,5b758de6d74fcb00010d7f0b,15:01:08,04/04/2024
,"<div style=""font-size: 10rem; color: #0000FF"">H</div>",,ospan,letter,WAj9Sbm6P4WeyaFWNja2xwwqrLp1,html-keyboard-response,140,2415959,0.0-46.0-4.0-2.0-1.0-5.0,,,,,,,,,,,,,5b758de6d74fcb00010d7f0b,15:01:08,04/04/2024
7417.0,"<div class = numbox><p style=""font-size: 2.4rem"">Please recall the letters you saw to the best of your ability. If you do not remember a particular letter, use the SKIP button.<br><b>(When you are ready to lock in your answer, press ENTER)</b></p><button id = button_1 class = ""square num-button"" onclick = ""recordClick(this)""><div class = content><div class = numbers>C</div></div></button><button id = button_2 class = ""square num-button"" onclick = ""recordClick(this)""><div class = content><div class = numbers>G</div></div></button><button id = button_3 class = ""square num-button"" onclick = ""recordClick(this)""><div class = content><div class = numbers>H</div></div></button><button id = button_4 class = ""square num-button"" onclick = ""recordClick(this)""><div class = content><div class = numbers>J</div></div></button><button id = button_5 class = ""square num-button"" onclick = ""recordClick(this)""><div class = content><div class = numbers>K</div></div></button><button id = button_6 class = ""square num-button"" onclick = ""recordClick(this)""><div class = content><div class = numbers>L</div></div></button><button id = button_7 class = ""square num-button"" onclick = ""recordClick(this)""><div class = content><div class = numbers>N</div></div></button><button id = button_8 class = ""square num-button"" onclick = ""recordClick(this)""><div class = content><div class = numbers>P</div></div></button><button id = button_9 class = ""square num-button"" onclick = ""recordClick(this)""><div class = content><div class = numbers>Q</div></div></button><button id = button_10 class = ""square num-button"" onclick = ""recordClick(this)""><div class = content><div class = numbers>R</div></div></button><button id = button_11 class = ""square num-button"" onclick = ""recordClick(this)""><div class = content><div class = numbers>S</div></div></button><button id = button_12 class = ""square num-button"" onclick = ""recordClick(this)""><div class = content><div class = numbers>Y</div></div></button><button class = clear_button id = ""ClearButton"" onclick = ""clearResponse()"">BACKSPACE</button><button class = blank_button id = ""BlankButton"" onclick = ""blankResponse()"">SKIP</button><p style=""font-size: 2.4rem""><u><b>Current Answer:</b></u></p><br><br><div id=echoed_txt style=""font-size: 5rem; color:blue;""><b></b></div></div>",enter,ospan,retrieval,WAj9Sbm6P4WeyaFWNja2xwwqrLp1,html-keyboard-response,141,2424148,0.0-46.0-4.0-2.0-2.0,15,7,3,3.0,"[""K"",""H"",""N""]","[""Y"",""K"",""H""]",0.0,0.0,,,,,5b758de6d74fcb00010d7f0b,15:01:08,04/04/2024
5891.39999999851,"['<p style=""font-size: 3.75rem"">Low symmetry accuracy!<br><br><br><font color=""red"">0%</font><br><br></p>']",0,ospan,feedback,WAj9Sbm6P4WeyaFWNja2xwwqrLp1,html-button-response,142,2430549,0.0-46.0-4.0-2.0-3.0,,,,,,,,,,,0.0,1.0,5b758de6d74fcb00010d7f0b,15:01:08,04/04/2024
