rt,stimulus,response,exp_name,exp_stage,subjectID,trial_type,trial_index,time_elapsed,internal_node_id,ospan_shown,ospan_total,ospan_abs,length,resp_actual,resp_correct,full_correct,num_correct,feedback,accuracy,correct,math_acc,math_warning,databaseID,prolificID,start_time,date
3660.199999988079,<div class = 'left_align' style='font-size: 3.25rem; line-height: 1.3;'><p class = 'center_align'><b>Welcome to the Symmetry and Memory Task</b><br><br><br><br></p>Press 'continue' to show the instructions.<br><br><br><br></div>,0,ospan,instruct,bwKkfZxZu9RWGIOPKRAMtMm1fsF2,html-button-response,51,617336,0.0-43.0-0.0-0.0-0.0,,,,,,,,,,,,,,,63e60f40643623a5029f1e2b,14:38:31,06/03/2024
175146.0,"<div class = 'left_align' style='font-size: 3.25rem; line-height: 1.3;'><p class = 'center_align'><b>Symmetry and Memory Task</b><br><br></p>In this task, you will try to memorize letters you see on the screen<br>while you also view black and white grid pictures.<br><br>In the next few minutes, you will have some practice to get you familiar<br>with how the task works.<br><br>It may be difficult sometimes, but please do not worry about making mistakes!<br><br>We will begin by practicing the letter part of the task.<br><br><br><br></div>",0,ospan,instruct,bwKkfZxZu9RWGIOPKRAMtMm1fsF2,html-button-response,52,792747,0.0-43.0-0.0-0.0-1.0,,,,,,,,,,,,,,,63e60f40643623a5029f1e2b,14:38:31,06/03/2024
18494.399999976158,"<div class = 'left_align' style='font-size: 3.25rem; line-height: 1.3;'>For this practice part, letters will appear on the screen one at a time.<br><br>Try to remember each letter in the order presented.<br><br>After some letters have been shown, you will see a response screen. Your<br>goal is to report the letters you saw <b>in order</b>. If you do not remember<br>a particular letter, you will have the option to leave it blank.<br><br><br><br></div>",0,ospan,instruct,bwKkfZxZu9RWGIOPKRAMtMm1fsF2,html-button-response,53,811505,0.0-43.0-0.0-0.0-2.0,,,,,,,,,,,,,,,63e60f40643623a5029f1e2b,14:38:31,06/03/2024
1584.5,"<div class = 'left_align' style='font-size: 3.25rem; line-height: 1.3;'>Remember, it is very important to get the letters in the same<br>order as you see them.<br><br>When you are ready, you may begin the letter practice.</div><br><br><br><br>",0,ospan,instruct,bwKkfZxZu9RWGIOPKRAMtMm1fsF2,html-button-response,54,813345,0.0-43.0-0.0-0.0-3.0,,,,,,,,,,,,,,,63e60f40643623a5029f1e2b,14:38:31,06/03/2024
,"<p style=""font-size:75px;"">...</p>",,ospan,iti,bwKkfZxZu9RWGIOPKRAMtMm1fsF2,html-keyboard-response,55,814622,0.0-43.0-0.0-1.0-0.0,,,,,,,,,,,,,,,63e60f40643623a5029f1e2b,14:38:31,06/03/2024
,"<div style=""font-size: 10rem; color: #0000FF"">R</div>",,ospan,letter,bwKkfZxZu9RWGIOPKRAMtMm1fsF2,html-keyboard-response,56,817179,0.0-43.0-0.0-1.0-1.0,,,,,,,,,,,,,,,63e60f40643623a5029f1e2b,14:38:31,06/03/2024
,"<div style=""font-size: 10rem; color: #0000FF"">C</div>",,ospan,letter,bwKkfZxZu9RWGIOPKRAMtMm1fsF2,html-keyboard-response,57,818951,0.0-43.0-0.0-1.0-2.0,,,,,,,,,,,,,,,63e60f40643623a5029f1e2b,14:38:31,06/03/2024
16436.899999976158,"<div class = numbox><p style=""font-size: 2.4rem"">Please recall the letters you saw to the best of your ability. If you do not remember a particular letter, use the SKIP button.<br><b>(When you are ready to lock in your answer, press ENTER)</b></p><button id = button_1 class = ""square num-button"" onclick = ""recordClick(this)""><div class = content><div class = numbers>C</div></div></button><button id = button_2 class = ""square num-button"" onclick = ""recordClick(this)""><div class = content><div class = numbers>G</div></div></button><button id = button_3 class = ""square num-button"" onclick = ""recordClick(this)""><div class = content><div class = numbers>H</div></div></button><button id = button_4 class = ""square num-button"" onclick = ""recordClick(this)""><div class = content><div class = numbers>J</div></div></button><button id = button_5 class = ""square num-button"" onclick = ""recordClick(this)""><div class = content><div class = numbers>K</div></div></button><button id = button_6 class = ""square num-button"" onclick = ""recordClick(this)""><div class = content><div class = numbers>L</div></div></button><button id = button_7 class = ""square num-button"" onclick = ""recordClick(this)""><div class = content><div class = numbers>N</div></div></button><button id = button_8 class = ""square num-button"" onclick = ""recordClick(this)""><div class = content><div class = numbers>P</div></div></button><button id = button_9 class = ""square num-button"" onclick = ""recordClick(this)""><div class = content><div class = numbers>Q</div></div></button><button id = button_10 class = ""square num-button"" onclick = ""recordClick(this)""><div class = content><div class = numbers>R</div></div></button><button id = button_11 class = ""square num-button"" onclick = ""recordClick(this)""><div class = content><div class = numbers>S</div></div></button><button id = button_12 class = ""square num-button"" onclick = ""recordClick(this)""><div class = content><div class = numbers>Y</div></div></button><button class = clear_button id = ""ClearButton"" onclick = ""clearResponse()"">BACKSPACE</button><button class = blank_button id = ""BlankButton"" onclick = ""blankResponse()"">SKIP</button><p style=""font-size: 2.4rem""><u><b>Current Answer:</b></u></p><br><br><div id=echoed_txt style=""font-size: 5rem; color:blue;""><b></b></div></div>",enter,ospan,retrieval,bwKkfZxZu9RWGIOPKRAMtMm1fsF2,html-keyboard-response,58,836154,0.0-43.0-0.0-1.0-3.0,NA,NA,NA,2.0,"[""R"",""C""]","[""R"",""C""]",1.0,2.0,"['<font color=""green"">R</font>', '<font color=""green"">C</font>']",,,,,,63e60f40643623a5029f1e2b,14:38:31,06/03/2024
1876.699999988079,"['<p style=""font-size:44px"">Letters:<br><br><br><font color=""green"">R</font> <font color=""green"">C</font></p><br><br>']",0,ospan,practice_feedback,bwKkfZxZu9RWGIOPKRAMtMm1fsF2,html-button-response,59,838550,0.0-43.0-0.0-1.0-4.0,,,,,,,,,,,,,,,63e60f40643623a5029f1e2b,14:38:31,06/03/2024
,"<p style=""font-size:75px;"">...</p>",,ospan,iti,bwKkfZxZu9RWGIOPKRAMtMm1fsF2,html-keyboard-response,60,839565,0.0-43.0-0.0-2.0-0.0,,,,,,,,,,,,,,,63e60f40643623a5029f1e2b,14:38:31,06/03/2024
,"<div style=""font-size: 10rem; color: #0000FF"">Y</div>",,ospan,letter,bwKkfZxZu9RWGIOPKRAMtMm1fsF2,html-keyboard-response,61,840581,0.0-43.0-0.0-2.0-1.0,,,,,,,,,,,,,,,63e60f40643623a5029f1e2b,14:38:31,06/03/2024
,"<div style=""font-size: 10rem; color: #0000FF"">S</div>",,ospan,letter,bwKkfZxZu9RWGIOPKRAMtMm1fsF2,html-keyboard-response,62,842345,0.0-43.0-0.0-2.0-2.0,,,,,,,,,,,,,,,63e60f40643623a5029f1e2b,14:38:31,06/03/2024
,"<div style=""font-size: 10rem; color: #0000FF"">H</div>",,ospan,letter,bwKkfZxZu9RWGIOPKRAMtMm1fsF2,html-keyboard-response,63,844123,0.0-43.0-0.0-2.0-3.0,,,,,,,,,,,,,,,63e60f40643623a5029f1e2b,14:38:31,06/03/2024
5550.5,"<div class = numbox><p style=""font-size: 2.4rem"">Please recall the letters you saw to the best of your ability. If you do not remember a particular letter, use the SKIP button.<br><b>(When you are ready to lock in your answer, press ENTER)</b></p><button id = button_1 class = ""square num-button"" onclick = ""recordClick(this)""><div class = content><div class = numbers>C</div></div></button><button id = button_2 class = ""square num-button"" onclick = ""recordClick(this)""><div class = content><div class = numbers>G</div></div></button><button id = button_3 class = ""square num-button"" onclick = ""recordClick(this)""><div class = content><div class = numbers>H</div></div></button><button id = button_4 class = ""square num-button"" onclick = ""recordClick(this)""><div class = content><div class = numbers>J</div></div></button><button id = button_5 class = ""square num-button"" onclick = ""recordClick(this)""><div class = content><div class = numbers>K</div></div></button><button id = button_6 class = ""square num-button"" onclick = ""recordClick(this)""><div class = content><div class = numbers>L</div></div></button><button id = button_7 class = ""square num-button"" onclick = ""recordClick(this)""><div class = content><div class = numbers>N</div></div></button><button id = button_8 class = ""square num-button"" onclick = ""recordClick(this)""><div class = content><div class = numbers>P</div></div></button><button id = button_9 class = ""square num-button"" onclick = ""recordClick(this)""><div class = content><div class = numbers>Q</div></div></button><button id = button_10 class = ""square num-button"" onclick = ""recordClick(this)""><div class = content><div class = numbers>R</div></div></button><button id = button_11 class = ""square num-button"" onclick = ""recordClick(this)""><div class = content><div class = numbers>S</div></div></button><button id = button_12 class = ""square num-button"" onclick = ""recordClick(this)""><div class = content><div class = numbers>Y</div></div></button><button class = clear_button id = ""ClearButton"" onclick = ""clearResponse()"">BACKSPACE</button><button class = blank_button id = ""BlankButton"" onclick = ""blankResponse()"">SKIP</button><p style=""font-size: 2.4rem""><u><b>Current Answer:</b></u></p><br><br><div id=echoed_txt style=""font-size: 5rem; color:blue;""><b></b></div></div>",enter,ospan,retrieval,bwKkfZxZu9RWGIOPKRAMtMm1fsF2,html-keyboard-response,64,850428,0.0-43.0-0.0-2.0-4.0,NA,NA,NA,3.0,"[""Y"",""S"",""H""]","[""Y"",""S"",""H""]",1.0,3.0,"['<font color=""green"">Y</font>', '<font color=""green"">S</font>', '<font color=""green"">H</font>']",,,,,,63e60f40643623a5029f1e2b,14:38:31,06/03/2024
1085.4000000059605,"['<p style=""font-size:44px"">Letters:<br><br><br><font color=""green"">Y</font> <font color=""green"">S</font> <font color=""green"">H</font></p><br><br>']",0,ospan,practice_feedback,bwKkfZxZu9RWGIOPKRAMtMm1fsF2,html-button-response,65,852022,0.0-43.0-0.0-2.0-5.0,,,,,,,,,,,,,,,63e60f40643623a5029f1e2b,14:38:31,06/03/2024
16110.800000011921,"<div class = 'left_align' style='font-size: 3.25rem; line-height: 1.3;'>Now you will practice doing the <b>symmetry judgment part</b> of the experiment.<br><br>A black and white grid picture will appear on the screen and you have to judge if it is <br>symmetrical or asymetrical.<br><br>A picture is 'mirror' symmetrical if its left half is identical to the right half when flipped.<br>Here are examples of a symmetrical and an asymetrical picture:<br><br><center><img src='Stimuli/img/symm_instructions_extra.png' style='height:420px; width:900'></img></center><br>To judge symmetry, imagine you were to fold each picture down the middle, like a book –<br>would the left half match the right half when folded onto each other?<br><br></div><br>",0,ospan,instruct,bwKkfZxZu9RWGIOPKRAMtMm1fsF2,html-button-response,66,868136,0.0-43.0-1.0-0.0-0.0,,,,,,,,,,,,,,,63e60f40643623a5029f1e2b,14:38:31,06/03/2024
12080.5,"<div class = 'left_align' style='font-size: 3.25rem; line-height: 1.3;'>When you have viewed the picture and determined whether it is symmetrical or not,<br>you can <b>click the Yes or No button</b> below to answer.<br><br>If you take longer than 15 seconds, it will continue automatically<br>and record the answer as an error.</div><br>",0,ospan,instruct,bwKkfZxZu9RWGIOPKRAMtMm1fsF2,html-button-response,67,880491,0.0-43.0-1.0-0.0-1.0,,,,,,,,,,,,,,,63e60f40643623a5029f1e2b,14:38:31,06/03/2024
916.5,"<div class = 'left_align' style='font-size: 3.25rem; line-height: 1.3;'>It is <b>very</b> important that you make the symmetry judgment correctly.<br><br>It is also important that you try and judge the picture as quickly as you can.<br><br>When you are ready, click on the button below to try some practice problems.</div><br><br><br><br>",0,ospan,instruct,bwKkfZxZu9RWGIOPKRAMtMm1fsF2,html-button-response,68,881676,0.0-43.0-1.0-0.0-2.0,,,,,,,,,,,,,,,63e60f40643623a5029f1e2b,14:38:31,06/03/2024
3890.0,,,ospan,symmetry,bwKkfZxZu9RWGIOPKRAMtMm1fsF2,symmetry-judgement-task,69,886439,0.0-43.0-1.0-1.0-0.0,,,,,,,,,,0.0,0.0,,,,63e60f40643623a5029f1e2b,14:38:31,06/03/2024
,"<p style=""color:red; font-size: 35px"">Incorrect</p>",,ospan,feedback,bwKkfZxZu9RWGIOPKRAMtMm1fsF2,html-keyboard-response,70,887203,0.0-43.0-1.0-1.0-1.0,,,,,,,,,,,,,,,63e60f40643623a5029f1e2b,14:38:31,06/03/2024
3192.0,,,ospan,symmetry,bwKkfZxZu9RWGIOPKRAMtMm1fsF2,symmetry-judgement-task,71,893327,0.0-43.0-1.0-1.0-2.0,,,,,,,,,,1.0,1.0,,,,63e60f40643623a5029f1e2b,14:38:31,06/03/2024
,"<p style=""color:green; font-size: 35px"">Correct</p>",,ospan,feedback,bwKkfZxZu9RWGIOPKRAMtMm1fsF2,html-keyboard-response,72,894093,0.0-43.0-1.0-1.0-3.0,,,,,,,,,,,,,,,63e60f40643623a5029f1e2b,14:38:31,06/03/2024
3390.0,,,ospan,symmetry,bwKkfZxZu9RWGIOPKRAMtMm1fsF2,symmetry-judgement-task,73,900518,0.0-43.0-1.0-1.0-4.0,,,,,,,,,,1.0,1.0,,,,63e60f40643623a5029f1e2b,14:38:31,06/03/2024
,"<p style=""color:green; font-size: 35px"">Correct</p>",,ospan,feedback,bwKkfZxZu9RWGIOPKRAMtMm1fsF2,html-keyboard-response,74,901285,0.0-43.0-1.0-1.0-5.0,,,,,,,,,,,,,,,63e60f40643623a5029f1e2b,14:38:31,06/03/2024
33931.40000000596,"<p style=""font-size: 3rem;"">You only responded correctly on 2 of 3 symmetry judgments.<br><br><b>In the main task, you must try harder to answer accurately.</b></p><br><br>",0,ospan,practice,bwKkfZxZu9RWGIOPKRAMtMm1fsF2,html-button-response,75,937230,0.0-43.0-1.0-2.0,,,,,,,,,,,,,,,63e60f40643623a5029f1e2b,14:38:31,06/03/2024
1903.6000000238419,"<div class = 'left_align' style='font-size: 3.25rem; line-height: 1.3;'>Now you will practice doing both parts of the experiment at the same time.<br><br>In the next practice set, you will be given one grid picture to judge.<br>Then letter will appear on the screen. Try to remember the letter.<br><br>It is <b>very important</b> to make the symmetry judgment as quickly and accurately as possible.<br><br>Just as before, once you have make the symmetry judgment, you can click Yes or No.<br><b>Note that you will no longer see Correct or Incorrect feedback.</div><br><br><br><br>",0,ospan,instruct,bwKkfZxZu9RWGIOPKRAMtMm1fsF2,html-button-response,76,939391,0.0-43.0-2.0-0.0-0.0,,,,,,,,,,,,,,,63e60f40643623a5029f1e2b,14:38:31,06/03/2024
1272.0999999940395,"<div class = 'left_align' style='font-size: 3.25rem; line-height: 1.3;'>After the letter goes away, another grid picture will appear, and then<br>another letter.<br><br>At the end of each set of letters and grids, you will recall the letters to the best<br>of your ability. Remember, try your best to get the letters in the correct order.<br><br>It is important to <b>quickly</b> and <b>accurately</b> make the symmetry judgments.</div><br><br><br><br>",0,ospan,instruct,bwKkfZxZu9RWGIOPKRAMtMm1fsF2,html-button-response,77,940926,0.0-43.0-2.0-0.0-1.0,,,,,,,,,,,,,,,63e60f40643623a5029f1e2b,14:38:31,06/03/2024
3483.4000000059605,"<div class = 'left_align' style='font-size: 3.25rem; line-height: 1.3;'>On the feedback screen, if you are not doing well at the symmetry judgments,<br>you will also see a warning in the middle. This indicates your percent <br>correct for the grid pictures for the entire experiment.<br><br>It is <b>very</b> important for you to keep accuracy at least at 85%: <u>We can only use<br>data where the participant was at least 85% accurate on the judgments.</u> Therefore,<br> please try your best to perform well on the symmetry judgments, <b>at the same time</b><br>doing your best to recall as many letters as possible.<br><br>Click the button to try some practice problems.</div><br><br><br><br>",0,ospan,instruct,bwKkfZxZu9RWGIOPKRAMtMm1fsF2,html-button-response,78,944674,0.0-43.0-2.0-0.0-2.0,,,,,,,,,,,,,,,63e60f40643623a5029f1e2b,14:38:31,06/03/2024
,"<p style=""font-size:75px;"">...</p>",,ospan,iti,bwKkfZxZu9RWGIOPKRAMtMm1fsF2,html-keyboard-response,79,945942,0.0-43.0-2.0-1.0-0.0,,,,,,,,,,,,,,,63e60f40643623a5029f1e2b,14:38:31,06/03/2024
3649.0,,,ospan,symmetry,bwKkfZxZu9RWGIOPKRAMtMm1fsF2,symmetry-judgement-task,80,950698,0.0-43.0-2.0-1.0-1.0-0.0,,,,,,,,,,1.0,1.0,,,,63e60f40643623a5029f1e2b,14:38:31,06/03/2024
,"<div style=""font-size: 10rem; color: #0000FF"">K</div>",,ospan,letter,bwKkfZxZu9RWGIOPKRAMtMm1fsF2,html-keyboard-response,81,951701,0.0-43.0-2.0-1.0-1.0-1.0,,,,,,,,,,,,,,,63e60f40643623a5029f1e2b,14:38:31,06/03/2024
5895.0,,,ospan,symmetry,bwKkfZxZu9RWGIOPKRAMtMm1fsF2,symmetry-judgement-task,82,959781,0.0-43.0-2.0-1.0-1.0-2.0,,,,,,,,,,1.0,1.0,,,,63e60f40643623a5029f1e2b,14:38:31,06/03/2024
,"<div style=""font-size: 10rem; color: #0000FF"">H</div>",,ospan,letter,bwKkfZxZu9RWGIOPKRAMtMm1fsF2,html-keyboard-response,83,960794,0.0-43.0-2.0-1.0-1.0-3.0,,,,,,,,,,,,,,,63e60f40643623a5029f1e2b,14:38:31,06/03/2024
2843.0,,,ospan,symmetry,bwKkfZxZu9RWGIOPKRAMtMm1fsF2,symmetry-judgement-task,84,965956,0.0-43.0-2.0-1.0-1.0-4.0,,,,,,,,,,1.0,1.0,,,,63e60f40643623a5029f1e2b,14:38:31,06/03/2024
,"<div style=""font-size: 10rem; color: #0000FF"">L</div>",,ospan,letter,bwKkfZxZu9RWGIOPKRAMtMm1fsF2,html-keyboard-response,85,966972,0.0-43.0-2.0-1.0-1.0-5.0,,,,,,,,,,,,,,,63e60f40643623a5029f1e2b,14:38:31,06/03/2024
7673.100000023842,"<div class = numbox><p style=""font-size: 2.4rem"">Please recall the letters you saw to the best of your ability. If you do not remember a particular letter, use the SKIP button.<br><b>(When you are ready to lock in your answer, press ENTER)</b></p><button id = button_1 class = ""square num-button"" onclick = ""recordClick(this)""><div class = content><div class = numbers>C</div></div></button><button id = button_2 class = ""square num-button"" onclick = ""recordClick(this)""><div class = content><div class = numbers>G</div></div></button><button id = button_3 class = ""square num-button"" onclick = ""recordClick(this)""><div class = content><div class = numbers>H</div></div></button><button id = button_4 class = ""square num-button"" onclick = ""recordClick(this)""><div class = content><div class = numbers>J</div></div></button><button id = button_5 class = ""square num-button"" onclick = ""recordClick(this)""><div class = content><div class = numbers>K</div></div></button><button id = button_6 class = ""square num-button"" onclick = ""recordClick(this)""><div class = content><div class = numbers>L</div></div></button><button id = button_7 class = ""square num-button"" onclick = ""recordClick(this)""><div class = content><div class = numbers>N</div></div></button><button id = button_8 class = ""square num-button"" onclick = ""recordClick(this)""><div class = content><div class = numbers>P</div></div></button><button id = button_9 class = ""square num-button"" onclick = ""recordClick(this)""><div class = content><div class = numbers>Q</div></div></button><button id = button_10 class = ""square num-button"" onclick = ""recordClick(this)""><div class = content><div class = numbers>R</div></div></button><button id = button_11 class = ""square num-button"" onclick = ""recordClick(this)""><div class = content><div class = numbers>S</div></div></button><button id = button_12 class = ""square num-button"" onclick = ""recordClick(this)""><div class = content><div class = numbers>Y</div></div></button><button class = clear_button id = ""ClearButton"" onclick = ""clearResponse()"">BACKSPACE</button><button class = blank_button id = ""BlankButton"" onclick = ""blankResponse()"">SKIP</button><p style=""font-size: 2.4rem""><u><b>Current Answer:</b></u></p><br><br><div id=echoed_txt style=""font-size: 5rem; color:blue;""><b></b></div></div>",enter,ospan,retrieval,bwKkfZxZu9RWGIOPKRAMtMm1fsF2,html-keyboard-response,86,975414,0.0-43.0-2.0-1.0-2.0-0.0,NA,NA,NA,3.0,"[""K"",""H"",""L""]","[""K"",""H"",""L""]",1.0,3.0,"['<font color=""green"">K</font>', '<font color=""green"">H</font>', '<font color=""green"">L</font>']",,,,,,63e60f40643623a5029f1e2b,14:38:31,06/03/2024
2274.0,"['<p style=""font-size:44px"">Letters:<br><br><br><font color=""green"">K</font> <font color=""green"">H</font> <font color=""green"">L</font></p><br><br><p style=""font-size:30px"">Symmetry:<br><br><font color=""green"">100%</font></p><br><br>']",0,ospan,practice_feedback,bwKkfZxZu9RWGIOPKRAMtMm1fsF2,html-button-response,87,978195,0.0-43.0-2.0-1.0-2.0-1.0,,,,,,,,,,,,,,,63e60f40643623a5029f1e2b,14:38:31,06/03/2024
,"<p style=""font-size:75px;"">...</p>",,ospan,iti,bwKkfZxZu9RWGIOPKRAMtMm1fsF2,html-keyboard-response,88,979211,0.0-43.0-2.0-2.0-0.0,,,,,,,,,,,,,,,63e60f40643623a5029f1e2b,14:38:31,06/03/2024
3566.0,,,ospan,symmetry,bwKkfZxZu9RWGIOPKRAMtMm1fsF2,symmetry-judgement-task,89,984155,0.0-43.0-2.0-2.0-1.0-0.0,,,,,,,,,,1.0,1.0,,,,63e60f40643623a5029f1e2b,14:38:31,06/03/2024
,"<div style=""font-size: 10rem; color: #0000FF"">S</div>",,ospan,letter,bwKkfZxZu9RWGIOPKRAMtMm1fsF2,html-keyboard-response,90,985171,0.0-43.0-2.0-2.0-1.0-1.0,,,,,,,,,,,,,,,63e60f40643623a5029f1e2b,14:38:31,06/03/2024
2691.0,,,ospan,symmetry,bwKkfZxZu9RWGIOPKRAMtMm1fsF2,symmetry-judgement-task,91,989718,0.0-43.0-2.0-2.0-1.0-2.0,,,,,,,,,,1.0,1.0,,,,63e60f40643623a5029f1e2b,14:38:31,06/03/2024
,"<div style=""font-size: 10rem; color: #0000FF"">J</div>",,ospan,letter,bwKkfZxZu9RWGIOPKRAMtMm1fsF2,html-keyboard-response,92,990727,0.0-43.0-2.0-2.0-1.0-3.0,,,,,,,,,,,,,,,63e60f40643623a5029f1e2b,14:38:31,06/03/2024
3207.0,,,ospan,symmetry,bwKkfZxZu9RWGIOPKRAMtMm1fsF2,symmetry-judgement-task,93,996141,0.0-43.0-2.0-2.0-1.0-4.0,,,,,,,,,,1.0,1.0,,,,63e60f40643623a5029f1e2b,14:38:31,06/03/2024
,"<div style=""font-size: 10rem; color: #0000FF"">H</div>",,ospan,letter,bwKkfZxZu9RWGIOPKRAMtMm1fsF2,html-keyboard-response,94,997159,0.0-43.0-2.0-2.0-1.0-5.0,,,,,,,,,,,,,,,63e60f40643623a5029f1e2b,14:38:31,06/03/2024
4433.4000000059605,"<div class = numbox><p style=""font-size: 2.4rem"">Please recall the letters you saw to the best of your ability. If you do not remember a particular letter, use the SKIP button.<br><b>(When you are ready to lock in your answer, press ENTER)</b></p><button id = button_1 class = ""square num-button"" onclick = ""recordClick(this)""><div class = content><div class = numbers>C</div></div></button><button id = button_2 class = ""square num-button"" onclick = ""recordClick(this)""><div class = content><div class = numbers>G</div></div></button><button id = button_3 class = ""square num-button"" onclick = ""recordClick(this)""><div class = content><div class = numbers>H</div></div></button><button id = button_4 class = ""square num-button"" onclick = ""recordClick(this)""><div class = content><div class = numbers>J</div></div></button><button id = button_5 class = ""square num-button"" onclick = ""recordClick(this)""><div class = content><div class = numbers>K</div></div></button><button id = button_6 class = ""square num-button"" onclick = ""recordClick(this)""><div class = content><div class = numbers>L</div></div></button><button id = button_7 class = ""square num-button"" onclick = ""recordClick(this)""><div class = content><div class = numbers>N</div></div></button><button id = button_8 class = ""square num-button"" onclick = ""recordClick(this)""><div class = content><div class = numbers>P</div></div></button><button id = button_9 class = ""square num-button"" onclick = ""recordClick(this)""><div class = content><div class = numbers>Q</div></div></button><button id = button_10 class = ""square num-button"" onclick = ""recordClick(this)""><div class = content><div class = numbers>R</div></div></button><button id = button_11 class = ""square num-button"" onclick = ""recordClick(this)""><div class = content><div class = numbers>S</div></div></button><button id = button_12 class = ""square num-button"" onclick = ""recordClick(this)""><div class = content><div class = numbers>Y</div></div></button><button class = clear_button id = ""ClearButton"" onclick = ""clearResponse()"">BACKSPACE</button><button class = blank_button id = ""BlankButton"" onclick = ""blankResponse()"">SKIP</button><p style=""font-size: 2.4rem""><u><b>Current Answer:</b></u></p><br><br><div id=echoed_txt style=""font-size: 5rem; color:blue;""><b></b></div></div>",enter,ospan,retrieval,bwKkfZxZu9RWGIOPKRAMtMm1fsF2,html-keyboard-response,95,1002360,0.0-43.0-2.0-2.0-2.0-0.0,NA,NA,NA,3.0,"[""S"",""J"",""H""]","[""S"",""J"",""H""]",1.0,3.0,"['<font color=""green"">S</font>', '<font color=""green"">J</font>', '<font color=""green"">H</font>']",,,,,,63e60f40643623a5029f1e2b,14:38:31,06/03/2024
3761.9000000059605,"['<p style=""font-size:44px"">Letters:<br><br><br><font color=""green"">S</font> <font color=""green"">J</font> <font color=""green"">H</font></p><br><br><p style=""font-size:30px"">Symmetry:<br><br><font color=""green"">100%</font></p><br><br>']",0,ospan,practice_feedback,bwKkfZxZu9RWGIOPKRAMtMm1fsF2,html-button-response,96,1006633,0.0-43.0-2.0-2.0-2.0-1.0,,,,,,,,,,,,,,,63e60f40643623a5029f1e2b,14:38:31,06/03/2024
42038.59999999404,"<div class = 'left_align' style='font-size: 3rem; line-height: 1.3;'><b>Great work! That is the end of practice.</b><br><br>The real trials will look just like the practice trials you just completed.<br><br><u>Here, you will not see feedback</u>. First, you will see an grid picture to judge,<br>then a letter to remember. When the recall screen appears, report the letters in the<br>order presented. If you forget a letter, remember to use the <b>blank</b> button to move to the<br>next letter. Some of the sets will have more symmetry grids and letters than others.<br><br>It is important that you do your best on both the symmetry judgments and the letter recall<br>parts of the experiment. For for the symmetry judgments, try to work as <b>quickly</b> and <br>as <b>accurately</b> as possible. Remember to keep your symmetry accuracy at 85% or above.<br><br><b>For the letters, do NOT use any external aid (e.g., writing on paper, electronic device).</b><br><br>It is <u>very important</u> to our experiment to have a <b>true</b> view of your real performance.<br><br>Do not worry if you miss some when it gets hard! This task is meant to be very challenging!<br><br>Click the button to begin.</div><br><br><br><br>",0,ospan,starting_real_here,bwKkfZxZu9RWGIOPKRAMtMm1fsF2,html-button-response,97,1048674,0.0-43.0-2.0-3.0,,,,,,,,,,,,,,,63e60f40643623a5029f1e2b,14:38:31,06/03/2024
,"<p style=""font-size:75px;"">...</p>",,ospan,iti,bwKkfZxZu9RWGIOPKRAMtMm1fsF2,html-keyboard-response,98,1049957,0.0-43.0-3.0-0.0-0.0,,,,,,,,,,,,,,,63e60f40643623a5029f1e2b,14:38:31,06/03/2024
3090.0,,,ospan,symmetry,bwKkfZxZu9RWGIOPKRAMtMm1fsF2,symmetry-judgement-task,99,1054433,0.0-43.0-3.0-0.0-1.0-0.0,,,,,,,,,,1.0,1.0,,,,63e60f40643623a5029f1e2b,14:38:31,06/03/2024
,"<div style=""font-size: 10rem; color: #0000FF"">S</div>",,ospan,letter,bwKkfZxZu9RWGIOPKRAMtMm1fsF2,html-keyboard-response,100,1055438,0.0-43.0-3.0-0.0-1.0-1.0,,,,,,,,,,,,,,,63e60f40643623a5029f1e2b,14:38:31,06/03/2024
3921.0,,,ospan,symmetry,bwKkfZxZu9RWGIOPKRAMtMm1fsF2,symmetry-judgement-task,101,1061512,0.0-43.0-3.0-0.0-1.0-2.0,,,,,,,,,,1.0,1.0,,,,63e60f40643623a5029f1e2b,14:38:31,06/03/2024
,"<div style=""font-size: 10rem; color: #0000FF"">C</div>",,ospan,letter,bwKkfZxZu9RWGIOPKRAMtMm1fsF2,html-keyboard-response,102,1062528,0.0-43.0-3.0-0.0-1.0-3.0,,,,,,,,,,,,,,,63e60f40643623a5029f1e2b,14:38:31,06/03/2024
5834.0,,,ospan,symmetry,bwKkfZxZu9RWGIOPKRAMtMm1fsF2,symmetry-judgement-task,103,1070553,0.0-43.0-3.0-0.0-1.0-4.0,,,,,,,,,,1.0,1.0,,,,63e60f40643623a5029f1e2b,14:38:31,06/03/2024
,"<div style=""font-size: 10rem; color: #0000FF"">Y</div>",,ospan,letter,bwKkfZxZu9RWGIOPKRAMtMm1fsF2,html-keyboard-response,104,1071569,0.0-43.0-3.0-0.0-1.0-5.0,,,,,,,,,,,,,,,63e60f40643623a5029f1e2b,14:38:31,06/03/2024
6835.699999988079,"<div class = numbox><p style=""font-size: 2.4rem"">Please recall the letters you saw to the best of your ability. If you do not remember a particular letter, use the SKIP button.<br><b>(When you are ready to lock in your answer, press ENTER)</b></p><button id = button_1 class = ""square num-button"" onclick = ""recordClick(this)""><div class = content><div class = numbers>C</div></div></button><button id = button_2 class = ""square num-button"" onclick = ""recordClick(this)""><div class = content><div class = numbers>G</div></div></button><button id = button_3 class = ""square num-button"" onclick = ""recordClick(this)""><div class = content><div class = numbers>H</div></div></button><button id = button_4 class = ""square num-button"" onclick = ""recordClick(this)""><div class = content><div class = numbers>J</div></div></button><button id = button_5 class = ""square num-button"" onclick = ""recordClick(this)""><div class = content><div class = numbers>K</div></div></button><button id = button_6 class = ""square num-button"" onclick = ""recordClick(this)""><div class = content><div class = numbers>L</div></div></button><button id = button_7 class = ""square num-button"" onclick = ""recordClick(this)""><div class = content><div class = numbers>N</div></div></button><button id = button_8 class = ""square num-button"" onclick = ""recordClick(this)""><div class = content><div class = numbers>P</div></div></button><button id = button_9 class = ""square num-button"" onclick = ""recordClick(this)""><div class = content><div class = numbers>Q</div></div></button><button id = button_10 class = ""square num-button"" onclick = ""recordClick(this)""><div class = content><div class = numbers>R</div></div></button><button id = button_11 class = ""square num-button"" onclick = ""recordClick(this)""><div class = content><div class = numbers>S</div></div></button><button id = button_12 class = ""square num-button"" onclick = ""recordClick(this)""><div class = content><div class = numbers>Y</div></div></button><button class = clear_button id = ""ClearButton"" onclick = ""clearResponse()"">BACKSPACE</button><button class = blank_button id = ""BlankButton"" onclick = ""blankResponse()"">SKIP</button><p style=""font-size: 2.4rem""><u><b>Current Answer:</b></u></p><br><br><div id=echoed_txt style=""font-size: 5rem; color:blue;""><b></b></div></div>",enter,ospan,retrieval,bwKkfZxZu9RWGIOPKRAMtMm1fsF2,html-keyboard-response,105,1079172,0.0-43.0-3.0-0.0-2.0,3,3,3,3.0,"[""S"",""C"",""Y""]","[""S"",""C"",""Y""]",1.0,3.0,,,,,,,63e60f40643623a5029f1e2b,14:38:31,06/03/2024
2449.0999999940395,[''],0,ospan,feedback,bwKkfZxZu9RWGIOPKRAMtMm1fsF2,html-button-response,106,1082132,0.0-43.0-3.0-0.0-3.0,,,,,,,,,,,,100.0,0.0,,63e60f40643623a5029f1e2b,14:38:31,06/03/2024
,"<p style=""font-size:75px;"">...</p>",,ospan,iti,bwKkfZxZu9RWGIOPKRAMtMm1fsF2,html-keyboard-response,107,1083144,0.0-43.0-4.0-0.0-0.0,,,,,,,,,,,,,,,63e60f40643623a5029f1e2b,14:38:31,06/03/2024
5397.0,,,ospan,symmetry,bwKkfZxZu9RWGIOPKRAMtMm1fsF2,symmetry-judgement-task,108,1089952,0.0-43.0-4.0-0.0-1.0-0.0,,,,,,,,,,1.0,1.0,,,,63e60f40643623a5029f1e2b,14:38:31,06/03/2024
,"<div style=""font-size: 10rem; color: #0000FF"">C</div>",,ospan,letter,bwKkfZxZu9RWGIOPKRAMtMm1fsF2,html-keyboard-response,109,1090954,0.0-43.0-4.0-0.0-1.0-1.0,,,,,,,,,,,,,,,63e60f40643623a5029f1e2b,14:38:31,06/03/2024
4048.0,,,ospan,symmetry,bwKkfZxZu9RWGIOPKRAMtMm1fsF2,symmetry-judgement-task,110,1097325,0.0-43.0-4.0-0.0-1.0-2.0,,,,,,,,,,1.0,1.0,,,,63e60f40643623a5029f1e2b,14:38:31,06/03/2024
,"<div style=""font-size: 10rem; color: #0000FF"">G</div>",,ospan,letter,bwKkfZxZu9RWGIOPKRAMtMm1fsF2,html-keyboard-response,111,1098328,0.0-43.0-4.0-0.0-1.0-3.0,,,,,,,,,,,,,,,63e60f40643623a5029f1e2b,14:38:31,06/03/2024
2892.0,,,ospan,symmetry,bwKkfZxZu9RWGIOPKRAMtMm1fsF2,symmetry-judgement-task,112,1103431,0.0-43.0-4.0-0.0-1.0-4.0,,,,,,,,,,1.0,1.0,,,,63e60f40643623a5029f1e2b,14:38:31,06/03/2024
,"<div style=""font-size: 10rem; color: #0000FF"">Y</div>",,ospan,letter,bwKkfZxZu9RWGIOPKRAMtMm1fsF2,html-keyboard-response,113,1104441,0.0-43.0-4.0-0.0-1.0-5.0,,,,,,,,,,,,,,,63e60f40643623a5029f1e2b,14:38:31,06/03/2024
3354.0,,,ospan,symmetry,bwKkfZxZu9RWGIOPKRAMtMm1fsF2,symmetry-judgement-task,114,1110199,0.0-43.0-4.0-0.0-1.0-6.0,,,,,,,,,,1.0,1.0,,,,63e60f40643623a5029f1e2b,14:38:31,06/03/2024
,"<div style=""font-size: 10rem; color: #0000FF"">H</div>",,ospan,letter,bwKkfZxZu9RWGIOPKRAMtMm1fsF2,html-keyboard-response,115,1111215,0.0-43.0-4.0-0.0-1.0-7.0,,,,,,,,,,,,,,,63e60f40643623a5029f1e2b,14:38:31,06/03/2024
6316.700000017881,"<div class = numbox><p style=""font-size: 2.4rem"">Please recall the letters you saw to the best of your ability. If you do not remember a particular letter, use the SKIP button.<br><b>(When you are ready to lock in your answer, press ENTER)</b></p><button id = button_1 class = ""square num-button"" onclick = ""recordClick(this)""><div class = content><div class = numbers>C</div></div></button><button id = button_2 class = ""square num-button"" onclick = ""recordClick(this)""><div class = content><div class = numbers>G</div></div></button><button id = button_3 class = ""square num-button"" onclick = ""recordClick(this)""><div class = content><div class = numbers>H</div></div></button><button id = button_4 class = ""square num-button"" onclick = ""recordClick(this)""><div class = content><div class = numbers>J</div></div></button><button id = button_5 class = ""square num-button"" onclick = ""recordClick(this)""><div class = content><div class = numbers>K</div></div></button><button id = button_6 class = ""square num-button"" onclick = ""recordClick(this)""><div class = content><div class = numbers>L</div></div></button><button id = button_7 class = ""square num-button"" onclick = ""recordClick(this)""><div class = content><div class = numbers>N</div></div></button><button id = button_8 class = ""square num-button"" onclick = ""recordClick(this)""><div class = content><div class = numbers>P</div></div></button><button id = button_9 class = ""square num-button"" onclick = ""recordClick(this)""><div class = content><div class = numbers>Q</div></div></button><button id = button_10 class = ""square num-button"" onclick = ""recordClick(this)""><div class = content><div class = numbers>R</div></div></button><button id = button_11 class = ""square num-button"" onclick = ""recordClick(this)""><div class = content><div class = numbers>S</div></div></button><button id = button_12 class = ""square num-button"" onclick = ""recordClick(this)""><div class = content><div class = numbers>Y</div></div></button><button class = clear_button id = ""ClearButton"" onclick = ""clearResponse()"">BACKSPACE</button><button class = blank_button id = ""BlankButton"" onclick = ""blankResponse()"">SKIP</button><p style=""font-size: 2.4rem""><u><b>Current Answer:</b></u></p><br><br><div id=echoed_txt style=""font-size: 5rem; color:blue;""><b></b></div></div>",enter,ospan,retrieval,bwKkfZxZu9RWGIOPKRAMtMm1fsF2,html-keyboard-response,116,1118301,0.0-43.0-4.0-0.0-2.0,7,7,7,4.0,"[""C"",""G"",""Y"",""H""]","[""C"",""G"",""Y"",""H""]",1.0,4.0,,,,,,,63e60f40643623a5029f1e2b,14:38:31,06/03/2024
1065.0,[''],0,ospan,feedback,bwKkfZxZu9RWGIOPKRAMtMm1fsF2,html-button-response,117,1119878,0.0-43.0-4.0-0.0-3.0,,,,,,,,,,,,100.0,0.0,,63e60f40643623a5029f1e2b,14:38:31,06/03/2024
,"<p style=""font-size:75px;"">...</p>",,ospan,iti,bwKkfZxZu9RWGIOPKRAMtMm1fsF2,html-keyboard-response,118,1120891,0.0-43.0-4.0-1.0-0.0,,,,,,,,,,,,,,,63e60f40643623a5029f1e2b,14:38:31,06/03/2024
2858.0,,,ospan,symmetry,bwKkfZxZu9RWGIOPKRAMtMm1fsF2,symmetry-judgement-task,119,1124869,0.0-43.0-4.0-1.0-1.0-0.0,,,,,,,,,,1.0,1.0,,,,63e60f40643623a5029f1e2b,14:38:31,06/03/2024
,"<div style=""font-size: 10rem; color: #0000FF"">Q</div>",,ospan,letter,bwKkfZxZu9RWGIOPKRAMtMm1fsF2,html-keyboard-response,120,1125885,0.0-43.0-4.0-1.0-1.0-1.0,,,,,,,,,,,,,,,63e60f40643623a5029f1e2b,14:38:31,06/03/2024
3246.0,,,ospan,symmetry,bwKkfZxZu9RWGIOPKRAMtMm1fsF2,symmetry-judgement-task,121,1131346,0.0-43.0-4.0-1.0-1.0-2.0,,,,,,,,,,1.0,1.0,,,,63e60f40643623a5029f1e2b,14:38:31,06/03/2024
,"<div style=""font-size: 10rem; color: #0000FF"">J</div>",,ospan,letter,bwKkfZxZu9RWGIOPKRAMtMm1fsF2,html-keyboard-response,122,1132364,0.0-43.0-4.0-1.0-1.0-3.0,,,,,,,,,,,,,,,63e60f40643623a5029f1e2b,14:38:31,06/03/2024
3383.0,,,ospan,symmetry,bwKkfZxZu9RWGIOPKRAMtMm1fsF2,symmetry-judgement-task,123,1137921,0.0-43.0-4.0-1.0-1.0-4.0,,,,,,,,,,1.0,1.0,,,,63e60f40643623a5029f1e2b,14:38:31,06/03/2024
,"<div style=""font-size: 10rem; color: #0000FF"">S</div>",,ospan,letter,bwKkfZxZu9RWGIOPKRAMtMm1fsF2,html-keyboard-response,124,1138937,0.0-43.0-4.0-1.0-1.0-5.0,,,,,,,,,,,,,,,63e60f40643623a5029f1e2b,14:38:31,06/03/2024
3483.0,,,ospan,symmetry,bwKkfZxZu9RWGIOPKRAMtMm1fsF2,symmetry-judgement-task,125,1144611,0.0-43.0-4.0-1.0-1.0-6.0,,,,,,,,,,1.0,1.0,,,,63e60f40643623a5029f1e2b,14:38:31,06/03/2024
,"<div style=""font-size: 10rem; color: #0000FF"">C</div>",,ospan,letter,bwKkfZxZu9RWGIOPKRAMtMm1fsF2,html-keyboard-response,126,1145630,0.0-43.0-4.0-1.0-1.0-7.0,,,,,,,,,,,,,,,63e60f40643623a5029f1e2b,14:38:31,06/03/2024
3496.0,,,ospan,symmetry,bwKkfZxZu9RWGIOPKRAMtMm1fsF2,symmetry-judgement-task,127,1151275,0.0-43.0-4.0-1.0-1.0-8.0,,,,,,,,,,1.0,1.0,,,,63e60f40643623a5029f1e2b,14:38:31,06/03/2024
,"<div style=""font-size: 10rem; color: #0000FF"">G</div>",,ospan,letter,bwKkfZxZu9RWGIOPKRAMtMm1fsF2,html-keyboard-response,128,1152292,0.0-43.0-4.0-1.0-1.0-9.0,,,,,,,,,,,,,,,63e60f40643623a5029f1e2b,14:38:31,06/03/2024
9852.5,"<div class = numbox><p style=""font-size: 2.4rem"">Please recall the letters you saw to the best of your ability. If you do not remember a particular letter, use the SKIP button.<br><b>(When you are ready to lock in your answer, press ENTER)</b></p><button id = button_1 class = ""square num-button"" onclick = ""recordClick(this)""><div class = content><div class = numbers>C</div></div></button><button id = button_2 class = ""square num-button"" onclick = ""recordClick(this)""><div class = content><div class = numbers>G</div></div></button><button id = button_3 class = ""square num-button"" onclick = ""recordClick(this)""><div class = content><div class = numbers>H</div></div></button><button id = button_4 class = ""square num-button"" onclick = ""recordClick(this)""><div class = content><div class = numbers>J</div></div></button><button id = button_5 class = ""square num-button"" onclick = ""recordClick(this)""><div class = content><div class = numbers>K</div></div></button><button id = button_6 class = ""square num-button"" onclick = ""recordClick(this)""><div class = content><div class = numbers>L</div></div></button><button id = button_7 class = ""square num-button"" onclick = ""recordClick(this)""><div class = content><div class = numbers>N</div></div></button><button id = button_8 class = ""square num-button"" onclick = ""recordClick(this)""><div class = content><div class = numbers>P</div></div></button><button id = button_9 class = ""square num-button"" onclick = ""recordClick(this)""><div class = content><div class = numbers>Q</div></div></button><button id = button_10 class = ""square num-button"" onclick = ""recordClick(this)""><div class = content><div class = numbers>R</div></div></button><button id = button_11 class = ""square num-button"" onclick = ""recordClick(this)""><div class = content><div class = numbers>S</div></div></button><button id = button_12 class = ""square num-button"" onclick = ""recordClick(this)""><div class = content><div class = numbers>Y</div></div></button><button class = clear_button id = ""ClearButton"" onclick = ""clearResponse()"">BACKSPACE</button><button class = blank_button id = ""BlankButton"" onclick = ""blankResponse()"">SKIP</button><p style=""font-size: 2.4rem""><u><b>Current Answer:</b></u></p><br><br><div id=echoed_txt style=""font-size: 5rem; color:blue;""><b></b></div></div>",enter,ospan,retrieval,bwKkfZxZu9RWGIOPKRAMtMm1fsF2,html-keyboard-response,129,1162912,0.0-43.0-4.0-1.0-2.0,12,12,12,5.0,"[""Q"",""J"",""S"",""C"",""G""]","[""Q"",""J"",""S"",""C"",""G""]",1.0,5.0,,,,,,,63e60f40643623a5029f1e2b,14:38:31,06/03/2024
5067.0,[''],0,ospan,feedback,bwKkfZxZu9RWGIOPKRAMtMm1fsF2,html-button-response,130,1168483,0.0-43.0-4.0-1.0-3.0,,,,,,,,,,,,100.0,0.0,,63e60f40643623a5029f1e2b,14:38:31,06/03/2024
,"<p style=""font-size:75px;"">...</p>",,ospan,iti,bwKkfZxZu9RWGIOPKRAMtMm1fsF2,html-keyboard-response,131,1169491,0.0-43.0-4.0-2.0-0.0,,,,,,,,,,,,,,,63e60f40643623a5029f1e2b,14:38:31,06/03/2024
4223.0,,,ospan,symmetry,bwKkfZxZu9RWGIOPKRAMtMm1fsF2,symmetry-judgement-task,132,1174824,0.0-43.0-4.0-2.0-1.0-0.0,,,,,,,,,,1.0,1.0,,,,63e60f40643623a5029f1e2b,14:38:31,06/03/2024
,"<div style=""font-size: 10rem; color: #0000FF"">N</div>",,ospan,letter,bwKkfZxZu9RWGIOPKRAMtMm1fsF2,html-keyboard-response,133,1175834,0.0-43.0-4.0-2.0-1.0-1.0,,,,,,,,,,,,,,,63e60f40643623a5029f1e2b,14:38:31,06/03/2024
1580.0,,,ospan,symmetry,bwKkfZxZu9RWGIOPKRAMtMm1fsF2,symmetry-judgement-task,134,1179580,0.0-43.0-4.0-2.0-1.0-2.0,,,,,,,,,,1.0,1.0,,,,63e60f40643623a5029f1e2b,14:38:31,06/03/2024
,"<div style=""font-size: 10rem; color: #0000FF"">Q</div>",,ospan,letter,bwKkfZxZu9RWGIOPKRAMtMm1fsF2,html-keyboard-response,135,1180596,0.0-43.0-4.0-2.0-1.0-3.0,,,,,,,,,,,,,,,63e60f40643623a5029f1e2b,14:38:31,06/03/2024
4757.0,,,ospan,symmetry,bwKkfZxZu9RWGIOPKRAMtMm1fsF2,symmetry-judgement-task,136,1187539,0.0-43.0-4.0-2.0-1.0-4.0,,,,,,,,,,1.0,1.0,,,,63e60f40643623a5029f1e2b,14:38:31,06/03/2024
,"<div style=""font-size: 10rem; color: #0000FF"">S</div>",,ospan,letter,bwKkfZxZu9RWGIOPKRAMtMm1fsF2,html-keyboard-response,137,1188554,0.0-43.0-4.0-2.0-1.0-5.0,,,,,,,,,,,,,,,63e60f40643623a5029f1e2b,14:38:31,06/03/2024
4700.300000011921,"<div class = numbox><p style=""font-size: 2.4rem"">Please recall the letters you saw to the best of your ability. If you do not remember a particular letter, use the SKIP button.<br><b>(When you are ready to lock in your answer, press ENTER)</b></p><button id = button_1 class = ""square num-button"" onclick = ""recordClick(this)""><div class = content><div class = numbers>C</div></div></button><button id = button_2 class = ""square num-button"" onclick = ""recordClick(this)""><div class = content><div class = numbers>G</div></div></button><button id = button_3 class = ""square num-button"" onclick = ""recordClick(this)""><div class = content><div class = numbers>H</div></div></button><button id = button_4 class = ""square num-button"" onclick = ""recordClick(this)""><div class = content><div class = numbers>J</div></div></button><button id = button_5 class = ""square num-button"" onclick = ""recordClick(this)""><div class = content><div class = numbers>K</div></div></button><button id = button_6 class = ""square num-button"" onclick = ""recordClick(this)""><div class = content><div class = numbers>L</div></div></button><button id = button_7 class = ""square num-button"" onclick = ""recordClick(this)""><div class = content><div class = numbers>N</div></div></button><button id = button_8 class = ""square num-button"" onclick = ""recordClick(this)""><div class = content><div class = numbers>P</div></div></button><button id = button_9 class = ""square num-button"" onclick = ""recordClick(this)""><div class = content><div class = numbers>Q</div></div></button><button id = button_10 class = ""square num-button"" onclick = ""recordClick(this)""><div class = content><div class = numbers>R</div></div></button><button id = button_11 class = ""square num-button"" onclick = ""recordClick(this)""><div class = content><div class = numbers>S</div></div></button><button id = button_12 class = ""square num-button"" onclick = ""recordClick(this)""><div class = content><div class = numbers>Y</div></div></button><button class = clear_button id = ""ClearButton"" onclick = ""clearResponse()"">BACKSPACE</button><button class = blank_button id = ""BlankButton"" onclick = ""blankResponse()"">SKIP</button><p style=""font-size: 2.4rem""><u><b>Current Answer:</b></u></p><br><br><div id=echoed_txt style=""font-size: 5rem; color:blue;""><b></b></div></div>",enter,ospan,retrieval,bwKkfZxZu9RWGIOPKRAMtMm1fsF2,html-keyboard-response,138,1194022,0.0-43.0-4.0-2.0-2.0,15,15,15,3.0,"[""N"",""Q"",""S""]","[""N"",""Q"",""S""]",1.0,3.0,,,,,,,63e60f40643623a5029f1e2b,14:38:31,06/03/2024
1250.699999988079,[''],0,ospan,feedback,bwKkfZxZu9RWGIOPKRAMtMm1fsF2,html-button-response,139,1195785,0.0-43.0-4.0-2.0-3.0,,,,,,,,,,,,100.0,0.0,,63e60f40643623a5029f1e2b,14:38:31,06/03/2024
,"<p style=""font-size:75px;"">...</p>",,ospan,iti,bwKkfZxZu9RWGIOPKRAMtMm1fsF2,html-keyboard-response,140,1196813,0.0-43.0-5.0-0.0-0.0,,,,,,,,,,,,,,,63e60f40643623a5029f1e2b,14:38:31,06/03/2024
2115.0,,,ospan,symmetry,bwKkfZxZu9RWGIOPKRAMtMm1fsF2,symmetry-judgement-task,141,1200334,0.0-43.0-5.0-0.0-1.0-0.0,,,,,,,,,,1.0,1.0,,,,63e60f40643623a5029f1e2b,14:38:31,06/03/2024
,"<div style=""font-size: 10rem; color: #0000FF"">K</div>",,ospan,letter,bwKkfZxZu9RWGIOPKRAMtMm1fsF2,html-keyboard-response,142,1201339,0.0-43.0-5.0-0.0-1.0-1.0,,,,,,,,,,,,,,,63e60f40643623a5029f1e2b,14:38:31,06/03/2024
4979.0,,,ospan,symmetry,bwKkfZxZu9RWGIOPKRAMtMm1fsF2,symmetry-judgement-task,143,1208503,0.0-43.0-5.0-0.0-1.0-2.0,,,,,,,,,,1.0,1.0,,,,63e60f40643623a5029f1e2b,14:38:31,06/03/2024
,"<div style=""font-size: 10rem; color: #0000FF"">L</div>",,ospan,letter,bwKkfZxZu9RWGIOPKRAMtMm1fsF2,html-keyboard-response,144,1209519,0.0-43.0-5.0-0.0-1.0-3.0,,,,,,,,,,,,,,,63e60f40643623a5029f1e2b,14:38:31,06/03/2024
3076.0,,,ospan,symmetry,bwKkfZxZu9RWGIOPKRAMtMm1fsF2,symmetry-judgement-task,145,1214785,0.0-43.0-5.0-0.0-1.0-4.0,,,,,,,,,,1.0,1.0,,,,63e60f40643623a5029f1e2b,14:38:31,06/03/2024
,"<div style=""font-size: 10rem; color: #0000FF"">N</div>",,ospan,letter,bwKkfZxZu9RWGIOPKRAMtMm1fsF2,html-keyboard-response,146,1215792,0.0-43.0-5.0-0.0-1.0-5.0,,,,,,,,,,,,,,,63e60f40643623a5029f1e2b,14:38:31,06/03/2024
4077.0,,,ospan,symmetry,bwKkfZxZu9RWGIOPKRAMtMm1fsF2,symmetry-judgement-task,147,1222286,0.0-43.0-5.0-0.0-1.0-6.0,,,,,,,,,,1.0,1.0,,,,63e60f40643623a5029f1e2b,14:38:31,06/03/2024
,"<div style=""font-size: 10rem; color: #0000FF"">R</div>",,ospan,letter,bwKkfZxZu9RWGIOPKRAMtMm1fsF2,html-keyboard-response,148,1223301,0.0-43.0-5.0-0.0-1.0-7.0,,,,,,,,,,,,,,,63e60f40643623a5029f1e2b,14:38:31,06/03/2024
3252.0,,,ospan,symmetry,bwKkfZxZu9RWGIOPKRAMtMm1fsF2,symmetry-judgement-task,149,1228801,0.0-43.0-5.0-0.0-1.0-8.0,,,,,,,,,,1.0,1.0,,,,63e60f40643623a5029f1e2b,14:38:31,06/03/2024
,"<div style=""font-size: 10rem; color: #0000FF"">Q</div>",,ospan,letter,bwKkfZxZu9RWGIOPKRAMtMm1fsF2,html-keyboard-response,150,1229816,0.0-43.0-5.0-0.0-1.0-9.0,,,,,,,,,,,,,,,63e60f40643623a5029f1e2b,14:38:31,06/03/2024
2071.0,,,ospan,symmetry,bwKkfZxZu9RWGIOPKRAMtMm1fsF2,symmetry-judgement-task,151,1234183,0.0-43.0-5.0-0.0-1.0-10.0,,,,,,,,,,1.0,1.0,,,,63e60f40643623a5029f1e2b,14:38:31,06/03/2024
,"<div style=""font-size: 10rem; color: #0000FF"">J</div>",,ospan,letter,bwKkfZxZu9RWGIOPKRAMtMm1fsF2,html-keyboard-response,152,1235195,0.0-43.0-5.0-0.0-1.0-11.0,,,,,,,,,,,,,,,63e60f40643623a5029f1e2b,14:38:31,06/03/2024
11406.5,"<div class = numbox><p style=""font-size: 2.4rem"">Please recall the letters you saw to the best of your ability. If you do not remember a particular letter, use the SKIP button.<br><b>(When you are ready to lock in your answer, press ENTER)</b></p><button id = button_1 class = ""square num-button"" onclick = ""recordClick(this)""><div class = content><div class = numbers>C</div></div></button><button id = button_2 class = ""square num-button"" onclick = ""recordClick(this)""><div class = content><div class = numbers>G</div></div></button><button id = button_3 class = ""square num-button"" onclick = ""recordClick(this)""><div class = content><div class = numbers>H</div></div></button><button id = button_4 class = ""square num-button"" onclick = ""recordClick(this)""><div class = content><div class = numbers>J</div></div></button><button id = button_5 class = ""square num-button"" onclick = ""recordClick(this)""><div class = content><div class = numbers>K</div></div></button><button id = button_6 class = ""square num-button"" onclick = ""recordClick(this)""><div class = content><div class = numbers>L</div></div></button><button id = button_7 class = ""square num-button"" onclick = ""recordClick(this)""><div class = content><div class = numbers>N</div></div></button><button id = button_8 class = ""square num-button"" onclick = ""recordClick(this)""><div class = content><div class = numbers>P</div></div></button><button id = button_9 class = ""square num-button"" onclick = ""recordClick(this)""><div class = content><div class = numbers>Q</div></div></button><button id = button_10 class = ""square num-button"" onclick = ""recordClick(this)""><div class = content><div class = numbers>R</div></div></button><button id = button_11 class = ""square num-button"" onclick = ""recordClick(this)""><div class = content><div class = numbers>S</div></div></button><button id = button_12 class = ""square num-button"" onclick = ""recordClick(this)""><div class = content><div class = numbers>Y</div></div></button><button class = clear_button id = ""ClearButton"" onclick = ""clearResponse()"">BACKSPACE</button><button class = blank_button id = ""BlankButton"" onclick = ""blankResponse()"">SKIP</button><p style=""font-size: 2.4rem""><u><b>Current Answer:</b></u></p><br><br><div id=echoed_txt style=""font-size: 5rem; color:blue;""><b></b></div></div>",enter,ospan,retrieval,bwKkfZxZu9RWGIOPKRAMtMm1fsF2,html-keyboard-response,153,1247368,0.0-43.0-5.0-0.0-2.0,21,21,21,6.0,"[""K"",""L"",""N"",""R"",""Q"",""J""]","[""K"",""L"",""N"",""R"",""Q"",""J""]",1.0,6.0,,,,,,,63e60f40643623a5029f1e2b,14:38:31,06/03/2024
1109.0,[''],0,ospan,feedback,bwKkfZxZu9RWGIOPKRAMtMm1fsF2,html-button-response,154,1248998,0.0-43.0-5.0-0.0-3.0,,,,,,,,,,,,100.0,0.0,,63e60f40643623a5029f1e2b,14:38:31,06/03/2024
,"<p style=""font-size:75px;"">...</p>",,ospan,iti,bwKkfZxZu9RWGIOPKRAMtMm1fsF2,html-keyboard-response,155,1250014,0.0-43.0-5.0-1.0-0.0,,,,,,,,,,,,,,,63e60f40643623a5029f1e2b,14:38:31,06/03/2024
2428.0,,,ospan,symmetry,bwKkfZxZu9RWGIOPKRAMtMm1fsF2,symmetry-judgement-task,156,1253558,0.0-43.0-5.0-1.0-1.0-0.0,,,,,,,,,,1.0,1.0,,,,63e60f40643623a5029f1e2b,14:38:31,06/03/2024
,"<div style=""font-size: 10rem; color: #0000FF"">G</div>",,ospan,letter,bwKkfZxZu9RWGIOPKRAMtMm1fsF2,html-keyboard-response,157,1254574,0.0-43.0-5.0-1.0-1.0-1.0,,,,,,,,,,,,,,,63e60f40643623a5029f1e2b,14:38:31,06/03/2024
2796.0,,,ospan,symmetry,bwKkfZxZu9RWGIOPKRAMtMm1fsF2,symmetry-judgement-task,158,1259569,0.0-43.0-5.0-1.0-1.0-2.0,,,,,,,,,,1.0,1.0,,,,63e60f40643623a5029f1e2b,14:38:31,06/03/2024
,"<div style=""font-size: 10rem; color: #0000FF"">C</div>",,ospan,letter,bwKkfZxZu9RWGIOPKRAMtMm1fsF2,html-keyboard-response,159,1260586,0.0-43.0-5.0-1.0-1.0-3.0,,,,,,,,,,,,,,,63e60f40643623a5029f1e2b,14:38:31,06/03/2024
6354.0,,,ospan,symmetry,bwKkfZxZu9RWGIOPKRAMtMm1fsF2,symmetry-judgement-task,160,1269119,0.0-43.0-5.0-1.0-1.0-4.0,,,,,,,,,,1.0,1.0,,,,63e60f40643623a5029f1e2b,14:38:31,06/03/2024
,"<div style=""font-size: 10rem; color: #0000FF"">H</div>",,ospan,letter,bwKkfZxZu9RWGIOPKRAMtMm1fsF2,html-keyboard-response,161,1270126,0.0-43.0-5.0-1.0-1.0-5.0,,,,,,,,,,,,,,,63e60f40643623a5029f1e2b,14:38:31,06/03/2024
1675.0,,,ospan,symmetry,bwKkfZxZu9RWGIOPKRAMtMm1fsF2,symmetry-judgement-task,162,1273955,0.0-43.0-5.0-1.0-1.0-6.0,,,,,,,,,,1.0,1.0,,,,63e60f40643623a5029f1e2b,14:38:31,06/03/2024
,"<div style=""font-size: 10rem; color: #0000FF"">N</div>",,ospan,letter,bwKkfZxZu9RWGIOPKRAMtMm1fsF2,html-keyboard-response,163,1274972,0.0-43.0-5.0-1.0-1.0-7.0,,,,,,,,,,,,,,,63e60f40643623a5029f1e2b,14:38:31,06/03/2024
1683.0,,,ospan,symmetry,bwKkfZxZu9RWGIOPKRAMtMm1fsF2,symmetry-judgement-task,164,1278884,0.0-43.0-5.0-1.0-1.0-8.0,,,,,,,,,,1.0,1.0,,,,63e60f40643623a5029f1e2b,14:38:31,06/03/2024
,"<div style=""font-size: 10rem; color: #0000FF"">L</div>",,ospan,letter,bwKkfZxZu9RWGIOPKRAMtMm1fsF2,html-keyboard-response,165,1279906,0.0-43.0-5.0-1.0-1.0-9.0,,,,,,,,,,,,,,,63e60f40643623a5029f1e2b,14:38:31,06/03/2024
3748.0,,,ospan,symmetry,bwKkfZxZu9RWGIOPKRAMtMm1fsF2,symmetry-judgement-task,166,1285877,0.0-43.0-5.0-1.0-1.0-10.0,,,,,,,,,,1.0,1.0,,,,63e60f40643623a5029f1e2b,14:38:31,06/03/2024
,"<div style=""font-size: 10rem; color: #0000FF"">Y</div>",,ospan,letter,bwKkfZxZu9RWGIOPKRAMtMm1fsF2,html-keyboard-response,167,1286894,0.0-43.0-5.0-1.0-1.0-11.0,,,,,,,,,,,,,,,63e60f40643623a5029f1e2b,14:38:31,06/03/2024
2872.0,,,ospan,symmetry,bwKkfZxZu9RWGIOPKRAMtMm1fsF2,symmetry-judgement-task,168,1291970,0.0-43.0-5.0-1.0-1.0-12.0,,,,,,,,,,1.0,1.0,,,,63e60f40643623a5029f1e2b,14:38:31,06/03/2024
,"<div style=""font-size: 10rem; color: #0000FF"">Q</div>",,ospan,letter,bwKkfZxZu9RWGIOPKRAMtMm1fsF2,html-keyboard-response,169,1292976,0.0-43.0-5.0-1.0-1.0-13.0,,,,,,,,,,,,,,,63e60f40643623a5029f1e2b,14:38:31,06/03/2024
10145.300000011921,"<div class = numbox><p style=""font-size: 2.4rem"">Please recall the letters you saw to the best of your ability. If you do not remember a particular letter, use the SKIP button.<br><b>(When you are ready to lock in your answer, press ENTER)</b></p><button id = button_1 class = ""square num-button"" onclick = ""recordClick(this)""><div class = content><div class = numbers>C</div></div></button><button id = button_2 class = ""square num-button"" onclick = ""recordClick(this)""><div class = content><div class = numbers>G</div></div></button><button id = button_3 class = ""square num-button"" onclick = ""recordClick(this)""><div class = content><div class = numbers>H</div></div></button><button id = button_4 class = ""square num-button"" onclick = ""recordClick(this)""><div class = content><div class = numbers>J</div></div></button><button id = button_5 class = ""square num-button"" onclick = ""recordClick(this)""><div class = content><div class = numbers>K</div></div></button><button id = button_6 class = ""square num-button"" onclick = ""recordClick(this)""><div class = content><div class = numbers>L</div></div></button><button id = button_7 class = ""square num-button"" onclick = ""recordClick(this)""><div class = content><div class = numbers>N</div></div></button><button id = button_8 class = ""square num-button"" onclick = ""recordClick(this)""><div class = content><div class = numbers>P</div></div></button><button id = button_9 class = ""square num-button"" onclick = ""recordClick(this)""><div class = content><div class = numbers>Q</div></div></button><button id = button_10 class = ""square num-button"" onclick = ""recordClick(this)""><div class = content><div class = numbers>R</div></div></button><button id = button_11 class = ""square num-button"" onclick = ""recordClick(this)""><div class = content><div class = numbers>S</div></div></button><button id = button_12 class = ""square num-button"" onclick = ""recordClick(this)""><div class = content><div class = numbers>Y</div></div></button><button class = clear_button id = ""ClearButton"" onclick = ""clearResponse()"">BACKSPACE</button><button class = blank_button id = ""BlankButton"" onclick = ""blankResponse()"">SKIP</button><p style=""font-size: 2.4rem""><u><b>Current Answer:</b></u></p><br><br><div id=echoed_txt style=""font-size: 5rem; color:blue;""><b></b></div></div>",enter,ospan,retrieval,bwKkfZxZu9RWGIOPKRAMtMm1fsF2,html-keyboard-response,170,1303886,0.0-43.0-5.0-1.0-2.0,28,28,28,7.0,"[""G"",""C"",""H"",""N"",""L"",""Y"",""Q""]","[""G"",""C"",""H"",""N"",""L"",""Y"",""Q""]",1.0,7.0,,,,,,,63e60f40643623a5029f1e2b,14:38:31,06/03/2024
1729.0999999940395,[''],0,ospan,feedback,bwKkfZxZu9RWGIOPKRAMtMm1fsF2,html-button-response,171,1306123,0.0-43.0-5.0-1.0-3.0,,,,,,,,,,,,100.0,0.0,,63e60f40643623a5029f1e2b,14:38:31,06/03/2024
,"<p style=""font-size:75px;"">...</p>",,ospan,iti,bwKkfZxZu9RWGIOPKRAMtMm1fsF2,html-keyboard-response,172,1307140,0.0-43.0-6.0-0.0-0.0,,,,,,,,,,,,,,,63e60f40643623a5029f1e2b,14:38:31,06/03/2024
2715.0,,,ospan,symmetry,bwKkfZxZu9RWGIOPKRAMtMm1fsF2,symmetry-judgement-task,173,1311268,0.0-43.0-6.0-0.0-1.0-0.0,,,,,,,,,,1.0,1.0,,,,63e60f40643623a5029f1e2b,14:38:31,06/03/2024
,"<div style=""font-size: 10rem; color: #0000FF"">G</div>",,ospan,letter,bwKkfZxZu9RWGIOPKRAMtMm1fsF2,html-keyboard-response,174,1312271,0.0-43.0-6.0-0.0-1.0-1.0,,,,,,,,,,,,,,,63e60f40643623a5029f1e2b,14:38:31,06/03/2024
2547.0,,,ospan,symmetry,bwKkfZxZu9RWGIOPKRAMtMm1fsF2,symmetry-judgement-task,175,1316980,0.0-43.0-6.0-0.0-1.0-2.0,,,,,,,,,,1.0,1.0,,,,63e60f40643623a5029f1e2b,14:38:31,06/03/2024
,"<div style=""font-size: 10rem; color: #0000FF"">C</div>",,ospan,letter,bwKkfZxZu9RWGIOPKRAMtMm1fsF2,html-keyboard-response,176,1317998,0.0-43.0-6.0-0.0-1.0-3.0,,,,,,,,,,,,,,,63e60f40643623a5029f1e2b,14:38:31,06/03/2024
1357.0,,,ospan,symmetry,bwKkfZxZu9RWGIOPKRAMtMm1fsF2,symmetry-judgement-task,177,1321526,0.0-43.0-6.0-0.0-1.0-4.0,,,,,,,,,,1.0,1.0,,,,63e60f40643623a5029f1e2b,14:38:31,06/03/2024
,"<div style=""font-size: 10rem; color: #0000FF"">L</div>",,ospan,letter,bwKkfZxZu9RWGIOPKRAMtMm1fsF2,html-keyboard-response,178,1322543,0.0-43.0-6.0-0.0-1.0-5.0,,,,,,,,,,,,,,,63e60f40643623a5029f1e2b,14:38:31,06/03/2024
3414.0,,,ospan,symmetry,bwKkfZxZu9RWGIOPKRAMtMm1fsF2,symmetry-judgement-task,179,1328136,0.0-43.0-6.0-0.0-1.0-6.0,,,,,,,,,,1.0,1.0,,,,63e60f40643623a5029f1e2b,14:38:31,06/03/2024
,"<div style=""font-size: 10rem; color: #0000FF"">P</div>",,ospan,letter,bwKkfZxZu9RWGIOPKRAMtMm1fsF2,html-keyboard-response,180,1329146,0.0-43.0-6.0-0.0-1.0-7.0,,,,,,,,,,,,,,,63e60f40643623a5029f1e2b,14:38:31,06/03/2024
3769.0,,,ospan,symmetry,bwKkfZxZu9RWGIOPKRAMtMm1fsF2,symmetry-judgement-task,181,1335113,0.0-43.0-6.0-0.0-1.0-8.0,,,,,,,,,,1.0,1.0,,,,63e60f40643623a5029f1e2b,14:38:31,06/03/2024
,"<div style=""font-size: 10rem; color: #0000FF"">H</div>",,ospan,letter,bwKkfZxZu9RWGIOPKRAMtMm1fsF2,html-keyboard-response,182,1336129,0.0-43.0-6.0-0.0-1.0-9.0,,,,,,,,,,,,,,,63e60f40643623a5029f1e2b,14:38:31,06/03/2024
6846.699999988079,"<div class = numbox><p style=""font-size: 2.4rem"">Please recall the letters you saw to the best of your ability. If you do not remember a particular letter, use the SKIP button.<br><b>(When you are ready to lock in your answer, press ENTER)</b></p><button id = button_1 class = ""square num-button"" onclick = ""recordClick(this)""><div class = content><div class = numbers>C</div></div></button><button id = button_2 class = ""square num-button"" onclick = ""recordClick(this)""><div class = content><div class = numbers>G</div></div></button><button id = button_3 class = ""square num-button"" onclick = ""recordClick(this)""><div class = content><div class = numbers>H</div></div></button><button id = button_4 class = ""square num-button"" onclick = ""recordClick(this)""><div class = content><div class = numbers>J</div></div></button><button id = button_5 class = ""square num-button"" onclick = ""recordClick(this)""><div class = content><div class = numbers>K</div></div></button><button id = button_6 class = ""square num-button"" onclick = ""recordClick(this)""><div class = content><div class = numbers>L</div></div></button><button id = button_7 class = ""square num-button"" onclick = ""recordClick(this)""><div class = content><div class = numbers>N</div></div></button><button id = button_8 class = ""square num-button"" onclick = ""recordClick(this)""><div class = content><div class = numbers>P</div></div></button><button id = button_9 class = ""square num-button"" onclick = ""recordClick(this)""><div class = content><div class = numbers>Q</div></div></button><button id = button_10 class = ""square num-button"" onclick = ""recordClick(this)""><div class = content><div class = numbers>R</div></div></button><button id = button_11 class = ""square num-button"" onclick = ""recordClick(this)""><div class = content><div class = numbers>S</div></div></button><button id = button_12 class = ""square num-button"" onclick = ""recordClick(this)""><div class = content><div class = numbers>Y</div></div></button><button class = clear_button id = ""ClearButton"" onclick = ""clearResponse()"">BACKSPACE</button><button class = blank_button id = ""BlankButton"" onclick = ""blankResponse()"">SKIP</button><p style=""font-size: 2.4rem""><u><b>Current Answer:</b></u></p><br><br><div id=echoed_txt style=""font-size: 5rem; color:blue;""><b></b></div></div>",enter,ospan,retrieval,bwKkfZxZu9RWGIOPKRAMtMm1fsF2,html-keyboard-response,183,1343742,0.0-43.0-6.0-0.0-2.0,33,33,33,5.0,"[""G"",""C"",""L"",""P"",""H""]","[""G"",""C"",""L"",""P"",""H""]",1.0,5.0,,,,,,,63e60f40643623a5029f1e2b,14:38:31,06/03/2024
1312.9000000059605,[''],0,ospan,feedback,bwKkfZxZu9RWGIOPKRAMtMm1fsF2,html-button-response,184,1345572,0.0-43.0-6.0-0.0-3.0,,,,,,,,,,,,100.0,0.0,,63e60f40643623a5029f1e2b,14:38:31,06/03/2024
,"<p style=""font-size:75px;"">...</p>",,ospan,iti,bwKkfZxZu9RWGIOPKRAMtMm1fsF2,html-keyboard-response,185,1346586,0.0-43.0-6.0-1.0-0.0,,,,,,,,,,,,,,,63e60f40643623a5029f1e2b,14:38:31,06/03/2024
2335.0,,,ospan,symmetry,bwKkfZxZu9RWGIOPKRAMtMm1fsF2,symmetry-judgement-task,186,1350377,0.0-43.0-6.0-1.0-1.0-0.0,,,,,,,,,,1.0,1.0,,,,63e60f40643623a5029f1e2b,14:38:31,06/03/2024
,"<div style=""font-size: 10rem; color: #0000FF"">L</div>",,ospan,letter,bwKkfZxZu9RWGIOPKRAMtMm1fsF2,html-keyboard-response,187,1351382,0.0-43.0-6.0-1.0-1.0-1.0,,,,,,,,,,,,,,,63e60f40643623a5029f1e2b,14:38:31,06/03/2024
2101.0,,,ospan,symmetry,bwKkfZxZu9RWGIOPKRAMtMm1fsF2,symmetry-judgement-task,188,1355859,0.0-43.0-6.0-1.0-1.0-2.0,,,,,,,,,,1.0,1.0,,,,63e60f40643623a5029f1e2b,14:38:31,06/03/2024
,"<div style=""font-size: 10rem; color: #0000FF"">J</div>",,ospan,letter,bwKkfZxZu9RWGIOPKRAMtMm1fsF2,html-keyboard-response,189,1356873,0.0-43.0-6.0-1.0-1.0-3.0,,,,,,,,,,,,,,,63e60f40643623a5029f1e2b,14:38:31,06/03/2024
2265.0,,,ospan,symmetry,bwKkfZxZu9RWGIOPKRAMtMm1fsF2,symmetry-judgement-task,190,1361338,0.0-43.0-6.0-1.0-1.0-4.0,,,,,,,,,,1.0,1.0,,,,63e60f40643623a5029f1e2b,14:38:31,06/03/2024
,"<div style=""font-size: 10rem; color: #0000FF"">R</div>",,ospan,letter,bwKkfZxZu9RWGIOPKRAMtMm1fsF2,html-keyboard-response,191,1362353,0.0-43.0-6.0-1.0-1.0-5.0,,,,,,,,,,,,,,,63e60f40643623a5029f1e2b,14:38:31,06/03/2024
2889.0,,,ospan,symmetry,bwKkfZxZu9RWGIOPKRAMtMm1fsF2,symmetry-judgement-task,192,1367397,0.0-43.0-6.0-1.0-1.0-6.0,,,,,,,,,,1.0,1.0,,,,63e60f40643623a5029f1e2b,14:38:31,06/03/2024
,"<div style=""font-size: 10rem; color: #0000FF"">C</div>",,ospan,letter,bwKkfZxZu9RWGIOPKRAMtMm1fsF2,html-keyboard-response,193,1368402,0.0-43.0-6.0-1.0-1.0-7.0,,,,,,,,,,,,,,,63e60f40643623a5029f1e2b,14:38:31,06/03/2024
3229.0,,,ospan,symmetry,bwKkfZxZu9RWGIOPKRAMtMm1fsF2,symmetry-judgement-task,194,1373824,0.0-43.0-6.0-1.0-1.0-8.0,,,,,,,,,,1.0,1.0,,,,63e60f40643623a5029f1e2b,14:38:31,06/03/2024
,"<div style=""font-size: 10rem; color: #0000FF"">K</div>",,ospan,letter,bwKkfZxZu9RWGIOPKRAMtMm1fsF2,html-keyboard-response,195,1374836,0.0-43.0-6.0-1.0-1.0-9.0,,,,,,,,,,,,,,,63e60f40643623a5029f1e2b,14:38:31,06/03/2024
2552.0,,,ospan,symmetry,bwKkfZxZu9RWGIOPKRAMtMm1fsF2,symmetry-judgement-task,196,1379961,0.0-43.0-6.0-1.0-1.0-10.0,,,,,,,,,,1.0,1.0,,,,63e60f40643623a5029f1e2b,14:38:31,06/03/2024
,"<div style=""font-size: 10rem; color: #0000FF"">Y</div>",,ospan,letter,bwKkfZxZu9RWGIOPKRAMtMm1fsF2,html-keyboard-response,197,1380970,0.0-43.0-6.0-1.0-1.0-11.0,,,,,,,,,,,,,,,63e60f40643623a5029f1e2b,14:38:31,06/03/2024
3337.0,,,ospan,symmetry,bwKkfZxZu9RWGIOPKRAMtMm1fsF2,symmetry-judgement-task,198,1386577,0.0-43.0-6.0-1.0-1.0-12.0,,,,,,,,,,1.0,1.0,,,,63e60f40643623a5029f1e2b,14:38:31,06/03/2024
,"<div style=""font-size: 10rem; color: #0000FF"">N</div>",,ospan,letter,bwKkfZxZu9RWGIOPKRAMtMm1fsF2,html-keyboard-response,199,1387581,0.0-43.0-6.0-1.0-1.0-13.0,,,,,,,,,,,,,,,63e60f40643623a5029f1e2b,14:38:31,06/03/2024
2061.0,,,ospan,symmetry,bwKkfZxZu9RWGIOPKRAMtMm1fsF2,symmetry-judgement-task,200,1392689,0.0-43.0-6.0-1.0-1.0-14.0,,,,,,,,,,1.0,1.0,,,,63e60f40643623a5029f1e2b,14:38:31,06/03/2024
,"<div style=""font-size: 10rem; color: #0000FF"">Q</div>",,ospan,letter,bwKkfZxZu9RWGIOPKRAMtMm1fsF2,html-keyboard-response,201,1393691,0.0-43.0-6.0-1.0-1.0-15.0,,,,,,,,,,,,,,,63e60f40643623a5029f1e2b,14:38:31,06/03/2024
17322.19999998808,"<div class = numbox><p style=""font-size: 2.4rem"">Please recall the letters you saw to the best of your ability. If you do not remember a particular letter, use the SKIP button.<br><b>(When you are ready to lock in your answer, press ENTER)</b></p><button id = button_1 class = ""square num-button"" onclick = ""recordClick(this)""><div class = content><div class = numbers>C</div></div></button><button id = button_2 class = ""square num-button"" onclick = ""recordClick(this)""><div class = content><div class = numbers>G</div></div></button><button id = button_3 class = ""square num-button"" onclick = ""recordClick(this)""><div class = content><div class = numbers>H</div></div></button><button id = button_4 class = ""square num-button"" onclick = ""recordClick(this)""><div class = content><div class = numbers>J</div></div></button><button id = button_5 class = ""square num-button"" onclick = ""recordClick(this)""><div class = content><div class = numbers>K</div></div></button><button id = button_6 class = ""square num-button"" onclick = ""recordClick(this)""><div class = content><div class = numbers>L</div></div></button><button id = button_7 class = ""square num-button"" onclick = ""recordClick(this)""><div class = content><div class = numbers>N</div></div></button><button id = button_8 class = ""square num-button"" onclick = ""recordClick(this)""><div class = content><div class = numbers>P</div></div></button><button id = button_9 class = ""square num-button"" onclick = ""recordClick(this)""><div class = content><div class = numbers>Q</div></div></button><button id = button_10 class = ""square num-button"" onclick = ""recordClick(this)""><div class = content><div class = numbers>R</div></div></button><button id = button_11 class = ""square num-button"" onclick = ""recordClick(this)""><div class = content><div class = numbers>S</div></div></button><button id = button_12 class = ""square num-button"" onclick = ""recordClick(this)""><div class = content><div class = numbers>Y</div></div></button><button class = clear_button id = ""ClearButton"" onclick = ""clearResponse()"">BACKSPACE</button><button class = blank_button id = ""BlankButton"" onclick = ""blankResponse()"">SKIP</button><p style=""font-size: 2.4rem""><u><b>Current Answer:</b></u></p><br><br><div id=echoed_txt style=""font-size: 5rem; color:blue;""><b></b></div></div>",enter,ospan,retrieval,bwKkfZxZu9RWGIOPKRAMtMm1fsF2,html-keyboard-response,202,1411779,0.0-43.0-6.0-1.0-2.0,41,41,41,8.0,"[""L"",""J"",""R"",""C"",""K"",""Y"",""N"",""Q""]","[""L"",""J"",""R"",""C"",""K"",""Y"",""N"",""Q""]",1.0,8.0,,,,,,,63e60f40643623a5029f1e2b,14:38:31,06/03/2024
120354.89999997616,[''],0,ospan,feedback,bwKkfZxZu9RWGIOPKRAMtMm1fsF2,html-button-response,203,1532646,0.0-43.0-6.0-1.0-3.0,,,,,,,,,,,,100.0,0.0,,63e60f40643623a5029f1e2b,14:38:31,06/03/2024
136236.09999999404,,{'Q0': 'All instructions were clear.'},ospan,survey_ospan,bwKkfZxZu9RWGIOPKRAMtMm1fsF2,lmdlab-survey-text,204,1669669,0.0-43.0-7.0,,,,,,,,,,,,,,bwKkfZxZu9RWGIOPKRAMtMm1fsF2,63e60f40643623a5029f1e2b,14:38:31,06/03/2024
2171.9000000059605,<p><p style='font-size: 3rem'>Great work!<br><br>This completes the symmetry and memory task.</p><br><br><br>,0,ospan,finish,bwKkfZxZu9RWGIOPKRAMtMm1fsF2,html-button-response,205,1671844,0.0-43.0-8.0,41,41,41,,,,,,,,,100.0,,,63e60f40643623a5029f1e2b,14:38:31,06/03/2024
