rt,stimulus,response,exp_name,exp_stage,subjectID,trial_type,trial_index,time_elapsed,internal_node_id,ospan_shown,ospan_total,ospan_abs,length,resp_actual,resp_correct,full_correct,num_correct,feedback,accuracy,correct,math_acc,math_warning,databaseID,prolificID,start_time,date
1391.3999999985099,<div class = 'left_align' style='font-size: 3.25rem; line-height: 1.3;'><p class = 'center_align'><b>Welcome to the Symmetry and Memory Task</b><br><br><br><br></p>Press 'continue' to show the instructions.<br><br><br><br></div>,0,ospan,instruct,2rYbWm6rL7b1JDxWOCR60hQQErY2,html-button-response,54,381942,0.0-46.0-0.0-0.0-0.0,,,,,,,,,,,,,,,5b2a72f7c293b90001732b89,10:52:00,03/04/2024
34963.19999999553,"<div class = 'left_align' style='font-size: 3.25rem; line-height: 1.3;'><p class = 'center_align'><b>Symmetry and Memory Task</b><br><br></p>In this task, you will try to memorize letters you see on the screen<br>while you also view black and white grid pictures.<br><br>In the next few minutes, you will have some practice to get you familiar<br>with how the task works.<br><br>It may be difficult sometimes, but please do not worry about making mistakes!<br><br>We will begin by practicing the letter part of the task.<br><br><br><br></div>",0,ospan,instruct,2rYbWm6rL7b1JDxWOCR60hQQErY2,html-button-response,55,417167,0.0-46.0-0.0-0.0-1.0,,,,,,,,,,,,,,,5b2a72f7c293b90001732b89,10:52:00,03/04/2024
6705.0,"<div class = 'left_align' style='font-size: 3.25rem; line-height: 1.3;'>For this practice part, letters will appear on the screen one at a time.<br><br>Try to remember each letter in the order presented.<br><br>After some letters have been shown, you will see a response screen. Your<br>goal is to report the letters you saw <b>in order</b>. If you do not remember<br>a particular letter, you will have the option to leave it blank.<br><br><br><br></div>",0,ospan,instruct,2rYbWm6rL7b1JDxWOCR60hQQErY2,html-button-response,56,424137,0.0-46.0-0.0-0.0-2.0,,,,,,,,,,,,,,,5b2a72f7c293b90001732b89,10:52:00,03/04/2024
2082.7999999970198,"<div class = 'left_align' style='font-size: 3.25rem; line-height: 1.3;'>Remember, it is very important to get the letters in the same<br>order as you see them.<br><br>When you are ready, you may begin the letter practice.</div><br><br><br><br>",0,ospan,instruct,2rYbWm6rL7b1JDxWOCR60hQQErY2,html-button-response,57,426479,0.0-46.0-0.0-0.0-3.0,,,,,,,,,,,,,,,5b2a72f7c293b90001732b89,10:52:00,03/04/2024
,"<p style=""font-size:75px;"">...</p>",,ospan,iti,2rYbWm6rL7b1JDxWOCR60hQQErY2,html-keyboard-response,58,427752,0.0-46.0-0.0-1.0-0.0,,,,,,,,,,,,,,,5b2a72f7c293b90001732b89,10:52:00,03/04/2024
,"<div style=""font-size: 10rem; color: #0000FF"">G</div>",,ospan,letter,2rYbWm6rL7b1JDxWOCR60hQQErY2,html-keyboard-response,59,428759,0.0-46.0-0.0-1.0-1.0,,,,,,,,,,,,,,,5b2a72f7c293b90001732b89,10:52:00,03/04/2024
,"<div style=""font-size: 10rem; color: #0000FF"">H</div>",,ospan,letter,2rYbWm6rL7b1JDxWOCR60hQQErY2,html-keyboard-response,60,430532,0.0-46.0-0.0-1.0-2.0,,,,,,,,,,,,,,,5b2a72f7c293b90001732b89,10:52:00,03/04/2024
5018.60000000149,"<div class = numbox><p style=""font-size: 2.4rem"">Please recall the letters you saw to the best of your ability. If you do not remember a particular letter, use the SKIP button.<br><b>(When you are ready to lock in your answer, press ENTER)</b></p><button id = button_1 class = ""square num-button"" onclick = ""recordClick(this)""><div class = content><div class = numbers>C</div></div></button><button id = button_2 class = ""square num-button"" onclick = ""recordClick(this)""><div class = content><div class = numbers>G</div></div></button><button id = button_3 class = ""square num-button"" onclick = ""recordClick(this)""><div class = content><div class = numbers>H</div></div></button><button id = button_4 class = ""square num-button"" onclick = ""recordClick(this)""><div class = content><div class = numbers>J</div></div></button><button id = button_5 class = ""square num-button"" onclick = ""recordClick(this)""><div class = content><div class = numbers>K</div></div></button><button id = button_6 class = ""square num-button"" onclick = ""recordClick(this)""><div class = content><div class = numbers>L</div></div></button><button id = button_7 class = ""square num-button"" onclick = ""recordClick(this)""><div class = content><div class = numbers>N</div></div></button><button id = button_8 class = ""square num-button"" onclick = ""recordClick(this)""><div class = content><div class = numbers>P</div></div></button><button id = button_9 class = ""square num-button"" onclick = ""recordClick(this)""><div class = content><div class = numbers>Q</div></div></button><button id = button_10 class = ""square num-button"" onclick = ""recordClick(this)""><div class = content><div class = numbers>R</div></div></button><button id = button_11 class = ""square num-button"" onclick = ""recordClick(this)""><div class = content><div class = numbers>S</div></div></button><button id = button_12 class = ""square num-button"" onclick = ""recordClick(this)""><div class = content><div class = numbers>Y</div></div></button><button class = clear_button id = ""ClearButton"" onclick = ""clearResponse()"">BACKSPACE</button><button class = blank_button id = ""BlankButton"" onclick = ""blankResponse()"">SKIP</button><p style=""font-size: 2.4rem""><u><b>Current Answer:</b></u></p><br><br><div id=echoed_txt style=""font-size: 5rem; color:blue;""><b></b></div></div>",enter,ospan,retrieval,2rYbWm6rL7b1JDxWOCR60hQQErY2,html-keyboard-response,61,436306,0.0-46.0-0.0-1.0-3.0,NA,NA,NA,2.0,"[""G"",""H""]","[""G"",""H""]",1.0,2.0,"['<font color=""green"">G</font>', '<font color=""green"">H</font>']",,,,,,5b2a72f7c293b90001732b89,10:52:00,03/04/2024
934.2000000029802,"['<p style=""font-size:44px"">Letters:<br><br><br><font color=""green"">G</font> <font color=""green"">H</font></p><br><br>']",0,ospan,practice_feedback,2rYbWm6rL7b1JDxWOCR60hQQErY2,html-button-response,62,437743,0.0-46.0-0.0-1.0-4.0,,,,,,,,,,,,,,,5b2a72f7c293b90001732b89,10:52:00,03/04/2024
,"<p style=""font-size:75px;"">...</p>",,ospan,iti,2rYbWm6rL7b1JDxWOCR60hQQErY2,html-keyboard-response,63,438746,0.0-46.0-0.0-2.0-0.0,,,,,,,,,,,,,,,5b2a72f7c293b90001732b89,10:52:00,03/04/2024
,"<div style=""font-size: 10rem; color: #0000FF"">Q</div>",,ospan,letter,2rYbWm6rL7b1JDxWOCR60hQQErY2,html-keyboard-response,64,439754,0.0-46.0-0.0-2.0-1.0,,,,,,,,,,,,,,,5b2a72f7c293b90001732b89,10:52:00,03/04/2024
,"<div style=""font-size: 10rem; color: #0000FF"">L</div>",,ospan,letter,2rYbWm6rL7b1JDxWOCR60hQQErY2,html-keyboard-response,65,441517,0.0-46.0-0.0-2.0-2.0,,,,,,,,,,,,,,,5b2a72f7c293b90001732b89,10:52:00,03/04/2024
,"<div style=""font-size: 10rem; color: #0000FF"">P</div>",,ospan,letter,2rYbWm6rL7b1JDxWOCR60hQQErY2,html-keyboard-response,66,443289,0.0-46.0-0.0-2.0-3.0,,,,,,,,,,,,,,,5b2a72f7c293b90001732b89,10:52:00,03/04/2024
3370.8000000044703,"<div class = numbox><p style=""font-size: 2.4rem"">Please recall the letters you saw to the best of your ability. If you do not remember a particular letter, use the SKIP button.<br><b>(When you are ready to lock in your answer, press ENTER)</b></p><button id = button_1 class = ""square num-button"" onclick = ""recordClick(this)""><div class = content><div class = numbers>C</div></div></button><button id = button_2 class = ""square num-button"" onclick = ""recordClick(this)""><div class = content><div class = numbers>G</div></div></button><button id = button_3 class = ""square num-button"" onclick = ""recordClick(this)""><div class = content><div class = numbers>H</div></div></button><button id = button_4 class = ""square num-button"" onclick = ""recordClick(this)""><div class = content><div class = numbers>J</div></div></button><button id = button_5 class = ""square num-button"" onclick = ""recordClick(this)""><div class = content><div class = numbers>K</div></div></button><button id = button_6 class = ""square num-button"" onclick = ""recordClick(this)""><div class = content><div class = numbers>L</div></div></button><button id = button_7 class = ""square num-button"" onclick = ""recordClick(this)""><div class = content><div class = numbers>N</div></div></button><button id = button_8 class = ""square num-button"" onclick = ""recordClick(this)""><div class = content><div class = numbers>P</div></div></button><button id = button_9 class = ""square num-button"" onclick = ""recordClick(this)""><div class = content><div class = numbers>Q</div></div></button><button id = button_10 class = ""square num-button"" onclick = ""recordClick(this)""><div class = content><div class = numbers>R</div></div></button><button id = button_11 class = ""square num-button"" onclick = ""recordClick(this)""><div class = content><div class = numbers>S</div></div></button><button id = button_12 class = ""square num-button"" onclick = ""recordClick(this)""><div class = content><div class = numbers>Y</div></div></button><button class = clear_button id = ""ClearButton"" onclick = ""clearResponse()"">BACKSPACE</button><button class = blank_button id = ""BlankButton"" onclick = ""blankResponse()"">SKIP</button><p style=""font-size: 2.4rem""><u><b>Current Answer:</b></u></p><br><br><div id=echoed_txt style=""font-size: 5rem; color:blue;""><b></b></div></div>",enter,ospan,retrieval,2rYbWm6rL7b1JDxWOCR60hQQErY2,html-keyboard-response,67,447425,0.0-46.0-0.0-2.0-4.0,NA,NA,NA,3.0,"[""Q"",""L"",""P""]","[""Q"",""L"",""P""]",1.0,3.0,"['<font color=""green"">Q</font>', '<font color=""green"">L</font>', '<font color=""green"">P</font>']",,,,,,5b2a72f7c293b90001732b89,10:52:00,03/04/2024
2520.2999999970198,"['<p style=""font-size:44px"">Letters:<br><br><br><font color=""green"">Q</font> <font color=""green"">L</font> <font color=""green"">P</font></p><br><br>']",0,ospan,practice_feedback,2rYbWm6rL7b1JDxWOCR60hQQErY2,html-button-response,68,450449,0.0-46.0-0.0-2.0-5.0,,,,,,,,,,,,,,,5b2a72f7c293b90001732b89,10:52:00,03/04/2024
9845.09999999404,"<div class = 'left_align' style='font-size: 3.25rem; line-height: 1.3;'>Now you will practice doing the <b>symmetry judgment part</b> of the experiment.<br><br>A black and white grid picture will appear on the screen and you have to judge if it is <br>symmetrical or asymetrical.<br><br>A picture is 'mirror' symmetrical if its left half is identical to the right half when flipped.<br>Here are examples of a symmetrical and an asymetrical picture:<br><br><center><img src='Stimuli/img/symm_instructions_extra.png' style='height:420px; width:900'></img></center><br>To judge symmetry, imagine you were to fold each picture down the middle, like a book –<br>would the left half match the right half when folded onto each other?<br><br></div><br>",0,ospan,instruct,2rYbWm6rL7b1JDxWOCR60hQQErY2,html-button-response,69,460295,0.0-46.0-1.0-0.0-0.0,,,,,,,,,,,,,,,5b2a72f7c293b90001732b89,10:52:00,03/04/2024
10273.59999999404,"<div class = 'left_align' style='font-size: 3.25rem; line-height: 1.3;'>When you have viewed the picture and determined whether it is symmetrical or not,<br>you can <b>click the Yes or No button</b> below to answer.<br><br>If you take longer than 15 seconds, it will continue automatically<br>and record the answer as an error.</div><br>",0,ospan,instruct,2rYbWm6rL7b1JDxWOCR60hQQErY2,html-button-response,70,470831,0.0-46.0-1.0-0.0-1.0,,,,,,,,,,,,,,,5b2a72f7c293b90001732b89,10:52:00,03/04/2024
2611.5,"<div class = 'left_align' style='font-size: 3.25rem; line-height: 1.3;'>It is <b>very</b> important that you make the symmetry judgment correctly.<br><br>It is also important that you try and judge the picture as quickly as you can.<br><br>When you are ready, click on the button below to try some practice problems.</div><br><br><br><br>",0,ospan,instruct,2rYbWm6rL7b1JDxWOCR60hQQErY2,html-button-response,71,473703,0.0-46.0-1.0-0.0-2.0,,,,,,,,,,,,,,,5b2a72f7c293b90001732b89,10:52:00,03/04/2024
1480.0,,,ospan,symmetry,2rYbWm6rL7b1JDxWOCR60hQQErY2,symmetry-judgement-task,72,475985,0.0-46.0-1.0-1.0-0.0,,,,,,,,,,1.0,1.0,,,,5b2a72f7c293b90001732b89,10:52:00,03/04/2024
,"<p style=""color:green; font-size: 35px"">Correct</p>",,ospan,feedback,2rYbWm6rL7b1JDxWOCR60hQQErY2,html-keyboard-response,73,476744,0.0-46.0-1.0-1.0-1.0,,,,,,,,,,,,,,,5b2a72f7c293b90001732b89,10:52:00,03/04/2024
980.0,,,ospan,symmetry,2rYbWm6rL7b1JDxWOCR60hQQErY2,symmetry-judgement-task,74,480368,0.0-46.0-1.0-1.0-2.0,,,,,,,,,,1.0,1.0,,,,5b2a72f7c293b90001732b89,10:52:00,03/04/2024
,"<p style=""color:green; font-size: 35px"">Correct</p>",,ospan,feedback,2rYbWm6rL7b1JDxWOCR60hQQErY2,html-keyboard-response,75,481125,0.0-46.0-1.0-1.0-3.0,,,,,,,,,,,,,,,5b2a72f7c293b90001732b89,10:52:00,03/04/2024
942.0,,,ospan,symmetry,2rYbWm6rL7b1JDxWOCR60hQQErY2,symmetry-judgement-task,76,484613,0.0-46.0-1.0-1.0-4.0,,,,,,,,,,1.0,1.0,,,,5b2a72f7c293b90001732b89,10:52:00,03/04/2024
,"<p style=""color:green; font-size: 35px"">Correct</p>",,ospan,feedback,2rYbWm6rL7b1JDxWOCR60hQQErY2,html-keyboard-response,77,485370,0.0-46.0-1.0-1.0-5.0,,,,,,,,,,,,,,,5b2a72f7c293b90001732b89,10:52:00,03/04/2024
813.2999999970198,"<p style=""font-size: 3rem;"">You responded correctly on 3 of 3 symmetry judgments. Good job!</p><br><br>",0,ospan,practice,2rYbWm6rL7b1JDxWOCR60hQQErY2,html-button-response,78,488190,0.0-46.0-1.0-2.0,,,,,,,,,,,,,,,5b2a72f7c293b90001732b89,10:52:00,03/04/2024
5219.5,"<div class = 'left_align' style='font-size: 3.25rem; line-height: 1.3;'>Now you will practice doing both parts of the experiment at the same time.<br><br>In the next practice set, you will be given one grid picture to judge.<br>Then letter will appear on the screen. Try to remember the letter.<br><br>It is <b>very important</b> to make the symmetry judgment as quickly and accurately as possible.<br><br>Just as before, once you have make the symmetry judgment, you can click Yes or No.<br><b>Note that you will no longer see Correct or Incorrect feedback.</div><br><br><br><br>",0,ospan,instruct,2rYbWm6rL7b1JDxWOCR60hQQErY2,html-button-response,79,493663,0.0-46.0-2.0-0.0-0.0,,,,,,,,,,,,,,,5b2a72f7c293b90001732b89,10:52:00,03/04/2024
967.2999999970198,"<div class = 'left_align' style='font-size: 3.25rem; line-height: 1.3;'>After the letter goes away, another grid picture will appear, and then<br>another letter.<br><br>At the end of each set of letters and grids, you will recall the letters to the best<br>of your ability. Remember, try your best to get the letters in the correct order.<br><br>It is important to <b>quickly</b> and <b>accurately</b> make the symmetry judgments.</div><br><br><br><br>",0,ospan,instruct,2rYbWm6rL7b1JDxWOCR60hQQErY2,html-button-response,80,494897,0.0-46.0-2.0-0.0-1.0,,,,,,,,,,,,,,,5b2a72f7c293b90001732b89,10:52:00,03/04/2024
6734.0,"<div class = 'left_align' style='font-size: 3.25rem; line-height: 1.3;'>On the feedback screen, if you are not doing well at the symmetry judgments,<br>you will also see a warning in the middle. This indicates your percent <br>correct for the grid pictures for the entire experiment.<br><br>It is <b>very</b> important for you to keep accuracy at least at 85%: <u>We can only use<br>data where the participant was at least 85% accurate on the judgments.</u> Therefore,<br> please try your best to perform well on the symmetry judgments, <b>at the same time</b><br>doing your best to recall as many letters as possible.<br><br>Click the button to try some practice problems.</div><br><br><br><br>",0,ospan,instruct,2rYbWm6rL7b1JDxWOCR60hQQErY2,html-button-response,81,501896,0.0-46.0-2.0-0.0-2.0,,,,,,,,,,,,,,,5b2a72f7c293b90001732b89,10:52:00,03/04/2024
,"<p style=""font-size:75px;"">...</p>",,ospan,iti,2rYbWm6rL7b1JDxWOCR60hQQErY2,html-keyboard-response,82,503178,0.0-46.0-2.0-1.0-0.0,,,,,,,,,,,,,,,5b2a72f7c293b90001732b89,10:52:00,03/04/2024
1082.0,,,ospan,symmetry,2rYbWm6rL7b1JDxWOCR60hQQErY2,symmetry-judgement-task,83,505395,0.0-46.0-2.0-1.0-1.0-0.0,,,,,,,,,,1.0,1.0,,,,5b2a72f7c293b90001732b89,10:52:00,03/04/2024
,"<div style=""font-size: 10rem; color: #0000FF"">H</div>",,ospan,letter,2rYbWm6rL7b1JDxWOCR60hQQErY2,html-keyboard-response,84,506410,0.0-46.0-2.0-1.0-1.0-1.0,,,,,,,,,,,,,,,5b2a72f7c293b90001732b89,10:52:00,03/04/2024
1406.0,,,ospan,symmetry,2rYbWm6rL7b1JDxWOCR60hQQErY2,symmetry-judgement-task,85,509719,0.0-46.0-2.0-1.0-1.0-2.0,,,,,,,,,,1.0,1.0,,,,5b2a72f7c293b90001732b89,10:52:00,03/04/2024
,"<div style=""font-size: 10rem; color: #0000FF"">C</div>",,ospan,letter,2rYbWm6rL7b1JDxWOCR60hQQErY2,html-keyboard-response,86,510723,0.0-46.0-2.0-1.0-1.0-3.0,,,,,,,,,,,,,,,5b2a72f7c293b90001732b89,10:52:00,03/04/2024
852.0,,,ospan,symmetry,2rYbWm6rL7b1JDxWOCR60hQQErY2,symmetry-judgement-task,87,513471,0.0-46.0-2.0-1.0-1.0-4.0,,,,,,,,,,1.0,1.0,,,,5b2a72f7c293b90001732b89,10:52:00,03/04/2024
,"<div style=""font-size: 10rem; color: #0000FF"">P</div>",,ospan,letter,2rYbWm6rL7b1JDxWOCR60hQQErY2,html-keyboard-response,88,514476,0.0-46.0-2.0-1.0-1.0-5.0,,,,,,,,,,,,,,,5b2a72f7c293b90001732b89,10:52:00,03/04/2024
8128.0,"<div class = numbox><p style=""font-size: 2.4rem"">Please recall the letters you saw to the best of your ability. If you do not remember a particular letter, use the SKIP button.<br><b>(When you are ready to lock in your answer, press ENTER)</b></p><button id = button_1 class = ""square num-button"" onclick = ""recordClick(this)""><div class = content><div class = numbers>C</div></div></button><button id = button_2 class = ""square num-button"" onclick = ""recordClick(this)""><div class = content><div class = numbers>G</div></div></button><button id = button_3 class = ""square num-button"" onclick = ""recordClick(this)""><div class = content><div class = numbers>H</div></div></button><button id = button_4 class = ""square num-button"" onclick = ""recordClick(this)""><div class = content><div class = numbers>J</div></div></button><button id = button_5 class = ""square num-button"" onclick = ""recordClick(this)""><div class = content><div class = numbers>K</div></div></button><button id = button_6 class = ""square num-button"" onclick = ""recordClick(this)""><div class = content><div class = numbers>L</div></div></button><button id = button_7 class = ""square num-button"" onclick = ""recordClick(this)""><div class = content><div class = numbers>N</div></div></button><button id = button_8 class = ""square num-button"" onclick = ""recordClick(this)""><div class = content><div class = numbers>P</div></div></button><button id = button_9 class = ""square num-button"" onclick = ""recordClick(this)""><div class = content><div class = numbers>Q</div></div></button><button id = button_10 class = ""square num-button"" onclick = ""recordClick(this)""><div class = content><div class = numbers>R</div></div></button><button id = button_11 class = ""square num-button"" onclick = ""recordClick(this)""><div class = content><div class = numbers>S</div></div></button><button id = button_12 class = ""square num-button"" onclick = ""recordClick(this)""><div class = content><div class = numbers>Y</div></div></button><button class = clear_button id = ""ClearButton"" onclick = ""clearResponse()"">BACKSPACE</button><button class = blank_button id = ""BlankButton"" onclick = ""blankResponse()"">SKIP</button><p style=""font-size: 2.4rem""><u><b>Current Answer:</b></u></p><br><br><div id=echoed_txt style=""font-size: 5rem; color:blue;""><b></b></div></div>",enter,ospan,retrieval,2rYbWm6rL7b1JDxWOCR60hQQErY2,html-keyboard-response,89,523360,0.0-46.0-2.0-1.0-2.0-0.0,NA,NA,NA,3.0,"[""H"",""C"",""P""]","[""H"",""C"",""P""]",1.0,3.0,"['<font color=""green"">H</font>', '<font color=""green"">C</font>', '<font color=""green"">P</font>']",,,,,,5b2a72f7c293b90001732b89,10:52:00,03/04/2024
918.6000000014901,"['<p style=""font-size:44px"">Letters:<br><br><br><font color=""green"">H</font> <font color=""green"">C</font> <font color=""green"">P</font></p><br><br><p style=""font-size:30px"">Symmetry:<br><br><font color=""green"">100%</font></p><br><br>']",0,ospan,practice_feedback,2rYbWm6rL7b1JDxWOCR60hQQErY2,html-button-response,90,524792,0.0-46.0-2.0-1.0-2.0-1.0,,,,,,,,,,,,,,,5b2a72f7c293b90001732b89,10:52:00,03/04/2024
,"<p style=""font-size:75px;"">...</p>",,ospan,iti,2rYbWm6rL7b1JDxWOCR60hQQErY2,html-keyboard-response,91,525793,0.0-46.0-2.0-2.0-0.0,,,,,,,,,,,,,,,5b2a72f7c293b90001732b89,10:52:00,03/04/2024
1362.0,,,ospan,symmetry,2rYbWm6rL7b1JDxWOCR60hQQErY2,symmetry-judgement-task,92,528297,0.0-46.0-2.0-2.0-1.0-0.0,,,,,,,,,,1.0,1.0,,,,5b2a72f7c293b90001732b89,10:52:00,03/04/2024
,"<div style=""font-size: 10rem; color: #0000FF"">L</div>",,ospan,letter,2rYbWm6rL7b1JDxWOCR60hQQErY2,html-keyboard-response,93,529312,0.0-46.0-2.0-2.0-1.0-1.0,,,,,,,,,,,,,,,5b2a72f7c293b90001732b89,10:52:00,03/04/2024
796.0,,,ospan,symmetry,2rYbWm6rL7b1JDxWOCR60hQQErY2,symmetry-judgement-task,94,532015,0.0-46.0-2.0-2.0-1.0-2.0,,,,,,,,,,1.0,1.0,,,,5b2a72f7c293b90001732b89,10:52:00,03/04/2024
,"<div style=""font-size: 10rem; color: #0000FF"">P</div>",,ospan,letter,2rYbWm6rL7b1JDxWOCR60hQQErY2,html-keyboard-response,95,533021,0.0-46.0-2.0-2.0-1.0-3.0,,,,,,,,,,,,,,,5b2a72f7c293b90001732b89,10:52:00,03/04/2024
647.0,,,ospan,symmetry,2rYbWm6rL7b1JDxWOCR60hQQErY2,symmetry-judgement-task,96,535582,0.0-46.0-2.0-2.0-1.0-4.0,,,,,,,,,,1.0,1.0,,,,5b2a72f7c293b90001732b89,10:52:00,03/04/2024
,"<div style=""font-size: 10rem; color: #0000FF"">Q</div>",,ospan,letter,2rYbWm6rL7b1JDxWOCR60hQQErY2,html-keyboard-response,97,536586,0.0-46.0-2.0-2.0-1.0-5.0,,,,,,,,,,,,,,,5b2a72f7c293b90001732b89,10:52:00,03/04/2024
3138.6999999955297,"<div class = numbox><p style=""font-size: 2.4rem"">Please recall the letters you saw to the best of your ability. If you do not remember a particular letter, use the SKIP button.<br><b>(When you are ready to lock in your answer, press ENTER)</b></p><button id = button_1 class = ""square num-button"" onclick = ""recordClick(this)""><div class = content><div class = numbers>C</div></div></button><button id = button_2 class = ""square num-button"" onclick = ""recordClick(this)""><div class = content><div class = numbers>G</div></div></button><button id = button_3 class = ""square num-button"" onclick = ""recordClick(this)""><div class = content><div class = numbers>H</div></div></button><button id = button_4 class = ""square num-button"" onclick = ""recordClick(this)""><div class = content><div class = numbers>J</div></div></button><button id = button_5 class = ""square num-button"" onclick = ""recordClick(this)""><div class = content><div class = numbers>K</div></div></button><button id = button_6 class = ""square num-button"" onclick = ""recordClick(this)""><div class = content><div class = numbers>L</div></div></button><button id = button_7 class = ""square num-button"" onclick = ""recordClick(this)""><div class = content><div class = numbers>N</div></div></button><button id = button_8 class = ""square num-button"" onclick = ""recordClick(this)""><div class = content><div class = numbers>P</div></div></button><button id = button_9 class = ""square num-button"" onclick = ""recordClick(this)""><div class = content><div class = numbers>Q</div></div></button><button id = button_10 class = ""square num-button"" onclick = ""recordClick(this)""><div class = content><div class = numbers>R</div></div></button><button id = button_11 class = ""square num-button"" onclick = ""recordClick(this)""><div class = content><div class = numbers>S</div></div></button><button id = button_12 class = ""square num-button"" onclick = ""recordClick(this)""><div class = content><div class = numbers>Y</div></div></button><button class = clear_button id = ""ClearButton"" onclick = ""clearResponse()"">BACKSPACE</button><button class = blank_button id = ""BlankButton"" onclick = ""blankResponse()"">SKIP</button><p style=""font-size: 2.4rem""><u><b>Current Answer:</b></u></p><br><br><div id=echoed_txt style=""font-size: 5rem; color:blue;""><b></b></div></div>",enter,ospan,retrieval,2rYbWm6rL7b1JDxWOCR60hQQErY2,html-keyboard-response,98,540480,0.0-46.0-2.0-2.0-2.0-0.0,NA,NA,NA,3.0,"[""L"",""P"",""Q""]","[""L"",""P"",""Q""]",1.0,3.0,"['<font color=""green"">L</font>', '<font color=""green"">P</font>', '<font color=""green"">Q</font>']",,,,,,5b2a72f7c293b90001732b89,10:52:00,03/04/2024
1087.3000000044703,"['<p style=""font-size:44px"">Letters:<br><br><br><font color=""green"">L</font> <font color=""green"">P</font> <font color=""green"">Q</font></p><br><br><p style=""font-size:30px"">Symmetry:<br><br><font color=""green"">100%</font></p><br><br>']",0,ospan,practice_feedback,2rYbWm6rL7b1JDxWOCR60hQQErY2,html-button-response,99,542081,0.0-46.0-2.0-2.0-2.0-1.0,,,,,,,,,,,,,,,5b2a72f7c293b90001732b89,10:52:00,03/04/2024
9549.0,"<div class = 'left_align' style='font-size: 3rem; line-height: 1.3;'><b>Great work! That is the end of practice.</b><br><br>The real trials will look just like the practice trials you just completed.<br><br><u>Here, you will not see feedback</u>. First, you will see an grid picture to judge,<br>then a letter to remember. When the recall screen appears, report the letters in the<br>order presented. If you forget a letter, remember to use the <b>blank</b> button to move to the<br>next letter. Some of the sets will have more symmetry grids and letters than others.<br><br>It is important that you do your best on both the symmetry judgments and the letter recall<br>parts of the experiment. For for the symmetry judgments, try to work as <b>quickly</b> and <br>as <b>accurately</b> as possible. Remember to keep your symmetry accuracy at 85% or above.<br><br><b>For the letters, do NOT use any external aid (e.g., writing on paper, electronic device).</b><br><br>It is <u>very important</u> to our experiment to have a <b>true</b> view of your real performance.<br><br>Do not worry if you miss some when it gets hard! This task is meant to be very challenging!<br><br>Click the button to begin.</div><br><br><br><br>",0,ospan,starting_real_here,2rYbWm6rL7b1JDxWOCR60hQQErY2,html-button-response,100,551632,0.0-46.0-2.0-3.0,,,,,,,,,,,,,,,5b2a72f7c293b90001732b89,10:52:00,03/04/2024
,"<p style=""font-size:75px;"">...</p>",,ospan,iti,2rYbWm6rL7b1JDxWOCR60hQQErY2,html-keyboard-response,101,552890,0.0-46.0-3.0-0.0-0.0,,,,,,,,,,,,,,,5b2a72f7c293b90001732b89,10:52:00,03/04/2024
1084.0,,,ospan,symmetry,2rYbWm6rL7b1JDxWOCR60hQQErY2,symmetry-judgement-task,102,555118,0.0-46.0-3.0-0.0-1.0-0.0,,,,,,,,,,1.0,1.0,,,,5b2a72f7c293b90001732b89,10:52:00,03/04/2024
,"<div style=""font-size: 10rem; color: #0000FF"">P</div>",,ospan,letter,2rYbWm6rL7b1JDxWOCR60hQQErY2,html-keyboard-response,103,556124,0.0-46.0-3.0-0.0-1.0-1.0,,,,,,,,,,,,,,,5b2a72f7c293b90001732b89,10:52:00,03/04/2024
975.0,,,ospan,symmetry,2rYbWm6rL7b1JDxWOCR60hQQErY2,symmetry-judgement-task,104,558990,0.0-46.0-3.0-0.0-1.0-2.0,,,,,,,,,,1.0,1.0,,,,5b2a72f7c293b90001732b89,10:52:00,03/04/2024
,"<div style=""font-size: 10rem; color: #0000FF"">N</div>",,ospan,letter,2rYbWm6rL7b1JDxWOCR60hQQErY2,html-keyboard-response,105,559999,0.0-46.0-3.0-0.0-1.0-3.0,,,,,,,,,,,,,,,5b2a72f7c293b90001732b89,10:52:00,03/04/2024
860.0,,,ospan,symmetry,2rYbWm6rL7b1JDxWOCR60hQQErY2,symmetry-judgement-task,106,562759,0.0-46.0-3.0-0.0-1.0-4.0,,,,,,,,,,1.0,1.0,,,,5b2a72f7c293b90001732b89,10:52:00,03/04/2024
,"<div style=""font-size: 10rem; color: #0000FF"">K</div>",,ospan,letter,2rYbWm6rL7b1JDxWOCR60hQQErY2,html-keyboard-response,107,563769,0.0-46.0-3.0-0.0-1.0-5.0,,,,,,,,,,,,,,,5b2a72f7c293b90001732b89,10:52:00,03/04/2024
2983.60000000149,"<div class = numbox><p style=""font-size: 2.4rem"">Please recall the letters you saw to the best of your ability. If you do not remember a particular letter, use the SKIP button.<br><b>(When you are ready to lock in your answer, press ENTER)</b></p><button id = button_1 class = ""square num-button"" onclick = ""recordClick(this)""><div class = content><div class = numbers>C</div></div></button><button id = button_2 class = ""square num-button"" onclick = ""recordClick(this)""><div class = content><div class = numbers>G</div></div></button><button id = button_3 class = ""square num-button"" onclick = ""recordClick(this)""><div class = content><div class = numbers>H</div></div></button><button id = button_4 class = ""square num-button"" onclick = ""recordClick(this)""><div class = content><div class = numbers>J</div></div></button><button id = button_5 class = ""square num-button"" onclick = ""recordClick(this)""><div class = content><div class = numbers>K</div></div></button><button id = button_6 class = ""square num-button"" onclick = ""recordClick(this)""><div class = content><div class = numbers>L</div></div></button><button id = button_7 class = ""square num-button"" onclick = ""recordClick(this)""><div class = content><div class = numbers>N</div></div></button><button id = button_8 class = ""square num-button"" onclick = ""recordClick(this)""><div class = content><div class = numbers>P</div></div></button><button id = button_9 class = ""square num-button"" onclick = ""recordClick(this)""><div class = content><div class = numbers>Q</div></div></button><button id = button_10 class = ""square num-button"" onclick = ""recordClick(this)""><div class = content><div class = numbers>R</div></div></button><button id = button_11 class = ""square num-button"" onclick = ""recordClick(this)""><div class = content><div class = numbers>S</div></div></button><button id = button_12 class = ""square num-button"" onclick = ""recordClick(this)""><div class = content><div class = numbers>Y</div></div></button><button class = clear_button id = ""ClearButton"" onclick = ""clearResponse()"">BACKSPACE</button><button class = blank_button id = ""BlankButton"" onclick = ""blankResponse()"">SKIP</button><p style=""font-size: 2.4rem""><u><b>Current Answer:</b></u></p><br><br><div id=echoed_txt style=""font-size: 5rem; color:blue;""><b></b></div></div>",enter,ospan,retrieval,2rYbWm6rL7b1JDxWOCR60hQQErY2,html-keyboard-response,108,567504,0.0-46.0-3.0-0.0-2.0,3,3,3,3.0,"[""P"",""N"",""K""]","[""P"",""N"",""K""]",1.0,3.0,,,,,,,5b2a72f7c293b90001732b89,10:52:00,03/04/2024
612.8999999985099,[''],0,ospan,feedback,2rYbWm6rL7b1JDxWOCR60hQQErY2,html-button-response,109,568631,0.0-46.0-3.0-0.0-3.0,,,,,,,,,,,,100.0,0.0,,5b2a72f7c293b90001732b89,10:52:00,03/04/2024
,"<p style=""font-size:75px;"">...</p>",,ospan,iti,2rYbWm6rL7b1JDxWOCR60hQQErY2,html-keyboard-response,110,569632,0.0-46.0-4.0-0.0-0.0,,,,,,,,,,,,,,,5b2a72f7c293b90001732b89,10:52:00,03/04/2024
896.0,,,ospan,symmetry,2rYbWm6rL7b1JDxWOCR60hQQErY2,symmetry-judgement-task,111,571667,0.0-46.0-4.0-0.0-1.0-0.0,,,,,,,,,,1.0,1.0,,,,5b2a72f7c293b90001732b89,10:52:00,03/04/2024
,"<div style=""font-size: 10rem; color: #0000FF"">J</div>",,ospan,letter,2rYbWm6rL7b1JDxWOCR60hQQErY2,html-keyboard-response,112,572683,0.0-46.0-4.0-0.0-1.0-1.0,,,,,,,,,,,,,,,5b2a72f7c293b90001732b89,10:52:00,03/04/2024
1159.0,,,ospan,symmetry,2rYbWm6rL7b1JDxWOCR60hQQErY2,symmetry-judgement-task,113,575730,0.0-46.0-4.0-0.0-1.0-2.0,,,,,,,,,,1.0,1.0,,,,5b2a72f7c293b90001732b89,10:52:00,03/04/2024
,"<div style=""font-size: 10rem; color: #0000FF"">K</div>",,ospan,letter,2rYbWm6rL7b1JDxWOCR60hQQErY2,html-keyboard-response,114,576744,0.0-46.0-4.0-0.0-1.0-3.0,,,,,,,,,,,,,,,5b2a72f7c293b90001732b89,10:52:00,03/04/2024
860.0,,,ospan,symmetry,2rYbWm6rL7b1JDxWOCR60hQQErY2,symmetry-judgement-task,115,579525,0.0-46.0-4.0-0.0-1.0-4.0,,,,,,,,,,1.0,1.0,,,,5b2a72f7c293b90001732b89,10:52:00,03/04/2024
,"<div style=""font-size: 10rem; color: #0000FF"">G</div>",,ospan,letter,2rYbWm6rL7b1JDxWOCR60hQQErY2,html-keyboard-response,116,580536,0.0-46.0-4.0-0.0-1.0-5.0,,,,,,,,,,,,,,,5b2a72f7c293b90001732b89,10:52:00,03/04/2024
1424.0,,,ospan,symmetry,2rYbWm6rL7b1JDxWOCR60hQQErY2,symmetry-judgement-task,117,583842,0.0-46.0-4.0-0.0-1.0-6.0,,,,,,,,,,1.0,1.0,,,,5b2a72f7c293b90001732b89,10:52:00,03/04/2024
,"<div style=""font-size: 10rem; color: #0000FF"">H</div>",,ospan,letter,2rYbWm6rL7b1JDxWOCR60hQQErY2,html-keyboard-response,118,584847,0.0-46.0-4.0-0.0-1.0-7.0,,,,,,,,,,,,,,,5b2a72f7c293b90001732b89,10:52:00,03/04/2024
3937.0,"<div class = numbox><p style=""font-size: 2.4rem"">Please recall the letters you saw to the best of your ability. If you do not remember a particular letter, use the SKIP button.<br><b>(When you are ready to lock in your answer, press ENTER)</b></p><button id = button_1 class = ""square num-button"" onclick = ""recordClick(this)""><div class = content><div class = numbers>C</div></div></button><button id = button_2 class = ""square num-button"" onclick = ""recordClick(this)""><div class = content><div class = numbers>G</div></div></button><button id = button_3 class = ""square num-button"" onclick = ""recordClick(this)""><div class = content><div class = numbers>H</div></div></button><button id = button_4 class = ""square num-button"" onclick = ""recordClick(this)""><div class = content><div class = numbers>J</div></div></button><button id = button_5 class = ""square num-button"" onclick = ""recordClick(this)""><div class = content><div class = numbers>K</div></div></button><button id = button_6 class = ""square num-button"" onclick = ""recordClick(this)""><div class = content><div class = numbers>L</div></div></button><button id = button_7 class = ""square num-button"" onclick = ""recordClick(this)""><div class = content><div class = numbers>N</div></div></button><button id = button_8 class = ""square num-button"" onclick = ""recordClick(this)""><div class = content><div class = numbers>P</div></div></button><button id = button_9 class = ""square num-button"" onclick = ""recordClick(this)""><div class = content><div class = numbers>Q</div></div></button><button id = button_10 class = ""square num-button"" onclick = ""recordClick(this)""><div class = content><div class = numbers>R</div></div></button><button id = button_11 class = ""square num-button"" onclick = ""recordClick(this)""><div class = content><div class = numbers>S</div></div></button><button id = button_12 class = ""square num-button"" onclick = ""recordClick(this)""><div class = content><div class = numbers>Y</div></div></button><button class = clear_button id = ""ClearButton"" onclick = ""clearResponse()"">BACKSPACE</button><button class = blank_button id = ""BlankButton"" onclick = ""blankResponse()"">SKIP</button><p style=""font-size: 2.4rem""><u><b>Current Answer:</b></u></p><br><br><div id=echoed_txt style=""font-size: 5rem; color:blue;""><b></b></div></div>",enter,ospan,retrieval,2rYbWm6rL7b1JDxWOCR60hQQErY2,html-keyboard-response,119,589543,0.0-46.0-4.0-0.0-2.0,7,7,7,4.0,"[""J"",""K"",""G"",""H""]","[""J"",""K"",""G"",""H""]",1.0,4.0,,,,,,,5b2a72f7c293b90001732b89,10:52:00,03/04/2024
792.5,[''],0,ospan,feedback,2rYbWm6rL7b1JDxWOCR60hQQErY2,html-button-response,120,590841,0.0-46.0-4.0-0.0-3.0,,,,,,,,,,,,100.0,0.0,,5b2a72f7c293b90001732b89,10:52:00,03/04/2024
,"<p style=""font-size:75px;"">...</p>",,ospan,iti,2rYbWm6rL7b1JDxWOCR60hQQErY2,html-keyboard-response,121,591854,0.0-46.0-4.0-1.0-0.0,,,,,,,,,,,,,,,5b2a72f7c293b90001732b89,10:52:00,03/04/2024
955.0,,,ospan,symmetry,2rYbWm6rL7b1JDxWOCR60hQQErY2,symmetry-judgement-task,122,593951,0.0-46.0-4.0-1.0-1.0-0.0,,,,,,,,,,1.0,1.0,,,,5b2a72f7c293b90001732b89,10:52:00,03/04/2024
,"<div style=""font-size: 10rem; color: #0000FF"">P</div>",,ospan,letter,2rYbWm6rL7b1JDxWOCR60hQQErY2,html-keyboard-response,123,594962,0.0-46.0-4.0-1.0-1.0-1.0,,,,,,,,,,,,,,,5b2a72f7c293b90001732b89,10:52:00,03/04/2024
1069.0,,,ospan,symmetry,2rYbWm6rL7b1JDxWOCR60hQQErY2,symmetry-judgement-task,124,597942,0.0-46.0-4.0-1.0-1.0-2.0,,,,,,,,,,1.0,1.0,,,,5b2a72f7c293b90001732b89,10:52:00,03/04/2024
,"<div style=""font-size: 10rem; color: #0000FF"">Q</div>",,ospan,letter,2rYbWm6rL7b1JDxWOCR60hQQErY2,html-keyboard-response,125,598954,0.0-46.0-4.0-1.0-1.0-3.0,,,,,,,,,,,,,,,5b2a72f7c293b90001732b89,10:52:00,03/04/2024
809.0,,,ospan,symmetry,2rYbWm6rL7b1JDxWOCR60hQQErY2,symmetry-judgement-task,126,601657,0.0-46.0-4.0-1.0-1.0-4.0,,,,,,,,,,1.0,1.0,,,,5b2a72f7c293b90001732b89,10:52:00,03/04/2024
,"<div style=""font-size: 10rem; color: #0000FF"">H</div>",,ospan,letter,2rYbWm6rL7b1JDxWOCR60hQQErY2,html-keyboard-response,127,602672,0.0-46.0-4.0-1.0-1.0-5.0,,,,,,,,,,,,,,,5b2a72f7c293b90001732b89,10:52:00,03/04/2024
691.0,,,ospan,symmetry,2rYbWm6rL7b1JDxWOCR60hQQErY2,symmetry-judgement-task,128,605278,0.0-46.0-4.0-1.0-1.0-6.0,,,,,,,,,,1.0,1.0,,,,5b2a72f7c293b90001732b89,10:52:00,03/04/2024
,"<div style=""font-size: 10rem; color: #0000FF"">G</div>",,ospan,letter,2rYbWm6rL7b1JDxWOCR60hQQErY2,html-keyboard-response,129,606285,0.0-46.0-4.0-1.0-1.0-7.0,,,,,,,,,,,,,,,5b2a72f7c293b90001732b89,10:52:00,03/04/2024
745.0,,,ospan,symmetry,2rYbWm6rL7b1JDxWOCR60hQQErY2,symmetry-judgement-task,130,608925,0.0-46.0-4.0-1.0-1.0-8.0,,,,,,,,,,1.0,1.0,,,,5b2a72f7c293b90001732b89,10:52:00,03/04/2024
,"<div style=""font-size: 10rem; color: #0000FF"">K</div>",,ospan,letter,2rYbWm6rL7b1JDxWOCR60hQQErY2,html-keyboard-response,131,609932,0.0-46.0-4.0-1.0-1.0-9.0,,,,,,,,,,,,,,,5b2a72f7c293b90001732b89,10:52:00,03/04/2024
4899.9000000059605,"<div class = numbox><p style=""font-size: 2.4rem"">Please recall the letters you saw to the best of your ability. If you do not remember a particular letter, use the SKIP button.<br><b>(When you are ready to lock in your answer, press ENTER)</b></p><button id = button_1 class = ""square num-button"" onclick = ""recordClick(this)""><div class = content><div class = numbers>C</div></div></button><button id = button_2 class = ""square num-button"" onclick = ""recordClick(this)""><div class = content><div class = numbers>G</div></div></button><button id = button_3 class = ""square num-button"" onclick = ""recordClick(this)""><div class = content><div class = numbers>H</div></div></button><button id = button_4 class = ""square num-button"" onclick = ""recordClick(this)""><div class = content><div class = numbers>J</div></div></button><button id = button_5 class = ""square num-button"" onclick = ""recordClick(this)""><div class = content><div class = numbers>K</div></div></button><button id = button_6 class = ""square num-button"" onclick = ""recordClick(this)""><div class = content><div class = numbers>L</div></div></button><button id = button_7 class = ""square num-button"" onclick = ""recordClick(this)""><div class = content><div class = numbers>N</div></div></button><button id = button_8 class = ""square num-button"" onclick = ""recordClick(this)""><div class = content><div class = numbers>P</div></div></button><button id = button_9 class = ""square num-button"" onclick = ""recordClick(this)""><div class = content><div class = numbers>Q</div></div></button><button id = button_10 class = ""square num-button"" onclick = ""recordClick(this)""><div class = content><div class = numbers>R</div></div></button><button id = button_11 class = ""square num-button"" onclick = ""recordClick(this)""><div class = content><div class = numbers>S</div></div></button><button id = button_12 class = ""square num-button"" onclick = ""recordClick(this)""><div class = content><div class = numbers>Y</div></div></button><button class = clear_button id = ""ClearButton"" onclick = ""clearResponse()"">BACKSPACE</button><button class = blank_button id = ""BlankButton"" onclick = ""blankResponse()"">SKIP</button><p style=""font-size: 2.4rem""><u><b>Current Answer:</b></u></p><br><br><div id=echoed_txt style=""font-size: 5rem; color:blue;""><b></b></div></div>",enter,ospan,retrieval,2rYbWm6rL7b1JDxWOCR60hQQErY2,html-keyboard-response,132,615583,0.0-46.0-4.0-1.0-2.0,12,12,12,5.0,"[""P"",""Q"",""H"",""G"",""K""]","[""P"",""Q"",""H"",""G"",""K""]",1.0,5.0,,,,,,,5b2a72f7c293b90001732b89,10:52:00,03/04/2024
864.2999999970198,[''],0,ospan,feedback,2rYbWm6rL7b1JDxWOCR60hQQErY2,html-button-response,133,616949,0.0-46.0-4.0-1.0-3.0,,,,,,,,,,,,100.0,0.0,,5b2a72f7c293b90001732b89,10:52:00,03/04/2024
,"<p style=""font-size:75px;"">...</p>",,ospan,iti,2rYbWm6rL7b1JDxWOCR60hQQErY2,html-keyboard-response,134,617966,0.0-46.0-4.0-2.0-0.0,,,,,,,,,,,,,,,5b2a72f7c293b90001732b89,10:52:00,03/04/2024
1147.0,,,ospan,symmetry,2rYbWm6rL7b1JDxWOCR60hQQErY2,symmetry-judgement-task,135,620147,0.0-46.0-4.0-2.0-1.0-0.0,,,,,,,,,,1.0,1.0,,,,5b2a72f7c293b90001732b89,10:52:00,03/04/2024
,"<div style=""font-size: 10rem; color: #0000FF"">Q</div>",,ospan,letter,2rYbWm6rL7b1JDxWOCR60hQQErY2,html-keyboard-response,136,621161,0.0-46.0-4.0-2.0-1.0-1.0,,,,,,,,,,,,,,,5b2a72f7c293b90001732b89,10:52:00,03/04/2024
936.0,,,ospan,symmetry,2rYbWm6rL7b1JDxWOCR60hQQErY2,symmetry-judgement-task,137,624002,0.0-46.0-4.0-2.0-1.0-2.0,,,,,,,,,,1.0,1.0,,,,5b2a72f7c293b90001732b89,10:52:00,03/04/2024
,"<div style=""font-size: 10rem; color: #0000FF"">Y</div>",,ospan,letter,2rYbWm6rL7b1JDxWOCR60hQQErY2,html-keyboard-response,138,625014,0.0-46.0-4.0-2.0-1.0-3.0,,,,,,,,,,,,,,,5b2a72f7c293b90001732b89,10:52:00,03/04/2024
1169.0,,,ospan,symmetry,2rYbWm6rL7b1JDxWOCR60hQQErY2,symmetry-judgement-task,139,628064,0.0-46.0-4.0-2.0-1.0-4.0,,,,,,,,,,1.0,1.0,,,,5b2a72f7c293b90001732b89,10:52:00,03/04/2024
,"<div style=""font-size: 10rem; color: #0000FF"">L</div>",,ospan,letter,2rYbWm6rL7b1JDxWOCR60hQQErY2,html-keyboard-response,140,629075,0.0-46.0-4.0-2.0-1.0-5.0,,,,,,,,,,,,,,,5b2a72f7c293b90001732b89,10:52:00,03/04/2024
4114.79999999702,"<div class = numbox><p style=""font-size: 2.4rem"">Please recall the letters you saw to the best of your ability. If you do not remember a particular letter, use the SKIP button.<br><b>(When you are ready to lock in your answer, press ENTER)</b></p><button id = button_1 class = ""square num-button"" onclick = ""recordClick(this)""><div class = content><div class = numbers>C</div></div></button><button id = button_2 class = ""square num-button"" onclick = ""recordClick(this)""><div class = content><div class = numbers>G</div></div></button><button id = button_3 class = ""square num-button"" onclick = ""recordClick(this)""><div class = content><div class = numbers>H</div></div></button><button id = button_4 class = ""square num-button"" onclick = ""recordClick(this)""><div class = content><div class = numbers>J</div></div></button><button id = button_5 class = ""square num-button"" onclick = ""recordClick(this)""><div class = content><div class = numbers>K</div></div></button><button id = button_6 class = ""square num-button"" onclick = ""recordClick(this)""><div class = content><div class = numbers>L</div></div></button><button id = button_7 class = ""square num-button"" onclick = ""recordClick(this)""><div class = content><div class = numbers>N</div></div></button><button id = button_8 class = ""square num-button"" onclick = ""recordClick(this)""><div class = content><div class = numbers>P</div></div></button><button id = button_9 class = ""square num-button"" onclick = ""recordClick(this)""><div class = content><div class = numbers>Q</div></div></button><button id = button_10 class = ""square num-button"" onclick = ""recordClick(this)""><div class = content><div class = numbers>R</div></div></button><button id = button_11 class = ""square num-button"" onclick = ""recordClick(this)""><div class = content><div class = numbers>S</div></div></button><button id = button_12 class = ""square num-button"" onclick = ""recordClick(this)""><div class = content><div class = numbers>Y</div></div></button><button class = clear_button id = ""ClearButton"" onclick = ""clearResponse()"">BACKSPACE</button><button class = blank_button id = ""BlankButton"" onclick = ""blankResponse()"">SKIP</button><p style=""font-size: 2.4rem""><u><b>Current Answer:</b></u></p><br><br><div id=echoed_txt style=""font-size: 5rem; color:blue;""><b></b></div></div>",enter,ospan,retrieval,2rYbWm6rL7b1JDxWOCR60hQQErY2,html-keyboard-response,141,633951,0.0-46.0-4.0-2.0-2.0,15,15,15,3.0,"[""Q"",""Y"",""L""]","[""Q"",""Y"",""L""]",1.0,3.0,,,,,,,5b2a72f7c293b90001732b89,10:52:00,03/04/2024
10065.0,[''],0,ospan,feedback,2rYbWm6rL7b1JDxWOCR60hQQErY2,html-button-response,142,644519,0.0-46.0-4.0-2.0-3.0,,,,,,,,,,,,100.0,0.0,,5b2a72f7c293b90001732b89,10:52:00,03/04/2024
,"<p style=""font-size:75px;"">...</p>",,ospan,iti,2rYbWm6rL7b1JDxWOCR60hQQErY2,html-keyboard-response,143,645520,0.0-46.0-5.0-0.0-0.0,,,,,,,,,,,,,,,5b2a72f7c293b90001732b89,10:52:00,03/04/2024
1275.0,,,ospan,symmetry,2rYbWm6rL7b1JDxWOCR60hQQErY2,symmetry-judgement-task,144,647834,0.0-46.0-5.0-0.0-1.0-0.0,,,,,,,,,,1.0,1.0,,,,5b2a72f7c293b90001732b89,10:52:00,03/04/2024
,"<div style=""font-size: 10rem; color: #0000FF"">R</div>",,ospan,letter,2rYbWm6rL7b1JDxWOCR60hQQErY2,html-keyboard-response,145,648850,0.0-46.0-5.0-0.0-1.0-1.0,,,,,,,,,,,,,,,5b2a72f7c293b90001732b89,10:52:00,03/04/2024
1360.0,,,ospan,symmetry,2rYbWm6rL7b1JDxWOCR60hQQErY2,symmetry-judgement-task,146,652122,0.0-46.0-5.0-0.0-1.0-2.0,,,,,,,,,,1.0,1.0,,,,5b2a72f7c293b90001732b89,10:52:00,03/04/2024
,"<div style=""font-size: 10rem; color: #0000FF"">Y</div>",,ospan,letter,2rYbWm6rL7b1JDxWOCR60hQQErY2,html-keyboard-response,147,653133,0.0-46.0-5.0-0.0-1.0-3.0,,,,,,,,,,,,,,,5b2a72f7c293b90001732b89,10:52:00,03/04/2024
1070.0,,,ospan,symmetry,2rYbWm6rL7b1JDxWOCR60hQQErY2,symmetry-judgement-task,148,656102,0.0-46.0-5.0-0.0-1.0-4.0,,,,,,,,,,1.0,1.0,,,,5b2a72f7c293b90001732b89,10:52:00,03/04/2024
,"<div style=""font-size: 10rem; color: #0000FF"">N</div>",,ospan,letter,2rYbWm6rL7b1JDxWOCR60hQQErY2,html-keyboard-response,149,657108,0.0-46.0-5.0-0.0-1.0-5.0,,,,,,,,,,,,,,,5b2a72f7c293b90001732b89,10:52:00,03/04/2024
615.0,,,ospan,symmetry,2rYbWm6rL7b1JDxWOCR60hQQErY2,symmetry-judgement-task,150,659620,0.0-46.0-5.0-0.0-1.0-6.0,,,,,,,,,,1.0,1.0,,,,5b2a72f7c293b90001732b89,10:52:00,03/04/2024
,"<div style=""font-size: 10rem; color: #0000FF"">K</div>",,ospan,letter,2rYbWm6rL7b1JDxWOCR60hQQErY2,html-keyboard-response,151,660635,0.0-46.0-5.0-0.0-1.0-7.0,,,,,,,,,,,,,,,5b2a72f7c293b90001732b89,10:52:00,03/04/2024
584.0,,,ospan,symmetry,2rYbWm6rL7b1JDxWOCR60hQQErY2,symmetry-judgement-task,152,663114,0.0-46.0-5.0-0.0-1.0-8.0,,,,,,,,,,1.0,1.0,,,,5b2a72f7c293b90001732b89,10:52:00,03/04/2024
,"<div style=""font-size: 10rem; color: #0000FF"">S</div>",,ospan,letter,2rYbWm6rL7b1JDxWOCR60hQQErY2,html-keyboard-response,153,664117,0.0-46.0-5.0-0.0-1.0-9.0,,,,,,,,,,,,,,,5b2a72f7c293b90001732b89,10:52:00,03/04/2024
617.0,,,ospan,symmetry,2rYbWm6rL7b1JDxWOCR60hQQErY2,symmetry-judgement-task,154,666634,0.0-46.0-5.0-0.0-1.0-10.0,,,,,,,,,,1.0,1.0,,,,5b2a72f7c293b90001732b89,10:52:00,03/04/2024
,"<div style=""font-size: 10rem; color: #0000FF"">Q</div>",,ospan,letter,2rYbWm6rL7b1JDxWOCR60hQQErY2,html-keyboard-response,155,667635,0.0-46.0-5.0-0.0-1.0-11.0,,,,,,,,,,,,,,,5b2a72f7c293b90001732b89,10:52:00,03/04/2024
4163.9000000059605,"<div class = numbox><p style=""font-size: 2.4rem"">Please recall the letters you saw to the best of your ability. If you do not remember a particular letter, use the SKIP button.<br><b>(When you are ready to lock in your answer, press ENTER)</b></p><button id = button_1 class = ""square num-button"" onclick = ""recordClick(this)""><div class = content><div class = numbers>C</div></div></button><button id = button_2 class = ""square num-button"" onclick = ""recordClick(this)""><div class = content><div class = numbers>G</div></div></button><button id = button_3 class = ""square num-button"" onclick = ""recordClick(this)""><div class = content><div class = numbers>H</div></div></button><button id = button_4 class = ""square num-button"" onclick = ""recordClick(this)""><div class = content><div class = numbers>J</div></div></button><button id = button_5 class = ""square num-button"" onclick = ""recordClick(this)""><div class = content><div class = numbers>K</div></div></button><button id = button_6 class = ""square num-button"" onclick = ""recordClick(this)""><div class = content><div class = numbers>L</div></div></button><button id = button_7 class = ""square num-button"" onclick = ""recordClick(this)""><div class = content><div class = numbers>N</div></div></button><button id = button_8 class = ""square num-button"" onclick = ""recordClick(this)""><div class = content><div class = numbers>P</div></div></button><button id = button_9 class = ""square num-button"" onclick = ""recordClick(this)""><div class = content><div class = numbers>Q</div></div></button><button id = button_10 class = ""square num-button"" onclick = ""recordClick(this)""><div class = content><div class = numbers>R</div></div></button><button id = button_11 class = ""square num-button"" onclick = ""recordClick(this)""><div class = content><div class = numbers>S</div></div></button><button id = button_12 class = ""square num-button"" onclick = ""recordClick(this)""><div class = content><div class = numbers>Y</div></div></button><button class = clear_button id = ""ClearButton"" onclick = ""clearResponse()"">BACKSPACE</button><button class = blank_button id = ""BlankButton"" onclick = ""blankResponse()"">SKIP</button><p style=""font-size: 2.4rem""><u><b>Current Answer:</b></u></p><br><br><div id=echoed_txt style=""font-size: 5rem; color:blue;""><b></b></div></div>",enter,ospan,retrieval,2rYbWm6rL7b1JDxWOCR60hQQErY2,html-keyboard-response,156,672559,0.0-46.0-5.0-0.0-2.0,21,21,21,6.0,"[""R"",""Y"",""N"",""K"",""S"",""Q""]","[""R"",""Y"",""N"",""K"",""S"",""Q""]",1.0,6.0,,,,,,,5b2a72f7c293b90001732b89,10:52:00,03/04/2024
387.6000000014901,[''],0,ospan,feedback,2rYbWm6rL7b1JDxWOCR60hQQErY2,html-button-response,157,673454,0.0-46.0-5.0-0.0-3.0,,,,,,,,,,,,100.0,0.0,,5b2a72f7c293b90001732b89,10:52:00,03/04/2024
,"<p style=""font-size:75px;"">...</p>",,ospan,iti,2rYbWm6rL7b1JDxWOCR60hQQErY2,html-keyboard-response,158,674458,0.0-46.0-5.0-1.0-0.0,,,,,,,,,,,,,,,5b2a72f7c293b90001732b89,10:52:00,03/04/2024
1162.0,,,ospan,symmetry,2rYbWm6rL7b1JDxWOCR60hQQErY2,symmetry-judgement-task,159,676770,0.0-46.0-5.0-1.0-1.0-0.0,,,,,,,,,,1.0,1.0,,,,5b2a72f7c293b90001732b89,10:52:00,03/04/2024
,"<div style=""font-size: 10rem; color: #0000FF"">Q</div>",,ospan,letter,2rYbWm6rL7b1JDxWOCR60hQQErY2,html-keyboard-response,160,677783,0.0-46.0-5.0-1.0-1.0-1.0,,,,,,,,,,,,,,,5b2a72f7c293b90001732b89,10:52:00,03/04/2024
1002.0,,,ospan,symmetry,2rYbWm6rL7b1JDxWOCR60hQQErY2,symmetry-judgement-task,161,680683,0.0-46.0-5.0-1.0-1.0-2.0,,,,,,,,,,1.0,1.0,,,,5b2a72f7c293b90001732b89,10:52:00,03/04/2024
,"<div style=""font-size: 10rem; color: #0000FF"">S</div>",,ospan,letter,2rYbWm6rL7b1JDxWOCR60hQQErY2,html-keyboard-response,162,681690,0.0-46.0-5.0-1.0-1.0-3.0,,,,,,,,,,,,,,,5b2a72f7c293b90001732b89,10:52:00,03/04/2024
1502.0,,,ospan,symmetry,2rYbWm6rL7b1JDxWOCR60hQQErY2,symmetry-judgement-task,163,685095,0.0-46.0-5.0-1.0-1.0-4.0,,,,,,,,,,1.0,1.0,,,,5b2a72f7c293b90001732b89,10:52:00,03/04/2024
,"<div style=""font-size: 10rem; color: #0000FF"">H</div>",,ospan,letter,2rYbWm6rL7b1JDxWOCR60hQQErY2,html-keyboard-response,164,686109,0.0-46.0-5.0-1.0-1.0-5.0,,,,,,,,,,,,,,,5b2a72f7c293b90001732b89,10:52:00,03/04/2024
663.0,,,ospan,symmetry,2rYbWm6rL7b1JDxWOCR60hQQErY2,symmetry-judgement-task,165,688660,0.0-46.0-5.0-1.0-1.0-6.0,,,,,,,,,,1.0,1.0,,,,5b2a72f7c293b90001732b89,10:52:00,03/04/2024
,"<div style=""font-size: 10rem; color: #0000FF"">N</div>",,ospan,letter,2rYbWm6rL7b1JDxWOCR60hQQErY2,html-keyboard-response,166,689675,0.0-46.0-5.0-1.0-1.0-7.0,,,,,,,,,,,,,,,5b2a72f7c293b90001732b89,10:52:00,03/04/2024
1102.0,,,ospan,symmetry,2rYbWm6rL7b1JDxWOCR60hQQErY2,symmetry-judgement-task,167,692682,0.0-46.0-5.0-1.0-1.0-8.0,,,,,,,,,,1.0,1.0,,,,5b2a72f7c293b90001732b89,10:52:00,03/04/2024
,"<div style=""font-size: 10rem; color: #0000FF"">R</div>",,ospan,letter,2rYbWm6rL7b1JDxWOCR60hQQErY2,html-keyboard-response,168,693690,0.0-46.0-5.0-1.0-1.0-9.0,,,,,,,,,,,,,,,5b2a72f7c293b90001732b89,10:52:00,03/04/2024
731.0,,,ospan,symmetry,2rYbWm6rL7b1JDxWOCR60hQQErY2,symmetry-judgement-task,169,696314,0.0-46.0-5.0-1.0-1.0-10.0,,,,,,,,,,1.0,1.0,,,,5b2a72f7c293b90001732b89,10:52:00,03/04/2024
,"<div style=""font-size: 10rem; color: #0000FF"">C</div>",,ospan,letter,2rYbWm6rL7b1JDxWOCR60hQQErY2,html-keyboard-response,170,697325,0.0-46.0-5.0-1.0-1.0-11.0,,,,,,,,,,,,,,,5b2a72f7c293b90001732b89,10:52:00,03/04/2024
1113.0,,,ospan,symmetry,2rYbWm6rL7b1JDxWOCR60hQQErY2,symmetry-judgement-task,171,700328,0.0-46.0-5.0-1.0-1.0-12.0,,,,,,,,,,1.0,1.0,,,,5b2a72f7c293b90001732b89,10:52:00,03/04/2024
,"<div style=""font-size: 10rem; color: #0000FF"">L</div>",,ospan,letter,2rYbWm6rL7b1JDxWOCR60hQQErY2,html-keyboard-response,172,701332,0.0-46.0-5.0-1.0-1.0-13.0,,,,,,,,,,,,,,,5b2a72f7c293b90001732b89,10:52:00,03/04/2024
7309.0,"<div class = numbox><p style=""font-size: 2.4rem"">Please recall the letters you saw to the best of your ability. If you do not remember a particular letter, use the SKIP button.<br><b>(When you are ready to lock in your answer, press ENTER)</b></p><button id = button_1 class = ""square num-button"" onclick = ""recordClick(this)""><div class = content><div class = numbers>C</div></div></button><button id = button_2 class = ""square num-button"" onclick = ""recordClick(this)""><div class = content><div class = numbers>G</div></div></button><button id = button_3 class = ""square num-button"" onclick = ""recordClick(this)""><div class = content><div class = numbers>H</div></div></button><button id = button_4 class = ""square num-button"" onclick = ""recordClick(this)""><div class = content><div class = numbers>J</div></div></button><button id = button_5 class = ""square num-button"" onclick = ""recordClick(this)""><div class = content><div class = numbers>K</div></div></button><button id = button_6 class = ""square num-button"" onclick = ""recordClick(this)""><div class = content><div class = numbers>L</div></div></button><button id = button_7 class = ""square num-button"" onclick = ""recordClick(this)""><div class = content><div class = numbers>N</div></div></button><button id = button_8 class = ""square num-button"" onclick = ""recordClick(this)""><div class = content><div class = numbers>P</div></div></button><button id = button_9 class = ""square num-button"" onclick = ""recordClick(this)""><div class = content><div class = numbers>Q</div></div></button><button id = button_10 class = ""square num-button"" onclick = ""recordClick(this)""><div class = content><div class = numbers>R</div></div></button><button id = button_11 class = ""square num-button"" onclick = ""recordClick(this)""><div class = content><div class = numbers>S</div></div></button><button id = button_12 class = ""square num-button"" onclick = ""recordClick(this)""><div class = content><div class = numbers>Y</div></div></button><button class = clear_button id = ""ClearButton"" onclick = ""clearResponse()"">BACKSPACE</button><button class = blank_button id = ""BlankButton"" onclick = ""blankResponse()"">SKIP</button><p style=""font-size: 2.4rem""><u><b>Current Answer:</b></u></p><br><br><div id=echoed_txt style=""font-size: 5rem; color:blue;""><b></b></div></div>",enter,ospan,retrieval,2rYbWm6rL7b1JDxWOCR60hQQErY2,html-keyboard-response,173,709400,0.0-46.0-5.0-1.0-2.0,28,28,28,7.0,"[""Q"",""S"",""H"",""N"",""R"",""C"",""L""]","[""Q"",""S"",""H"",""N"",""R"",""C"",""L""]",1.0,7.0,,,,,,,5b2a72f7c293b90001732b89,10:52:00,03/04/2024
7730.80000000447,[''],0,ospan,feedback,2rYbWm6rL7b1JDxWOCR60hQQErY2,html-button-response,174,717644,0.0-46.0-5.0-1.0-3.0,,,,,,,,,,,,100.0,0.0,,5b2a72f7c293b90001732b89,10:52:00,03/04/2024
,"<p style=""font-size:75px;"">...</p>",,ospan,iti,2rYbWm6rL7b1JDxWOCR60hQQErY2,html-keyboard-response,175,718652,0.0-46.0-6.0-0.0-0.0,,,,,,,,,,,,,,,5b2a72f7c293b90001732b89,10:52:00,03/04/2024
1830.0,,,ospan,symmetry,2rYbWm6rL7b1JDxWOCR60hQQErY2,symmetry-judgement-task,176,721635,0.0-46.0-6.0-0.0-1.0-0.0,,,,,,,,,,1.0,1.0,,,,5b2a72f7c293b90001732b89,10:52:00,03/04/2024
,"<div style=""font-size: 10rem; color: #0000FF"">Y</div>",,ospan,letter,2rYbWm6rL7b1JDxWOCR60hQQErY2,html-keyboard-response,177,722644,0.0-46.0-6.0-0.0-1.0-1.0,,,,,,,,,,,,,,,5b2a72f7c293b90001732b89,10:52:00,03/04/2024
805.0,,,ospan,symmetry,2rYbWm6rL7b1JDxWOCR60hQQErY2,symmetry-judgement-task,178,725341,0.0-46.0-6.0-0.0-1.0-2.0,,,,,,,,,,1.0,1.0,,,,5b2a72f7c293b90001732b89,10:52:00,03/04/2024
,"<div style=""font-size: 10rem; color: #0000FF"">Q</div>",,ospan,letter,2rYbWm6rL7b1JDxWOCR60hQQErY2,html-keyboard-response,179,726342,0.0-46.0-6.0-0.0-1.0-3.0,,,,,,,,,,,,,,,5b2a72f7c293b90001732b89,10:52:00,03/04/2024
614.0,,,ospan,symmetry,2rYbWm6rL7b1JDxWOCR60hQQErY2,symmetry-judgement-task,180,728868,0.0-46.0-6.0-0.0-1.0-4.0,,,,,,,,,,1.0,1.0,,,,5b2a72f7c293b90001732b89,10:52:00,03/04/2024
,"<div style=""font-size: 10rem; color: #0000FF"">K</div>",,ospan,letter,2rYbWm6rL7b1JDxWOCR60hQQErY2,html-keyboard-response,181,729879,0.0-46.0-6.0-0.0-1.0-5.0,,,,,,,,,,,,,,,5b2a72f7c293b90001732b89,10:52:00,03/04/2024
501.0,,,ospan,symmetry,2rYbWm6rL7b1JDxWOCR60hQQErY2,symmetry-judgement-task,182,732279,0.0-46.0-6.0-0.0-1.0-6.0,,,,,,,,,,1.0,1.0,,,,5b2a72f7c293b90001732b89,10:52:00,03/04/2024
,"<div style=""font-size: 10rem; color: #0000FF"">J</div>",,ospan,letter,2rYbWm6rL7b1JDxWOCR60hQQErY2,html-keyboard-response,183,733294,0.0-46.0-6.0-0.0-1.0-7.0,,,,,,,,,,,,,,,5b2a72f7c293b90001732b89,10:52:00,03/04/2024
1577.0,,,ospan,symmetry,2rYbWm6rL7b1JDxWOCR60hQQErY2,symmetry-judgement-task,184,736779,0.0-46.0-6.0-0.0-1.0-8.0,,,,,,,,,,1.0,1.0,,,,5b2a72f7c293b90001732b89,10:52:00,03/04/2024
,"<div style=""font-size: 10rem; color: #0000FF"">S</div>",,ospan,letter,2rYbWm6rL7b1JDxWOCR60hQQErY2,html-keyboard-response,185,737794,0.0-46.0-6.0-0.0-1.0-9.0,,,,,,,,,,,,,,,5b2a72f7c293b90001732b89,10:52:00,03/04/2024
5005.39999999851,"<div class = numbox><p style=""font-size: 2.4rem"">Please recall the letters you saw to the best of your ability. If you do not remember a particular letter, use the SKIP button.<br><b>(When you are ready to lock in your answer, press ENTER)</b></p><button id = button_1 class = ""square num-button"" onclick = ""recordClick(this)""><div class = content><div class = numbers>C</div></div></button><button id = button_2 class = ""square num-button"" onclick = ""recordClick(this)""><div class = content><div class = numbers>G</div></div></button><button id = button_3 class = ""square num-button"" onclick = ""recordClick(this)""><div class = content><div class = numbers>H</div></div></button><button id = button_4 class = ""square num-button"" onclick = ""recordClick(this)""><div class = content><div class = numbers>J</div></div></button><button id = button_5 class = ""square num-button"" onclick = ""recordClick(this)""><div class = content><div class = numbers>K</div></div></button><button id = button_6 class = ""square num-button"" onclick = ""recordClick(this)""><div class = content><div class = numbers>L</div></div></button><button id = button_7 class = ""square num-button"" onclick = ""recordClick(this)""><div class = content><div class = numbers>N</div></div></button><button id = button_8 class = ""square num-button"" onclick = ""recordClick(this)""><div class = content><div class = numbers>P</div></div></button><button id = button_9 class = ""square num-button"" onclick = ""recordClick(this)""><div class = content><div class = numbers>Q</div></div></button><button id = button_10 class = ""square num-button"" onclick = ""recordClick(this)""><div class = content><div class = numbers>R</div></div></button><button id = button_11 class = ""square num-button"" onclick = ""recordClick(this)""><div class = content><div class = numbers>S</div></div></button><button id = button_12 class = ""square num-button"" onclick = ""recordClick(this)""><div class = content><div class = numbers>Y</div></div></button><button class = clear_button id = ""ClearButton"" onclick = ""clearResponse()"">BACKSPACE</button><button class = blank_button id = ""BlankButton"" onclick = ""blankResponse()"">SKIP</button><p style=""font-size: 2.4rem""><u><b>Current Answer:</b></u></p><br><br><div id=echoed_txt style=""font-size: 5rem; color:blue;""><b></b></div></div>",enter,ospan,retrieval,2rYbWm6rL7b1JDxWOCR60hQQErY2,html-keyboard-response,186,743558,0.0-46.0-6.0-0.0-2.0,33,33,33,5.0,"[""Y"",""Q"",""K"",""J"",""S""]","[""Y"",""Q"",""K"",""J"",""S""]",1.0,5.0,,,,,,,5b2a72f7c293b90001732b89,10:52:00,03/04/2024
1026.0999999940395,[''],0,ospan,feedback,2rYbWm6rL7b1JDxWOCR60hQQErY2,html-button-response,187,745098,0.0-46.0-6.0-0.0-3.0,,,,,,,,,,,,100.0,0.0,,5b2a72f7c293b90001732b89,10:52:00,03/04/2024
,"<p style=""font-size:75px;"">...</p>",,ospan,iti,2rYbWm6rL7b1JDxWOCR60hQQErY2,html-keyboard-response,188,746108,0.0-46.0-6.0-1.0-0.0,,,,,,,,,,,,,,,5b2a72f7c293b90001732b89,10:52:00,03/04/2024
1519.0,,,ospan,symmetry,2rYbWm6rL7b1JDxWOCR60hQQErY2,symmetry-judgement-task,189,748763,0.0-46.0-6.0-1.0-1.0-0.0,,,,,,,,,,1.0,1.0,,,,5b2a72f7c293b90001732b89,10:52:00,03/04/2024
,"<div style=""font-size: 10rem; color: #0000FF"">K</div>",,ospan,letter,2rYbWm6rL7b1JDxWOCR60hQQErY2,html-keyboard-response,190,749776,0.0-46.0-6.0-1.0-1.0-1.0,,,,,,,,,,,,,,,5b2a72f7c293b90001732b89,10:52:00,03/04/2024
1103.0,,,ospan,symmetry,2rYbWm6rL7b1JDxWOCR60hQQErY2,symmetry-judgement-task,191,752763,0.0-46.0-6.0-1.0-1.0-2.0,,,,,,,,,,1.0,1.0,,,,5b2a72f7c293b90001732b89,10:52:00,03/04/2024
,"<div style=""font-size: 10rem; color: #0000FF"">N</div>",,ospan,letter,2rYbWm6rL7b1JDxWOCR60hQQErY2,html-keyboard-response,192,753772,0.0-46.0-6.0-1.0-1.0-3.0,,,,,,,,,,,,,,,5b2a72f7c293b90001732b89,10:52:00,03/04/2024
770.0,,,ospan,symmetry,2rYbWm6rL7b1JDxWOCR60hQQErY2,symmetry-judgement-task,193,756443,0.0-46.0-6.0-1.0-1.0-4.0,,,,,,,,,,1.0,1.0,,,,5b2a72f7c293b90001732b89,10:52:00,03/04/2024
,"<div style=""font-size: 10rem; color: #0000FF"">Y</div>",,ospan,letter,2rYbWm6rL7b1JDxWOCR60hQQErY2,html-keyboard-response,194,757447,0.0-46.0-6.0-1.0-1.0-5.0,,,,,,,,,,,,,,,5b2a72f7c293b90001732b89,10:52:00,03/04/2024
663.0,,,ospan,symmetry,2rYbWm6rL7b1JDxWOCR60hQQErY2,symmetry-judgement-task,195,760000,0.0-46.0-6.0-1.0-1.0-6.0,,,,,,,,,,1.0,1.0,,,,5b2a72f7c293b90001732b89,10:52:00,03/04/2024
,"<div style=""font-size: 10rem; color: #0000FF"">P</div>",,ospan,letter,2rYbWm6rL7b1JDxWOCR60hQQErY2,html-keyboard-response,196,761013,0.0-46.0-6.0-1.0-1.0-7.0,,,,,,,,,,,,,,,5b2a72f7c293b90001732b89,10:52:00,03/04/2024
513.0,,,ospan,symmetry,2rYbWm6rL7b1JDxWOCR60hQQErY2,symmetry-judgement-task,197,763425,0.0-46.0-6.0-1.0-1.0-8.0,,,,,,,,,,1.0,1.0,,,,5b2a72f7c293b90001732b89,10:52:00,03/04/2024
,"<div style=""font-size: 10rem; color: #0000FF"">G</div>",,ospan,letter,2rYbWm6rL7b1JDxWOCR60hQQErY2,html-keyboard-response,198,764428,0.0-46.0-6.0-1.0-1.0-9.0,,,,,,,,,,,,,,,5b2a72f7c293b90001732b89,10:52:00,03/04/2024
909.0,,,ospan,symmetry,2rYbWm6rL7b1JDxWOCR60hQQErY2,symmetry-judgement-task,199,767232,0.0-46.0-6.0-1.0-1.0-10.0,,,,,,,,,,1.0,1.0,,,,5b2a72f7c293b90001732b89,10:52:00,03/04/2024
,"<div style=""font-size: 10rem; color: #0000FF"">H</div>",,ospan,letter,2rYbWm6rL7b1JDxWOCR60hQQErY2,html-keyboard-response,200,768247,0.0-46.0-6.0-1.0-1.0-11.0,,,,,,,,,,,,,,,5b2a72f7c293b90001732b89,10:52:00,03/04/2024
712.0,,,ospan,symmetry,2rYbWm6rL7b1JDxWOCR60hQQErY2,symmetry-judgement-task,201,770849,0.0-46.0-6.0-1.0-1.0-12.0,,,,,,,,,,1.0,1.0,,,,5b2a72f7c293b90001732b89,10:52:00,03/04/2024
,"<div style=""font-size: 10rem; color: #0000FF"">S</div>",,ospan,letter,2rYbWm6rL7b1JDxWOCR60hQQErY2,html-keyboard-response,202,771861,0.0-46.0-6.0-1.0-1.0-13.0,,,,,,,,,,,,,,,5b2a72f7c293b90001732b89,10:52:00,03/04/2024
1023.0,,,ospan,symmetry,2rYbWm6rL7b1JDxWOCR60hQQErY2,symmetry-judgement-task,203,774766,0.0-46.0-6.0-1.0-1.0-14.0,,,,,,,,,,1.0,1.0,,,,5b2a72f7c293b90001732b89,10:52:00,03/04/2024
,"<div style=""font-size: 10rem; color: #0000FF"">L</div>",,ospan,letter,2rYbWm6rL7b1JDxWOCR60hQQErY2,html-keyboard-response,204,775781,0.0-46.0-6.0-1.0-1.0-15.0,,,,,,,,,,,,,,,5b2a72f7c293b90001732b89,10:52:00,03/04/2024
7456.4000000059605,"<div class = numbox><p style=""font-size: 2.4rem"">Please recall the letters you saw to the best of your ability. If you do not remember a particular letter, use the SKIP button.<br><b>(When you are ready to lock in your answer, press ENTER)</b></p><button id = button_1 class = ""square num-button"" onclick = ""recordClick(this)""><div class = content><div class = numbers>C</div></div></button><button id = button_2 class = ""square num-button"" onclick = ""recordClick(this)""><div class = content><div class = numbers>G</div></div></button><button id = button_3 class = ""square num-button"" onclick = ""recordClick(this)""><div class = content><div class = numbers>H</div></div></button><button id = button_4 class = ""square num-button"" onclick = ""recordClick(this)""><div class = content><div class = numbers>J</div></div></button><button id = button_5 class = ""square num-button"" onclick = ""recordClick(this)""><div class = content><div class = numbers>K</div></div></button><button id = button_6 class = ""square num-button"" onclick = ""recordClick(this)""><div class = content><div class = numbers>L</div></div></button><button id = button_7 class = ""square num-button"" onclick = ""recordClick(this)""><div class = content><div class = numbers>N</div></div></button><button id = button_8 class = ""square num-button"" onclick = ""recordClick(this)""><div class = content><div class = numbers>P</div></div></button><button id = button_9 class = ""square num-button"" onclick = ""recordClick(this)""><div class = content><div class = numbers>Q</div></div></button><button id = button_10 class = ""square num-button"" onclick = ""recordClick(this)""><div class = content><div class = numbers>R</div></div></button><button id = button_11 class = ""square num-button"" onclick = ""recordClick(this)""><div class = content><div class = numbers>S</div></div></button><button id = button_12 class = ""square num-button"" onclick = ""recordClick(this)""><div class = content><div class = numbers>Y</div></div></button><button class = clear_button id = ""ClearButton"" onclick = ""clearResponse()"">BACKSPACE</button><button class = blank_button id = ""BlankButton"" onclick = ""blankResponse()"">SKIP</button><p style=""font-size: 2.4rem""><u><b>Current Answer:</b></u></p><br><br><div id=echoed_txt style=""font-size: 5rem; color:blue;""><b></b></div></div>",enter,ospan,retrieval,2rYbWm6rL7b1JDxWOCR60hQQErY2,html-keyboard-response,205,783989,0.0-46.0-6.0-1.0-2.0,41,37,33,8.0,"[""K"",""Y"",""N"",""P"",""J"",""H"",""S""]","[""K"",""N"",""Y"",""P"",""G"",""H"",""S"",""L""]",0.0,4.0,,,,,,,5b2a72f7c293b90001732b89,10:52:00,03/04/2024
757.5,[''],0,ospan,feedback,2rYbWm6rL7b1JDxWOCR60hQQErY2,html-button-response,206,785253,0.0-46.0-6.0-1.0-3.0,,,,,,,,,,,,100.0,0.0,,5b2a72f7c293b90001732b89,10:52:00,03/04/2024
211913.1000000015,,{'Q0': 'No issues understanding what to do and it felt like a game so it was quite fun'},ospan,survey_ospan,2rYbWm6rL7b1JDxWOCR60hQQErY2,lmdlab-survey-text,207,997928,0.0-46.0-7.0,,,,,,,,,,,,,,2rYbWm6rL7b1JDxWOCR60hQQErY2,5b2a72f7c293b90001732b89,10:52:00,03/04/2024
1138.0,<p><p style='font-size: 3rem'>Great work!<br><br>This completes the symmetry and memory task.</p><br><br><br>,0,ospan,finish,2rYbWm6rL7b1JDxWOCR60hQQErY2,html-button-response,208,999068,0.0-46.0-8.0,41,37,33,,,,,,,,,100.0,,,5b2a72f7c293b90001732b89,10:52:00,03/04/2024
