rt,stimulus,response,exp_name,exp_stage,subjectID,trial_type,trial_index,time_elapsed,internal_node_id,ospan_shown,ospan_total,ospan_abs,length,resp_actual,resp_correct,full_correct,num_correct,feedback,accuracy,correct,math_acc,math_warning,databaseID,prolificID,start_time,date
1238.0,<div class = 'left_align' style='font-size: 3.25rem; line-height: 1.3;'><p class = 'center_align'><b>Welcome to the Symmetry and Memory Task</b><br><br><br><br></p>Press 'continue' to show the instructions.<br><br><br><br></div>,0,ospan,instruct,4fmsWGjJCMZRwx0RIoPdFcupPcw1,html-button-response,54,480780,0.0-46.0-0.0-0.0-0.0,,,,,,,,,,,,,,,65ff408b32980a820b6742c7,14:35:26,03/04/2024
8717.0,"<div class = 'left_align' style='font-size: 3.25rem; line-height: 1.3;'><p class = 'center_align'><b>Symmetry and Memory Task</b><br><br></p>In this task, you will try to memorize letters you see on the screen<br>while you also view black and white grid pictures.<br><br>In the next few minutes, you will have some practice to get you familiar<br>with how the task works.<br><br>It may be difficult sometimes, but please do not worry about making mistakes!<br><br>We will begin by practicing the letter part of the task.<br><br><br><br></div>",0,ospan,instruct,4fmsWGjJCMZRwx0RIoPdFcupPcw1,html-button-response,55,489753,0.0-46.0-0.0-0.0-1.0,,,,,,,,,,,,,,,65ff408b32980a820b6742c7,14:35:26,03/04/2024
8291.0,"<div class = 'left_align' style='font-size: 3.25rem; line-height: 1.3;'>For this practice part, letters will appear on the screen one at a time.<br><br>Try to remember each letter in the order presented.<br><br>After some letters have been shown, you will see a response screen. Your<br>goal is to report the letters you saw <b>in order</b>. If you do not remember<br>a particular letter, you will have the option to leave it blank.<br><br><br><br></div>",0,ospan,instruct,4fmsWGjJCMZRwx0RIoPdFcupPcw1,html-button-response,56,498310,0.0-46.0-0.0-0.0-2.0,,,,,,,,,,,,,,,65ff408b32980a820b6742c7,14:35:26,03/04/2024
2852.0,"<div class = 'left_align' style='font-size: 3.25rem; line-height: 1.3;'>Remember, it is very important to get the letters in the same<br>order as you see them.<br><br>When you are ready, you may begin the letter practice.</div><br><br><br><br>",0,ospan,instruct,4fmsWGjJCMZRwx0RIoPdFcupPcw1,html-button-response,57,501426,0.0-46.0-0.0-0.0-3.0,,,,,,,,,,,,,,,65ff408b32980a820b6742c7,14:35:26,03/04/2024
,"<p style=""font-size:75px;"">...</p>",,ospan,iti,4fmsWGjJCMZRwx0RIoPdFcupPcw1,html-keyboard-response,58,502684,0.0-46.0-0.0-1.0-0.0,,,,,,,,,,,,,,,65ff408b32980a820b6742c7,14:35:26,03/04/2024
,"<div style=""font-size: 10rem; color: #0000FF"">Q</div>",,ospan,letter,4fmsWGjJCMZRwx0RIoPdFcupPcw1,html-keyboard-response,59,503685,0.0-46.0-0.0-1.0-1.0,,,,,,,,,,,,,,,65ff408b32980a820b6742c7,14:35:26,03/04/2024
,"<div style=""font-size: 10rem; color: #0000FF"">Y</div>",,ospan,letter,4fmsWGjJCMZRwx0RIoPdFcupPcw1,html-keyboard-response,60,505441,0.0-46.0-0.0-1.0-2.0,,,,,,,,,,,,,,,65ff408b32980a820b6742c7,14:35:26,03/04/2024
5774.0,"<div class = numbox><p style=""font-size: 2.4rem"">Please recall the letters you saw to the best of your ability. If you do not remember a particular letter, use the SKIP button.<br><b>(When you are ready to lock in your answer, press ENTER)</b></p><button id = button_1 class = ""square num-button"" onclick = ""recordClick(this)""><div class = content><div class = numbers>C</div></div></button><button id = button_2 class = ""square num-button"" onclick = ""recordClick(this)""><div class = content><div class = numbers>G</div></div></button><button id = button_3 class = ""square num-button"" onclick = ""recordClick(this)""><div class = content><div class = numbers>H</div></div></button><button id = button_4 class = ""square num-button"" onclick = ""recordClick(this)""><div class = content><div class = numbers>J</div></div></button><button id = button_5 class = ""square num-button"" onclick = ""recordClick(this)""><div class = content><div class = numbers>K</div></div></button><button id = button_6 class = ""square num-button"" onclick = ""recordClick(this)""><div class = content><div class = numbers>L</div></div></button><button id = button_7 class = ""square num-button"" onclick = ""recordClick(this)""><div class = content><div class = numbers>N</div></div></button><button id = button_8 class = ""square num-button"" onclick = ""recordClick(this)""><div class = content><div class = numbers>P</div></div></button><button id = button_9 class = ""square num-button"" onclick = ""recordClick(this)""><div class = content><div class = numbers>Q</div></div></button><button id = button_10 class = ""square num-button"" onclick = ""recordClick(this)""><div class = content><div class = numbers>R</div></div></button><button id = button_11 class = ""square num-button"" onclick = ""recordClick(this)""><div class = content><div class = numbers>S</div></div></button><button id = button_12 class = ""square num-button"" onclick = ""recordClick(this)""><div class = content><div class = numbers>Y</div></div></button><button class = clear_button id = ""ClearButton"" onclick = ""clearResponse()"">BACKSPACE</button><button class = blank_button id = ""BlankButton"" onclick = ""blankResponse()"">SKIP</button><p style=""font-size: 2.4rem""><u><b>Current Answer:</b></u></p><br><br><div id=echoed_txt style=""font-size: 5rem; color:blue;""><b></b></div></div>",enter,ospan,retrieval,4fmsWGjJCMZRwx0RIoPdFcupPcw1,html-keyboard-response,61,511970,0.0-46.0-0.0-1.0-3.0,NA,NA,NA,2.0,"[""Q"",""Y""]","[""Q"",""Y""]",1.0,2.0,"['<font color=""green"">Q</font>', '<font color=""green"">Y</font>']",,,,,,65ff408b32980a820b6742c7,14:35:26,03/04/2024
1254.0,"['<p style=""font-size:44px"">Letters:<br><br><br><font color=""green"">Q</font> <font color=""green"">Y</font></p><br><br>']",0,ospan,practice_feedback,4fmsWGjJCMZRwx0RIoPdFcupPcw1,html-button-response,62,513725,0.0-46.0-0.0-1.0-4.0,,,,,,,,,,,,,,,65ff408b32980a820b6742c7,14:35:26,03/04/2024
,"<p style=""font-size:75px;"">...</p>",,ospan,iti,4fmsWGjJCMZRwx0RIoPdFcupPcw1,html-keyboard-response,63,514738,0.0-46.0-0.0-2.0-0.0,,,,,,,,,,,,,,,65ff408b32980a820b6742c7,14:35:26,03/04/2024
,"<div style=""font-size: 10rem; color: #0000FF"">L</div>",,ospan,letter,4fmsWGjJCMZRwx0RIoPdFcupPcw1,html-keyboard-response,64,515738,0.0-46.0-0.0-2.0-1.0,,,,,,,,,,,,,,,65ff408b32980a820b6742c7,14:35:26,03/04/2024
,"<div style=""font-size: 10rem; color: #0000FF"">K</div>",,ospan,letter,4fmsWGjJCMZRwx0RIoPdFcupPcw1,html-keyboard-response,65,517506,0.0-46.0-0.0-2.0-2.0,,,,,,,,,,,,,,,65ff408b32980a820b6742c7,14:35:26,03/04/2024
,"<div style=""font-size: 10rem; color: #0000FF"">C</div>",,ospan,letter,4fmsWGjJCMZRwx0RIoPdFcupPcw1,html-keyboard-response,66,519266,0.0-46.0-0.0-2.0-3.0,,,,,,,,,,,,,,,65ff408b32980a820b6742c7,14:35:26,03/04/2024
4460.0,"<div class = numbox><p style=""font-size: 2.4rem"">Please recall the letters you saw to the best of your ability. If you do not remember a particular letter, use the SKIP button.<br><b>(When you are ready to lock in your answer, press ENTER)</b></p><button id = button_1 class = ""square num-button"" onclick = ""recordClick(this)""><div class = content><div class = numbers>C</div></div></button><button id = button_2 class = ""square num-button"" onclick = ""recordClick(this)""><div class = content><div class = numbers>G</div></div></button><button id = button_3 class = ""square num-button"" onclick = ""recordClick(this)""><div class = content><div class = numbers>H</div></div></button><button id = button_4 class = ""square num-button"" onclick = ""recordClick(this)""><div class = content><div class = numbers>J</div></div></button><button id = button_5 class = ""square num-button"" onclick = ""recordClick(this)""><div class = content><div class = numbers>K</div></div></button><button id = button_6 class = ""square num-button"" onclick = ""recordClick(this)""><div class = content><div class = numbers>L</div></div></button><button id = button_7 class = ""square num-button"" onclick = ""recordClick(this)""><div class = content><div class = numbers>N</div></div></button><button id = button_8 class = ""square num-button"" onclick = ""recordClick(this)""><div class = content><div class = numbers>P</div></div></button><button id = button_9 class = ""square num-button"" onclick = ""recordClick(this)""><div class = content><div class = numbers>Q</div></div></button><button id = button_10 class = ""square num-button"" onclick = ""recordClick(this)""><div class = content><div class = numbers>R</div></div></button><button id = button_11 class = ""square num-button"" onclick = ""recordClick(this)""><div class = content><div class = numbers>S</div></div></button><button id = button_12 class = ""square num-button"" onclick = ""recordClick(this)""><div class = content><div class = numbers>Y</div></div></button><button class = clear_button id = ""ClearButton"" onclick = ""clearResponse()"">BACKSPACE</button><button class = blank_button id = ""BlankButton"" onclick = ""blankResponse()"">SKIP</button><p style=""font-size: 2.4rem""><u><b>Current Answer:</b></u></p><br><br><div id=echoed_txt style=""font-size: 5rem; color:blue;""><b></b></div></div>",enter,ospan,retrieval,4fmsWGjJCMZRwx0RIoPdFcupPcw1,html-keyboard-response,67,524483,0.0-46.0-0.0-2.0-4.0,NA,NA,NA,3.0,"[""L"",""K"",""C""]","[""L"",""K"",""C""]",1.0,3.0,"['<font color=""green"">L</font>', '<font color=""green"">K</font>', '<font color=""green"">C</font>']",,,,,,65ff408b32980a820b6742c7,14:35:26,03/04/2024
1151.0,"['<p style=""font-size:44px"">Letters:<br><br><br><font color=""green"">L</font> <font color=""green"">K</font> <font color=""green"">C</font></p><br><br>']",0,ospan,practice_feedback,4fmsWGjJCMZRwx0RIoPdFcupPcw1,html-button-response,68,526140,0.0-46.0-0.0-2.0-5.0,,,,,,,,,,,,,,,65ff408b32980a820b6742c7,14:35:26,03/04/2024
12200.0,"<div class = 'left_align' style='font-size: 3.25rem; line-height: 1.3;'>Now you will practice doing the <b>symmetry judgment part</b> of the experiment.<br><br>A black and white grid picture will appear on the screen and you have to judge if it is <br>symmetrical or asymetrical.<br><br>A picture is 'mirror' symmetrical if its left half is identical to the right half when flipped.<br>Here are examples of a symmetrical and an asymetrical picture:<br><br><center><img src='Stimuli/img/symm_instructions_extra.png' style='height:420px; width:900'></img></center><br>To judge symmetry, imagine you were to fold each picture down the middle, like a book –<br>would the left half match the right half when folded onto each other?<br><br></div><br>",0,ospan,instruct,4fmsWGjJCMZRwx0RIoPdFcupPcw1,html-button-response,69,538340,0.0-46.0-1.0-0.0-0.0,,,,,,,,,,,,,,,65ff408b32980a820b6742c7,14:35:26,03/04/2024
4787.0,"<div class = 'left_align' style='font-size: 3.25rem; line-height: 1.3;'>When you have viewed the picture and determined whether it is symmetrical or not,<br>you can <b>click the Yes or No button</b> below to answer.<br><br>If you take longer than 15 seconds, it will continue automatically<br>and record the answer as an error.</div><br>",0,ospan,instruct,4fmsWGjJCMZRwx0RIoPdFcupPcw1,html-button-response,70,543386,0.0-46.0-1.0-0.0-1.0,,,,,,,,,,,,,,,65ff408b32980a820b6742c7,14:35:26,03/04/2024
3117.0,"<div class = 'left_align' style='font-size: 3.25rem; line-height: 1.3;'>It is <b>very</b> important that you make the symmetry judgment correctly.<br><br>It is also important that you try and judge the picture as quickly as you can.<br><br>When you are ready, click on the button below to try some practice problems.</div><br><br><br><br>",0,ospan,instruct,4fmsWGjJCMZRwx0RIoPdFcupPcw1,html-button-response,71,546767,0.0-46.0-1.0-0.0-2.0,,,,,,,,,,,,,,,65ff408b32980a820b6742c7,14:35:26,03/04/2024
1684.0,,,ospan,symmetry,4fmsWGjJCMZRwx0RIoPdFcupPcw1,symmetry-judgement-task,72,549258,0.0-46.0-1.0-1.0-0.0,,,,,,,,,,1.0,1.0,,,,65ff408b32980a820b6742c7,14:35:26,03/04/2024
,"<p style=""color:green; font-size: 35px"">Correct</p>",,ospan,feedback,4fmsWGjJCMZRwx0RIoPdFcupPcw1,html-keyboard-response,73,550014,0.0-46.0-1.0-1.0-1.0,,,,,,,,,,,,,,,65ff408b32980a820b6742c7,14:35:26,03/04/2024
1654.0,,,ospan,symmetry,4fmsWGjJCMZRwx0RIoPdFcupPcw1,symmetry-judgement-task,74,554224,0.0-46.0-1.0-1.0-2.0,,,,,,,,,,1.0,1.0,,,,65ff408b32980a820b6742c7,14:35:26,03/04/2024
,"<p style=""color:green; font-size: 35px"">Correct</p>",,ospan,feedback,4fmsWGjJCMZRwx0RIoPdFcupPcw1,html-keyboard-response,75,554977,0.0-46.0-1.0-1.0-3.0,,,,,,,,,,,,,,,65ff408b32980a820b6742c7,14:35:26,03/04/2024
1319.0,,,ospan,symmetry,4fmsWGjJCMZRwx0RIoPdFcupPcw1,symmetry-judgement-task,76,558852,0.0-46.0-1.0-1.0-4.0,,,,,,,,,,1.0,1.0,,,,65ff408b32980a820b6742c7,14:35:26,03/04/2024
,"<p style=""color:green; font-size: 35px"">Correct</p>",,ospan,feedback,4fmsWGjJCMZRwx0RIoPdFcupPcw1,html-keyboard-response,77,559606,0.0-46.0-1.0-1.0-5.0,,,,,,,,,,,,,,,65ff408b32980a820b6742c7,14:35:26,03/04/2024
1615.0,"<p style=""font-size: 3rem;"">You responded correctly on 3 of 3 symmetry judgments. Good job!</p><br><br>",0,ospan,practice,4fmsWGjJCMZRwx0RIoPdFcupPcw1,html-button-response,78,563223,0.0-46.0-1.0-2.0,,,,,,,,,,,,,,,65ff408b32980a820b6742c7,14:35:26,03/04/2024
3420.0,"<div class = 'left_align' style='font-size: 3.25rem; line-height: 1.3;'>Now you will practice doing both parts of the experiment at the same time.<br><br>In the next practice set, you will be given one grid picture to judge.<br>Then letter will appear on the screen. Try to remember the letter.<br><br>It is <b>very important</b> to make the symmetry judgment as quickly and accurately as possible.<br><br>Just as before, once you have make the symmetry judgment, you can click Yes or No.<br><b>Note that you will no longer see Correct or Incorrect feedback.</div><br><br><br><br>",0,ospan,instruct,4fmsWGjJCMZRwx0RIoPdFcupPcw1,html-button-response,79,566907,0.0-46.0-2.0-0.0-0.0,,,,,,,,,,,,,,,65ff408b32980a820b6742c7,14:35:26,03/04/2024
4535.0,"<div class = 'left_align' style='font-size: 3.25rem; line-height: 1.3;'>After the letter goes away, another grid picture will appear, and then<br>another letter.<br><br>At the end of each set of letters and grids, you will recall the letters to the best<br>of your ability. Remember, try your best to get the letters in the correct order.<br><br>It is important to <b>quickly</b> and <b>accurately</b> make the symmetry judgments.</div><br><br><br><br>",0,ospan,instruct,4fmsWGjJCMZRwx0RIoPdFcupPcw1,html-button-response,80,571692,0.0-46.0-2.0-0.0-1.0,,,,,,,,,,,,,,,65ff408b32980a820b6742c7,14:35:26,03/04/2024
8265.0,"<div class = 'left_align' style='font-size: 3.25rem; line-height: 1.3;'>On the feedback screen, if you are not doing well at the symmetry judgments,<br>you will also see a warning in the middle. This indicates your percent <br>correct for the grid pictures for the entire experiment.<br><br>It is <b>very</b> important for you to keep accuracy at least at 85%: <u>We can only use<br>data where the participant was at least 85% accurate on the judgments.</u> Therefore,<br> please try your best to perform well on the symmetry judgments, <b>at the same time</b><br>doing your best to recall as many letters as possible.<br><br>Click the button to try some practice problems.</div><br><br><br><br>",0,ospan,instruct,4fmsWGjJCMZRwx0RIoPdFcupPcw1,html-button-response,81,580217,0.0-46.0-2.0-0.0-2.0,,,,,,,,,,,,,,,65ff408b32980a820b6742c7,14:35:26,03/04/2024
,"<p style=""font-size:75px;"">...</p>",,ospan,iti,4fmsWGjJCMZRwx0RIoPdFcupPcw1,html-keyboard-response,82,581484,0.0-46.0-2.0-1.0-0.0,,,,,,,,,,,,,,,65ff408b32980a820b6742c7,14:35:26,03/04/2024
1641.0,,,ospan,symmetry,4fmsWGjJCMZRwx0RIoPdFcupPcw1,symmetry-judgement-task,83,584171,0.0-46.0-2.0-1.0-1.0-0.0,,,,,,,,,,1.0,1.0,,,,65ff408b32980a820b6742c7,14:35:26,03/04/2024
,"<div style=""font-size: 10rem; color: #0000FF"">R</div>",,ospan,letter,4fmsWGjJCMZRwx0RIoPdFcupPcw1,html-keyboard-response,84,585174,0.0-46.0-2.0-1.0-1.0-1.0,,,,,,,,,,,,,,,65ff408b32980a820b6742c7,14:35:26,03/04/2024
1202.0,,,ospan,symmetry,4fmsWGjJCMZRwx0RIoPdFcupPcw1,symmetry-judgement-task,85,588181,0.0-46.0-2.0-1.0-1.0-2.0,,,,,,,,,,1.0,1.0,,,,65ff408b32980a820b6742c7,14:35:26,03/04/2024
,"<div style=""font-size: 10rem; color: #0000FF"">P</div>",,ospan,letter,4fmsWGjJCMZRwx0RIoPdFcupPcw1,html-keyboard-response,86,589214,0.0-46.0-2.0-1.0-1.0-3.0,,,,,,,,,,,,,,,65ff408b32980a820b6742c7,14:35:26,03/04/2024
1593.0,,,ospan,symmetry,4fmsWGjJCMZRwx0RIoPdFcupPcw1,symmetry-judgement-task,87,592610,0.0-46.0-2.0-1.0-1.0-4.0,,,,,,,,,,1.0,1.0,,,,65ff408b32980a820b6742c7,14:35:26,03/04/2024
,"<div style=""font-size: 10rem; color: #0000FF"">Q</div>",,ospan,letter,4fmsWGjJCMZRwx0RIoPdFcupPcw1,html-keyboard-response,88,593611,0.0-46.0-2.0-1.0-1.0-5.0,,,,,,,,,,,,,,,65ff408b32980a820b6742c7,14:35:26,03/04/2024
4031.0,"<div class = numbox><p style=""font-size: 2.4rem"">Please recall the letters you saw to the best of your ability. If you do not remember a particular letter, use the SKIP button.<br><b>(When you are ready to lock in your answer, press ENTER)</b></p><button id = button_1 class = ""square num-button"" onclick = ""recordClick(this)""><div class = content><div class = numbers>C</div></div></button><button id = button_2 class = ""square num-button"" onclick = ""recordClick(this)""><div class = content><div class = numbers>G</div></div></button><button id = button_3 class = ""square num-button"" onclick = ""recordClick(this)""><div class = content><div class = numbers>H</div></div></button><button id = button_4 class = ""square num-button"" onclick = ""recordClick(this)""><div class = content><div class = numbers>J</div></div></button><button id = button_5 class = ""square num-button"" onclick = ""recordClick(this)""><div class = content><div class = numbers>K</div></div></button><button id = button_6 class = ""square num-button"" onclick = ""recordClick(this)""><div class = content><div class = numbers>L</div></div></button><button id = button_7 class = ""square num-button"" onclick = ""recordClick(this)""><div class = content><div class = numbers>N</div></div></button><button id = button_8 class = ""square num-button"" onclick = ""recordClick(this)""><div class = content><div class = numbers>P</div></div></button><button id = button_9 class = ""square num-button"" onclick = ""recordClick(this)""><div class = content><div class = numbers>Q</div></div></button><button id = button_10 class = ""square num-button"" onclick = ""recordClick(this)""><div class = content><div class = numbers>R</div></div></button><button id = button_11 class = ""square num-button"" onclick = ""recordClick(this)""><div class = content><div class = numbers>S</div></div></button><button id = button_12 class = ""square num-button"" onclick = ""recordClick(this)""><div class = content><div class = numbers>Y</div></div></button><button class = clear_button id = ""ClearButton"" onclick = ""clearResponse()"">BACKSPACE</button><button class = blank_button id = ""BlankButton"" onclick = ""blankResponse()"">SKIP</button><p style=""font-size: 2.4rem""><u><b>Current Answer:</b></u></p><br><br><div id=echoed_txt style=""font-size: 5rem; color:blue;""><b></b></div></div>",enter,ospan,retrieval,4fmsWGjJCMZRwx0RIoPdFcupPcw1,html-keyboard-response,89,598399,0.0-46.0-2.0-1.0-2.0-0.0,NA,NA,NA,3.0,"[""R"",""P"",""Q""]","[""R"",""P"",""Q""]",1.0,3.0,"['<font color=""green"">R</font>', '<font color=""green"">P</font>', '<font color=""green"">Q</font>']",,,,,,65ff408b32980a820b6742c7,14:35:26,03/04/2024
1260.0,"['<p style=""font-size:44px"">Letters:<br><br><br><font color=""green"">R</font> <font color=""green"">P</font> <font color=""green"">Q</font></p><br><br><p style=""font-size:30px"">Symmetry:<br><br><font color=""green"">100%</font></p><br><br>']",0,ospan,practice_feedback,4fmsWGjJCMZRwx0RIoPdFcupPcw1,html-button-response,90,600167,0.0-46.0-2.0-1.0-2.0-1.0,,,,,,,,,,,,,,,65ff408b32980a820b6742c7,14:35:26,03/04/2024
,"<p style=""font-size:75px;"">...</p>",,ospan,iti,4fmsWGjJCMZRwx0RIoPdFcupPcw1,html-keyboard-response,91,601176,0.0-46.0-2.0-2.0-0.0,,,,,,,,,,,,,,,65ff408b32980a820b6742c7,14:35:26,03/04/2024
1229.0,,,ospan,symmetry,4fmsWGjJCMZRwx0RIoPdFcupPcw1,symmetry-judgement-task,92,603456,0.0-46.0-2.0-2.0-1.0-0.0,,,,,,,,,,1.0,1.0,,,,65ff408b32980a820b6742c7,14:35:26,03/04/2024
,"<div style=""font-size: 10rem; color: #0000FF"">S</div>",,ospan,letter,4fmsWGjJCMZRwx0RIoPdFcupPcw1,html-keyboard-response,93,604457,0.0-46.0-2.0-2.0-1.0-1.0,,,,,,,,,,,,,,,65ff408b32980a820b6742c7,14:35:26,03/04/2024
971.0,,,ospan,symmetry,4fmsWGjJCMZRwx0RIoPdFcupPcw1,symmetry-judgement-task,94,607235,0.0-46.0-2.0-2.0-1.0-2.0,,,,,,,,,,1.0,1.0,,,,65ff408b32980a820b6742c7,14:35:26,03/04/2024
,"<div style=""font-size: 10rem; color: #0000FF"">C</div>",,ospan,letter,4fmsWGjJCMZRwx0RIoPdFcupPcw1,html-keyboard-response,95,608237,0.0-46.0-2.0-2.0-1.0-3.0,,,,,,,,,,,,,,,65ff408b32980a820b6742c7,14:35:26,03/04/2024
1196.0,,,ospan,symmetry,4fmsWGjJCMZRwx0RIoPdFcupPcw1,symmetry-judgement-task,96,611242,0.0-46.0-2.0-2.0-1.0-4.0,,,,,,,,,,1.0,1.0,,,,65ff408b32980a820b6742c7,14:35:26,03/04/2024
,"<div style=""font-size: 10rem; color: #0000FF"">P</div>",,ospan,letter,4fmsWGjJCMZRwx0RIoPdFcupPcw1,html-keyboard-response,97,612259,0.0-46.0-2.0-2.0-1.0-5.0,,,,,,,,,,,,,,,65ff408b32980a820b6742c7,14:35:26,03/04/2024
6961.0,"<div class = numbox><p style=""font-size: 2.4rem"">Please recall the letters you saw to the best of your ability. If you do not remember a particular letter, use the SKIP button.<br><b>(When you are ready to lock in your answer, press ENTER)</b></p><button id = button_1 class = ""square num-button"" onclick = ""recordClick(this)""><div class = content><div class = numbers>C</div></div></button><button id = button_2 class = ""square num-button"" onclick = ""recordClick(this)""><div class = content><div class = numbers>G</div></div></button><button id = button_3 class = ""square num-button"" onclick = ""recordClick(this)""><div class = content><div class = numbers>H</div></div></button><button id = button_4 class = ""square num-button"" onclick = ""recordClick(this)""><div class = content><div class = numbers>J</div></div></button><button id = button_5 class = ""square num-button"" onclick = ""recordClick(this)""><div class = content><div class = numbers>K</div></div></button><button id = button_6 class = ""square num-button"" onclick = ""recordClick(this)""><div class = content><div class = numbers>L</div></div></button><button id = button_7 class = ""square num-button"" onclick = ""recordClick(this)""><div class = content><div class = numbers>N</div></div></button><button id = button_8 class = ""square num-button"" onclick = ""recordClick(this)""><div class = content><div class = numbers>P</div></div></button><button id = button_9 class = ""square num-button"" onclick = ""recordClick(this)""><div class = content><div class = numbers>Q</div></div></button><button id = button_10 class = ""square num-button"" onclick = ""recordClick(this)""><div class = content><div class = numbers>R</div></div></button><button id = button_11 class = ""square num-button"" onclick = ""recordClick(this)""><div class = content><div class = numbers>S</div></div></button><button id = button_12 class = ""square num-button"" onclick = ""recordClick(this)""><div class = content><div class = numbers>Y</div></div></button><button class = clear_button id = ""ClearButton"" onclick = ""clearResponse()"">BACKSPACE</button><button class = blank_button id = ""BlankButton"" onclick = ""blankResponse()"">SKIP</button><p style=""font-size: 2.4rem""><u><b>Current Answer:</b></u></p><br><br><div id=echoed_txt style=""font-size: 5rem; color:blue;""><b></b></div></div>",enter,ospan,retrieval,4fmsWGjJCMZRwx0RIoPdFcupPcw1,html-keyboard-response,98,619977,0.0-46.0-2.0-2.0-2.0-0.0,NA,NA,NA,3.0,"[""S"",""C"",""P""]","[""S"",""C"",""P""]",1.0,3.0,"['<font color=""green"">S</font>', '<font color=""green"">C</font>', '<font color=""green"">P</font>']",,,,,,65ff408b32980a820b6742c7,14:35:26,03/04/2024
1458.0,"['<p style=""font-size:44px"">Letters:<br><br><br><font color=""green"">S</font> <font color=""green"">C</font> <font color=""green"">P</font></p><br><br><p style=""font-size:30px"">Symmetry:<br><br><font color=""green"">100%</font></p><br><br>']",0,ospan,practice_feedback,4fmsWGjJCMZRwx0RIoPdFcupPcw1,html-button-response,99,621952,0.0-46.0-2.0-2.0-2.0-1.0,,,,,,,,,,,,,,,65ff408b32980a820b6742c7,14:35:26,03/04/2024
7497.0,"<div class = 'left_align' style='font-size: 3rem; line-height: 1.3;'><b>Great work! That is the end of practice.</b><br><br>The real trials will look just like the practice trials you just completed.<br><br><u>Here, you will not see feedback</u>. First, you will see an grid picture to judge,<br>then a letter to remember. When the recall screen appears, report the letters in the<br>order presented. If you forget a letter, remember to use the <b>blank</b> button to move to the<br>next letter. Some of the sets will have more symmetry grids and letters than others.<br><br>It is important that you do your best on both the symmetry judgments and the letter recall<br>parts of the experiment. For for the symmetry judgments, try to work as <b>quickly</b> and <br>as <b>accurately</b> as possible. Remember to keep your symmetry accuracy at 85% or above.<br><br><b>For the letters, do NOT use any external aid (e.g., writing on paper, electronic device).</b><br><br>It is <u>very important</u> to our experiment to have a <b>true</b> view of your real performance.<br><br>Do not worry if you miss some when it gets hard! This task is meant to be very challenging!<br><br>Click the button to begin.</div><br><br><br><br>",0,ospan,starting_real_here,4fmsWGjJCMZRwx0RIoPdFcupPcw1,html-button-response,100,629449,0.0-46.0-2.0-3.0,,,,,,,,,,,,,,,65ff408b32980a820b6742c7,14:35:26,03/04/2024
,"<p style=""font-size:75px;"">...</p>",,ospan,iti,4fmsWGjJCMZRwx0RIoPdFcupPcw1,html-keyboard-response,101,630707,0.0-46.0-3.0-0.0-0.0,,,,,,,,,,,,,,,65ff408b32980a820b6742c7,14:35:26,03/04/2024
1036.0,,,ospan,symmetry,4fmsWGjJCMZRwx0RIoPdFcupPcw1,symmetry-judgement-task,102,632823,0.0-46.0-3.0-0.0-1.0-0.0,,,,,,,,,,1.0,1.0,,,,65ff408b32980a820b6742c7,14:35:26,03/04/2024
,"<div style=""font-size: 10rem; color: #0000FF"">Y</div>",,ospan,letter,4fmsWGjJCMZRwx0RIoPdFcupPcw1,html-keyboard-response,103,633825,0.0-46.0-3.0-0.0-1.0-1.0,,,,,,,,,,,,,,,65ff408b32980a820b6742c7,14:35:26,03/04/2024
862.0,,,ospan,symmetry,4fmsWGjJCMZRwx0RIoPdFcupPcw1,symmetry-judgement-task,104,636493,0.0-46.0-3.0-0.0-1.0-2.0,,,,,,,,,,1.0,1.0,,,,65ff408b32980a820b6742c7,14:35:26,03/04/2024
,"<div style=""font-size: 10rem; color: #0000FF"">G</div>",,ospan,letter,4fmsWGjJCMZRwx0RIoPdFcupPcw1,html-keyboard-response,105,637510,0.0-46.0-3.0-0.0-1.0-3.0,,,,,,,,,,,,,,,65ff408b32980a820b6742c7,14:35:26,03/04/2024
1085.0,,,ospan,symmetry,4fmsWGjJCMZRwx0RIoPdFcupPcw1,symmetry-judgement-task,106,640394,0.0-46.0-3.0-0.0-1.0-4.0,,,,,,,,,,1.0,1.0,,,,65ff408b32980a820b6742c7,14:35:26,03/04/2024
,"<div style=""font-size: 10rem; color: #0000FF"">K</div>",,ospan,letter,4fmsWGjJCMZRwx0RIoPdFcupPcw1,html-keyboard-response,107,641414,0.0-46.0-3.0-0.0-1.0-5.0,,,,,,,,,,,,,,,65ff408b32980a820b6742c7,14:35:26,03/04/2024
4071.0,"<div class = numbox><p style=""font-size: 2.4rem"">Please recall the letters you saw to the best of your ability. If you do not remember a particular letter, use the SKIP button.<br><b>(When you are ready to lock in your answer, press ENTER)</b></p><button id = button_1 class = ""square num-button"" onclick = ""recordClick(this)""><div class = content><div class = numbers>C</div></div></button><button id = button_2 class = ""square num-button"" onclick = ""recordClick(this)""><div class = content><div class = numbers>G</div></div></button><button id = button_3 class = ""square num-button"" onclick = ""recordClick(this)""><div class = content><div class = numbers>H</div></div></button><button id = button_4 class = ""square num-button"" onclick = ""recordClick(this)""><div class = content><div class = numbers>J</div></div></button><button id = button_5 class = ""square num-button"" onclick = ""recordClick(this)""><div class = content><div class = numbers>K</div></div></button><button id = button_6 class = ""square num-button"" onclick = ""recordClick(this)""><div class = content><div class = numbers>L</div></div></button><button id = button_7 class = ""square num-button"" onclick = ""recordClick(this)""><div class = content><div class = numbers>N</div></div></button><button id = button_8 class = ""square num-button"" onclick = ""recordClick(this)""><div class = content><div class = numbers>P</div></div></button><button id = button_9 class = ""square num-button"" onclick = ""recordClick(this)""><div class = content><div class = numbers>Q</div></div></button><button id = button_10 class = ""square num-button"" onclick = ""recordClick(this)""><div class = content><div class = numbers>R</div></div></button><button id = button_11 class = ""square num-button"" onclick = ""recordClick(this)""><div class = content><div class = numbers>S</div></div></button><button id = button_12 class = ""square num-button"" onclick = ""recordClick(this)""><div class = content><div class = numbers>Y</div></div></button><button class = clear_button id = ""ClearButton"" onclick = ""clearResponse()"">BACKSPACE</button><button class = blank_button id = ""BlankButton"" onclick = ""blankResponse()"">SKIP</button><p style=""font-size: 2.4rem""><u><b>Current Answer:</b></u></p><br><br><div id=echoed_txt style=""font-size: 5rem; color:blue;""><b></b></div></div>",enter,ospan,retrieval,4fmsWGjJCMZRwx0RIoPdFcupPcw1,html-keyboard-response,108,646240,0.0-46.0-3.0-0.0-2.0,3,3,3,3.0,"[""Y"",""G"",""K""]","[""Y"",""G"",""K""]",1.0,3.0,,,,,,,65ff408b32980a820b6742c7,14:35:26,03/04/2024
783.0,[''],0,ospan,feedback,4fmsWGjJCMZRwx0RIoPdFcupPcw1,html-button-response,109,647533,0.0-46.0-3.0-0.0-3.0,,,,,,,,,,,,100.0,0.0,,65ff408b32980a820b6742c7,14:35:26,03/04/2024
,"<p style=""font-size:75px;"">...</p>",,ospan,iti,4fmsWGjJCMZRwx0RIoPdFcupPcw1,html-keyboard-response,110,648541,0.0-46.0-4.0-0.0-0.0,,,,,,,,,,,,,,,65ff408b32980a820b6742c7,14:35:26,03/04/2024
1197.0,,,ospan,symmetry,4fmsWGjJCMZRwx0RIoPdFcupPcw1,symmetry-judgement-task,111,650795,0.0-46.0-4.0-0.0-1.0-0.0,,,,,,,,,,1.0,1.0,,,,65ff408b32980a820b6742c7,14:35:26,03/04/2024
,"<div style=""font-size: 10rem; color: #0000FF"">K</div>",,ospan,letter,4fmsWGjJCMZRwx0RIoPdFcupPcw1,html-keyboard-response,112,651811,0.0-46.0-4.0-0.0-1.0-1.0,,,,,,,,,,,,,,,65ff408b32980a820b6742c7,14:35:26,03/04/2024
1249.0,,,ospan,symmetry,4fmsWGjJCMZRwx0RIoPdFcupPcw1,symmetry-judgement-task,113,654882,0.0-46.0-4.0-0.0-1.0-2.0,,,,,,,,,,1.0,1.0,,,,65ff408b32980a820b6742c7,14:35:26,03/04/2024
,"<div style=""font-size: 10rem; color: #0000FF"">S</div>",,ospan,letter,4fmsWGjJCMZRwx0RIoPdFcupPcw1,html-keyboard-response,114,655887,0.0-46.0-4.0-0.0-1.0-3.0,,,,,,,,,,,,,,,65ff408b32980a820b6742c7,14:35:26,03/04/2024
1054.0,,,ospan,symmetry,4fmsWGjJCMZRwx0RIoPdFcupPcw1,symmetry-judgement-task,115,658755,0.0-46.0-4.0-0.0-1.0-4.0,,,,,,,,,,1.0,1.0,,,,65ff408b32980a820b6742c7,14:35:26,03/04/2024
,"<div style=""font-size: 10rem; color: #0000FF"">G</div>",,ospan,letter,4fmsWGjJCMZRwx0RIoPdFcupPcw1,html-keyboard-response,116,659770,0.0-46.0-4.0-0.0-1.0-5.0,,,,,,,,,,,,,,,65ff408b32980a820b6742c7,14:35:26,03/04/2024
999.0,,,ospan,symmetry,4fmsWGjJCMZRwx0RIoPdFcupPcw1,symmetry-judgement-task,117,662578,0.0-46.0-4.0-0.0-1.0-6.0,,,,,,,,,,1.0,1.0,,,,65ff408b32980a820b6742c7,14:35:26,03/04/2024
,"<div style=""font-size: 10rem; color: #0000FF"">C</div>",,ospan,letter,4fmsWGjJCMZRwx0RIoPdFcupPcw1,html-keyboard-response,118,663594,0.0-46.0-4.0-0.0-1.0-7.0,,,,,,,,,,,,,,,65ff408b32980a820b6742c7,14:35:26,03/04/2024
5016.0,"<div class = numbox><p style=""font-size: 2.4rem"">Please recall the letters you saw to the best of your ability. If you do not remember a particular letter, use the SKIP button.<br><b>(When you are ready to lock in your answer, press ENTER)</b></p><button id = button_1 class = ""square num-button"" onclick = ""recordClick(this)""><div class = content><div class = numbers>C</div></div></button><button id = button_2 class = ""square num-button"" onclick = ""recordClick(this)""><div class = content><div class = numbers>G</div></div></button><button id = button_3 class = ""square num-button"" onclick = ""recordClick(this)""><div class = content><div class = numbers>H</div></div></button><button id = button_4 class = ""square num-button"" onclick = ""recordClick(this)""><div class = content><div class = numbers>J</div></div></button><button id = button_5 class = ""square num-button"" onclick = ""recordClick(this)""><div class = content><div class = numbers>K</div></div></button><button id = button_6 class = ""square num-button"" onclick = ""recordClick(this)""><div class = content><div class = numbers>L</div></div></button><button id = button_7 class = ""square num-button"" onclick = ""recordClick(this)""><div class = content><div class = numbers>N</div></div></button><button id = button_8 class = ""square num-button"" onclick = ""recordClick(this)""><div class = content><div class = numbers>P</div></div></button><button id = button_9 class = ""square num-button"" onclick = ""recordClick(this)""><div class = content><div class = numbers>Q</div></div></button><button id = button_10 class = ""square num-button"" onclick = ""recordClick(this)""><div class = content><div class = numbers>R</div></div></button><button id = button_11 class = ""square num-button"" onclick = ""recordClick(this)""><div class = content><div class = numbers>S</div></div></button><button id = button_12 class = ""square num-button"" onclick = ""recordClick(this)""><div class = content><div class = numbers>Y</div></div></button><button class = clear_button id = ""ClearButton"" onclick = ""clearResponse()"">BACKSPACE</button><button class = blank_button id = ""BlankButton"" onclick = ""blankResponse()"">SKIP</button><p style=""font-size: 2.4rem""><u><b>Current Answer:</b></u></p><br><br><div id=echoed_txt style=""font-size: 5rem; color:blue;""><b></b></div></div>",enter,ospan,retrieval,4fmsWGjJCMZRwx0RIoPdFcupPcw1,html-keyboard-response,119,669365,0.0-46.0-4.0-0.0-2.0,7,7,7,4.0,"[""K"",""S"",""G"",""C""]","[""K"",""S"",""G"",""C""]",1.0,4.0,,,,,,,65ff408b32980a820b6742c7,14:35:26,03/04/2024
567.0,[''],0,ospan,feedback,4fmsWGjJCMZRwx0RIoPdFcupPcw1,html-button-response,120,670441,0.0-46.0-4.0-0.0-3.0,,,,,,,,,,,,100.0,0.0,,65ff408b32980a820b6742c7,14:35:26,03/04/2024
,"<p style=""font-size:75px;"">...</p>",,ospan,iti,4fmsWGjJCMZRwx0RIoPdFcupPcw1,html-keyboard-response,121,671462,0.0-46.0-4.0-1.0-0.0,,,,,,,,,,,,,,,65ff408b32980a820b6742c7,14:35:26,03/04/2024
992.0,,,ospan,symmetry,4fmsWGjJCMZRwx0RIoPdFcupPcw1,symmetry-judgement-task,122,673511,0.0-46.0-4.0-1.0-1.0-0.0,,,,,,,,,,1.0,1.0,,,,65ff408b32980a820b6742c7,14:35:26,03/04/2024
,"<div style=""font-size: 10rem; color: #0000FF"">H</div>",,ospan,letter,4fmsWGjJCMZRwx0RIoPdFcupPcw1,html-keyboard-response,123,674529,0.0-46.0-4.0-1.0-1.0-1.0,,,,,,,,,,,,,,,65ff408b32980a820b6742c7,14:35:26,03/04/2024
979.0,,,ospan,symmetry,4fmsWGjJCMZRwx0RIoPdFcupPcw1,symmetry-judgement-task,124,677321,0.0-46.0-4.0-1.0-1.0-2.0,,,,,,,,,,1.0,1.0,,,,65ff408b32980a820b6742c7,14:35:26,03/04/2024
,"<div style=""font-size: 10rem; color: #0000FF"">P</div>",,ospan,letter,4fmsWGjJCMZRwx0RIoPdFcupPcw1,html-keyboard-response,125,678324,0.0-46.0-4.0-1.0-1.0-3.0,,,,,,,,,,,,,,,65ff408b32980a820b6742c7,14:35:26,03/04/2024
977.0,,,ospan,symmetry,4fmsWGjJCMZRwx0RIoPdFcupPcw1,symmetry-judgement-task,126,681115,0.0-46.0-4.0-1.0-1.0-4.0,,,,,,,,,,1.0,1.0,,,,65ff408b32980a820b6742c7,14:35:26,03/04/2024
,"<div style=""font-size: 10rem; color: #0000FF"">R</div>",,ospan,letter,4fmsWGjJCMZRwx0RIoPdFcupPcw1,html-keyboard-response,127,682118,0.0-46.0-4.0-1.0-1.0-5.0,,,,,,,,,,,,,,,65ff408b32980a820b6742c7,14:35:26,03/04/2024
1054.0,,,ospan,symmetry,4fmsWGjJCMZRwx0RIoPdFcupPcw1,symmetry-judgement-task,128,684975,0.0-46.0-4.0-1.0-1.0-6.0,,,,,,,,,,1.0,1.0,,,,65ff408b32980a820b6742c7,14:35:26,03/04/2024
,"<div style=""font-size: 10rem; color: #0000FF"">N</div>",,ospan,letter,4fmsWGjJCMZRwx0RIoPdFcupPcw1,html-keyboard-response,129,685976,0.0-46.0-4.0-1.0-1.0-7.0,,,,,,,,,,,,,,,65ff408b32980a820b6742c7,14:35:26,03/04/2024
1823.0,,,ospan,symmetry,4fmsWGjJCMZRwx0RIoPdFcupPcw1,symmetry-judgement-task,130,689648,0.0-46.0-4.0-1.0-1.0-8.0,,,,,,,,,,1.0,1.0,,,,65ff408b32980a820b6742c7,14:35:26,03/04/2024
,"<div style=""font-size: 10rem; color: #0000FF"">L</div>",,ospan,letter,4fmsWGjJCMZRwx0RIoPdFcupPcw1,html-keyboard-response,131,690651,0.0-46.0-4.0-1.0-1.0-9.0,,,,,,,,,,,,,,,65ff408b32980a820b6742c7,14:35:26,03/04/2024
5325.0,"<div class = numbox><p style=""font-size: 2.4rem"">Please recall the letters you saw to the best of your ability. If you do not remember a particular letter, use the SKIP button.<br><b>(When you are ready to lock in your answer, press ENTER)</b></p><button id = button_1 class = ""square num-button"" onclick = ""recordClick(this)""><div class = content><div class = numbers>C</div></div></button><button id = button_2 class = ""square num-button"" onclick = ""recordClick(this)""><div class = content><div class = numbers>G</div></div></button><button id = button_3 class = ""square num-button"" onclick = ""recordClick(this)""><div class = content><div class = numbers>H</div></div></button><button id = button_4 class = ""square num-button"" onclick = ""recordClick(this)""><div class = content><div class = numbers>J</div></div></button><button id = button_5 class = ""square num-button"" onclick = ""recordClick(this)""><div class = content><div class = numbers>K</div></div></button><button id = button_6 class = ""square num-button"" onclick = ""recordClick(this)""><div class = content><div class = numbers>L</div></div></button><button id = button_7 class = ""square num-button"" onclick = ""recordClick(this)""><div class = content><div class = numbers>N</div></div></button><button id = button_8 class = ""square num-button"" onclick = ""recordClick(this)""><div class = content><div class = numbers>P</div></div></button><button id = button_9 class = ""square num-button"" onclick = ""recordClick(this)""><div class = content><div class = numbers>Q</div></div></button><button id = button_10 class = ""square num-button"" onclick = ""recordClick(this)""><div class = content><div class = numbers>R</div></div></button><button id = button_11 class = ""square num-button"" onclick = ""recordClick(this)""><div class = content><div class = numbers>S</div></div></button><button id = button_12 class = ""square num-button"" onclick = ""recordClick(this)""><div class = content><div class = numbers>Y</div></div></button><button class = clear_button id = ""ClearButton"" onclick = ""clearResponse()"">BACKSPACE</button><button class = blank_button id = ""BlankButton"" onclick = ""blankResponse()"">SKIP</button><p style=""font-size: 2.4rem""><u><b>Current Answer:</b></u></p><br><br><div id=echoed_txt style=""font-size: 5rem; color:blue;""><b></b></div></div>",enter,ospan,retrieval,4fmsWGjJCMZRwx0RIoPdFcupPcw1,html-keyboard-response,132,696733,0.0-46.0-4.0-1.0-2.0,12,12,12,5.0,"[""H"",""P"",""R"",""N"",""L""]","[""H"",""P"",""R"",""N"",""L""]",1.0,5.0,,,,,,,65ff408b32980a820b6742c7,14:35:26,03/04/2024
905.0,[''],0,ospan,feedback,4fmsWGjJCMZRwx0RIoPdFcupPcw1,html-button-response,133,698144,0.0-46.0-4.0-1.0-3.0,,,,,,,,,,,,100.0,0.0,,65ff408b32980a820b6742c7,14:35:26,03/04/2024
,"<p style=""font-size:75px;"">...</p>",,ospan,iti,4fmsWGjJCMZRwx0RIoPdFcupPcw1,html-keyboard-response,134,699147,0.0-46.0-4.0-2.0-0.0,,,,,,,,,,,,,,,65ff408b32980a820b6742c7,14:35:26,03/04/2024
1433.0,,,ospan,symmetry,4fmsWGjJCMZRwx0RIoPdFcupPcw1,symmetry-judgement-task,135,701629,0.0-46.0-4.0-2.0-1.0-0.0,,,,,,,,,,1.0,1.0,,,,65ff408b32980a820b6742c7,14:35:26,03/04/2024
,"<div style=""font-size: 10rem; color: #0000FF"">G</div>",,ospan,letter,4fmsWGjJCMZRwx0RIoPdFcupPcw1,html-keyboard-response,136,702631,0.0-46.0-4.0-2.0-1.0-1.0,,,,,,,,,,,,,,,65ff408b32980a820b6742c7,14:35:26,03/04/2024
1194.0,,,ospan,symmetry,4fmsWGjJCMZRwx0RIoPdFcupPcw1,symmetry-judgement-task,137,705628,0.0-46.0-4.0-2.0-1.0-2.0,,,,,,,,,,1.0,1.0,,,,65ff408b32980a820b6742c7,14:35:26,03/04/2024
,"<div style=""font-size: 10rem; color: #0000FF"">K</div>",,ospan,letter,4fmsWGjJCMZRwx0RIoPdFcupPcw1,html-keyboard-response,138,706643,0.0-46.0-4.0-2.0-1.0-3.0,,,,,,,,,,,,,,,65ff408b32980a820b6742c7,14:35:26,03/04/2024
1344.0,,,ospan,symmetry,4fmsWGjJCMZRwx0RIoPdFcupPcw1,symmetry-judgement-task,139,709789,0.0-46.0-4.0-2.0-1.0-4.0,,,,,,,,,,1.0,1.0,,,,65ff408b32980a820b6742c7,14:35:26,03/04/2024
,"<div style=""font-size: 10rem; color: #0000FF"">P</div>",,ospan,letter,4fmsWGjJCMZRwx0RIoPdFcupPcw1,html-keyboard-response,140,710789,0.0-46.0-4.0-2.0-1.0-5.0,,,,,,,,,,,,,,,65ff408b32980a820b6742c7,14:35:26,03/04/2024
3336.0,"<div class = numbox><p style=""font-size: 2.4rem"">Please recall the letters you saw to the best of your ability. If you do not remember a particular letter, use the SKIP button.<br><b>(When you are ready to lock in your answer, press ENTER)</b></p><button id = button_1 class = ""square num-button"" onclick = ""recordClick(this)""><div class = content><div class = numbers>C</div></div></button><button id = button_2 class = ""square num-button"" onclick = ""recordClick(this)""><div class = content><div class = numbers>G</div></div></button><button id = button_3 class = ""square num-button"" onclick = ""recordClick(this)""><div class = content><div class = numbers>H</div></div></button><button id = button_4 class = ""square num-button"" onclick = ""recordClick(this)""><div class = content><div class = numbers>J</div></div></button><button id = button_5 class = ""square num-button"" onclick = ""recordClick(this)""><div class = content><div class = numbers>K</div></div></button><button id = button_6 class = ""square num-button"" onclick = ""recordClick(this)""><div class = content><div class = numbers>L</div></div></button><button id = button_7 class = ""square num-button"" onclick = ""recordClick(this)""><div class = content><div class = numbers>N</div></div></button><button id = button_8 class = ""square num-button"" onclick = ""recordClick(this)""><div class = content><div class = numbers>P</div></div></button><button id = button_9 class = ""square num-button"" onclick = ""recordClick(this)""><div class = content><div class = numbers>Q</div></div></button><button id = button_10 class = ""square num-button"" onclick = ""recordClick(this)""><div class = content><div class = numbers>R</div></div></button><button id = button_11 class = ""square num-button"" onclick = ""recordClick(this)""><div class = content><div class = numbers>S</div></div></button><button id = button_12 class = ""square num-button"" onclick = ""recordClick(this)""><div class = content><div class = numbers>Y</div></div></button><button class = clear_button id = ""ClearButton"" onclick = ""clearResponse()"">BACKSPACE</button><button class = blank_button id = ""BlankButton"" onclick = ""blankResponse()"">SKIP</button><p style=""font-size: 2.4rem""><u><b>Current Answer:</b></u></p><br><br><div id=echoed_txt style=""font-size: 5rem; color:blue;""><b></b></div></div>",enter,ospan,retrieval,4fmsWGjJCMZRwx0RIoPdFcupPcw1,html-keyboard-response,141,714898,0.0-46.0-4.0-2.0-2.0,15,15,15,3.0,"[""G"",""K"",""P""]","[""G"",""K"",""P""]",1.0,3.0,,,,,,,65ff408b32980a820b6742c7,14:35:26,03/04/2024
598.0,[''],0,ospan,feedback,4fmsWGjJCMZRwx0RIoPdFcupPcw1,html-button-response,142,716002,0.0-46.0-4.0-2.0-3.0,,,,,,,,,,,,100.0,0.0,,65ff408b32980a820b6742c7,14:35:26,03/04/2024
,"<p style=""font-size:75px;"">...</p>",,ospan,iti,4fmsWGjJCMZRwx0RIoPdFcupPcw1,html-keyboard-response,143,717008,0.0-46.0-5.0-0.0-0.0,,,,,,,,,,,,,,,65ff408b32980a820b6742c7,14:35:26,03/04/2024
1533.0,,,ospan,symmetry,4fmsWGjJCMZRwx0RIoPdFcupPcw1,symmetry-judgement-task,144,719615,0.0-46.0-5.0-0.0-1.0-0.0,,,,,,,,,,1.0,1.0,,,,65ff408b32980a820b6742c7,14:35:26,03/04/2024
,"<div style=""font-size: 10rem; color: #0000FF"">K</div>",,ospan,letter,4fmsWGjJCMZRwx0RIoPdFcupPcw1,html-keyboard-response,145,720678,0.0-46.0-5.0-0.0-1.0-1.0,,,,,,,,,,,,,,,65ff408b32980a820b6742c7,14:35:26,03/04/2024
901.0,,,ospan,symmetry,4fmsWGjJCMZRwx0RIoPdFcupPcw1,symmetry-judgement-task,146,723379,0.0-46.0-5.0-0.0-1.0-2.0,,,,,,,,,,1.0,1.0,,,,65ff408b32980a820b6742c7,14:35:26,03/04/2024
,"<div style=""font-size: 10rem; color: #0000FF"">S</div>",,ospan,letter,4fmsWGjJCMZRwx0RIoPdFcupPcw1,html-keyboard-response,147,724381,0.0-46.0-5.0-0.0-1.0-3.0,,,,,,,,,,,,,,,65ff408b32980a820b6742c7,14:35:26,03/04/2024
918.0,,,ospan,symmetry,4fmsWGjJCMZRwx0RIoPdFcupPcw1,symmetry-judgement-task,148,727108,0.0-46.0-5.0-0.0-1.0-4.0,,,,,,,,,,1.0,1.0,,,,65ff408b32980a820b6742c7,14:35:26,03/04/2024
,"<div style=""font-size: 10rem; color: #0000FF"">Y</div>",,ospan,letter,4fmsWGjJCMZRwx0RIoPdFcupPcw1,html-keyboard-response,149,728127,0.0-46.0-5.0-0.0-1.0-5.0,,,,,,,,,,,,,,,65ff408b32980a820b6742c7,14:35:26,03/04/2024
952.0,,,ospan,symmetry,4fmsWGjJCMZRwx0RIoPdFcupPcw1,symmetry-judgement-task,150,730891,0.0-46.0-5.0-0.0-1.0-6.0,,,,,,,,,,1.0,1.0,,,,65ff408b32980a820b6742c7,14:35:26,03/04/2024
,"<div style=""font-size: 10rem; color: #0000FF"">P</div>",,ospan,letter,4fmsWGjJCMZRwx0RIoPdFcupPcw1,html-keyboard-response,151,731894,0.0-46.0-5.0-0.0-1.0-7.0,,,,,,,,,,,,,,,65ff408b32980a820b6742c7,14:35:26,03/04/2024
1394.0,,,ospan,symmetry,4fmsWGjJCMZRwx0RIoPdFcupPcw1,symmetry-judgement-task,152,735135,0.0-46.0-5.0-0.0-1.0-8.0,,,,,,,,,,1.0,1.0,,,,65ff408b32980a820b6742c7,14:35:26,03/04/2024
,"<div style=""font-size: 10rem; color: #0000FF"">Q</div>",,ospan,letter,4fmsWGjJCMZRwx0RIoPdFcupPcw1,html-keyboard-response,153,736136,0.0-46.0-5.0-0.0-1.0-9.0,,,,,,,,,,,,,,,65ff408b32980a820b6742c7,14:35:26,03/04/2024
1454.0,,,ospan,symmetry,4fmsWGjJCMZRwx0RIoPdFcupPcw1,symmetry-judgement-task,154,739452,0.0-46.0-5.0-0.0-1.0-10.0,,,,,,,,,,1.0,1.0,,,,65ff408b32980a820b6742c7,14:35:26,03/04/2024
,"<div style=""font-size: 10rem; color: #0000FF"">C</div>",,ospan,letter,4fmsWGjJCMZRwx0RIoPdFcupPcw1,html-keyboard-response,155,740454,0.0-46.0-5.0-0.0-1.0-11.0,,,,,,,,,,,,,,,65ff408b32980a820b6742c7,14:35:26,03/04/2024
6071.0,"<div class = numbox><p style=""font-size: 2.4rem"">Please recall the letters you saw to the best of your ability. If you do not remember a particular letter, use the SKIP button.<br><b>(When you are ready to lock in your answer, press ENTER)</b></p><button id = button_1 class = ""square num-button"" onclick = ""recordClick(this)""><div class = content><div class = numbers>C</div></div></button><button id = button_2 class = ""square num-button"" onclick = ""recordClick(this)""><div class = content><div class = numbers>G</div></div></button><button id = button_3 class = ""square num-button"" onclick = ""recordClick(this)""><div class = content><div class = numbers>H</div></div></button><button id = button_4 class = ""square num-button"" onclick = ""recordClick(this)""><div class = content><div class = numbers>J</div></div></button><button id = button_5 class = ""square num-button"" onclick = ""recordClick(this)""><div class = content><div class = numbers>K</div></div></button><button id = button_6 class = ""square num-button"" onclick = ""recordClick(this)""><div class = content><div class = numbers>L</div></div></button><button id = button_7 class = ""square num-button"" onclick = ""recordClick(this)""><div class = content><div class = numbers>N</div></div></button><button id = button_8 class = ""square num-button"" onclick = ""recordClick(this)""><div class = content><div class = numbers>P</div></div></button><button id = button_9 class = ""square num-button"" onclick = ""recordClick(this)""><div class = content><div class = numbers>Q</div></div></button><button id = button_10 class = ""square num-button"" onclick = ""recordClick(this)""><div class = content><div class = numbers>R</div></div></button><button id = button_11 class = ""square num-button"" onclick = ""recordClick(this)""><div class = content><div class = numbers>S</div></div></button><button id = button_12 class = ""square num-button"" onclick = ""recordClick(this)""><div class = content><div class = numbers>Y</div></div></button><button class = clear_button id = ""ClearButton"" onclick = ""clearResponse()"">BACKSPACE</button><button class = blank_button id = ""BlankButton"" onclick = ""blankResponse()"">SKIP</button><p style=""font-size: 2.4rem""><u><b>Current Answer:</b></u></p><br><br><div id=echoed_txt style=""font-size: 5rem; color:blue;""><b></b></div></div>",enter,ospan,retrieval,4fmsWGjJCMZRwx0RIoPdFcupPcw1,html-keyboard-response,156,747282,0.0-46.0-5.0-0.0-2.0,21,21,21,6.0,"[""K"",""S"",""Y"",""P"",""Q"",""C""]","[""K"",""S"",""Y"",""P"",""Q"",""C""]",1.0,6.0,,,,,,,65ff408b32980a820b6742c7,14:35:26,03/04/2024
4150.0,[''],0,ospan,feedback,4fmsWGjJCMZRwx0RIoPdFcupPcw1,html-button-response,157,751933,0.0-46.0-5.0-0.0-3.0,,,,,,,,,,,,100.0,0.0,,65ff408b32980a820b6742c7,14:35:26,03/04/2024
,"<p style=""font-size:75px;"">...</p>",,ospan,iti,4fmsWGjJCMZRwx0RIoPdFcupPcw1,html-keyboard-response,158,752945,0.0-46.0-5.0-1.0-0.0,,,,,,,,,,,,,,,65ff408b32980a820b6742c7,14:35:26,03/04/2024
3584.0,,,ospan,symmetry,4fmsWGjJCMZRwx0RIoPdFcupPcw1,symmetry-judgement-task,159,757584,0.0-46.0-5.0-1.0-1.0-0.0,,,,,,,,,,1.0,1.0,,,,65ff408b32980a820b6742c7,14:35:26,03/04/2024
,"<div style=""font-size: 10rem; color: #0000FF"">P</div>",,ospan,letter,4fmsWGjJCMZRwx0RIoPdFcupPcw1,html-keyboard-response,160,758585,0.0-46.0-5.0-1.0-1.0-1.0,,,,,,,,,,,,,,,65ff408b32980a820b6742c7,14:35:26,03/04/2024
1408.0,,,ospan,symmetry,4fmsWGjJCMZRwx0RIoPdFcupPcw1,symmetry-judgement-task,161,761809,0.0-46.0-5.0-1.0-1.0-2.0,,,,,,,,,,1.0,1.0,,,,65ff408b32980a820b6742c7,14:35:26,03/04/2024
,"<div style=""font-size: 10rem; color: #0000FF"">K</div>",,ospan,letter,4fmsWGjJCMZRwx0RIoPdFcupPcw1,html-keyboard-response,162,762810,0.0-46.0-5.0-1.0-1.0-3.0,,,,,,,,,,,,,,,65ff408b32980a820b6742c7,14:35:26,03/04/2024
2548.0,,,ospan,symmetry,4fmsWGjJCMZRwx0RIoPdFcupPcw1,symmetry-judgement-task,163,767161,0.0-46.0-5.0-1.0-1.0-4.0,,,,,,,,,,1.0,1.0,,,,65ff408b32980a820b6742c7,14:35:26,03/04/2024
,"<div style=""font-size: 10rem; color: #0000FF"">N</div>",,ospan,letter,4fmsWGjJCMZRwx0RIoPdFcupPcw1,html-keyboard-response,164,768193,0.0-46.0-5.0-1.0-1.0-5.0,,,,,,,,,,,,,,,65ff408b32980a820b6742c7,14:35:26,03/04/2024
1201.0,,,ospan,symmetry,4fmsWGjJCMZRwx0RIoPdFcupPcw1,symmetry-judgement-task,165,771201,0.0-46.0-5.0-1.0-1.0-6.0,,,,,,,,,,1.0,1.0,,,,65ff408b32980a820b6742c7,14:35:26,03/04/2024
,"<div style=""font-size: 10rem; color: #0000FF"">R</div>",,ospan,letter,4fmsWGjJCMZRwx0RIoPdFcupPcw1,html-keyboard-response,166,772216,0.0-46.0-5.0-1.0-1.0-7.0,,,,,,,,,,,,,,,65ff408b32980a820b6742c7,14:35:26,03/04/2024
1182.0,,,ospan,symmetry,4fmsWGjJCMZRwx0RIoPdFcupPcw1,symmetry-judgement-task,167,775208,0.0-46.0-5.0-1.0-1.0-8.0,,,,,,,,,,1.0,1.0,,,,65ff408b32980a820b6742c7,14:35:26,03/04/2024
,"<div style=""font-size: 10rem; color: #0000FF"">J</div>",,ospan,letter,4fmsWGjJCMZRwx0RIoPdFcupPcw1,html-keyboard-response,168,776209,0.0-46.0-5.0-1.0-1.0-9.0,,,,,,,,,,,,,,,65ff408b32980a820b6742c7,14:35:26,03/04/2024
2348.0,,,ospan,symmetry,4fmsWGjJCMZRwx0RIoPdFcupPcw1,symmetry-judgement-task,169,780361,0.0-46.0-5.0-1.0-1.0-10.0,,,,,,,,,,1.0,1.0,,,,65ff408b32980a820b6742c7,14:35:26,03/04/2024
,"<div style=""font-size: 10rem; color: #0000FF"">L</div>",,ospan,letter,4fmsWGjJCMZRwx0RIoPdFcupPcw1,html-keyboard-response,170,781365,0.0-46.0-5.0-1.0-1.0-11.0,,,,,,,,,,,,,,,65ff408b32980a820b6742c7,14:35:26,03/04/2024
1285.0,,,ospan,symmetry,4fmsWGjJCMZRwx0RIoPdFcupPcw1,symmetry-judgement-task,171,784452,0.0-46.0-5.0-1.0-1.0-12.0,,,,,,,,,,1.0,1.0,,,,65ff408b32980a820b6742c7,14:35:26,03/04/2024
,"<div style=""font-size: 10rem; color: #0000FF"">H</div>",,ospan,letter,4fmsWGjJCMZRwx0RIoPdFcupPcw1,html-keyboard-response,172,785468,0.0-46.0-5.0-1.0-1.0-13.0,,,,,,,,,,,,,,,65ff408b32980a820b6742c7,14:35:26,03/04/2024
12956.0,"<div class = numbox><p style=""font-size: 2.4rem"">Please recall the letters you saw to the best of your ability. If you do not remember a particular letter, use the SKIP button.<br><b>(When you are ready to lock in your answer, press ENTER)</b></p><button id = button_1 class = ""square num-button"" onclick = ""recordClick(this)""><div class = content><div class = numbers>C</div></div></button><button id = button_2 class = ""square num-button"" onclick = ""recordClick(this)""><div class = content><div class = numbers>G</div></div></button><button id = button_3 class = ""square num-button"" onclick = ""recordClick(this)""><div class = content><div class = numbers>H</div></div></button><button id = button_4 class = ""square num-button"" onclick = ""recordClick(this)""><div class = content><div class = numbers>J</div></div></button><button id = button_5 class = ""square num-button"" onclick = ""recordClick(this)""><div class = content><div class = numbers>K</div></div></button><button id = button_6 class = ""square num-button"" onclick = ""recordClick(this)""><div class = content><div class = numbers>L</div></div></button><button id = button_7 class = ""square num-button"" onclick = ""recordClick(this)""><div class = content><div class = numbers>N</div></div></button><button id = button_8 class = ""square num-button"" onclick = ""recordClick(this)""><div class = content><div class = numbers>P</div></div></button><button id = button_9 class = ""square num-button"" onclick = ""recordClick(this)""><div class = content><div class = numbers>Q</div></div></button><button id = button_10 class = ""square num-button"" onclick = ""recordClick(this)""><div class = content><div class = numbers>R</div></div></button><button id = button_11 class = ""square num-button"" onclick = ""recordClick(this)""><div class = content><div class = numbers>S</div></div></button><button id = button_12 class = ""square num-button"" onclick = ""recordClick(this)""><div class = content><div class = numbers>Y</div></div></button><button class = clear_button id = ""ClearButton"" onclick = ""clearResponse()"">BACKSPACE</button><button class = blank_button id = ""BlankButton"" onclick = ""blankResponse()"">SKIP</button><p style=""font-size: 2.4rem""><u><b>Current Answer:</b></u></p><br><br><div id=echoed_txt style=""font-size: 5rem; color:blue;""><b></b></div></div>",enter,ospan,retrieval,4fmsWGjJCMZRwx0RIoPdFcupPcw1,html-keyboard-response,173,799179,0.0-46.0-5.0-1.0-2.0,28,28,28,7.0,"[""P"",""K"",""N"",""R"",""J"",""L"",""H""]","[""P"",""K"",""N"",""R"",""J"",""L"",""H""]",1.0,7.0,,,,,,,65ff408b32980a820b6742c7,14:35:26,03/04/2024
2986.0,[''],0,ospan,feedback,4fmsWGjJCMZRwx0RIoPdFcupPcw1,html-button-response,174,802678,0.0-46.0-5.0-1.0-3.0,,,,,,,,,,,,100.0,0.0,,65ff408b32980a820b6742c7,14:35:26,03/04/2024
,"<p style=""font-size:75px;"">...</p>",,ospan,iti,4fmsWGjJCMZRwx0RIoPdFcupPcw1,html-keyboard-response,175,803694,0.0-46.0-6.0-0.0-0.0,,,,,,,,,,,,,,,65ff408b32980a820b6742c7,14:35:26,03/04/2024
2384.0,,,ospan,symmetry,4fmsWGjJCMZRwx0RIoPdFcupPcw1,symmetry-judgement-task,176,807136,0.0-46.0-6.0-0.0-1.0-0.0,,,,,,,,,,1.0,1.0,,,,65ff408b32980a820b6742c7,14:35:26,03/04/2024
,"<div style=""font-size: 10rem; color: #0000FF"">L</div>",,ospan,letter,4fmsWGjJCMZRwx0RIoPdFcupPcw1,html-keyboard-response,177,808138,0.0-46.0-6.0-0.0-1.0-1.0,,,,,,,,,,,,,,,65ff408b32980a820b6742c7,14:35:26,03/04/2024
1287.0,,,ospan,symmetry,4fmsWGjJCMZRwx0RIoPdFcupPcw1,symmetry-judgement-task,178,811240,0.0-46.0-6.0-0.0-1.0-2.0,,,,,,,,,,1.0,1.0,,,,65ff408b32980a820b6742c7,14:35:26,03/04/2024
,"<div style=""font-size: 10rem; color: #0000FF"">Y</div>",,ospan,letter,4fmsWGjJCMZRwx0RIoPdFcupPcw1,html-keyboard-response,179,812243,0.0-46.0-6.0-0.0-1.0-3.0,,,,,,,,,,,,,,,65ff408b32980a820b6742c7,14:35:26,03/04/2024
1931.0,,,ospan,symmetry,4fmsWGjJCMZRwx0RIoPdFcupPcw1,symmetry-judgement-task,180,815975,0.0-46.0-6.0-0.0-1.0-4.0,,,,,,,,,,1.0,1.0,,,,65ff408b32980a820b6742c7,14:35:26,03/04/2024
,"<div style=""font-size: 10rem; color: #0000FF"">R</div>",,ospan,letter,4fmsWGjJCMZRwx0RIoPdFcupPcw1,html-keyboard-response,181,816991,0.0-46.0-6.0-0.0-1.0-5.0,,,,,,,,,,,,,,,65ff408b32980a820b6742c7,14:35:26,03/04/2024
1274.0,,,ospan,symmetry,4fmsWGjJCMZRwx0RIoPdFcupPcw1,symmetry-judgement-task,182,820077,0.0-46.0-6.0-0.0-1.0-6.0,,,,,,,,,,1.0,1.0,,,,65ff408b32980a820b6742c7,14:35:26,03/04/2024
,"<div style=""font-size: 10rem; color: #0000FF"">J</div>",,ospan,letter,4fmsWGjJCMZRwx0RIoPdFcupPcw1,html-keyboard-response,183,821078,0.0-46.0-6.0-0.0-1.0-7.0,,,,,,,,,,,,,,,65ff408b32980a820b6742c7,14:35:26,03/04/2024
1049.0,,,ospan,symmetry,4fmsWGjJCMZRwx0RIoPdFcupPcw1,symmetry-judgement-task,184,823952,0.0-46.0-6.0-0.0-1.0-8.0,,,,,,,,,,1.0,1.0,,,,65ff408b32980a820b6742c7,14:35:26,03/04/2024
,"<div style=""font-size: 10rem; color: #0000FF"">Q</div>",,ospan,letter,4fmsWGjJCMZRwx0RIoPdFcupPcw1,html-keyboard-response,185,824954,0.0-46.0-6.0-0.0-1.0-9.0,,,,,,,,,,,,,,,65ff408b32980a820b6742c7,14:35:26,03/04/2024
7029.0,"<div class = numbox><p style=""font-size: 2.4rem"">Please recall the letters you saw to the best of your ability. If you do not remember a particular letter, use the SKIP button.<br><b>(When you are ready to lock in your answer, press ENTER)</b></p><button id = button_1 class = ""square num-button"" onclick = ""recordClick(this)""><div class = content><div class = numbers>C</div></div></button><button id = button_2 class = ""square num-button"" onclick = ""recordClick(this)""><div class = content><div class = numbers>G</div></div></button><button id = button_3 class = ""square num-button"" onclick = ""recordClick(this)""><div class = content><div class = numbers>H</div></div></button><button id = button_4 class = ""square num-button"" onclick = ""recordClick(this)""><div class = content><div class = numbers>J</div></div></button><button id = button_5 class = ""square num-button"" onclick = ""recordClick(this)""><div class = content><div class = numbers>K</div></div></button><button id = button_6 class = ""square num-button"" onclick = ""recordClick(this)""><div class = content><div class = numbers>L</div></div></button><button id = button_7 class = ""square num-button"" onclick = ""recordClick(this)""><div class = content><div class = numbers>N</div></div></button><button id = button_8 class = ""square num-button"" onclick = ""recordClick(this)""><div class = content><div class = numbers>P</div></div></button><button id = button_9 class = ""square num-button"" onclick = ""recordClick(this)""><div class = content><div class = numbers>Q</div></div></button><button id = button_10 class = ""square num-button"" onclick = ""recordClick(this)""><div class = content><div class = numbers>R</div></div></button><button id = button_11 class = ""square num-button"" onclick = ""recordClick(this)""><div class = content><div class = numbers>S</div></div></button><button id = button_12 class = ""square num-button"" onclick = ""recordClick(this)""><div class = content><div class = numbers>Y</div></div></button><button class = clear_button id = ""ClearButton"" onclick = ""clearResponse()"">BACKSPACE</button><button class = blank_button id = ""BlankButton"" onclick = ""blankResponse()"">SKIP</button><p style=""font-size: 2.4rem""><u><b>Current Answer:</b></u></p><br><br><div id=echoed_txt style=""font-size: 5rem; color:blue;""><b></b></div></div>",enter,ospan,retrieval,4fmsWGjJCMZRwx0RIoPdFcupPcw1,html-keyboard-response,186,832739,0.0-46.0-6.0-0.0-2.0,33,33,33,5.0,"[""L"",""Y"",""R"",""J"",""Q""]","[""L"",""Y"",""R"",""J"",""Q""]",1.0,5.0,,,,,,,65ff408b32980a820b6742c7,14:35:26,03/04/2024
3440.0,[''],0,ospan,feedback,4fmsWGjJCMZRwx0RIoPdFcupPcw1,html-button-response,187,836690,0.0-46.0-6.0-0.0-3.0,,,,,,,,,,,,100.0,0.0,,65ff408b32980a820b6742c7,14:35:26,03/04/2024
,"<p style=""font-size:75px;"">...</p>",,ospan,iti,4fmsWGjJCMZRwx0RIoPdFcupPcw1,html-keyboard-response,188,837703,0.0-46.0-6.0-1.0-0.0,,,,,,,,,,,,,,,65ff408b32980a820b6742c7,14:35:26,03/04/2024
1733.0,,,ospan,symmetry,4fmsWGjJCMZRwx0RIoPdFcupPcw1,symmetry-judgement-task,189,840508,0.0-46.0-6.0-1.0-1.0-0.0,,,,,,,,,,1.0,1.0,,,,65ff408b32980a820b6742c7,14:35:26,03/04/2024
,"<div style=""font-size: 10rem; color: #0000FF"">S</div>",,ospan,letter,4fmsWGjJCMZRwx0RIoPdFcupPcw1,html-keyboard-response,190,841560,0.0-46.0-6.0-1.0-1.0-1.0,,,,,,,,,,,,,,,65ff408b32980a820b6742c7,14:35:26,03/04/2024
878.0,,,ospan,symmetry,4fmsWGjJCMZRwx0RIoPdFcupPcw1,symmetry-judgement-task,191,844244,0.0-46.0-6.0-1.0-1.0-2.0,,,,,,,,,,1.0,1.0,,,,65ff408b32980a820b6742c7,14:35:26,03/04/2024
,"<div style=""font-size: 10rem; color: #0000FF"">G</div>",,ospan,letter,4fmsWGjJCMZRwx0RIoPdFcupPcw1,html-keyboard-response,192,845246,0.0-46.0-6.0-1.0-1.0-3.0,,,,,,,,,,,,,,,65ff408b32980a820b6742c7,14:35:26,03/04/2024
2108.0,,,ospan,symmetry,4fmsWGjJCMZRwx0RIoPdFcupPcw1,symmetry-judgement-task,193,849160,0.0-46.0-6.0-1.0-1.0-4.0,,,,,,,,,,1.0,1.0,,,,65ff408b32980a820b6742c7,14:35:26,03/04/2024
,"<div style=""font-size: 10rem; color: #0000FF"">Q</div>",,ospan,letter,4fmsWGjJCMZRwx0RIoPdFcupPcw1,html-keyboard-response,194,850164,0.0-46.0-6.0-1.0-1.0-5.0,,,,,,,,,,,,,,,65ff408b32980a820b6742c7,14:35:26,03/04/2024
2414.0,,,ospan,symmetry,4fmsWGjJCMZRwx0RIoPdFcupPcw1,symmetry-judgement-task,195,854392,0.0-46.0-6.0-1.0-1.0-6.0,,,,,,,,,,1.0,1.0,,,,65ff408b32980a820b6742c7,14:35:26,03/04/2024
,"<div style=""font-size: 10rem; color: #0000FF"">P</div>",,ospan,letter,4fmsWGjJCMZRwx0RIoPdFcupPcw1,html-keyboard-response,196,855394,0.0-46.0-6.0-1.0-1.0-7.0,,,,,,,,,,,,,,,65ff408b32980a820b6742c7,14:35:26,03/04/2024
874.0,,,ospan,symmetry,4fmsWGjJCMZRwx0RIoPdFcupPcw1,symmetry-judgement-task,197,858095,0.0-46.0-6.0-1.0-1.0-8.0,,,,,,,,,,1.0,1.0,,,,65ff408b32980a820b6742c7,14:35:26,03/04/2024
,"<div style=""font-size: 10rem; color: #0000FF"">H</div>",,ospan,letter,4fmsWGjJCMZRwx0RIoPdFcupPcw1,html-keyboard-response,198,859097,0.0-46.0-6.0-1.0-1.0-9.0,,,,,,,,,,,,,,,65ff408b32980a820b6742c7,14:35:26,03/04/2024
1080.0,,,ospan,symmetry,4fmsWGjJCMZRwx0RIoPdFcupPcw1,symmetry-judgement-task,199,861985,0.0-46.0-6.0-1.0-1.0-10.0,,,,,,,,,,1.0,1.0,,,,65ff408b32980a820b6742c7,14:35:26,03/04/2024
,"<div style=""font-size: 10rem; color: #0000FF"">L</div>",,ospan,letter,4fmsWGjJCMZRwx0RIoPdFcupPcw1,html-keyboard-response,200,862988,0.0-46.0-6.0-1.0-1.0-11.0,,,,,,,,,,,,,,,65ff408b32980a820b6742c7,14:35:26,03/04/2024
3545.0,,,ospan,symmetry,4fmsWGjJCMZRwx0RIoPdFcupPcw1,symmetry-judgement-task,201,868349,0.0-46.0-6.0-1.0-1.0-12.0,,,,,,,,,,0.0,0.0,,,,65ff408b32980a820b6742c7,14:35:26,03/04/2024
,"<div style=""font-size: 10rem; color: #0000FF"">J</div>",,ospan,letter,4fmsWGjJCMZRwx0RIoPdFcupPcw1,html-keyboard-response,202,869351,0.0-46.0-6.0-1.0-1.0-13.0,,,,,,,,,,,,,,,65ff408b32980a820b6742c7,14:35:26,03/04/2024
2645.0,,,ospan,symmetry,4fmsWGjJCMZRwx0RIoPdFcupPcw1,symmetry-judgement-task,203,873810,0.0-46.0-6.0-1.0-1.0-14.0,,,,,,,,,,0.0,0.0,,,,65ff408b32980a820b6742c7,14:35:26,03/04/2024
,"<div style=""font-size: 10rem; color: #0000FF"">N</div>",,ospan,letter,4fmsWGjJCMZRwx0RIoPdFcupPcw1,html-keyboard-response,204,874814,0.0-46.0-6.0-1.0-1.0-15.0,,,,,,,,,,,,,,,65ff408b32980a820b6742c7,14:35:26,03/04/2024
30646.0,"<div class = numbox><p style=""font-size: 2.4rem"">Please recall the letters you saw to the best of your ability. If you do not remember a particular letter, use the SKIP button.<br><b>(When you are ready to lock in your answer, press ENTER)</b></p><button id = button_1 class = ""square num-button"" onclick = ""recordClick(this)""><div class = content><div class = numbers>C</div></div></button><button id = button_2 class = ""square num-button"" onclick = ""recordClick(this)""><div class = content><div class = numbers>G</div></div></button><button id = button_3 class = ""square num-button"" onclick = ""recordClick(this)""><div class = content><div class = numbers>H</div></div></button><button id = button_4 class = ""square num-button"" onclick = ""recordClick(this)""><div class = content><div class = numbers>J</div></div></button><button id = button_5 class = ""square num-button"" onclick = ""recordClick(this)""><div class = content><div class = numbers>K</div></div></button><button id = button_6 class = ""square num-button"" onclick = ""recordClick(this)""><div class = content><div class = numbers>L</div></div></button><button id = button_7 class = ""square num-button"" onclick = ""recordClick(this)""><div class = content><div class = numbers>N</div></div></button><button id = button_8 class = ""square num-button"" onclick = ""recordClick(this)""><div class = content><div class = numbers>P</div></div></button><button id = button_9 class = ""square num-button"" onclick = ""recordClick(this)""><div class = content><div class = numbers>Q</div></div></button><button id = button_10 class = ""square num-button"" onclick = ""recordClick(this)""><div class = content><div class = numbers>R</div></div></button><button id = button_11 class = ""square num-button"" onclick = ""recordClick(this)""><div class = content><div class = numbers>S</div></div></button><button id = button_12 class = ""square num-button"" onclick = ""recordClick(this)""><div class = content><div class = numbers>Y</div></div></button><button class = clear_button id = ""ClearButton"" onclick = ""clearResponse()"">BACKSPACE</button><button class = blank_button id = ""BlankButton"" onclick = ""blankResponse()"">SKIP</button><p style=""font-size: 2.4rem""><u><b>Current Answer:</b></u></p><br><br><div id=echoed_txt style=""font-size: 5rem; color:blue;""><b></b></div></div>",enter,ospan,retrieval,4fmsWGjJCMZRwx0RIoPdFcupPcw1,html-keyboard-response,205,906216,0.0-46.0-6.0-1.0-2.0,41,41,41,8.0,"[""S"",""G"",""Q"",""P"",""H"",""L"",""J"",""N""]","[""S"",""G"",""Q"",""P"",""H"",""L"",""J"",""N""]",1.0,8.0,,,,,,,65ff408b32980a820b6742c7,14:35:26,03/04/2024
1189.0,[''],0,ospan,feedback,4fmsWGjJCMZRwx0RIoPdFcupPcw1,html-button-response,206,907908,0.0-46.0-6.0-1.0-3.0,,,,,,,,,,,,95.0,0.0,,65ff408b32980a820b6742c7,14:35:26,03/04/2024
10028.0,,{'Q0': 'I enjoyed this'},ospan,survey_ospan,4fmsWGjJCMZRwx0RIoPdFcupPcw1,lmdlab-survey-text,207,918694,0.0-46.0-7.0,,,,,,,,,,,,,,4fmsWGjJCMZRwx0RIoPdFcupPcw1,65ff408b32980a820b6742c7,14:35:26,03/04/2024
1868.0,<p><p style='font-size: 3rem'>Great work!<br><br>This completes the symmetry and memory task.</p><br><br><br>,0,ospan,finish,4fmsWGjJCMZRwx0RIoPdFcupPcw1,html-button-response,208,920564,0.0-46.0-8.0,41,41,41,,,,,,,,,95.0,,,65ff408b32980a820b6742c7,14:35:26,03/04/2024
